[{"rt":null,"stimulus":"Welcome to the experiment. Press any key to begin.","response":null,"trial_type":"html-keyboard-response","trial_index":0,"time_elapsed":30601,"internal_node_id":"0.0-0.0","params":{"nStudents":24,"maxFlips":30,"completionMinutes":45,"basePay":8,"maxBonus":9,"perTrialBonus":0.5,"perTrialBonusThreshold":0.05,"exampleCost":0.01},"classroomParams":{"A":{"a":1,"b":4},"B":{"a":4,"b":1},"C":{"a":2,"b":8},"D":{"a":8,"b":2}},"conditions":["nonSeqFull","nonSeqPartial","seqNoFeedback","seqFeedback"],"classroomPairings":[["A","B"],["C","D"]],"coinWeights":[0.2,0.5,0.8],"subjectId":"AOHS348RVOF6D","assignmentId":"3LUY3GC630MSKJLF0Z4HJ8054OMP7P","hitId":"3Z3R5YC0P3915KVY8X6BNRIWSQNFTT","url":"https://gershmanlab.com/experiments/alicia/teaching/experiment/?hitId=3Z3R5YC0P3915KVY8X6BNRIWSQNFTT&workerId=AOHS348RVOF6D&assignmentId=3LUY3GC630MSKJLF0Z4HJ8054OMP7P&a=63UL9&tp_a=63UL9&b=3LUY3GC630MSKJLF0Z4HJ8054OMP7P&tp_b=3LUY3GC630MSKJLF0Z4HJ8054OMP7P&c=365799&tp_c=365799"},{"rt":13726,"stimulus":"\n        <h3>Please read this consent agreement carefully before deciding whether to participate in this experiment.</h3>\n        <p><b>Purpose of the research:</b> To examine how people teach effectively.</p>\n        <p><b>What you will do in this research:</b> You will teach students the weights of different coins.</p>\n        <p><b>Time required:</b> This experiment will take 45 minutes to complete.</p>\n        <p><b>Risks:</b> There are no anticipated risks associated with participating in this study.             The effects of participating should be comparable to those you would experience from viewing a computer monitor             and using a mouse and keyboard for the duration of the experiment.</p>\n        <p><b>Benefits:</b> The study provides important information about the nature of teaching.</p>\n        <p><b>Compensation:</b> You will receive <b>$8</b> for completing the experiment and a performance bonus of up to <b>$9</b>.</p>\n        <p><b>Confidentiality:</b> Your participation in this study will remain confidential.             No personally identifiable information will be associated with your data.             Your de-identified data may be shared with other researchers and used in future projects.</p>\n        <p><b>Participation and withdrawal:</b> Your participation in this study is completely voluntary and             you may refuse to participate or you may choose to withdraw at any time without penalty or loss of\n            benefits to which you are otherwise entitled.</p>\n        <p><b>How to contact the researcher:</b> If you have questions or concerns about your participation            or payment, or want to request a summary of research findings, please contact\n            Alicia Chen, aliciachen@college.harvard.edu.</p>\n        <p><b>Whom to contact about your rights in this research:</b> For questions, concerns, suggestions,             or complaints that have not been or cannot be addressed by the researcher, or to report             research-related harm, please contact the Committee on the Use of Human Subjects in Research at Harvard University,             1414 Massachusetts Avenue, Second Floor, Cambridge, MA 02138. Phone: 617-496-2847. Email: cuhs@fas.harvard.edu.</p>\n        ","response":0,"trial_type":"html-button-response","trial_index":1,"time_elapsed":44330,"internal_node_id":"0.0-1.0","params":{"nStudents":24,"maxFlips":30,"completionMinutes":45,"basePay":8,"maxBonus":9,"perTrialBonus":0.5,"perTrialBonusThreshold":0.05,"exampleCost":0.01},"classroomParams":{"A":{"a":1,"b":4},"B":{"a":4,"b":1},"C":{"a":2,"b":8},"D":{"a":8,"b":2}},"conditions":["nonSeqFull","nonSeqPartial","seqNoFeedback","seqFeedback"],"classroomPairings":[["A","B"],["C","D"]],"coinWeights":[0.2,0.5,0.8],"subjectId":"AOHS348RVOF6D","assignmentId":"3LUY3GC630MSKJLF0Z4HJ8054OMP7P","hitId":"3Z3R5YC0P3915KVY8X6BNRIWSQNFTT","url":"https://gershmanlab.com/experiments/alicia/teaching/experiment/?hitId=3Z3R5YC0P3915KVY8X6BNRIWSQNFTT&workerId=AOHS348RVOF6D&assignmentId=3LUY3GC630MSKJLF0Z4HJ8054OMP7P&a=63UL9&tp_a=63UL9&b=3LUY3GC630MSKJLF0Z4HJ8054OMP7P&tp_b=3LUY3GC630MSKJLF0Z4HJ8054OMP7P&c=365799&tp_c=365799"},{"view_history":[{"page_index":0,"viewing_time":344141},{"page_index":1,"viewing_time":14400},{"page_index":2,"viewing_time":14378},{"page_index":3,"viewing_time":14528},{"page_index":4,"viewing_time":7590},{"page_index":5,"viewing_time":11115},{"page_index":6,"viewing_time":17393}],"rt":423545,"trial_type":"instructions","trial_index":2,"time_elapsed":467876,"internal_node_id":"0.0-2.0-0.0","params":{"nStudents":24,"maxFlips":30,"completionMinutes":45,"basePay":8,"maxBonus":9,"perTrialBonus":0.5,"perTrialBonusThreshold":0.05,"exampleCost":0.01},"classroomParams":{"A":{"a":1,"b":4},"B":{"a":4,"b":1},"C":{"a":2,"b":8},"D":{"a":8,"b":2}},"conditions":["nonSeqFull","nonSeqPartial","seqNoFeedback","seqFeedback"],"classroomPairings":[["A","B"],["C","D"]],"coinWeights":[0.2,0.5,0.8],"subjectId":"AOHS348RVOF6D","assignmentId":"3LUY3GC630MSKJLF0Z4HJ8054OMP7P","hitId":"3Z3R5YC0P3915KVY8X6BNRIWSQNFTT","url":"https://gershmanlab.com/experiments/alicia/teaching/experiment/?hitId=3Z3R5YC0P3915KVY8X6BNRIWSQNFTT&workerId=AOHS348RVOF6D&assignmentId=3LUY3GC630MSKJLF0Z4HJ8054OMP7P&a=63UL9&tp_a=63UL9&b=3LUY3GC630MSKJLF0Z4HJ8054OMP7P&tp_b=3LUY3GC630MSKJLF0Z4HJ8054OMP7P&c=365799&tp_c=365799"},{"rt":146304,"response":{"Q0":"Students in different classrooms will have seen a different number of heads and tails before seeing the examples you select for them.","Q1":"By <b>considering the student's classroom information</b> so that I can teach efficiently and accurately/helpfully at the same time (because each example I give to the student costs money!).","Q2":"The coin lands heads 90% of the time.","Q3":"No, I will teach a <b>new</b> student each time.","Q4":"The students are also on the same alien planet as you, where coins can be unfair.","Q5":"Based on the student's second (and final) guess."},"question_order":[4,0,3,2,5,1],"trial_type":"survey-multi-choice","trial_index":3,"time_elapsed":614182,"internal_node_id":"0.0-2.0-1.0","params":{"nStudents":24,"maxFlips":30,"completionMinutes":45,"basePay":8,"maxBonus":9,"perTrialBonus":0.5,"perTrialBonusThreshold":0.05,"exampleCost":0.01},"classroomParams":{"A":{"a":1,"b":4},"B":{"a":4,"b":1},"C":{"a":2,"b":8},"D":{"a":8,"b":2}},"conditions":["nonSeqFull","nonSeqPartial","seqNoFeedback","seqFeedback"],"classroomPairings":[["A","B"],["C","D"]],"coinWeights":[0.2,0.5,0.8],"subjectId":"AOHS348RVOF6D","assignmentId":"3LUY3GC630MSKJLF0Z4HJ8054OMP7P","hitId":"3Z3R5YC0P3915KVY8X6BNRIWSQNFTT","url":"https://gershmanlab.com/experiments/alicia/teaching/experiment/?hitId=3Z3R5YC0P3915KVY8X6BNRIWSQNFTT&workerId=AOHS348RVOF6D&assignmentId=3LUY3GC630MSKJLF0Z4HJ8054OMP7P&a=63UL9&tp_a=63UL9&b=3LUY3GC630MSKJLF0Z4HJ8054OMP7P&tp_b=3LUY3GC630MSKJLF0Z4HJ8054OMP7P&c=365799&tp_c=365799","pass":true},{"rt":null,"stimulus":"<div style=\"font-size:30px;\">Congrats on passing the comprehension quiz! The experiment will begin in a few seconds.</div>","response":null,"trial_type":"html-keyboard-response","trial_index":4,"time_elapsed":617192,"internal_node_id":"0.0-3.0","params":{"nStudents":24,"maxFlips":30,"completionMinutes":45,"basePay":8,"maxBonus":9,"perTrialBonus":0.5,"perTrialBonusThreshold":0.05,"exampleCost":0.01},"classroomParams":{"A":{"a":1,"b":4},"B":{"a":4,"b":1},"C":{"a":2,"b":8},"D":{"a":8,"b":2}},"conditions":["nonSeqFull","nonSeqPartial","seqNoFeedback","seqFeedback"],"classroomPairings":[["A","B"],["C","D"]],"coinWeights":[0.2,0.5,0.8],"subjectId":"AOHS348RVOF6D","assignmentId":"3LUY3GC630MSKJLF0Z4HJ8054OMP7P","hitId":"3Z3R5YC0P3915KVY8X6BNRIWSQNFTT","url":"https://gershmanlab.com/experiments/alicia/teaching/experiment/?hitId=3Z3R5YC0P3915KVY8X6BNRIWSQNFTT&workerId=AOHS348RVOF6D&assignmentId=3LUY3GC630MSKJLF0Z4HJ8054OMP7P&a=63UL9&tp_a=63UL9&b=3LUY3GC630MSKJLF0Z4HJ8054OMP7P&tp_b=3LUY3GC630MSKJLF0Z4HJ8054OMP7P&c=365799&tp_c=365799"},{"rt":null,"stimulus":"<div style=\"font-size:50px;\">First student</div>","response":null,"trial_type":"html-keyboard-response","trial_index":5,"time_elapsed":620200,"internal_node_id":"0.0-4.0","params":{"nStudents":24,"maxFlips":30,"completionMinutes":45,"basePay":8,"maxBonus":9,"perTrialBonus":0.5,"perTrialBonusThreshold":0.05,"exampleCost":0.01},"classroomParams":{"A":{"a":1,"b":4},"B":{"a":4,"b":1},"C":{"a":2,"b":8},"D":{"a":8,"b":2}},"conditions":["nonSeqFull","nonSeqPartial","seqNoFeedback","seqFeedback"],"classroomPairings":[["A","B"],["C","D"]],"coinWeights":[0.2,0.5,0.8],"subjectId":"AOHS348RVOF6D","assignmentId":"3LUY3GC630MSKJLF0Z4HJ8054OMP7P","hitId":"3Z3R5YC0P3915KVY8X6BNRIWSQNFTT","url":"https://gershmanlab.com/experiments/alicia/teaching/experiment/?hitId=3Z3R5YC0P3915KVY8X6BNRIWSQNFTT&workerId=AOHS348RVOF6D&assignmentId=3LUY3GC630MSKJLF0Z4HJ8054OMP7P&a=63UL9&tp_a=63UL9&b=3LUY3GC630MSKJLF0Z4HJ8054OMP7P&tp_b=3LUY3GC630MSKJLF0Z4HJ8054OMP7P&c=365799&tp_c=365799"},{"rt":12162,"stimulus":"\n            <h4 style=\"color:Orange;\">Student 1</h4>\n            <h2>The weight of your coin is <b style=\"color:Tomato;\">0.8</b>.</h2>\n            <p>In this block, you will be giving <b>two</b> sets of examples to Student 1.</p>\n                <p>You will see the student's guess after the first set of examples. You will also receive feedback at the end of the block.</p>\n            <p>To earn the highest bonus, you will have to <b>take into consideration the student's guess</b> when you choose your second set of examples.</p>","response":0,"trial_type":"html-button-response","trial_index":6,"time_elapsed":632363,"internal_node_id":"0.0-5.0","params":{"nStudents":24,"maxFlips":30,"completionMinutes":45,"basePay":8,"maxBonus":9,"perTrialBonus":0.5,"perTrialBonusThreshold":0.05,"exampleCost":0.01},"classroomParams":{"A":{"a":1,"b":4},"B":{"a":4,"b":1},"C":{"a":2,"b":8},"D":{"a":8,"b":2}},"conditions":["nonSeqFull","nonSeqPartial","seqNoFeedback","seqFeedback"],"classroomPairings":[["A","B"],["C","D"]],"coinWeights":[0.2,0.5,0.8],"subjectId":"AOHS348RVOF6D","assignmentId":"3LUY3GC630MSKJLF0Z4HJ8054OMP7P","hitId":"3Z3R5YC0P3915KVY8X6BNRIWSQNFTT","url":"https://gershmanlab.com/experiments/alicia/teaching/experiment/?hitId=3Z3R5YC0P3915KVY8X6BNRIWSQNFTT&workerId=AOHS348RVOF6D&assignmentId=3LUY3GC630MSKJLF0Z4HJ8054OMP7P&a=63UL9&tp_a=63UL9&b=3LUY3GC630MSKJLF0Z4HJ8054OMP7P&tp_b=3LUY3GC630MSKJLF0Z4HJ8054OMP7P&c=365799&tp_c=365799"},{"rt":21382,"response":{"heads":"8","tails":"2"},"type":"response","condition":"seqFeedback","trueTheta":0.8,"classrooms":["C","D"],"studentTrueClassroom":"C","exampleSet":"first","trial_type":"survey-html-form","trial_index":7,"time_elapsed":653746,"internal_node_id":"0.0-6.0-0.0","params":{"nStudents":24,"maxFlips":30,"completionMinutes":45,"basePay":8,"maxBonus":9,"perTrialBonus":0.5,"perTrialBonusThreshold":0.05,"exampleCost":0.01},"classroomParams":{"A":{"a":1,"b":4},"B":{"a":4,"b":1},"C":{"a":2,"b":8},"D":{"a":8,"b":2}},"conditions":["nonSeqFull","nonSeqPartial","seqNoFeedback","seqFeedback"],"classroomPairings":[["A","B"],["C","D"]],"coinWeights":[0.2,0.5,0.8],"subjectId":"AOHS348RVOF6D","assignmentId":"3LUY3GC630MSKJLF0Z4HJ8054OMP7P","hitId":"3Z3R5YC0P3915KVY8X6BNRIWSQNFTT","url":"https://gershmanlab.com/experiments/alicia/teaching/experiment/?hitId=3Z3R5YC0P3915KVY8X6BNRIWSQNFTT&workerId=AOHS348RVOF6D&assignmentId=3LUY3GC630MSKJLF0Z4HJ8054OMP7P&a=63UL9&tp_a=63UL9&b=3LUY3GC630MSKJLF0Z4HJ8054OMP7P&tp_b=3LUY3GC630MSKJLF0Z4HJ8054OMP7P&c=365799&tp_c=365799","heads":8,"tails":2,"studentIndex":0,"studentTrueHypers":{"a":2,"b":8},"studentGuess":0.5,"delta":0.30000000000000004,"totalExamples":10,"bonusSoFar":0},{"rt":null,"stimulus":"Sending examples to student... ","response":null,"trial_type":"html-keyboard-response","trial_index":8,"time_elapsed":655261,"internal_node_id":"0.0-7.0","params":{"nStudents":24,"maxFlips":30,"completionMinutes":45,"basePay":8,"maxBonus":9,"perTrialBonus":0.5,"perTrialBonusThreshold":0.05,"exampleCost":0.01},"classroomParams":{"A":{"a":1,"b":4},"B":{"a":4,"b":1},"C":{"a":2,"b":8},"D":{"a":8,"b":2}},"conditions":["nonSeqFull","nonSeqPartial","seqNoFeedback","seqFeedback"],"classroomPairings":[["A","B"],["C","D"]],"coinWeights":[0.2,0.5,0.8],"subjectId":"AOHS348RVOF6D","assignmentId":"3LUY3GC630MSKJLF0Z4HJ8054OMP7P","hitId":"3Z3R5YC0P3915KVY8X6BNRIWSQNFTT","url":"https://gershmanlab.com/experiments/alicia/teaching/experiment/?hitId=3Z3R5YC0P3915KVY8X6BNRIWSQNFTT&workerId=AOHS348RVOF6D&assignmentId=3LUY3GC630MSKJLF0Z4HJ8054OMP7P&a=63UL9&tp_a=63UL9&b=3LUY3GC630MSKJLF0Z4HJ8054OMP7P&tp_b=3LUY3GC630MSKJLF0Z4HJ8054OMP7P&c=365799&tp_c=365799"},{"rt":null,"stimulus":"Examples sent to student! Waiting for student...","response":null,"trial_type":"html-keyboard-response","trial_index":9,"time_elapsed":660762,"internal_node_id":"0.0-8.0","params":{"nStudents":24,"maxFlips":30,"completionMinutes":45,"basePay":8,"maxBonus":9,"perTrialBonus":0.5,"perTrialBonusThreshold":0.05,"exampleCost":0.01},"classroomParams":{"A":{"a":1,"b":4},"B":{"a":4,"b":1},"C":{"a":2,"b":8},"D":{"a":8,"b":2}},"conditions":["nonSeqFull","nonSeqPartial","seqNoFeedback","seqFeedback"],"classroomPairings":[["A","B"],["C","D"]],"coinWeights":[0.2,0.5,0.8],"subjectId":"AOHS348RVOF6D","assignmentId":"3LUY3GC630MSKJLF0Z4HJ8054OMP7P","hitId":"3Z3R5YC0P3915KVY8X6BNRIWSQNFTT","url":"https://gershmanlab.com/experiments/alicia/teaching/experiment/?hitId=3Z3R5YC0P3915KVY8X6BNRIWSQNFTT&workerId=AOHS348RVOF6D&assignmentId=3LUY3GC630MSKJLF0Z4HJ8054OMP7P&a=63UL9&tp_a=63UL9&b=3LUY3GC630MSKJLF0Z4HJ8054OMP7P&tp_b=3LUY3GC630MSKJLF0Z4HJ8054OMP7P&c=365799&tp_c=365799"},{"rt":10350,"stimulus":"\n                <p>Student's guess for coin weight: <b style=\"color:Tomato;\">0.50</b></p>\n                <p></b></p>\n                <p>You will now send another set of examples to your student. <b>Remember to take your student's guess into consideration so that you can earn the highest bonus possible!</b> </p>\n                <p>Press any key to continue.</p>\n                ","response":"enter","trial_type":"html-keyboard-response","trial_index":10,"time_elapsed":671113,"internal_node_id":"0.0-9.0","params":{"nStudents":24,"maxFlips":30,"completionMinutes":45,"basePay":8,"maxBonus":9,"perTrialBonus":0.5,"perTrialBonusThreshold":0.05,"exampleCost":0.01},"classroomParams":{"A":{"a":1,"b":4},"B":{"a":4,"b":1},"C":{"a":2,"b":8},"D":{"a":8,"b":2}},"conditions":["nonSeqFull","nonSeqPartial","seqNoFeedback","seqFeedback"],"classroomPairings":[["A","B"],["C","D"]],"coinWeights":[0.2,0.5,0.8],"subjectId":"AOHS348RVOF6D","assignmentId":"3LUY3GC630MSKJLF0Z4HJ8054OMP7P","hitId":"3Z3R5YC0P3915KVY8X6BNRIWSQNFTT","url":"https://gershmanlab.com/experiments/alicia/teaching/experiment/?hitId=3Z3R5YC0P3915KVY8X6BNRIWSQNFTT&workerId=AOHS348RVOF6D&assignmentId=3LUY3GC630MSKJLF0Z4HJ8054OMP7P&a=63UL9&tp_a=63UL9&b=3LUY3GC630MSKJLF0Z4HJ8054OMP7P&tp_b=3LUY3GC630MSKJLF0Z4HJ8054OMP7P&c=365799&tp_c=365799"},{"rt":32412,"response":{"heads":"8","tails":"2"},"type":"response","condition":"seqFeedback","trueTheta":0.8,"classrooms":["C","D"],"studentTrueClassroom":"C","exampleSet":"second","trial_type":"survey-html-form","trial_index":11,"time_elapsed":703526,"internal_node_id":"0.0-10.0-0.0","params":{"nStudents":24,"maxFlips":30,"completionMinutes":45,"basePay":8,"maxBonus":9,"perTrialBonus":0.5,"perTrialBonusThreshold":0.05,"exampleCost":0.01},"classroomParams":{"A":{"a":1,"b":4},"B":{"a":4,"b":1},"C":{"a":2,"b":8},"D":{"a":8,"b":2}},"conditions":["nonSeqFull","nonSeqPartial","seqNoFeedback","seqFeedback"],"classroomPairings":[["A","B"],["C","D"]],"coinWeights":[0.2,0.5,0.8],"subjectId":"AOHS348RVOF6D","assignmentId":"3LUY3GC630MSKJLF0Z4HJ8054OMP7P","hitId":"3Z3R5YC0P3915KVY8X6BNRIWSQNFTT","url":"https://gershmanlab.com/experiments/alicia/teaching/experiment/?hitId=3Z3R5YC0P3915KVY8X6BNRIWSQNFTT&workerId=AOHS348RVOF6D&assignmentId=3LUY3GC630MSKJLF0Z4HJ8054OMP7P&a=63UL9&tp_a=63UL9&b=3LUY3GC630MSKJLF0Z4HJ8054OMP7P&tp_b=3LUY3GC630MSKJLF0Z4HJ8054OMP7P&c=365799&tp_c=365799","firstResponseHeads":8,"firstResponseTails":2,"secondResponseHeads":8,"secondResponseTails":2,"totalHeads":16,"totalTails":4,"studentIndex":0,"studentTrueHypers":{"a":2,"b":8},"studentGuess":0.6,"delta":0.20000000000000007,"bonus":0,"bonusSoFar":0,"totalExamples":20},{"rt":null,"stimulus":"Sending examples to student... ","response":null,"trial_type":"html-keyboard-response","trial_index":12,"time_elapsed":705286,"internal_node_id":"0.0-11.0","params":{"nStudents":24,"maxFlips":30,"completionMinutes":45,"basePay":8,"maxBonus":9,"perTrialBonus":0.5,"perTrialBonusThreshold":0.05,"exampleCost":0.01},"classroomParams":{"A":{"a":1,"b":4},"B":{"a":4,"b":1},"C":{"a":2,"b":8},"D":{"a":8,"b":2}},"conditions":["nonSeqFull","nonSeqPartial","seqNoFeedback","seqFeedback"],"classroomPairings":[["A","B"],["C","D"]],"coinWeights":[0.2,0.5,0.8],"subjectId":"AOHS348RVOF6D","assignmentId":"3LUY3GC630MSKJLF0Z4HJ8054OMP7P","hitId":"3Z3R5YC0P3915KVY8X6BNRIWSQNFTT","url":"https://gershmanlab.com/experiments/alicia/teaching/experiment/?hitId=3Z3R5YC0P3915KVY8X6BNRIWSQNFTT&workerId=AOHS348RVOF6D&assignmentId=3LUY3GC630MSKJLF0Z4HJ8054OMP7P&a=63UL9&tp_a=63UL9&b=3LUY3GC630MSKJLF0Z4HJ8054OMP7P&tp_b=3LUY3GC630MSKJLF0Z4HJ8054OMP7P&c=365799&tp_c=365799"},{"rt":null,"stimulus":"Examples sent to student! Waiting for student...","response":null,"trial_type":"html-keyboard-response","trial_index":13,"time_elapsed":709296,"internal_node_id":"0.0-12.0","params":{"nStudents":24,"maxFlips":30,"completionMinutes":45,"basePay":8,"maxBonus":9,"perTrialBonus":0.5,"perTrialBonusThreshold":0.05,"exampleCost":0.01},"classroomParams":{"A":{"a":1,"b":4},"B":{"a":4,"b":1},"C":{"a":2,"b":8},"D":{"a":8,"b":2}},"conditions":["nonSeqFull","nonSeqPartial","seqNoFeedback","seqFeedback"],"classroomPairings":[["A","B"],["C","D"]],"coinWeights":[0.2,0.5,0.8],"subjectId":"AOHS348RVOF6D","assignmentId":"3LUY3GC630MSKJLF0Z4HJ8054OMP7P","hitId":"3Z3R5YC0P3915KVY8X6BNRIWSQNFTT","url":"https://gershmanlab.com/experiments/alicia/teaching/experiment/?hitId=3Z3R5YC0P3915KVY8X6BNRIWSQNFTT&workerId=AOHS348RVOF6D&assignmentId=3LUY3GC630MSKJLF0Z4HJ8054OMP7P&a=63UL9&tp_a=63UL9&b=3LUY3GC630MSKJLF0Z4HJ8054OMP7P&tp_b=3LUY3GC630MSKJLF0Z4HJ8054OMP7P&c=365799&tp_c=365799"},{"rt":4025,"stimulus":"\n                <p>Student 1's first guess for coin weight: <b style=\"color:Tomato\";>0.50</b></p>\n                <p>Student 1's second guess for coin weight: <b style=\"color:Tomato\";>0.60</b></p>\n                <p>You received a bonus of <b>$0.00</b> based on the student's second guess.</p>\n                <p>Total bonus so far: <b>$0.00</b></p>\n                <p>Press any key to continue.</p>\n                ","response":"enter","trial_type":"html-keyboard-response","trial_index":14,"time_elapsed":713323,"internal_node_id":"0.0-13.0","params":{"nStudents":24,"maxFlips":30,"completionMinutes":45,"basePay":8,"maxBonus":9,"perTrialBonus":0.5,"perTrialBonusThreshold":0.05,"exampleCost":0.01},"classroomParams":{"A":{"a":1,"b":4},"B":{"a":4,"b":1},"C":{"a":2,"b":8},"D":{"a":8,"b":2}},"conditions":["nonSeqFull","nonSeqPartial","seqNoFeedback","seqFeedback"],"classroomPairings":[["A","B"],["C","D"]],"coinWeights":[0.2,0.5,0.8],"subjectId":"AOHS348RVOF6D","assignmentId":"3LUY3GC630MSKJLF0Z4HJ8054OMP7P","hitId":"3Z3R5YC0P3915KVY8X6BNRIWSQNFTT","url":"https://gershmanlab.com/experiments/alicia/teaching/experiment/?hitId=3Z3R5YC0P3915KVY8X6BNRIWSQNFTT&workerId=AOHS348RVOF6D&assignmentId=3LUY3GC630MSKJLF0Z4HJ8054OMP7P&a=63UL9&tp_a=63UL9&b=3LUY3GC630MSKJLF0Z4HJ8054OMP7P&tp_b=3LUY3GC630MSKJLF0Z4HJ8054OMP7P&c=365799&tp_c=365799"},{"rt":null,"stimulus":"<div style=\"font-size:60px;\">Next student</div>","response":null,"trial_type":"html-keyboard-response","trial_index":15,"time_elapsed":715583,"internal_node_id":"0.0-14.0-0.0","params":{"nStudents":24,"maxFlips":30,"completionMinutes":45,"basePay":8,"maxBonus":9,"perTrialBonus":0.5,"perTrialBonusThreshold":0.05,"exampleCost":0.01},"classroomParams":{"A":{"a":1,"b":4},"B":{"a":4,"b":1},"C":{"a":2,"b":8},"D":{"a":8,"b":2}},"conditions":["nonSeqFull","nonSeqPartial","seqNoFeedback","seqFeedback"],"classroomPairings":[["A","B"],["C","D"]],"coinWeights":[0.2,0.5,0.8],"subjectId":"AOHS348RVOF6D","assignmentId":"3LUY3GC630MSKJLF0Z4HJ8054OMP7P","hitId":"3Z3R5YC0P3915KVY8X6BNRIWSQNFTT","url":"https://gershmanlab.com/experiments/alicia/teaching/experiment/?hitId=3Z3R5YC0P3915KVY8X6BNRIWSQNFTT&workerId=AOHS348RVOF6D&assignmentId=3LUY3GC630MSKJLF0Z4HJ8054OMP7P&a=63UL9&tp_a=63UL9&b=3LUY3GC630MSKJLF0Z4HJ8054OMP7P&tp_b=3LUY3GC630MSKJLF0Z4HJ8054OMP7P&c=365799&tp_c=365799"},{"rt":3422,"stimulus":"\n            <h4 style=\"color:Orange;\">Student 2</h4>\n            <h2>The weight of your coin is <b style=\"color:Tomato;\">0.5</b>.</h2>\n            <p>In this block, you will be giving <b>two</b> sets of examples to Student 2.</p>\n                <p>You will receive feedback at the end of the block.</p>\n            <p></p>","response":0,"trial_type":"html-button-response","trial_index":16,"time_elapsed":719007,"internal_node_id":"0.0-15.0","params":{"nStudents":24,"maxFlips":30,"completionMinutes":45,"basePay":8,"maxBonus":9,"perTrialBonus":0.5,"perTrialBonusThreshold":0.05,"exampleCost":0.01},"classroomParams":{"A":{"a":1,"b":4},"B":{"a":4,"b":1},"C":{"a":2,"b":8},"D":{"a":8,"b":2}},"conditions":["nonSeqFull","nonSeqPartial","seqNoFeedback","seqFeedback"],"classroomPairings":[["A","B"],["C","D"]],"coinWeights":[0.2,0.5,0.8],"subjectId":"AOHS348RVOF6D","assignmentId":"3LUY3GC630MSKJLF0Z4HJ8054OMP7P","hitId":"3Z3R5YC0P3915KVY8X6BNRIWSQNFTT","url":"https://gershmanlab.com/experiments/alicia/teaching/experiment/?hitId=3Z3R5YC0P3915KVY8X6BNRIWSQNFTT&workerId=AOHS348RVOF6D&assignmentId=3LUY3GC630MSKJLF0Z4HJ8054OMP7P&a=63UL9&tp_a=63UL9&b=3LUY3GC630MSKJLF0Z4HJ8054OMP7P&tp_b=3LUY3GC630MSKJLF0Z4HJ8054OMP7P&c=365799&tp_c=365799"},{"rt":4972,"response":{"heads":"8","tails":"2"},"type":"response","condition":"seqNoFeedback","trueTheta":0.5,"classrooms":["C","D"],"studentTrueClassroom":"C","exampleSet":"first","trial_type":"survey-html-form","trial_index":17,"time_elapsed":723980,"internal_node_id":"0.0-16.0-0.0","params":{"nStudents":24,"maxFlips":30,"completionMinutes":45,"basePay":8,"maxBonus":9,"perTrialBonus":0.5,"perTrialBonusThreshold":0.05,"exampleCost":0.01},"classroomParams":{"A":{"a":1,"b":4},"B":{"a":4,"b":1},"C":{"a":2,"b":8},"D":{"a":8,"b":2}},"conditions":["nonSeqFull","nonSeqPartial","seqNoFeedback","seqFeedback"],"classroomPairings":[["A","B"],["C","D"]],"coinWeights":[0.2,0.5,0.8],"subjectId":"AOHS348RVOF6D","assignmentId":"3LUY3GC630MSKJLF0Z4HJ8054OMP7P","hitId":"3Z3R5YC0P3915KVY8X6BNRIWSQNFTT","url":"https://gershmanlab.com/experiments/alicia/teaching/experiment/?hitId=3Z3R5YC0P3915KVY8X6BNRIWSQNFTT&workerId=AOHS348RVOF6D&assignmentId=3LUY3GC630MSKJLF0Z4HJ8054OMP7P&a=63UL9&tp_a=63UL9&b=3LUY3GC630MSKJLF0Z4HJ8054OMP7P&tp_b=3LUY3GC630MSKJLF0Z4HJ8054OMP7P&c=365799&tp_c=365799","heads":8,"tails":2,"studentIndex":1,"studentTrueHypers":{"a":2,"b":8},"studentGuess":0.5,"delta":0,"totalExamples":10,"bonusSoFar":0},{"rt":null,"stimulus":"Sending examples to student... ","response":null,"trial_type":"html-keyboard-response","trial_index":18,"time_elapsed":725492,"internal_node_id":"0.0-17.0","params":{"nStudents":24,"maxFlips":30,"completionMinutes":45,"basePay":8,"maxBonus":9,"perTrialBonus":0.5,"perTrialBonusThreshold":0.05,"exampleCost":0.01},"classroomParams":{"A":{"a":1,"b":4},"B":{"a":4,"b":1},"C":{"a":2,"b":8},"D":{"a":8,"b":2}},"conditions":["nonSeqFull","nonSeqPartial","seqNoFeedback","seqFeedback"],"classroomPairings":[["A","B"],["C","D"]],"coinWeights":[0.2,0.5,0.8],"subjectId":"AOHS348RVOF6D","assignmentId":"3LUY3GC630MSKJLF0Z4HJ8054OMP7P","hitId":"3Z3R5YC0P3915KVY8X6BNRIWSQNFTT","url":"https://gershmanlab.com/experiments/alicia/teaching/experiment/?hitId=3Z3R5YC0P3915KVY8X6BNRIWSQNFTT&workerId=AOHS348RVOF6D&assignmentId=3LUY3GC630MSKJLF0Z4HJ8054OMP7P&a=63UL9&tp_a=63UL9&b=3LUY3GC630MSKJLF0Z4HJ8054OMP7P&tp_b=3LUY3GC630MSKJLF0Z4HJ8054OMP7P&c=365799&tp_c=365799"},{"rt":null,"stimulus":"Examples sent to student! Waiting for student...","response":null,"trial_type":"html-keyboard-response","trial_index":19,"time_elapsed":729996,"internal_node_id":"0.0-18.0","params":{"nStudents":24,"maxFlips":30,"completionMinutes":45,"basePay":8,"maxBonus":9,"perTrialBonus":0.5,"perTrialBonusThreshold":0.05,"exampleCost":0.01},"classroomParams":{"A":{"a":1,"b":4},"B":{"a":4,"b":1},"C":{"a":2,"b":8},"D":{"a":8,"b":2}},"conditions":["nonSeqFull","nonSeqPartial","seqNoFeedback","seqFeedback"],"classroomPairings":[["A","B"],["C","D"]],"coinWeights":[0.2,0.5,0.8],"subjectId":"AOHS348RVOF6D","assignmentId":"3LUY3GC630MSKJLF0Z4HJ8054OMP7P","hitId":"3Z3R5YC0P3915KVY8X6BNRIWSQNFTT","url":"https://gershmanlab.com/experiments/alicia/teaching/experiment/?hitId=3Z3R5YC0P3915KVY8X6BNRIWSQNFTT&workerId=AOHS348RVOF6D&assignmentId=3LUY3GC630MSKJLF0Z4HJ8054OMP7P&a=63UL9&tp_a=63UL9&b=3LUY3GC630MSKJLF0Z4HJ8054OMP7P&tp_b=3LUY3GC630MSKJLF0Z4HJ8054OMP7P&c=365799&tp_c=365799"},{"rt":4843,"response":{"heads":"8","tails":"2"},"type":"response","condition":"seqNoFeedback","trueTheta":0.5,"classrooms":["C","D"],"studentTrueClassroom":"C","exampleSet":"second","trial_type":"survey-html-form","trial_index":20,"time_elapsed":734840,"internal_node_id":"0.0-19.0-0.0","params":{"nStudents":24,"maxFlips":30,"completionMinutes":45,"basePay":8,"maxBonus":9,"perTrialBonus":0.5,"perTrialBonusThreshold":0.05,"exampleCost":0.01},"classroomParams":{"A":{"a":1,"b":4},"B":{"a":4,"b":1},"C":{"a":2,"b":8},"D":{"a":8,"b":2}},"conditions":["nonSeqFull","nonSeqPartial","seqNoFeedback","seqFeedback"],"classroomPairings":[["A","B"],["C","D"]],"coinWeights":[0.2,0.5,0.8],"subjectId":"AOHS348RVOF6D","assignmentId":"3LUY3GC630MSKJLF0Z4HJ8054OMP7P","hitId":"3Z3R5YC0P3915KVY8X6BNRIWSQNFTT","url":"https://gershmanlab.com/experiments/alicia/teaching/experiment/?hitId=3Z3R5YC0P3915KVY8X6BNRIWSQNFTT&workerId=AOHS348RVOF6D&assignmentId=3LUY3GC630MSKJLF0Z4HJ8054OMP7P&a=63UL9&tp_a=63UL9&b=3LUY3GC630MSKJLF0Z4HJ8054OMP7P&tp_b=3LUY3GC630MSKJLF0Z4HJ8054OMP7P&c=365799&tp_c=365799","firstResponseHeads":8,"firstResponseTails":2,"secondResponseHeads":8,"secondResponseTails":2,"totalHeads":16,"totalTails":4,"studentIndex":1,"studentTrueHypers":{"a":2,"b":8},"studentGuess":0.6,"delta":0.09999999999999998,"bonus":0,"bonusSoFar":0,"totalExamples":20},{"rt":null,"stimulus":"Sending examples to student... ","response":null,"trial_type":"html-keyboard-response","trial_index":21,"time_elapsed":736842,"internal_node_id":"0.0-20.0","params":{"nStudents":24,"maxFlips":30,"completionMinutes":45,"basePay":8,"maxBonus":9,"perTrialBonus":0.5,"perTrialBonusThreshold":0.05,"exampleCost":0.01},"classroomParams":{"A":{"a":1,"b":4},"B":{"a":4,"b":1},"C":{"a":2,"b":8},"D":{"a":8,"b":2}},"conditions":["nonSeqFull","nonSeqPartial","seqNoFeedback","seqFeedback"],"classroomPairings":[["A","B"],["C","D"]],"coinWeights":[0.2,0.5,0.8],"subjectId":"AOHS348RVOF6D","assignmentId":"3LUY3GC630MSKJLF0Z4HJ8054OMP7P","hitId":"3Z3R5YC0P3915KVY8X6BNRIWSQNFTT","url":"https://gershmanlab.com/experiments/alicia/teaching/experiment/?hitId=3Z3R5YC0P3915KVY8X6BNRIWSQNFTT&workerId=AOHS348RVOF6D&assignmentId=3LUY3GC630MSKJLF0Z4HJ8054OMP7P&a=63UL9&tp_a=63UL9&b=3LUY3GC630MSKJLF0Z4HJ8054OMP7P&tp_b=3LUY3GC630MSKJLF0Z4HJ8054OMP7P&c=365799&tp_c=365799"},{"rt":null,"stimulus":"Examples sent to student! Waiting for student...","response":null,"trial_type":"html-keyboard-response","trial_index":22,"time_elapsed":741857,"internal_node_id":"0.0-21.0","params":{"nStudents":24,"maxFlips":30,"completionMinutes":45,"basePay":8,"maxBonus":9,"perTrialBonus":0.5,"perTrialBonusThreshold":0.05,"exampleCost":0.01},"classroomParams":{"A":{"a":1,"b":4},"B":{"a":4,"b":1},"C":{"a":2,"b":8},"D":{"a":8,"b":2}},"conditions":["nonSeqFull","nonSeqPartial","seqNoFeedback","seqFeedback"],"classroomPairings":[["A","B"],["C","D"]],"coinWeights":[0.2,0.5,0.8],"subjectId":"AOHS348RVOF6D","assignmentId":"3LUY3GC630MSKJLF0Z4HJ8054OMP7P","hitId":"3Z3R5YC0P3915KVY8X6BNRIWSQNFTT","url":"https://gershmanlab.com/experiments/alicia/teaching/experiment/?hitId=3Z3R5YC0P3915KVY8X6BNRIWSQNFTT&workerId=AOHS348RVOF6D&assignmentId=3LUY3GC630MSKJLF0Z4HJ8054OMP7P&a=63UL9&tp_a=63UL9&b=3LUY3GC630MSKJLF0Z4HJ8054OMP7P&tp_b=3LUY3GC630MSKJLF0Z4HJ8054OMP7P&c=365799&tp_c=365799"},{"rt":11247,"stimulus":"\n                <p>Student 2's first guess for coin weight: <b style=\"color:Tomato\";>0.50</b></p>\n                <p>Student 2's second guess for coin weight: <b style=\"color:Tomato\";>0.60</b></p>\n                <p>You received a bonus of <b>$0.00</b> based on the student's second guess.</p>\n                <p>Total bonus so far: <b>$0.00</b></p>\n                <p>Press any key to continue.</p>\n                ","response":"enter","trial_type":"html-keyboard-response","trial_index":23,"time_elapsed":753105,"internal_node_id":"0.0-22.0","params":{"nStudents":24,"maxFlips":30,"completionMinutes":45,"basePay":8,"maxBonus":9,"perTrialBonus":0.5,"perTrialBonusThreshold":0.05,"exampleCost":0.01},"classroomParams":{"A":{"a":1,"b":4},"B":{"a":4,"b":1},"C":{"a":2,"b":8},"D":{"a":8,"b":2}},"conditions":["nonSeqFull","nonSeqPartial","seqNoFeedback","seqFeedback"],"classroomPairings":[["A","B"],["C","D"]],"coinWeights":[0.2,0.5,0.8],"subjectId":"AOHS348RVOF6D","assignmentId":"3LUY3GC630MSKJLF0Z4HJ8054OMP7P","hitId":"3Z3R5YC0P3915KVY8X6BNRIWSQNFTT","url":"https://gershmanlab.com/experiments/alicia/teaching/experiment/?hitId=3Z3R5YC0P3915KVY8X6BNRIWSQNFTT&workerId=AOHS348RVOF6D&assignmentId=3LUY3GC630MSKJLF0Z4HJ8054OMP7P&a=63UL9&tp_a=63UL9&b=3LUY3GC630MSKJLF0Z4HJ8054OMP7P&tp_b=3LUY3GC630MSKJLF0Z4HJ8054OMP7P&c=365799&tp_c=365799"},{"rt":null,"stimulus":"<div style=\"font-size:60px;\">Next student</div>","response":null,"trial_type":"html-keyboard-response","trial_index":24,"time_elapsed":755363,"internal_node_id":"0.0-23.0-0.0","params":{"nStudents":24,"maxFlips":30,"completionMinutes":45,"basePay":8,"maxBonus":9,"perTrialBonus":0.5,"perTrialBonusThreshold":0.05,"exampleCost":0.01},"classroomParams":{"A":{"a":1,"b":4},"B":{"a":4,"b":1},"C":{"a":2,"b":8},"D":{"a":8,"b":2}},"conditions":["nonSeqFull","nonSeqPartial","seqNoFeedback","seqFeedback"],"classroomPairings":[["A","B"],["C","D"]],"coinWeights":[0.2,0.5,0.8],"subjectId":"AOHS348RVOF6D","assignmentId":"3LUY3GC630MSKJLF0Z4HJ8054OMP7P","hitId":"3Z3R5YC0P3915KVY8X6BNRIWSQNFTT","url":"https://gershmanlab.com/experiments/alicia/teaching/experiment/?hitId=3Z3R5YC0P3915KVY8X6BNRIWSQNFTT&workerId=AOHS348RVOF6D&assignmentId=3LUY3GC630MSKJLF0Z4HJ8054OMP7P&a=63UL9&tp_a=63UL9&b=3LUY3GC630MSKJLF0Z4HJ8054OMP7P&tp_b=3LUY3GC630MSKJLF0Z4HJ8054OMP7P&c=365799&tp_c=365799"},{"rt":1825,"stimulus":"\n            <h4 style=\"color:Orange;\">Student 3</h4>\n            <h2>The weight of your coin is <b style=\"color:Tomato;\">0.2</b>.</h2>\n            <p>In this block, you will be giving <b>two</b> sets of examples to Student 3.</p>\n                <p>You will receive feedback at the end of the block.</p>\n            <p></p>","response":0,"trial_type":"html-button-response","trial_index":25,"time_elapsed":757190,"internal_node_id":"0.0-24.0","params":{"nStudents":24,"maxFlips":30,"completionMinutes":45,"basePay":8,"maxBonus":9,"perTrialBonus":0.5,"perTrialBonusThreshold":0.05,"exampleCost":0.01},"classroomParams":{"A":{"a":1,"b":4},"B":{"a":4,"b":1},"C":{"a":2,"b":8},"D":{"a":8,"b":2}},"conditions":["nonSeqFull","nonSeqPartial","seqNoFeedback","seqFeedback"],"classroomPairings":[["A","B"],["C","D"]],"coinWeights":[0.2,0.5,0.8],"subjectId":"AOHS348RVOF6D","assignmentId":"3LUY3GC630MSKJLF0Z4HJ8054OMP7P","hitId":"3Z3R5YC0P3915KVY8X6BNRIWSQNFTT","url":"https://gershmanlab.com/experiments/alicia/teaching/experiment/?hitId=3Z3R5YC0P3915KVY8X6BNRIWSQNFTT&workerId=AOHS348RVOF6D&assignmentId=3LUY3GC630MSKJLF0Z4HJ8054OMP7P&a=63UL9&tp_a=63UL9&b=3LUY3GC630MSKJLF0Z4HJ8054OMP7P&tp_b=3LUY3GC630MSKJLF0Z4HJ8054OMP7P&c=365799&tp_c=365799"},{"rt":6832,"response":{"heads":"10","tails":"1"},"type":"response","condition":"seqNoFeedback","trueTheta":0.2,"classrooms":["C","D"],"studentTrueClassroom":"C","exampleSet":"first","trial_type":"survey-html-form","trial_index":26,"time_elapsed":764023,"internal_node_id":"0.0-25.0-0.0","params":{"nStudents":24,"maxFlips":30,"completionMinutes":45,"basePay":8,"maxBonus":9,"perTrialBonus":0.5,"perTrialBonusThreshold":0.05,"exampleCost":0.01},"classroomParams":{"A":{"a":1,"b":4},"B":{"a":4,"b":1},"C":{"a":2,"b":8},"D":{"a":8,"b":2}},"conditions":["nonSeqFull","nonSeqPartial","seqNoFeedback","seqFeedback"],"classroomPairings":[["A","B"],["C","D"]],"coinWeights":[0.2,0.5,0.8],"subjectId":"AOHS348RVOF6D","assignmentId":"3LUY3GC630MSKJLF0Z4HJ8054OMP7P","hitId":"3Z3R5YC0P3915KVY8X6BNRIWSQNFTT","url":"https://gershmanlab.com/experiments/alicia/teaching/experiment/?hitId=3Z3R5YC0P3915KVY8X6BNRIWSQNFTT&workerId=AOHS348RVOF6D&assignmentId=3LUY3GC630MSKJLF0Z4HJ8054OMP7P&a=63UL9&tp_a=63UL9&b=3LUY3GC630MSKJLF0Z4HJ8054OMP7P&tp_b=3LUY3GC630MSKJLF0Z4HJ8054OMP7P&c=365799&tp_c=365799","heads":10,"tails":1,"studentIndex":2,"studentTrueHypers":{"a":2,"b":8},"studentGuess":0.5714285714285714,"delta":0.3714285714285714,"totalExamples":11,"bonusSoFar":0},{"rt":null,"stimulus":"Sending examples to student... ","response":null,"trial_type":"html-keyboard-response","trial_index":27,"time_elapsed":765787,"internal_node_id":"0.0-26.0","params":{"nStudents":24,"maxFlips":30,"completionMinutes":45,"basePay":8,"maxBonus":9,"perTrialBonus":0.5,"perTrialBonusThreshold":0.05,"exampleCost":0.01},"classroomParams":{"A":{"a":1,"b":4},"B":{"a":4,"b":1},"C":{"a":2,"b":8},"D":{"a":8,"b":2}},"conditions":["nonSeqFull","nonSeqPartial","seqNoFeedback","seqFeedback"],"classroomPairings":[["A","B"],["C","D"]],"coinWeights":[0.2,0.5,0.8],"subjectId":"AOHS348RVOF6D","assignmentId":"3LUY3GC630MSKJLF0Z4HJ8054OMP7P","hitId":"3Z3R5YC0P3915KVY8X6BNRIWSQNFTT","url":"https://gershmanlab.com/experiments/alicia/teaching/experiment/?hitId=3Z3R5YC0P3915KVY8X6BNRIWSQNFTT&workerId=AOHS348RVOF6D&assignmentId=3LUY3GC630MSKJLF0Z4HJ8054OMP7P&a=63UL9&tp_a=63UL9&b=3LUY3GC630MSKJLF0Z4HJ8054OMP7P&tp_b=3LUY3GC630MSKJLF0Z4HJ8054OMP7P&c=365799&tp_c=365799"},{"rt":null,"stimulus":"Examples sent to student! Waiting for student...","response":null,"trial_type":"html-keyboard-response","trial_index":28,"time_elapsed":770293,"internal_node_id":"0.0-27.0","params":{"nStudents":24,"maxFlips":30,"completionMinutes":45,"basePay":8,"maxBonus":9,"perTrialBonus":0.5,"perTrialBonusThreshold":0.05,"exampleCost":0.01},"classroomParams":{"A":{"a":1,"b":4},"B":{"a":4,"b":1},"C":{"a":2,"b":8},"D":{"a":8,"b":2}},"conditions":["nonSeqFull","nonSeqPartial","seqNoFeedback","seqFeedback"],"classroomPairings":[["A","B"],["C","D"]],"coinWeights":[0.2,0.5,0.8],"subjectId":"AOHS348RVOF6D","assignmentId":"3LUY3GC630MSKJLF0Z4HJ8054OMP7P","hitId":"3Z3R5YC0P3915KVY8X6BNRIWSQNFTT","url":"https://gershmanlab.com/experiments/alicia/teaching/experiment/?hitId=3Z3R5YC0P3915KVY8X6BNRIWSQNFTT&workerId=AOHS348RVOF6D&assignmentId=3LUY3GC630MSKJLF0Z4HJ8054OMP7P&a=63UL9&tp_a=63UL9&b=3LUY3GC630MSKJLF0Z4HJ8054OMP7P&tp_b=3LUY3GC630MSKJLF0Z4HJ8054OMP7P&c=365799&tp_c=365799"},{"rt":5639,"response":{"heads":"10","tails":"2"},"type":"response","condition":"seqNoFeedback","trueTheta":0.2,"classrooms":["C","D"],"studentTrueClassroom":"C","exampleSet":"second","trial_type":"survey-html-form","trial_index":29,"time_elapsed":775933,"internal_node_id":"0.0-28.0-0.0","params":{"nStudents":24,"maxFlips":30,"completionMinutes":45,"basePay":8,"maxBonus":9,"perTrialBonus":0.5,"perTrialBonusThreshold":0.05,"exampleCost":0.01},"classroomParams":{"A":{"a":1,"b":4},"B":{"a":4,"b":1},"C":{"a":2,"b":8},"D":{"a":8,"b":2}},"conditions":["nonSeqFull","nonSeqPartial","seqNoFeedback","seqFeedback"],"classroomPairings":[["A","B"],["C","D"]],"coinWeights":[0.2,0.5,0.8],"subjectId":"AOHS348RVOF6D","assignmentId":"3LUY3GC630MSKJLF0Z4HJ8054OMP7P","hitId":"3Z3R5YC0P3915KVY8X6BNRIWSQNFTT","url":"https://gershmanlab.com/experiments/alicia/teaching/experiment/?hitId=3Z3R5YC0P3915KVY8X6BNRIWSQNFTT&workerId=AOHS348RVOF6D&assignmentId=3LUY3GC630MSKJLF0Z4HJ8054OMP7P&a=63UL9&tp_a=63UL9&b=3LUY3GC630MSKJLF0Z4HJ8054OMP7P&tp_b=3LUY3GC630MSKJLF0Z4HJ8054OMP7P&c=365799&tp_c=365799","firstResponseHeads":10,"firstResponseTails":1,"secondResponseHeads":10,"secondResponseTails":2,"totalHeads":20,"totalTails":3,"studentIndex":2,"studentTrueHypers":{"a":2,"b":8},"studentGuess":0.6666666666666666,"delta":0.4666666666666666,"bonus":0,"bonusSoFar":0,"totalExamples":23},{"rt":null,"stimulus":"Sending examples to student... ","response":null,"trial_type":"html-keyboard-response","trial_index":30,"time_elapsed":777942,"internal_node_id":"0.0-29.0","params":{"nStudents":24,"maxFlips":30,"completionMinutes":45,"basePay":8,"maxBonus":9,"perTrialBonus":0.5,"perTrialBonusThreshold":0.05,"exampleCost":0.01},"classroomParams":{"A":{"a":1,"b":4},"B":{"a":4,"b":1},"C":{"a":2,"b":8},"D":{"a":8,"b":2}},"conditions":["nonSeqFull","nonSeqPartial","seqNoFeedback","seqFeedback"],"classroomPairings":[["A","B"],["C","D"]],"coinWeights":[0.2,0.5,0.8],"subjectId":"AOHS348RVOF6D","assignmentId":"3LUY3GC630MSKJLF0Z4HJ8054OMP7P","hitId":"3Z3R5YC0P3915KVY8X6BNRIWSQNFTT","url":"https://gershmanlab.com/experiments/alicia/teaching/experiment/?hitId=3Z3R5YC0P3915KVY8X6BNRIWSQNFTT&workerId=AOHS348RVOF6D&assignmentId=3LUY3GC630MSKJLF0Z4HJ8054OMP7P&a=63UL9&tp_a=63UL9&b=3LUY3GC630MSKJLF0Z4HJ8054OMP7P&tp_b=3LUY3GC630MSKJLF0Z4HJ8054OMP7P&c=365799&tp_c=365799"},{"rt":null,"stimulus":"Examples sent to student! Waiting for student...","response":null,"trial_type":"html-keyboard-response","trial_index":31,"time_elapsed":783450,"internal_node_id":"0.0-30.0","params":{"nStudents":24,"maxFlips":30,"completionMinutes":45,"basePay":8,"maxBonus":9,"perTrialBonus":0.5,"perTrialBonusThreshold":0.05,"exampleCost":0.01},"classroomParams":{"A":{"a":1,"b":4},"B":{"a":4,"b":1},"C":{"a":2,"b":8},"D":{"a":8,"b":2}},"conditions":["nonSeqFull","nonSeqPartial","seqNoFeedback","seqFeedback"],"classroomPairings":[["A","B"],["C","D"]],"coinWeights":[0.2,0.5,0.8],"subjectId":"AOHS348RVOF6D","assignmentId":"3LUY3GC630MSKJLF0Z4HJ8054OMP7P","hitId":"3Z3R5YC0P3915KVY8X6BNRIWSQNFTT","url":"https://gershmanlab.com/experiments/alicia/teaching/experiment/?hitId=3Z3R5YC0P3915KVY8X6BNRIWSQNFTT&workerId=AOHS348RVOF6D&assignmentId=3LUY3GC630MSKJLF0Z4HJ8054OMP7P&a=63UL9&tp_a=63UL9&b=3LUY3GC630MSKJLF0Z4HJ8054OMP7P&tp_b=3LUY3GC630MSKJLF0Z4HJ8054OMP7P&c=365799&tp_c=365799"},{"rt":5087,"stimulus":"\n                <p>Student 3's first guess for coin weight: <b style=\"color:Tomato\";>0.57</b></p>\n                <p>Student 3's second guess for coin weight: <b style=\"color:Tomato\";>0.67</b></p>\n                <p>You received a bonus of <b>$0.00</b> based on the student's second guess.</p>\n                <p>Total bonus so far: <b>$0.00</b></p>\n                <p>Press any key to continue.</p>\n                ","response":"enter","trial_type":"html-keyboard-response","trial_index":32,"time_elapsed":788538,"internal_node_id":"0.0-31.0","params":{"nStudents":24,"maxFlips":30,"completionMinutes":45,"basePay":8,"maxBonus":9,"perTrialBonus":0.5,"perTrialBonusThreshold":0.05,"exampleCost":0.01},"classroomParams":{"A":{"a":1,"b":4},"B":{"a":4,"b":1},"C":{"a":2,"b":8},"D":{"a":8,"b":2}},"conditions":["nonSeqFull","nonSeqPartial","seqNoFeedback","seqFeedback"],"classroomPairings":[["A","B"],["C","D"]],"coinWeights":[0.2,0.5,0.8],"subjectId":"AOHS348RVOF6D","assignmentId":"3LUY3GC630MSKJLF0Z4HJ8054OMP7P","hitId":"3Z3R5YC0P3915KVY8X6BNRIWSQNFTT","url":"https://gershmanlab.com/experiments/alicia/teaching/experiment/?hitId=3Z3R5YC0P3915KVY8X6BNRIWSQNFTT&workerId=AOHS348RVOF6D&assignmentId=3LUY3GC630MSKJLF0Z4HJ8054OMP7P&a=63UL9&tp_a=63UL9&b=3LUY3GC630MSKJLF0Z4HJ8054OMP7P&tp_b=3LUY3GC630MSKJLF0Z4HJ8054OMP7P&c=365799&tp_c=365799"},{"rt":null,"stimulus":"<div style=\"font-size:60px;\">Next student</div>","response":null,"trial_type":"html-keyboard-response","trial_index":33,"time_elapsed":790540,"internal_node_id":"0.0-32.0-0.0","params":{"nStudents":24,"maxFlips":30,"completionMinutes":45,"basePay":8,"maxBonus":9,"perTrialBonus":0.5,"perTrialBonusThreshold":0.05,"exampleCost":0.01},"classroomParams":{"A":{"a":1,"b":4},"B":{"a":4,"b":1},"C":{"a":2,"b":8},"D":{"a":8,"b":2}},"conditions":["nonSeqFull","nonSeqPartial","seqNoFeedback","seqFeedback"],"classroomPairings":[["A","B"],["C","D"]],"coinWeights":[0.2,0.5,0.8],"subjectId":"AOHS348RVOF6D","assignmentId":"3LUY3GC630MSKJLF0Z4HJ8054OMP7P","hitId":"3Z3R5YC0P3915KVY8X6BNRIWSQNFTT","url":"https://gershmanlab.com/experiments/alicia/teaching/experiment/?hitId=3Z3R5YC0P3915KVY8X6BNRIWSQNFTT&workerId=AOHS348RVOF6D&assignmentId=3LUY3GC630MSKJLF0Z4HJ8054OMP7P&a=63UL9&tp_a=63UL9&b=3LUY3GC630MSKJLF0Z4HJ8054OMP7P&tp_b=3LUY3GC630MSKJLF0Z4HJ8054OMP7P&c=365799&tp_c=365799"},{"rt":43847,"stimulus":"\n            <h4 style=\"color:Orange;\">Student 4</h4>\n            <h2>The weight of your coin is <b style=\"color:Tomato;\">0.8</b>.</h2>\n            <p>In this block, you will be giving <b>one</b> set of examples to Student 4.</p>\n                <p>You will receive feedback at the end of the block.</p>\n            <p></p>","response":0,"trial_type":"html-button-response","trial_index":34,"time_elapsed":834389,"internal_node_id":"0.0-33.0","params":{"nStudents":24,"maxFlips":30,"completionMinutes":45,"basePay":8,"maxBonus":9,"perTrialBonus":0.5,"perTrialBonusThreshold":0.05,"exampleCost":0.01},"classroomParams":{"A":{"a":1,"b":4},"B":{"a":4,"b":1},"C":{"a":2,"b":8},"D":{"a":8,"b":2}},"conditions":["nonSeqFull","nonSeqPartial","seqNoFeedback","seqFeedback"],"classroomPairings":[["A","B"],["C","D"]],"coinWeights":[0.2,0.5,0.8],"subjectId":"AOHS348RVOF6D","assignmentId":"3LUY3GC630MSKJLF0Z4HJ8054OMP7P","hitId":"3Z3R5YC0P3915KVY8X6BNRIWSQNFTT","url":"https://gershmanlab.com/experiments/alicia/teaching/experiment/?hitId=3Z3R5YC0P3915KVY8X6BNRIWSQNFTT&workerId=AOHS348RVOF6D&assignmentId=3LUY3GC630MSKJLF0Z4HJ8054OMP7P&a=63UL9&tp_a=63UL9&b=3LUY3GC630MSKJLF0Z4HJ8054OMP7P&tp_b=3LUY3GC630MSKJLF0Z4HJ8054OMP7P&c=365799&tp_c=365799"},{"rt":13506,"response":{"heads":"30","tails":"1"},"type":"response","condition":"nonSeqFull","trueTheta":0.8,"classrooms":["C","D"],"studentTrueClassroom":"C","exampleSet":"first","trial_type":"survey-html-form","trial_index":35,"time_elapsed":847895,"internal_node_id":"0.0-34.0-0.0","params":{"nStudents":24,"maxFlips":30,"completionMinutes":45,"basePay":8,"maxBonus":9,"perTrialBonus":0.5,"perTrialBonusThreshold":0.05,"exampleCost":0.01},"classroomParams":{"A":{"a":1,"b":4},"B":{"a":4,"b":1},"C":{"a":2,"b":8},"D":{"a":8,"b":2}},"conditions":["nonSeqFull","nonSeqPartial","seqNoFeedback","seqFeedback"],"classroomPairings":[["A","B"],["C","D"]],"coinWeights":[0.2,0.5,0.8],"subjectId":"AOHS348RVOF6D","assignmentId":"3LUY3GC630MSKJLF0Z4HJ8054OMP7P","hitId":"3Z3R5YC0P3915KVY8X6BNRIWSQNFTT","url":"https://gershmanlab.com/experiments/alicia/teaching/experiment/?hitId=3Z3R5YC0P3915KVY8X6BNRIWSQNFTT&workerId=AOHS348RVOF6D&assignmentId=3LUY3GC630MSKJLF0Z4HJ8054OMP7P&a=63UL9&tp_a=63UL9&b=3LUY3GC630MSKJLF0Z4HJ8054OMP7P&tp_b=3LUY3GC630MSKJLF0Z4HJ8054OMP7P&c=365799&tp_c=365799","heads":30,"tails":1,"studentIndex":3,"studentTrueHypers":{"a":2,"b":8},"studentGuess":0.7804878048780488,"delta":0.019512195121951237,"totalExamples":31,"bonus":0.19,"bonusSoFar":0.19},{"rt":5535,"response":{"heads":"30","tails":"1"},"type":"response","condition":"nonSeqFull","trueTheta":0.8,"classrooms":["C","D"],"studentTrueClassroom":"C","exampleSet":"first","trial_type":"survey-html-form","trial_index":36,"time_elapsed":853432,"internal_node_id":"0.0-34.1-0.1","params":{"nStudents":24,"maxFlips":30,"completionMinutes":45,"basePay":8,"maxBonus":9,"perTrialBonus":0.5,"perTrialBonusThreshold":0.05,"exampleCost":0.01},"classroomParams":{"A":{"a":1,"b":4},"B":{"a":4,"b":1},"C":{"a":2,"b":8},"D":{"a":8,"b":2}},"conditions":["nonSeqFull","nonSeqPartial","seqNoFeedback","seqFeedback"],"classroomPairings":[["A","B"],["C","D"]],"coinWeights":[0.2,0.5,0.8],"subjectId":"AOHS348RVOF6D","assignmentId":"3LUY3GC630MSKJLF0Z4HJ8054OMP7P","hitId":"3Z3R5YC0P3915KVY8X6BNRIWSQNFTT","url":"https://gershmanlab.com/experiments/alicia/teaching/experiment/?hitId=3Z3R5YC0P3915KVY8X6BNRIWSQNFTT&workerId=AOHS348RVOF6D&assignmentId=3LUY3GC630MSKJLF0Z4HJ8054OMP7P&a=63UL9&tp_a=63UL9&b=3LUY3GC630MSKJLF0Z4HJ8054OMP7P&tp_b=3LUY3GC630MSKJLF0Z4HJ8054OMP7P&c=365799&tp_c=365799","heads":30,"tails":1,"studentIndex":3,"studentTrueHypers":{"a":2,"b":8},"studentGuess":0.7804878048780488,"delta":0.019512195121951237,"totalExamples":31,"bonus":0.19,"bonusSoFar":0.38},{"rt":7304,"response":{"heads":"29","tails":"1"},"type":"response","condition":"nonSeqFull","trueTheta":0.8,"classrooms":["C","D"],"studentTrueClassroom":"C","exampleSet":"first","trial_type":"survey-html-form","trial_index":37,"time_elapsed":860737,"internal_node_id":"0.0-34.2-0.2","params":{"nStudents":24,"maxFlips":30,"completionMinutes":45,"basePay":8,"maxBonus":9,"perTrialBonus":0.5,"perTrialBonusThreshold":0.05,"exampleCost":0.01},"classroomParams":{"A":{"a":1,"b":4},"B":{"a":4,"b":1},"C":{"a":2,"b":8},"D":{"a":8,"b":2}},"conditions":["nonSeqFull","nonSeqPartial","seqNoFeedback","seqFeedback"],"classroomPairings":[["A","B"],["C","D"]],"coinWeights":[0.2,0.5,0.8],"subjectId":"AOHS348RVOF6D","assignmentId":"3LUY3GC630MSKJLF0Z4HJ8054OMP7P","hitId":"3Z3R5YC0P3915KVY8X6BNRIWSQNFTT","url":"https://gershmanlab.com/experiments/alicia/teaching/experiment/?hitId=3Z3R5YC0P3915KVY8X6BNRIWSQNFTT&workerId=AOHS348RVOF6D&assignmentId=3LUY3GC630MSKJLF0Z4HJ8054OMP7P&a=63UL9&tp_a=63UL9&b=3LUY3GC630MSKJLF0Z4HJ8054OMP7P&tp_b=3LUY3GC630MSKJLF0Z4HJ8054OMP7P&c=365799&tp_c=365799","heads":29,"tails":1,"studentIndex":3,"studentTrueHypers":{"a":2,"b":8},"studentGuess":0.775,"delta":0.025000000000000022,"totalExamples":30,"bonus":0.2,"bonusSoFar":0.58},{"rt":null,"stimulus":"Sending examples to student... ","response":null,"trial_type":"html-keyboard-response","trial_index":38,"time_elapsed":862490,"internal_node_id":"0.0-35.0","params":{"nStudents":24,"maxFlips":30,"completionMinutes":45,"basePay":8,"maxBonus":9,"perTrialBonus":0.5,"perTrialBonusThreshold":0.05,"exampleCost":0.01},"classroomParams":{"A":{"a":1,"b":4},"B":{"a":4,"b":1},"C":{"a":2,"b":8},"D":{"a":8,"b":2}},"conditions":["nonSeqFull","nonSeqPartial","seqNoFeedback","seqFeedback"],"classroomPairings":[["A","B"],["C","D"]],"coinWeights":[0.2,0.5,0.8],"subjectId":"AOHS348RVOF6D","assignmentId":"3LUY3GC630MSKJLF0Z4HJ8054OMP7P","hitId":"3Z3R5YC0P3915KVY8X6BNRIWSQNFTT","url":"https://gershmanlab.com/experiments/alicia/teaching/experiment/?hitId=3Z3R5YC0P3915KVY8X6BNRIWSQNFTT&workerId=AOHS348RVOF6D&assignmentId=3LUY3GC630MSKJLF0Z4HJ8054OMP7P&a=63UL9&tp_a=63UL9&b=3LUY3GC630MSKJLF0Z4HJ8054OMP7P&tp_b=3LUY3GC630MSKJLF0Z4HJ8054OMP7P&c=365799&tp_c=365799"},{"rt":null,"stimulus":"Examples sent to student! Waiting for student...","response":null,"trial_type":"html-keyboard-response","trial_index":39,"time_elapsed":868004,"internal_node_id":"0.0-36.0","params":{"nStudents":24,"maxFlips":30,"completionMinutes":45,"basePay":8,"maxBonus":9,"perTrialBonus":0.5,"perTrialBonusThreshold":0.05,"exampleCost":0.01},"classroomParams":{"A":{"a":1,"b":4},"B":{"a":4,"b":1},"C":{"a":2,"b":8},"D":{"a":8,"b":2}},"conditions":["nonSeqFull","nonSeqPartial","seqNoFeedback","seqFeedback"],"classroomPairings":[["A","B"],["C","D"]],"coinWeights":[0.2,0.5,0.8],"subjectId":"AOHS348RVOF6D","assignmentId":"3LUY3GC630MSKJLF0Z4HJ8054OMP7P","hitId":"3Z3R5YC0P3915KVY8X6BNRIWSQNFTT","url":"https://gershmanlab.com/experiments/alicia/teaching/experiment/?hitId=3Z3R5YC0P3915KVY8X6BNRIWSQNFTT&workerId=AOHS348RVOF6D&assignmentId=3LUY3GC630MSKJLF0Z4HJ8054OMP7P&a=63UL9&tp_a=63UL9&b=3LUY3GC630MSKJLF0Z4HJ8054OMP7P&tp_b=3LUY3GC630MSKJLF0Z4HJ8054OMP7P&c=365799&tp_c=365799"},{"rt":6561,"stimulus":"\n                <p>Student's guess for coin weight: <b style=\"color:Tomato;\">0.78</b></p>\n                <p>You received a bonus of <b>$0.19</b>. Total bonus so far: <b>$0.58</b></b></p>\n                <p></p>\n                <p>Press any key to continue.</p>\n                ","response":"enter","trial_type":"html-keyboard-response","trial_index":40,"time_elapsed":874566,"internal_node_id":"0.0-37.0","params":{"nStudents":24,"maxFlips":30,"completionMinutes":45,"basePay":8,"maxBonus":9,"perTrialBonus":0.5,"perTrialBonusThreshold":0.05,"exampleCost":0.01},"classroomParams":{"A":{"a":1,"b":4},"B":{"a":4,"b":1},"C":{"a":2,"b":8},"D":{"a":8,"b":2}},"conditions":["nonSeqFull","nonSeqPartial","seqNoFeedback","seqFeedback"],"classroomPairings":[["A","B"],["C","D"]],"coinWeights":[0.2,0.5,0.8],"subjectId":"AOHS348RVOF6D","assignmentId":"3LUY3GC630MSKJLF0Z4HJ8054OMP7P","hitId":"3Z3R5YC0P3915KVY8X6BNRIWSQNFTT","url":"https://gershmanlab.com/experiments/alicia/teaching/experiment/?hitId=3Z3R5YC0P3915KVY8X6BNRIWSQNFTT&workerId=AOHS348RVOF6D&assignmentId=3LUY3GC630MSKJLF0Z4HJ8054OMP7P&a=63UL9&tp_a=63UL9&b=3LUY3GC630MSKJLF0Z4HJ8054OMP7P&tp_b=3LUY3GC630MSKJLF0Z4HJ8054OMP7P&c=365799&tp_c=365799"},{"rt":null,"stimulus":"<div style=\"font-size:60px;\">Next student</div>","response":null,"trial_type":"html-keyboard-response","trial_index":41,"time_elapsed":876579,"internal_node_id":"0.0-38.0-0.0","params":{"nStudents":24,"maxFlips":30,"completionMinutes":45,"basePay":8,"maxBonus":9,"perTrialBonus":0.5,"perTrialBonusThreshold":0.05,"exampleCost":0.01},"classroomParams":{"A":{"a":1,"b":4},"B":{"a":4,"b":1},"C":{"a":2,"b":8},"D":{"a":8,"b":2}},"conditions":["nonSeqFull","nonSeqPartial","seqNoFeedback","seqFeedback"],"classroomPairings":[["A","B"],["C","D"]],"coinWeights":[0.2,0.5,0.8],"subjectId":"AOHS348RVOF6D","assignmentId":"3LUY3GC630MSKJLF0Z4HJ8054OMP7P","hitId":"3Z3R5YC0P3915KVY8X6BNRIWSQNFTT","url":"https://gershmanlab.com/experiments/alicia/teaching/experiment/?hitId=3Z3R5YC0P3915KVY8X6BNRIWSQNFTT&workerId=AOHS348RVOF6D&assignmentId=3LUY3GC630MSKJLF0Z4HJ8054OMP7P&a=63UL9&tp_a=63UL9&b=3LUY3GC630MSKJLF0Z4HJ8054OMP7P&tp_b=3LUY3GC630MSKJLF0Z4HJ8054OMP7P&c=365799&tp_c=365799"},{"rt":2255,"stimulus":"\n            <h4 style=\"color:Orange;\">Student 5</h4>\n            <h2>The weight of your coin is <b style=\"color:Tomato;\">0.8</b>.</h2>\n            <p>In this block, you will be giving <b>one</b> set of examples to Student 5.</p>\n                <p>You will receive feedback at the end of the block.</p>\n            <p></p>","response":0,"trial_type":"html-button-response","trial_index":42,"time_elapsed":878835,"internal_node_id":"0.0-39.0","params":{"nStudents":24,"maxFlips":30,"completionMinutes":45,"basePay":8,"maxBonus":9,"perTrialBonus":0.5,"perTrialBonusThreshold":0.05,"exampleCost":0.01},"classroomParams":{"A":{"a":1,"b":4},"B":{"a":4,"b":1},"C":{"a":2,"b":8},"D":{"a":8,"b":2}},"conditions":["nonSeqFull","nonSeqPartial","seqNoFeedback","seqFeedback"],"classroomPairings":[["A","B"],["C","D"]],"coinWeights":[0.2,0.5,0.8],"subjectId":"AOHS348RVOF6D","assignmentId":"3LUY3GC630MSKJLF0Z4HJ8054OMP7P","hitId":"3Z3R5YC0P3915KVY8X6BNRIWSQNFTT","url":"https://gershmanlab.com/experiments/alicia/teaching/experiment/?hitId=3Z3R5YC0P3915KVY8X6BNRIWSQNFTT&workerId=AOHS348RVOF6D&assignmentId=3LUY3GC630MSKJLF0Z4HJ8054OMP7P&a=63UL9&tp_a=63UL9&b=3LUY3GC630MSKJLF0Z4HJ8054OMP7P&tp_b=3LUY3GC630MSKJLF0Z4HJ8054OMP7P&c=365799&tp_c=365799"},{"rt":6368,"response":{"heads":"29","tails":"1"},"type":"response","condition":"nonSeqPartial","trueTheta":0.8,"classrooms":["C","D"],"studentTrueClassroom":"C","exampleSet":"first","trial_type":"survey-html-form","trial_index":43,"time_elapsed":885203,"internal_node_id":"0.0-40.0-0.0","params":{"nStudents":24,"maxFlips":30,"completionMinutes":45,"basePay":8,"maxBonus":9,"perTrialBonus":0.5,"perTrialBonusThreshold":0.05,"exampleCost":0.01},"classroomParams":{"A":{"a":1,"b":4},"B":{"a":4,"b":1},"C":{"a":2,"b":8},"D":{"a":8,"b":2}},"conditions":["nonSeqFull","nonSeqPartial","seqNoFeedback","seqFeedback"],"classroomPairings":[["A","B"],["C","D"]],"coinWeights":[0.2,0.5,0.8],"subjectId":"AOHS348RVOF6D","assignmentId":"3LUY3GC630MSKJLF0Z4HJ8054OMP7P","hitId":"3Z3R5YC0P3915KVY8X6BNRIWSQNFTT","url":"https://gershmanlab.com/experiments/alicia/teaching/experiment/?hitId=3Z3R5YC0P3915KVY8X6BNRIWSQNFTT&workerId=AOHS348RVOF6D&assignmentId=3LUY3GC630MSKJLF0Z4HJ8054OMP7P&a=63UL9&tp_a=63UL9&b=3LUY3GC630MSKJLF0Z4HJ8054OMP7P&tp_b=3LUY3GC630MSKJLF0Z4HJ8054OMP7P&c=365799&tp_c=365799","heads":29,"tails":1,"studentIndex":4,"studentTrueHypers":{"a":2,"b":8},"studentGuess":0.775,"delta":0.025000000000000022,"totalExamples":30,"bonus":0.2,"bonusSoFar":0.78},{"rt":null,"stimulus":"Sending examples to student... ","response":null,"trial_type":"html-keyboard-response","trial_index":44,"time_elapsed":886465,"internal_node_id":"0.0-41.0","params":{"nStudents":24,"maxFlips":30,"completionMinutes":45,"basePay":8,"maxBonus":9,"perTrialBonus":0.5,"perTrialBonusThreshold":0.05,"exampleCost":0.01},"classroomParams":{"A":{"a":1,"b":4},"B":{"a":4,"b":1},"C":{"a":2,"b":8},"D":{"a":8,"b":2}},"conditions":["nonSeqFull","nonSeqPartial","seqNoFeedback","seqFeedback"],"classroomPairings":[["A","B"],["C","D"]],"coinWeights":[0.2,0.5,0.8],"subjectId":"AOHS348RVOF6D","assignmentId":"3LUY3GC630MSKJLF0Z4HJ8054OMP7P","hitId":"3Z3R5YC0P3915KVY8X6BNRIWSQNFTT","url":"https://gershmanlab.com/experiments/alicia/teaching/experiment/?hitId=3Z3R5YC0P3915KVY8X6BNRIWSQNFTT&workerId=AOHS348RVOF6D&assignmentId=3LUY3GC630MSKJLF0Z4HJ8054OMP7P&a=63UL9&tp_a=63UL9&b=3LUY3GC630MSKJLF0Z4HJ8054OMP7P&tp_b=3LUY3GC630MSKJLF0Z4HJ8054OMP7P&c=365799&tp_c=365799"},{"rt":null,"stimulus":"Examples sent to student! Waiting for student...","response":null,"trial_type":"html-keyboard-response","trial_index":45,"time_elapsed":891973,"internal_node_id":"0.0-42.0","params":{"nStudents":24,"maxFlips":30,"completionMinutes":45,"basePay":8,"maxBonus":9,"perTrialBonus":0.5,"perTrialBonusThreshold":0.05,"exampleCost":0.01},"classroomParams":{"A":{"a":1,"b":4},"B":{"a":4,"b":1},"C":{"a":2,"b":8},"D":{"a":8,"b":2}},"conditions":["nonSeqFull","nonSeqPartial","seqNoFeedback","seqFeedback"],"classroomPairings":[["A","B"],["C","D"]],"coinWeights":[0.2,0.5,0.8],"subjectId":"AOHS348RVOF6D","assignmentId":"3LUY3GC630MSKJLF0Z4HJ8054OMP7P","hitId":"3Z3R5YC0P3915KVY8X6BNRIWSQNFTT","url":"https://gershmanlab.com/experiments/alicia/teaching/experiment/?hitId=3Z3R5YC0P3915KVY8X6BNRIWSQNFTT&workerId=AOHS348RVOF6D&assignmentId=3LUY3GC630MSKJLF0Z4HJ8054OMP7P&a=63UL9&tp_a=63UL9&b=3LUY3GC630MSKJLF0Z4HJ8054OMP7P&tp_b=3LUY3GC630MSKJLF0Z4HJ8054OMP7P&c=365799&tp_c=365799"},{"rt":6303,"stimulus":"\n                <p>Student's guess for coin weight: <b style=\"color:Tomato;\">0.78</b></p>\n                <p>You received a bonus of <b>$0.2</b>. Total bonus so far: <b>$0.78</b></b></p>\n                <p></p>\n                <p>Press any key to continue.</p>\n                ","response":"enter","trial_type":"html-keyboard-response","trial_index":46,"time_elapsed":898277,"internal_node_id":"0.0-43.0","params":{"nStudents":24,"maxFlips":30,"completionMinutes":45,"basePay":8,"maxBonus":9,"perTrialBonus":0.5,"perTrialBonusThreshold":0.05,"exampleCost":0.01},"classroomParams":{"A":{"a":1,"b":4},"B":{"a":4,"b":1},"C":{"a":2,"b":8},"D":{"a":8,"b":2}},"conditions":["nonSeqFull","nonSeqPartial","seqNoFeedback","seqFeedback"],"classroomPairings":[["A","B"],["C","D"]],"coinWeights":[0.2,0.5,0.8],"subjectId":"AOHS348RVOF6D","assignmentId":"3LUY3GC630MSKJLF0Z4HJ8054OMP7P","hitId":"3Z3R5YC0P3915KVY8X6BNRIWSQNFTT","url":"https://gershmanlab.com/experiments/alicia/teaching/experiment/?hitId=3Z3R5YC0P3915KVY8X6BNRIWSQNFTT&workerId=AOHS348RVOF6D&assignmentId=3LUY3GC630MSKJLF0Z4HJ8054OMP7P&a=63UL9&tp_a=63UL9&b=3LUY3GC630MSKJLF0Z4HJ8054OMP7P&tp_b=3LUY3GC630MSKJLF0Z4HJ8054OMP7P&c=365799&tp_c=365799"},{"rt":null,"stimulus":"<div style=\"font-size:60px;\">Next student</div>","response":null,"trial_type":"html-keyboard-response","trial_index":47,"time_elapsed":900787,"internal_node_id":"0.0-44.0-0.0","params":{"nStudents":24,"maxFlips":30,"completionMinutes":45,"basePay":8,"maxBonus":9,"perTrialBonus":0.5,"perTrialBonusThreshold":0.05,"exampleCost":0.01},"classroomParams":{"A":{"a":1,"b":4},"B":{"a":4,"b":1},"C":{"a":2,"b":8},"D":{"a":8,"b":2}},"conditions":["nonSeqFull","nonSeqPartial","seqNoFeedback","seqFeedback"],"classroomPairings":[["A","B"],["C","D"]],"coinWeights":[0.2,0.5,0.8],"subjectId":"AOHS348RVOF6D","assignmentId":"3LUY3GC630MSKJLF0Z4HJ8054OMP7P","hitId":"3Z3R5YC0P3915KVY8X6BNRIWSQNFTT","url":"https://gershmanlab.com/experiments/alicia/teaching/experiment/?hitId=3Z3R5YC0P3915KVY8X6BNRIWSQNFTT&workerId=AOHS348RVOF6D&assignmentId=3LUY3GC630MSKJLF0Z4HJ8054OMP7P&a=63UL9&tp_a=63UL9&b=3LUY3GC630MSKJLF0Z4HJ8054OMP7P&tp_b=3LUY3GC630MSKJLF0Z4HJ8054OMP7P&c=365799&tp_c=365799"},{"rt":3068,"stimulus":"\n            <h4 style=\"color:Orange;\">Student 6</h4>\n            <h2>The weight of your coin is <b style=\"color:Tomato;\">0.5</b>.</h2>\n            <p>In this block, you will be giving <b>two</b> sets of examples to Student 6.</p>\n                <p>You will see the student's guess after the first set of examples. You will also receive feedback at the end of the block.</p>\n            <p>To earn the highest bonus, you will have to <b>take into consideration the student's guess</b> when you choose your second set of examples.</p>","response":0,"trial_type":"html-button-response","trial_index":48,"time_elapsed":903856,"internal_node_id":"0.0-45.0","params":{"nStudents":24,"maxFlips":30,"completionMinutes":45,"basePay":8,"maxBonus":9,"perTrialBonus":0.5,"perTrialBonusThreshold":0.05,"exampleCost":0.01},"classroomParams":{"A":{"a":1,"b":4},"B":{"a":4,"b":1},"C":{"a":2,"b":8},"D":{"a":8,"b":2}},"conditions":["nonSeqFull","nonSeqPartial","seqNoFeedback","seqFeedback"],"classroomPairings":[["A","B"],["C","D"]],"coinWeights":[0.2,0.5,0.8],"subjectId":"AOHS348RVOF6D","assignmentId":"3LUY3GC630MSKJLF0Z4HJ8054OMP7P","hitId":"3Z3R5YC0P3915KVY8X6BNRIWSQNFTT","url":"https://gershmanlab.com/experiments/alicia/teaching/experiment/?hitId=3Z3R5YC0P3915KVY8X6BNRIWSQNFTT&workerId=AOHS348RVOF6D&assignmentId=3LUY3GC630MSKJLF0Z4HJ8054OMP7P&a=63UL9&tp_a=63UL9&b=3LUY3GC630MSKJLF0Z4HJ8054OMP7P&tp_b=3LUY3GC630MSKJLF0Z4HJ8054OMP7P&c=365799&tp_c=365799"},{"rt":4949,"response":{"heads":"7","tails":"3"},"type":"response","condition":"seqFeedback","trueTheta":0.5,"classrooms":["C","D"],"studentTrueClassroom":"D","exampleSet":"first","trial_type":"survey-html-form","trial_index":49,"time_elapsed":908806,"internal_node_id":"0.0-46.0-0.0","params":{"nStudents":24,"maxFlips":30,"completionMinutes":45,"basePay":8,"maxBonus":9,"perTrialBonus":0.5,"perTrialBonusThreshold":0.05,"exampleCost":0.01},"classroomParams":{"A":{"a":1,"b":4},"B":{"a":4,"b":1},"C":{"a":2,"b":8},"D":{"a":8,"b":2}},"conditions":["nonSeqFull","nonSeqPartial","seqNoFeedback","seqFeedback"],"classroomPairings":[["A","B"],["C","D"]],"coinWeights":[0.2,0.5,0.8],"subjectId":"AOHS348RVOF6D","assignmentId":"3LUY3GC630MSKJLF0Z4HJ8054OMP7P","hitId":"3Z3R5YC0P3915KVY8X6BNRIWSQNFTT","url":"https://gershmanlab.com/experiments/alicia/teaching/experiment/?hitId=3Z3R5YC0P3915KVY8X6BNRIWSQNFTT&workerId=AOHS348RVOF6D&assignmentId=3LUY3GC630MSKJLF0Z4HJ8054OMP7P&a=63UL9&tp_a=63UL9&b=3LUY3GC630MSKJLF0Z4HJ8054OMP7P&tp_b=3LUY3GC630MSKJLF0Z4HJ8054OMP7P&c=365799&tp_c=365799","heads":7,"tails":3,"studentIndex":5,"studentTrueHypers":{"a":8,"b":2},"studentGuess":0.75,"delta":0.25,"totalExamples":10,"bonusSoFar":0.78},{"rt":null,"stimulus":"Sending examples to student... ","response":null,"trial_type":"html-keyboard-response","trial_index":50,"time_elapsed":910811,"internal_node_id":"0.0-47.0","params":{"nStudents":24,"maxFlips":30,"completionMinutes":45,"basePay":8,"maxBonus":9,"perTrialBonus":0.5,"perTrialBonusThreshold":0.05,"exampleCost":0.01},"classroomParams":{"A":{"a":1,"b":4},"B":{"a":4,"b":1},"C":{"a":2,"b":8},"D":{"a":8,"b":2}},"conditions":["nonSeqFull","nonSeqPartial","seqNoFeedback","seqFeedback"],"classroomPairings":[["A","B"],["C","D"]],"coinWeights":[0.2,0.5,0.8],"subjectId":"AOHS348RVOF6D","assignmentId":"3LUY3GC630MSKJLF0Z4HJ8054OMP7P","hitId":"3Z3R5YC0P3915KVY8X6BNRIWSQNFTT","url":"https://gershmanlab.com/experiments/alicia/teaching/experiment/?hitId=3Z3R5YC0P3915KVY8X6BNRIWSQNFTT&workerId=AOHS348RVOF6D&assignmentId=3LUY3GC630MSKJLF0Z4HJ8054OMP7P&a=63UL9&tp_a=63UL9&b=3LUY3GC630MSKJLF0Z4HJ8054OMP7P&tp_b=3LUY3GC630MSKJLF0Z4HJ8054OMP7P&c=365799&tp_c=365799"},{"rt":null,"stimulus":"Examples sent to student! Waiting for student...","response":null,"trial_type":"html-keyboard-response","trial_index":51,"time_elapsed":914812,"internal_node_id":"0.0-48.0","params":{"nStudents":24,"maxFlips":30,"completionMinutes":45,"basePay":8,"maxBonus":9,"perTrialBonus":0.5,"perTrialBonusThreshold":0.05,"exampleCost":0.01},"classroomParams":{"A":{"a":1,"b":4},"B":{"a":4,"b":1},"C":{"a":2,"b":8},"D":{"a":8,"b":2}},"conditions":["nonSeqFull","nonSeqPartial","seqNoFeedback","seqFeedback"],"classroomPairings":[["A","B"],["C","D"]],"coinWeights":[0.2,0.5,0.8],"subjectId":"AOHS348RVOF6D","assignmentId":"3LUY3GC630MSKJLF0Z4HJ8054OMP7P","hitId":"3Z3R5YC0P3915KVY8X6BNRIWSQNFTT","url":"https://gershmanlab.com/experiments/alicia/teaching/experiment/?hitId=3Z3R5YC0P3915KVY8X6BNRIWSQNFTT&workerId=AOHS348RVOF6D&assignmentId=3LUY3GC630MSKJLF0Z4HJ8054OMP7P&a=63UL9&tp_a=63UL9&b=3LUY3GC630MSKJLF0Z4HJ8054OMP7P&tp_b=3LUY3GC630MSKJLF0Z4HJ8054OMP7P&c=365799&tp_c=365799"},{"rt":2506,"stimulus":"\n                <p>Student's guess for coin weight: <b style=\"color:Tomato;\">0.75</b></p>\n                <p></b></p>\n                <p>You will now send another set of examples to your student. <b>Remember to take your student's guess into consideration so that you can earn the highest bonus possible!</b> </p>\n                <p>Press any key to continue.</p>\n                ","response":"enter","trial_type":"html-keyboard-response","trial_index":52,"time_elapsed":917320,"internal_node_id":"0.0-49.0","params":{"nStudents":24,"maxFlips":30,"completionMinutes":45,"basePay":8,"maxBonus":9,"perTrialBonus":0.5,"perTrialBonusThreshold":0.05,"exampleCost":0.01},"classroomParams":{"A":{"a":1,"b":4},"B":{"a":4,"b":1},"C":{"a":2,"b":8},"D":{"a":8,"b":2}},"conditions":["nonSeqFull","nonSeqPartial","seqNoFeedback","seqFeedback"],"classroomPairings":[["A","B"],["C","D"]],"coinWeights":[0.2,0.5,0.8],"subjectId":"AOHS348RVOF6D","assignmentId":"3LUY3GC630MSKJLF0Z4HJ8054OMP7P","hitId":"3Z3R5YC0P3915KVY8X6BNRIWSQNFTT","url":"https://gershmanlab.com/experiments/alicia/teaching/experiment/?hitId=3Z3R5YC0P3915KVY8X6BNRIWSQNFTT&workerId=AOHS348RVOF6D&assignmentId=3LUY3GC630MSKJLF0Z4HJ8054OMP7P&a=63UL9&tp_a=63UL9&b=3LUY3GC630MSKJLF0Z4HJ8054OMP7P&tp_b=3LUY3GC630MSKJLF0Z4HJ8054OMP7P&c=365799&tp_c=365799"},{"rt":10439,"response":{"heads":"2","tails":"15"},"type":"response","condition":"seqFeedback","trueTheta":0.5,"classrooms":["C","D"],"studentTrueClassroom":"D","exampleSet":"second","trial_type":"survey-html-form","trial_index":53,"time_elapsed":927759,"internal_node_id":"0.0-50.0-0.0","params":{"nStudents":24,"maxFlips":30,"completionMinutes":45,"basePay":8,"maxBonus":9,"perTrialBonus":0.5,"perTrialBonusThreshold":0.05,"exampleCost":0.01},"classroomParams":{"A":{"a":1,"b":4},"B":{"a":4,"b":1},"C":{"a":2,"b":8},"D":{"a":8,"b":2}},"conditions":["nonSeqFull","nonSeqPartial","seqNoFeedback","seqFeedback"],"classroomPairings":[["A","B"],["C","D"]],"coinWeights":[0.2,0.5,0.8],"subjectId":"AOHS348RVOF6D","assignmentId":"3LUY3GC630MSKJLF0Z4HJ8054OMP7P","hitId":"3Z3R5YC0P3915KVY8X6BNRIWSQNFTT","url":"https://gershmanlab.com/experiments/alicia/teaching/experiment/?hitId=3Z3R5YC0P3915KVY8X6BNRIWSQNFTT&workerId=AOHS348RVOF6D&assignmentId=3LUY3GC630MSKJLF0Z4HJ8054OMP7P&a=63UL9&tp_a=63UL9&b=3LUY3GC630MSKJLF0Z4HJ8054OMP7P&tp_b=3LUY3GC630MSKJLF0Z4HJ8054OMP7P&c=365799&tp_c=365799","firstResponseHeads":7,"firstResponseTails":3,"secondResponseHeads":2,"secondResponseTails":15,"totalHeads":9,"totalTails":18,"studentIndex":5,"studentTrueHypers":{"a":8,"b":2},"studentGuess":0.4594594594594595,"delta":0.040540540540540515,"bonus":0.23,"bonusSoFar":1.01,"totalExamples":27},{"rt":null,"stimulus":"Sending examples to student... ","response":null,"trial_type":"html-keyboard-response","trial_index":54,"time_elapsed":929027,"internal_node_id":"0.0-51.0","params":{"nStudents":24,"maxFlips":30,"completionMinutes":45,"basePay":8,"maxBonus":9,"perTrialBonus":0.5,"perTrialBonusThreshold":0.05,"exampleCost":0.01},"classroomParams":{"A":{"a":1,"b":4},"B":{"a":4,"b":1},"C":{"a":2,"b":8},"D":{"a":8,"b":2}},"conditions":["nonSeqFull","nonSeqPartial","seqNoFeedback","seqFeedback"],"classroomPairings":[["A","B"],["C","D"]],"coinWeights":[0.2,0.5,0.8],"subjectId":"AOHS348RVOF6D","assignmentId":"3LUY3GC630MSKJLF0Z4HJ8054OMP7P","hitId":"3Z3R5YC0P3915KVY8X6BNRIWSQNFTT","url":"https://gershmanlab.com/experiments/alicia/teaching/experiment/?hitId=3Z3R5YC0P3915KVY8X6BNRIWSQNFTT&workerId=AOHS348RVOF6D&assignmentId=3LUY3GC630MSKJLF0Z4HJ8054OMP7P&a=63UL9&tp_a=63UL9&b=3LUY3GC630MSKJLF0Z4HJ8054OMP7P&tp_b=3LUY3GC630MSKJLF0Z4HJ8054OMP7P&c=365799&tp_c=365799"},{"rt":null,"stimulus":"Examples sent to student! Waiting for student...","response":null,"trial_type":"html-keyboard-response","trial_index":55,"time_elapsed":934539,"internal_node_id":"0.0-52.0","params":{"nStudents":24,"maxFlips":30,"completionMinutes":45,"basePay":8,"maxBonus":9,"perTrialBonus":0.5,"perTrialBonusThreshold":0.05,"exampleCost":0.01},"classroomParams":{"A":{"a":1,"b":4},"B":{"a":4,"b":1},"C":{"a":2,"b":8},"D":{"a":8,"b":2}},"conditions":["nonSeqFull","nonSeqPartial","seqNoFeedback","seqFeedback"],"classroomPairings":[["A","B"],["C","D"]],"coinWeights":[0.2,0.5,0.8],"subjectId":"AOHS348RVOF6D","assignmentId":"3LUY3GC630MSKJLF0Z4HJ8054OMP7P","hitId":"3Z3R5YC0P3915KVY8X6BNRIWSQNFTT","url":"https://gershmanlab.com/experiments/alicia/teaching/experiment/?hitId=3Z3R5YC0P3915KVY8X6BNRIWSQNFTT&workerId=AOHS348RVOF6D&assignmentId=3LUY3GC630MSKJLF0Z4HJ8054OMP7P&a=63UL9&tp_a=63UL9&b=3LUY3GC630MSKJLF0Z4HJ8054OMP7P&tp_b=3LUY3GC630MSKJLF0Z4HJ8054OMP7P&c=365799&tp_c=365799"},{"rt":3754,"stimulus":"\n                <p>Student 6's first guess for coin weight: <b style=\"color:Tomato\";>0.75</b></p>\n                <p>Student 6's second guess for coin weight: <b style=\"color:Tomato\";>0.46</b></p>\n                <p>You received a bonus of <b>$0.23</b> based on the student's second guess.</p>\n                <p>Total bonus so far: <b>$1.01</b></p>\n                <p>Press any key to continue.</p>\n                ","response":"enter","trial_type":"html-keyboard-response","trial_index":56,"time_elapsed":938294,"internal_node_id":"0.0-53.0","params":{"nStudents":24,"maxFlips":30,"completionMinutes":45,"basePay":8,"maxBonus":9,"perTrialBonus":0.5,"perTrialBonusThreshold":0.05,"exampleCost":0.01},"classroomParams":{"A":{"a":1,"b":4},"B":{"a":4,"b":1},"C":{"a":2,"b":8},"D":{"a":8,"b":2}},"conditions":["nonSeqFull","nonSeqPartial","seqNoFeedback","seqFeedback"],"classroomPairings":[["A","B"],["C","D"]],"coinWeights":[0.2,0.5,0.8],"subjectId":"AOHS348RVOF6D","assignmentId":"3LUY3GC630MSKJLF0Z4HJ8054OMP7P","hitId":"3Z3R5YC0P3915KVY8X6BNRIWSQNFTT","url":"https://gershmanlab.com/experiments/alicia/teaching/experiment/?hitId=3Z3R5YC0P3915KVY8X6BNRIWSQNFTT&workerId=AOHS348RVOF6D&assignmentId=3LUY3GC630MSKJLF0Z4HJ8054OMP7P&a=63UL9&tp_a=63UL9&b=3LUY3GC630MSKJLF0Z4HJ8054OMP7P&tp_b=3LUY3GC630MSKJLF0Z4HJ8054OMP7P&c=365799&tp_c=365799"},{"rt":null,"stimulus":"<div style=\"font-size:60px;\">Next student</div>","response":null,"trial_type":"html-keyboard-response","trial_index":57,"time_elapsed":940598,"internal_node_id":"0.0-54.0-0.0","params":{"nStudents":24,"maxFlips":30,"completionMinutes":45,"basePay":8,"maxBonus":9,"perTrialBonus":0.5,"perTrialBonusThreshold":0.05,"exampleCost":0.01},"classroomParams":{"A":{"a":1,"b":4},"B":{"a":4,"b":1},"C":{"a":2,"b":8},"D":{"a":8,"b":2}},"conditions":["nonSeqFull","nonSeqPartial","seqNoFeedback","seqFeedback"],"classroomPairings":[["A","B"],["C","D"]],"coinWeights":[0.2,0.5,0.8],"subjectId":"AOHS348RVOF6D","assignmentId":"3LUY3GC630MSKJLF0Z4HJ8054OMP7P","hitId":"3Z3R5YC0P3915KVY8X6BNRIWSQNFTT","url":"https://gershmanlab.com/experiments/alicia/teaching/experiment/?hitId=3Z3R5YC0P3915KVY8X6BNRIWSQNFTT&workerId=AOHS348RVOF6D&assignmentId=3LUY3GC630MSKJLF0Z4HJ8054OMP7P&a=63UL9&tp_a=63UL9&b=3LUY3GC630MSKJLF0Z4HJ8054OMP7P&tp_b=3LUY3GC630MSKJLF0Z4HJ8054OMP7P&c=365799&tp_c=365799"},{"rt":8453,"stimulus":"\n            <h4 style=\"color:Orange;\">Student 7</h4>\n            <h2>The weight of your coin is <b style=\"color:Tomato;\">0.2</b>.</h2>\n            <p>In this block, you will be giving <b>one</b> set of examples to Student 7.</p>\n                <p>You will receive feedback at the end of the block.</p>\n            <p></p>","response":0,"trial_type":"html-button-response","trial_index":58,"time_elapsed":949052,"internal_node_id":"0.0-55.0","params":{"nStudents":24,"maxFlips":30,"completionMinutes":45,"basePay":8,"maxBonus":9,"perTrialBonus":0.5,"perTrialBonusThreshold":0.05,"exampleCost":0.01},"classroomParams":{"A":{"a":1,"b":4},"B":{"a":4,"b":1},"C":{"a":2,"b":8},"D":{"a":8,"b":2}},"conditions":["nonSeqFull","nonSeqPartial","seqNoFeedback","seqFeedback"],"classroomPairings":[["A","B"],["C","D"]],"coinWeights":[0.2,0.5,0.8],"subjectId":"AOHS348RVOF6D","assignmentId":"3LUY3GC630MSKJLF0Z4HJ8054OMP7P","hitId":"3Z3R5YC0P3915KVY8X6BNRIWSQNFTT","url":"https://gershmanlab.com/experiments/alicia/teaching/experiment/?hitId=3Z3R5YC0P3915KVY8X6BNRIWSQNFTT&workerId=AOHS348RVOF6D&assignmentId=3LUY3GC630MSKJLF0Z4HJ8054OMP7P&a=63UL9&tp_a=63UL9&b=3LUY3GC630MSKJLF0Z4HJ8054OMP7P&tp_b=3LUY3GC630MSKJLF0Z4HJ8054OMP7P&c=365799&tp_c=365799"},{"rt":4987,"response":{"heads":"2","tails":"28"},"type":"response","condition":"nonSeqPartial","trueTheta":0.2,"classrooms":["C","D"],"studentTrueClassroom":"C","exampleSet":"first","trial_type":"survey-html-form","trial_index":59,"time_elapsed":954040,"internal_node_id":"0.0-56.0-0.0","params":{"nStudents":24,"maxFlips":30,"completionMinutes":45,"basePay":8,"maxBonus":9,"perTrialBonus":0.5,"perTrialBonusThreshold":0.05,"exampleCost":0.01},"classroomParams":{"A":{"a":1,"b":4},"B":{"a":4,"b":1},"C":{"a":2,"b":8},"D":{"a":8,"b":2}},"conditions":["nonSeqFull","nonSeqPartial","seqNoFeedback","seqFeedback"],"classroomPairings":[["A","B"],["C","D"]],"coinWeights":[0.2,0.5,0.8],"subjectId":"AOHS348RVOF6D","assignmentId":"3LUY3GC630MSKJLF0Z4HJ8054OMP7P","hitId":"3Z3R5YC0P3915KVY8X6BNRIWSQNFTT","url":"https://gershmanlab.com/experiments/alicia/teaching/experiment/?hitId=3Z3R5YC0P3915KVY8X6BNRIWSQNFTT&workerId=AOHS348RVOF6D&assignmentId=3LUY3GC630MSKJLF0Z4HJ8054OMP7P&a=63UL9&tp_a=63UL9&b=3LUY3GC630MSKJLF0Z4HJ8054OMP7P&tp_b=3LUY3GC630MSKJLF0Z4HJ8054OMP7P&c=365799&tp_c=365799","heads":2,"tails":28,"studentIndex":6,"studentTrueHypers":{"a":2,"b":8},"studentGuess":0.1,"delta":0.1,"totalExamples":30,"bonus":0,"bonusSoFar":1.01},{"rt":null,"stimulus":"Sending examples to student... ","response":null,"trial_type":"html-keyboard-response","trial_index":60,"time_elapsed":955795,"internal_node_id":"0.0-57.0","params":{"nStudents":24,"maxFlips":30,"completionMinutes":45,"basePay":8,"maxBonus":9,"perTrialBonus":0.5,"perTrialBonusThreshold":0.05,"exampleCost":0.01},"classroomParams":{"A":{"a":1,"b":4},"B":{"a":4,"b":1},"C":{"a":2,"b":8},"D":{"a":8,"b":2}},"conditions":["nonSeqFull","nonSeqPartial","seqNoFeedback","seqFeedback"],"classroomPairings":[["A","B"],["C","D"]],"coinWeights":[0.2,0.5,0.8],"subjectId":"AOHS348RVOF6D","assignmentId":"3LUY3GC630MSKJLF0Z4HJ8054OMP7P","hitId":"3Z3R5YC0P3915KVY8X6BNRIWSQNFTT","url":"https://gershmanlab.com/experiments/alicia/teaching/experiment/?hitId=3Z3R5YC0P3915KVY8X6BNRIWSQNFTT&workerId=AOHS348RVOF6D&assignmentId=3LUY3GC630MSKJLF0Z4HJ8054OMP7P&a=63UL9&tp_a=63UL9&b=3LUY3GC630MSKJLF0Z4HJ8054OMP7P&tp_b=3LUY3GC630MSKJLF0Z4HJ8054OMP7P&c=365799&tp_c=365799"},{"rt":null,"stimulus":"Examples sent to student! Waiting for student...","response":null,"trial_type":"html-keyboard-response","trial_index":61,"time_elapsed":960302,"internal_node_id":"0.0-58.0","params":{"nStudents":24,"maxFlips":30,"completionMinutes":45,"basePay":8,"maxBonus":9,"perTrialBonus":0.5,"perTrialBonusThreshold":0.05,"exampleCost":0.01},"classroomParams":{"A":{"a":1,"b":4},"B":{"a":4,"b":1},"C":{"a":2,"b":8},"D":{"a":8,"b":2}},"conditions":["nonSeqFull","nonSeqPartial","seqNoFeedback","seqFeedback"],"classroomPairings":[["A","B"],["C","D"]],"coinWeights":[0.2,0.5,0.8],"subjectId":"AOHS348RVOF6D","assignmentId":"3LUY3GC630MSKJLF0Z4HJ8054OMP7P","hitId":"3Z3R5YC0P3915KVY8X6BNRIWSQNFTT","url":"https://gershmanlab.com/experiments/alicia/teaching/experiment/?hitId=3Z3R5YC0P3915KVY8X6BNRIWSQNFTT&workerId=AOHS348RVOF6D&assignmentId=3LUY3GC630MSKJLF0Z4HJ8054OMP7P&a=63UL9&tp_a=63UL9&b=3LUY3GC630MSKJLF0Z4HJ8054OMP7P&tp_b=3LUY3GC630MSKJLF0Z4HJ8054OMP7P&c=365799&tp_c=365799"},{"rt":9037,"stimulus":"\n                <p>Student's guess for coin weight: <b style=\"color:Tomato;\">0.10</b></p>\n                <p>You received a bonus of <b>$0</b>. Total bonus so far: <b>$1.01</b></b></p>\n                <p></p>\n                <p>Press any key to continue.</p>\n                ","response":"enter","trial_type":"html-keyboard-response","trial_index":62,"time_elapsed":969340,"internal_node_id":"0.0-59.0","params":{"nStudents":24,"maxFlips":30,"completionMinutes":45,"basePay":8,"maxBonus":9,"perTrialBonus":0.5,"perTrialBonusThreshold":0.05,"exampleCost":0.01},"classroomParams":{"A":{"a":1,"b":4},"B":{"a":4,"b":1},"C":{"a":2,"b":8},"D":{"a":8,"b":2}},"conditions":["nonSeqFull","nonSeqPartial","seqNoFeedback","seqFeedback"],"classroomPairings":[["A","B"],["C","D"]],"coinWeights":[0.2,0.5,0.8],"subjectId":"AOHS348RVOF6D","assignmentId":"3LUY3GC630MSKJLF0Z4HJ8054OMP7P","hitId":"3Z3R5YC0P3915KVY8X6BNRIWSQNFTT","url":"https://gershmanlab.com/experiments/alicia/teaching/experiment/?hitId=3Z3R5YC0P3915KVY8X6BNRIWSQNFTT&workerId=AOHS348RVOF6D&assignmentId=3LUY3GC630MSKJLF0Z4HJ8054OMP7P&a=63UL9&tp_a=63UL9&b=3LUY3GC630MSKJLF0Z4HJ8054OMP7P&tp_b=3LUY3GC630MSKJLF0Z4HJ8054OMP7P&c=365799&tp_c=365799"},{"rt":null,"stimulus":"<div style=\"font-size:60px;\">Next student</div>","response":null,"trial_type":"html-keyboard-response","trial_index":63,"time_elapsed":971341,"internal_node_id":"0.0-60.0-0.0","params":{"nStudents":24,"maxFlips":30,"completionMinutes":45,"basePay":8,"maxBonus":9,"perTrialBonus":0.5,"perTrialBonusThreshold":0.05,"exampleCost":0.01},"classroomParams":{"A":{"a":1,"b":4},"B":{"a":4,"b":1},"C":{"a":2,"b":8},"D":{"a":8,"b":2}},"conditions":["nonSeqFull","nonSeqPartial","seqNoFeedback","seqFeedback"],"classroomPairings":[["A","B"],["C","D"]],"coinWeights":[0.2,0.5,0.8],"subjectId":"AOHS348RVOF6D","assignmentId":"3LUY3GC630MSKJLF0Z4HJ8054OMP7P","hitId":"3Z3R5YC0P3915KVY8X6BNRIWSQNFTT","url":"https://gershmanlab.com/experiments/alicia/teaching/experiment/?hitId=3Z3R5YC0P3915KVY8X6BNRIWSQNFTT&workerId=AOHS348RVOF6D&assignmentId=3LUY3GC630MSKJLF0Z4HJ8054OMP7P&a=63UL9&tp_a=63UL9&b=3LUY3GC630MSKJLF0Z4HJ8054OMP7P&tp_b=3LUY3GC630MSKJLF0Z4HJ8054OMP7P&c=365799&tp_c=365799"},{"rt":1374,"stimulus":"\n            <h4 style=\"color:Orange;\">Student 8</h4>\n            <h2>The weight of your coin is <b style=\"color:Tomato;\">0.5</b>.</h2>\n            <p>In this block, you will be giving <b>two</b> sets of examples to Student 8.</p>\n                <p>You will see the student's guess after the first set of examples. You will also receive feedback at the end of the block.</p>\n            <p>To earn the highest bonus, you will have to <b>take into consideration the student's guess</b> when you choose your second set of examples.</p>","response":0,"trial_type":"html-button-response","trial_index":64,"time_elapsed":972715,"internal_node_id":"0.0-61.0","params":{"nStudents":24,"maxFlips":30,"completionMinutes":45,"basePay":8,"maxBonus":9,"perTrialBonus":0.5,"perTrialBonusThreshold":0.05,"exampleCost":0.01},"classroomParams":{"A":{"a":1,"b":4},"B":{"a":4,"b":1},"C":{"a":2,"b":8},"D":{"a":8,"b":2}},"conditions":["nonSeqFull","nonSeqPartial","seqNoFeedback","seqFeedback"],"classroomPairings":[["A","B"],["C","D"]],"coinWeights":[0.2,0.5,0.8],"subjectId":"AOHS348RVOF6D","assignmentId":"3LUY3GC630MSKJLF0Z4HJ8054OMP7P","hitId":"3Z3R5YC0P3915KVY8X6BNRIWSQNFTT","url":"https://gershmanlab.com/experiments/alicia/teaching/experiment/?hitId=3Z3R5YC0P3915KVY8X6BNRIWSQNFTT&workerId=AOHS348RVOF6D&assignmentId=3LUY3GC630MSKJLF0Z4HJ8054OMP7P&a=63UL9&tp_a=63UL9&b=3LUY3GC630MSKJLF0Z4HJ8054OMP7P&tp_b=3LUY3GC630MSKJLF0Z4HJ8054OMP7P&c=365799&tp_c=365799"},{"rt":9007,"response":{"heads":"7","tails":"2"},"type":"response","condition":"seqFeedback","trueTheta":0.5,"classrooms":["A","B"],"studentTrueClassroom":"A","exampleSet":"first","trial_type":"survey-html-form","trial_index":65,"time_elapsed":981723,"internal_node_id":"0.0-62.0-0.0","params":{"nStudents":24,"maxFlips":30,"completionMinutes":45,"basePay":8,"maxBonus":9,"perTrialBonus":0.5,"perTrialBonusThreshold":0.05,"exampleCost":0.01},"classroomParams":{"A":{"a":1,"b":4},"B":{"a":4,"b":1},"C":{"a":2,"b":8},"D":{"a":8,"b":2}},"conditions":["nonSeqFull","nonSeqPartial","seqNoFeedback","seqFeedback"],"classroomPairings":[["A","B"],["C","D"]],"coinWeights":[0.2,0.5,0.8],"subjectId":"AOHS348RVOF6D","assignmentId":"3LUY3GC630MSKJLF0Z4HJ8054OMP7P","hitId":"3Z3R5YC0P3915KVY8X6BNRIWSQNFTT","url":"https://gershmanlab.com/experiments/alicia/teaching/experiment/?hitId=3Z3R5YC0P3915KVY8X6BNRIWSQNFTT&workerId=AOHS348RVOF6D&assignmentId=3LUY3GC630MSKJLF0Z4HJ8054OMP7P&a=63UL9&tp_a=63UL9&b=3LUY3GC630MSKJLF0Z4HJ8054OMP7P&tp_b=3LUY3GC630MSKJLF0Z4HJ8054OMP7P&c=365799&tp_c=365799","heads":7,"tails":2,"studentIndex":7,"studentTrueHypers":{"a":1,"b":4},"studentGuess":0.5714285714285714,"delta":0.0714285714285714,"totalExamples":9,"bonusSoFar":1.01},{"rt":null,"stimulus":"Sending examples to student... ","response":null,"trial_type":"html-keyboard-response","trial_index":66,"time_elapsed":983226,"internal_node_id":"0.0-63.0","params":{"nStudents":24,"maxFlips":30,"completionMinutes":45,"basePay":8,"maxBonus":9,"perTrialBonus":0.5,"perTrialBonusThreshold":0.05,"exampleCost":0.01},"classroomParams":{"A":{"a":1,"b":4},"B":{"a":4,"b":1},"C":{"a":2,"b":8},"D":{"a":8,"b":2}},"conditions":["nonSeqFull","nonSeqPartial","seqNoFeedback","seqFeedback"],"classroomPairings":[["A","B"],["C","D"]],"coinWeights":[0.2,0.5,0.8],"subjectId":"AOHS348RVOF6D","assignmentId":"3LUY3GC630MSKJLF0Z4HJ8054OMP7P","hitId":"3Z3R5YC0P3915KVY8X6BNRIWSQNFTT","url":"https://gershmanlab.com/experiments/alicia/teaching/experiment/?hitId=3Z3R5YC0P3915KVY8X6BNRIWSQNFTT&workerId=AOHS348RVOF6D&assignmentId=3LUY3GC630MSKJLF0Z4HJ8054OMP7P&a=63UL9&tp_a=63UL9&b=3LUY3GC630MSKJLF0Z4HJ8054OMP7P&tp_b=3LUY3GC630MSKJLF0Z4HJ8054OMP7P&c=365799&tp_c=365799"},{"rt":null,"stimulus":"Examples sent to student! Waiting for student...","response":null,"trial_type":"html-keyboard-response","trial_index":67,"time_elapsed":988241,"internal_node_id":"0.0-64.0","params":{"nStudents":24,"maxFlips":30,"completionMinutes":45,"basePay":8,"maxBonus":9,"perTrialBonus":0.5,"perTrialBonusThreshold":0.05,"exampleCost":0.01},"classroomParams":{"A":{"a":1,"b":4},"B":{"a":4,"b":1},"C":{"a":2,"b":8},"D":{"a":8,"b":2}},"conditions":["nonSeqFull","nonSeqPartial","seqNoFeedback","seqFeedback"],"classroomPairings":[["A","B"],["C","D"]],"coinWeights":[0.2,0.5,0.8],"subjectId":"AOHS348RVOF6D","assignmentId":"3LUY3GC630MSKJLF0Z4HJ8054OMP7P","hitId":"3Z3R5YC0P3915KVY8X6BNRIWSQNFTT","url":"https://gershmanlab.com/experiments/alicia/teaching/experiment/?hitId=3Z3R5YC0P3915KVY8X6BNRIWSQNFTT&workerId=AOHS348RVOF6D&assignmentId=3LUY3GC630MSKJLF0Z4HJ8054OMP7P&a=63UL9&tp_a=63UL9&b=3LUY3GC630MSKJLF0Z4HJ8054OMP7P&tp_b=3LUY3GC630MSKJLF0Z4HJ8054OMP7P&c=365799&tp_c=365799"},{"rt":3740,"stimulus":"\n                <p>Student's guess for coin weight: <b style=\"color:Tomato;\">0.57</b></p>\n                <p></b></p>\n                <p>You will now send another set of examples to your student. <b>Remember to take your student's guess into consideration so that you can earn the highest bonus possible!</b> </p>\n                <p>Press any key to continue.</p>\n                ","response":"enter","trial_type":"html-keyboard-response","trial_index":68,"time_elapsed":991982,"internal_node_id":"0.0-65.0","params":{"nStudents":24,"maxFlips":30,"completionMinutes":45,"basePay":8,"maxBonus":9,"perTrialBonus":0.5,"perTrialBonusThreshold":0.05,"exampleCost":0.01},"classroomParams":{"A":{"a":1,"b":4},"B":{"a":4,"b":1},"C":{"a":2,"b":8},"D":{"a":8,"b":2}},"conditions":["nonSeqFull","nonSeqPartial","seqNoFeedback","seqFeedback"],"classroomPairings":[["A","B"],["C","D"]],"coinWeights":[0.2,0.5,0.8],"subjectId":"AOHS348RVOF6D","assignmentId":"3LUY3GC630MSKJLF0Z4HJ8054OMP7P","hitId":"3Z3R5YC0P3915KVY8X6BNRIWSQNFTT","url":"https://gershmanlab.com/experiments/alicia/teaching/experiment/?hitId=3Z3R5YC0P3915KVY8X6BNRIWSQNFTT&workerId=AOHS348RVOF6D&assignmentId=3LUY3GC630MSKJLF0Z4HJ8054OMP7P&a=63UL9&tp_a=63UL9&b=3LUY3GC630MSKJLF0Z4HJ8054OMP7P&tp_b=3LUY3GC630MSKJLF0Z4HJ8054OMP7P&c=365799&tp_c=365799"},{"rt":6691,"response":{"heads":"6","tails":"3"},"type":"response","condition":"seqFeedback","trueTheta":0.5,"classrooms":["A","B"],"studentTrueClassroom":"A","exampleSet":"second","trial_type":"survey-html-form","trial_index":69,"time_elapsed":998674,"internal_node_id":"0.0-66.0-0.0","params":{"nStudents":24,"maxFlips":30,"completionMinutes":45,"basePay":8,"maxBonus":9,"perTrialBonus":0.5,"perTrialBonusThreshold":0.05,"exampleCost":0.01},"classroomParams":{"A":{"a":1,"b":4},"B":{"a":4,"b":1},"C":{"a":2,"b":8},"D":{"a":8,"b":2}},"conditions":["nonSeqFull","nonSeqPartial","seqNoFeedback","seqFeedback"],"classroomPairings":[["A","B"],["C","D"]],"coinWeights":[0.2,0.5,0.8],"subjectId":"AOHS348RVOF6D","assignmentId":"3LUY3GC630MSKJLF0Z4HJ8054OMP7P","hitId":"3Z3R5YC0P3915KVY8X6BNRIWSQNFTT","url":"https://gershmanlab.com/experiments/alicia/teaching/experiment/?hitId=3Z3R5YC0P3915KVY8X6BNRIWSQNFTT&workerId=AOHS348RVOF6D&assignmentId=3LUY3GC630MSKJLF0Z4HJ8054OMP7P&a=63UL9&tp_a=63UL9&b=3LUY3GC630MSKJLF0Z4HJ8054OMP7P&tp_b=3LUY3GC630MSKJLF0Z4HJ8054OMP7P&c=365799&tp_c=365799","firstResponseHeads":7,"firstResponseTails":2,"secondResponseHeads":6,"secondResponseTails":3,"totalHeads":13,"totalTails":5,"studentIndex":7,"studentTrueHypers":{"a":1,"b":4},"studentGuess":0.6086956521739131,"delta":0.10869565217391308,"bonus":0,"bonusSoFar":1.01,"totalExamples":18},{"rt":null,"stimulus":"Sending examples to student... ","response":null,"trial_type":"html-keyboard-response","trial_index":70,"time_elapsed":1000432,"internal_node_id":"0.0-67.0","params":{"nStudents":24,"maxFlips":30,"completionMinutes":45,"basePay":8,"maxBonus":9,"perTrialBonus":0.5,"perTrialBonusThreshold":0.05,"exampleCost":0.01},"classroomParams":{"A":{"a":1,"b":4},"B":{"a":4,"b":1},"C":{"a":2,"b":8},"D":{"a":8,"b":2}},"conditions":["nonSeqFull","nonSeqPartial","seqNoFeedback","seqFeedback"],"classroomPairings":[["A","B"],["C","D"]],"coinWeights":[0.2,0.5,0.8],"subjectId":"AOHS348RVOF6D","assignmentId":"3LUY3GC630MSKJLF0Z4HJ8054OMP7P","hitId":"3Z3R5YC0P3915KVY8X6BNRIWSQNFTT","url":"https://gershmanlab.com/experiments/alicia/teaching/experiment/?hitId=3Z3R5YC0P3915KVY8X6BNRIWSQNFTT&workerId=AOHS348RVOF6D&assignmentId=3LUY3GC630MSKJLF0Z4HJ8054OMP7P&a=63UL9&tp_a=63UL9&b=3LUY3GC630MSKJLF0Z4HJ8054OMP7P&tp_b=3LUY3GC630MSKJLF0Z4HJ8054OMP7P&c=365799&tp_c=365799"},{"rt":null,"stimulus":"Examples sent to student! Waiting for student...","response":null,"trial_type":"html-keyboard-response","trial_index":71,"time_elapsed":1004438,"internal_node_id":"0.0-68.0","params":{"nStudents":24,"maxFlips":30,"completionMinutes":45,"basePay":8,"maxBonus":9,"perTrialBonus":0.5,"perTrialBonusThreshold":0.05,"exampleCost":0.01},"classroomParams":{"A":{"a":1,"b":4},"B":{"a":4,"b":1},"C":{"a":2,"b":8},"D":{"a":8,"b":2}},"conditions":["nonSeqFull","nonSeqPartial","seqNoFeedback","seqFeedback"],"classroomPairings":[["A","B"],["C","D"]],"coinWeights":[0.2,0.5,0.8],"subjectId":"AOHS348RVOF6D","assignmentId":"3LUY3GC630MSKJLF0Z4HJ8054OMP7P","hitId":"3Z3R5YC0P3915KVY8X6BNRIWSQNFTT","url":"https://gershmanlab.com/experiments/alicia/teaching/experiment/?hitId=3Z3R5YC0P3915KVY8X6BNRIWSQNFTT&workerId=AOHS348RVOF6D&assignmentId=3LUY3GC630MSKJLF0Z4HJ8054OMP7P&a=63UL9&tp_a=63UL9&b=3LUY3GC630MSKJLF0Z4HJ8054OMP7P&tp_b=3LUY3GC630MSKJLF0Z4HJ8054OMP7P&c=365799&tp_c=365799"},{"rt":3508,"stimulus":"\n                <p>Student 8's first guess for coin weight: <b style=\"color:Tomato\";>0.57</b></p>\n                <p>Student 8's second guess for coin weight: <b style=\"color:Tomato\";>0.61</b></p>\n                <p>You received a bonus of <b>$0.00</b> based on the student's second guess.</p>\n                <p>Total bonus so far: <b>$1.01</b></p>\n                <p>Press any key to continue.</p>\n                ","response":"enter","trial_type":"html-keyboard-response","trial_index":72,"time_elapsed":1007947,"internal_node_id":"0.0-69.0","params":{"nStudents":24,"maxFlips":30,"completionMinutes":45,"basePay":8,"maxBonus":9,"perTrialBonus":0.5,"perTrialBonusThreshold":0.05,"exampleCost":0.01},"classroomParams":{"A":{"a":1,"b":4},"B":{"a":4,"b":1},"C":{"a":2,"b":8},"D":{"a":8,"b":2}},"conditions":["nonSeqFull","nonSeqPartial","seqNoFeedback","seqFeedback"],"classroomPairings":[["A","B"],["C","D"]],"coinWeights":[0.2,0.5,0.8],"subjectId":"AOHS348RVOF6D","assignmentId":"3LUY3GC630MSKJLF0Z4HJ8054OMP7P","hitId":"3Z3R5YC0P3915KVY8X6BNRIWSQNFTT","url":"https://gershmanlab.com/experiments/alicia/teaching/experiment/?hitId=3Z3R5YC0P3915KVY8X6BNRIWSQNFTT&workerId=AOHS348RVOF6D&assignmentId=3LUY3GC630MSKJLF0Z4HJ8054OMP7P&a=63UL9&tp_a=63UL9&b=3LUY3GC630MSKJLF0Z4HJ8054OMP7P&tp_b=3LUY3GC630MSKJLF0Z4HJ8054OMP7P&c=365799&tp_c=365799"},{"rt":null,"stimulus":"<div style=\"font-size:60px;\">Next student</div>","response":null,"trial_type":"html-keyboard-response","trial_index":73,"time_elapsed":1010201,"internal_node_id":"0.0-70.0-0.0","params":{"nStudents":24,"maxFlips":30,"completionMinutes":45,"basePay":8,"maxBonus":9,"perTrialBonus":0.5,"perTrialBonusThreshold":0.05,"exampleCost":0.01},"classroomParams":{"A":{"a":1,"b":4},"B":{"a":4,"b":1},"C":{"a":2,"b":8},"D":{"a":8,"b":2}},"conditions":["nonSeqFull","nonSeqPartial","seqNoFeedback","seqFeedback"],"classroomPairings":[["A","B"],["C","D"]],"coinWeights":[0.2,0.5,0.8],"subjectId":"AOHS348RVOF6D","assignmentId":"3LUY3GC630MSKJLF0Z4HJ8054OMP7P","hitId":"3Z3R5YC0P3915KVY8X6BNRIWSQNFTT","url":"https://gershmanlab.com/experiments/alicia/teaching/experiment/?hitId=3Z3R5YC0P3915KVY8X6BNRIWSQNFTT&workerId=AOHS348RVOF6D&assignmentId=3LUY3GC630MSKJLF0Z4HJ8054OMP7P&a=63UL9&tp_a=63UL9&b=3LUY3GC630MSKJLF0Z4HJ8054OMP7P&tp_b=3LUY3GC630MSKJLF0Z4HJ8054OMP7P&c=365799&tp_c=365799"},{"rt":1478,"stimulus":"\n            <h4 style=\"color:Orange;\">Student 9</h4>\n            <h2>The weight of your coin is <b style=\"color:Tomato;\">0.8</b>.</h2>\n            <p>In this block, you will be giving <b>two</b> sets of examples to Student 9.</p>\n                <p>You will receive feedback at the end of the block.</p>\n            <p></p>","response":0,"trial_type":"html-button-response","trial_index":74,"time_elapsed":1011680,"internal_node_id":"0.0-71.0","params":{"nStudents":24,"maxFlips":30,"completionMinutes":45,"basePay":8,"maxBonus":9,"perTrialBonus":0.5,"perTrialBonusThreshold":0.05,"exampleCost":0.01},"classroomParams":{"A":{"a":1,"b":4},"B":{"a":4,"b":1},"C":{"a":2,"b":8},"D":{"a":8,"b":2}},"conditions":["nonSeqFull","nonSeqPartial","seqNoFeedback","seqFeedback"],"classroomPairings":[["A","B"],["C","D"]],"coinWeights":[0.2,0.5,0.8],"subjectId":"AOHS348RVOF6D","assignmentId":"3LUY3GC630MSKJLF0Z4HJ8054OMP7P","hitId":"3Z3R5YC0P3915KVY8X6BNRIWSQNFTT","url":"https://gershmanlab.com/experiments/alicia/teaching/experiment/?hitId=3Z3R5YC0P3915KVY8X6BNRIWSQNFTT&workerId=AOHS348RVOF6D&assignmentId=3LUY3GC630MSKJLF0Z4HJ8054OMP7P&a=63UL9&tp_a=63UL9&b=3LUY3GC630MSKJLF0Z4HJ8054OMP7P&tp_b=3LUY3GC630MSKJLF0Z4HJ8054OMP7P&c=365799&tp_c=365799"},{"rt":3749,"response":{"heads":"29","tails":"1"},"type":"response","condition":"seqNoFeedback","trueTheta":0.8,"classrooms":["C","D"],"studentTrueClassroom":"D","exampleSet":"first","trial_type":"survey-html-form","trial_index":75,"time_elapsed":1015430,"internal_node_id":"0.0-72.0-0.0","params":{"nStudents":24,"maxFlips":30,"completionMinutes":45,"basePay":8,"maxBonus":9,"perTrialBonus":0.5,"perTrialBonusThreshold":0.05,"exampleCost":0.01},"classroomParams":{"A":{"a":1,"b":4},"B":{"a":4,"b":1},"C":{"a":2,"b":8},"D":{"a":8,"b":2}},"conditions":["nonSeqFull","nonSeqPartial","seqNoFeedback","seqFeedback"],"classroomPairings":[["A","B"],["C","D"]],"coinWeights":[0.2,0.5,0.8],"subjectId":"AOHS348RVOF6D","assignmentId":"3LUY3GC630MSKJLF0Z4HJ8054OMP7P","hitId":"3Z3R5YC0P3915KVY8X6BNRIWSQNFTT","url":"https://gershmanlab.com/experiments/alicia/teaching/experiment/?hitId=3Z3R5YC0P3915KVY8X6BNRIWSQNFTT&workerId=AOHS348RVOF6D&assignmentId=3LUY3GC630MSKJLF0Z4HJ8054OMP7P&a=63UL9&tp_a=63UL9&b=3LUY3GC630MSKJLF0Z4HJ8054OMP7P&tp_b=3LUY3GC630MSKJLF0Z4HJ8054OMP7P&c=365799&tp_c=365799","heads":29,"tails":1,"studentIndex":8,"studentTrueHypers":{"a":8,"b":2},"studentGuess":0.925,"delta":0.125,"totalExamples":30,"bonusSoFar":1.01},{"rt":null,"stimulus":"Sending examples to student... ","response":null,"trial_type":"html-keyboard-response","trial_index":76,"time_elapsed":1017194,"internal_node_id":"0.0-73.0","params":{"nStudents":24,"maxFlips":30,"completionMinutes":45,"basePay":8,"maxBonus":9,"perTrialBonus":0.5,"perTrialBonusThreshold":0.05,"exampleCost":0.01},"classroomParams":{"A":{"a":1,"b":4},"B":{"a":4,"b":1},"C":{"a":2,"b":8},"D":{"a":8,"b":2}},"conditions":["nonSeqFull","nonSeqPartial","seqNoFeedback","seqFeedback"],"classroomPairings":[["A","B"],["C","D"]],"coinWeights":[0.2,0.5,0.8],"subjectId":"AOHS348RVOF6D","assignmentId":"3LUY3GC630MSKJLF0Z4HJ8054OMP7P","hitId":"3Z3R5YC0P3915KVY8X6BNRIWSQNFTT","url":"https://gershmanlab.com/experiments/alicia/teaching/experiment/?hitId=3Z3R5YC0P3915KVY8X6BNRIWSQNFTT&workerId=AOHS348RVOF6D&assignmentId=3LUY3GC630MSKJLF0Z4HJ8054OMP7P&a=63UL9&tp_a=63UL9&b=3LUY3GC630MSKJLF0Z4HJ8054OMP7P&tp_b=3LUY3GC630MSKJLF0Z4HJ8054OMP7P&c=365799&tp_c=365799"},{"rt":null,"stimulus":"Examples sent to student! Waiting for student...","response":null,"trial_type":"html-keyboard-response","trial_index":77,"time_elapsed":1022701,"internal_node_id":"0.0-74.0","params":{"nStudents":24,"maxFlips":30,"completionMinutes":45,"basePay":8,"maxBonus":9,"perTrialBonus":0.5,"perTrialBonusThreshold":0.05,"exampleCost":0.01},"classroomParams":{"A":{"a":1,"b":4},"B":{"a":4,"b":1},"C":{"a":2,"b":8},"D":{"a":8,"b":2}},"conditions":["nonSeqFull","nonSeqPartial","seqNoFeedback","seqFeedback"],"classroomPairings":[["A","B"],["C","D"]],"coinWeights":[0.2,0.5,0.8],"subjectId":"AOHS348RVOF6D","assignmentId":"3LUY3GC630MSKJLF0Z4HJ8054OMP7P","hitId":"3Z3R5YC0P3915KVY8X6BNRIWSQNFTT","url":"https://gershmanlab.com/experiments/alicia/teaching/experiment/?hitId=3Z3R5YC0P3915KVY8X6BNRIWSQNFTT&workerId=AOHS348RVOF6D&assignmentId=3LUY3GC630MSKJLF0Z4HJ8054OMP7P&a=63UL9&tp_a=63UL9&b=3LUY3GC630MSKJLF0Z4HJ8054OMP7P&tp_b=3LUY3GC630MSKJLF0Z4HJ8054OMP7P&c=365799&tp_c=365799"},{"rt":8516,"response":{"heads":"29","tails":"1"},"type":"response","condition":"seqNoFeedback","trueTheta":0.8,"classrooms":["C","D"],"studentTrueClassroom":"D","exampleSet":"second","trial_type":"survey-html-form","trial_index":78,"time_elapsed":1031218,"internal_node_id":"0.0-75.0-0.0","params":{"nStudents":24,"maxFlips":30,"completionMinutes":45,"basePay":8,"maxBonus":9,"perTrialBonus":0.5,"perTrialBonusThreshold":0.05,"exampleCost":0.01},"classroomParams":{"A":{"a":1,"b":4},"B":{"a":4,"b":1},"C":{"a":2,"b":8},"D":{"a":8,"b":2}},"conditions":["nonSeqFull","nonSeqPartial","seqNoFeedback","seqFeedback"],"classroomPairings":[["A","B"],["C","D"]],"coinWeights":[0.2,0.5,0.8],"subjectId":"AOHS348RVOF6D","assignmentId":"3LUY3GC630MSKJLF0Z4HJ8054OMP7P","hitId":"3Z3R5YC0P3915KVY8X6BNRIWSQNFTT","url":"https://gershmanlab.com/experiments/alicia/teaching/experiment/?hitId=3Z3R5YC0P3915KVY8X6BNRIWSQNFTT&workerId=AOHS348RVOF6D&assignmentId=3LUY3GC630MSKJLF0Z4HJ8054OMP7P&a=63UL9&tp_a=63UL9&b=3LUY3GC630MSKJLF0Z4HJ8054OMP7P&tp_b=3LUY3GC630MSKJLF0Z4HJ8054OMP7P&c=365799&tp_c=365799","firstResponseHeads":29,"firstResponseTails":1,"secondResponseHeads":29,"secondResponseTails":1,"totalHeads":58,"totalTails":2,"studentIndex":8,"studentTrueHypers":{"a":8,"b":2},"studentGuess":0.9428571428571428,"delta":0.1428571428571428,"bonus":0,"bonusSoFar":1.01,"totalExamples":60},{"rt":null,"stimulus":"Sending examples to student... ","response":null,"trial_type":"html-keyboard-response","trial_index":79,"time_elapsed":1032482,"internal_node_id":"0.0-76.0","params":{"nStudents":24,"maxFlips":30,"completionMinutes":45,"basePay":8,"maxBonus":9,"perTrialBonus":0.5,"perTrialBonusThreshold":0.05,"exampleCost":0.01},"classroomParams":{"A":{"a":1,"b":4},"B":{"a":4,"b":1},"C":{"a":2,"b":8},"D":{"a":8,"b":2}},"conditions":["nonSeqFull","nonSeqPartial","seqNoFeedback","seqFeedback"],"classroomPairings":[["A","B"],["C","D"]],"coinWeights":[0.2,0.5,0.8],"subjectId":"AOHS348RVOF6D","assignmentId":"3LUY3GC630MSKJLF0Z4HJ8054OMP7P","hitId":"3Z3R5YC0P3915KVY8X6BNRIWSQNFTT","url":"https://gershmanlab.com/experiments/alicia/teaching/experiment/?hitId=3Z3R5YC0P3915KVY8X6BNRIWSQNFTT&workerId=AOHS348RVOF6D&assignmentId=3LUY3GC630MSKJLF0Z4HJ8054OMP7P&a=63UL9&tp_a=63UL9&b=3LUY3GC630MSKJLF0Z4HJ8054OMP7P&tp_b=3LUY3GC630MSKJLF0Z4HJ8054OMP7P&c=365799&tp_c=365799"},{"rt":null,"stimulus":"Examples sent to student! Waiting for student...","response":null,"trial_type":"html-keyboard-response","trial_index":80,"time_elapsed":1038486,"internal_node_id":"0.0-77.0","params":{"nStudents":24,"maxFlips":30,"completionMinutes":45,"basePay":8,"maxBonus":9,"perTrialBonus":0.5,"perTrialBonusThreshold":0.05,"exampleCost":0.01},"classroomParams":{"A":{"a":1,"b":4},"B":{"a":4,"b":1},"C":{"a":2,"b":8},"D":{"a":8,"b":2}},"conditions":["nonSeqFull","nonSeqPartial","seqNoFeedback","seqFeedback"],"classroomPairings":[["A","B"],["C","D"]],"coinWeights":[0.2,0.5,0.8],"subjectId":"AOHS348RVOF6D","assignmentId":"3LUY3GC630MSKJLF0Z4HJ8054OMP7P","hitId":"3Z3R5YC0P3915KVY8X6BNRIWSQNFTT","url":"https://gershmanlab.com/experiments/alicia/teaching/experiment/?hitId=3Z3R5YC0P3915KVY8X6BNRIWSQNFTT&workerId=AOHS348RVOF6D&assignmentId=3LUY3GC630MSKJLF0Z4HJ8054OMP7P&a=63UL9&tp_a=63UL9&b=3LUY3GC630MSKJLF0Z4HJ8054OMP7P&tp_b=3LUY3GC630MSKJLF0Z4HJ8054OMP7P&c=365799&tp_c=365799"},{"rt":2371,"stimulus":"\n                <p>Student 9's first guess for coin weight: <b style=\"color:Tomato\";>0.93</b></p>\n                <p>Student 9's second guess for coin weight: <b style=\"color:Tomato\";>0.94</b></p>\n                <p>You received a bonus of <b>$0.00</b> based on the student's second guess.</p>\n                <p>Total bonus so far: <b>$1.01</b></p>\n                <p>Press any key to continue.</p>\n                ","response":"enter","trial_type":"html-keyboard-response","trial_index":81,"time_elapsed":1040857,"internal_node_id":"0.0-78.0","params":{"nStudents":24,"maxFlips":30,"completionMinutes":45,"basePay":8,"maxBonus":9,"perTrialBonus":0.5,"perTrialBonusThreshold":0.05,"exampleCost":0.01},"classroomParams":{"A":{"a":1,"b":4},"B":{"a":4,"b":1},"C":{"a":2,"b":8},"D":{"a":8,"b":2}},"conditions":["nonSeqFull","nonSeqPartial","seqNoFeedback","seqFeedback"],"classroomPairings":[["A","B"],["C","D"]],"coinWeights":[0.2,0.5,0.8],"subjectId":"AOHS348RVOF6D","assignmentId":"3LUY3GC630MSKJLF0Z4HJ8054OMP7P","hitId":"3Z3R5YC0P3915KVY8X6BNRIWSQNFTT","url":"https://gershmanlab.com/experiments/alicia/teaching/experiment/?hitId=3Z3R5YC0P3915KVY8X6BNRIWSQNFTT&workerId=AOHS348RVOF6D&assignmentId=3LUY3GC630MSKJLF0Z4HJ8054OMP7P&a=63UL9&tp_a=63UL9&b=3LUY3GC630MSKJLF0Z4HJ8054OMP7P&tp_b=3LUY3GC630MSKJLF0Z4HJ8054OMP7P&c=365799&tp_c=365799"},{"rt":null,"stimulus":"<div style=\"font-size:60px;\">Next student</div>","response":null,"trial_type":"html-keyboard-response","trial_index":82,"time_elapsed":1043358,"internal_node_id":"0.0-79.0-0.0","params":{"nStudents":24,"maxFlips":30,"completionMinutes":45,"basePay":8,"maxBonus":9,"perTrialBonus":0.5,"perTrialBonusThreshold":0.05,"exampleCost":0.01},"classroomParams":{"A":{"a":1,"b":4},"B":{"a":4,"b":1},"C":{"a":2,"b":8},"D":{"a":8,"b":2}},"conditions":["nonSeqFull","nonSeqPartial","seqNoFeedback","seqFeedback"],"classroomPairings":[["A","B"],["C","D"]],"coinWeights":[0.2,0.5,0.8],"subjectId":"AOHS348RVOF6D","assignmentId":"3LUY3GC630MSKJLF0Z4HJ8054OMP7P","hitId":"3Z3R5YC0P3915KVY8X6BNRIWSQNFTT","url":"https://gershmanlab.com/experiments/alicia/teaching/experiment/?hitId=3Z3R5YC0P3915KVY8X6BNRIWSQNFTT&workerId=AOHS348RVOF6D&assignmentId=3LUY3GC630MSKJLF0Z4HJ8054OMP7P&a=63UL9&tp_a=63UL9&b=3LUY3GC630MSKJLF0Z4HJ8054OMP7P&tp_b=3LUY3GC630MSKJLF0Z4HJ8054OMP7P&c=365799&tp_c=365799"},{"rt":1201,"stimulus":"\n            <h4 style=\"color:Orange;\">Student 10</h4>\n            <h2>The weight of your coin is <b style=\"color:Tomato;\">0.8</b>.</h2>\n            <p>In this block, you will be giving <b>two</b> sets of examples to Student 10.</p>\n                <p>You will receive feedback at the end of the block.</p>\n            <p></p>","response":0,"trial_type":"html-button-response","trial_index":83,"time_elapsed":1044561,"internal_node_id":"0.0-80.0","params":{"nStudents":24,"maxFlips":30,"completionMinutes":45,"basePay":8,"maxBonus":9,"perTrialBonus":0.5,"perTrialBonusThreshold":0.05,"exampleCost":0.01},"classroomParams":{"A":{"a":1,"b":4},"B":{"a":4,"b":1},"C":{"a":2,"b":8},"D":{"a":8,"b":2}},"conditions":["nonSeqFull","nonSeqPartial","seqNoFeedback","seqFeedback"],"classroomPairings":[["A","B"],["C","D"]],"coinWeights":[0.2,0.5,0.8],"subjectId":"AOHS348RVOF6D","assignmentId":"3LUY3GC630MSKJLF0Z4HJ8054OMP7P","hitId":"3Z3R5YC0P3915KVY8X6BNRIWSQNFTT","url":"https://gershmanlab.com/experiments/alicia/teaching/experiment/?hitId=3Z3R5YC0P3915KVY8X6BNRIWSQNFTT&workerId=AOHS348RVOF6D&assignmentId=3LUY3GC630MSKJLF0Z4HJ8054OMP7P&a=63UL9&tp_a=63UL9&b=3LUY3GC630MSKJLF0Z4HJ8054OMP7P&tp_b=3LUY3GC630MSKJLF0Z4HJ8054OMP7P&c=365799&tp_c=365799"},{"rt":5008,"response":{"heads":"28","tails":"2"},"type":"response","condition":"seqNoFeedback","trueTheta":0.8,"classrooms":["A","B"],"studentTrueClassroom":"B","exampleSet":"first","trial_type":"survey-html-form","trial_index":84,"time_elapsed":1049570,"internal_node_id":"0.0-81.0-0.0","params":{"nStudents":24,"maxFlips":30,"completionMinutes":45,"basePay":8,"maxBonus":9,"perTrialBonus":0.5,"perTrialBonusThreshold":0.05,"exampleCost":0.01},"classroomParams":{"A":{"a":1,"b":4},"B":{"a":4,"b":1},"C":{"a":2,"b":8},"D":{"a":8,"b":2}},"conditions":["nonSeqFull","nonSeqPartial","seqNoFeedback","seqFeedback"],"classroomPairings":[["A","B"],["C","D"]],"coinWeights":[0.2,0.5,0.8],"subjectId":"AOHS348RVOF6D","assignmentId":"3LUY3GC630MSKJLF0Z4HJ8054OMP7P","hitId":"3Z3R5YC0P3915KVY8X6BNRIWSQNFTT","url":"https://gershmanlab.com/experiments/alicia/teaching/experiment/?hitId=3Z3R5YC0P3915KVY8X6BNRIWSQNFTT&workerId=AOHS348RVOF6D&assignmentId=3LUY3GC630MSKJLF0Z4HJ8054OMP7P&a=63UL9&tp_a=63UL9&b=3LUY3GC630MSKJLF0Z4HJ8054OMP7P&tp_b=3LUY3GC630MSKJLF0Z4HJ8054OMP7P&c=365799&tp_c=365799","heads":28,"tails":2,"studentIndex":9,"studentTrueHypers":{"a":4,"b":1},"studentGuess":0.9142857142857143,"delta":0.11428571428571421,"totalExamples":30,"bonusSoFar":1.01},{"rt":null,"stimulus":"Sending examples to student... ","response":null,"trial_type":"html-keyboard-response","trial_index