[{"rt":8133,"stimulus":"Welcome to the experiment. Press any key to begin.","response":" ","trial_type":"html-keyboard-response","trial_index":0,"time_elapsed":8164,"internal_node_id":"0.0-0.0","params":{"nStudents":24,"maxFlips":30,"completionMinutes":45,"basePay":8,"maxBonus":9,"perTrialBonus":0.5,"perTrialBonusThreshold":0.05,"exampleCost":0.01},"classroomParams":{"A":{"a":1,"b":4},"B":{"a":4,"b":1},"C":{"a":2,"b":8},"D":{"a":8,"b":2}},"conditions":["nonSeqFull","nonSeqPartial","seqNoFeedback","seqFeedback"],"classroomPairings":[["A","B"],["C","D"]],"coinWeights":[0.2,0.5,0.8],"subjectId":"AONSG5WOC3OX0","assignmentId":"3F1567XTNXRHYEANF9HQX9HL4AX9QD","hitId":"3JGHED38EDDK7DFM0KVY7GXU94LY7W","url":"https://gershmanlab.com/experiments/alicia/teaching/experiment/?hitId=3JGHED38EDDK7DFM0KVY7GXU94LY7W&workerId=AONSG5WOC3OX0&assignmentId=3F1567XTNXRHYEANF9HQX9HL4AX9QD&a=T61F9&tp_a=T61F9&b=3F1567XTNXRHYEANF9HQX9HL4AX9QD&tp_b=3F1567XTNXRHYEANF9HQX9HL4AX9QD&c=365799&tp_c=365799"},{"rt":68406,"stimulus":"\n        <h3>Please read this consent agreement carefully before deciding whether to participate in this experiment.</h3>\n        <p><b>Purpose of the research:</b> To examine how people teach effectively.</p>\n        <p><b>What you will do in this research:</b> You will teach students the weights of different coins.</p>\n        <p><b>Time required:</b> This experiment will take 45 minutes to complete.</p>\n        <p><b>Risks:</b> There are no anticipated risks associated with participating in this study.             The effects of participating should be comparable to those you would experience from viewing a computer monitor             and using a mouse and keyboard for the duration of the experiment.</p>\n        <p><b>Benefits:</b> The study provides important information about the nature of teaching.</p>\n        <p><b>Compensation:</b> You will receive <b>$8</b> for completing the experiment and a performance bonus of up to <b>$9</b>.</p>\n        <p><b>Confidentiality:</b> Your participation in this study will remain confidential.             No personally identifiable information will be associated with your data.             Your de-identified data may be shared with other researchers and used in future projects.</p>\n        <p><b>Participation and withdrawal:</b> Your participation in this study is completely voluntary and             you may refuse to participate or you may choose to withdraw at any time without penalty or loss of\n            benefits to which you are otherwise entitled.</p>\n        <p><b>How to contact the researcher:</b> If you have questions or concerns about your participation            or payment, or want to request a summary of research findings, please contact\n            Alicia Chen, aliciachen@college.harvard.edu.</p>\n        <p><b>Whom to contact about your rights in this research:</b> For questions, concerns, suggestions,             or complaints that have not been or cannot be addressed by the researcher, or to report             research-related harm, please contact the Committee on the Use of Human Subjects in Research at Harvard University,             1414 Massachusetts Avenue, Second Floor, Cambridge, MA 02138. Phone: 617-496-2847. Email: cuhs@fas.harvard.edu.</p>\n        ","response":0,"trial_type":"html-button-response","trial_index":1,"time_elapsed":76571,"internal_node_id":"0.0-1.0","params":{"nStudents":24,"maxFlips":30,"completionMinutes":45,"basePay":8,"maxBonus":9,"perTrialBonus":0.5,"perTrialBonusThreshold":0.05,"exampleCost":0.01},"classroomParams":{"A":{"a":1,"b":4},"B":{"a":4,"b":1},"C":{"a":2,"b":8},"D":{"a":8,"b":2}},"conditions":["nonSeqFull","nonSeqPartial","seqNoFeedback","seqFeedback"],"classroomPairings":[["A","B"],["C","D"]],"coinWeights":[0.2,0.5,0.8],"subjectId":"AONSG5WOC3OX0","assignmentId":"3F1567XTNXRHYEANF9HQX9HL4AX9QD","hitId":"3JGHED38EDDK7DFM0KVY7GXU94LY7W","url":"https://gershmanlab.com/experiments/alicia/teaching/experiment/?hitId=3JGHED38EDDK7DFM0KVY7GXU94LY7W&workerId=AONSG5WOC3OX0&assignmentId=3F1567XTNXRHYEANF9HQX9HL4AX9QD&a=T61F9&tp_a=T61F9&b=3F1567XTNXRHYEANF9HQX9HL4AX9QD&tp_b=3F1567XTNXRHYEANF9HQX9HL4AX9QD&c=365799&tp_c=365799"},{"view_history":[{"page_index":0,"viewing_time":3294},{"page_index":1,"viewing_time":17504},{"page_index":2,"viewing_time":36216},{"page_index":3,"viewing_time":121752},{"page_index":4,"viewing_time":12289},{"page_index":5,"viewing_time":71240},{"page_index":6,"viewing_time":44256}],"rt":306551,"trial_type":"instructions","trial_index":2,"time_elapsed":383123,"internal_node_id":"0.0-2.0-0.0","params":{"nStudents":24,"maxFlips":30,"completionMinutes":45,"basePay":8,"maxBonus":9,"perTrialBonus":0.5,"perTrialBonusThreshold":0.05,"exampleCost":0.01},"classroomParams":{"A":{"a":1,"b":4},"B":{"a":4,"b":1},"C":{"a":2,"b":8},"D":{"a":8,"b":2}},"conditions":["nonSeqFull","nonSeqPartial","seqNoFeedback","seqFeedback"],"classroomPairings":[["A","B"],["C","D"]],"coinWeights":[0.2,0.5,0.8],"subjectId":"AONSG5WOC3OX0","assignmentId":"3F1567XTNXRHYEANF9HQX9HL4AX9QD","hitId":"3JGHED38EDDK7DFM0KVY7GXU94LY7W","url":"https://gershmanlab.com/experiments/alicia/teaching/experiment/?hitId=3JGHED38EDDK7DFM0KVY7GXU94LY7W&workerId=AONSG5WOC3OX0&assignmentId=3F1567XTNXRHYEANF9HQX9HL4AX9QD&a=T61F9&tp_a=T61F9&b=3F1567XTNXRHYEANF9HQX9HL4AX9QD&tp_b=3F1567XTNXRHYEANF9HQX9HL4AX9QD&c=365799&tp_c=365799"},{"rt":292335,"response":{"Q0":"Students in different classrooms will have seen a different number of heads and tails before seeing the examples you select for them.","Q1":"By <b>considering the student's classroom information</b> so that I can teach efficiently and accurately/helpfully at the same time (because each example I give to the student costs money!).","Q2":"The coin lands heads 90% of the time.","Q3":"No, I will teach a <b>new</b> student each time.","Q4":"The students are also on the same alien planet as you, where coins can be unfair.","Q5":"Based on the student's second (and final) guess."},"question_order":[1,3,4,2,0,5],"trial_type":"survey-multi-choice","trial_index":3,"time_elapsed":675460,"internal_node_id":"0.0-2.0-1.0","params":{"nStudents":24,"maxFlips":30,"completionMinutes":45,"basePay":8,"maxBonus":9,"perTrialBonus":0.5,"perTrialBonusThreshold":0.05,"exampleCost":0.01},"classroomParams":{"A":{"a":1,"b":4},"B":{"a":4,"b":1},"C":{"a":2,"b":8},"D":{"a":8,"b":2}},"conditions":["nonSeqFull","nonSeqPartial","seqNoFeedback","seqFeedback"],"classroomPairings":[["A","B"],["C","D"]],"coinWeights":[0.2,0.5,0.8],"subjectId":"AONSG5WOC3OX0","assignmentId":"3F1567XTNXRHYEANF9HQX9HL4AX9QD","hitId":"3JGHED38EDDK7DFM0KVY7GXU94LY7W","url":"https://gershmanlab.com/experiments/alicia/teaching/experiment/?hitId=3JGHED38EDDK7DFM0KVY7GXU94LY7W&workerId=AONSG5WOC3OX0&assignmentId=3F1567XTNXRHYEANF9HQX9HL4AX9QD&a=T61F9&tp_a=T61F9&b=3F1567XTNXRHYEANF9HQX9HL4AX9QD&tp_b=3F1567XTNXRHYEANF9HQX9HL4AX9QD&c=365799&tp_c=365799","pass":true},{"rt":null,"stimulus":"<div style=\"font-size:30px;\">Congrats on passing the comprehension quiz! The experiment will begin in a few seconds.</div>","response":null,"trial_type":"html-keyboard-response","trial_index":4,"time_elapsed":678468,"internal_node_id":"0.0-3.0","params":{"nStudents":24,"maxFlips":30,"completionMinutes":45,"basePay":8,"maxBonus":9,"perTrialBonus":0.5,"perTrialBonusThreshold":0.05,"exampleCost":0.01},"classroomParams":{"A":{"a":1,"b":4},"B":{"a":4,"b":1},"C":{"a":2,"b":8},"D":{"a":8,"b":2}},"conditions":["nonSeqFull","nonSeqPartial","seqNoFeedback","seqFeedback"],"classroomPairings":[["A","B"],["C","D"]],"coinWeights":[0.2,0.5,0.8],"subjectId":"AONSG5WOC3OX0","assignmentId":"3F1567XTNXRHYEANF9HQX9HL4AX9QD","hitId":"3JGHED38EDDK7DFM0KVY7GXU94LY7W","url":"https://gershmanlab.com/experiments/alicia/teaching/experiment/?hitId=3JGHED38EDDK7DFM0KVY7GXU94LY7W&workerId=AONSG5WOC3OX0&assignmentId=3F1567XTNXRHYEANF9HQX9HL4AX9QD&a=T61F9&tp_a=T61F9&b=3F1567XTNXRHYEANF9HQX9HL4AX9QD&tp_b=3F1567XTNXRHYEANF9HQX9HL4AX9QD&c=365799&tp_c=365799"},{"rt":null,"stimulus":"<div style=\"font-size:50px;\">First student</div>","response":null,"trial_type":"html-keyboard-response","trial_index":5,"time_elapsed":681470,"internal_node_id":"0.0-4.0","params":{"nStudents":24,"maxFlips":30,"completionMinutes":45,"basePay":8,"maxBonus":9,"perTrialBonus":0.5,"perTrialBonusThreshold":0.05,"exampleCost":0.01},"classroomParams":{"A":{"a":1,"b":4},"B":{"a":4,"b":1},"C":{"a":2,"b":8},"D":{"a":8,"b":2}},"conditions":["nonSeqFull","nonSeqPartial","seqNoFeedback","seqFeedback"],"classroomPairings":[["A","B"],["C","D"]],"coinWeights":[0.2,0.5,0.8],"subjectId":"AONSG5WOC3OX0","assignmentId":"3F1567XTNXRHYEANF9HQX9HL4AX9QD","hitId":"3JGHED38EDDK7DFM0KVY7GXU94LY7W","url":"https://gershmanlab.com/experiments/alicia/teaching/experiment/?hitId=3JGHED38EDDK7DFM0KVY7GXU94LY7W&workerId=AONSG5WOC3OX0&assignmentId=3F1567XTNXRHYEANF9HQX9HL4AX9QD&a=T61F9&tp_a=T61F9&b=3F1567XTNXRHYEANF9HQX9HL4AX9QD&tp_b=3F1567XTNXRHYEANF9HQX9HL4AX9QD&c=365799&tp_c=365799"},{"rt":16052,"stimulus":"\n            <h4 style=\"color:Orange;\">Student 1</h4>\n            <h2>The weight of your coin is <b style=\"color:Tomato;\">0.5</b>.</h2>\n            <p>In this block, you will be giving <b>two</b> sets of examples to Student 1.</p>\n                <p>You will see the student's guess after the first set of examples. You will also receive feedback at the end of the block.</p>\n            <p>To earn the highest bonus, you will have to <b>take into consideration the student's guess</b> when you choose your second set of examples.</p>","response":0,"trial_type":"html-button-response","trial_index":6,"time_elapsed":697523,"internal_node_id":"0.0-5.0","params":{"nStudents":24,"maxFlips":30,"completionMinutes":45,"basePay":8,"maxBonus":9,"perTrialBonus":0.5,"perTrialBonusThreshold":0.05,"exampleCost":0.01},"classroomParams":{"A":{"a":1,"b":4},"B":{"a":4,"b":1},"C":{"a":2,"b":8},"D":{"a":8,"b":2}},"conditions":["nonSeqFull","nonSeqPartial","seqNoFeedback","seqFeedback"],"classroomPairings":[["A","B"],["C","D"]],"coinWeights":[0.2,0.5,0.8],"subjectId":"AONSG5WOC3OX0","assignmentId":"3F1567XTNXRHYEANF9HQX9HL4AX9QD","hitId":"3JGHED38EDDK7DFM0KVY7GXU94LY7W","url":"https://gershmanlab.com/experiments/alicia/teaching/experiment/?hitId=3JGHED38EDDK7DFM0KVY7GXU94LY7W&workerId=AONSG5WOC3OX0&assignmentId=3F1567XTNXRHYEANF9HQX9HL4AX9QD&a=T61F9&tp_a=T61F9&b=3F1567XTNXRHYEANF9HQX9HL4AX9QD&tp_b=3F1567XTNXRHYEANF9HQX9HL4AX9QD&c=365799&tp_c=365799"},{"rt":69408,"response":{"heads":"5","tails":"5"},"type":"response","condition":"seqFeedback","trueTheta":0.5,"classrooms":["A","B"],"studentTrueClassroom":"B","exampleSet":"first","trial_type":"survey-html-form","trial_index":7,"time_elapsed":766932,"internal_node_id":"0.0-6.0-0.0","params":{"nStudents":24,"maxFlips":30,"completionMinutes":45,"basePay":8,"maxBonus":9,"perTrialBonus":0.5,"perTrialBonusThreshold":0.05,"exampleCost":0.01},"classroomParams":{"A":{"a":1,"b":4},"B":{"a":4,"b":1},"C":{"a":2,"b":8},"D":{"a":8,"b":2}},"conditions":["nonSeqFull","nonSeqPartial","seqNoFeedback","seqFeedback"],"classroomPairings":[["A","B"],["C","D"]],"coinWeights":[0.2,0.5,0.8],"subjectId":"AONSG5WOC3OX0","assignmentId":"3F1567XTNXRHYEANF9HQX9HL4AX9QD","hitId":"3JGHED38EDDK7DFM0KVY7GXU94LY7W","url":"https://gershmanlab.com/experiments/alicia/teaching/experiment/?hitId=3JGHED38EDDK7DFM0KVY7GXU94LY7W&workerId=AONSG5WOC3OX0&assignmentId=3F1567XTNXRHYEANF9HQX9HL4AX9QD&a=T61F9&tp_a=T61F9&b=3F1567XTNXRHYEANF9HQX9HL4AX9QD&tp_b=3F1567XTNXRHYEANF9HQX9HL4AX9QD&c=365799&tp_c=365799","heads":5,"tails":5,"studentIndex":0,"studentTrueHypers":{"a":4,"b":1},"studentGuess":0.6,"delta":0.09999999999999998,"totalExamples":10,"bonusSoFar":0},{"rt":null,"stimulus":"Sending examples to student... ","response":null,"trial_type":"html-keyboard-response","trial_index":8,"time_elapsed":768183,"internal_node_id":"0.0-7.0","params":{"nStudents":24,"maxFlips":30,"completionMinutes":45,"basePay":8,"maxBonus":9,"perTrialBonus":0.5,"perTrialBonusThreshold":0.05,"exampleCost":0.01},"classroomParams":{"A":{"a":1,"b":4},"B":{"a":4,"b":1},"C":{"a":2,"b":8},"D":{"a":8,"b":2}},"conditions":["nonSeqFull","nonSeqPartial","seqNoFeedback","seqFeedback"],"classroomPairings":[["A","B"],["C","D"]],"coinWeights":[0.2,0.5,0.8],"subjectId":"AONSG5WOC3OX0","assignmentId":"3F1567XTNXRHYEANF9HQX9HL4AX9QD","hitId":"3JGHED38EDDK7DFM0KVY7GXU94LY7W","url":"https://gershmanlab.com/experiments/alicia/teaching/experiment/?hitId=3JGHED38EDDK7DFM0KVY7GXU94LY7W&workerId=AONSG5WOC3OX0&assignmentId=3F1567XTNXRHYEANF9HQX9HL4AX9QD&a=T61F9&tp_a=T61F9&b=3F1567XTNXRHYEANF9HQX9HL4AX9QD&tp_b=3F1567XTNXRHYEANF9HQX9HL4AX9QD&c=365799&tp_c=365799"},{"rt":null,"stimulus":"Examples sent to student! Waiting for student...","response":null,"trial_type":"html-keyboard-response","trial_index":9,"time_elapsed":772185,"internal_node_id":"0.0-8.0","params":{"nStudents":24,"maxFlips":30,"completionMinutes":45,"basePay":8,"maxBonus":9,"perTrialBonus":0.5,"perTrialBonusThreshold":0.05,"exampleCost":0.01},"classroomParams":{"A":{"a":1,"b":4},"B":{"a":4,"b":1},"C":{"a":2,"b":8},"D":{"a":8,"b":2}},"conditions":["nonSeqFull","nonSeqPartial","seqNoFeedback","seqFeedback"],"classroomPairings":[["A","B"],["C","D"]],"coinWeights":[0.2,0.5,0.8],"subjectId":"AONSG5WOC3OX0","assignmentId":"3F1567XTNXRHYEANF9HQX9HL4AX9QD","hitId":"3JGHED38EDDK7DFM0KVY7GXU94LY7W","url":"https://gershmanlab.com/experiments/alicia/teaching/experiment/?hitId=3JGHED38EDDK7DFM0KVY7GXU94LY7W&workerId=AONSG5WOC3OX0&assignmentId=3F1567XTNXRHYEANF9HQX9HL4AX9QD&a=T61F9&tp_a=T61F9&b=3F1567XTNXRHYEANF9HQX9HL4AX9QD&tp_b=3F1567XTNXRHYEANF9HQX9HL4AX9QD&c=365799&tp_c=365799"},{"rt":9289,"stimulus":"\n                <p>Student's guess for coin weight: <b style=\"color:Tomato;\">0.60</b></p>\n                <p></b></p>\n                <p>You will now send another set of examples to your student. <b>Remember to take your student's guess into consideration so that you can earn the highest bonus possible!</b> </p>\n                <p>Press any key to continue.</p>\n                ","response":" ","trial_type":"html-keyboard-response","trial_index":10,"time_elapsed":781475,"internal_node_id":"0.0-9.0","params":{"nStudents":24,"maxFlips":30,"completionMinutes":45,"basePay":8,"maxBonus":9,"perTrialBonus":0.5,"perTrialBonusThreshold":0.05,"exampleCost":0.01},"classroomParams":{"A":{"a":1,"b":4},"B":{"a":4,"b":1},"C":{"a":2,"b":8},"D":{"a":8,"b":2}},"conditions":["nonSeqFull","nonSeqPartial","seqNoFeedback","seqFeedback"],"classroomPairings":[["A","B"],["C","D"]],"coinWeights":[0.2,0.5,0.8],"subjectId":"AONSG5WOC3OX0","assignmentId":"3F1567XTNXRHYEANF9HQX9HL4AX9QD","hitId":"3JGHED38EDDK7DFM0KVY7GXU94LY7W","url":"https://gershmanlab.com/experiments/alicia/teaching/experiment/?hitId=3JGHED38EDDK7DFM0KVY7GXU94LY7W&workerId=AONSG5WOC3OX0&assignmentId=3F1567XTNXRHYEANF9HQX9HL4AX9QD&a=T61F9&tp_a=T61F9&b=3F1567XTNXRHYEANF9HQX9HL4AX9QD&tp_b=3F1567XTNXRHYEANF9HQX9HL4AX9QD&c=365799&tp_c=365799"},{"rt":12591,"response":{"heads":"5","tails":"5"},"type":"response","condition":"seqFeedback","trueTheta":0.5,"classrooms":["A","B"],"studentTrueClassroom":"B","exampleSet":"second","trial_type":"survey-html-form","trial_index":11,"time_elapsed":794067,"internal_node_id":"0.0-10.0-0.0","params":{"nStudents":24,"maxFlips":30,"completionMinutes":45,"basePay":8,"maxBonus":9,"perTrialBonus":0.5,"perTrialBonusThreshold":0.05,"exampleCost":0.01},"classroomParams":{"A":{"a":1,"b":4},"B":{"a":4,"b":1},"C":{"a":2,"b":8},"D":{"a":8,"b":2}},"conditions":["nonSeqFull","nonSeqPartial","seqNoFeedback","seqFeedback"],"classroomPairings":[["A","B"],["C","D"]],"coinWeights":[0.2,0.5,0.8],"subjectId":"AONSG5WOC3OX0","assignmentId":"3F1567XTNXRHYEANF9HQX9HL4AX9QD","hitId":"3JGHED38EDDK7DFM0KVY7GXU94LY7W","url":"https://gershmanlab.com/experiments/alicia/teaching/experiment/?hitId=3JGHED38EDDK7DFM0KVY7GXU94LY7W&workerId=AONSG5WOC3OX0&assignmentId=3F1567XTNXRHYEANF9HQX9HL4AX9QD&a=T61F9&tp_a=T61F9&b=3F1567XTNXRHYEANF9HQX9HL4AX9QD&tp_b=3F1567XTNXRHYEANF9HQX9HL4AX9QD&c=365799&tp_c=365799","firstResponseHeads":5,"firstResponseTails":5,"secondResponseHeads":5,"secondResponseTails":5,"totalHeads":10,"totalTails":10,"studentIndex":0,"studentTrueHypers":{"a":4,"b":1},"studentGuess":0.56,"delta":0.06000000000000005,"bonus":0,"bonusSoFar":0,"totalExamples":20},{"rt":null,"stimulus":"Sending examples to student... ","response":null,"trial_type":"html-keyboard-response","trial_index":12,"time_elapsed":795819,"internal_node_id":"0.0-11.0","params":{"nStudents":24,"maxFlips":30,"completionMinutes":45,"basePay":8,"maxBonus":9,"perTrialBonus":0.5,"perTrialBonusThreshold":0.05,"exampleCost":0.01},"classroomParams":{"A":{"a":1,"b":4},"B":{"a":4,"b":1},"C":{"a":2,"b":8},"D":{"a":8,"b":2}},"conditions":["nonSeqFull","nonSeqPartial","seqNoFeedback","seqFeedback"],"classroomPairings":[["A","B"],["C","D"]],"coinWeights":[0.2,0.5,0.8],"subjectId":"AONSG5WOC3OX0","assignmentId":"3F1567XTNXRHYEANF9HQX9HL4AX9QD","hitId":"3JGHED38EDDK7DFM0KVY7GXU94LY7W","url":"https://gershmanlab.com/experiments/alicia/teaching/experiment/?hitId=3JGHED38EDDK7DFM0KVY7GXU94LY7W&workerId=AONSG5WOC3OX0&assignmentId=3F1567XTNXRHYEANF9HQX9HL4AX9QD&a=T61F9&tp_a=T61F9&b=3F1567XTNXRHYEANF9HQX9HL4AX9QD&tp_b=3F1567XTNXRHYEANF9HQX9HL4AX9QD&c=365799&tp_c=365799"},{"rt":null,"stimulus":"Examples sent to student! Waiting for student...","response":null,"trial_type":"html-keyboard-response","trial_index":13,"time_elapsed":800321,"internal_node_id":"0.0-12.0","params":{"nStudents":24,"maxFlips":30,"completionMinutes":45,"basePay":8,"maxBonus":9,"perTrialBonus":0.5,"perTrialBonusThreshold":0.05,"exampleCost":0.01},"classroomParams":{"A":{"a":1,"b":4},"B":{"a":4,"b":1},"C":{"a":2,"b":8},"D":{"a":8,"b":2}},"conditions":["nonSeqFull","nonSeqPartial","seqNoFeedback","seqFeedback"],"classroomPairings":[["A","B"],["C","D"]],"coinWeights":[0.2,0.5,0.8],"subjectId":"AONSG5WOC3OX0","assignmentId":"3F1567XTNXRHYEANF9HQX9HL4AX9QD","hitId":"3JGHED38EDDK7DFM0KVY7GXU94LY7W","url":"https://gershmanlab.com/experiments/alicia/teaching/experiment/?hitId=3JGHED38EDDK7DFM0KVY7GXU94LY7W&workerId=AONSG5WOC3OX0&assignmentId=3F1567XTNXRHYEANF9HQX9HL4AX9QD&a=T61F9&tp_a=T61F9&b=3F1567XTNXRHYEANF9HQX9HL4AX9QD&tp_b=3F1567XTNXRHYEANF9HQX9HL4AX9QD&c=365799&tp_c=365799"},{"rt":10496,"stimulus":"\n                <p>Student 1's first guess for coin weight: <b style=\"color:Tomato\";>0.60</b></p>\n                <p>Student 1's second guess for coin weight: <b style=\"color:Tomato\";>0.56</b></p>\n                <p>You received a bonus of <b>$0.00</b> based on the student's second guess.</p>\n                <p>Total bonus so far: <b>$0.00</b></p>\n                <p>Press any key to continue.</p>\n                ","response":"enter","trial_type":"html-keyboard-response","trial_index":14,"time_elapsed":810819,"internal_node_id":"0.0-13.0","params":{"nStudents":24,"maxFlips":30,"completionMinutes":45,"basePay":8,"maxBonus":9,"perTrialBonus":0.5,"perTrialBonusThreshold":0.05,"exampleCost":0.01},"classroomParams":{"A":{"a":1,"b":4},"B":{"a":4,"b":1},"C":{"a":2,"b":8},"D":{"a":8,"b":2}},"conditions":["nonSeqFull","nonSeqPartial","seqNoFeedback","seqFeedback"],"classroomPairings":[["A","B"],["C","D"]],"coinWeights":[0.2,0.5,0.8],"subjectId":"AONSG5WOC3OX0","assignmentId":"3F1567XTNXRHYEANF9HQX9HL4AX9QD","hitId":"3JGHED38EDDK7DFM0KVY7GXU94LY7W","url":"https://gershmanlab.com/experiments/alicia/teaching/experiment/?hitId=3JGHED38EDDK7DFM0KVY7GXU94LY7W&workerId=AONSG5WOC3OX0&assignmentId=3F1567XTNXRHYEANF9HQX9HL4AX9QD&a=T61F9&tp_a=T61F9&b=3F1567XTNXRHYEANF9HQX9HL4AX9QD&tp_b=3F1567XTNXRHYEANF9HQX9HL4AX9QD&c=365799&tp_c=365799"},{"rt":null,"stimulus":"<div style=\"font-size:60px;\">Next student</div>","response":null,"trial_type":"html-keyboard-response","trial_index":15,"time_elapsed":813071,"internal_node_id":"0.0-14.0-0.0","params":{"nStudents":24,"maxFlips":30,"completionMinutes":45,"basePay":8,"maxBonus":9,"perTrialBonus":0.5,"perTrialBonusThreshold":0.05,"exampleCost":0.01},"classroomParams":{"A":{"a":1,"b":4},"B":{"a":4,"b":1},"C":{"a":2,"b":8},"D":{"a":8,"b":2}},"conditions":["nonSeqFull","nonSeqPartial","seqNoFeedback","seqFeedback"],"classroomPairings":[["A","B"],["C","D"]],"coinWeights":[0.2,0.5,0.8],"subjectId":"AONSG5WOC3OX0","assignmentId":"3F1567XTNXRHYEANF9HQX9HL4AX9QD","hitId":"3JGHED38EDDK7DFM0KVY7GXU94LY7W","url":"https://gershmanlab.com/experiments/alicia/teaching/experiment/?hitId=3JGHED38EDDK7DFM0KVY7GXU94LY7W&workerId=AONSG5WOC3OX0&assignmentId=3F1567XTNXRHYEANF9HQX9HL4AX9QD&a=T61F9&tp_a=T61F9&b=3F1567XTNXRHYEANF9HQX9HL4AX9QD&tp_b=3F1567XTNXRHYEANF9HQX9HL4AX9QD&c=365799&tp_c=365799"},{"rt":3402,"stimulus":"\n            <h4 style=\"color:Orange;\">Student 2</h4>\n            <h2>The weight of your coin is <b style=\"color:Tomato;\">0.2</b>.</h2>\n            <p>In this block, you will be giving <b>two</b> sets of examples to Student 2.</p>\n                <p>You will see the student's guess after the first set of examples. You will also receive feedback at the end of the block.</p>\n            <p>To earn the highest bonus, you will have to <b>take into consideration the student's guess</b> when you choose your second set of examples.</p>","response":0,"trial_type":"html-button-response","trial_index":16,"time_elapsed":816475,"internal_node_id":"0.0-15.0","params":{"nStudents":24,"maxFlips":30,"completionMinutes":45,"basePay":8,"maxBonus":9,"perTrialBonus":0.5,"perTrialBonusThreshold":0.05,"exampleCost":0.01},"classroomParams":{"A":{"a":1,"b":4},"B":{"a":4,"b":1},"C":{"a":2,"b":8},"D":{"a":8,"b":2}},"conditions":["nonSeqFull","nonSeqPartial","seqNoFeedback","seqFeedback"],"classroomPairings":[["A","B"],["C","D"]],"coinWeights":[0.2,0.5,0.8],"subjectId":"AONSG5WOC3OX0","assignmentId":"3F1567XTNXRHYEANF9HQX9HL4AX9QD","hitId":"3JGHED38EDDK7DFM0KVY7GXU94LY7W","url":"https://gershmanlab.com/experiments/alicia/teaching/experiment/?hitId=3JGHED38EDDK7DFM0KVY7GXU94LY7W&workerId=AONSG5WOC3OX0&assignmentId=3F1567XTNXRHYEANF9HQX9HL4AX9QD&a=T61F9&tp_a=T61F9&b=3F1567XTNXRHYEANF9HQX9HL4AX9QD&tp_b=3F1567XTNXRHYEANF9HQX9HL4AX9QD&c=365799&tp_c=365799"},{"rt":19415,"response":{"heads":"1","tails":"5"},"type":"response","condition":"seqFeedback","trueTheta":0.2,"classrooms":["C","D"],"studentTrueClassroom":"D","exampleSet":"first","trial_type":"survey-html-form","trial_index":17,"time_elapsed":835891,"internal_node_id":"0.0-16.0-0.0","params":{"nStudents":24,"maxFlips":30,"completionMinutes":45,"basePay":8,"maxBonus":9,"perTrialBonus":0.5,"perTrialBonusThreshold":0.05,"exampleCost":0.01},"classroomParams":{"A":{"a":1,"b":4},"B":{"a":4,"b":1},"C":{"a":2,"b":8},"D":{"a":8,"b":2}},"conditions":["nonSeqFull","nonSeqPartial","seqNoFeedback","seqFeedback"],"classroomPairings":[["A","B"],["C","D"]],"coinWeights":[0.2,0.5,0.8],"subjectId":"AONSG5WOC3OX0","assignmentId":"3F1567XTNXRHYEANF9HQX9HL4AX9QD","hitId":"3JGHED38EDDK7DFM0KVY7GXU94LY7W","url":"https://gershmanlab.com/experiments/alicia/teaching/experiment/?hitId=3JGHED38EDDK7DFM0KVY7GXU94LY7W&workerId=AONSG5WOC3OX0&assignmentId=3F1567XTNXRHYEANF9HQX9HL4AX9QD&a=T61F9&tp_a=T61F9&b=3F1567XTNXRHYEANF9HQX9HL4AX9QD&tp_b=3F1567XTNXRHYEANF9HQX9HL4AX9QD&c=365799&tp_c=365799","heads":1,"tails":5,"studentIndex":1,"studentTrueHypers":{"a":8,"b":2},"studentGuess":0.5625,"delta":0.3625,"totalExamples":6,"bonusSoFar":0},{"rt":null,"stimulus":"Sending examples to student... ","response":null,"trial_type":"html-keyboard-response","trial_index":18,"time_elapsed":837144,"internal_node_id":"0.0-17.0","params":{"nStudents":24,"maxFlips":30,"completionMinutes":45,"basePay":8,"maxBonus":9,"perTrialBonus":0.5,"perTrialBonusThreshold":0.05,"exampleCost":0.01},"classroomParams":{"A":{"a":1,"b":4},"B":{"a":4,"b":1},"C":{"a":2,"b":8},"D":{"a":8,"b":2}},"conditions":["nonSeqFull","nonSeqPartial","seqNoFeedback","seqFeedback"],"classroomPairings":[["A","B"],["C","D"]],"coinWeights":[0.2,0.5,0.8],"subjectId":"AONSG5WOC3OX0","assignmentId":"3F1567XTNXRHYEANF9HQX9HL4AX9QD","hitId":"3JGHED38EDDK7DFM0KVY7GXU94LY7W","url":"https://gershmanlab.com/experiments/alicia/teaching/experiment/?hitId=3JGHED38EDDK7DFM0KVY7GXU94LY7W&workerId=AONSG5WOC3OX0&assignmentId=3F1567XTNXRHYEANF9HQX9HL4AX9QD&a=T61F9&tp_a=T61F9&b=3F1567XTNXRHYEANF9HQX9HL4AX9QD&tp_b=3F1567XTNXRHYEANF9HQX9HL4AX9QD&c=365799&tp_c=365799"},{"rt":null,"stimulus":"Examples sent to student! Waiting for student...","response":null,"trial_type":"html-keyboard-response","trial_index":19,"time_elapsed":842145,"internal_node_id":"0.0-18.0","params":{"nStudents":24,"maxFlips":30,"completionMinutes":45,"basePay":8,"maxBonus":9,"perTrialBonus":0.5,"perTrialBonusThreshold":0.05,"exampleCost":0.01},"classroomParams":{"A":{"a":1,"b":4},"B":{"a":4,"b":1},"C":{"a":2,"b":8},"D":{"a":8,"b":2}},"conditions":["nonSeqFull","nonSeqPartial","seqNoFeedback","seqFeedback"],"classroomPairings":[["A","B"],["C","D"]],"coinWeights":[0.2,0.5,0.8],"subjectId":"AONSG5WOC3OX0","assignmentId":"3F1567XTNXRHYEANF9HQX9HL4AX9QD","hitId":"3JGHED38EDDK7DFM0KVY7GXU94LY7W","url":"https://gershmanlab.com/experiments/alicia/teaching/experiment/?hitId=3JGHED38EDDK7DFM0KVY7GXU94LY7W&workerId=AONSG5WOC3OX0&assignmentId=3F1567XTNXRHYEANF9HQX9HL4AX9QD&a=T61F9&tp_a=T61F9&b=3F1567XTNXRHYEANF9HQX9HL4AX9QD&tp_b=3F1567XTNXRHYEANF9HQX9HL4AX9QD&c=365799&tp_c=365799"},{"rt":3761,"stimulus":"\n                <p>Student's guess for coin weight: <b style=\"color:Tomato;\">0.56</b></p>\n                <p></b></p>\n                <p>You will now send another set of examples to your student. <b>Remember to take your student's guess into consideration so that you can earn the highest bonus possible!</b> </p>\n                <p>Press any key to continue.</p>\n                ","response":"enter","trial_type":"html-keyboard-response","trial_index":20,"time_elapsed":845907,"internal_node_id":"0.0-19.0","params":{"nStudents":24,"maxFlips":30,"completionMinutes":45,"basePay":8,"maxBonus":9,"perTrialBonus":0.5,"perTrialBonusThreshold":0.05,"exampleCost":0.01},"classroomParams":{"A":{"a":1,"b":4},"B":{"a":4,"b":1},"C":{"a":2,"b":8},"D":{"a":8,"b":2}},"conditions":["nonSeqFull","nonSeqPartial","seqNoFeedback","seqFeedback"],"classroomPairings":[["A","B"],["C","D"]],"coinWeights":[0.2,0.5,0.8],"subjectId":"AONSG5WOC3OX0","assignmentId":"3F1567XTNXRHYEANF9HQX9HL4AX9QD","hitId":"3JGHED38EDDK7DFM0KVY7GXU94LY7W","url":"https://gershmanlab.com/experiments/alicia/teaching/experiment/?hitId=3JGHED38EDDK7DFM0KVY7GXU94LY7W&workerId=AONSG5WOC3OX0&assignmentId=3F1567XTNXRHYEANF9HQX9HL4AX9QD&a=T61F9&tp_a=T61F9&b=3F1567XTNXRHYEANF9HQX9HL4AX9QD&tp_b=3F1567XTNXRHYEANF9HQX9HL4AX9QD&c=365799&tp_c=365799"},{"rt":10423,"response":{"heads":"1","tails":"10"},"type":"response","condition":"seqFeedback","trueTheta":0.2,"classrooms":["C","D"],"studentTrueClassroom":"D","exampleSet":"second","trial_type":"survey-html-form","trial_index":21,"time_elapsed":856331,"internal_node_id":"0.0-20.0-0.0","params":{"nStudents":24,"maxFlips":30,"completionMinutes":45,"basePay":8,"maxBonus":9,"perTrialBonus":0.5,"perTrialBonusThreshold":0.05,"exampleCost":0.01},"classroomParams":{"A":{"a":1,"b":4},"B":{"a":4,"b":1},"C":{"a":2,"b":8},"D":{"a":8,"b":2}},"conditions":["nonSeqFull","nonSeqPartial","seqNoFeedback","seqFeedback"],"classroomPairings":[["A","B"],["C","D"]],"coinWeights":[0.2,0.5,0.8],"subjectId":"AONSG5WOC3OX0","assignmentId":"3F1567XTNXRHYEANF9HQX9HL4AX9QD","hitId":"3JGHED38EDDK7DFM0KVY7GXU94LY7W","url":"https://gershmanlab.com/experiments/alicia/teaching/experiment/?hitId=3JGHED38EDDK7DFM0KVY7GXU94LY7W&workerId=AONSG5WOC3OX0&assignmentId=3F1567XTNXRHYEANF9HQX9HL4AX9QD&a=T61F9&tp_a=T61F9&b=3F1567XTNXRHYEANF9HQX9HL4AX9QD&tp_b=3F1567XTNXRHYEANF9HQX9HL4AX9QD&c=365799&tp_c=365799","firstResponseHeads":1,"firstResponseTails":5,"secondResponseHeads":1,"secondResponseTails":10,"totalHeads":2,"totalTails":15,"studentIndex":1,"studentTrueHypers":{"a":8,"b":2},"studentGuess":0.37037037037037035,"delta":0.17037037037037034,"bonus":0,"bonusSoFar":0,"totalExamples":17},{"rt":null,"stimulus":"Sending examples to student... ","response":null,"trial_type":"html-keyboard-response","trial_index":22,"time_elapsed":857833,"internal_node_id":"0.0-21.0","params":{"nStudents":24,"maxFlips":30,"completionMinutes":45,"basePay":8,"maxBonus":9,"perTrialBonus":0.5,"perTrialBonusThreshold":0.05,"exampleCost":0.01},"classroomParams":{"A":{"a":1,"b":4},"B":{"a":4,"b":1},"C":{"a":2,"b":8},"D":{"a":8,"b":2}},"conditions":["nonSeqFull","nonSeqPartial","seqNoFeedback","seqFeedback"],"classroomPairings":[["A","B"],["C","D"]],"coinWeights":[0.2,0.5,0.8],"subjectId":"AONSG5WOC3OX0","assignmentId":"3F1567XTNXRHYEANF9HQX9HL4AX9QD","hitId":"3JGHED38EDDK7DFM0KVY7GXU94LY7W","url":"https://gershmanlab.com/experiments/alicia/teaching/experiment/?hitId=3JGHED38EDDK7DFM0KVY7GXU94LY7W&workerId=AONSG5WOC3OX0&assignmentId=3F1567XTNXRHYEANF9HQX9HL4AX9QD&a=T61F9&tp_a=T61F9&b=3F1567XTNXRHYEANF9HQX9HL4AX9QD&tp_b=3F1567XTNXRHYEANF9HQX9HL4AX9QD&c=365799&tp_c=365799"},{"rt":null,"stimulus":"Examples sent to student! Waiting for student...","response":null,"trial_type":"html-keyboard-response","trial_index":23,"time_elapsed":861834,"internal_node_id":"0.0-22.0","params":{"nStudents":24,"maxFlips":30,"completionMinutes":45,"basePay":8,"maxBonus":9,"perTrialBonus":0.5,"perTrialBonusThreshold":0.05,"exampleCost":0.01},"classroomParams":{"A":{"a":1,"b":4},"B":{"a":4,"b":1},"C":{"a":2,"b":8},"D":{"a":8,"b":2}},"conditions":["nonSeqFull","nonSeqPartial","seqNoFeedback","seqFeedback"],"classroomPairings":[["A","B"],["C","D"]],"coinWeights":[0.2,0.5,0.8],"subjectId":"AONSG5WOC3OX0","assignmentId":"3F1567XTNXRHYEANF9HQX9HL4AX9QD","hitId":"3JGHED38EDDK7DFM0KVY7GXU94LY7W","url":"https://gershmanlab.com/experiments/alicia/teaching/experiment/?hitId=3JGHED38EDDK7DFM0KVY7GXU94LY7W&workerId=AONSG5WOC3OX0&assignmentId=3F1567XTNXRHYEANF9HQX9HL4AX9QD&a=T61F9&tp_a=T61F9&b=3F1567XTNXRHYEANF9HQX9HL4AX9QD&tp_b=3F1567XTNXRHYEANF9HQX9HL4AX9QD&c=365799&tp_c=365799"},{"rt":3271,"stimulus":"\n                <p>Student 2's first guess for coin weight: <b style=\"color:Tomato\";>0.56</b></p>\n                <p>Student 2's second guess for coin weight: <b style=\"color:Tomato\";>0.37</b></p>\n                <p>You received a bonus of <b>$0.00</b> based on the student's second guess.</p>\n                <p>Total bonus so far: <b>$0.00</b></p>\n                <p>Press any key to continue.</p>\n                ","response":"enter","trial_type":"html-keyboard-response","trial_index":24,"time_elapsed":865107,"internal_node_id":"0.0-23.0","params":{"nStudents":24,"maxFlips":30,"completionMinutes":45,"basePay":8,"maxBonus":9,"perTrialBonus":0.5,"perTrialBonusThreshold":0.05,"exampleCost":0.01},"classroomParams":{"A":{"a":1,"b":4},"B":{"a":4,"b":1},"C":{"a":2,"b":8},"D":{"a":8,"b":2}},"conditions":["nonSeqFull","nonSeqPartial","seqNoFeedback","seqFeedback"],"classroomPairings":[["A","B"],["C","D"]],"coinWeights":[0.2,0.5,0.8],"subjectId":"AONSG5WOC3OX0","assignmentId":"3F1567XTNXRHYEANF9HQX9HL4AX9QD","hitId":"3JGHED38EDDK7DFM0KVY7GXU94LY7W","url":"https://gershmanlab.com/experiments/alicia/teaching/experiment/?hitId=3JGHED38EDDK7DFM0KVY7GXU94LY7W&workerId=AONSG5WOC3OX0&assignmentId=3F1567XTNXRHYEANF9HQX9HL4AX9QD&a=T61F9&tp_a=T61F9&b=3F1567XTNXRHYEANF9HQX9HL4AX9QD&tp_b=3F1567XTNXRHYEANF9HQX9HL4AX9QD&c=365799&tp_c=365799"},{"rt":null,"stimulus":"<div style=\"font-size:60px;\">Next student</div>","response":null,"trial_type":"html-keyboard-response","trial_index":25,"time_elapsed":867608,"internal_node_id":"0.0-24.0-0.0","params":{"nStudents":24,"maxFlips":30,"completionMinutes":45,"basePay":8,"maxBonus":9,"perTrialBonus":0.5,"perTrialBonusThreshold":0.05,"exampleCost":0.01},"classroomParams":{"A":{"a":1,"b":4},"B":{"a":4,"b":1},"C":{"a":2,"b":8},"D":{"a":8,"b":2}},"conditions":["nonSeqFull","nonSeqPartial","seqNoFeedback","seqFeedback"],"classroomPairings":[["A","B"],["C","D"]],"coinWeights":[0.2,0.5,0.8],"subjectId":"AONSG5WOC3OX0","assignmentId":"3F1567XTNXRHYEANF9HQX9HL4AX9QD","hitId":"3JGHED38EDDK7DFM0KVY7GXU94LY7W","url":"https://gershmanlab.com/experiments/alicia/teaching/experiment/?hitId=3JGHED38EDDK7DFM0KVY7GXU94LY7W&workerId=AONSG5WOC3OX0&assignmentId=3F1567XTNXRHYEANF9HQX9HL4AX9QD&a=T61F9&tp_a=T61F9&b=3F1567XTNXRHYEANF9HQX9HL4AX9QD&tp_b=3F1567XTNXRHYEANF9HQX9HL4AX9QD&c=365799&tp_c=365799"},{"rt":3250,"stimulus":"\n            <h4 style=\"color:Orange;\">Student 3</h4>\n            <h2>The weight of your coin is <b style=\"color:Tomato;\">0.2</b>.</h2>\n            <p>In this block, you will be giving <b>one</b> set of examples to Student 3.</p>\n                <p>You will receive feedback at the end of the block.</p>\n            <p></p>","response":0,"trial_type":"html-button-response","trial_index":26,"time_elapsed":870859,"internal_node_id":"0.0-25.0","params":{"nStudents":24,"maxFlips":30,"completionMinutes":45,"basePay":8,"maxBonus":9,"perTrialBonus":0.5,"perTrialBonusThreshold":0.05,"exampleCost":0.01},"classroomParams":{"A":{"a":1,"b":4},"B":{"a":4,"b":1},"C":{"a":2,"b":8},"D":{"a":8,"b":2}},"conditions":["nonSeqFull","nonSeqPartial","seqNoFeedback","seqFeedback"],"classroomPairings":[["A","B"],["C","D"]],"coinWeights":[0.2,0.5,0.8],"subjectId":"AONSG5WOC3OX0","assignmentId":"3F1567XTNXRHYEANF9HQX9HL4AX9QD","hitId":"3JGHED38EDDK7DFM0KVY7GXU94LY7W","url":"https://gershmanlab.com/experiments/alicia/teaching/experiment/?hitId=3JGHED38EDDK7DFM0KVY7GXU94LY7W&workerId=AONSG5WOC3OX0&assignmentId=3F1567XTNXRHYEANF9HQX9HL4AX9QD&a=T61F9&tp_a=T61F9&b=3F1567XTNXRHYEANF9HQX9HL4AX9QD&tp_b=3F1567XTNXRHYEANF9HQX9HL4AX9QD&c=365799&tp_c=365799"},{"rt":15071,"response":{"heads":"1","tails":"4"},"type":"response","condition":"nonSeqPartial","trueTheta":0.2,"classrooms":["A","B"],"studentTrueClassroom":"B","exampleSet":"first","trial_type":"survey-html-form","trial_index":27,"time_elapsed":885931,"internal_node_id":"0.0-26.0-0.0","params":{"nStudents":24,"maxFlips":30,"completionMinutes":45,"basePay":8,"maxBonus":9,"perTrialBonus":0.5,"perTrialBonusThreshold":0.05,"exampleCost":0.01},"classroomParams":{"A":{"a":1,"b":4},"B":{"a":4,"b":1},"C":{"a":2,"b":8},"D":{"a":8,"b":2}},"conditions":["nonSeqFull","nonSeqPartial","seqNoFeedback","seqFeedback"],"classroomPairings":[["A","B"],["C","D"]],"coinWeights":[0.2,0.5,0.8],"subjectId":"AONSG5WOC3OX0","assignmentId":"3F1567XTNXRHYEANF9HQX9HL4AX9QD","hitId":"3JGHED38EDDK7DFM0KVY7GXU94LY7W","url":"https://gershmanlab.com/experiments/alicia/teaching/experiment/?hitId=3JGHED38EDDK7DFM0KVY7GXU94LY7W&workerId=AONSG5WOC3OX0&assignmentId=3F1567XTNXRHYEANF9HQX9HL4AX9QD&a=T61F9&tp_a=T61F9&b=3F1567XTNXRHYEANF9HQX9HL4AX9QD&tp_b=3F1567XTNXRHYEANF9HQX9HL4AX9QD&c=365799&tp_c=365799","heads":1,"tails":4,"studentIndex":2,"studentTrueHypers":{"a":4,"b":1},"studentGuess":0.5,"delta":0.3,"totalExamples":5,"bonus":0,"bonusSoFar":0},{"rt":null,"stimulus":"Sending examples to student... ","response":null,"trial_type":"html-keyboard-response","trial_index":28,"time_elapsed":887183,"internal_node_id":"0.0-27.0","params":{"nStudents":24,"maxFlips":30,"completionMinutes":45,"basePay":8,"maxBonus":9,"perTrialBonus":0.5,"perTrialBonusThreshold":0.05,"exampleCost":0.01},"classroomParams":{"A":{"a":1,"b":4},"B":{"a":4,"b":1},"C":{"a":2,"b":8},"D":{"a":8,"b":2}},"conditions":["nonSeqFull","nonSeqPartial","seqNoFeedback","seqFeedback"],"classroomPairings":[["A","B"],["C","D"]],"coinWeights":[0.2,0.5,0.8],"subjectId":"AONSG5WOC3OX0","assignmentId":"3F1567XTNXRHYEANF9HQX9HL4AX9QD","hitId":"3JGHED38EDDK7DFM0KVY7GXU94LY7W","url":"https://gershmanlab.com/experiments/alicia/teaching/experiment/?hitId=3JGHED38EDDK7DFM0KVY7GXU94LY7W&workerId=AONSG5WOC3OX0&assignmentId=3F1567XTNXRHYEANF9HQX9HL4AX9QD&a=T61F9&tp_a=T61F9&b=3F1567XTNXRHYEANF9HQX9HL4AX9QD&tp_b=3F1567XTNXRHYEANF9HQX9HL4AX9QD&c=365799&tp_c=365799"},{"rt":null,"stimulus":"Examples sent to student! Waiting for student...","response":null,"trial_type":"html-keyboard-response","trial_index":29,"time_elapsed":892684,"internal_node_id":"0.0-28.0","params":{"nStudents":24,"maxFlips":30,"completionMinutes":45,"basePay":8,"maxBonus":9,"perTrialBonus":0.5,"perTrialBonusThreshold":0.05,"exampleCost":0.01},"classroomParams":{"A":{"a":1,"b":4},"B":{"a":4,"b":1},"C":{"a":2,"b":8},"D":{"a":8,"b":2}},"conditions":["nonSeqFull","nonSeqPartial","seqNoFeedback","seqFeedback"],"classroomPairings":[["A","B"],["C","D"]],"coinWeights":[0.2,0.5,0.8],"subjectId":"AONSG5WOC3OX0","assignmentId":"3F1567XTNXRHYEANF9HQX9HL4AX9QD","hitId":"3JGHED38EDDK7DFM0KVY7GXU94LY7W","url":"https://gershmanlab.com/experiments/alicia/teaching/experiment/?hitId=3JGHED38EDDK7DFM0KVY7GXU94LY7W&workerId=AONSG5WOC3OX0&assignmentId=3F1567XTNXRHYEANF9HQX9HL4AX9QD&a=T61F9&tp_a=T61F9&b=3F1567XTNXRHYEANF9HQX9HL4AX9QD&tp_b=3F1567XTNXRHYEANF9HQX9HL4AX9QD&c=365799&tp_c=365799"},{"rt":2757,"stimulus":"\n                <p>Student's guess for coin weight: <b style=\"color:Tomato;\">0.50</b></p>\n                <p>You received a bonus of <b>$0</b>. Total bonus so far: <b>$0.00</b></b></p>\n                <p></p>\n                <p>Press any key to continue.</p>\n                ","response":"enter","trial_type":"html-keyboard-response","trial_index":30,"time_elapsed":895442,"internal_node_id":"0.0-29.0","params":{"nStudents":24,"maxFlips":30,"completionMinutes":45,"basePay":8,"maxBonus":9,"perTrialBonus":0.5,"perTrialBonusThreshold":0.05,"exampleCost":0.01},"classroomParams":{"A":{"a":1,"b":4},"B":{"a":4,"b":1},"C":{"a":2,"b":8},"D":{"a":8,"b":2}},"conditions":["nonSeqFull","nonSeqPartial","seqNoFeedback","seqFeedback"],"classroomPairings":[["A","B"],["C","D"]],"coinWeights":[0.2,0.5,0.8],"subjectId":"AONSG5WOC3OX0","assignmentId":"3F1567XTNXRHYEANF9HQX9HL4AX9QD","hitId":"3JGHED38EDDK7DFM0KVY7GXU94LY7W","url":"https://gershmanlab.com/experiments/alicia/teaching/experiment/?hitId=3JGHED38EDDK7DFM0KVY7GXU94LY7W&workerId=AONSG5WOC3OX0&assignmentId=3F1567XTNXRHYEANF9HQX9HL4AX9QD&a=T61F9&tp_a=T61F9&b=3F1567XTNXRHYEANF9HQX9HL4AX9QD&tp_b=3F1567XTNXRHYEANF9HQX9HL4AX9QD&c=365799&tp_c=365799"},{"rt":null,"stimulus":"<div style=\"font-size:60px;\">Next student</div>","response":null,"trial_type":"html-keyboard-response","trial_index":31,"time_elapsed":897694,"internal_node_id":"0.0-30.0-0.0","params":{"nStudents":24,"maxFlips":30,"completionMinutes":45,"basePay":8,"maxBonus":9,"perTrialBonus":0.5,"perTrialBonusThreshold":0.05,"exampleCost":0.01},"classroomParams":{"A":{"a":1,"b":4},"B":{"a":4,"b":1},"C":{"a":2,"b":8},"D":{"a":8,"b":2}},"conditions":["nonSeqFull","nonSeqPartial","seqNoFeedback","seqFeedback"],"classroomPairings":[["A","B"],["C","D"]],"coinWeights":[0.2,0.5,0.8],"subjectId":"AONSG5WOC3OX0","assignmentId":"3F1567XTNXRHYEANF9HQX9HL4AX9QD","hitId":"3JGHED38EDDK7DFM0KVY7GXU94LY7W","url":"https://gershmanlab.com/experiments/alicia/teaching/experiment/?hitId=3JGHED38EDDK7DFM0KVY7GXU94LY7W&workerId=AONSG5WOC3OX0&assignmentId=3F1567XTNXRHYEANF9HQX9HL4AX9QD&a=T61F9&tp_a=T61F9&b=3F1567XTNXRHYEANF9HQX9HL4AX9QD&tp_b=3F1567XTNXRHYEANF9HQX9HL4AX9QD&c=365799&tp_c=365799"},{"rt":2124,"stimulus":"\n            <h4 style=\"color:Orange;\">Student 4</h4>\n            <h2>The weight of your coin is <b style=\"color:Tomato;\">0.8</b>.</h2>\n            <p>In this block, you will be giving <b>two</b> sets of examples to Student 4.</p>\n                <p>You will receive feedback at the end of the block.</p>\n            <p></p>","response":0,"trial_type":"html-button-response","trial_index":32,"time_elapsed":899818,"internal_node_id":"0.0-31.0","params":{"nStudents":24,"maxFlips":30,"completionMinutes":45,"basePay":8,"maxBonus":9,"perTrialBonus":0.5,"perTrialBonusThreshold":0.05,"exampleCost":0.01},"classroomParams":{"A":{"a":1,"b":4},"B":{"a":4,"b":1},"C":{"a":2,"b":8},"D":{"a":8,"b":2}},"conditions":["nonSeqFull","nonSeqPartial","seqNoFeedback","seqFeedback"],"classroomPairings":[["A","B"],["C","D"]],"coinWeights":[0.2,0.5,0.8],"subjectId":"AONSG5WOC3OX0","assignmentId":"3F1567XTNXRHYEANF9HQX9HL4AX9QD","hitId":"3JGHED38EDDK7DFM0KVY7GXU94LY7W","url":"https://gershmanlab.com/experiments/alicia/teaching/experiment/?hitId=3JGHED38EDDK7DFM0KVY7GXU94LY7W&workerId=AONSG5WOC3OX0&assignmentId=3F1567XTNXRHYEANF9HQX9HL4AX9QD&a=T61F9&tp_a=T61F9&b=3F1567XTNXRHYEANF9HQX9HL4AX9QD&tp_b=3F1567XTNXRHYEANF9HQX9HL4AX9QD&c=365799&tp_c=365799"},{"rt":18839,"response":{"heads":"20","tails":"3"},"type":"response","condition":"seqNoFeedback","trueTheta":0.8,"classrooms":["C","D"],"studentTrueClassroom":"C","exampleSet":"first","trial_type":"survey-html-form","trial_index":33,"time_elapsed":918659,"internal_node_id":"0.0-32.0-0.0","params":{"nStudents":24,"maxFlips":30,"completionMinutes":45,"basePay":8,"maxBonus":9,"perTrialBonus":0.5,"perTrialBonusThreshold":0.05,"exampleCost":0.01},"classroomParams":{"A":{"a":1,"b":4},"B":{"a":4,"b":1},"C":{"a":2,"b":8},"D":{"a":8,"b":2}},"conditions":["nonSeqFull","nonSeqPartial","seqNoFeedback","seqFeedback"],"classroomPairings":[["A","B"],["C","D"]],"coinWeights":[0.2,0.5,0.8],"subjectId":"AONSG5WOC3OX0","assignmentId":"3F1567XTNXRHYEANF9HQX9HL4AX9QD","hitId":"3JGHED38EDDK7DFM0KVY7GXU94LY7W","url":"https://gershmanlab.com/experiments/alicia/teaching/experiment/?hitId=3JGHED38EDDK7DFM0KVY7GXU94LY7W&workerId=AONSG5WOC3OX0&assignmentId=3F1567XTNXRHYEANF9HQX9HL4AX9QD&a=T61F9&tp_a=T61F9&b=3F1567XTNXRHYEANF9HQX9HL4AX9QD&tp_b=3F1567XTNXRHYEANF9HQX9HL4AX9QD&c=365799&tp_c=365799","heads":20,"tails":3,"studentIndex":3,"studentTrueHypers":{"a":2,"b":8},"studentGuess":0.6666666666666666,"delta":0.13333333333333341,"totalExamples":23,"bonusSoFar":0},{"rt":null,"stimulus":"Sending examples to student... ","response":null,"trial_type":"html-keyboard-response","trial_index":34,"time_elapsed":919910,"internal_node_id":"0.0-33.0","params":{"nStudents":24,"maxFlips":30,"completionMinutes":45,"basePay":8,"maxBonus":9,"perTrialBonus":0.5,"perTrialBonusThreshold":0.05,"exampleCost":0.01},"classroomParams":{"A":{"a":1,"b":4},"B":{"a":4,"b":1},"C":{"a":2,"b":8},"D":{"a":8,"b":2}},"conditions":["nonSeqFull","nonSeqPartial","seqNoFeedback","seqFeedback"],"classroomPairings":[["A","B"],["C","D"]],"coinWeights":[0.2,0.5,0.8],"subjectId":"AONSG5WOC3OX0","assignmentId":"3F1567XTNXRHYEANF9HQX9HL4AX9QD","hitId":"3JGHED38EDDK7DFM0KVY7GXU94LY7W","url":"https://gershmanlab.com/experiments/alicia/teaching/experiment/?hitId=3JGHED38EDDK7DFM0KVY7GXU94LY7W&workerId=AONSG5WOC3OX0&assignmentId=3F1567XTNXRHYEANF9HQX9HL4AX9QD&a=T61F9&tp_a=T61F9&b=3F1567XTNXRHYEANF9HQX9HL4AX9QD&tp_b=3F1567XTNXRHYEANF9HQX9HL4AX9QD&c=365799&tp_c=365799"},{"rt":null,"stimulus":"Examples sent to student! Waiting for student...","response":null,"trial_type":"html-keyboard-response","trial_index":35,"time_elapsed":925412,"internal_node_id":"0.0-34.0","params":{"nStudents":24,"maxFlips":30,"completionMinutes":45,"basePay":8,"maxBonus":9,"perTrialBonus":0.5,"perTrialBonusThreshold":0.05,"exampleCost":0.01},"classroomParams":{"A":{"a":1,"b":4},"B":{"a":4,"b":1},"C":{"a":2,"b":8},"D":{"a":8,"b":2}},"conditions":["nonSeqFull","nonSeqPartial","seqNoFeedback","seqFeedback"],"classroomPairings":[["A","B"],["C","D"]],"coinWeights":[0.2,0.5,0.8],"subjectId":"AONSG5WOC3OX0","assignmentId":"3F1567XTNXRHYEANF9HQX9HL4AX9QD","hitId":"3JGHED38EDDK7DFM0KVY7GXU94LY7W","url":"https://gershmanlab.com/experiments/alicia/teaching/experiment/?hitId=3JGHED38EDDK7DFM0KVY7GXU94LY7W&workerId=AONSG5WOC3OX0&assignmentId=3F1567XTNXRHYEANF9HQX9HL4AX9QD&a=T61F9&tp_a=T61F9&b=3F1567XTNXRHYEANF9HQX9HL4AX9QD&tp_b=3F1567XTNXRHYEANF9HQX9HL4AX9QD&c=365799&tp_c=365799"},{"rt":16334,"response":{"heads":"20","tails":"2"},"type":"response","condition":"seqNoFeedback","trueTheta":0.8,"classrooms":["C","D"],"studentTrueClassroom":"C","exampleSet":"second","trial_type":"survey-html-form","trial_index":36,"time_elapsed":941747,"internal_node_id":"0.0-35.0-0.0","params":{"nStudents":24,"maxFlips":30,"completionMinutes":45,"basePay":8,"maxBonus":9,"perTrialBonus":0.5,"perTrialBonusThreshold":0.05,"exampleCost":0.01},"classroomParams":{"A":{"a":1,"b":4},"B":{"a":4,"b":1},"C":{"a":2,"b":8},"D":{"a":8,"b":2}},"conditions":["nonSeqFull","nonSeqPartial","seqNoFeedback","seqFeedback"],"classroomPairings":[["A","B"],["C","D"]],"coinWeights":[0.2,0.5,0.8],"subjectId":"AONSG5WOC3OX0","assignmentId":"3F1567XTNXRHYEANF9HQX9HL4AX9QD","hitId":"3JGHED38EDDK7DFM0KVY7GXU94LY7W","url":"https://gershmanlab.com/experiments/alicia/teaching/experiment/?hitId=3JGHED38EDDK7DFM0KVY7GXU94LY7W&workerId=AONSG5WOC3OX0&assignmentId=3F1567XTNXRHYEANF9HQX9HL4AX9QD&a=T61F9&tp_a=T61F9&b=3F1567XTNXRHYEANF9HQX9HL4AX9QD&tp_b=3F1567XTNXRHYEANF9HQX9HL4AX9QD&c=365799&tp_c=365799","firstResponseHeads":20,"firstResponseTails":3,"secondResponseHeads":20,"secondResponseTails":2,"totalHeads":40,"totalTails":5,"studentIndex":3,"studentTrueHypers":{"a":2,"b":8},"studentGuess":0.7636363636363637,"delta":0.036363636363636376,"bonus":0.05,"bonusSoFar":0.05,"totalExamples":45},{"rt":null,"stimulus":"Sending examples to student... ","response":null,"trial_type":"html-keyboard-response","trial_index":37,"time_elapsed":942999,"internal_node_id":"0.0-36.0","params":{"nStudents":24,"maxFlips":30,"completionMinutes":45,"basePay":8,"maxBonus":9,"perTrialBonus":0.5,"perTrialBonusThreshold":0.05,"exampleCost":0.01},"classroomParams":{"A":{"a":1,"b":4},"B":{"a":4,"b":1},"C":{"a":2,"b":8},"D":{"a":8,"b":2}},"conditions":["nonSeqFull","nonSeqPartial","seqNoFeedback","seqFeedback"],"classroomPairings":[["A","B"],["C","D"]],"coinWeights":[0.2,0.5,0.8],"subjectId":"AONSG5WOC3OX0","assignmentId":"3F1567XTNXRHYEANF9HQX9HL4AX9QD","hitId":"3JGHED38EDDK7DFM0KVY7GXU94LY7W","url":"https://gershmanlab.com/experiments/alicia/teaching/experiment/?hitId=3JGHED38EDDK7DFM0KVY7GXU94LY7W&workerId=AONSG5WOC3OX0&assignmentId=3F1567XTNXRHYEANF9HQX9HL4AX9QD&a=T61F9&tp_a=T61F9&b=3F1567XTNXRHYEANF9HQX9HL4AX9QD&tp_b=3F1567XTNXRHYEANF9HQX9HL4AX9QD&c=365799&tp_c=365799"},{"rt":null,"stimulus":"Examples sent to student! Waiting for student...","response":null,"trial_type":"html-keyboard-response","trial_index":38,"time_elapsed":947002,"internal_node_id":"0.0-37.0","params":{"nStudents":24,"maxFlips":30,"completionMinutes":45,"basePay":8,"maxBonus":9,"perTrialBonus":0.5,"perTrialBonusThreshold":0.05,"exampleCost":0.01},"classroomParams":{"A":{"a":1,"b":4},"B":{"a":4,"b":1},"C":{"a":2,"b":8},"D":{"a":8,"b":2}},"conditions":["nonSeqFull","nonSeqPartial","seqNoFeedback","seqFeedback"],"classroomPairings":[["A","B"],["C","D"]],"coinWeights":[0.2,0.5,0.8],"subjectId":"AONSG5WOC3OX0","assignmentId":"3F1567XTNXRHYEANF9HQX9HL4AX9QD","hitId":"3JGHED38EDDK7DFM0KVY7GXU94LY7W","url":"https://gershmanlab.com/experiments/alicia/teaching/experiment/?hitId=3JGHED38EDDK7DFM0KVY7GXU94LY7W&workerId=AONSG5WOC3OX0&assignmentId=3F1567XTNXRHYEANF9HQX9HL4AX9QD&a=T61F9&tp_a=T61F9&b=3F1567XTNXRHYEANF9HQX9HL4AX9QD&tp_b=3F1567XTNXRHYEANF9HQX9HL4AX9QD&c=365799&tp_c=365799"},{"rt":5768,"stimulus":"\n                <p>Student 4's first guess for coin weight: <b style=\"color:Tomato\";>0.67</b></p>\n                <p>Student 4's second guess for coin weight: <b style=\"color:Tomato\";>0.76</b></p>\n                <p>You received a bonus of <b>$0.05</b> based on the student's second guess.</p>\n                <p>Total bonus so far: <b>$0.05</b></p>\n                <p>Press any key to continue.</p>\n                ","response":" ","trial_type":"html-keyboard-response","trial_index":39,"time_elapsed":952771,"internal_node_id":"0.0-38.0","params":{"nStudents":24,"maxFlips":30,"completionMinutes":45,"basePay":8,"maxBonus":9,"perTrialBonus":0.5,"perTrialBonusThreshold":0.05,"exampleCost":0.01},"classroomParams":{"A":{"a":1,"b":4},"B":{"a":4,"b":1},"C":{"a":2,"b":8},"D":{"a":8,"b":2}},"conditions":["nonSeqFull","nonSeqPartial","seqNoFeedback","seqFeedback"],"classroomPairings":[["A","B"],["C","D"]],"coinWeights":[0.2,0.5,0.8],"subjectId":"AONSG5WOC3OX0","assignmentId":"3F1567XTNXRHYEANF9HQX9HL4AX9QD","hitId":"3JGHED38EDDK7DFM0KVY7GXU94LY7W","url":"https://gershmanlab.com/experiments/alicia/teaching/experiment/?hitId=3JGHED38EDDK7DFM0KVY7GXU94LY7W&workerId=AONSG5WOC3OX0&assignmentId=3F1567XTNXRHYEANF9HQX9HL4AX9QD&a=T61F9&tp_a=T61F9&b=3F1567XTNXRHYEANF9HQX9HL4AX9QD&tp_b=3F1567XTNXRHYEANF9HQX9HL4AX9QD&c=365799&tp_c=365799"},{"rt":null,"stimulus":"<div style=\"font-size:60px;\">Next student</div>","response":null,"trial_type":"html-keyboard-response","trial_index":40,"time_elapsed":955272,"internal_node_id":"0.0-39.0-0.0","params":{"nStudents":24,"maxFlips":30,"completionMinutes":45,"basePay":8,"maxBonus":9,"perTrialBonus":0.5,"perTrialBonusThreshold":0.05,"exampleCost":0.01},"classroomParams":{"A":{"a":1,"b":4},"B":{"a":4,"b":1},"C":{"a":2,"b":8},"D":{"a":8,"b":2}},"conditions":["nonSeqFull","nonSeqPartial","seqNoFeedback","seqFeedback"],"classroomPairings":[["A","B"],["C","D"]],"coinWeights":[0.2,0.5,0.8],"subjectId":"AONSG5WOC3OX0","assignmentId":"3F1567XTNXRHYEANF9HQX9HL4AX9QD","hitId":"3JGHED38EDDK7DFM0KVY7GXU94LY7W","url":"https://gershmanlab.com/experiments/alicia/teaching/experiment/?hitId=3JGHED38EDDK7DFM0KVY7GXU94LY7W&workerId=AONSG5WOC3OX0&assignmentId=3F1567XTNXRHYEANF9HQX9HL4AX9QD&a=T61F9&tp_a=T61F9&b=3F1567XTNXRHYEANF9HQX9HL4AX9QD&tp_b=3F1567XTNXRHYEANF9HQX9HL4AX9QD&c=365799&tp_c=365799"},{"rt":2218,"stimulus":"\n            <h4 style=\"color:Orange;\">Student 5</h4>\n            <h2>The weight of your coin is <b style=\"color:Tomato;\">0.8</b>.</h2>\n            <p>In this block, you will be giving <b>one</b> set of examples to Student 5.</p>\n                <p>You will receive feedback at the end of the block.</p>\n            <p></p>","response":0,"trial_type":"html-button-response","trial_index":41,"time_elapsed":957492,"internal_node_id":"0.0-40.0","params":{"nStudents":24,"maxFlips":30,"completionMinutes":45,"basePay":8,"maxBonus":9,"perTrialBonus":0.5,"perTrialBonusThreshold":0.05,"exampleCost":0.01},"classroomParams":{"A":{"a":1,"b":4},"B":{"a":4,"b":1},"C":{"a":2,"b":8},"D":{"a":8,"b":2}},"conditions":["nonSeqFull","nonSeqPartial","seqNoFeedback","seqFeedback"],"classroomPairings":[["A","B"],["C","D"]],"coinWeights":[0.2,0.5,0.8],"subjectId":"AONSG5WOC3OX0","assignmentId":"3F1567XTNXRHYEANF9HQX9HL4AX9QD","hitId":"3JGHED38EDDK7DFM0KVY7GXU94LY7W","url":"https://gershmanlab.com/experiments/alicia/teaching/experiment/?hitId=3JGHED38EDDK7DFM0KVY7GXU94LY7W&workerId=AONSG5WOC3OX0&assignmentId=3F1567XTNXRHYEANF9HQX9HL4AX9QD&a=T61F9&tp_a=T61F9&b=3F1567XTNXRHYEANF9HQX9HL4AX9QD&tp_b=3F1567XTNXRHYEANF9HQX9HL4AX9QD&c=365799&tp_c=365799"},{"rt":8598,"response":{"heads":"25","tails":"0"},"type":"response","condition":"nonSeqFull","trueTheta":0.8,"classrooms":["A","B"],"studentTrueClassroom":"A","exampleSet":"first","trial_type":"survey-html-form","trial_index":42,"time_elapsed":966091,"internal_node_id":"0.0-41.0-0.0","params":{"nStudents":24,"maxFlips":30,"completionMinutes":45,"basePay":8,"maxBonus":9,"perTrialBonus":0.5,"perTrialBonusThreshold":0.05,"exampleCost":0.01},"classroomParams":{"A":{"a":1,"b":4},"B":{"a":4,"b":1},"C":{"a":2,"b":8},"D":{"a":8,"b":2}},"conditions":["nonSeqFull","nonSeqPartial","seqNoFeedback","seqFeedback"],"classroomPairings":[["A","B"],["C","D"]],"coinWeights":[0.2,0.5,0.8],"subjectId":"AONSG5WOC3OX0","assignmentId":"3F1567XTNXRHYEANF9HQX9HL4AX9QD","hitId":"3JGHED38EDDK7DFM0KVY7GXU94LY7W","url":"https://gershmanlab.com/experiments/alicia/teaching/experiment/?hitId=3JGHED38EDDK7DFM0KVY7GXU94LY7W&workerId=AONSG5WOC3OX0&assignmentId=3F1567XTNXRHYEANF9HQX9HL4AX9QD&a=T61F9&tp_a=T61F9&b=3F1567XTNXRHYEANF9HQX9HL4AX9QD&tp_b=3F1567XTNXRHYEANF9HQX9HL4AX9QD&c=365799&tp_c=365799","heads":25,"tails":0,"studentIndex":4,"studentTrueHypers":{"a":1,"b":4},"studentGuess":0.8666666666666667,"delta":0.06666666666666665,"totalExamples":25,"bonus":0,"bonusSoFar":0.05},{"rt":null,"stimulus":"Sending examples to student... ","response":null,"trial_type":"html-keyboard-response","trial_index":43,"time_elapsed":967592,"internal_node_id":"0.0-42.0","params":{"nStudents":24,"maxFlips":30,"completionMinutes":45,"basePay":8,"maxBonus":9,"perTrialBonus":0.5,"perTrialBonusThreshold":0.05,"exampleCost":0.01},"classroomParams":{"A":{"a":1,"b":4},"B":{"a":4,"b":1},"C":{"a":2,"b":8},"D":{"a":8,"b":2}},"conditions":["nonSeqFull","nonSeqPartial","seqNoFeedback","seqFeedback"],"classroomPairings":[["A","B"],["C","D"]],"coinWeights":[0.2,0.5,0.8],"subjectId":"AONSG5WOC3OX0","assignmentId":"3F1567XTNXRHYEANF9HQX9HL4AX9QD","hitId":"3JGHED38EDDK7DFM0KVY7GXU94LY7W","url":"https://gershmanlab.com/experiments/alicia/teaching/experiment/?hitId=3JGHED38EDDK7DFM0KVY7GXU94LY7W&workerId=AONSG5WOC3OX0&assignmentId=3F1567XTNXRHYEANF9HQX9HL4AX9QD&a=T61F9&tp_a=T61F9&b=3F1567XTNXRHYEANF9HQX9HL4AX9QD&tp_b=3F1567XTNXRHYEANF9HQX9HL4AX9QD&c=365799&tp_c=365799"},{"rt":null,"stimulus":"Examples sent to student! Waiting for student...","response":null,"trial_type":"html-keyboard-response","trial_index":44,"time_elapsed":972094,"internal_node_id":"0.0-43.0","params":{"nStudents":24,"maxFlips":30,"completionMinutes":45,"basePay":8,"maxBonus":9,"perTrialBonus":0.5,"perTrialBonusThreshold":0.05,"exampleCost":0.01},"classroomParams":{"A":{"a":1,"b":4},"B":{"a":4,"b":1},"C":{"a":2,"b":8},"D":{"a":8,"b":2}},"conditions":["nonSeqFull","nonSeqPartial","seqNoFeedback","seqFeedback"],"classroomPairings":[["A","B"],["C","D"]],"coinWeights":[0.2,0.5,0.8],"subjectId":"AONSG5WOC3OX0","assignmentId":"3F1567XTNXRHYEANF9HQX9HL4AX9QD","hitId":"3JGHED38EDDK7DFM0KVY7GXU94LY7W","url":"https://gershmanlab.com/experiments/alicia/teaching/experiment/?hitId=3JGHED38EDDK7DFM0KVY7GXU94LY7W&workerId=AONSG5WOC3OX0&assignmentId=3F1567XTNXRHYEANF9HQX9HL4AX9QD&a=T61F9&tp_a=T61F9&b=3F1567XTNXRHYEANF9HQX9HL4AX9QD&tp_b=3F1567XTNXRHYEANF9HQX9HL4AX9QD&c=365799&tp_c=365799"},{"rt":6980,"stimulus":"\n                <p>Student's guess for coin weight: <b style=\"color:Tomato;\">0.87</b></p>\n                <p>You received a bonus of <b>$0</b>. Total bonus so far: <b>$0.05</b></b></p>\n                <p></p>\n                <p>Press any key to continue.</p>\n                ","response":"enter","trial_type":"html-keyboard-response","trial_index":45,"time_elapsed":979075,"internal_node_id":"0.0-44.0","params":{"nStudents":24,"maxFlips":30,"completionMinutes":45,"basePay":8,"maxBonus":9,"perTrialBonus":0.5,"perTrialBonusThreshold":0.05,"exampleCost":0.01},"classroomParams":{"A":{"a":1,"b":4},"B":{"a":4,"b":1},"C":{"a":2,"b":8},"D":{"a":8,"b":2}},"conditions":["nonSeqFull","nonSeqPartial","seqNoFeedback","seqFeedback"],"classroomPairings":[["A","B"],["C","D"]],"coinWeights":[0.2,0.5,0.8],"subjectId":"AONSG5WOC3OX0","assignmentId":"3F1567XTNXRHYEANF9HQX9HL4AX9QD","hitId":"3JGHED38EDDK7DFM0KVY7GXU94LY7W","url":"https://gershmanlab.com/experiments/alicia/teaching/experiment/?hitId=3JGHED38EDDK7DFM0KVY7GXU94LY7W&workerId=AONSG5WOC3OX0&assignmentId=3F1567XTNXRHYEANF9HQX9HL4AX9QD&a=T61F9&tp_a=T61F9&b=3F1567XTNXRHYEANF9HQX9HL4AX9QD&tp_b=3F1567XTNXRHYEANF9HQX9HL4AX9QD&c=365799&tp_c=365799"},{"rt":null,"stimulus":"<div style=\"font-size:60px;\">Next student</div>","response":null,"trial_type":"html-keyboard-response","trial_index":46,"time_elapsed":981076,"internal_node_id":"0.0-45.0-0.0","params":{"nStudents":24,"maxFlips":30,"completionMinutes":45,"basePay":8,"maxBonus":9,"perTrialBonus":0.5,"perTrialBonusThreshold":0.05,"exampleCost":0.01},"classroomParams":{"A":{"a":1,"b":4},"B":{"a":4,"b":1},"C":{"a":2,"b":8},"D":{"a":8,"b":2}},"conditions":["nonSeqFull","nonSeqPartial","seqNoFeedback","seqFeedback"],"classroomPairings":[["A","B"],["C","D"]],"coinWeights":[0.2,0.5,0.8],"subjectId":"AONSG5WOC3OX0","assignmentId":"3F1567XTNXRHYEANF9HQX9HL4AX9QD","hitId":"3JGHED38EDDK7DFM0KVY7GXU94LY7W","url":"https://gershmanlab.com/experiments/alicia/teaching/experiment/?hitId=3JGHED38EDDK7DFM0KVY7GXU94LY7W&workerId=AONSG5WOC3OX0&assignmentId=3F1567XTNXRHYEANF9HQX9HL4AX9QD&a=T61F9&tp_a=T61F9&b=3F1567XTNXRHYEANF9HQX9HL4AX9QD&tp_b=3F1567XTNXRHYEANF9HQX9HL4AX9QD&c=365799&tp_c=365799"},{"rt":1310,"stimulus":"\n            <h4 style=\"color:Orange;\">Student 6</h4>\n            <h2>The weight of your coin is <b style=\"color:Tomato;\">0.8</b>.</h2>\n            <p>In this block, you will be giving <b>two</b> sets of examples to Student 6.</p>\n                <p>You will receive feedback at the end of the block.</p>\n            <p></p>","response":0,"trial_type":"html-button-response","trial_index":47,"time_elapsed":982387,"internal_node_id":"0.0-46.0","params":{"nStudents":24,"maxFlips":30,"completionMinutes":45,"basePay":8,"maxBonus":9,"perTrialBonus":0.5,"perTrialBonusThreshold":0.05,"exampleCost":0.01},"classroomParams":{"A":{"a":1,"b":4},"B":{"a":4,"b":1},"C":{"a":2,"b":8},"D":{"a":8,"b":2}},"conditions":["nonSeqFull","nonSeqPartial","seqNoFeedback","seqFeedback"],"classroomPairings":[["A","B"],["C","D"]],"coinWeights":[0.2,0.5,0.8],"subjectId":"AONSG5WOC3OX0","assignmentId":"3F1567XTNXRHYEANF9HQX9HL4AX9QD","hitId":"3JGHED38EDDK7DFM0KVY7GXU94LY7W","url":"https://gershmanlab.com/experiments/alicia/teaching/experiment/?hitId=3JGHED38EDDK7DFM0KVY7GXU94LY7W&workerId=AONSG5WOC3OX0&assignmentId=3F1567XTNXRHYEANF9HQX9HL4AX9QD&a=T61F9&tp_a=T61F9&b=3F1567XTNXRHYEANF9HQX9HL4AX9QD&tp_b=3F1567XTNXRHYEANF9HQX9HL4AX9QD&c=365799&tp_c=365799"},{"rt":5159,"response":{"heads":"22","tails":"0"},"type":"response","condition":"seqNoFeedback","trueTheta":0.8,"classrooms":["A","B"],"studentTrueClassroom":"B","exampleSet":"first","trial_type":"survey-html-form","trial_index":48,"time_elapsed":987547,"internal_node_id":"0.0-47.0-0.0","params":{"nStudents":24,"maxFlips":30,"completionMinutes":45,"basePay":8,"maxBonus":9,"perTrialBonus":0.5,"perTrialBonusThreshold":0.05,"exampleCost":0.01},"classroomParams":{"A":{"a":1,"b":4},"B":{"a":4,"b":1},"C":{"a":2,"b":8},"D":{"a":8,"b":2}},"conditions":["nonSeqFull","nonSeqPartial","seqNoFeedback","seqFeedback"],"classroomPairings":[["A","B"],["C","D"]],"coinWeights":[0.2,0.5,0.8],"subjectId":"AONSG5WOC3OX0","assignmentId":"3F1567XTNXRHYEANF9HQX9HL4AX9QD","hitId":"3JGHED38EDDK7DFM0KVY7GXU94LY7W","url":"https://gershmanlab.com/experiments/alicia/teaching/experiment/?hitId=3JGHED38EDDK7DFM0KVY7GXU94LY7W&workerId=AONSG5WOC3OX0&assignmentId=3F1567XTNXRHYEANF9HQX9HL4AX9QD&a=T61F9&tp_a=T61F9&b=3F1567XTNXRHYEANF9HQX9HL4AX9QD&tp_b=3F1567XTNXRHYEANF9HQX9HL4AX9QD&c=365799&tp_c=365799","heads":22,"tails":0,"studentIndex":5,"studentTrueHypers":{"a":4,"b":1},"studentGuess":0.9629629629629629,"delta":0.16296296296296287,"totalExamples":22,"bonusSoFar":0.05},{"rt":null,"stimulus":"Sending examples to student... ","response":null,"trial_type":"html-keyboard-response","trial_index":49,"time_elapsed":989299,"internal_node_id":"0.0-48.0","params":{"nStudents":24,"maxFlips":30,"completionMinutes":45,"basePay":8,"maxBonus":9,"perTrialBonus":0.5,"perTrialBonusThreshold":0.05,"exampleCost":0.01},"classroomParams":{"A":{"a":1,"b":4},"B":{"a":4,"b":1},"C":{"a":2,"b":8},"D":{"a":8,"b":2}},"conditions":["nonSeqFull","nonSeqPartial","seqNoFeedback","seqFeedback"],"classroomPairings":[["A","B"],["C","D"]],"coinWeights":[0.2,0.5,0.8],"subjectId":"AONSG5WOC3OX0","assignmentId":"3F1567XTNXRHYEANF9HQX9HL4AX9QD","hitId":"3JGHED38EDDK7DFM0KVY7GXU94LY7W","url":"https://gershmanlab.com/experiments/alicia/teaching/experiment/?hitId=3JGHED38EDDK7DFM0KVY7GXU94LY7W&workerId=AONSG5WOC3OX0&assignmentId=3F1567XTNXRHYEANF9HQX9HL4AX9QD&a=T61F9&tp_a=T61F9&b=3F1567XTNXRHYEANF9HQX9HL4AX9QD&tp_b=3F1567XTNXRHYEANF9HQX9HL4AX9QD&c=365799&tp_c=365799"},{"rt":null,"stimulus":"Examples sent to student! Waiting for student...","response":null,"trial_type":"html-keyboard-response","trial_index":50,"time_elapsed":994800,"internal_node_id":"0.0-49.0","params":{"nStudents":24,"maxFlips":30,"completionMinutes":45,"basePay":8,"maxBonus":9,"perTrialBonus":0.5,"perTrialBonusThreshold":0.05,"exampleCost":0.01},"classroomParams":{"A":{"a":1,"b":4},"B":{"a":4,"b":1},"C":{"a":2,"b":8},"D":{"a":8,"b":2}},"conditions":["nonSeqFull","nonSeqPartial","seqNoFeedback","seqFeedback"],"classroomPairings":[["A","B"],["C","D"]],"coinWeights":[0.2,0.5,0.8],"subjectId":"AONSG5WOC3OX0","assignmentId":"3F1567XTNXRHYEANF9HQX9HL4AX9QD","hitId":"3JGHED38EDDK7DFM0KVY7GXU94LY7W","url":"https://gershmanlab.com/experiments/alicia/teaching/experiment/?hitId=3JGHED38EDDK7DFM0KVY7GXU94LY7W&workerId=AONSG5WOC3OX0&assignmentId=3F1567XTNXRHYEANF9HQX9HL4AX9QD&a=T61F9&tp_a=T61F9&b=3F1567XTNXRHYEANF9HQX9HL4AX9QD&tp_b=3F1567XTNXRHYEANF9HQX9HL4AX9QD&c=365799&tp_c=365799"},{"rt":9282,"response":{"heads":"25","tails":"1"},"type":"response","condition":"seqNoFeedback","trueTheta":0.8,"classrooms":["A","B"],"studentTrueClassroom":"B","exampleSet":"second","trial_type":"survey-html-form","trial_index":51,"time_elapsed":1004083,"internal_node_id":"0.0-50.0-0.0","params":{"nStudents":24,"maxFlips":30,"completionMinutes":45,"basePay":8,"maxBonus":9,"perTrialBonus":0.5,"perTrialBonusThreshold":0.05,"exampleCost":0.01},"classroomParams":{"A":{"a":1,"b":4},"B":{"a":4,"b":1},"C":{"a":2,"b":8},"D":{"a":8,"b":2}},"conditions":["nonSeqFull","nonSeqPartial","seqNoFeedback","seqFeedback"],"classroomPairings":[["A","B"],["C","D"]],"coinWeights":[0.2,0.5,0.8],"subjectId":"AONSG5WOC3OX0","assignmentId":"3F1567XTNXRHYEANF9HQX9HL4AX9QD","hitId":"3JGHED38EDDK7DFM0KVY7GXU94LY7W","url":"https://gershmanlab.com/experiments/alicia/teaching/experiment/?hitId=3JGHED38EDDK7DFM0KVY7GXU94LY7W&workerId=AONSG5WOC3OX0&assignmentId=3F1567XTNXRHYEANF9HQX9HL4AX9QD&a=T61F9&tp_a=T61F9&b=3F1567XTNXRHYEANF9HQX9HL4AX9QD&tp_b=3F1567XTNXRHYEANF9HQX9HL4AX9QD&c=365799&tp_c=365799","firstResponseHeads":22,"firstResponseTails":0,"secondResponseHeads":25,"secondResponseTails":1,"totalHeads":47,"totalTails":1,"studentIndex":5,"studentTrueHypers":{"a":4,"b":1},"studentGuess":0.9622641509433962,"delta":0.1622641509433962,"bonus":0,"bonusSoFar":0.05,"totalExamples":48},{"rt":null,"stimulus":"Sending examples to student... ","response":null,"trial_type":"html-keyboard-response","trial_index":52,"time_elapsed":1005584,"internal_node_id":"0.0-51.0","params":{"nStudents":24,"maxFlips":30,"completionMinutes":45,"basePay":8,"maxBonus":9,"perTrialBonus":0.5,"perTrialBonusThreshold":0.05,"exampleCost":0.01},"classroomParams":{"A":{"a":1,"b":4},"B":{"a":4,"b":1},"C":{"a":2,"b":8},"D":{"a":8,"b":2}},"conditions":["nonSeqFull","nonSeqPartial","seqNoFeedback","seqFeedback"],"classroomPairings":[["A","B"],["C","D"]],"coinWeights":[0.2,0.5,0.8],"subjectId":"AONSG5WOC3OX0","assignmentId":"3F1567XTNXRHYEANF9HQX9HL4AX9QD","hitId":"3JGHED38EDDK7DFM0KVY7GXU94LY7W","url":"https://gershmanlab.com/experiments/alicia/teaching/experiment/?hitId=3JGHED38EDDK7DFM0KVY7GXU94LY7W&workerId=AONSG5WOC3OX0&assignmentId=3F1567XTNXRHYEANF9HQX9HL4AX9QD&a=T61F9&tp_a=T61F9&b=3F1567XTNXRHYEANF9HQX9HL4AX9QD&tp_b=3F1567XTNXRHYEANF9HQX9HL4AX9QD&c=365799&tp_c=365799"},{"rt":null,"stimulus":"Examples sent to student! Waiting for student...","response":null,"trial_type":"html-keyboard-response","trial_index":53,"time_elapsed":1010086,"internal_node_id":"0.0-52.0","params":{"nStudents":24,"maxFlips":30,"completionMinutes":45,"basePay":8,"maxBonus":9,"perTrialBonus":0.5,"perTrialBonusThreshold":0.05,"exampleCost":0.01},"classroomParams":{"A":{"a":1,"b":4},"B":{"a":4,"b":1},"C":{"a":2,"b":8},"D":{"a":8,"b":2}},"conditions":["nonSeqFull","nonSeqPartial","seqNoFeedback","seqFeedback"],"classroomPairings":[["A","B"],["C","D"]],"coinWeights":[0.2,0.5,0.8],"subjectId":"AONSG5WOC3OX0","assignmentId":"3F1567XTNXRHYEANF9HQX9HL4AX9QD","hitId":"3JGHED38EDDK7DFM0KVY7GXU94LY7W","url":"https://gershmanlab.com/experiments/alicia/teaching/experiment/?hitId=3JGHED38EDDK7DFM0KVY7GXU94LY7W&workerId=AONSG5WOC3OX0&assignmentId=3F1567XTNXRHYEANF9HQX9HL4AX9QD&a=T61F9&tp_a=T61F9&b=3F1567XTNXRHYEANF9HQX9HL4AX9QD&tp_b=3F1567XTNXRHYEANF9HQX9HL4AX9QD&c=365799&tp_c=365799"},{"rt":3323,"stimulus":"\n                <p>Student 6's first guess for coin weight: <b style=\"color:Tomato\";>0.96</b></p>\n                <p>Student 6's second guess for coin weight: <b style=\"color:Tomato\";>0.96</b></p>\n                <p>You received a bonus of <b>$0.00</b> based on the student's second guess.</p>\n                <p>Total bonus so far: <b>$0.05</b></p>\n                <p>Press any key to continue.</p>\n                ","response":" ","trial_type":"html-keyboard-response","trial_index":54,"time_elapsed":1013411,"internal_node_id":"0.0-53.0","params":{"nStudents":24,"maxFlips":30,"completionMinutes":45,"basePay":8,"maxBonus":9,"perTrialBonus":0.5,"perTrialBonusThreshold":0.05,"exampleCost":0.01},"classroomParams":{"A":{"a":1,"b":4},"B":{"a":4,"b":1},"C":{"a":2,"b":8},"D":{"a":8,"b":2}},"conditions":["nonSeqFull","nonSeqPartial","seqNoFeedback","seqFeedback"],"classroomPairings":[["A","B"],["C","D"]],"coinWeights":[0.2,0.5,0.8],"subjectId":"AONSG5WOC3OX0","assignmentId":"3F1567XTNXRHYEANF9HQX9HL4AX9QD","hitId":"3JGHED38EDDK7DFM0KVY7GXU94LY7W","url":"https://gershmanlab.com/experiments/alicia/teaching/experiment/?hitId=3JGHED38EDDK7DFM0KVY7GXU94LY7W&workerId=AONSG5WOC3OX0&assignmentId=3F1567XTNXRHYEANF9HQX9HL4AX9QD&a=T61F9&tp_a=T61F9&b=3F1567XTNXRHYEANF9HQX9HL4AX9QD&tp_b=3F1567XTNXRHYEANF9HQX9HL4AX9QD&c=365799&tp_c=365799"},{"rt":null,"stimulus":"<div style=\"font-size:60px;\">Next student</div>","response":null,"trial_type":"html-keyboard-response","trial_index":55,"time_elapsed":1015661,"internal_node_id":"0.0-54.0-0.0","params":{"nStudents":24,"maxFlips":30,"completionMinutes":45,"basePay":8,"maxBonus":9,"perTrialBonus":0.5,"perTrialBonusThreshold":0.05,"exampleCost":0.01},"classroomParams":{"A":{"a":1,"b":4},"B":{"a":4,"b":1},"C":{"a":2,"b":8},"D":{"a":8,"b":2}},"conditions":["nonSeqFull","nonSeqPartial","seqNoFeedback","seqFeedback"],"classroomPairings":[["A","B"],["C","D"]],"coinWeights":[0.2,0.5,0.8],"subjectId":"AONSG5WOC3OX0","assignmentId":"3F1567XTNXRHYEANF9HQX9HL4AX9QD","hitId":"3JGHED38EDDK7DFM0KVY7GXU94LY7W","url":"https://gershmanlab.com/experiments/alicia/teaching/experiment/?hitId=3JGHED38EDDK7DFM0KVY7GXU94LY7W&workerId=AONSG5WOC3OX0&assignmentId=3F1567XTNXRHYEANF9HQX9HL4AX9QD&a=T61F9&tp_a=T61F9&b=3F1567XTNXRHYEANF9HQX9HL4AX9QD&tp_b=3F1567XTNXRHYEANF9HQX9HL4AX9QD&c=365799&tp_c=365799"},{"rt":1724,"stimulus":"\n            <h4 style=\"color:Orange;\">Student 7</h4>\n            <h2>The weight of your coin is <b style=\"color:Tomato;\">0.5</b>.</h2>\n            <p>In this block, you will be giving <b>one</b> set of examples to Student 7.</p>\n                <p>You will receive feedback at the end of the block.</p>\n            <p></p>","response":0,"trial_type":"html-button-response","trial_index":56,"time_elapsed":1017387,"internal_node_id":"0.0-55.0","params":{"nStudents":24,"maxFlips":30,"completionMinutes":45,"basePay":8,"maxBonus":9,"perTrialBonus":0.5,"perTrialBonusThreshold":0.05,"exampleCost":0.01},"classroomParams":{"A":{"a":1,"b":4},"B":{"a":4,"b":1},"C":{"a":2,"b":8},"D":{"a":8,"b":2}},"conditions":["nonSeqFull","nonSeqPartial","seqNoFeedback","seqFeedback"],"classroomPairings":[["A","B"],["C","D"]],"coinWeights":[0.2,0.5,0.8],"subjectId":"AONSG5WOC3OX0","assignmentId":"3F1567XTNXRHYEANF9HQX9HL4AX9QD","hitId":"3JGHED38EDDK7DFM0KVY7GXU94LY7W","url":"https://gershmanlab.com/experiments/alicia/teaching/experiment/?hitId=3JGHED38EDDK7DFM0KVY7GXU94LY7W&workerId=AONSG5WOC3OX0&assignmentId=3F1567XTNXRHYEANF9HQX9HL4AX9QD&a=T61F9&tp_a=T61F9&b=3F1567XTNXRHYEANF9HQX9HL4AX9QD&tp_b=3F1567XTNXRHYEANF9HQX9HL4AX9QD&c=365799&tp_c=365799"},{"rt":5792,"response":{"heads":"11","tails":"12"},"type":"response","condition":"nonSeqPartial","trueTheta":0.5,"classrooms":["C","D"],"studentTrueClassroom":"D","exampleSet":"first","trial_type":"survey-html-form","trial_index":57,"time_elapsed":1023179,"internal_node_id":"0.0-56.0-0.0","params":{"nStudents":24,"maxFlips":30,"completionMinutes":45,"basePay":8,"maxBonus":9,"perTrialBonus":0.5,"perTrialBonusThreshold":0.05,"exampleCost":0.01},"classroomParams":{"A":{"a":1,"b":4},"B":{"a":4,"b":1},"C":{"a":2,"b":8},"D":{"a":8,"b":2}},"conditions":["nonSeqFull","nonSeqPartial","seqNoFeedback","seqFeedback"],"classroomPairings":[["A","B"],["C","D"]],"coinWeights":[0.2,0.5,0.8],"subjectId":"AONSG5WOC3OX0","assignmentId":"3F1567XTNXRHYEANF9HQX9HL4AX9QD","hitId":"3JGHED38EDDK7DFM0KVY7GXU94LY7W","url":"https://gershmanlab.com/experiments/alicia/teaching/experiment/?hitId=3JGHED38EDDK7DFM0KVY7GXU94LY7W&workerId=AONSG5WOC3OX0&assignmentId=3F1567XTNXRHYEANF9HQX9HL4AX9QD&a=T61F9&tp_a=T61F9&b=3F1567XTNXRHYEANF9HQX9HL4AX9QD&tp_b=3F1567XTNXRHYEANF9HQX9HL4AX9QD&c=365799&tp_c=365799","heads":11,"tails":12,"studentIndex":6,"studentTrueHypers":{"a":8,"b":2},"studentGuess":0.5757575757575758,"delta":0.0757575757575758,"totalExamples":23,"bonus":0,"bonusSoFar":0.05},{"rt":null,"stimulus":"Sending examples to student... ","response":null,"trial_type":"html-keyboard-response","trial_index":58,"time_elapsed":1025181,"internal_node_id":"0.0-57.0","params":{"nStudents":24,"maxFlips":30,"completionMinutes":45,"basePay":8,"maxBonus":9,"perTrialBonus":0.5,"perTrialBonusThreshold":0.05,"exampleCost":0.01},"classroomParams":{"A":{"a":1,"b":4},"B":{"a":4,"b":1},"C":{"a":2,"b":8},"D":{"a":8,"b":2}},"conditions":["nonSeqFull","nonSeqPartial","seqNoFeedback","seqFeedback"],"classroomPairings":[["A","B"],["C","D"]],"coinWeights":[0.2,0.5,0.8],"subjectId":"AONSG5WOC3OX0","assignmentId":"3F1567XTNXRHYEANF9HQX9HL4AX9QD","hitId":"3JGHED38EDDK7DFM0KVY7GXU94LY7W","url":"https://gershmanlab.com/experiments/alicia/teaching/experiment/?hitId=3JGHED38EDDK7DFM0KVY7GXU94LY7W&workerId=AONSG5WOC3OX0&assignmentId=3F1567XTNXRHYEANF9HQX9HL4AX9QD&a=T61F9&tp_a=T61F9&b=3F1567XTNXRHYEANF9HQX9HL4AX9QD&tp_b=3F1567XTNXRHYEANF9HQX9HL4AX9QD&c=365799&tp_c=365799"},{"rt":null,"stimulus":"Examples sent to student! Waiting for student...","response":null,"trial_type":"html-keyboard-response","trial_index":59,"time_elapsed":1030681,"internal_node_id":"0.0-58.0","params":{"nStudents":24,"maxFlips":30,"completionMinutes":45,"basePay":8,"maxBonus":9,"perTrialBonus":0.5,"perTrialBonusThreshold":0.05,"exampleCost":0.01},"classroomParams":{"A":{"a":1,"b":4},"B":{"a":4,"b":1},"C":{"a":2,"b":8},"D":{"a":8,"b":2}},"conditions":["nonSeqFull","nonSeqPartial","seqNoFeedback","seqFeedback"],"classroomPairings":[["A","B"],["C","D"]],"coinWeights":[0.2,0.5,0.8],"subjectId":"AONSG5WOC3OX0","assignmentId":"3F1567XTNXRHYEANF9HQX9HL4AX9QD","hitId":"3JGHED38EDDK7DFM0KVY7GXU94LY7W","url":"https://gershmanlab.com/experiments/alicia/teaching/experiment/?hitId=3JGHED38EDDK7DFM0KVY7GXU94LY7W&workerId=AONSG5WOC3OX0&assignmentId=3F1567XTNXRHYEANF9HQX9HL4AX9QD&a=T61F9&tp_a=T61F9&b=3F1567XTNXRHYEANF9HQX9HL4AX9QD&tp_b=3F1567XTNXRHYEANF9HQX9HL4AX9QD&c=365799&tp_c=365799"},{"rt":4889,"stimulus":"\n                <p>Student's guess for coin weight: <b style=\"color:Tomato;\">0.58</b></p>\n                <p>You received a bonus of <b>$0</b>. Total bonus so far: <b>$0.05</b></b></p>\n                <p></p>\n                <p>Press any key to continue.</p>\n                ","response":"enter","trial_type":"html-keyboard-response","trial_index":60,"time_elapsed":1035571,"internal_node_id":"0.0-59.0","params":{"nStudents":24,"maxFlips":30,"completionMinutes":45,"basePay":8,"maxBonus":9,"perTrialBonus":0.5,"perTrialBonusThreshold":0.05,"exampleCost":0.01},"classroomParams":{"A":{"a":1,"b":4},"B":{"a":4,"b":1},"C":{"a":2,"b":8},"D":{"a":8,"b":2}},"conditions":["nonSeqFull","nonSeqPartial","seqNoFeedback","seqFeedback"],"classroomPairings":[["A","B"],["C","D"]],"coinWeights":[0.2,0.5,0.8],"subjectId":"AONSG5WOC3OX0","assignmentId":"3F1567XTNXRHYEANF9HQX9HL4AX9QD","hitId":"3JGHED38EDDK7DFM0KVY7GXU94LY7W","url":"https://gershmanlab.com/experiments/alicia/teaching/experiment/?hitId=3JGHED38EDDK7DFM0KVY7GXU94LY7W&workerId=AONSG5WOC3OX0&assignmentId=3F1567XTNXRHYEANF9HQX9HL4AX9QD&a=T61F9&tp_a=T61F9&b=3F1567XTNXRHYEANF9HQX9HL4AX9QD&tp_b=3F1567XTNXRHYEANF9HQX9HL4AX9QD&c=365799&tp_c=365799"},{"rt":null,"stimulus":"<div style=\"font-size:60px;\">Next student</div>","response":null,"trial_type":"html-keyboard-response","trial_index":61,"time_elapsed":1037822,"internal_node_id":"0.0-60.0-0.0","params":{"nStudents":24,"maxFlips":30,"completionMinutes":45,"basePay":8,"maxBonus":9,"perTrialBonus":0.5,"perTrialBonusThreshold":0.05,"exampleCost":0.01},"classroomParams":{"A":{"a":1,"b":4},"B":{"a":4,"b":1},"C":{"a":2,"b":8},"D":{"a":8,"b":2}},"conditions":["nonSeqFull","nonSeqPartial","seqNoFeedback","seqFeedback"],"classroomPairings":[["A","B"],["C","D"]],"coinWeights":[0.2,0.5,0.8],"subjectId":"AONSG5WOC3OX0","assignmentId":"3F1567XTNXRHYEANF9HQX9HL4AX9QD","hitId":"3JGHED38EDDK7DFM0KVY7GXU94LY7W","url":"https://gershmanlab.com/experiments/alicia/teaching/experiment/?hitId=3JGHED38EDDK7DFM0KVY7GXU94LY7W&workerId=AONSG5WOC3OX0&assignmentId=3F1567XTNXRHYEANF9HQX9HL4AX9QD&a=T61F9&tp_a=T61F9&b=3F1567XTNXRHYEANF9HQX9HL4AX9QD&tp_b=3F1567XTNXRHYEANF9HQX9HL4AX9QD&c=365799&tp_c=365799"},{"rt":2300,"stimulus":"\n            <h4 style=\"color:Orange;\">Student 8</h4>\n            <h2>The weight of your coin is <b style=\"color:Tomato;\">0.8</b>.</h2>\n            <p>In this block, you will be giving <b>two</b> sets of examples to Student 8.</p>\n                <p>You will see the student's guess after the first set of examples. You will also receive feedback at the end of the block.</p>\n            <p>To earn the highest bonus, you will have to <b>take into consideration the student's guess</b> when you choose your second set of examples.</p>","response":0,"trial_type":"html-button-response","trial_index":62,"time_elapsed":1040123,"internal_node_id":"0.0-61.0","params":{"nStudents":24,"maxFlips":30,"completionMinutes":45,"basePay":8,"maxBonus":9,"perTrialBonus":0.5,"perTrialBonusThreshold":0.05,"exampleCost":0.01},"classroomParams":{"A":{"a":1,"b":4},"B":{"a":4,"b":1},"C":{"a":2,"b":8},"D":{"a":8,"b":2}},"conditions":["nonSeqFull","nonSeqPartial","seqNoFeedback","seqFeedback"],"classroomPairings":[["A","B"],["C","D"]],"coinWeights":[0.2,0.5,0.8],"subjectId":"AONSG5WOC3OX0","assignmentId":"3F1567XTNXRHYEANF9HQX9HL4AX9QD","hitId":"3JGHED38EDDK7DFM0KVY7GXU94LY7W","url":"https://gershmanlab.com/experiments/alicia/teaching/experiment/?hitId=3JGHED38EDDK7DFM0KVY7GXU94LY7W&workerId=AONSG5WOC3OX0&assignmentId=3F1567XTNXRHYEANF9HQX9HL4AX9QD&a=T61F9&tp_a=T61F9&b=3F1567XTNXRHYEANF9HQX9HL4AX9QD&tp_b=3F1567XTNXRHYEANF9HQX9HL4AX9QD&c=365799&tp_c=365799"},{"rt":8568,"response":{"heads":"22","tails":"8"},"type":"response","condition":"seqFeedback","trueTheta":0.8,"classrooms":["C","D"],"studentTrueClassroom":"C","exampleSet":"first","trial_type":"survey-html-form","trial_index":63,"time_elapsed":1048691,"internal_node_id":"0.0-62.0-0.0","params":{"nStudents":24,"maxFlips":30,"completionMinutes":45,"basePay":8,"maxBonus":9,"perTrialBonus":0.5,"perTrialBonusThreshold":0.05,"exampleCost":0.01},"classroomParams":{"A":{"a":1,"b":4},"B":{"a":4,"b":1},"C":{"a":2,"b":8},"D":{"a":8,"b":2}},"conditions":["nonSeqFull","nonSeqPartial","seqNoFeedback","seqFeedback"],"classroomPairings":[["A","B"],["C","D"]],"coinWeights":[0.2,0.5,0.8],"subjectId":"AONSG5WOC3OX0","assignmentId":"3F1567XTNXRHYEANF9HQX9HL4AX9QD","hitId":"3JGHED38EDDK7DFM0KVY7GXU94LY7W","url":"https://gershmanlab.com/experiments/alicia/teaching/experiment/?hitId=3JGHED38EDDK7DFM0KVY7GXU94LY7W&workerId=AONSG5WOC3OX0&assignmentId=3F1567XTNXRHYEANF9HQX9HL4AX9QD&a=T61F9&tp_a=T61F9&b=3F1567XTNXRHYEANF9HQX9HL4AX9QD&tp_b=3F1567XTNXRHYEANF9HQX9HL4AX9QD&c=365799&tp_c=365799","heads":22,"tails":8,"studentIndex":7,"studentTrueHypers":{"a":2,"b":8},"studentGuess":0.6,"delta":0.20000000000000007,"totalExamples":30,"bonusSoFar":0.05},{"rt":null,"stimulus":"Sending examples to student... ","response":null,"trial_type":"html-keyboard-response","trial_index":64,"time_elapsed":1050693,"internal_node_id":"0.0-63.0","params":{"nStudents":24,"maxFlips":30,"completionMinutes":45,"basePay":8,"maxBonus":9,"perTrialBonus":0.5,"perTrialBonusThreshold":0.05,"exampleCost":0.01},"classroomParams":{"A":{"a":1,"b":4},"B":{"a":4,"b":1},"C":{"a":2,"b":8},"D":{"a":8,"b":2}},"conditions":["nonSeqFull","nonSeqPartial","seqNoFeedback","seqFeedback"],"classroomPairings":[["A","B"],["C","D"]],"coinWeights":[0.2,0.5,0.8],"subjectId":"AONSG5WOC3OX0","assignmentId":"3F1567XTNXRHYEANF9HQX9HL4AX9QD","hitId":"3JGHED38EDDK7DFM0KVY7GXU94LY7W","url":"https://gershmanlab.com/experiments/alicia/teaching/experiment/?hitId=3JGHED38EDDK7DFM0KVY7GXU94LY7W&workerId=AONSG5WOC3OX0&assignmentId=3F1567XTNXRHYEANF9HQX9HL4AX9QD&a=T61F9&tp_a=T61F9&b=3F1567XTNXRHYEANF9HQX9HL4AX9QD&tp_b=3F1567XTNXRHYEANF9HQX9HL4AX9QD&c=365799&tp_c=365799"},{"rt":null,"stimulus":"Examples sent to student! Waiting for student...","response":null,"trial_type":"html-keyboard-response","trial_index":65,"time_elapsed":1054694,"internal_node_id":"0.0-64.0","params":{"nStudents":24,"maxFlips":30,"completionMinutes":45,"basePay":8,"maxBonus":9,"perTrialBonus":0.5,"perTrialBonusThreshold":0.05,"exampleCost":0.01},"classroomParams":{"A":{"a":1,"b":4},"B":{"a":4,"b":1},"C":{"a":2,"b":8},"D":{"a":8,"b":2}},"conditions":["nonSeqFull","nonSeqPartial","seqNoFeedback","seqFeedback"],"classroomPairings":[["A","B"],["C","D"]],"coinWeights":[0.2,0.5,0.8],"subjectId":"AONSG5WOC3OX0","assignmentId":"3F1567XTNXRHYEANF9HQX9HL4AX9QD","hitId":"3JGHED38EDDK7DFM0KVY7GXU94LY7W","url":"https://gershmanlab.com/experiments/alicia/teaching/experiment/?hitId=3JGHED38EDDK7DFM0KVY7GXU94LY7W&workerId=AONSG5WOC3OX0&assignmentId=3F1567XTNXRHYEANF9HQX9HL4AX9QD&a=T61F9&tp_a=T61F9&b=3F1567XTNXRHYEANF9HQX9HL4AX9QD&tp_b=3F1567XTNXRHYEANF9HQX9HL4AX9QD&c=365799&tp_c=365799"},{"rt":2860,"stimulus":"\n                <p>Student's guess for coin weight: <b style=\"color:Tomato;\">0.60</b></p>\n                <p></b></p>\n                <p>You will now send another set of examples to your student. <b>Remember to take your student's guess into consideration so that you can earn the highest bonus possible!</b> </p>\n                <p>Press any key to continue.</p>\n                ","response":"enter","trial_type":"html-keyboard-response","trial_index":66,"time_elapsed":1057555,"internal_node_id":"0.0-65.0","params":{"nStudents":24,"maxFlips":30,"completionMinutes":45,"basePay":8,"maxBonus":9,"perTrialBonus":0.5,"perTrialBonusThreshold":0.05,"exampleCost":0.01},"classroomParams":{"A":{"a":1,"b":4},"B":{"a":4,"b":1},"C":{"a":2,"b":8},"D":{"a":8,"b":2}},"conditions":["nonSeqFull","nonSeqPartial","seqNoFeedback","seqFeedback"],"classroomPairings":[["A","B"],["C","D"]],"coinWeights":[0.2,0.5,0.8],"subjectId":"AONSG5WOC3OX0","assignmentId":"3F1567XTNXRHYEANF9HQX9HL4AX9QD","hitId":"3JGHED38EDDK7DFM0KVY7GXU94LY7W","url":"https://gershmanlab.com/experiments/alicia/teaching/experiment/?hitId=3JGHED38EDDK7DFM0KVY7GXU94LY7W&workerId=AONSG5WOC3OX0&assignmentId=3F1567XTNXRHYEANF9HQX9HL4AX9QD&a=T61F9&tp_a=T61F9&b=3F1567XTNXRHYEANF9HQX9HL4AX9QD&tp_b=3F1567XTNXRHYEANF9HQX9HL4AX9QD&c=365799&tp_c=365799"},{"rt":7072,"response":{"heads":"24","tails":"0"},"type":"response","condition":"seqFeedback","trueTheta":0.8,"classrooms":["C","D"],"studentTrueClassroom":"C","exampleSet":"second","trial_type":"survey-html-form","trial_index":67,"time_elapsed":1064628,"internal_node_id":"0.0-66.0-0.0","params":{"nStudents":24,"maxFlips":30,"completionMinutes":45,"basePay":8,"maxBonus":9,"perTrialBonus":0.5,"perTrialBonusThreshold":0.05,"exampleCost":0.01},"classroomParams":{"A":{"a":1,"b":4},"B":{"a":4,"b":1},"C":{"a":2,"b":8},"D":{"a":8,"b":2}},"conditions":["nonSeqFull","nonSeqPartial","seqNoFeedback","seqFeedback"],"classroomPairings":[["A","B"],["C","D"]],"coinWeights":[0.2,0.5,0.8],"subjectId":"AONSG5WOC3OX0","assignmentId":"3F1567XTNXRHYEANF9HQX9HL4AX9QD","hitId":"3JGHED38EDDK7DFM0KVY7GXU94LY7W","url":"https://gershmanlab.com/experiments/alicia/teaching/experiment/?hitId=3JGHED38EDDK7DFM0KVY7GXU94LY7W&workerId=AONSG5WOC3OX0&assignmentId=3F1567XTNXRHYEANF9HQX9HL4AX9QD&a=T61F9&tp_a=T61F9&b=3F1567XTNXRHYEANF9HQX9HL4AX9QD&tp_b=3F1567XTNXRHYEANF9HQX9HL4AX9QD&c=365799&tp_c=365799","firstResponseHeads":22,"firstResponseTails":8,"secondResponseHeads":24,"secondResponseTails":0,"totalHeads":46,"totalTails":8,"studentIndex":7,"studentTrueHypers":{"a":2,"b":8},"studentGuess":0.75,"delta":0.050000000000000044,"bonus":0,"bonusSoFar":0.05,"totalExamples":54},{"rt":null,"stimulus":"Sending examples to student... ","response":null,"trial_type":"html-keyboard-response","trial_index":68,"time_elapsed":1066129,"internal_node_id":"0.0-67.0","params":{"nStudents":24,"maxFlips":30,"completionMinutes":45,"basePay":8,"maxBonus":9,"perTrialBonus":0.5,"perTrialBonusThreshold":0.05,"exampleCost":0.01},"classroomParams":{"A":{"a":1,"b":4},"B":{"a":4,"b":1},"C":{"a":2,"b":8},"D":{"a":8,"b":2}},"conditions":["nonSeqFull","nonSeqPartial","seqNoFeedback","seqFeedback"],"classroomPairings":[["A","B"],["C","D"]],"coinWeights":[0.2,0.5,0.8],"subjectId":"AONSG5WOC3OX0","assignmentId":"3F1567XTNXRHYEANF9HQX9HL4AX9QD","hitId":"3JGHED38EDDK7DFM0KVY7GXU94LY7W","url":"https://gershmanlab.com/experiments/alicia/teaching/experiment/?hitId=3JGHED38EDDK7DFM0KVY7GXU94LY7W&workerId=AONSG5WOC3OX0&assignmentId=3F1567XTNXRHYEANF9HQX9HL4AX9QD&a=T61F9&tp_a=T61F9&b=3F1567XTNXRHYEANF9HQX9HL4AX9QD&tp_b=3F1567XTNXRHYEANF9HQX9HL4AX9QD&c=365799&tp_c=365799"},{"rt":null,"stimulus":"Examples sent to student! Waiting for student...","response":null,"trial_type":"html-keyboard-response","trial_index":69,"time_elapsed":1072130,"internal_node_id":"0.0-68.0","params":{"nStudents":24,"maxFlips":30,"completionMinutes":45,"basePay":8,"maxBonus":9,"perTrialBonus":0.5,"perTrialBonusThreshold":0.05,"exampleCost":0.01},"classroomParams":{"A":{"a":1,"b":4},"B":{"a":4,"b":1},"C":{"a":2,"b":8},"D":{"a":8,"b":2}},"conditions":["nonSeqFull","nonSeqPartial","seqNoFeedback","seqFeedback"],"classroomPairings":[["A","B"],["C","D"]],"coinWeights":[0.2,0.5,0.8],"subjectId":"AONSG5WOC3OX0","assignmentId":"3F1567XTNXRHYEANF9HQX9HL4AX9QD","hitId":"3JGHED38EDDK7DFM0KVY7GXU94LY7W","url":"https://gershmanlab.com/experiments/alicia/teaching/experiment/?hitId=3JGHED38EDDK7DFM0KVY7GXU94LY7W&workerId=AONSG5WOC3OX0&assignmentId=3F1567XTNXRHYEANF9HQX9HL4AX9QD&a=T61F9&tp_a=T61F9&b=3F1567XTNXRHYEANF9HQX9HL4AX9QD&tp_b=3F1567XTNXRHYEANF9HQX9HL4AX9QD&c=365799&tp_c=365799"},{"rt":1936,"stimulus":"\n                <p>Student 8's first guess for coin weight: <b style=\"color:Tomato\";>0.60</b></p>\n                <p>Student 8's second guess for coin weight: <b style=\"color:Tomato\";>0.75</b></p>\n                <p>You received a bonus of <b>$0.00</b> based on the student's second guess.</p>\n                <p>Total bonus so far: <b>$0.05</b></p>\n                <p>Press any key to continue.</p>\n                ","response":"enter","trial_type":"html-keyboard-response","trial_index":70,"time_elapsed":1074067,"internal_node_id":"0.0-69.0","params":{"nStudents":24,"maxFlips":30,"completionMinutes":45,"basePay":8,"maxBonus":9,"perTrialBonus":0.5,"perTrialBonusThreshold":0.05,"exampleCost":0.01},"classroomParams":{"A":{"a":1,"b":4},"B":{"a":4,"b":1},"C":{"a":2,"b":8},"D":{"a":8,"b":2}},"conditions":["nonSeqFull","nonSeqPartial","seqNoFeedback","seqFeedback"],"classroomPairings":[["A","B"],["C","D"]],"coinWeights":[0.2,0.5,0.8],"subjectId":"AONSG5WOC3OX0","assignmentId":"3F1567XTNXRHYEANF9HQX9HL4AX9QD","hitId":"3JGHED38EDDK7DFM0KVY7GXU94LY7W","url":"https://gershmanlab.com/experiments/alicia/teaching/experiment/?hitId=3JGHED38EDDK7DFM0KVY7GXU94LY7W&workerId=AONSG5WOC3OX0&assignmentId=3F1567XTNXRHYEANF9HQX9HL4AX9QD&a=T61F9&tp_a=T61F9&b=3F1567XTNXRHYEANF9HQX9HL4AX9QD&tp_b=3F1567XTNXRHYEANF9HQX9HL4AX9QD&c=365799&tp_c=365799"},{"rt":null,"stimulus":"<div style=\"font-size:60px;\">Next student</div>","response":null,"trial_type":"html-keyboard-response","trial_index":71,"time_elapsed":1076068,"internal_node_id":"0.0-70.0-0.0","params":{"nStudents":24,"maxFlips":30,"completionMinutes":45,"basePay":8,"maxBonus":9,"perTrialBonus":0.5,"perTrialBonusThreshold":0.05,"exampleCost":0.01},"classroomParams":{"A":{"a":1,"b":4},"B":{"a":4,"b":1},"C":{"a":2,"b":8},"D":{"a":8,"b":2}},"conditions":["nonSeqFull","nonSeqPartial","seqNoFeedback","seqFeedback"],"classroomPairings":[["A","B"],["C","D"]],"coinWeights":[0.2,0.5,0.8],"subjectId":"AONSG5WOC3OX0","assignmentId":"3F1567XTNXRHYEANF9HQX9HL4AX9QD","hitId":"3JGHED38EDDK7DFM0KVY7GXU94LY7W","url":"https://gershmanlab.com/experiments/alicia/teaching/experiment/?hitId=3JGHED38EDDK7DFM0KVY7GXU94LY7W&workerId=AONSG5WOC3OX0&assignmentId=3F1567XTNXRHYEANF9HQX9HL4AX9QD&a=T61F9&tp_a=T61F9&b=3F1567XTNXRHYEANF9HQX9HL4AX9QD&tp_b=3F1567XTNXRHYEANF9HQX9HL4AX9QD&c=365799&tp_c=365799"},{"rt":1734,"stimulus":"\n            <h4 style=\"color:Orange;\">Student 9</h4>\n            <h2>The weight of your coin is <b style=\"color:Tomato;\">0.8</b>.</h2>\n            <p>In this block, you will be giving <b>two</b> sets of examples to Student 9.</p>\n                <p>You will see the student's guess after the first set of examples. You will also receive feedback at the end of the block.</p>\n            <p>To earn the highest bonus, you will have to <b>take into consideration the student's guess</b> when you choose your second set of examples.</p>","response":0,"trial_type":"html-button-response","trial_index":72,"time_elapsed":1077803,"internal_node_id":"0.0-71.0","params":{"nStudents":24,"maxFlips":30,"completionMinutes":45,"basePay":8,"maxBonus":9,"perTrialBonus":0.5,"perTrialBonusThreshold":0.05,"exampleCost":0.01},"classroomParams":{"A":{"a":1,"b":4},"B":{"a":4,"b":1},"C":{"a":2,"b":8},"D":{"a":8,"b":2}},"conditions":["nonSeqFull","nonSeqPartial","seqNoFeedback","seqFeedback"],"classroomPairings":[["A","B"],["C","D"]],"coinWeights":[0.2,0.5,0.8],"subjectId":"AONSG5WOC3OX0","assignmentId":"3F1567XTNXRHYEANF9HQX9HL4AX9QD","hitId":"3JGHED38EDDK7DFM0KVY7GXU94LY7W","url":"https://gershmanlab.com/experiments/alicia/teaching/experiment/?hitId=3JGHED38EDDK7DFM0KVY7GXU94LY7W&workerId=AONSG5WOC3OX0&assignmentId=3F1567XTNXRHYEANF9HQX9HL4AX9QD&a=T61F9&tp_a=T61F9&b=3F1567XTNXRHYEANF9HQX9HL4AX9QD&tp_b=3F1567XTNXRHYEANF9HQX9HL4AX9QD&c=365799&tp_c=365799"},{"rt":17280,"response":{"heads":"23","tails":"0"},"type":"response","condition":"seqFeedback","trueTheta":0.8,"classrooms":["A","B"],"studentTrueClassroom":"B","exampleSet":"first","trial_type":"survey-html-form","trial_index":73,"time_elapsed":1095084,"internal_node_id":"0.0-72.0-0.0","params":{"nStudents":24,"maxFlips":30,"completionMinutes":45,"basePay":8,"maxBonus":9,"perTrialBonus":0.5,"perTrialBonusThreshold":0.05,"exampleCost":0.01},"classroomParams":{"A":{"a":1,"b":4},"B":{"a":4,"b":1},"C":{"a":2,"b":8},"D":{"a":8,"b":2}},"conditions":["nonSeqFull","nonSeqPartial","seqNoFeedback","seqFeedback"],"classroomPairings":[["A","B"],["C","D"]],"coinWeights":[0.2,0.5,0.8],"subjectId":"AONSG5WOC3OX0","assignmentId":"3F1567XTNXRHYEANF9HQX9HL4AX9QD","hitId":"3JGHED38EDDK7DFM0KVY7GXU94LY7W","url":"https://gershmanlab.com/experiments/alicia/teaching/experiment/?hitId=3JGHED38EDDK7DFM0KVY7GXU94LY7W&workerId=AONSG5WOC3OX0&assignmentId=3F1567XTNXRHYEANF9HQX9HL4AX9QD&a=T61F9&tp_a=T61F9&b=3F1567XTNXRHYEANF9HQX9HL4AX9QD&tp_b=3F1567XTNXRHYEANF9HQX9HL4AX9QD&c=365799&tp_c=365799","heads":23,"tails":0,"studentIndex":8,"studentTrueHypers":{"a":4,"b":1},"studentGuess":0.9642857142857143,"delta":0.16428571428571426,"totalExamples":23,"bonusSoFar":0.05},{"rt":null,"stimulus":"Sending examples to student... ","response":null,"trial_type":"html-keyboard-response","trial_index":74,"time_elapsed":1097086,"internal_node_id":"0.0-73.0","params":{"nStudents":24,"maxFlips":30,"completionMinutes":45,"basePay":8,"maxBonus":9,"perTrialBonus":0.5,"perTrialBonusThreshold":0.05,"exampleCost":0.01},"classroomParams":{"A":{"a":1,"b":4},"B":{"a":4,"b":1},"C":{"a":2,"b":8},"D":{"a":8,"b":2}},"conditions":["nonSeqFull","nonSeqPartial","seqNoFeedback","seqFeedback"],"classroomPairings":[["A","B"],["C","D"]],"coinWeights":[0.2,0.5,0.8],"subjectId":"AONSG5WOC3OX0","assignmentId":"3F1567XTNXRHYEANF9HQX9HL4AX9QD","hitId":"3JGHED38EDDK7DFM0KVY7GXU94LY7W","url":"https://gershmanlab.com/experiments/alicia/teaching/experiment/?hitId=3JGHED38EDDK7DFM0KVY7GXU94LY7W&workerId=AONSG5WOC3OX0&assignmentId=3F1567XTNXRHYEANF9HQX9HL4AX9QD&a=T61F9&tp_a=T61F9&b=3F1567XTNXRHYEANF9HQX9HL4AX9QD&tp_b=3F1567XTNXRHYEANF9HQX9HL4AX9QD&c=365799&tp_c=365799"},{"rt":null,"stimulus":"Examples sent to student! Waiting for student...","response":null,"trial_type":"html-keyboard-response","trial_index":75,"time_elapsed":1101587,"internal_node_id":"0.0-74.0","params":{"nStudents":24,"maxFlips":30,"completionMinutes":45,"basePay":8,"maxBonus":9,"perTrialBonus":0.5,"perTrialBonusThreshold":0.05,"exampleCost":0.01},"classroomParams":{"A":{"a":1,"b":4},"B":{"a":4,"b":1},"C":{"a":2,"b":8},"D":{"a":8,"b":2}},"conditions":["nonSeqFull","nonSeqPartial","seqNoFeedback","seqFeedback"],"classroomPairings":[["A","B"],["C","D"]],"coinWeights":[0.2,0.5,0.8],"subjectId":"AONSG5WOC3OX0","assignmentId":"3F1567XTNXRHYEANF9HQX9HL4AX9QD","hitId":"3JGHED38EDDK7DFM0KVY7GXU94LY7W","url":"https://gershmanlab.com/experiments/alicia/teaching/experiment/?hitId=3JGHED38EDDK7DFM0KVY7GXU94LY7W&workerId=AONSG5WOC3OX0&assignmentId=3F1567XTNXRHYEANF9HQX9HL4AX9QD&a=T61F9&tp_a=T61F9&b=3F1567XTNXRHYEANF9HQX9HL4AX9QD&tp_b=3F1567XTNXRHYEANF9HQX9HL4AX9QD&c=365799&tp_c=365799"},{"rt":14095,"stimulus":"\n                <p>Student's guess for coin weight: <b style=\"color:Tomato;\">0.96</b></p>\n                <p></b></p>\n                <p>You will now send another set of examples to your student. <b>Remember to take your student's guess into consideration so that you can earn the highest bonus possible!</b> </p>\n                <p>Press any key to continue.</p>\n                ","response":" ","trial_type":"html-keyboard-response","trial_index":76,"time_elapsed":1115683,"internal_node_id":"0.0-75.0","params":{"nStudents":24,"maxFlips":30,"completionMinutes":45,"basePay":8,"maxBonus":9,"perTrialBonus":0.5,"perTrialBonusThreshold":0.05,"exampleCost":0.01},"classroomParams":{"A":{"a":1,"b":4},"B":{"a":4,"b":1},"C":{"a":2,"b":8},"D":{"a":8,"b":2}},"conditions":["nonSeqFull","nonSeqPartial","seqNoFeedback","seqFeedback"],"classroomPairings":[["A","B"],["C","D"]],"coinWeights":[0.2,0.5,0.8],"subjectId":"AONSG5WOC3OX0","assignmentId":"3F1567XTNXRHYEANF9HQX9HL4AX9QD","hitId":"3JGHED38EDDK7DFM0KVY7GXU94LY7W","url":"https://gershmanlab.com/experiments/alicia/teaching/experiment/?hitId=3JGHED38EDDK7DFM0KVY7GXU94LY7W&workerId=AONSG5WOC3OX0&assignmentId=3F1567XTNXRHYEANF9HQX9HL4AX9QD&a=T61F9&tp_a=T61F9&b=3F1567XTNXRHYEANF9HQX9HL4AX9QD&tp_b=3F1567XTNXRHYEANF9HQX9HL4AX9QD&c=365799&tp_c=365799"},{"rt":7071,"response":{"heads":"16","tails":"0"},"type":"response","condition":"seqFeedback","trueTheta":0.8,"classrooms":["A","B"],"studentTrueClassroom":"B","exampleSet":"second","trial_type":"survey-html-form","trial_index":77,"time_elapsed":1122755,"internal_node_id":"0.0-76.0-0.0","params":{"nStudents":24,"maxFlips":30,"completionMinutes":45,"basePay":8,"maxBonus":9,"perTrialBonus":0.5,"perTrialBonusThreshold":0.05,"exampleCost":0.01},"classroomParams":{"A":{"a":1,"b":4},"B":{"a":4,"b":1},"C":{"a":2,"b":8},"D":{"a":8,"b":2}},"conditions":["nonSeqFull","nonSeqPartial","seqNoFeedback","seqFeedback"],"classroomPairings":[["A","B"],["C","D"]],"coinWeights":[0.2,0.5,0.8],"subjectId":"AONSG5WOC3OX0","assignmentId":"3F1567XTNXRHYEANF9HQX9HL4AX9QD","hitId":"3JGHED38EDDK7DFM0KVY7GXU94LY7W","url":"https://gershmanlab.com/experiments/alicia/teaching/experiment/?hitId=3JGHED38EDDK7DFM0KVY7GXU94LY7W&workerId=AONSG5WOC3OX0&assignmentId=3F1567XTNXRHYEANF9HQX9HL4AX9QD&a=T61F9&tp_a=T61F9&b=3F1567XTNXRHYEANF9HQX9HL4AX9QD&tp_b=3F1567XTNXRHYEANF9HQX9HL4AX9QD&c=365799&tp_c=365799","firstResponseHeads":23,"firstResponseTails":0,"secondResponseHeads":16,"secondResponseTails":0,"totalHeads":39,"totalTails":0,"studentIndex":8,"studentTrueHypers":{"a":4,"b":1},"studentGuess":0.9772727272727273,"delta":0.17727272727272725,"bonus":0,"bonusSoFar":0.05,"totalExamples":39},{"rt":null,"stimulus":"Sending examples to student... ","response":null,"trial_type":"html-keyboard-response","trial_index":78,"time_elapsed":1124257,"internal_node_id":"0.0-77.0","params":{"nStudents":24,"maxFlips":30,"completionMinutes":45,"basePay":8,"maxBonus":9,"perTrialBonus":0.5,"perTrialBonusThreshold":0.05,"exampleCost":0.01},"classroomParams":{"A":{"a":1,"b":4},"B":{"a":4,"b":1},"C":{"a":2,"b":8},"D":{"a":8,"b":2}},"conditions":["nonSeqFull","nonSeqPartial","seqNoFeedback","seqFeedback"],"classroomPairings":[["A","B"],["C","D"]],"coinWeights":[0.2,0.5,0.8],"subjectId":"AONSG5WOC3OX0","assignmentId":"3F1567XTNXRHYEANF9HQX9HL4AX9QD","hitId":"3JGHED38EDDK7DFM0KVY7GXU94LY7W","url":"https://gershmanlab.com/experiments/alicia/teaching/experiment/?hitId=3JGHED38EDDK7DFM0KVY7GXU94LY7W&workerId=AONSG5WOC3OX0&assignmentId=3F1567XTNXRHYEANF9HQX9HL4AX9QD&a=T61F9&tp_a=T61F9&b=3F1567XTNXRHYEANF9HQX9HL4AX9QD&tp_b=3F1567XTNXRHYEANF9HQX9HL4AX9QD&c=365799&tp_c=365799"},{"rt":null,"stimulus":"Examples sent to student! Waiting for student...","response":null,"trial_type":"html-keyboard-response","trial_index":79,"time_elapsed":1128758,"internal_node_id":"0.0-78.0","params":{"nStudents":24,"maxFlips":30,"completionMinutes":45,"basePay":8,"maxBonus":9,"perTrialBonus":0.5,"perTrialBonusThreshold":0.05,"exampleCost":0.01},"classroomParams":{"A":{"a":1,"b":4},"B":{"a":4,"b":1},"C":{"a":2,"b":8},"D":{"a":8,"b":2}},"conditions":["nonSeqFull","nonSeqPartial","seqNoFeedback","seqFeedback"],"classroomPairings":[["A","B"],["C","D"]],"coinWeights":[0.2,0.5,0.8],"subjectId":"AONSG5WOC3OX0","assignmentId":"3F1567XTNXRHYEANF9HQX9HL4AX9QD","hitId":"3JGHED38EDDK7DFM0KVY7GXU94LY7W","url":"https://gershmanlab.com/experiments/alicia/teaching/experiment/?hitId=3JGHED38EDDK7DFM0KVY7GXU94LY7W&workerId=AONSG5WOC3OX0&assignmentId=3F1567XTNXRHYEANF9HQX9HL4AX9QD&a=T61F9&tp_a=T61F9&b=3F1567XTNXRHYEANF9HQX9HL4AX9QD&tp_b=3F1567XTNXRHYEANF9HQX9HL4AX9QD&c=365799&tp_c=365799"},{"rt":5292,"stimulus":"\n                <p>Student 9's first guess for coin weight: <b style=\"color:Tomato\";>0.96</b></p>\n                <p>Student 9's second guess for coin weight: <b style=\"color:Tomato\";>0.98</b></p>\n                <p>You received a bonus of <b>$0.00</b> based on the student's second guess.</p>\n                <p>Total bonus so far: <b>$0.05</b></p>\n                <p>Press any key to continue.</p>\n                ","response":"enter","trial_type":"html-keyboard-response","trial_index":80,"time_elapsed":1134051,"internal_node_id":"0.0-79.0","params":{"nStudents":24,"maxFlips":30,"completionMinutes":45,"basePay":8,"maxBonus":9,"perTrialBonus":0.5,"perTrialBonusThreshold":0.05,"exampleCost":0.01},"classroomParams":{"A":{"a":1,"b":4},"B":{"a":4,"b":1},"C":{"a":2,"b":8},"D":{"a":8,"b":2}},"conditions":["nonSeqFull","nonSeqPartial","seqNoFeedback","seqFeedback"],"classroomPairings":[["A","B"],["C","D"]],"coinWeights":[0.2,0.5,0.8],"subjectId":"AONSG5WOC3OX0","assignmentId":"3F1567XTNXRHYEANF9HQX9HL4AX9QD","hitId":"3JGHED38EDDK7DFM0KVY7GXU94LY7W","url":"https://gershmanlab.com/experiments/alicia/teaching/experiment/?hitId=3JGHED38EDDK7DFM0KVY7GXU94LY7W&workerId=AONSG5WOC3OX0&assignmentId=3F1567XTNXRHYEANF9HQX9HL4AX9QD&a=T61F9&tp_a=T61F9&b=3F1567XTNXRHYEANF9HQX9HL4AX9QD&tp_b=3F1567XTNXRHYEANF9HQX9HL4AX9QD&c=365799&tp_c=365799"},{"rt":null,"stimulus":"<div style=\"font-size:60px;\">Next student</div>","response":null,"trial_type":"html-keyboard-response","trial_index":81,"time_elapsed":1137053,"internal_node_id":"0.0-80.0-0.0","params":{"nStudents":24,"maxFlips":30,"completionMinutes":45,"basePay":8,"maxBonus":9,"perTrialBonus":0.5,"perTrialBonusThreshold":0.05,"exampleCost":0.01},"classroomParams":{"A":{"a":1,"b":4},"B":{"a":4,"b":1},"C":{"a":2,"b":8},"D":{"a":8,"b":2}},"conditions":["nonSeqFull","nonSeqPartial","seqNoFeedback","seqFeedback"],"classroomPairings":[["A","B"],["C","D"]],"coinWeights":[0.2,0.5,0.8],"subjectId":"AONSG5WOC3OX0","assignmentId":"3F1567XTNXRHYEANF9HQX9HL4AX9QD","hitId":"3JGHED38EDDK7DFM0KVY7GXU94LY7W","url":"https://gershmanlab.com/experiments/alicia/teaching/experiment/?hitId=3JGHED38EDDK7DFM0KVY7GXU94LY7W&workerId=AONSG5WOC3OX0&assignmentId=3F1567XTNXRHYEANF9HQX9HL4AX9QD&a=T61F9&tp_a=T61F9&b=3F1567XTNXRHYEANF9HQX9HL4AX9QD&tp_b=3F1567XTNXRHYEANF9HQX9HL4AX9QD&c=365799&tp_c=365799"},{"rt":2133,"stimulus":"\n            <h4 style=\"color:Orange;\">Student 10</h4>\n            <h2>The weight of your coin is <b style=\"color:Tomato;\">0.2</b>.</h2>\n            <p>In this block, you will be giving <b>one</b> set of examples to Student 10.</p>\n                <p>You will receive feedback at the end of the block.</p>\n            <p></p>","response":0,"trial_type":"html-button-response","trial_index":82,"time_elapsed":1139187,"internal_node_id":"0.0-81.0","params":{"nStudents":24,"maxFlips":30,"completionMinutes":45,"basePay":8,"maxBonus":9,"perTrialBonus":0.5,"perTrialBonusThreshold":0.05,"exampleCost":0.01},"classroomParams":{"A":{"a":1,"b":4},"B":{"a":4,"b":1},"C":{"a":2,"b":8},"D":{"a":8,"b":2}},"conditions":["nonSeqFull","nonSeqPartial","seqNoFeedback","seqFeedback"],"classroomPairings":[["A","B"],["C","D"]],"coinWeights":[0.2,0.5,0.8],"subjectId":"AONSG5WOC3OX0","assignmentId":"3F1567XTNXRHYEANF9HQX9HL4AX9QD","hitId":"3JGHED38EDDK7DFM0KVY7GXU94LY7W","url":"https://gershmanlab.com/experiments/alicia/teaching/experiment/?hitId=3JGHED38EDDK7DFM0KVY7GXU94LY7W&workerId=AONSG5WOC3OX0&assignmentId=3F1567XTNXRHYEANF9HQX9HL4AX9QD&a=T61F9&tp_a=T61F9&b=3F1567XTNXRHYEANF9HQX9HL4AX9QD&tp_b=3F1567XTNXRHYEANF9HQX9HL4AX9QD&c=365799&tp_c=365799"},{"rt":3720,"response":{"heads":"0","tails":"14"},"type":"response","condition":"nonSeqFull","trueTheta":0.2,"classrooms":["C","D"],"studentTrueClassroom":"D","exampleSet":"first","trial_type":"survey-html-form","trial_index":83,"time_elapsed":1142907,"internal_node_id":"0.0-82.0-0.0","params":{"nStudents":24,"maxFlips":30,"completionMinutes":45,"basePay":8,"maxBonus":9,"perTrialBonus":0.5,"perTrialBonusThreshold":0.05,"exampleCost":0.01},"classroomParams":{"A":{"a":1,"b":4},"B":{"a":4,"b":1},"C":{"a":2,"b":8},"D":{"a":8,"b":2}},"conditions":["nonSeqFull","nonSeqPartial","seqNoFeedback","seqFeedback"],"classroomPairings":[["A","B"],["C","D"]],"coinWeights":[0.2,0.5,0.8],"subjectId":"AONSG5WOC3OX0","assignmentId":"3F1567XTNXRHYEANF9HQX9HL4AX9QD","hitId":"3JGHED38EDDK7DFM0KVY7GXU94LY7W","url":"https://gershmanlab.com/experiments/alicia/teaching/experiment/?hitId=3JGHED38EDDK7DFM0KVY7GXU94LY7W&workerId=AONSG5WOC3OX0&assignmentId=3F1567XTNXRHYEANF9HQX9HL4AX9QD&a=T61F9&tp_a=T61F9&b=3F1567XTNXRHYEANF9HQX9HL4AX9QD&tp_b=3F1567XTNXRHYEANF9HQX9HL4AX9QD&c=365799&tp_c=365799","heads":0,"tails":14,"studentIndex":9,"studentTrueHypers":{"a":8,"b":2},"studentGuess":0.3333333333333333,"delta":0.1333333333333333,"totalExamples":14,"bonus":0,"bonusSoFar":0.05},{"rt":null,"stimulus":"Sending examples to student... ","response":null,"trial_type":"html-keyboard-response","trial_index":84,"time_elapsed":1144659,"internal_node_id":"0.0-83.0","params":{"nStudents":24,"maxFlips":30,"completionMinutes":45,"basePay":8,"maxBonus":9,"perTrialBonus":0.5,"perTrialBonusThreshold":0.05,"exampleCost":0.01},"classroomParams":{"A":{"a":1,"b":4},"B":{"a":4,"b":1},"C":{"a":2,"b":8},"D":{"a":8,"b":2}},"conditions":["nonSeqFull","nonSeqPartial","seqNoFeedback","seqFeedback"],"classroomPairings":[["A","B"],["C","D"]],"coinWeights":[0.2,0.5,0.8],"subjectId":"AONSG5WOC3OX0","assignmentId":"3F1567XTNXRHYEANF9HQX9HL4AX9QD","hitId":"3JGHED38EDDK7DFM0KVY7GXU94LY7W","url":"https://gershmanlab.com/experiments/alicia/teaching/experiment/?hitId=3JGHED38EDDK7DFM0KVY7GXU94LY7W&workerId=AONSG5WOC3OX0&assignmentId=3F1567XTNXRHYEANF9HQX9HL4AX9QD&a=T61F9&tp_a=T61F9&b=3F1567XTNXRHYEANF9HQX9HL4AX9QD&tp_b=3F1567XTNXRHYEANF9HQX9HL4AX9QD&c=365799&tp_c=365799"},{"rt":null,"stimulus":"Examples sent to student