[{"rt":6537,"stimulus":"Welcome to the experiment. Press any key to begin.","response":" ","trial_type":"html-keyboard-response","trial_index":0,"time_elapsed":6553,"internal_node_id":"0.0-0.0","params":{"nStudents":24,"maxFlips":30,"completionMinutes":45,"basePay":8,"maxBonus":9,"perTrialBonus":0.5,"perTrialBonusThreshold":0.05,"exampleCost":0.01},"classroomParams":{"A":{"a":1,"b":4},"B":{"a":4,"b":1},"C":{"a":2,"b":8},"D":{"a":8,"b":2}},"conditions":["nonSeqFull","nonSeqPartial","seqNoFeedback","seqFeedback"],"classroomPairings":[["A","B"],["C","D"]],"coinWeights":[0.2,0.5,0.8],"subjectId":"AOS2PVHT2HYTL","assignmentId":"3YT88D1N09K989NCLVWJAA2Q5BA3KB","hitId":"34KYK9TV2RUAD363EVFPUWVPB97SBP","url":"https://gershmanlab.com/experiments/alicia/teaching/experiment/?hitId=34KYK9TV2RUAD363EVFPUWVPB97SBP&workerId=AOS2PVHT2HYTL&assignmentId=3YT88D1N09K989NCLVWJAA2Q5BA3KB&a=N8TY7&tp_a=N8TY7&b=3YT88D1N09K989NCLVWJAA2Q5BA3KB&tp_b=3YT88D1N09K989NCLVWJAA2Q5BA3KB&c=365717&tp_c=365717"},{"rt":23047,"stimulus":"\n        <h3>Please read this consent agreement carefully before deciding whether to participate in this experiment.</h3>\n        <p><b>Purpose of the research:</b> To examine how people teach effectively.</p>\n        <p><b>What you will do in this research:</b> You will teach students the weights of different coins.</p>\n        <p><b>Time required:</b> This experiment will take 45 minutes to complete.</p>\n        <p><b>Risks:</b> There are no anticipated risks associated with participating in this study.             The effects of participating should be comparable to those you would experience from viewing a computer monitor             and using a mouse and keyboard for the duration of the experiment.</p>\n        <p><b>Benefits:</b> The study provides important information about the nature of teaching.</p>\n        <p><b>Compensation:</b> You will receive <b>$8</b> for completing the experiment and a performance bonus of up to <b>$9</b>.</p>\n        <p><b>Confidentiality:</b> Your participation in this study will remain confidential.             No personally identifiable information will be associated with your data.             Your de-identified data may be shared with other researchers and used in future projects.</p>\n        <p><b>Participation and withdrawal:</b> Your participation in this study is completely voluntary and             you may refuse to participate or you may choose to withdraw at any time without penalty or loss of\n            benefits to which you are otherwise entitled.</p>\n        <p><b>How to contact the researcher:</b> If you have questions or concerns about your participation            or payment, or want to request a summary of research findings, please contact\n            Alicia Chen, aliciachen@college.harvard.edu.</p>\n        <p><b>Whom to contact about your rights in this research:</b> For questions, concerns, suggestions,             or complaints that have not been or cannot be addressed by the researcher, or to report             research-related harm, please contact the Committee on the Use of Human Subjects in Research at Harvard University,             1414 Massachusetts Avenue, Second Floor, Cambridge, MA 02138. Phone: 617-496-2847. Email: cuhs@fas.harvard.edu.</p>\n        ","response":0,"trial_type":"html-button-response","trial_index":1,"time_elapsed":29605,"internal_node_id":"0.0-1.0","params":{"nStudents":24,"maxFlips":30,"completionMinutes":45,"basePay":8,"maxBonus":9,"perTrialBonus":0.5,"perTrialBonusThreshold":0.05,"exampleCost":0.01},"classroomParams":{"A":{"a":1,"b":4},"B":{"a":4,"b":1},"C":{"a":2,"b":8},"D":{"a":8,"b":2}},"conditions":["nonSeqFull","nonSeqPartial","seqNoFeedback","seqFeedback"],"classroomPairings":[["A","B"],["C","D"]],"coinWeights":[0.2,0.5,0.8],"subjectId":"AOS2PVHT2HYTL","assignmentId":"3YT88D1N09K989NCLVWJAA2Q5BA3KB","hitId":"34KYK9TV2RUAD363EVFPUWVPB97SBP","url":"https://gershmanlab.com/experiments/alicia/teaching/experiment/?hitId=34KYK9TV2RUAD363EVFPUWVPB97SBP&workerId=AOS2PVHT2HYTL&assignmentId=3YT88D1N09K989NCLVWJAA2Q5BA3KB&a=N8TY7&tp_a=N8TY7&b=3YT88D1N09K989NCLVWJAA2Q5BA3KB&tp_b=3YT88D1N09K989NCLVWJAA2Q5BA3KB&c=365717&tp_c=365717"},{"view_history":[{"page_index":0,"viewing_time":7693},{"page_index":1,"viewing_time":6486},{"page_index":2,"viewing_time":106876},{"page_index":3,"viewing_time":59648},{"page_index":4,"viewing_time":27236},{"page_index":5,"viewing_time":64973},{"page_index":6,"viewing_time":94691}],"rt":367604,"trial_type":"instructions","trial_index":2,"time_elapsed":397211,"internal_node_id":"0.0-2.0-0.0","params":{"nStudents":24,"maxFlips":30,"completionMinutes":45,"basePay":8,"maxBonus":9,"perTrialBonus":0.5,"perTrialBonusThreshold":0.05,"exampleCost":0.01},"classroomParams":{"A":{"a":1,"b":4},"B":{"a":4,"b":1},"C":{"a":2,"b":8},"D":{"a":8,"b":2}},"conditions":["nonSeqFull","nonSeqPartial","seqNoFeedback","seqFeedback"],"classroomPairings":[["A","B"],["C","D"]],"coinWeights":[0.2,0.5,0.8],"subjectId":"AOS2PVHT2HYTL","assignmentId":"3YT88D1N09K989NCLVWJAA2Q5BA3KB","hitId":"34KYK9TV2RUAD363EVFPUWVPB97SBP","url":"https://gershmanlab.com/experiments/alicia/teaching/experiment/?hitId=34KYK9TV2RUAD363EVFPUWVPB97SBP&workerId=AOS2PVHT2HYTL&assignmentId=3YT88D1N09K989NCLVWJAA2Q5BA3KB&a=N8TY7&tp_a=N8TY7&b=3YT88D1N09K989NCLVWJAA2Q5BA3KB&tp_b=3YT88D1N09K989NCLVWJAA2Q5BA3KB&c=365717&tp_c=365717"},{"rt":65743,"response":{"Q0":"Students in different classrooms will have seen a different number of heads and tails before seeing the examples you select for them.","Q1":"By <b>considering the student's classroom information</b> so that I can teach efficiently and accurately/helpfully at the same time (because each example I give to the student costs money!).","Q2":"The coin lands heads 90% of the time.","Q3":"No, I will teach a <b>new</b> student each time.","Q4":"The students are also on the same alien planet as you, where coins can be unfair.","Q5":"Based on the student's second (and final) guess."},"question_order":[1,3,0,2,4,5],"trial_type":"survey-multi-choice","trial_index":3,"time_elapsed":462961,"internal_node_id":"0.0-2.0-1.0","params":{"nStudents":24,"maxFlips":30,"completionMinutes":45,"basePay":8,"maxBonus":9,"perTrialBonus":0.5,"perTrialBonusThreshold":0.05,"exampleCost":0.01},"classroomParams":{"A":{"a":1,"b":4},"B":{"a":4,"b":1},"C":{"a":2,"b":8},"D":{"a":8,"b":2}},"conditions":["nonSeqFull","nonSeqPartial","seqNoFeedback","seqFeedback"],"classroomPairings":[["A","B"],["C","D"]],"coinWeights":[0.2,0.5,0.8],"subjectId":"AOS2PVHT2HYTL","assignmentId":"3YT88D1N09K989NCLVWJAA2Q5BA3KB","hitId":"34KYK9TV2RUAD363EVFPUWVPB97SBP","url":"https://gershmanlab.com/experiments/alicia/teaching/experiment/?hitId=34KYK9TV2RUAD363EVFPUWVPB97SBP&workerId=AOS2PVHT2HYTL&assignmentId=3YT88D1N09K989NCLVWJAA2Q5BA3KB&a=N8TY7&tp_a=N8TY7&b=3YT88D1N09K989NCLVWJAA2Q5BA3KB&tp_b=3YT88D1N09K989NCLVWJAA2Q5BA3KB&c=365717&tp_c=365717","pass":true},{"rt":null,"stimulus":"<div style=\"font-size:30px;\">Congrats on passing the comprehension quiz! The experiment will begin in a few seconds.</div>","response":null,"trial_type":"html-keyboard-response","trial_index":4,"time_elapsed":465991,"internal_node_id":"0.0-3.0","params":{"nStudents":24,"maxFlips":30,"completionMinutes":45,"basePay":8,"maxBonus":9,"perTrialBonus":0.5,"perTrialBonusThreshold":0.05,"exampleCost":0.01},"classroomParams":{"A":{"a":1,"b":4},"B":{"a":4,"b":1},"C":{"a":2,"b":8},"D":{"a":8,"b":2}},"conditions":["nonSeqFull","nonSeqPartial","seqNoFeedback","seqFeedback"],"classroomPairings":[["A","B"],["C","D"]],"coinWeights":[0.2,0.5,0.8],"subjectId":"AOS2PVHT2HYTL","assignmentId":"3YT88D1N09K989NCLVWJAA2Q5BA3KB","hitId":"34KYK9TV2RUAD363EVFPUWVPB97SBP","url":"https://gershmanlab.com/experiments/alicia/teaching/experiment/?hitId=34KYK9TV2RUAD363EVFPUWVPB97SBP&workerId=AOS2PVHT2HYTL&assignmentId=3YT88D1N09K989NCLVWJAA2Q5BA3KB&a=N8TY7&tp_a=N8TY7&b=3YT88D1N09K989NCLVWJAA2Q5BA3KB&tp_b=3YT88D1N09K989NCLVWJAA2Q5BA3KB&c=365717&tp_c=365717"},{"rt":null,"stimulus":"<div style=\"font-size:50px;\">First student</div>","response":null,"trial_type":"html-keyboard-response","trial_index":5,"time_elapsed":469003,"internal_node_id":"0.0-4.0","params":{"nStudents":24,"maxFlips":30,"completionMinutes":45,"basePay":8,"maxBonus":9,"perTrialBonus":0.5,"perTrialBonusThreshold":0.05,"exampleCost":0.01},"classroomParams":{"A":{"a":1,"b":4},"B":{"a":4,"b":1},"C":{"a":2,"b":8},"D":{"a":8,"b":2}},"conditions":["nonSeqFull","nonSeqPartial","seqNoFeedback","seqFeedback"],"classroomPairings":[["A","B"],["C","D"]],"coinWeights":[0.2,0.5,0.8],"subjectId":"AOS2PVHT2HYTL","assignmentId":"3YT88D1N09K989NCLVWJAA2Q5BA3KB","hitId":"34KYK9TV2RUAD363EVFPUWVPB97SBP","url":"https://gershmanlab.com/experiments/alicia/teaching/experiment/?hitId=34KYK9TV2RUAD363EVFPUWVPB97SBP&workerId=AOS2PVHT2HYTL&assignmentId=3YT88D1N09K989NCLVWJAA2Q5BA3KB&a=N8TY7&tp_a=N8TY7&b=3YT88D1N09K989NCLVWJAA2Q5BA3KB&tp_b=3YT88D1N09K989NCLVWJAA2Q5BA3KB&c=365717&tp_c=365717"},{"rt":15417,"stimulus":"\n            <h4 style=\"color:Orange;\">Student 1</h4>\n            <h2>The weight of your coin is <b style=\"color:Tomato;\">0.5</b>.</h2>\n            <p>In this block, you will be giving <b>two</b> sets of examples to Student 1.</p>\n                <p>You will receive feedback at the end of the block.</p>\n            <p></p>","response":0,"trial_type":"html-button-response","trial_index":6,"time_elapsed":484425,"internal_node_id":"0.0-5.0","params":{"nStudents":24,"maxFlips":30,"completionMinutes":45,"basePay":8,"maxBonus":9,"perTrialBonus":0.5,"perTrialBonusThreshold":0.05,"exampleCost":0.01},"classroomParams":{"A":{"a":1,"b":4},"B":{"a":4,"b":1},"C":{"a":2,"b":8},"D":{"a":8,"b":2}},"conditions":["nonSeqFull","nonSeqPartial","seqNoFeedback","seqFeedback"],"classroomPairings":[["A","B"],["C","D"]],"coinWeights":[0.2,0.5,0.8],"subjectId":"AOS2PVHT2HYTL","assignmentId":"3YT88D1N09K989NCLVWJAA2Q5BA3KB","hitId":"34KYK9TV2RUAD363EVFPUWVPB97SBP","url":"https://gershmanlab.com/experiments/alicia/teaching/experiment/?hitId=34KYK9TV2RUAD363EVFPUWVPB97SBP&workerId=AOS2PVHT2HYTL&assignmentId=3YT88D1N09K989NCLVWJAA2Q5BA3KB&a=N8TY7&tp_a=N8TY7&b=3YT88D1N09K989NCLVWJAA2Q5BA3KB&tp_b=3YT88D1N09K989NCLVWJAA2Q5BA3KB&c=365717&tp_c=365717"},{"rt":45002,"response":{"heads":"10","tails":"10"},"type":"response","condition":"seqNoFeedback","trueTheta":0.5,"classrooms":["A","B"],"studentTrueClassroom":"B","exampleSet":"first","trial_type":"survey-html-form","trial_index":7,"time_elapsed":529432,"internal_node_id":"0.0-6.0-0.0","params":{"nStudents":24,"maxFlips":30,"completionMinutes":45,"basePay":8,"maxBonus":9,"perTrialBonus":0.5,"perTrialBonusThreshold":0.05,"exampleCost":0.01},"classroomParams":{"A":{"a":1,"b":4},"B":{"a":4,"b":1},"C":{"a":2,"b":8},"D":{"a":8,"b":2}},"conditions":["nonSeqFull","nonSeqPartial","seqNoFeedback","seqFeedback"],"classroomPairings":[["A","B"],["C","D"]],"coinWeights":[0.2,0.5,0.8],"subjectId":"AOS2PVHT2HYTL","assignmentId":"3YT88D1N09K989NCLVWJAA2Q5BA3KB","hitId":"34KYK9TV2RUAD363EVFPUWVPB97SBP","url":"https://gershmanlab.com/experiments/alicia/teaching/experiment/?hitId=34KYK9TV2RUAD363EVFPUWVPB97SBP&workerId=AOS2PVHT2HYTL&assignmentId=3YT88D1N09K989NCLVWJAA2Q5BA3KB&a=N8TY7&tp_a=N8TY7&b=3YT88D1N09K989NCLVWJAA2Q5BA3KB&tp_b=3YT88D1N09K989NCLVWJAA2Q5BA3KB&c=365717&tp_c=365717","heads":10,"tails":10,"studentIndex":0,"studentTrueHypers":{"a":4,"b":1},"studentGuess":0.56,"delta":0.06000000000000005,"totalExamples":20,"bonusSoFar":0},{"rt":null,"stimulus":"Sending examples to student... ","response":null,"trial_type":"html-keyboard-response","trial_index":8,"time_elapsed":531453,"internal_node_id":"0.0-7.0","params":{"nStudents":24,"maxFlips":30,"completionMinutes":45,"basePay":8,"maxBonus":9,"perTrialBonus":0.5,"perTrialBonusThreshold":0.05,"exampleCost":0.01},"classroomParams":{"A":{"a":1,"b":4},"B":{"a":4,"b":1},"C":{"a":2,"b":8},"D":{"a":8,"b":2}},"conditions":["nonSeqFull","nonSeqPartial","seqNoFeedback","seqFeedback"],"classroomPairings":[["A","B"],["C","D"]],"coinWeights":[0.2,0.5,0.8],"subjectId":"AOS2PVHT2HYTL","assignmentId":"3YT88D1N09K989NCLVWJAA2Q5BA3KB","hitId":"34KYK9TV2RUAD363EVFPUWVPB97SBP","url":"https://gershmanlab.com/experiments/alicia/teaching/experiment/?hitId=34KYK9TV2RUAD363EVFPUWVPB97SBP&workerId=AOS2PVHT2HYTL&assignmentId=3YT88D1N09K989NCLVWJAA2Q5BA3KB&a=N8TY7&tp_a=N8TY7&b=3YT88D1N09K989NCLVWJAA2Q5BA3KB&tp_b=3YT88D1N09K989NCLVWJAA2Q5BA3KB&c=365717&tp_c=365717"},{"rt":null,"stimulus":"Examples sent to student! Waiting for student...","response":null,"trial_type":"html-keyboard-response","trial_index":9,"time_elapsed":536459,"internal_node_id":"0.0-8.0","params":{"nStudents":24,"maxFlips":30,"completionMinutes":45,"basePay":8,"maxBonus":9,"perTrialBonus":0.5,"perTrialBonusThreshold":0.05,"exampleCost":0.01},"classroomParams":{"A":{"a":1,"b":4},"B":{"a":4,"b":1},"C":{"a":2,"b":8},"D":{"a":8,"b":2}},"conditions":["nonSeqFull","nonSeqPartial","seqNoFeedback","seqFeedback"],"classroomPairings":[["A","B"],["C","D"]],"coinWeights":[0.2,0.5,0.8],"subjectId":"AOS2PVHT2HYTL","assignmentId":"3YT88D1N09K989NCLVWJAA2Q5BA3KB","hitId":"34KYK9TV2RUAD363EVFPUWVPB97SBP","url":"https://gershmanlab.com/experiments/alicia/teaching/experiment/?hitId=34KYK9TV2RUAD363EVFPUWVPB97SBP&workerId=AOS2PVHT2HYTL&assignmentId=3YT88D1N09K989NCLVWJAA2Q5BA3KB&a=N8TY7&tp_a=N8TY7&b=3YT88D1N09K989NCLVWJAA2Q5BA3KB&tp_b=3YT88D1N09K989NCLVWJAA2Q5BA3KB&c=365717&tp_c=365717"},{"rt":23494,"response":{"heads":"10","tails":"10"},"type":"response","condition":"seqNoFeedback","trueTheta":0.5,"classrooms":["A","B"],"studentTrueClassroom":"B","exampleSet":"second","trial_type":"survey-html-form","trial_index":10,"time_elapsed":559958,"internal_node_id":"0.0-9.0-0.0","params":{"nStudents":24,"maxFlips":30,"completionMinutes":45,"basePay":8,"maxBonus":9,"perTrialBonus":0.5,"perTrialBonusThreshold":0.05,"exampleCost":0.01},"classroomParams":{"A":{"a":1,"b":4},"B":{"a":4,"b":1},"C":{"a":2,"b":8},"D":{"a":8,"b":2}},"conditions":["nonSeqFull","nonSeqPartial","seqNoFeedback","seqFeedback"],"classroomPairings":[["A","B"],["C","D"]],"coinWeights":[0.2,0.5,0.8],"subjectId":"AOS2PVHT2HYTL","assignmentId":"3YT88D1N09K989NCLVWJAA2Q5BA3KB","hitId":"34KYK9TV2RUAD363EVFPUWVPB97SBP","url":"https://gershmanlab.com/experiments/alicia/teaching/experiment/?hitId=34KYK9TV2RUAD363EVFPUWVPB97SBP&workerId=AOS2PVHT2HYTL&assignmentId=3YT88D1N09K989NCLVWJAA2Q5BA3KB&a=N8TY7&tp_a=N8TY7&b=3YT88D1N09K989NCLVWJAA2Q5BA3KB&tp_b=3YT88D1N09K989NCLVWJAA2Q5BA3KB&c=365717&tp_c=365717","firstResponseHeads":10,"firstResponseTails":10,"secondResponseHeads":10,"secondResponseTails":10,"totalHeads":20,"totalTails":20,"studentIndex":0,"studentTrueHypers":{"a":4,"b":1},"studentGuess":0.5333333333333333,"delta":0.033333333333333326,"bonus":0.1,"bonusSoFar":0.1,"totalExamples":40},{"rt":null,"stimulus":"Sending examples to student... ","response":null,"trial_type":"html-keyboard-response","trial_index":11,"time_elapsed":561967,"internal_node_id":"0.0-10.0","params":{"nStudents":24,"maxFlips":30,"completionMinutes":45,"basePay":8,"maxBonus":9,"perTrialBonus":0.5,"perTrialBonusThreshold":0.05,"exampleCost":0.01},"classroomParams":{"A":{"a":1,"b":4},"B":{"a":4,"b":1},"C":{"a":2,"b":8},"D":{"a":8,"b":2}},"conditions":["nonSeqFull","nonSeqPartial","seqNoFeedback","seqFeedback"],"classroomPairings":[["A","B"],["C","D"]],"coinWeights":[0.2,0.5,0.8],"subjectId":"AOS2PVHT2HYTL","assignmentId":"3YT88D1N09K989NCLVWJAA2Q5BA3KB","hitId":"34KYK9TV2RUAD363EVFPUWVPB97SBP","url":"https://gershmanlab.com/experiments/alicia/teaching/experiment/?hitId=34KYK9TV2RUAD363EVFPUWVPB97SBP&workerId=AOS2PVHT2HYTL&assignmentId=3YT88D1N09K989NCLVWJAA2Q5BA3KB&a=N8TY7&tp_a=N8TY7&b=3YT88D1N09K989NCLVWJAA2Q5BA3KB&tp_b=3YT88D1N09K989NCLVWJAA2Q5BA3KB&c=365717&tp_c=365717"},{"rt":null,"stimulus":"Examples sent to student! Waiting for student...","response":null,"trial_type":"html-keyboard-response","trial_index":12,"time_elapsed":565976,"internal_node_id":"0.0-11.0","params":{"nStudents":24,"maxFlips":30,"completionMinutes":45,"basePay":8,"maxBonus":9,"perTrialBonus":0.5,"perTrialBonusThreshold":0.05,"exampleCost":0.01},"classroomParams":{"A":{"a":1,"b":4},"B":{"a":4,"b":1},"C":{"a":2,"b":8},"D":{"a":8,"b":2}},"conditions":["nonSeqFull","nonSeqPartial","seqNoFeedback","seqFeedback"],"classroomPairings":[["A","B"],["C","D"]],"coinWeights":[0.2,0.5,0.8],"subjectId":"AOS2PVHT2HYTL","assignmentId":"3YT88D1N09K989NCLVWJAA2Q5BA3KB","hitId":"34KYK9TV2RUAD363EVFPUWVPB97SBP","url":"https://gershmanlab.com/experiments/alicia/teaching/experiment/?hitId=34KYK9TV2RUAD363EVFPUWVPB97SBP&workerId=AOS2PVHT2HYTL&assignmentId=3YT88D1N09K989NCLVWJAA2Q5BA3KB&a=N8TY7&tp_a=N8TY7&b=3YT88D1N09K989NCLVWJAA2Q5BA3KB&tp_b=3YT88D1N09K989NCLVWJAA2Q5BA3KB&c=365717&tp_c=365717"},{"rt":16577,"stimulus":"\n                <p>Student 1's first guess for coin weight: <b style=\"color:Tomato\";>0.56</b></p>\n                <p>Student 1's second guess for coin weight: <b style=\"color:Tomato\";>0.53</b></p>\n                <p>You received a bonus of <b>$0.10</b> based on the student's second guess.</p>\n                <p>Total bonus so far: <b>$0.10</b></p>\n                <p>Press any key to continue.</p>\n                ","response":" ","trial_type":"html-keyboard-response","trial_index":13,"time_elapsed":582562,"internal_node_id":"0.0-12.0","params":{"nStudents":24,"maxFlips":30,"completionMinutes":45,"basePay":8,"maxBonus":9,"perTrialBonus":0.5,"perTrialBonusThreshold":0.05,"exampleCost":0.01},"classroomParams":{"A":{"a":1,"b":4},"B":{"a":4,"b":1},"C":{"a":2,"b":8},"D":{"a":8,"b":2}},"conditions":["nonSeqFull","nonSeqPartial","seqNoFeedback","seqFeedback"],"classroomPairings":[["A","B"],["C","D"]],"coinWeights":[0.2,0.5,0.8],"subjectId":"AOS2PVHT2HYTL","assignmentId":"3YT88D1N09K989NCLVWJAA2Q5BA3KB","hitId":"34KYK9TV2RUAD363EVFPUWVPB97SBP","url":"https://gershmanlab.com/experiments/alicia/teaching/experiment/?hitId=34KYK9TV2RUAD363EVFPUWVPB97SBP&workerId=AOS2PVHT2HYTL&assignmentId=3YT88D1N09K989NCLVWJAA2Q5BA3KB&a=N8TY7&tp_a=N8TY7&b=3YT88D1N09K989NCLVWJAA2Q5BA3KB&tp_b=3YT88D1N09K989NCLVWJAA2Q5BA3KB&c=365717&tp_c=365717"},{"rt":null,"stimulus":"<div style=\"font-size:60px;\">Next student</div>","response":null,"trial_type":"html-keyboard-response","trial_index":14,"time_elapsed":585575,"internal_node_id":"0.0-13.0-0.0","params":{"nStudents":24,"maxFlips":30,"completionMinutes":45,"basePay":8,"maxBonus":9,"perTrialBonus":0.5,"perTrialBonusThreshold":0.05,"exampleCost":0.01},"classroomParams":{"A":{"a":1,"b":4},"B":{"a":4,"b":1},"C":{"a":2,"b":8},"D":{"a":8,"b":2}},"conditions":["nonSeqFull","nonSeqPartial","seqNoFeedback","seqFeedback"],"classroomPairings":[["A","B"],["C","D"]],"coinWeights":[0.2,0.5,0.8],"subjectId":"AOS2PVHT2HYTL","assignmentId":"3YT88D1N09K989NCLVWJAA2Q5BA3KB","hitId":"34KYK9TV2RUAD363EVFPUWVPB97SBP","url":"https://gershmanlab.com/experiments/alicia/teaching/experiment/?hitId=34KYK9TV2RUAD363EVFPUWVPB97SBP&workerId=AOS2PVHT2HYTL&assignmentId=3YT88D1N09K989NCLVWJAA2Q5BA3KB&a=N8TY7&tp_a=N8TY7&b=3YT88D1N09K989NCLVWJAA2Q5BA3KB&tp_b=3YT88D1N09K989NCLVWJAA2Q5BA3KB&c=365717&tp_c=365717"},{"rt":13018,"stimulus":"\n            <h4 style=\"color:Orange;\">Student 2</h4>\n            <h2>The weight of your coin is <b style=\"color:Tomato;\">0.8</b>.</h2>\n            <p>In this block, you will be giving <b>one</b> set of examples to Student 2.</p>\n                <p>You will receive feedback at the end of the block.</p>\n            <p></p>","response":0,"trial_type":"html-button-response","trial_index":15,"time_elapsed":598597,"internal_node_id":"0.0-14.0","params":{"nStudents":24,"maxFlips":30,"completionMinutes":45,"basePay":8,"maxBonus":9,"perTrialBonus":0.5,"perTrialBonusThreshold":0.05,"exampleCost":0.01},"classroomParams":{"A":{"a":1,"b":4},"B":{"a":4,"b":1},"C":{"a":2,"b":8},"D":{"a":8,"b":2}},"conditions":["nonSeqFull","nonSeqPartial","seqNoFeedback","seqFeedback"],"classroomPairings":[["A","B"],["C","D"]],"coinWeights":[0.2,0.5,0.8],"subjectId":"AOS2PVHT2HYTL","assignmentId":"3YT88D1N09K989NCLVWJAA2Q5BA3KB","hitId":"34KYK9TV2RUAD363EVFPUWVPB97SBP","url":"https://gershmanlab.com/experiments/alicia/teaching/experiment/?hitId=34KYK9TV2RUAD363EVFPUWVPB97SBP&workerId=AOS2PVHT2HYTL&assignmentId=3YT88D1N09K989NCLVWJAA2Q5BA3KB&a=N8TY7&tp_a=N8TY7&b=3YT88D1N09K989NCLVWJAA2Q5BA3KB&tp_b=3YT88D1N09K989NCLVWJAA2Q5BA3KB&c=365717&tp_c=365717"},{"rt":43905,"response":{"heads":"5","tails":"0"},"type":"response","condition":"nonSeqPartial","trueTheta":0.8,"classrooms":["C","D"],"studentTrueClassroom":"D","exampleSet":"first","trial_type":"survey-html-form","trial_index":16,"time_elapsed":642508,"internal_node_id":"0.0-15.0-0.0","params":{"nStudents":24,"maxFlips":30,"completionMinutes":45,"basePay":8,"maxBonus":9,"perTrialBonus":0.5,"perTrialBonusThreshold":0.05,"exampleCost":0.01},"classroomParams":{"A":{"a":1,"b":4},"B":{"a":4,"b":1},"C":{"a":2,"b":8},"D":{"a":8,"b":2}},"conditions":["nonSeqFull","nonSeqPartial","seqNoFeedback","seqFeedback"],"classroomPairings":[["A","B"],["C","D"]],"coinWeights":[0.2,0.5,0.8],"subjectId":"AOS2PVHT2HYTL","assignmentId":"3YT88D1N09K989NCLVWJAA2Q5BA3KB","hitId":"34KYK9TV2RUAD363EVFPUWVPB97SBP","url":"https://gershmanlab.com/experiments/alicia/teaching/experiment/?hitId=34KYK9TV2RUAD363EVFPUWVPB97SBP&workerId=AOS2PVHT2HYTL&assignmentId=3YT88D1N09K989NCLVWJAA2Q5BA3KB&a=N8TY7&tp_a=N8TY7&b=3YT88D1N09K989NCLVWJAA2Q5BA3KB&tp_b=3YT88D1N09K989NCLVWJAA2Q5BA3KB&c=365717&tp_c=365717","heads":5,"tails":0,"studentIndex":1,"studentTrueHypers":{"a":8,"b":2},"studentGuess":0.8666666666666667,"delta":0.06666666666666665,"totalExamples":5,"bonus":0,"bonusSoFar":0.1},{"rt":null,"stimulus":"Sending examples to student... ","response":null,"trial_type":"html-keyboard-response","trial_index":17,"time_elapsed":644265,"internal_node_id":"0.0-16.0","params":{"nStudents":24,"maxFlips":30,"completionMinutes":45,"basePay":8,"maxBonus":9,"perTrialBonus":0.5,"perTrialBonusThreshold":0.05,"exampleCost":0.01},"classroomParams":{"A":{"a":1,"b":4},"B":{"a":4,"b":1},"C":{"a":2,"b":8},"D":{"a":8,"b":2}},"conditions":["nonSeqFull","nonSeqPartial","seqNoFeedback","seqFeedback"],"classroomPairings":[["A","B"],["C","D"]],"coinWeights":[0.2,0.5,0.8],"subjectId":"AOS2PVHT2HYTL","assignmentId":"3YT88D1N09K989NCLVWJAA2Q5BA3KB","hitId":"34KYK9TV2RUAD363EVFPUWVPB97SBP","url":"https://gershmanlab.com/experiments/alicia/teaching/experiment/?hitId=34KYK9TV2RUAD363EVFPUWVPB97SBP&workerId=AOS2PVHT2HYTL&assignmentId=3YT88D1N09K989NCLVWJAA2Q5BA3KB&a=N8TY7&tp_a=N8TY7&b=3YT88D1N09K989NCLVWJAA2Q5BA3KB&tp_b=3YT88D1N09K989NCLVWJAA2Q5BA3KB&c=365717&tp_c=365717"},{"rt":null,"stimulus":"Examples sent to student! Waiting for student...","response":null,"trial_type":"html-keyboard-response","trial_index":18,"time_elapsed":649284,"internal_node_id":"0.0-17.0","params":{"nStudents":24,"maxFlips":30,"completionMinutes":45,"basePay":8,"maxBonus":9,"perTrialBonus":0.5,"perTrialBonusThreshold":0.05,"exampleCost":0.01},"classroomParams":{"A":{"a":1,"b":4},"B":{"a":4,"b":1},"C":{"a":2,"b":8},"D":{"a":8,"b":2}},"conditions":["nonSeqFull","nonSeqPartial","seqNoFeedback","seqFeedback"],"classroomPairings":[["A","B"],["C","D"]],"coinWeights":[0.2,0.5,0.8],"subjectId":"AOS2PVHT2HYTL","assignmentId":"3YT88D1N09K989NCLVWJAA2Q5BA3KB","hitId":"34KYK9TV2RUAD363EVFPUWVPB97SBP","url":"https://gershmanlab.com/experiments/alicia/teaching/experiment/?hitId=34KYK9TV2RUAD363EVFPUWVPB97SBP&workerId=AOS2PVHT2HYTL&assignmentId=3YT88D1N09K989NCLVWJAA2Q5BA3KB&a=N8TY7&tp_a=N8TY7&b=3YT88D1N09K989NCLVWJAA2Q5BA3KB&tp_b=3YT88D1N09K989NCLVWJAA2Q5BA3KB&c=365717&tp_c=365717"},{"rt":21526,"stimulus":"\n                <p>Student's guess for coin weight: <b style=\"color:Tomato;\">0.87</b></p>\n                <p>You received a bonus of <b>$0</b>. Total bonus so far: <b>$0.10</b></b></p>\n                <p></p>\n                <p>Press any key to continue.</p>\n                ","response":" ","trial_type":"html-keyboard-response","trial_index":19,"time_elapsed":670814,"internal_node_id":"0.0-18.0","params":{"nStudents":24,"maxFlips":30,"completionMinutes":45,"basePay":8,"maxBonus":9,"perTrialBonus":0.5,"perTrialBonusThreshold":0.05,"exampleCost":0.01},"classroomParams":{"A":{"a":1,"b":4},"B":{"a":4,"b":1},"C":{"a":2,"b":8},"D":{"a":8,"b":2}},"conditions":["nonSeqFull","nonSeqPartial","seqNoFeedback","seqFeedback"],"classroomPairings":[["A","B"],["C","D"]],"coinWeights":[0.2,0.5,0.8],"subjectId":"AOS2PVHT2HYTL","assignmentId":"3YT88D1N09K989NCLVWJAA2Q5BA3KB","hitId":"34KYK9TV2RUAD363EVFPUWVPB97SBP","url":"https://gershmanlab.com/experiments/alicia/teaching/experiment/?hitId=34KYK9TV2RUAD363EVFPUWVPB97SBP&workerId=AOS2PVHT2HYTL&assignmentId=3YT88D1N09K989NCLVWJAA2Q5BA3KB&a=N8TY7&tp_a=N8TY7&b=3YT88D1N09K989NCLVWJAA2Q5BA3KB&tp_b=3YT88D1N09K989NCLVWJAA2Q5BA3KB&c=365717&tp_c=365717"},{"rt":null,"stimulus":"<div style=\"font-size:60px;\">Next student</div>","response":null,"trial_type":"html-keyboard-response","trial_index":20,"time_elapsed":673078,"internal_node_id":"0.0-19.0-0.0","params":{"nStudents":24,"maxFlips":30,"completionMinutes":45,"basePay":8,"maxBonus":9,"perTrialBonus":0.5,"perTrialBonusThreshold":0.05,"exampleCost":0.01},"classroomParams":{"A":{"a":1,"b":4},"B":{"a":4,"b":1},"C":{"a":2,"b":8},"D":{"a":8,"b":2}},"conditions":["nonSeqFull","nonSeqPartial","seqNoFeedback","seqFeedback"],"classroomPairings":[["A","B"],["C","D"]],"coinWeights":[0.2,0.5,0.8],"subjectId":"AOS2PVHT2HYTL","assignmentId":"3YT88D1N09K989NCLVWJAA2Q5BA3KB","hitId":"34KYK9TV2RUAD363EVFPUWVPB97SBP","url":"https://gershmanlab.com/experiments/alicia/teaching/experiment/?hitId=34KYK9TV2RUAD363EVFPUWVPB97SBP&workerId=AOS2PVHT2HYTL&assignmentId=3YT88D1N09K989NCLVWJAA2Q5BA3KB&a=N8TY7&tp_a=N8TY7&b=3YT88D1N09K989NCLVWJAA2Q5BA3KB&tp_b=3YT88D1N09K989NCLVWJAA2Q5BA3KB&c=365717&tp_c=365717"},{"rt":5596,"stimulus":"\n            <h4 style=\"color:Orange;\">Student 3</h4>\n            <h2>The weight of your coin is <b style=\"color:Tomato;\">0.2</b>.</h2>\n            <p>In this block, you will be giving <b>one</b> set of examples to Student 3.</p>\n                <p>You will receive feedback at the end of the block.</p>\n            <p></p>","response":0,"trial_type":"html-button-response","trial_index":21,"time_elapsed":678678,"internal_node_id":"0.0-20.0","params":{"nStudents":24,"maxFlips":30,"completionMinutes":45,"basePay":8,"maxBonus":9,"perTrialBonus":0.5,"perTrialBonusThreshold":0.05,"exampleCost":0.01},"classroomParams":{"A":{"a":1,"b":4},"B":{"a":4,"b":1},"C":{"a":2,"b":8},"D":{"a":8,"b":2}},"conditions":["nonSeqFull","nonSeqPartial","seqNoFeedback","seqFeedback"],"classroomPairings":[["A","B"],["C","D"]],"coinWeights":[0.2,0.5,0.8],"subjectId":"AOS2PVHT2HYTL","assignmentId":"3YT88D1N09K989NCLVWJAA2Q5BA3KB","hitId":"34KYK9TV2RUAD363EVFPUWVPB97SBP","url":"https://gershmanlab.com/experiments/alicia/teaching/experiment/?hitId=34KYK9TV2RUAD363EVFPUWVPB97SBP&workerId=AOS2PVHT2HYTL&assignmentId=3YT88D1N09K989NCLVWJAA2Q5BA3KB&a=N8TY7&tp_a=N8TY7&b=3YT88D1N09K989NCLVWJAA2Q5BA3KB&tp_b=3YT88D1N09K989NCLVWJAA2Q5BA3KB&c=365717&tp_c=365717"},{"rt":13965,"response":{"heads":"0","tails":"10"},"type":"response","condition":"nonSeqFull","trueTheta":0.2,"classrooms":["A","B"],"studentTrueClassroom":"A","exampleSet":"first","trial_type":"survey-html-form","trial_index":22,"time_elapsed":692648,"internal_node_id":"0.0-21.0-0.0","params":{"nStudents":24,"maxFlips":30,"completionMinutes":45,"basePay":8,"maxBonus":9,"perTrialBonus":0.5,"perTrialBonusThreshold":0.05,"exampleCost":0.01},"classroomParams":{"A":{"a":1,"b":4},"B":{"a":4,"b":1},"C":{"a":2,"b":8},"D":{"a":8,"b":2}},"conditions":["nonSeqFull","nonSeqPartial","seqNoFeedback","seqFeedback"],"classroomPairings":[["A","B"],["C","D"]],"coinWeights":[0.2,0.5,0.8],"subjectId":"AOS2PVHT2HYTL","assignmentId":"3YT88D1N09K989NCLVWJAA2Q5BA3KB","hitId":"34KYK9TV2RUAD363EVFPUWVPB97SBP","url":"https://gershmanlab.com/experiments/alicia/teaching/experiment/?hitId=34KYK9TV2RUAD363EVFPUWVPB97SBP&workerId=AOS2PVHT2HYTL&assignmentId=3YT88D1N09K989NCLVWJAA2Q5BA3KB&a=N8TY7&tp_a=N8TY7&b=3YT88D1N09K989NCLVWJAA2Q5BA3KB&tp_b=3YT88D1N09K989NCLVWJAA2Q5BA3KB&c=365717&tp_c=365717","heads":0,"tails":10,"studentIndex":2,"studentTrueHypers":{"a":1,"b":4},"studentGuess":0.06666666666666667,"delta":0.13333333333333336,"totalExamples":10,"bonus":0,"bonusSoFar":0.1},{"rt":null,"stimulus":"Sending examples to student... ","response":null,"trial_type":"html-keyboard-response","trial_index":23,"time_elapsed":693901,"internal_node_id":"0.0-22.0","params":{"nStudents":24,"maxFlips":30,"completionMinutes":45,"basePay":8,"maxBonus":9,"perTrialBonus":0.5,"perTrialBonusThreshold":0.05,"exampleCost":0.01},"classroomParams":{"A":{"a":1,"b":4},"B":{"a":4,"b":1},"C":{"a":2,"b":8},"D":{"a":8,"b":2}},"conditions":["nonSeqFull","nonSeqPartial","seqNoFeedback","seqFeedback"],"classroomPairings":[["A","B"],["C","D"]],"coinWeights":[0.2,0.5,0.8],"subjectId":"AOS2PVHT2HYTL","assignmentId":"3YT88D1N09K989NCLVWJAA2Q5BA3KB","hitId":"34KYK9TV2RUAD363EVFPUWVPB97SBP","url":"https://gershmanlab.com/experiments/alicia/teaching/experiment/?hitId=34KYK9TV2RUAD363EVFPUWVPB97SBP&workerId=AOS2PVHT2HYTL&assignmentId=3YT88D1N09K989NCLVWJAA2Q5BA3KB&a=N8TY7&tp_a=N8TY7&b=3YT88D1N09K989NCLVWJAA2Q5BA3KB&tp_b=3YT88D1N09K989NCLVWJAA2Q5BA3KB&c=365717&tp_c=365717"},{"rt":null,"stimulus":"Examples sent to student! Waiting for student...","response":null,"trial_type":"html-keyboard-response","trial_index":24,"time_elapsed":699909,"internal_node_id":"0.0-23.0","params":{"nStudents":24,"maxFlips":30,"completionMinutes":45,"basePay":8,"maxBonus":9,"perTrialBonus":0.5,"perTrialBonusThreshold":0.05,"exampleCost":0.01},"classroomParams":{"A":{"a":1,"b":4},"B":{"a":4,"b":1},"C":{"a":2,"b":8},"D":{"a":8,"b":2}},"conditions":["nonSeqFull","nonSeqPartial","seqNoFeedback","seqFeedback"],"classroomPairings":[["A","B"],["C","D"]],"coinWeights":[0.2,0.5,0.8],"subjectId":"AOS2PVHT2HYTL","assignmentId":"3YT88D1N09K989NCLVWJAA2Q5BA3KB","hitId":"34KYK9TV2RUAD363EVFPUWVPB97SBP","url":"https://gershmanlab.com/experiments/alicia/teaching/experiment/?hitId=34KYK9TV2RUAD363EVFPUWVPB97SBP&workerId=AOS2PVHT2HYTL&assignmentId=3YT88D1N09K989NCLVWJAA2Q5BA3KB&a=N8TY7&tp_a=N8TY7&b=3YT88D1N09K989NCLVWJAA2Q5BA3KB&tp_b=3YT88D1N09K989NCLVWJAA2Q5BA3KB&c=365717&tp_c=365717"},{"rt":8320,"stimulus":"\n                <p>Student's guess for coin weight: <b style=\"color:Tomato;\">0.07</b></p>\n                <p>You received a bonus of <b>$0</b>. Total bonus so far: <b>$0.10</b></b></p>\n                <p></p>\n                <p>Press any key to continue.</p>\n                ","response":" ","trial_type":"html-keyboard-response","trial_index":25,"time_elapsed":708232,"internal_node_id":"0.0-24.0","params":{"nStudents":24,"maxFlips":30,"completionMinutes":45,"basePay":8,"maxBonus":9,"perTrialBonus":0.5,"perTrialBonusThreshold":0.05,"exampleCost":0.01},"classroomParams":{"A":{"a":1,"b":4},"B":{"a":4,"b":1},"C":{"a":2,"b":8},"D":{"a":8,"b":2}},"conditions":["nonSeqFull","nonSeqPartial","seqNoFeedback","seqFeedback"],"classroomPairings":[["A","B"],["C","D"]],"coinWeights":[0.2,0.5,0.8],"subjectId":"AOS2PVHT2HYTL","assignmentId":"3YT88D1N09K989NCLVWJAA2Q5BA3KB","hitId":"34KYK9TV2RUAD363EVFPUWVPB97SBP","url":"https://gershmanlab.com/experiments/alicia/teaching/experiment/?hitId=34KYK9TV2RUAD363EVFPUWVPB97SBP&workerId=AOS2PVHT2HYTL&assignmentId=3YT88D1N09K989NCLVWJAA2Q5BA3KB&a=N8TY7&tp_a=N8TY7&b=3YT88D1N09K989NCLVWJAA2Q5BA3KB&tp_b=3YT88D1N09K989NCLVWJAA2Q5BA3KB&c=365717&tp_c=365717"},{"rt":null,"stimulus":"<div style=\"font-size:60px;\">Next student</div>","response":null,"trial_type":"html-keyboard-response","trial_index":26,"time_elapsed":710488,"internal_node_id":"0.0-25.0-0.0","params":{"nStudents":24,"maxFlips":30,"completionMinutes":45,"basePay":8,"maxBonus":9,"perTrialBonus":0.5,"perTrialBonusThreshold":0.05,"exampleCost":0.01},"classroomParams":{"A":{"a":1,"b":4},"B":{"a":4,"b":1},"C":{"a":2,"b":8},"D":{"a":8,"b":2}},"conditions":["nonSeqFull","nonSeqPartial","seqNoFeedback","seqFeedback"],"classroomPairings":[["A","B"],["C","D"]],"coinWeights":[0.2,0.5,0.8],"subjectId":"AOS2PVHT2HYTL","assignmentId":"3YT88D1N09K989NCLVWJAA2Q5BA3KB","hitId":"34KYK9TV2RUAD363EVFPUWVPB97SBP","url":"https://gershmanlab.com/experiments/alicia/teaching/experiment/?hitId=34KYK9TV2RUAD363EVFPUWVPB97SBP&workerId=AOS2PVHT2HYTL&assignmentId=3YT88D1N09K989NCLVWJAA2Q5BA3KB&a=N8TY7&tp_a=N8TY7&b=3YT88D1N09K989NCLVWJAA2Q5BA3KB&tp_b=3YT88D1N09K989NCLVWJAA2Q5BA3KB&c=365717&tp_c=365717"},{"rt":4334,"stimulus":"\n            <h4 style=\"color:Orange;\">Student 4</h4>\n            <h2>The weight of your coin is <b style=\"color:Tomato;\">0.2</b>.</h2>\n            <p>In this block, you will be giving <b>two</b> sets of examples to Student 4.</p>\n                <p>You will receive feedback at the end of the block.</p>\n            <p></p>","response":0,"trial_type":"html-button-response","trial_index":27,"time_elapsed":714826,"internal_node_id":"0.0-26.0","params":{"nStudents":24,"maxFlips":30,"completionMinutes":45,"basePay":8,"maxBonus":9,"perTrialBonus":0.5,"perTrialBonusThreshold":0.05,"exampleCost":0.01},"classroomParams":{"A":{"a":1,"b":4},"B":{"a":4,"b":1},"C":{"a":2,"b":8},"D":{"a":8,"b":2}},"conditions":["nonSeqFull","nonSeqPartial","seqNoFeedback","seqFeedback"],"classroomPairings":[["A","B"],["C","D"]],"coinWeights":[0.2,0.5,0.8],"subjectId":"AOS2PVHT2HYTL","assignmentId":"3YT88D1N09K989NCLVWJAA2Q5BA3KB","hitId":"34KYK9TV2RUAD363EVFPUWVPB97SBP","url":"https://gershmanlab.com/experiments/alicia/teaching/experiment/?hitId=34KYK9TV2RUAD363EVFPUWVPB97SBP&workerId=AOS2PVHT2HYTL&assignmentId=3YT88D1N09K989NCLVWJAA2Q5BA3KB&a=N8TY7&tp_a=N8TY7&b=3YT88D1N09K989NCLVWJAA2Q5BA3KB&tp_b=3YT88D1N09K989NCLVWJAA2Q5BA3KB&c=365717&tp_c=365717"},{"rt":27166,"response":{"heads":"0","tails":"15"},"type":"response","condition":"seqNoFeedback","trueTheta":0.2,"classrooms":["A","B"],"studentTrueClassroom":"B","exampleSet":"first","trial_type":"survey-html-form","trial_index":28,"time_elapsed":741996,"internal_node_id":"0.0-27.0-0.0","params":{"nStudents":24,"maxFlips":30,"completionMinutes":45,"basePay":8,"maxBonus":9,"perTrialBonus":0.5,"perTrialBonusThreshold":0.05,"exampleCost":0.01},"classroomParams":{"A":{"a":1,"b":4},"B":{"a":4,"b":1},"C":{"a":2,"b":8},"D":{"a":8,"b":2}},"conditions":["nonSeqFull","nonSeqPartial","seqNoFeedback","seqFeedback"],"classroomPairings":[["A","B"],["C","D"]],"coinWeights":[0.2,0.5,0.8],"subjectId":"AOS2PVHT2HYTL","assignmentId":"3YT88D1N09K989NCLVWJAA2Q5BA3KB","hitId":"34KYK9TV2RUAD363EVFPUWVPB97SBP","url":"https://gershmanlab.com/experiments/alicia/teaching/experiment/?hitId=34KYK9TV2RUAD363EVFPUWVPB97SBP&workerId=AOS2PVHT2HYTL&assignmentId=3YT88D1N09K989NCLVWJAA2Q5BA3KB&a=N8TY7&tp_a=N8TY7&b=3YT88D1N09K989NCLVWJAA2Q5BA3KB&tp_b=3YT88D1N09K989NCLVWJAA2Q5BA3KB&c=365717&tp_c=365717","heads":0,"tails":15,"studentIndex":3,"studentTrueHypers":{"a":4,"b":1},"studentGuess":0.2,"delta":0,"totalExamples":15,"bonusSoFar":0.1},{"rt":null,"stimulus":"Sending examples to student... ","response":null,"trial_type":"html-keyboard-response","trial_index":29,"time_elapsed":743514,"internal_node_id":"0.0-28.0","params":{"nStudents":24,"maxFlips":30,"completionMinutes":45,"basePay":8,"maxBonus":9,"perTrialBonus":0.5,"perTrialBonusThreshold":0.05,"exampleCost":0.01},"classroomParams":{"A":{"a":1,"b":4},"B":{"a":4,"b":1},"C":{"a":2,"b":8},"D":{"a":8,"b":2}},"conditions":["nonSeqFull","nonSeqPartial","seqNoFeedback","seqFeedback"],"classroomPairings":[["A","B"],["C","D"]],"coinWeights":[0.2,0.5,0.8],"subjectId":"AOS2PVHT2HYTL","assignmentId":"3YT88D1N09K989NCLVWJAA2Q5BA3KB","hitId":"34KYK9TV2RUAD363EVFPUWVPB97SBP","url":"https://gershmanlab.com/experiments/alicia/teaching/experiment/?hitId=34KYK9TV2RUAD363EVFPUWVPB97SBP&workerId=AOS2PVHT2HYTL&assignmentId=3YT88D1N09K989NCLVWJAA2Q5BA3KB&a=N8TY7&tp_a=N8TY7&b=3YT88D1N09K989NCLVWJAA2Q5BA3KB&tp_b=3YT88D1N09K989NCLVWJAA2Q5BA3KB&c=365717&tp_c=365717"},{"rt":null,"stimulus":"Examples sent to student! Waiting for student...","response":null,"trial_type":"html-keyboard-response","trial_index":30,"time_elapsed":749519,"internal_node_id":"0.0-29.0","params":{"nStudents":24,"maxFlips":30,"completionMinutes":45,"basePay":8,"maxBonus":9,"perTrialBonus":0.5,"perTrialBonusThreshold":0.05,"exampleCost":0.01},"classroomParams":{"A":{"a":1,"b":4},"B":{"a":4,"b":1},"C":{"a":2,"b":8},"D":{"a":8,"b":2}},"conditions":["nonSeqFull","nonSeqPartial","seqNoFeedback","seqFeedback"],"classroomPairings":[["A","B"],["C","D"]],"coinWeights":[0.2,0.5,0.8],"subjectId":"AOS2PVHT2HYTL","assignmentId":"3YT88D1N09K989NCLVWJAA2Q5BA3KB","hitId":"34KYK9TV2RUAD363EVFPUWVPB97SBP","url":"https://gershmanlab.com/experiments/alicia/teaching/experiment/?hitId=34KYK9TV2RUAD363EVFPUWVPB97SBP&workerId=AOS2PVHT2HYTL&assignmentId=3YT88D1N09K989NCLVWJAA2Q5BA3KB&a=N8TY7&tp_a=N8TY7&b=3YT88D1N09K989NCLVWJAA2Q5BA3KB&tp_b=3YT88D1N09K989NCLVWJAA2Q5BA3KB&c=365717&tp_c=365717"},{"rt":15591,"response":{"heads":"0","tails":"30"},"type":"response","condition":"seqNoFeedback","trueTheta":0.2,"classrooms":["A","B"],"studentTrueClassroom":"B","exampleSet":"second","trial_type":"survey-html-form","trial_index":31,"time_elapsed":765114,"internal_node_id":"0.0-30.0-0.0","params":{"nStudents":24,"maxFlips":30,"completionMinutes":45,"basePay":8,"maxBonus":9,"perTrialBonus":0.5,"perTrialBonusThreshold":0.05,"exampleCost":0.01},"classroomParams":{"A":{"a":1,"b":4},"B":{"a":4,"b":1},"C":{"a":2,"b":8},"D":{"a":8,"b":2}},"conditions":["nonSeqFull","nonSeqPartial","seqNoFeedback","seqFeedback"],"classroomPairings":[["A","B"],["C","D"]],"coinWeights":[0.2,0.5,0.8],"subjectId":"AOS2PVHT2HYTL","assignmentId":"3YT88D1N09K989NCLVWJAA2Q5BA3KB","hitId":"34KYK9TV2RUAD363EVFPUWVPB97SBP","url":"https://gershmanlab.com/experiments/alicia/teaching/experiment/?hitId=34KYK9TV2RUAD363EVFPUWVPB97SBP&workerId=AOS2PVHT2HYTL&assignmentId=3YT88D1N09K989NCLVWJAA2Q5BA3KB&a=N8TY7&tp_a=N8TY7&b=3YT88D1N09K989NCLVWJAA2Q5BA3KB&tp_b=3YT88D1N09K989NCLVWJAA2Q5BA3KB&c=365717&tp_c=365717","firstResponseHeads":0,"firstResponseTails":15,"secondResponseHeads":0,"secondResponseTails":30,"totalHeads":0,"totalTails":45,"studentIndex":3,"studentTrueHypers":{"a":4,"b":1},"studentGuess":0.08,"delta":0.12000000000000001,"bonus":0,"bonusSoFar":0.1,"totalExamples":45},{"rt":null,"stimulus":"Sending examples to student... ","response":null,"trial_type":"html-keyboard-response","trial_index":32,"time_elapsed":766632,"internal_node_id":"0.0-31.0","params":{"nStudents":24,"maxFlips":30,"completionMinutes":45,"basePay":8,"maxBonus":9,"perTrialBonus":0.5,"perTrialBonusThreshold":0.05,"exampleCost":0.01},"classroomParams":{"A":{"a":1,"b":4},"B":{"a":4,"b":1},"C":{"a":2,"b":8},"D":{"a":8,"b":2}},"conditions":["nonSeqFull","nonSeqPartial","seqNoFeedback","seqFeedback"],"classroomPairings":[["A","B"],["C","D"]],"coinWeights":[0.2,0.5,0.8],"subjectId":"AOS2PVHT2HYTL","assignmentId":"3YT88D1N09K989NCLVWJAA2Q5BA3KB","hitId":"34KYK9TV2RUAD363EVFPUWVPB97SBP","url":"https://gershmanlab.com/experiments/alicia/teaching/experiment/?hitId=34KYK9TV2RUAD363EVFPUWVPB97SBP&workerId=AOS2PVHT2HYTL&assignmentId=3YT88D1N09K989NCLVWJAA2Q5BA3KB&a=N8TY7&tp_a=N8TY7&b=3YT88D1N09K989NCLVWJAA2Q5BA3KB&tp_b=3YT88D1N09K989NCLVWJAA2Q5BA3KB&c=365717&tp_c=365717"},{"rt":null,"stimulus":"Examples sent to student! Waiting for student...","response":null,"trial_type":"html-keyboard-response","trial_index":33,"time_elapsed":772146,"internal_node_id":"0.0-32.0","params":{"nStudents":24,"maxFlips":30,"completionMinutes":45,"basePay":8,"maxBonus":9,"perTrialBonus":0.5,"perTrialBonusThreshold":0.05,"exampleCost":0.01},"classroomParams":{"A":{"a":1,"b":4},"B":{"a":4,"b":1},"C":{"a":2,"b":8},"D":{"a":8,"b":2}},"conditions":["nonSeqFull","nonSeqPartial","seqNoFeedback","seqFeedback"],"classroomPairings":[["A","B"],["C","D"]],"coinWeights":[0.2,0.5,0.8],"subjectId":"AOS2PVHT2HYTL","assignmentId":"3YT88D1N09K989NCLVWJAA2Q5BA3KB","hitId":"34KYK9TV2RUAD363EVFPUWVPB97SBP","url":"https://gershmanlab.com/experiments/alicia/teaching/experiment/?hitId=34KYK9TV2RUAD363EVFPUWVPB97SBP&workerId=AOS2PVHT2HYTL&assignmentId=3YT88D1N09K989NCLVWJAA2Q5BA3KB&a=N8TY7&tp_a=N8TY7&b=3YT88D1N09K989NCLVWJAA2Q5BA3KB&tp_b=3YT88D1N09K989NCLVWJAA2Q5BA3KB&c=365717&tp_c=365717"},{"rt":13776,"stimulus":"\n                <p>Student 4's first guess for coin weight: <b style=\"color:Tomato\";>0.20</b></p>\n                <p>Student 4's second guess for coin weight: <b style=\"color:Tomato\";>0.08</b></p>\n                <p>You received a bonus of <b>$0.00</b> based on the student's second guess.</p>\n                <p>Total bonus so far: <b>$0.10</b></p>\n                <p>Press any key to continue.</p>\n                ","response":" ","trial_type":"html-keyboard-response","trial_index":34,"time_elapsed":785925,"internal_node_id":"0.0-33.0","params":{"nStudents":24,"maxFlips":30,"completionMinutes":45,"basePay":8,"maxBonus":9,"perTrialBonus":0.5,"perTrialBonusThreshold":0.05,"exampleCost":0.01},"classroomParams":{"A":{"a":1,"b":4},"B":{"a":4,"b":1},"C":{"a":2,"b":8},"D":{"a":8,"b":2}},"conditions":["nonSeqFull","nonSeqPartial","seqNoFeedback","seqFeedback"],"classroomPairings":[["A","B"],["C","D"]],"coinWeights":[0.2,0.5,0.8],"subjectId":"AOS2PVHT2HYTL","assignmentId":"3YT88D1N09K989NCLVWJAA2Q5BA3KB","hitId":"34KYK9TV2RUAD363EVFPUWVPB97SBP","url":"https://gershmanlab.com/experiments/alicia/teaching/experiment/?hitId=34KYK9TV2RUAD363EVFPUWVPB97SBP&workerId=AOS2PVHT2HYTL&assignmentId=3YT88D1N09K989NCLVWJAA2Q5BA3KB&a=N8TY7&tp_a=N8TY7&b=3YT88D1N09K989NCLVWJAA2Q5BA3KB&tp_b=3YT88D1N09K989NCLVWJAA2Q5BA3KB&c=365717&tp_c=365717"},{"rt":null,"stimulus":"<div style=\"font-size:60px;\">Next student</div>","response":null,"trial_type":"html-keyboard-response","trial_index":35,"time_elapsed":788440,"internal_node_id":"0.0-34.0-0.0","params":{"nStudents":24,"maxFlips":30,"completionMinutes":45,"basePay":8,"maxBonus":9,"perTrialBonus":0.5,"perTrialBonusThreshold":0.05,"exampleCost":0.01},"classroomParams":{"A":{"a":1,"b":4},"B":{"a":4,"b":1},"C":{"a":2,"b":8},"D":{"a":8,"b":2}},"conditions":["nonSeqFull","nonSeqPartial","seqNoFeedback","seqFeedback"],"classroomPairings":[["A","B"],["C","D"]],"coinWeights":[0.2,0.5,0.8],"subjectId":"AOS2PVHT2HYTL","assignmentId":"3YT88D1N09K989NCLVWJAA2Q5BA3KB","hitId":"34KYK9TV2RUAD363EVFPUWVPB97SBP","url":"https://gershmanlab.com/experiments/alicia/teaching/experiment/?hitId=34KYK9TV2RUAD363EVFPUWVPB97SBP&workerId=AOS2PVHT2HYTL&assignmentId=3YT88D1N09K989NCLVWJAA2Q5BA3KB&a=N8TY7&tp_a=N8TY7&b=3YT88D1N09K989NCLVWJAA2Q5BA3KB&tp_b=3YT88D1N09K989NCLVWJAA2Q5BA3KB&c=365717&tp_c=365717"},{"rt":3580,"stimulus":"\n            <h4 style=\"color:Orange;\">Student 5</h4>\n            <h2>The weight of your coin is <b style=\"color:Tomato;\">0.8</b>.</h2>\n            <p>In this block, you will be giving <b>one</b> set of examples to Student 5.</p>\n                <p>You will receive feedback at the end of the block.</p>\n            <p></p>","response":0,"trial_type":"html-button-response","trial_index":36,"time_elapsed":792021,"internal_node_id":"0.0-35.0","params":{"nStudents":24,"maxFlips":30,"completionMinutes":45,"basePay":8,"maxBonus":9,"perTrialBonus":0.5,"perTrialBonusThreshold":0.05,"exampleCost":0.01},"classroomParams":{"A":{"a":1,"b":4},"B":{"a":4,"b":1},"C":{"a":2,"b":8},"D":{"a":8,"b":2}},"conditions":["nonSeqFull","nonSeqPartial","seqNoFeedback","seqFeedback"],"classroomPairings":[["A","B"],["C","D"]],"coinWeights":[0.2,0.5,0.8],"subjectId":"AOS2PVHT2HYTL","assignmentId":"3YT88D1N09K989NCLVWJAA2Q5BA3KB","hitId":"34KYK9TV2RUAD363EVFPUWVPB97SBP","url":"https://gershmanlab.com/experiments/alicia/teaching/experiment/?hitId=34KYK9TV2RUAD363EVFPUWVPB97SBP&workerId=AOS2PVHT2HYTL&assignmentId=3YT88D1N09K989NCLVWJAA2Q5BA3KB&a=N8TY7&tp_a=N8TY7&b=3YT88D1N09K989NCLVWJAA2Q5BA3KB&tp_b=3YT88D1N09K989NCLVWJAA2Q5BA3KB&c=365717&tp_c=365717"},{"rt":9620,"response":{"heads":"8","tails":"0"},"type":"response","condition":"nonSeqPartial","trueTheta":0.8,"classrooms":["A","B"],"studentTrueClassroom":"A","exampleSet":"first","trial_type":"survey-html-form","trial_index":37,"time_elapsed":801645,"internal_node_id":"0.0-36.0-0.0","params":{"nStudents":24,"maxFlips":30,"completionMinutes":45,"basePay":8,"maxBonus":9,"perTrialBonus":0.5,"perTrialBonusThreshold":0.05,"exampleCost":0.01},"classroomParams":{"A":{"a":1,"b":4},"B":{"a":4,"b":1},"C":{"a":2,"b":8},"D":{"a":8,"b":2}},"conditions":["nonSeqFull","nonSeqPartial","seqNoFeedback","seqFeedback"],"classroomPairings":[["A","B"],["C","D"]],"coinWeights":[0.2,0.5,0.8],"subjectId":"AOS2PVHT2HYTL","assignmentId":"3YT88D1N09K989NCLVWJAA2Q5BA3KB","hitId":"34KYK9TV2RUAD363EVFPUWVPB97SBP","url":"https://gershmanlab.com/experiments/alicia/teaching/experiment/?hitId=34KYK9TV2RUAD363EVFPUWVPB97SBP&workerId=AOS2PVHT2HYTL&assignmentId=3YT88D1N09K989NCLVWJAA2Q5BA3KB&a=N8TY7&tp_a=N8TY7&b=3YT88D1N09K989NCLVWJAA2Q5BA3KB&tp_b=3YT88D1N09K989NCLVWJAA2Q5BA3KB&c=365717&tp_c=365717","heads":8,"tails":0,"studentIndex":4,"studentTrueHypers":{"a":1,"b":4},"studentGuess":0.6923076923076923,"delta":0.10769230769230775,"totalExamples":8,"bonus":0,"bonusSoFar":0.1},{"rt":null,"stimulus":"Sending examples to student... ","response":null,"trial_type":"html-keyboard-response","trial_index":38,"time_elapsed":802915,"internal_node_id":"0.0-37.0","params":{"nStudents":24,"maxFlips":30,"completionMinutes":45,"basePay":8,"maxBonus":9,"perTrialBonus":0.5,"perTrialBonusThreshold":0.05,"exampleCost":0.01},"classroomParams":{"A":{"a":1,"b":4},"B":{"a":4,"b":1},"C":{"a":2,"b":8},"D":{"a":8,"b":2}},"conditions":["nonSeqFull","nonSeqPartial","seqNoFeedback","seqFeedback"],"classroomPairings":[["A","B"],["C","D"]],"coinWeights":[0.2,0.5,0.8],"subjectId":"AOS2PVHT2HYTL","assignmentId":"3YT88D1N09K989NCLVWJAA2Q5BA3KB","hitId":"34KYK9TV2RUAD363EVFPUWVPB97SBP","url":"https://gershmanlab.com/experiments/alicia/teaching/experiment/?hitId=34KYK9TV2RUAD363EVFPUWVPB97SBP&workerId=AOS2PVHT2HYTL&assignmentId=3YT88D1N09K989NCLVWJAA2Q5BA3KB&a=N8TY7&tp_a=N8TY7&b=3YT88D1N09K989NCLVWJAA2Q5BA3KB&tp_b=3YT88D1N09K989NCLVWJAA2Q5BA3KB&c=365717&tp_c=365717"},{"rt":null,"stimulus":"Examples sent to student! Waiting for student...","response":null,"trial_type":"html-keyboard-response","trial_index":39,"time_elapsed":807933,"internal_node_id":"0.0-38.0","params":{"nStudents":24,"maxFlips":30,"completionMinutes":45,"basePay":8,"maxBonus":9,"perTrialBonus":0.5,"perTrialBonusThreshold":0.05,"exampleCost":0.01},"classroomParams":{"A":{"a":1,"b":4},"B":{"a":4,"b":1},"C":{"a":2,"b":8},"D":{"a":8,"b":2}},"conditions":["nonSeqFull","nonSeqPartial","seqNoFeedback","seqFeedback"],"classroomPairings":[["A","B"],["C","D"]],"coinWeights":[0.2,0.5,0.8],"subjectId":"AOS2PVHT2HYTL","assignmentId":"3YT88D1N09K989NCLVWJAA2Q5BA3KB","hitId":"34KYK9TV2RUAD363EVFPUWVPB97SBP","url":"https://gershmanlab.com/experiments/alicia/teaching/experiment/?hitId=34KYK9TV2RUAD363EVFPUWVPB97SBP&workerId=AOS2PVHT2HYTL&assignmentId=3YT88D1N09K989NCLVWJAA2Q5BA3KB&a=N8TY7&tp_a=N8TY7&b=3YT88D1N09K989NCLVWJAA2Q5BA3KB&tp_b=3YT88D1N09K989NCLVWJAA2Q5BA3KB&c=365717&tp_c=365717"},{"rt":5231,"stimulus":"\n                <p>Student's guess for coin weight: <b style=\"color:Tomato;\">0.69</b></p>\n                <p>You received a bonus of <b>$0</b>. Total bonus so far: <b>$0.10</b></b></p>\n                <p></p>\n                <p>Press any key to continue.</p>\n                ","response":" ","trial_type":"html-keyboard-response","trial_index":40,"time_elapsed":813167,"internal_node_id":"0.0-39.0","params":{"nStudents":24,"maxFlips":30,"completionMinutes":45,"basePay":8,"maxBonus":9,"perTrialBonus":0.5,"perTrialBonusThreshold":0.05,"exampleCost":0.01},"classroomParams":{"A":{"a":1,"b":4},"B":{"a":4,"b":1},"C":{"a":2,"b":8},"D":{"a":8,"b":2}},"conditions":["nonSeqFull","nonSeqPartial","seqNoFeedback","seqFeedback"],"classroomPairings":[["A","B"],["C","D"]],"coinWeights":[0.2,0.5,0.8],"subjectId":"AOS2PVHT2HYTL","assignmentId":"3YT88D1N09K989NCLVWJAA2Q5BA3KB","hitId":"34KYK9TV2RUAD363EVFPUWVPB97SBP","url":"https://gershmanlab.com/experiments/alicia/teaching/experiment/?hitId=34KYK9TV2RUAD363EVFPUWVPB97SBP&workerId=AOS2PVHT2HYTL&assignmentId=3YT88D1N09K989NCLVWJAA2Q5BA3KB&a=N8TY7&tp_a=N8TY7&b=3YT88D1N09K989NCLVWJAA2Q5BA3KB&tp_b=3YT88D1N09K989NCLVWJAA2Q5BA3KB&c=365717&tp_c=365717"},{"rt":null,"stimulus":"<div style=\"font-size:60px;\">Next student</div>","response":null,"trial_type":"html-keyboard-response","trial_index":41,"time_elapsed":815686,"internal_node_id":"0.0-40.0-0.0","params":{"nStudents":24,"maxFlips":30,"completionMinutes":45,"basePay":8,"maxBonus":9,"perTrialBonus":0.5,"perTrialBonusThreshold":0.05,"exampleCost":0.01},"classroomParams":{"A":{"a":1,"b":4},"B":{"a":4,"b":1},"C":{"a":2,"b":8},"D":{"a":8,"b":2}},"conditions":["nonSeqFull","nonSeqPartial","seqNoFeedback","seqFeedback"],"classroomPairings":[["A","B"],["C","D"]],"coinWeights":[0.2,0.5,0.8],"subjectId":"AOS2PVHT2HYTL","assignmentId":"3YT88D1N09K989NCLVWJAA2Q5BA3KB","hitId":"34KYK9TV2RUAD363EVFPUWVPB97SBP","url":"https://gershmanlab.com/experiments/alicia/teaching/experiment/?hitId=34KYK9TV2RUAD363EVFPUWVPB97SBP&workerId=AOS2PVHT2HYTL&assignmentId=3YT88D1N09K989NCLVWJAA2Q5BA3KB&a=N8TY7&tp_a=N8TY7&b=3YT88D1N09K989NCLVWJAA2Q5BA3KB&tp_b=3YT88D1N09K989NCLVWJAA2Q5BA3KB&c=365717&tp_c=365717"},{"rt":10747,"stimulus":"\n            <h4 style=\"color:Orange;\">Student 6</h4>\n            <h2>The weight of your coin is <b style=\"color:Tomato;\">0.5</b>.</h2>\n            <p>In this block, you will be giving <b>two</b> sets of examples to Student 6.</p>\n                <p>You will see the student's guess after the first set of examples. You will also receive feedback at the end of the block.</p>\n            <p>To earn the highest bonus, you will have to <b>take into consideration the student's guess</b> when you choose your second set of examples.</p>","response":0,"trial_type":"html-button-response","trial_index":42,"time_elapsed":826438,"internal_node_id":"0.0-41.0","params":{"nStudents":24,"maxFlips":30,"completionMinutes":45,"basePay":8,"maxBonus":9,"perTrialBonus":0.5,"perTrialBonusThreshold":0.05,"exampleCost":0.01},"classroomParams":{"A":{"a":1,"b":4},"B":{"a":4,"b":1},"C":{"a":2,"b":8},"D":{"a":8,"b":2}},"conditions":["nonSeqFull","nonSeqPartial","seqNoFeedback","seqFeedback"],"classroomPairings":[["A","B"],["C","D"]],"coinWeights":[0.2,0.5,0.8],"subjectId":"AOS2PVHT2HYTL","assignmentId":"3YT88D1N09K989NCLVWJAA2Q5BA3KB","hitId":"34KYK9TV2RUAD363EVFPUWVPB97SBP","url":"https://gershmanlab.com/experiments/alicia/teaching/experiment/?hitId=34KYK9TV2RUAD363EVFPUWVPB97SBP&workerId=AOS2PVHT2HYTL&assignmentId=3YT88D1N09K989NCLVWJAA2Q5BA3KB&a=N8TY7&tp_a=N8TY7&b=3YT88D1N09K989NCLVWJAA2Q5BA3KB&tp_b=3YT88D1N09K989NCLVWJAA2Q5BA3KB&c=365717&tp_c=365717"},{"rt":19405,"response":{"heads":"5","tails":"5"},"type":"response","condition":"seqFeedback","trueTheta":0.5,"classrooms":["C","D"],"studentTrueClassroom":"D","exampleSet":"first","trial_type":"survey-html-form","trial_index":43,"time_elapsed":845847,"internal_node_id":"0.0-42.0-0.0","params":{"nStudents":24,"maxFlips":30,"completionMinutes":45,"basePay":8,"maxBonus":9,"perTrialBonus":0.5,"perTrialBonusThreshold":0.05,"exampleCost":0.01},"classroomParams":{"A":{"a":1,"b":4},"B":{"a":4,"b":1},"C":{"a":2,"b":8},"D":{"a":8,"b":2}},"conditions":["nonSeqFull","nonSeqPartial","seqNoFeedback","seqFeedback"],"classroomPairings":[["A","B"],["C","D"]],"coinWeights":[0.2,0.5,0.8],"subjectId":"AOS2PVHT2HYTL","assignmentId":"3YT88D1N09K989NCLVWJAA2Q5BA3KB","hitId":"34KYK9TV2RUAD363EVFPUWVPB97SBP","url":"https://gershmanlab.com/experiments/alicia/teaching/experiment/?hitId=34KYK9TV2RUAD363EVFPUWVPB97SBP&workerId=AOS2PVHT2HYTL&assignmentId=3YT88D1N09K989NCLVWJAA2Q5BA3KB&a=N8TY7&tp_a=N8TY7&b=3YT88D1N09K989NCLVWJAA2Q5BA3KB&tp_b=3YT88D1N09K989NCLVWJAA2Q5BA3KB&c=365717&tp_c=365717","heads":5,"tails":5,"studentIndex":5,"studentTrueHypers":{"a":8,"b":2},"studentGuess":0.65,"delta":0.15000000000000002,"totalExamples":10,"bonusSoFar":0.1},{"rt":null,"stimulus":"Sending examples to student... ","response":null,"trial_type":"html-keyboard-response","trial_index":44,"time_elapsed":847857,"internal_node_id":"0.0-43.0","params":{"nStudents":24,"maxFlips":30,"completionMinutes":45,"basePay":8,"maxBonus":9,"perTrialBonus":0.5,"perTrialBonusThreshold":0.05,"exampleCost":0.01},"classroomParams":{"A":{"a":1,"b":4},"B":{"a":4,"b":1},"C":{"a":2,"b":8},"D":{"a":8,"b":2}},"conditions":["nonSeqFull","nonSeqPartial","seqNoFeedback","seqFeedback"],"classroomPairings":[["A","B"],["C","D"]],"coinWeights":[0.2,0.5,0.8],"subjectId":"AOS2PVHT2HYTL","assignmentId":"3YT88D1N09K989NCLVWJAA2Q5BA3KB","hitId":"34KYK9TV2RUAD363EVFPUWVPB97SBP","url":"https://gershmanlab.com/experiments/alicia/teaching/experiment/?hitId=34KYK9TV2RUAD363EVFPUWVPB97SBP&workerId=AOS2PVHT2HYTL&assignmentId=3YT88D1N09K989NCLVWJAA2Q5BA3KB&a=N8TY7&tp_a=N8TY7&b=3YT88D1N09K989NCLVWJAA2Q5BA3KB&tp_b=3YT88D1N09K989NCLVWJAA2Q5BA3KB&c=365717&tp_c=365717"},{"rt":null,"stimulus":"Examples sent to student! Waiting for student...","response":null,"trial_type":"html-keyboard-response","trial_index":45,"time_elapsed":851873,"internal_node_id":"0.0-44.0","params":{"nStudents":24,"maxFlips":30,"completionMinutes":45,"basePay":8,"maxBonus":9,"perTrialBonus":0.5,"perTrialBonusThreshold":0.05,"exampleCost":0.01},"classroomParams":{"A":{"a":1,"b":4},"B":{"a":4,"b":1},"C":{"a":2,"b":8},"D":{"a":8,"b":2}},"conditions":["nonSeqFull","nonSeqPartial","seqNoFeedback","seqFeedback"],"classroomPairings":[["A","B"],["C","D"]],"coinWeights":[0.2,0.5,0.8],"subjectId":"AOS2PVHT2HYTL","assignmentId":"3YT88D1N09K989NCLVWJAA2Q5BA3KB","hitId":"34KYK9TV2RUAD363EVFPUWVPB97SBP","url":"https://gershmanlab.com/experiments/alicia/teaching/experiment/?hitId=34KYK9TV2RUAD363EVFPUWVPB97SBP&workerId=AOS2PVHT2HYTL&assignmentId=3YT88D1N09K989NCLVWJAA2Q5BA3KB&a=N8TY7&tp_a=N8TY7&b=3YT88D1N09K989NCLVWJAA2Q5BA3KB&tp_b=3YT88D1N09K989NCLVWJAA2Q5BA3KB&c=365717&tp_c=365717"},{"rt":8045,"stimulus":"\n                <p>Student's guess for coin weight: <b style=\"color:Tomato;\">0.65</b></p>\n                <p></b></p>\n                <p>You will now send another set of examples to your student. <b>Remember to take your student's guess into consideration so that you can earn the highest bonus possible!</b> </p>\n                <p>Press any key to continue.</p>\n                ","response":" ","trial_type":"html-keyboard-response","trial_index":46,"time_elapsed":859921,"internal_node_id":"0.0-45.0","params":{"nStudents":24,"maxFlips":30,"completionMinutes":45,"basePay":8,"maxBonus":9,"perTrialBonus":0.5,"perTrialBonusThreshold":0.05,"exampleCost":0.01},"classroomParams":{"A":{"a":1,"b":4},"B":{"a":4,"b":1},"C":{"a":2,"b":8},"D":{"a":8,"b":2}},"conditions":["nonSeqFull","nonSeqPartial","seqNoFeedback","seqFeedback"],"classroomPairings":[["A","B"],["C","D"]],"coinWeights":[0.2,0.5,0.8],"subjectId":"AOS2PVHT2HYTL","assignmentId":"3YT88D1N09K989NCLVWJAA2Q5BA3KB","hitId":"34KYK9TV2RUAD363EVFPUWVPB97SBP","url":"https://gershmanlab.com/experiments/alicia/teaching/experiment/?hitId=34KYK9TV2RUAD363EVFPUWVPB97SBP&workerId=AOS2PVHT2HYTL&assignmentId=3YT88D1N09K989NCLVWJAA2Q5BA3KB&a=N8TY7&tp_a=N8TY7&b=3YT88D1N09K989NCLVWJAA2Q5BA3KB&tp_b=3YT88D1N09K989NCLVWJAA2Q5BA3KB&c=365717&tp_c=365717"},{"rt":25668,"response":{"heads":"3","tails":"5"},"type":"response","condition":"seqFeedback","trueTheta":0.5,"classrooms":["C","D"],"studentTrueClassroom":"D","exampleSet":"second","trial_type":"survey-html-form","trial_index":47,"time_elapsed":885595,"internal_node_id":"0.0-46.0-0.0","params":{"nStudents":24,"maxFlips":30,"completionMinutes":45,"basePay":8,"maxBonus":9,"perTrialBonus":0.5,"perTrialBonusThreshold":0.05,"exampleCost":0.01},"classroomParams":{"A":{"a":1,"b":4},"B":{"a":4,"b":1},"C":{"a":2,"b":8},"D":{"a":8,"b":2}},"conditions":["nonSeqFull","nonSeqPartial","seqNoFeedback","seqFeedback"],"classroomPairings":[["A","B"],["C","D"]],"coinWeights":[0.2,0.5,0.8],"subjectId":"AOS2PVHT2HYTL","assignmentId":"3YT88D1N09K989NCLVWJAA2Q5BA3KB","hitId":"34KYK9TV2RUAD363EVFPUWVPB97SBP","url":"https://gershmanlab.com/experiments/alicia/teaching/experiment/?hitId=34KYK9TV2RUAD363EVFPUWVPB97SBP&workerId=AOS2PVHT2HYTL&assignmentId=3YT88D1N09K989NCLVWJAA2Q5BA3KB&a=N8TY7&tp_a=N8TY7&b=3YT88D1N09K989NCLVWJAA2Q5BA3KB&tp_b=3YT88D1N09K989NCLVWJAA2Q5BA3KB&c=365717&tp_c=365717","firstResponseHeads":5,"firstResponseTails":5,"secondResponseHeads":3,"secondResponseTails":5,"totalHeads":8,"totalTails":10,"studentIndex":5,"studentTrueHypers":{"a":8,"b":2},"studentGuess":0.5714285714285714,"delta":0.0714285714285714,"bonus":0,"bonusSoFar":0.1,"totalExamples":18},{"rt":null,"stimulus":"Sending examples to student... ","response":null,"trial_type":"html-keyboard-response","trial_index":48,"time_elapsed":887354,"internal_node_id":"0.0-47.0","params":{"nStudents":24,"maxFlips":30,"completionMinutes":45,"basePay":8,"maxBonus":9,"perTrialBonus":0.5,"perTrialBonusThreshold":0.05,"exampleCost":0.01},"classroomParams":{"A":{"a":1,"b":4},"B":{"a":4,"b":1},"C":{"a":2,"b":8},"D":{"a":8,"b":2}},"conditions":["nonSeqFull","nonSeqPartial","seqNoFeedback","seqFeedback"],"classroomPairings":[["A","B"],["C","D"]],"coinWeights":[0.2,0.5,0.8],"subjectId":"AOS2PVHT2HYTL","assignmentId":"3YT88D1N09K989NCLVWJAA2Q5BA3KB","hitId":"34KYK9TV2RUAD363EVFPUWVPB97SBP","url":"https://gershmanlab.com/experiments/alicia/teaching/experiment/?hitId=34KYK9TV2RUAD363EVFPUWVPB97SBP&workerId=AOS2PVHT2HYTL&assignmentId=3YT88D1N09K989NCLVWJAA2Q5BA3KB&a=N8TY7&tp_a=N8TY7&b=3YT88D1N09K989NCLVWJAA2Q5BA3KB&tp_b=3YT88D1N09K989NCLVWJAA2Q5BA3KB&c=365717&tp_c=365717"},{"rt":null,"stimulus":"Examples sent to student! Waiting for student...","response":null,"trial_type":"html-keyboard-response","trial_index":49,"time_elapsed":891370,"internal_node_id":"0.0-48.0","params":{"nStudents":24,"maxFlips":30,"completionMinutes":45,"basePay":8,"maxBonus":9,"perTrialBonus":0.5,"perTrialBonusThreshold":0.05,"exampleCost":0.01},"classroomParams":{"A":{"a":1,"b":4},"B":{"a":4,"b":1},"C":{"a":2,"b":8},"D":{"a":8,"b":2}},"conditions":["nonSeqFull","nonSeqPartial","seqNoFeedback","seqFeedback"],"classroomPairings":[["A","B"],["C","D"]],"coinWeights":[0.2,0.5,0.8],"subjectId":"AOS2PVHT2HYTL","assignmentId":"3YT88D1N09K989NCLVWJAA2Q5BA3KB","hitId":"34KYK9TV2RUAD363EVFPUWVPB97SBP","url":"https://gershmanlab.com/experiments/alicia/teaching/experiment/?hitId=34KYK9TV2RUAD363EVFPUWVPB97SBP&workerId=AOS2PVHT2HYTL&assignmentId=3YT88D1N09K989NCLVWJAA2Q5BA3KB&a=N8TY7&tp_a=N8TY7&b=3YT88D1N09K989NCLVWJAA2Q5BA3KB&tp_b=3YT88D1N09K989NCLVWJAA2Q5BA3KB&c=365717&tp_c=365717"},{"rt":5464,"stimulus":"\n                <p>Student 6's first guess for coin weight: <b style=\"color:Tomato\";>0.65</b></p>\n                <p>Student 6's second guess for coin weight: <b style=\"color:Tomato\";>0.57</b></p>\n                <p>You received a bonus of <b>$0.00</b> based on the student's second guess.</p>\n                <p>Total bonus so far: <b>$0.10</b></p>\n                <p>Press any key to continue.</p>\n                ","response":" ","trial_type":"html-keyboard-response","trial_index":50,"time_elapsed":896835,"internal_node_id":"0.0-49.0","params":{"nStudents":24,"maxFlips":30,"completionMinutes":45,"basePay":8,"maxBonus":9,"perTrialBonus":0.5,"perTrialBonusThreshold":0.05,"exampleCost":0.01},"classroomParams":{"A":{"a":1,"b":4},"B":{"a":4,"b":1},"C":{"a":2,"b":8},"D":{"a":8,"b":2}},"conditions":["nonSeqFull","nonSeqPartial","seqNoFeedback","seqFeedback"],"classroomPairings":[["A","B"],["C","D"]],"coinWeights":[0.2,0.5,0.8],"subjectId":"AOS2PVHT2HYTL","assignmentId":"3YT88D1N09K989NCLVWJAA2Q5BA3KB","hitId":"34KYK9TV2RUAD363EVFPUWVPB97SBP","url":"https://gershmanlab.com/experiments/alicia/teaching/experiment/?hitId=34KYK9TV2RUAD363EVFPUWVPB97SBP&workerId=AOS2PVHT2HYTL&assignmentId=3YT88D1N09K989NCLVWJAA2Q5BA3KB&a=N8TY7&tp_a=N8TY7&b=3YT88D1N09K989NCLVWJAA2Q5BA3KB&tp_b=3YT88D1N09K989NCLVWJAA2Q5BA3KB&c=365717&tp_c=365717"},{"rt":null,"stimulus":"<div style=\"font-size:60px;\">Next student</div>","response":null,"trial_type":"html-keyboard-response","trial_index":51,"time_elapsed":899342,"internal_node_id":"0.0-50.0-0.0","params":{"nStudents":24,"maxFlips":30,"completionMinutes":45,"basePay":8,"maxBonus":9,"perTrialBonus":0.5,"perTrialBonusThreshold":0.05,"exampleCost":0.01},"classroomParams":{"A":{"a":1,"b":4},"B":{"a":4,"b":1},"C":{"a":2,"b":8},"D":{"a":8,"b":2}},"conditions":["nonSeqFull","nonSeqPartial","seqNoFeedback","seqFeedback"],"classroomPairings":[["A","B"],["C","D"]],"coinWeights":[0.2,0.5,0.8],"subjectId":"AOS2PVHT2HYTL","assignmentId":"3YT88D1N09K989NCLVWJAA2Q5BA3KB","hitId":"34KYK9TV2RUAD363EVFPUWVPB97SBP","url":"https://gershmanlab.com/experiments/alicia/teaching/experiment/?hitId=34KYK9TV2RUAD363EVFPUWVPB97SBP&workerId=AOS2PVHT2HYTL&assignmentId=3YT88D1N09K989NCLVWJAA2Q5BA3KB&a=N8TY7&tp_a=N8TY7&b=3YT88D1N09K989NCLVWJAA2Q5BA3KB&tp_b=3YT88D1N09K989NCLVWJAA2Q5BA3KB&c=365717&tp_c=365717"},{"rt":6361,"stimulus":"\n            <h4 style=\"color:Orange;\">Student 7</h4>\n            <h2>The weight of your coin is <b style=\"color:Tomato;\">0.8</b>.</h2>\n            <p>In this block, you will be giving <b>two</b> sets of examples to Student 7.</p>\n                <p>You will see the student's guess after the first set of examples. You will also receive feedback at the end of the block.</p>\n            <p>To earn the highest bonus, you will have to <b>take into consideration the student's guess</b> when you choose your second set of examples.</p>","response":0,"trial_type":"html-button-response","trial_index":52,"time_elapsed":905706,"internal_node_id":"0.0-51.0","params":{"nStudents":24,"maxFlips":30,"completionMinutes":45,"basePay":8,"maxBonus":9,"perTrialBonus":0.5,"perTrialBonusThreshold":0.05,"exampleCost":0.01},"classroomParams":{"A":{"a":1,"b":4},"B":{"a":4,"b":1},"C":{"a":2,"b":8},"D":{"a":8,"b":2}},"conditions":["nonSeqFull","nonSeqPartial","seqNoFeedback","seqFeedback"],"classroomPairings":[["A","B"],["C","D"]],"coinWeights":[0.2,0.5,0.8],"subjectId":"AOS2PVHT2HYTL","assignmentId":"3YT88D1N09K989NCLVWJAA2Q5BA3KB","hitId":"34KYK9TV2RUAD363EVFPUWVPB97SBP","url":"https://gershmanlab.com/experiments/alicia/teaching/experiment/?hitId=34KYK9TV2RUAD363EVFPUWVPB97SBP&workerId=AOS2PVHT2HYTL&assignmentId=3YT88D1N09K989NCLVWJAA2Q5BA3KB&a=N8TY7&tp_a=N8TY7&b=3YT88D1N09K989NCLVWJAA2Q5BA3KB&tp_b=3YT88D1N09K989NCLVWJAA2Q5BA3KB&c=365717&tp_c=365717"},{"rt":24244,"response":{"heads":"17","tails":"8"},"type":"response","condition":"seqFeedback","trueTheta":0.8,"classrooms":["C","D"],"studentTrueClassroom":"D","exampleSet":"first","trial_type":"survey-html-form","trial_index":53,"time_elapsed":929955,"internal_node_id":"0.0-52.0-0.0","params":{"nStudents":24,"maxFlips":30,"completionMinutes":45,"basePay":8,"maxBonus":9,"perTrialBonus":0.5,"perTrialBonusThreshold":0.05,"exampleCost":0.01},"classroomParams":{"A":{"a":1,"b":4},"B":{"a":4,"b":1},"C":{"a":2,"b":8},"D":{"a":8,"b":2}},"conditions":["nonSeqFull","nonSeqPartial","seqNoFeedback","seqFeedback"],"classroomPairings":[["A","B"],["C","D"]],"coinWeights":[0.2,0.5,0.8],"subjectId":"AOS2PVHT2HYTL","assignmentId":"3YT88D1N09K989NCLVWJAA2Q5BA3KB","hitId":"34KYK9TV2RUAD363EVFPUWVPB97SBP","url":"https://gershmanlab.com/experiments/alicia/teaching/experiment/?hitId=34KYK9TV2RUAD363EVFPUWVPB97SBP&workerId=AOS2PVHT2HYTL&assignmentId=3YT88D1N09K989NCLVWJAA2Q5BA3KB&a=N8TY7&tp_a=N8TY7&b=3YT88D1N09K989NCLVWJAA2Q5BA3KB&tp_b=3YT88D1N09K989NCLVWJAA2Q5BA3KB&c=365717&tp_c=365717","heads":17,"tails":8,"studentIndex":6,"studentTrueHypers":{"a":8,"b":2},"studentGuess":0.7142857142857143,"delta":0.08571428571428574,"totalExamples":25,"bonusSoFar":0.1},{"rt":null,"stimulus":"Sending examples to student... ","response":null,"trial_type":"html-keyboard-response","trial_index":54,"time_elapsed":931710,"internal_node_id":"0.0-53.0","params":{"nStudents":24,"maxFlips":30,"completionMinutes":45,"basePay":8,"maxBonus":9,"perTrialBonus":0.5,"perTrialBonusThreshold":0.05,"exampleCost":0.01},"classroomParams":{"A":{"a":1,"b":4},"B":{"a":4,"b":1},"C":{"a":2,"b":8},"D":{"a":8,"b":2}},"conditions":["nonSeqFull","nonSeqPartial","seqNoFeedback","seqFeedback"],"classroomPairings":[["A","B"],["C","D"]],"coinWeights":[0.2,0.5,0.8],"subjectId":"AOS2PVHT2HYTL","assignmentId":"3YT88D1N09K989NCLVWJAA2Q5BA3KB","hitId":"34KYK9TV2RUAD363EVFPUWVPB97SBP","url":"https://gershmanlab.com/experiments/alicia/teaching/experiment/?hitId=34KYK9TV2RUAD363EVFPUWVPB97SBP&workerId=AOS2PVHT2HYTL&assignmentId=3YT88D1N09K989NCLVWJAA2Q5BA3KB&a=N8TY7&tp_a=N8TY7&b=3YT88D1N09K989NCLVWJAA2Q5BA3KB&tp_b=3YT88D1N09K989NCLVWJAA2Q5BA3KB&c=365717&tp_c=365717"},{"rt":null,"stimulus":"Examples sent to student! Waiting for student...","response":null,"trial_type":"html-keyboard-response","trial_index":55,"time_elapsed":937225,"internal_node_id":"0.0-54.0","params":{"nStudents":24,"maxFlips":30,"completionMinutes":45,"basePay":8,"maxBonus":9,"perTrialBonus":0.5,"perTrialBonusThreshold":0.05,"exampleCost":0.01},"classroomParams":{"A":{"a":1,"b":4},"B":{"a":4,"b":1},"C":{"a":2,"b":8},"D":{"a":8,"b":2}},"conditions":["nonSeqFull","nonSeqPartial","seqNoFeedback","seqFeedback"],"classroomPairings":[["A","B"],["C","D"]],"coinWeights":[0.2,0.5,0.8],"subjectId":"AOS2PVHT2HYTL","assignmentId":"3YT88D1N09K989NCLVWJAA2Q5BA3KB","hitId":"34KYK9TV2RUAD363EVFPUWVPB97SBP","url":"https://gershmanlab.com/experiments/alicia/teaching/experiment/?hitId=34KYK9TV2RUAD363EVFPUWVPB97SBP&workerId=AOS2PVHT2HYTL&assignmentId=3YT88D1N09K989NCLVWJAA2Q5BA3KB&a=N8TY7&tp_a=N8TY7&b=3YT88D1N09K989NCLVWJAA2Q5BA3KB&tp_b=3YT88D1N09K989NCLVWJAA2Q5BA3KB&c=365717&tp_c=365717"},{"rt":5887,"stimulus":"\n                <p>Student's guess for coin weight: <b style=\"color:Tomato;\">0.71</b></p>\n                <p></b></p>\n                <p>You will now send another set of examples to your student. <b>Remember to take your student's guess into consideration so that you can earn the highest bonus possible!</b> </p>\n                <p>Press any key to continue.</p>\n                ","response":" ","trial_type":"html-keyboard-response","trial_index":56,"time_elapsed":943115,"internal_node_id":"0.0-55.0","params":{"nStudents":24,"maxFlips":30,"completionMinutes":45,"basePay":8,"maxBonus":9,"perTrialBonus":0.5,"perTrialBonusThreshold":0.05,"exampleCost":0.01},"classroomParams":{"A":{"a":1,"b":4},"B":{"a":4,"b":1},"C":{"a":2,"b":8},"D":{"a":8,"b":2}},"conditions":["nonSeqFull","nonSeqPartial","seqNoFeedback","seqFeedback"],"classroomPairings":[["A","B"],["C","D"]],"coinWeights":[0.2,0.5,0.8],"subjectId":"AOS2PVHT2HYTL","assignmentId":"3YT88D1N09K989NCLVWJAA2Q5BA3KB","hitId":"34KYK9TV2RUAD363EVFPUWVPB97SBP","url":"https://gershmanlab.com/experiments/alicia/teaching/experiment/?hitId=34KYK9TV2RUAD363EVFPUWVPB97SBP&workerId=AOS2PVHT2HYTL&assignmentId=3YT88D1N09K989NCLVWJAA2Q5BA3KB&a=N8TY7&tp_a=N8TY7&b=3YT88D1N09K989NCLVWJAA2Q5BA3KB&tp_b=3YT88D1N09K989NCLVWJAA2Q5BA3KB&c=365717&tp_c=365717"},{"rt":13494,"response":{"heads":"10","tails":"4"},"type":"response","condition":"seqFeedback","trueTheta":0.8,"classrooms":["C","D"],"studentTrueClassroom":"D","exampleSet":"second","trial_type":"survey-html-form","trial_index":57,"time_elapsed":956613,"internal_node_id":"0.0-56.0-0.0","params":{"nStudents":24,"maxFlips":30,"completionMinutes":45,"basePay":8,"maxBonus":9,"perTrialBonus":0.5,"perTrialBonusThreshold":0.05,"exampleCost":0.01},"classroomParams":{"A":{"a":1,"b":4},"B":{"a":4,"b":1},"C":{"a":2,"b":8},"D":{"a":8,"b":2}},"conditions":["nonSeqFull","nonSeqPartial","seqNoFeedback","seqFeedback"],"classroomPairings":[["A","B"],["C","D"]],"coinWeights":[0.2,0.5,0.8],"subjectId":"AOS2PVHT2HYTL","assignmentId":"3YT88D1N09K989NCLVWJAA2Q5BA3KB","hitId":"34KYK9TV2RUAD363EVFPUWVPB97SBP","url":"https://gershmanlab.com/experiments/alicia/teaching/experiment/?hitId=34KYK9TV2RUAD363EVFPUWVPB97SBP&workerId=AOS2PVHT2HYTL&assignmentId=3YT88D1N09K989NCLVWJAA2Q5BA3KB&a=N8TY7&tp_a=N8TY7&b=3YT88D1N09K989NCLVWJAA2Q5BA3KB&tp_b=3YT88D1N09K989NCLVWJAA2Q5BA3KB&c=365717&tp_c=365717","firstResponseHeads":17,"firstResponseTails":8,"secondResponseHeads":10,"secondResponseTails":4,"totalHeads":27,"totalTails":12,"studentIndex":6,"studentTrueHypers":{"a":8,"b":2},"studentGuess":0.7142857142857143,"delta":0.08571428571428574,"bonus":0,"bonusSoFar":0.1,"totalExamples":39},{"rt":null,"stimulus":"Sending examples to student... ","response":null,"trial_type":"html-keyboard-response","trial_index":58,"time_elapsed":958379,"internal_node_id":"0.0-57.0","params":{"nStudents":24,"maxFlips":30,"completionMinutes":45,"basePay":8,"maxBonus":9,"perTrialBonus":0.5,"perTrialBonusThreshold":0.05,"exampleCost":0.01},"classroomParams":{"A":{"a":1,"b":4},"B":{"a":4,"b":1},"C":{"a":2,"b":8},"D":{"a":8,"b":2}},"conditions":["nonSeqFull","nonSeqPartial","seqNoFeedback","seqFeedback"],"classroomPairings":[["A","B"],["C","D"]],"coinWeights":[0.2,0.5,0.8],"subjectId":"AOS2PVHT2HYTL","assignmentId":"3YT88D1N09K989NCLVWJAA2Q5BA3KB","hitId":"34KYK9TV2RUAD363EVFPUWVPB97SBP","url":"https://gershmanlab.com/experiments/alicia/teaching/experiment/?hitId=34KYK9TV2RUAD363EVFPUWVPB97SBP&workerId=AOS2PVHT2HYTL&assignmentId=3YT88D1N09K989NCLVWJAA2Q5BA3KB&a=N8TY7&tp_a=N8TY7&b=3YT88D1N09K989NCLVWJAA2Q5BA3KB&tp_b=3YT88D1N09K989NCLVWJAA2Q5BA3KB&c=365717&tp_c=365717"},{"rt":null,"stimulus":"Examples sent to student! Waiting for student...","response":null,"trial_type":"html-keyboard-response","trial_index":59,"time_elapsed":964394,"internal_node_id":"0.0-58.0","params":{"nStudents":24,"maxFlips":30,"completionMinutes":45,"basePay":8,"maxBonus":9,"perTrialBonus":0.5,"perTrialBonusThreshold":0.05,"exampleCost":0.01},"classroomParams":{"A":{"a":1,"b":4},"B":{"a":4,"b":1},"C":{"a":2,"b":8},"D":{"a":8,"b":2}},"conditions":["nonSeqFull","nonSeqPartial","seqNoFeedback","seqFeedback"],"classroomPairings":[["A","B"],["C","D"]],"coinWeights":[0.2,0.5,0.8],"subjectId":"AOS2PVHT2HYTL","assignmentId":"3YT88D1N09K989NCLVWJAA2Q5BA3KB","hitId":"34KYK9TV2RUAD363EVFPUWVPB97SBP","url":"https://gershmanlab.com/experiments/alicia/teaching/experiment/?hitId=34KYK9TV2RUAD363EVFPUWVPB97SBP&workerId=AOS2PVHT2HYTL&assignmentId=3YT88D1N09K989NCLVWJAA2Q5BA3KB&a=N8TY7&tp_a=N8TY7&b=3YT88D1N09K989NCLVWJAA2Q5BA3KB&tp_b=3YT88D1N09K989NCLVWJAA2Q5BA3KB&c=365717&tp_c=365717"},{"rt":5048,"stimulus":"\n                <p>Student 7's first guess for coin weight: <b style=\"color:Tomato\";>0.71</b></p>\n                <p>Student 7's second guess for coin weight: <b style=\"color:Tomato\";>0.71</b></p>\n                <p>You received a bonus of <b>$0.00</b> based on the student's second guess.</p>\n                <p>Total bonus so far: <b>$0.10</b></p>\n                <p>Press any key to continue.</p>\n                ","response":" ","trial_type":"html-keyboard-response","trial_index":60,"time_elapsed":969445,"internal_node_id":"0.0-59.0","params":{"nStudents":24,"maxFlips":30,"completionMinutes":45,"basePay":8,"maxBonus":9,"perTrialBonus":0.5,"perTrialBonusThreshold":0.05,"exampleCost":0.01},"classroomParams":{"A":{"a":1,"b":4},"B":{"a":4,"b":1},"C":{"a":2,"b":8},"D":{"a":8,"b":2}},"conditions":["nonSeqFull","nonSeqPartial","seqNoFeedback","seqFeedback"],"classroomPairings":[["A","B"],["C","D"]],"coinWeights":[0.2,0.5,0.8],"subjectId":"AOS2PVHT2HYTL","assignmentId":"3YT88D1N09K989NCLVWJAA2Q5BA3KB","hitId":"34KYK9TV2RUAD363EVFPUWVPB97SBP","url":"https://gershmanlab.com/experiments/alicia/teaching/experiment/?hitId=34KYK9TV2RUAD363EVFPUWVPB97SBP&workerId=AOS2PVHT2HYTL&assignmentId=3YT88D1N09K989NCLVWJAA2Q5BA3KB&a=N8TY7&tp_a=N8TY7&b=3YT88D1N09K989NCLVWJAA2Q5BA3KB&tp_b=3YT88D1N09K989NCLVWJAA2Q5BA3KB&c=365717&tp_c=365717"},{"rt":null,"stimulus":"<div style=\"font-size:60px;\">Next student</div>","response":null,"trial_type":"html-keyboard-response","trial_index":61,"time_elapsed":971961,"internal_node_id":"0.0-60.0-0.0","params":{"nStudents":24,"maxFlips":30,"completionMinutes":45,"basePay":8,"maxBonus":9,"perTrialBonus":0.5,"perTrialBonusThreshold":0.05,"exampleCost":0.01},"classroomParams":{"A":{"a":1,"b":4},"B":{"a":4,"b":1},"C":{"a":2,"b":8},"D":{"a":8,"b":2}},"conditions":["nonSeqFull","nonSeqPartial","seqNoFeedback","seqFeedback"],"classroomPairings":[["A","B"],["C","D"]],"coinWeights":[0.2,0.5,0.8],"subjectId":"AOS2PVHT2HYTL","assignmentId":"3YT88D1N09K989NCLVWJAA2Q5BA3KB","hitId":"34KYK9TV2RUAD363EVFPUWVPB97SBP","url":"https://gershmanlab.com/experiments/alicia/teaching/experiment/?hitId=34KYK9TV2RUAD363EVFPUWVPB97SBP&workerId=AOS2PVHT2HYTL&assignmentId=3YT88D1N09K989NCLVWJAA2Q5BA3KB&a=N8TY7&tp_a=N8TY7&b=3YT88D1N09K989NCLVWJAA2Q5BA3KB&tp_b=3YT88D1N09K989NCLVWJAA2Q5BA3KB&c=365717&tp_c=365717"},{"rt":4529,"stimulus":"\n            <h4 style=\"color:Orange;\">Student 8</h4>\n            <h2>The weight of your coin is <b style=\"color:Tomato;\">0.8</b>.</h2>\n            <p>In this block, you will be giving <b>two</b> sets of examples to Student 8.</p>\n                <p>You will see the student's guess after the first set of examples. You will also receive feedback at the end of the block.</p>\n            <p>To earn the highest bonus, you will have to <b>take into consideration the student's guess</b> when you choose your second set of examples.</p>","response":0,"trial_type":"html-button-response","trial_index":62,"time_elapsed":976494,"internal_node_id":"0.0-61.0","params":{"nStudents":24,"maxFlips":30,"completionMinutes":45,"basePay":8,"maxBonus":9,"perTrialBonus":0.5,"perTrialBonusThreshold":0.05,"exampleCost":0.01},"classroomParams":{"A":{"a":1,"b":4},"B":{"a":4,"b":1},"C":{"a":2,"b":8},"D":{"a":8,"b":2}},"conditions":["nonSeqFull","nonSeqPartial","seqNoFeedback","seqFeedback"],"classroomPairings":[["A","B"],["C","D"]],"coinWeights":[0.2,0.5,0.8],"subjectId":"AOS2PVHT2HYTL","assignmentId":"3YT88D1N09K989NCLVWJAA2Q5BA3KB","hitId":"34KYK9TV2RUAD363EVFPUWVPB97SBP","url":"https://gershmanlab.com/experiments/alicia/teaching/experiment/?hitId=34KYK9TV2RUAD363EVFPUWVPB97SBP&workerId=AOS2PVHT2HYTL&assignmentId=3YT88D1N09K989NCLVWJAA2Q5BA3KB&a=N8TY7&tp_a=N8TY7&b=3YT88D1N09K989NCLVWJAA2Q5BA3KB&tp_b=3YT88D1N09K989NCLVWJAA2Q5BA3KB&c=365717&tp_c=365717"},{"rt":39016,"response":{"heads":"30","tails":"5"},"type":"response","condition":"seqFeedback","trueTheta":0.8,"classrooms":["A","B"],"studentTrueClassroom":"B","exampleSet":"first","trial_type":"survey-html-form","trial_index":63,"time_elapsed":1015515,"internal_node_id":"0.0-62.0-0.0","params":{"nStudents":24,"maxFlips":30,"completionMinutes":45,"basePay":8,"maxBonus":9,"perTrialBonus":0.5,"perTrialBonusThreshold":0.05,"exampleCost":0.01},"classroomParams":{"A":{"a":1,"b":4},"B":{"a":4,"b":1},"C":{"a":2,"b":8},"D":{"a":8,"b":2}},"conditions":["nonSeqFull","nonSeqPartial","seqNoFeedback","seqFeedback"],"classroomPairings":[["A","B"],["C","D"]],"coinWeights":[0.2,0.5,0.8],"subjectId":"AOS2PVHT2HYTL","assignmentId":"3YT88D1N09K989NCLVWJAA2Q5BA3KB","hitId":"34KYK9TV2RUAD363EVFPUWVPB97SBP","url":"https://gershmanlab.com/experiments/alicia/teaching/experiment/?hitId=34KYK9TV2RUAD363EVFPUWVPB97SBP&workerId=AOS2PVHT2HYTL&assignmentId=3YT88D1N09K989NCLVWJAA2Q5BA3KB&a=N8TY7&tp_a=N8TY7&b=3YT88D1N09K989NCLVWJAA2Q5BA3KB&tp_b=3YT88D1N09K989NCLVWJAA2Q5BA3KB&c=365717&tp_c=365717","heads":30,"tails":5,"studentIndex":7,"studentTrueHypers":{"a":4,"b":1},"studentGuess":0.85,"delta":0.04999999999999993,"totalExamples":35,"bonusSoFar":0.1},{"rt":25184,"response":{"heads":"20","tails":"10"},"type":"response","condition":"seqFeedback","trueTheta":0.8,"classrooms":["A","B"],"studentTrueClassroom":"B","exampleSet":"first","trial_type":"survey-html-form","trial_index":64,"time_elapsed":1040706,"internal_node_id":"0.0-62.1-0.1","params":{"nStudents":24,"maxFlips":30,"completionMinutes":45,"basePay":8,"maxBonus":9,"perTrialBonus":0.5,"perTrialBonusThreshold":0.05,"exampleCost":0.01},"classroomParams":{"A":{"a":1,"b":4},"B":{"a":4,"b":1},"C":{"a":2,"b":8},"D":{"a":8,"b":2}},"conditions":["nonSeqFull","nonSeqPartial","seqNoFeedback","seqFeedback"],"classroomPairings":[["A","B"],["C","D"]],"coinWeights":[0.2,0.5,0.8],"subjectId":"AOS2PVHT2HYTL","assignmentId":"3YT88D1N09K989NCLVWJAA2Q5BA3KB","hitId":"34KYK9TV2RUAD363EVFPUWVPB97SBP","url":"https://gershmanlab.com/experiments/alicia/teaching/experiment/?hitId=34KYK9TV2RUAD363EVFPUWVPB97SBP&workerId=AOS2PVHT2HYTL&assignmentId=3YT88D1N09K989NCLVWJAA2Q5BA3KB&a=N8TY7&tp_a=N8TY7&b=3YT88D1N09K989NCLVWJAA2Q5BA3KB&tp_b=3YT88D1N09K989NCLVWJAA2Q5BA3KB&c=365717&tp_c=365717","heads":20,"tails":10,"studentIndex":7,"studentTrueHypers":{"a":4,"b":1},"studentGuess":0.6857142857142857,"delta":0.11428571428571432,"totalExamples":30,"bonusSoFar":0.1},{"rt":null,"stimulus":"Sending examples to student... ","response":null,"trial_type":"html-keyboard-response","trial_index":65,"time_elapsed":1042465,"internal_node_id":"0.0-63.0","params":{"nStudents":24,"maxFlips":30,"completionMinutes":45,"basePay":8,"maxBonus":9,"perTrialBonus":0.5,"perTrialBonusThreshold":0.05,"exampleCost":0.01},"classroomParams":{"A":{"a":1,"b":4},"B":{"a":4,"b":1},"C":{"a":2,"b":8},"D":{"a":8,"b":2}},"conditions":["nonSeqFull","nonSeqPartial","seqNoFeedback","seqFeedback"],"classroomPairings":[["A","B"],["C","D"]],"coinWeights":[0.2,0.5,0.8],"subjectId":"AOS2PVHT2HYTL","assignmentId":"3YT88D1N09K989NCLVWJAA2Q5BA3KB","hitId":"34KYK9TV2RUAD363EVFPUWVPB97SBP","url":"https://gershmanlab.com/experiments/alicia/teaching/experiment/?hitId=34KYK9TV2RUAD363EVFPUWVPB97SBP&workerId=AOS2PVHT2HYTL&assignmentId=3YT88D1N09K989NCLVWJAA2Q5BA3KB&a=N8TY7&tp_a=N8TY7&b=3YT88D1N09K989NCLVWJAA2Q5BA3KB&tp_b=3YT88D1N09K989NCLVWJAA2Q5BA3KB&c=365717&tp_c=365717"},{"rt":null,"stimulus":"Examples sent to student! Waiting for student...","response":null,"trial_type":"html-keyboard-response","trial_index":66,"time_elapsed":1047508,"internal_node_id":"0.0-64.0","params":{"nStudents":24,"maxFlips":30,"completionMinutes":45,"basePay":8,"maxBonus":9,"perTrialBonus":0.5,"perTrialBonusThreshold":0.05,"exampleCost":0.01},"classroomParams":{"A":{"a":1,"b":4},"B":{"a":4,"b":1},"C":{"a":2,"b":8},"D":{"a":8,"b":2}},"conditions":["nonSeqFull","nonSeqPartial","seqNoFeedback","seqFeedback"],"classroomPairings":[["A","B"],["C","D"]],"coinWeights":[0.2,0.5,0.8],"subjectId":"AOS2PVHT2HYTL","assignmentId":"3YT88D1N09K989NCLVWJAA2Q5BA3KB","hitId":"34KYK9TV2RUAD363EVFPUWVPB97SBP","url":"https://gershmanlab.com/experiments/alicia/teaching/experiment/?hitId=34KYK9TV2RUAD363EVFPUWVPB97SBP&workerId=AOS2PVHT2HYTL&assignmentId=3YT88D1N09K989NCLVWJAA2Q5BA3KB&a=N8TY7&tp_a=N8TY7&b=3YT88D1N09K989NCLVWJAA2Q5BA3KB&tp_b=3YT88D1N09K989NCLVWJAA2Q5BA3KB&c=365717&tp_c=365717"},{"rt":5140,"stimulus":"\n                <p>Student's guess for coin weight: <b style=\"color:Tomato;\">0.85</b></p>\n                <p></b></p>\n                <p>You will now send another set of examples to your student. <b>Remember to take your student's guess into consideration so that you can earn the highest bonus possible!</b> </p>\n                <p>Press any key to continue.</p>\n                ","response":" ","trial_type":"html-keyboard-response","trial_index":67,"time_elapsed":1052650,"internal_node_id":"0.0-65.0","params":{"nStudents":24,"maxFlips":30,"completionMinutes":45,"basePay":8,"maxBonus":9,"perTrialBonus":0.5,"perTrialBonusThreshold":0.05,"exampleCost":0.01},"classroomParams":{"A":{"a":1,"b":4},"B":{"a":4,"b":1},"C":{"a":2,"b":8},"D":{"a":8,"b":2}},"conditions":["nonSeqFull","nonSeqPartial","seqNoFeedback","seqFeedback"],"classroomPairings":[["A","B"],["C","D"]],"coinWeights":[0.2,0.5,0.8],"subjectId":"AOS2PVHT2HYTL","assignmentId":"3YT88D1N09K989NCLVWJAA2Q5BA3KB","hitId":"34KYK9TV2RUAD363EVFPUWVPB97SBP","url":"https://gershmanlab.com/experiments/alicia/teaching/experiment/?hitId=34KYK9TV2RUAD363EVFPUWVPB97SBP&workerId=AOS2PVHT2HYTL&assignmentId=3YT88D1N09K989NCLVWJAA2Q5BA3KB&a=N8TY7&tp_a=N8TY7&b=3YT88D1N09K989NCLVWJAA2Q5BA3KB&tp_b=3YT88D1N09K989NCLVWJAA2Q5BA3KB&c=365717&tp_c=365717"},{"rt":16078,"response":{"heads":"20","tails":"10"},"type":"response","condition":"seqFeedback","trueTheta":0.8,"classrooms":["A","B"],"studentTrueClassroom":"B","exampleSet":"second","trial_type":"survey-html-form","trial_index":68,"time_elapsed":1068732,"internal_node_id":"0.0-66.0-0.0","params":{"nStudents":24,"maxFlips":30,"completionMinutes":45,"basePay":8,"maxBonus":9,"perTrialBonus":0.5,"perTrialBonusThreshold":0.05,"exampleCost":0.01},"classroomParams":{"A":{"a":1,"b":4},"B":{"a":4,"b":1},"C":{"a":2,"b":8},"D":{"a":8,"b":2}},"conditions":["nonSeqFull","nonSeqPartial","seqNoFeedback","seqFeedback"],"classroomPairings":[["A","B"],["C","D"]],"coinWeights":[0.2,0.5,0.8],"subjectId":"AOS2PVHT2HYTL","assignmentId":"3YT88D1N09K989NCLVWJAA2Q5BA3KB","hitId":"34KYK9TV2RUAD363EVFPUWVPB97SBP","url":"https://gershmanlab.com/experiments/alicia/teaching/experiment/?hitId=34KYK9TV2RUAD363EVFPUWVPB97SBP&workerId=AOS2PVHT2HYTL&assignmentId=3YT88D1N09K989NCLVWJAA2Q5BA3KB&a=N8TY7&tp_a=N8TY7&b=3YT88D1N09K989NCLVWJAA2Q5BA3KB&tp_b=3YT88D1N09K989NCLVWJAA2Q5BA3KB&c=365717&tp_c=365717","firstResponseHeads":30,"firstResponseTails":5,"secondResponseHeads":20,"secondResponseTails":10,"totalHeads":50,"totalTails":15,"studentIndex":7,"studentTrueHypers":{"a":4,"b":1},"studentGuess":0.7714285714285715,"delta":0.02857142857142858,"bonus":0,"bonusSoFar":0.1,"totalExamples":65},{"rt":null,"stimulus":"Sending examples to student... ","response":null,"trial_type":"html-keyboard-response","trial_index":69,"time_elapsed":1070497,"internal_node_id":"0.0-67.0","params":{"nStudents":24,"maxFlips":30,"completionMinutes":45,"basePay":8,"maxBonus":9,"perTrialBonus":0.5,"perTrialBonusThreshold":0.05,"exampleCost":0.01},"classroomParams":{"A":{"a":1,"b":4},"B":{"a":4,"b":1},"C":{"a":2,"b":8},"D":{"a":8,"b":2}},"conditions":["nonSeqFull","nonSeqPartial","seqNoFeedback","seqFeedback"],"classroomPairings":[["A","B"],["C","D"]],"coinWeights":[0.2,0.5,0.8],"subjectId":"AOS2PVHT2HYTL","assignmentId":"3YT88D1N09K989NCLVWJAA2Q5BA3KB","hitId":"34KYK9TV2RUAD363EVFPUWVPB97SBP","url":"https://gershmanlab.com/experiments/alicia/teaching/experiment/?hitId=34KYK9TV2RUAD363EVFPUWVPB97SBP&workerId=AOS2PVHT2HYTL&assignmentId=3YT88D1N09K989NCLVWJAA2Q5BA3KB&a=N8TY7&tp_a=N8TY7&b=3YT88D1N09K989NCLVWJAA2Q5BA3KB&tp_b=3YT88D1N09K989NCLVWJAA2Q5BA3KB&c=365717&tp_c=365717"},{"rt":null,"stimulus":"Examples sent to student! Waiting for student...","response":null,"trial_type":"html-keyboard-response","trial_index":70,"time_elapsed":1074514,"internal_node_id":"0.0-68.0","params":{"nStudents":24,"maxFlips":30,"completionMinutes":45,"basePay":8,"maxBonus":9,"perTrialBonus":0.5,"perTrialBonusThreshold":0.05,"exampleCost":0.01},"classroomParams":{"A":{"a":1,"b":4},"B":{"a":4,"b":1},"C":{"a":2,"b":8},"D":{"a":8,"b":2}},"conditions":["nonSeqFull","nonSeqPartial","seqNoFeedback","seqFeedback"],"classroomPairings":[["A","B"],["C","D"]],"coinWeights":[0.2,0.5,0.8],"subjectId":"AOS2PVHT2HYTL","assignmentId":"3YT88D1N09K989NCLVWJAA2Q5BA3KB","hitId":"34KYK9TV2RUAD363EVFPUWVPB97SBP","url":"https://gershmanlab.com/experiments/alicia/teaching/experiment/?hitId=34KYK9TV2RUAD363EVFPUWVPB97SBP&workerId=AOS2PVHT2HYTL&assignmentId=3YT88D1N09K989NCLVWJAA2Q5BA3KB&a=N8TY7&tp_a=N8TY7&b=3YT88D1N09K989NCLVWJAA2Q5BA3KB&tp_b=3YT88D1N09K989NCLVWJAA2Q5BA3KB&c=365717&tp_c=365717"},{"rt":8141,"stimulus":"\n                <p>Student 8's first guess for coin weight: <b style=\"color:Tomato\";>0.85</b></p>\n                <p>Student 8's second guess for coin weight: <b style=\"color:Tomato\";>0.77</b></p>\n                <p>You received a bonus of <b>$0.00</b> based on the student's second guess.</p>\n                <p>Total bonus so far: <b>$0.10</b></p>\n                <p>Press any key to continue.</p>\n                ","response":" ","trial_type":"html-keyboard-response","trial_index":71,"time_elapsed":1082658,"internal_node_id":"0.0-69.0","params":{"nStudents":24,"maxFlips":30,"completionMinutes":45,"basePay":8,"maxBonus":9,"perTrialBonus":0.5,"perTrialBonusThreshold":0.05,"exampleCost":0.01},"classroomParams":{"A":{"a":1,"b":4},"B":{"a":4,"b":1},"C":{"a":2,"b":8},"D":{"a":8,"b":2}},"conditions":["nonSeqFull","nonSeqPartial","seqNoFeedback","seqFeedback"],"classroomPairings":[["A","B"],["C","D"]],"coinWeights":[0.2,0.5,0.8],"subjectId":"AOS2PVHT2HYTL","assignmentId":"3YT88D1N09K989NCLVWJAA2Q5BA3KB","hitId":"34KYK9TV2RUAD363EVFPUWVPB97SBP","url":"https://gershmanlab.com/experiments/alicia/teaching/experiment/?hitId=34KYK9TV2RUAD363EVFPUWVPB97SBP&workerId=AOS2PVHT2HYTL&assignmentId=3YT88D1N09K989NCLVWJAA2Q5BA3KB&a=N8TY7&tp_a=N8TY7&b=3YT88D1N09K989NCLVWJAA2Q5BA3KB&tp_b=3YT88D1N09K989NCLVWJAA2Q5BA3KB&c=365717&tp_c=365717"},{"rt":null,"stimulus":"<div style=\"font-size:60px;\">Next student</div>","response":null,"trial_type":"html-keyboard-response","trial_index":72,"time_elapsed":1085667,"internal_node_id":"0.0-70.0-0.0","params":{"nStudents":24,"maxFlips":30,"completionMinutes":45,"basePay":8,"maxBonus":9,"perTrialBonus":0.5,"perTrialBonusThreshold":0.05,"exampleCost":0.01},"classroomParams":{"A":{"a":1,"b":4},"B":{"a":4,"b":1},"C":{"a":2,"b":8},"D":{"a":8,"b":2}},"conditions":["nonSeqFull","nonSeqPartial","seqNoFeedback","seqFeedback"],"classroomPairings":[["A","B"],["C","D"]],"coinWeights":[0.2,0.5,0.8],"subjectId":"AOS2PVHT2HYTL","assignmentId":"3YT88D1N09K989NCLVWJAA2Q5BA3KB","hitId":"34KYK9TV2RUAD363EVFPUWVPB97SBP","url":"https://gershmanlab.com/experiments/alicia/teaching/experiment/?hitId=34KYK9TV2RUAD363EVFPUWVPB97SBP&workerId=AOS2PVHT2HYTL&assignmentId=3YT88D1N09K989NCLVWJAA2Q5BA3KB&a=N8TY7&tp_a=N8TY7&b=3YT88D1N09K989NCLVWJAA2Q5BA3KB&tp_b=3YT88D1N09K989NCLVWJAA2Q5BA3KB&c=365717&tp_c=365717"},{"rt":7476,"stimulus":"\n            <h4 style=\"color:Orange;\">Student 9</h4>\n            <h2>The weight of your coin is <b style=\"color:Tomato;\">0.2</b>.</h2>\n            <p>In this block, you will be giving <b>two</b> sets of examples to Student 9.</p>\n                <p>You will see the student's guess after the first set of examples. You will also receive feedback at the end of the block.</p>\n            <p>To earn the highest bonus, you will have to <b>take into consideration the student's guess</b> when you choose your second set of examples.</p>","response":0,"trial_type":"html-button-response","trial_index":73,"time_elapsed":1093146,"internal_node_id":"0.0-71.0","params":{"nStudents":24,"maxFlips":30,"completionMinutes":45,"basePay":8,"maxBonus":9,"perTrialBonus":0.5,"perTrialBonusThreshold":0.05,"exampleCost":0.01},"classroomParams":{"A":{"a":1,"b":4},"B":{"a":4,"b":1},"C":{"a":2,"b":8},"D":{"a":8,"b":2}},"conditions":["nonSeqFull","nonSeqPartial","seqNoFeedback","seqFeedback"],"classroomPairings":[["A","B"],["C","D"]],"coinWeights":[0.2,0.5,0.8],"subjectId":"AOS2PVHT2HYTL","assignmentId":"3YT88D1N09K989NCLVWJAA2Q5BA3KB","hitId":"34KYK9TV2RUAD363EVFPUWVPB97SBP","url":"https://gershmanlab.com/experiments/alicia/teaching/experiment/?hitId=34KYK9TV2RUAD363EVFPUWVPB97SBP&workerId=AOS2PVHT2HYTL&assignmentId=3YT88D1N09K989NCLVWJAA2Q5BA3KB&a=N8TY7&tp_a=N8TY7&b=3YT88D1N09K989NCLVWJAA2Q5BA3KB&tp_b=3YT88D1N09K989NCLVWJAA2Q5BA3KB&c=365717&tp_c=365717"},{"rt":16952,"response":{"heads":"5","tails":"15"},"type":"response","condition":"seqFeedback","trueTheta":0.2,"classrooms":["C","D"],"studentTrueClassroom":"D","exampleSet":"first","trial_type":"survey-html-form","trial_index":74,"time_elapsed":1110104,"internal_node_id":"0.0-72.0-0.0","params":{"nStudents":24,"maxFlips":30,"completionMinutes":45,"basePay":8,"maxBonus":9,"perTrialBonus":0.5,"perTrialBonusThreshold":0.05,"exampleCost":0.01},"classroomParams":{"A":{"a":1,"b":4},"B":{"a":4,"b":1},"C":{"a":2,"b":8},"D":{"a":8,"b":2}},"conditions":["nonSeqFull","nonSeqPartial","seqNoFeedback","seqFeedback"],"classroomPairings":[["A","B"],["C","D"]],"coinWeights":[0.2,0.5,0.8],"subjectId":"AOS2PVHT2HYTL","assignmentId":"3YT88D1N09K989NCLVWJAA2Q5BA3KB","hitId":"34KYK9TV2RUAD363EVFPUWVPB97SBP","url":"https://gershmanlab.com/experiments/alicia/teaching/experiment/?hitId=34KYK9TV2RUAD363EVFPUWVPB97SBP&workerId=AOS2PVHT2HYTL&assignmentId=3YT88D1N09K989NCLVWJAA2Q5BA3KB&a=N8TY7&tp_a=N8TY7&b=3YT88D1N09K989NCLVWJAA2Q5BA3KB&tp_b=3YT88D1N09K989NCLVWJAA2Q5BA3KB&c=365717&tp_c=365717","heads":5,"tails":15,"studentIndex":8,"studentTrueHypers":{"a":8,"b":2},"studentGuess":0.43333333333333335,"delta":0.23333333333333334,"totalExamples":20,"bonusSoFar":0.1},{"rt":null,"stimulus":"Sending examples to student... ","response":null,"trial_type":"html-keyboard-response","trial_index":75,"time_elapsed":1112110,"internal_node_id":"0.0-73.0","params":{"nStudents":24,"maxFlips":30,"completionMinutes":45,"basePay":8,"maxBonus":9,"perTrialBonus":0.5,"perTrialBonusThreshold":0.05,"exampleCost":0.01},"classroomParams":{"A":{"a":1,"b":4},"B":{"a":4,"b":1},"C":{"a":2,"b":8},"D":{"a":8,"b":2}},"conditions":["nonSeqFull","nonSeqPartial","seqNoFeedback","seqFeedback"],"classroomPairings":[["A","B"],["C","D"]],"coinWeights":[0.2,0.5,0.8],"subjectId":"AOS2PVHT2HYTL","assignmentId":"3YT88D1N09K989NCLVWJAA2Q5BA3KB","hitId":"34KYK9TV2RUAD363EVFPUWVPB97SBP","url":"https://gershmanlab.com/experiments/alicia/teaching/experiment/?hitId=34KYK9TV2RUAD363EVFPUWVPB97SBP&workerId=AOS2PVHT2HYTL&assignmentId=3YT88D1N09K989NCLVWJAA2Q5BA3KB&a=N8TY7&tp_a=N8TY7&b=3YT88D1N09K989NCLVWJAA2Q5BA3KB&tp_b=3YT88D1N09K989NCLVWJAA2Q5BA3KB&c=365717&tp_c=365717"},{"rt":null,"stimulus":"Examples sent to student! Waiting for student...","response":null,"trial_type":"html-keyboard-response","trial_index":76,"time_elapsed":1116115,"internal_node_id":"0.0-74.0","params":{"nStudents":24,"maxFlips":30,"completionMinutes":45,"basePay":8,"maxBonus":9,"perTrialBonus":0.5,"perTrialBonusThreshold":0.05,"exampleCost":0.01},"classroomParams":{"A":{"a":1,"b":4},"B":{"a":4,"b":1},"C":{"a":2,"b":8},"D":{"a":8,"b":2}},"conditions":["nonSeqFull","nonSeqPartial","seqNoFeedback","seqFeedback"],"classroomPairings":[["A","B"],["C","D"]],"coinWeights":[0.2,0.5,0.8],"subjectId":"AOS2PVHT2HYTL","assignmentId":"3YT88D1N09K989NCLVWJAA2Q5BA3KB","hitId":"34KYK9TV2RUAD363EVFPUWVPB97SBP","url":"https://gershmanlab.com/experiments/alicia/teaching/experiment/?hitId=34KYK9TV2RUAD363EVFPUWVPB97SBP&workerId=AOS2PVHT2HYTL&assignmentId=3YT88D1N09K989NCLVWJAA2Q5BA3KB&a=N8TY7&tp_a=N8TY7&b=3YT88D1N09K989NCLVWJAA2Q5BA3KB&tp_b=3YT88D1N09K989NCLVWJAA2Q5BA3KB&c=365717&tp_c=365717"},{"rt":3965,"stimulus":"\n                <p>Student's guess for coin weight: <b style=\"color:Tomato;\">0.43</b></p>\n                <p></b></p>\n                <p>You will now send another set of examples to your student. <b>Remember to take your student's guess into consideration so that you can earn the highest bonus possible!</b> </p>\n                <p>Press any key to continue.</p>\n                ","response":" ","trial_type":"html-keyboard-response","trial_index":77,"time_elapsed":1120082,"internal_node_id":"0.0-75.0","params":{"nStudents":24,"maxFlips":30,"completionMinutes":45,"basePay":8,"maxBonus":9,"perTrialBonus":0.5,"perTrialBonusThreshold":0.05,"exampleCost":0.01},"classroomParams":{"A":{"a":1,"b":4},"B":{"a":4,"b":1},"C":{"a":2,"b":8},"D":{"a":8,"b":2}},"conditions":["nonSeqFull","nonSeqPartial","seqNoFeedback","seqFeedback"],"classroomPairings":[["A","B"],["C","D"]],"coinWeights":[0.2,0.5,0.8],"subjectId":"AOS2PVHT2HYTL","assignmentId":"3YT88D1N09K989NCLVWJAA2Q5BA3KB","hitId":"34KYK9TV2RUAD363EVFPUWVPB97SBP","url":"https://gershmanlab.com/experiments/alicia/teaching/experiment/?hitId=34KYK9TV2RUAD363EVFPUWVPB97SBP&workerId=AOS2PVHT2HYTL&assignmentId=3YT88D1N09K989NCLVWJAA2Q5BA3KB&a=N8TY7&tp_a=N8TY7&b=3YT88D1N09K989NCLVWJAA2Q5BA3KB&tp_b=3YT88D1N09K989NCLVWJAA2Q5BA3KB&c=365717&tp_c=365717"},{"rt":9099,"response":{"heads":"0","tails":"10"},"type":"response","condition":"seqFeedback","trueTheta":0.2,"classrooms":["C","D"],"studentTrueClassroom":"D","exampleSet":"second","trial_type":"survey-html-form","trial_index":78,"time_elapsed":1129188,"internal_node_id":"0.0-76.0-0.0","params":{"nStudents":24,"maxFlips":30,"completionMinutes":45,"basePay":8,"maxBonus":9,"perTrialBonus":0.5,"perTrialBonusThreshold":0.05,"exampleCost":0.01},"classroomParams":{"A":{"a":1,"b":4},"B":{"a":4,"b":1},"C":{"a":2,"b":8},"D":{"a":8,"b":2}},"conditions":["nonSeqFull","nonSeqPartial","seqNoFeedback","seqFeedback"],"classroomPairings":[["A","B"],["C","D"]],"coinWeights":[0.2,0.5,0.8],"subjectId":"AOS2PVHT2HYTL","assignmentId":"3YT88D1N09K989NCLVWJAA2Q5BA3KB","hitId":"34KYK9TV2RUAD363EVFPUWVPB97SBP","url":"https://gershmanlab.com/experiments/alicia/teaching/experiment/?hitId=34KYK9TV2RUAD363EVFPUWVPB97SBP&workerId=AOS2PVHT2HYTL&assignmentId=3YT88D1N09K989NCLVWJAA2Q5BA3KB&a=N8TY7&tp_a=N8TY7&b=3YT88D1N09K989NCLVWJAA2Q5BA3KB&tp_b=3YT88D1N09K989NCLVWJAA2Q5BA3KB&c=365717&tp_c=365717","firstResponseHeads":5,"firstResponseTails":15,"secondResponseHeads":0,"secondResponseTails":10,"totalHeads":5,"totalTails":25,"studentIndex":8,"studentTrueHypers":{"a":8,"b":2},"studentGuess":0.325,"delta":0.125,"bonus":0,"bonusSoFar":0.1,"totalExamples":30},{"rt":null,"stimulus":"Sending examples to student... ","response":null,"trial_type":"html-keyboard-response","trial_index":79,"time_elapsed":1130983,"internal_node_id":"0.0-77.0","params":{"nStudents":24,"maxFlips":30,"completionMinutes":45,"basePay":8,"maxBonus":9,"perTrialBonus":0.5,"perTrialBonusThreshold":0.05,"exampleCost":0.01},"classroomParams":{"A":{"a":1,"b":4},"B":{"a":4,"b":1},"C":{"a":2,"b":8},"D":{"a":8,"b":2}},"conditions":["nonSeqFull","nonSeqPartial","seqNoFeedback","seqFeedback"],"classroomPairings":[["A","B"],["C","D"]],"coinWeights":[0.2,0.5,0.8],"subjectId":"AOS2PVHT2HYTL","assignmentId":"3YT88D1N09K989NCLVWJAA2Q5BA3KB","hitId":"34KYK9TV2RUAD363EVFPUWVPB97SBP","url":"https://gershmanlab.com/experiments/alicia/teaching/experiment/?hitId=34KYK9TV2RUAD363EVFPUWVPB97SBP&workerId=AOS2PVHT2HYTL&assignmentId=3YT88D1N09K989NCLVWJAA2Q5BA3KB&a=N8TY7&tp_a=N8TY7&b=3YT88D1N09K989NCLVWJAA2Q5BA3KB&tp_b=3YT88D1N09K989NCLVWJAA2Q5BA3KB&c=365717&tp_c=365717"},{"rt":null,"stimulus":"Examples sent to student! Waiting for student...","response":null,"trial_type":"html-keyboard-response","trial_index":80,"time_elapsed":1135489,"internal_node_id":"0.0-78.0","params":{"nStudents":24,"maxFlips":30,"completionMinutes":45,"basePay":8,"maxBonus":9,"perTrialBonus":0.5,"perTrialBonusThreshold":0.05,"exampleCost":0.01},"classroomParams":{"A":{"a":1,"b":4},"B":{"a":4,"b":1},"C":{"a":2,"b":8},"D":{"a":8,"b":2}},"conditions":["nonSeqFull","nonSeqPartial","seqNoFeedback","seqFeedback"],"classroomPairings":[["A","B"],["C","D"]],"coinWeights":[0.2,0.5,0.8],"subjectId":"AOS2PVHT2HYTL","assignmentId":"3YT88D1N09K989NCLVWJAA2Q5BA3KB","hitId":"34KYK9TV2RUAD363EVFPUWVPB97SBP","url":"https://gershmanlab.com/experiments/alicia/teaching/experiment/?hitId=34KYK9TV2RUAD363EVFPUWVPB97SBP&workerId=AOS2PVHT2HYTL&assignmentId=3YT88D1N09K989NCLVWJAA2Q5BA3KB&a=N8TY7&tp_a=N8TY7&b=3YT88D1N09K989NCLVWJAA2Q5BA3KB&tp_b=3YT88D1N09K989NCLVWJAA2Q5BA3KB&c=365717&tp_c=365717"},{"rt":4780,"stimulus":"\n                <p>Student 9's first guess for coin weight: <b style=\"color:Tomato\";>0.43</b></p>\n                <p>Student 9's second guess for coin weight: <b style=\"color:Tomato\";>0.33</b></p>\n                <p>You received a bonus of <b>$0.00</b> based on the student's second guess.</p>\n                <p>Total bonus so far: <b>$0.10</b></p>\n                <p>Press any key to continue.</p>\n                ","response":" ","trial_type":"html-keyboard-response","trial_index":81,"time_elapsed":1140272,"internal_node_id":"0.0-79.0","params":{"nStudents":24,"maxFlips":30,"completionMinutes":45,"basePay":8,"maxBonus":9,"perTrialBonus":0.5,"perTrialBonusThreshold":0.05,"exampleCost":0.01},"classroomParams":{"A":{"a":1,"b":4},"B":{"a":4,"b":1},"C":{"a":2,"b":8},"D":{"a":8,"b":2}},"conditions":["nonSeqFull","nonSeqPartial","seqNoFeedback","seqFeedback"],"classroomPairings":[["A","B"],["C","D"]],"coinWeights":[0.2,0.5,0.8],"subjectId":"AOS2PVHT2HYTL","assignmentId":"3YT88D1N09K989NCLVWJAA2Q5BA3KB","hitId":"34KYK9TV2RUAD363EVFPUWVPB97SBP","url":"https://gershmanlab.com/experiments/alicia/teaching/experiment/?hitId=34KYK9TV2RUAD363EVFPUWVPB97SBP&workerId=AOS2PVHT2HYTL&assignmentId=3YT88D1N09K989NCLVWJAA2Q5BA3KB&a=N8TY7&tp_a=N8TY7&b=3YT88D1N09K989NCLVWJAA2Q5BA3KB&tp_b=3YT88D1N09K989NCLVWJAA2Q5BA3KB&c=365717&tp_c=365717"},{"rt":null,"stimulus":"<div style=\"font-size:60px;\">Next student</div>","response":null,"trial_type":"html-keyboard-response","trial_index":82,"time_elapsed":1143282,"internal_node_id":"0.0-80.0-0.0","params":{"nStudents":24,"maxFlips":30,"completionMinutes":45,"basePay":8,"maxBonus":9,"perTrialBonus":0.5,"perTrialBonusThreshold":0.05,"exampleCost":0.01},"classroomParams":{"A":{"a":1,"b":4},"B":{"a":4,"b":1},"C":{"a":2,"b":8},"D":{"a":8,"b":2}},"conditions":["nonSeqFull","nonSeqPartial","seqNoFeedback","seqFeedback"],"classroomPairings":[["A","B"],["C","D"]],"coinWeights":[0.2,0.5,0.8],"subjectId":"AOS2PVHT2HYTL","assignmentId":"3YT88D1N09K989NCLVWJAA2Q5BA3KB","hitId":"34KYK9TV2RUAD363EVFPUWVPB97SBP","url":"https://gershmanlab.com/experiments/alicia/teaching/experiment/?hitId=34KYK9TV2RUAD363EVFPUWVPB97SBP&workerId=AOS2PVHT2HYTL&assignmentId=3YT88D1N09K989NCLVWJAA2Q5BA3KB&a=N8TY7&tp_a=N8TY7&b=3YT88D1N09K989NCLVWJAA2Q5BA3KB&tp_b=3YT88D1N09K989NCLVWJAA2Q5BA3KB&c=365717&tp_c=365717"},{"rt":3937,"stimulus":"\n            <h4 style=\"color:Orange;\">Student 10</h4>\n            <h2>The weight of your coin is <b style=\"color:Tomato;\">0.8</b>.</h2>\n            <p>In this block, you will be giving <b>one</b> set of examples to Student 10.</p>\n                <p>You will receive feedback at the end of the block.</p>\n            <p></p>","response":0,"trial_type":"html-button-response","trial_index":83,"time_elapsed":1147223,"internal_node_id":"0.0-81.0","params":{"nStudents":24,"maxFlips":30,"completionMinutes":45,"basePay":8,"maxBonus":9,"perTrialBonus":0.5,"perTrialBonusThreshold":0.05,"exampleCost":0.01},"classroomParams":{"A":{"a":1,"b":4},"B":{"a":4,"b":1},"C":{"a":2,"b":8},"D":{"a":8,"b":2}},"conditions":["nonSeqFull","nonSeqPartial","seqNoFeedback","seqFeedback"],"classroomPairings":[["A","B"],["C","D"]],"coinWeights":[0.2,0.5,0.8],"subjectId":"AOS2PVHT2HYTL","assignmentId":"3YT88D1N09K989NCLVWJAA2Q5BA3KB","hitId":"34KYK9TV2RUAD363EVFPUWVPB97SBP","url":"https://gershmanlab.com/experiments/alicia/teaching/experiment/?hitId=34KYK9TV2RUAD363EVFPUWVPB97SBP&workerId=AOS2PVHT2HYTL&assignmentId=3YT88D1N09K989NCLVWJAA2Q5BA3KB&a=N8TY7&tp_a=N8TY7&b=3YT88D1N09K989NCLVWJAA2Q5BA3KB&tp_b=3YT88D1N09K989NCLVWJAA2Q5BA3KB&c=365717&tp_c=365717"},{"rt":20185,"response":{"heads":"17","tails":"2"},"type":"response","condition":"nonSeqFull","trueTheta":0.8,"classrooms":["A","B"],"studentTrueClassroom":"A","exampleSet":"first","trial_type":"survey-html-form","trial_index":84,"time_elapsed":1167412,"internal_node_id":"0.0-82.0-0.0","params":{"nStudents":24,"maxFlips":30,"completionMinutes":45,"basePay":8,"maxBonus":9,"perTrialBonus":0.5,"perTrialBonusThreshold":0.05,"exampleCost":0.01},"classroomParams":{"A":{"a":1,"b":4},"B":{"a":4,"b":1},"C":{"a":2,"b":8},"D":{"a":8,"b":2}},"conditions":["nonSeqFull","nonSeqPartial","seqNoFeedback","seqFeedback"],"classroomPairings":[["A","B"],["C","D"]],"coinWeights":[0.2,0.5,0.8],"subjectId":"AOS2PVHT2HYTL","assignmentId":"3YT88D1N09K989NCLVWJAA2Q5BA3KB","hitId":"34KYK9TV2RUAD363EVFPUWVPB97SBP","url":"https://gershmanlab.com/experiments/alicia/teaching/experiment/?hitId=34KYK9TV2RUAD363EVFPUWVPB97SBP&workerId=AOS2PVHT2HYTL&assignmentId=3YT88D1N09K989NCLVWJAA2Q5BA3KB&a=N8TY7&tp_a=N8TY7&b=3YT88D1N09K989NCLVWJAA2Q5BA3KB&tp_b=3YT88D1N09K989NCLVWJAA2Q5BA3KB&c=365