[{"rt":2733,"stimulus":"Welcome to the experiment. Press any key to begin.","response":" ","trial_type":"html-keyboard-response","trial_index":0,"time_elapsed":2749,"internal_node_id":"0.0-0.0","params":{"nStudents":24,"maxFlips":30,"completionMinutes":45,"basePay":8,"maxBonus":9,"perTrialBonus":0.5,"perTrialBonusThreshold":0.05,"exampleCost":0.01},"classroomParams":{"A":{"a":1,"b":4},"B":{"a":4,"b":1},"C":{"a":2,"b":8},"D":{"a":8,"b":2}},"conditions":["nonSeqFull","nonSeqPartial","seqNoFeedback","seqFeedback"],"classroomPairings":[["A","B"],["C","D"]],"coinWeights":[0.2,0.5,0.8],"subjectId":"AOWW3URQNRJ6U","assignmentId":"3M0NZ3JDP2K7BJ92ZFNMCMONNGE5ZP","hitId":"3FJ2RVH25ZSYKBA8MWMNC8NVPF629N","url":"https://gershmanlab.com/experiments/alicia/teaching/experiment/?hitId=3FJ2RVH25ZSYKBA8MWMNC8NVPF629N&workerId=AOWW3URQNRJ6U&assignmentId=3M0NZ3JDP2K7BJ92ZFNMCMONNGE5ZP&a=DZ0M7&tp_a=DZ0M7&b=3M0NZ3JDP2K7BJ92ZFNMCMONNGE5ZP&tp_b=3M0NZ3JDP2K7BJ92ZFNMCMONNGE5ZP&c=365717&tp_c=365717"},{"rt":1915,"stimulus":"\n        <h3>Please read this consent agreement carefully before deciding whether to participate in this experiment.</h3>\n        <p><b>Purpose of the research:</b> To examine how people teach effectively.</p>\n        <p><b>What you will do in this research:</b> You will teach students the weights of different coins.</p>\n        <p><b>Time required:</b> This experiment will take 45 minutes to complete.</p>\n        <p><b>Risks:</b> There are no anticipated risks associated with participating in this study.             The effects of participating should be comparable to those you would experience from viewing a computer monitor             and using a mouse and keyboard for the duration of the experiment.</p>\n        <p><b>Benefits:</b> The study provides important information about the nature of teaching.</p>\n        <p><b>Compensation:</b> You will receive <b>$8</b> for completing the experiment and a performance bonus of up to <b>$9</b>.</p>\n        <p><b>Confidentiality:</b> Your participation in this study will remain confidential.             No personally identifiable information will be associated with your data.             Your de-identified data may be shared with other researchers and used in future projects.</p>\n        <p><b>Participation and withdrawal:</b> Your participation in this study is completely voluntary and             you may refuse to participate or you may choose to withdraw at any time without penalty or loss of\n            benefits to which you are otherwise entitled.</p>\n        <p><b>How to contact the researcher:</b> If you have questions or concerns about your participation            or payment, or want to request a summary of research findings, please contact\n            Alicia Chen, aliciachen@college.harvard.edu.</p>\n        <p><b>Whom to contact about your rights in this research:</b> For questions, concerns, suggestions,             or complaints that have not been or cannot be addressed by the researcher, or to report             research-related harm, please contact the Committee on the Use of Human Subjects in Research at Harvard University,             1414 Massachusetts Avenue, Second Floor, Cambridge, MA 02138. Phone: 617-496-2847. Email: cuhs@fas.harvard.edu.</p>\n        ","response":0,"trial_type":"html-button-response","trial_index":1,"time_elapsed":4667,"internal_node_id":"0.0-1.0","params":{"nStudents":24,"maxFlips":30,"completionMinutes":45,"basePay":8,"maxBonus":9,"perTrialBonus":0.5,"perTrialBonusThreshold":0.05,"exampleCost":0.01},"classroomParams":{"A":{"a":1,"b":4},"B":{"a":4,"b":1},"C":{"a":2,"b":8},"D":{"a":8,"b":2}},"conditions":["nonSeqFull","nonSeqPartial","seqNoFeedback","seqFeedback"],"classroomPairings":[["A","B"],["C","D"]],"coinWeights":[0.2,0.5,0.8],"subjectId":"AOWW3URQNRJ6U","assignmentId":"3M0NZ3JDP2K7BJ92ZFNMCMONNGE5ZP","hitId":"3FJ2RVH25ZSYKBA8MWMNC8NVPF629N","url":"https://gershmanlab.com/experiments/alicia/teaching/experiment/?hitId=3FJ2RVH25ZSYKBA8MWMNC8NVPF629N&workerId=AOWW3URQNRJ6U&assignmentId=3M0NZ3JDP2K7BJ92ZFNMCMONNGE5ZP&a=DZ0M7&tp_a=DZ0M7&b=3M0NZ3JDP2K7BJ92ZFNMCMONNGE5ZP&tp_b=3M0NZ3JDP2K7BJ92ZFNMCMONNGE5ZP&c=365717&tp_c=365717"},{"view_history":[{"page_index":0,"viewing_time":2279},{"page_index":1,"viewing_time":2102},{"page_index":2,"viewing_time":17409},{"page_index":3,"viewing_time":7576},{"page_index":4,"viewing_time":8807},{"page_index":5,"viewing_time":32477},{"page_index":6,"viewing_time":33168}],"rt":103817,"trial_type":"instructions","trial_index":2,"time_elapsed":108486,"internal_node_id":"0.0-2.0-0.0","params":{"nStudents":24,"maxFlips":30,"completionMinutes":45,"basePay":8,"maxBonus":9,"perTrialBonus":0.5,"perTrialBonusThreshold":0.05,"exampleCost":0.01},"classroomParams":{"A":{"a":1,"b":4},"B":{"a":4,"b":1},"C":{"a":2,"b":8},"D":{"a":8,"b":2}},"conditions":["nonSeqFull","nonSeqPartial","seqNoFeedback","seqFeedback"],"classroomPairings":[["A","B"],["C","D"]],"coinWeights":[0.2,0.5,0.8],"subjectId":"AOWW3URQNRJ6U","assignmentId":"3M0NZ3JDP2K7BJ92ZFNMCMONNGE5ZP","hitId":"3FJ2RVH25ZSYKBA8MWMNC8NVPF629N","url":"https://gershmanlab.com/experiments/alicia/teaching/experiment/?hitId=3FJ2RVH25ZSYKBA8MWMNC8NVPF629N&workerId=AOWW3URQNRJ6U&assignmentId=3M0NZ3JDP2K7BJ92ZFNMCMONNGE5ZP&a=DZ0M7&tp_a=DZ0M7&b=3M0NZ3JDP2K7BJ92ZFNMCMONNGE5ZP&tp_b=3M0NZ3JDP2K7BJ92ZFNMCMONNGE5ZP&c=365717&tp_c=365717"},{"rt":22620,"response":{"Q0":"Students in different classrooms will have seen a different number of heads and tails before seeing the examples you select for them.","Q1":"By <b>considering the student's classroom information</b> so that I can teach efficiently and accurately/helpfully at the same time (because each example I give to the student costs money!).","Q2":"The coin lands heads 90% of the time.","Q3":"Yes, I might encounter the same student twice.","Q4":"The students are also on the same alien planet as you, where coins can be unfair.","Q5":"Based on the student's second (and final) guess."},"question_order":[3,5,0,2,1,4],"trial_type":"survey-multi-choice","trial_index":3,"time_elapsed":131108,"internal_node_id":"0.0-2.0-1.0","params":{"nStudents":24,"maxFlips":30,"completionMinutes":45,"basePay":8,"maxBonus":9,"perTrialBonus":0.5,"perTrialBonusThreshold":0.05,"exampleCost":0.01},"classroomParams":{"A":{"a":1,"b":4},"B":{"a":4,"b":1},"C":{"a":2,"b":8},"D":{"a":8,"b":2}},"conditions":["nonSeqFull","nonSeqPartial","seqNoFeedback","seqFeedback"],"classroomPairings":[["A","B"],["C","D"]],"coinWeights":[0.2,0.5,0.8],"subjectId":"AOWW3URQNRJ6U","assignmentId":"3M0NZ3JDP2K7BJ92ZFNMCMONNGE5ZP","hitId":"3FJ2RVH25ZSYKBA8MWMNC8NVPF629N","url":"https://gershmanlab.com/experiments/alicia/teaching/experiment/?hitId=3FJ2RVH25ZSYKBA8MWMNC8NVPF629N&workerId=AOWW3URQNRJ6U&assignmentId=3M0NZ3JDP2K7BJ92ZFNMCMONNGE5ZP&a=DZ0M7&tp_a=DZ0M7&b=3M0NZ3JDP2K7BJ92ZFNMCMONNGE5ZP&tp_b=3M0NZ3JDP2K7BJ92ZFNMCMONNGE5ZP&c=365717&tp_c=365717","pass":false},{"rt":2258,"stimulus":"Oops, you have missed question(s) on the comprehension check! We'll show you the instructions again.","response":0,"trial_type":"html-button-response","trial_index":4,"time_elapsed":133373,"internal_node_id":"0.0-2.0-2.0-0.0","params":{"nStudents":24,"maxFlips":30,"completionMinutes":45,"basePay":8,"maxBonus":9,"perTrialBonus":0.5,"perTrialBonusThreshold":0.05,"exampleCost":0.01},"classroomParams":{"A":{"a":1,"b":4},"B":{"a":4,"b":1},"C":{"a":2,"b":8},"D":{"a":8,"b":2}},"conditions":["nonSeqFull","nonSeqPartial","seqNoFeedback","seqFeedback"],"classroomPairings":[["A","B"],["C","D"]],"coinWeights":[0.2,0.5,0.8],"subjectId":"AOWW3URQNRJ6U","assignmentId":"3M0NZ3JDP2K7BJ92ZFNMCMONNGE5ZP","hitId":"3FJ2RVH25ZSYKBA8MWMNC8NVPF629N","url":"https://gershmanlab.com/experiments/alicia/teaching/experiment/?hitId=3FJ2RVH25ZSYKBA8MWMNC8NVPF629N&workerId=AOWW3URQNRJ6U&assignmentId=3M0NZ3JDP2K7BJ92ZFNMCMONNGE5ZP&a=DZ0M7&tp_a=DZ0M7&b=3M0NZ3JDP2K7BJ92ZFNMCMONNGE5ZP&tp_b=3M0NZ3JDP2K7BJ92ZFNMCMONNGE5ZP&c=365717&tp_c=365717"},{"view_history":[{"page_index":0,"viewing_time":3054},{"page_index":1,"viewing_time":1224},{"page_index":2,"viewing_time":5001},{"page_index":3,"viewing_time":3043},{"page_index":4,"viewing_time":1653},{"page_index":5,"viewing_time":8134},{"page_index":6,"viewing_time":2373}],"rt":24483,"trial_type":"instructions","trial_index":5,"time_elapsed":157857,"internal_node_id":"0.0-2.1-0.1","params":{"nStudents":24,"maxFlips":30,"completionMinutes":45,"basePay":8,"maxBonus":9,"perTrialBonus":0.5,"perTrialBonusThreshold":0.05,"exampleCost":0.01},"classroomParams":{"A":{"a":1,"b":4},"B":{"a":4,"b":1},"C":{"a":2,"b":8},"D":{"a":8,"b":2}},"conditions":["nonSeqFull","nonSeqPartial","seqNoFeedback","seqFeedback"],"classroomPairings":[["A","B"],["C","D"]],"coinWeights":[0.2,0.5,0.8],"subjectId":"AOWW3URQNRJ6U","assignmentId":"3M0NZ3JDP2K7BJ92ZFNMCMONNGE5ZP","hitId":"3FJ2RVH25ZSYKBA8MWMNC8NVPF629N","url":"https://gershmanlab.com/experiments/alicia/teaching/experiment/?hitId=3FJ2RVH25ZSYKBA8MWMNC8NVPF629N&workerId=AOWW3URQNRJ6U&assignmentId=3M0NZ3JDP2K7BJ92ZFNMCMONNGE5ZP&a=DZ0M7&tp_a=DZ0M7&b=3M0NZ3JDP2K7BJ92ZFNMCMONNGE5ZP&tp_b=3M0NZ3JDP2K7BJ92ZFNMCMONNGE5ZP&c=365717&tp_c=365717"},{"rt":29439,"response":{"Q0":"Students in different classrooms have seen a different proportion of fair and unfair coins before seeing the examples you select for them.","Q1":"By <b>considering the student's classroom information</b> so that I can teach efficiently and accurately/helpfully at the same time (because each example I give to the student costs money!).","Q2":"The coin lands heads 90% of the time.","Q3":"Yes, I might encounter the same student twice.","Q4":"The students are also on the same alien planet as you, where coins can be unfair.","Q5":"Based on the student's second (and final) guess."},"question_order":[4,1,2,5,3,0],"trial_type":"survey-multi-choice","trial_index":6,"time_elapsed":187298,"internal_node_id":"0.0-2.1-1.1","params":{"nStudents":24,"maxFlips":30,"completionMinutes":45,"basePay":8,"maxBonus":9,"perTrialBonus":0.5,"perTrialBonusThreshold":0.05,"exampleCost":0.01},"classroomParams":{"A":{"a":1,"b":4},"B":{"a":4,"b":1},"C":{"a":2,"b":8},"D":{"a":8,"b":2}},"conditions":["nonSeqFull","nonSeqPartial","seqNoFeedback","seqFeedback"],"classroomPairings":[["A","B"],["C","D"]],"coinWeights":[0.2,0.5,0.8],"subjectId":"AOWW3URQNRJ6U","assignmentId":"3M0NZ3JDP2K7BJ92ZFNMCMONNGE5ZP","hitId":"3FJ2RVH25ZSYKBA8MWMNC8NVPF629N","url":"https://gershmanlab.com/experiments/alicia/teaching/experiment/?hitId=3FJ2RVH25ZSYKBA8MWMNC8NVPF629N&workerId=AOWW3URQNRJ6U&assignmentId=3M0NZ3JDP2K7BJ92ZFNMCMONNGE5ZP&a=DZ0M7&tp_a=DZ0M7&b=3M0NZ3JDP2K7BJ92ZFNMCMONNGE5ZP&tp_b=3M0NZ3JDP2K7BJ92ZFNMCMONNGE5ZP&c=365717&tp_c=365717","pass":false},{"rt":4775,"stimulus":"Oops, you have missed question(s) on the comprehension check! We'll show you the instructions again.","response":0,"trial_type":"html-button-response","trial_index":7,"time_elapsed":192081,"internal_node_id":"0.0-2.1-2.1-0.1","params":{"nStudents":24,"maxFlips":30,"completionMinutes":45,"basePay":8,"maxBonus":9,"perTrialBonus":0.5,"perTrialBonusThreshold":0.05,"exampleCost":0.01},"classroomParams":{"A":{"a":1,"b":4},"B":{"a":4,"b":1},"C":{"a":2,"b":8},"D":{"a":8,"b":2}},"conditions":["nonSeqFull","nonSeqPartial","seqNoFeedback","seqFeedback"],"classroomPairings":[["A","B"],["C","D"]],"coinWeights":[0.2,0.5,0.8],"subjectId":"AOWW3URQNRJ6U","assignmentId":"3M0NZ3JDP2K7BJ92ZFNMCMONNGE5ZP","hitId":"3FJ2RVH25ZSYKBA8MWMNC8NVPF629N","url":"https://gershmanlab.com/experiments/alicia/teaching/experiment/?hitId=3FJ2RVH25ZSYKBA8MWMNC8NVPF629N&workerId=AOWW3URQNRJ6U&assignmentId=3M0NZ3JDP2K7BJ92ZFNMCMONNGE5ZP&a=DZ0M7&tp_a=DZ0M7&b=3M0NZ3JDP2K7BJ92ZFNMCMONNGE5ZP&tp_b=3M0NZ3JDP2K7BJ92ZFNMCMONNGE5ZP&c=365717&tp_c=365717"},{"view_history":[{"page_index":0,"viewing_time":1520},{"page_index":1,"viewing_time":1437},{"page_index":2,"viewing_time":5421},{"page_index":3,"viewing_time":3410},{"page_index":4,"viewing_time":1455},{"page_index":5,"viewing_time":10440},{"page_index":6,"viewing_time":1620},{"page_index":5,"viewing_time":1700},{"page_index":6,"viewing_time":2330}],"rt":29333,"trial_type":"instructions","trial_index":8,"time_elapsed":221416,"internal_node_id":"0.0-2.2-0.2","params":{"nStudents":24,"maxFlips":30,"completionMinutes":45,"basePay":8,"maxBonus":9,"perTrialBonus":0.5,"perTrialBonusThreshold":0.05,"exampleCost":0.01},"classroomParams":{"A":{"a":1,"b":4},"B":{"a":4,"b":1},"C":{"a":2,"b":8},"D":{"a":8,"b":2}},"conditions":["nonSeqFull","nonSeqPartial","seqNoFeedback","seqFeedback"],"classroomPairings":[["A","B"],["C","D"]],"coinWeights":[0.2,0.5,0.8],"subjectId":"AOWW3URQNRJ6U","assignmentId":"3M0NZ3JDP2K7BJ92ZFNMCMONNGE5ZP","hitId":"3FJ2RVH25ZSYKBA8MWMNC8NVPF629N","url":"https://gershmanlab.com/experiments/alicia/teaching/experiment/?hitId=3FJ2RVH25ZSYKBA8MWMNC8NVPF629N&workerId=AOWW3URQNRJ6U&assignmentId=3M0NZ3JDP2K7BJ92ZFNMCMONNGE5ZP&a=DZ0M7&tp_a=DZ0M7&b=3M0NZ3JDP2K7BJ92ZFNMCMONNGE5ZP&tp_b=3M0NZ3JDP2K7BJ92ZFNMCMONNGE5ZP&c=365717&tp_c=365717"},{"rt":23687,"response":{"Q0":"Students in different classrooms will have seen a different number of heads and tails before seeing the examples you select for them.","Q1":"By <b>considering the student's classroom information</b> so that I can teach efficiently and accurately/helpfully at the same time (because each example I give to the student costs money!).","Q2":"The coin lands heads 90% of the time.","Q3":"Yes, I might encounter the same student twice.","Q4":"The students are also on the same alien planet as you, where coins can be unfair.","Q5":"Based on the student's second (and final) guess."},"question_order":[2,4,3,0,1,5],"trial_type":"survey-multi-choice","trial_index":9,"time_elapsed":245105,"internal_node_id":"0.0-2.2-1.2","params":{"nStudents":24,"maxFlips":30,"completionMinutes":45,"basePay":8,"maxBonus":9,"perTrialBonus":0.5,"perTrialBonusThreshold":0.05,"exampleCost":0.01},"classroomParams":{"A":{"a":1,"b":4},"B":{"a":4,"b":1},"C":{"a":2,"b":8},"D":{"a":8,"b":2}},"conditions":["nonSeqFull","nonSeqPartial","seqNoFeedback","seqFeedback"],"classroomPairings":[["A","B"],["C","D"]],"coinWeights":[0.2,0.5,0.8],"subjectId":"AOWW3URQNRJ6U","assignmentId":"3M0NZ3JDP2K7BJ92ZFNMCMONNGE5ZP","hitId":"3FJ2RVH25ZSYKBA8MWMNC8NVPF629N","url":"https://gershmanlab.com/experiments/alicia/teaching/experiment/?hitId=3FJ2RVH25ZSYKBA8MWMNC8NVPF629N&workerId=AOWW3URQNRJ6U&assignmentId=3M0NZ3JDP2K7BJ92ZFNMCMONNGE5ZP&a=DZ0M7&tp_a=DZ0M7&b=3M0NZ3JDP2K7BJ92ZFNMCMONNGE5ZP&tp_b=3M0NZ3JDP2K7BJ92ZFNMCMONNGE5ZP&c=365717&tp_c=365717","pass":false},{"rt":23421,"stimulus":"Oops, you have missed question(s) on the comprehension check! We'll show you the instructions again.","response":0,"trial_type":"html-button-response","trial_index":10,"time_elapsed":268533,"internal_node_id":"0.0-2.2-2.2-0.2","params":{"nStudents":24,"maxFlips":30,"completionMinutes":45,"basePay":8,"maxBonus":9,"perTrialBonus":0.5,"perTrialBonusThreshold":0.05,"exampleCost":0.01},"classroomParams":{"A":{"a":1,"b":4},"B":{"a":4,"b":1},"C":{"a":2,"b":8},"D":{"a":8,"b":2}},"conditions":["nonSeqFull","nonSeqPartial","seqNoFeedback","seqFeedback"],"classroomPairings":[["A","B"],["C","D"]],"coinWeights":[0.2,0.5,0.8],"subjectId":"AOWW3URQNRJ6U","assignmentId":"3M0NZ3JDP2K7BJ92ZFNMCMONNGE5ZP","hitId":"3FJ2RVH25ZSYKBA8MWMNC8NVPF629N","url":"https://gershmanlab.com/experiments/alicia/teaching/experiment/?hitId=3FJ2RVH25ZSYKBA8MWMNC8NVPF629N&workerId=AOWW3URQNRJ6U&assignmentId=3M0NZ3JDP2K7BJ92ZFNMCMONNGE5ZP&a=DZ0M7&tp_a=DZ0M7&b=3M0NZ3JDP2K7BJ92ZFNMCMONNGE5ZP&tp_b=3M0NZ3JDP2K7BJ92ZFNMCMONNGE5ZP&c=365717&tp_c=365717"},{"view_history":[{"page_index":0,"viewing_time":2758},{"page_index":1,"viewing_time":1938},{"page_index":2,"viewing_time":8131},{"page_index":3,"viewing_time":5816},{"page_index":4,"viewing_time":8268},{"page_index":5,"viewing_time":9680},{"page_index":6,"viewing_time":14193}],"rt":50783,"trial_type":"instructions","trial_index":11,"time_elapsed":319317,"internal_node_id":"0.0-2.3-0.3","params":{"nStudents":24,"maxFlips":30,"completionMinutes":45,"basePay":8,"maxBonus":9,"perTrialBonus":0.5,"perTrialBonusThreshold":0.05,"exampleCost":0.01},"classroomParams":{"A":{"a":1,"b":4},"B":{"a":4,"b":1},"C":{"a":2,"b":8},"D":{"a":8,"b":2}},"conditions":["nonSeqFull","nonSeqPartial","seqNoFeedback","seqFeedback"],"classroomPairings":[["A","B"],["C","D"]],"coinWeights":[0.2,0.5,0.8],"subjectId":"AOWW3URQNRJ6U","assignmentId":"3M0NZ3JDP2K7BJ92ZFNMCMONNGE5ZP","hitId":"3FJ2RVH25ZSYKBA8MWMNC8NVPF629N","url":"https://gershmanlab.com/experiments/alicia/teaching/experiment/?hitId=3FJ2RVH25ZSYKBA8MWMNC8NVPF629N&workerId=AOWW3URQNRJ6U&assignmentId=3M0NZ3JDP2K7BJ92ZFNMCMONNGE5ZP&a=DZ0M7&tp_a=DZ0M7&b=3M0NZ3JDP2K7BJ92ZFNMCMONNGE5ZP&tp_b=3M0NZ3JDP2K7BJ92ZFNMCMONNGE5ZP&c=365717&tp_c=365717"},{"rt":10505,"response":{"Q0":"Students in different classrooms have seen a different proportion of fair and unfair coins before seeing the examples you select for them.","Q1":"By <b>considering the student's classroom information</b> so that I can teach efficiently and accurately/helpfully at the same time (because each example I give to the student costs money!).","Q2":"The coin lands heads 90% of the time.","Q3":"No, I will teach a <b>new</b> student each time.","Q4":"The students are also on the same alien planet as you, where coins can be unfair.","Q5":"Based on the student's second (and final) guess."},"question_order":[1,5,4,2,3,0],"trial_type":"survey-multi-choice","trial_index":12,"time_elapsed":329824,"internal_node_id":"0.0-2.3-1.3","params":{"nStudents":24,"maxFlips":30,"completionMinutes":45,"basePay":8,"maxBonus":9,"perTrialBonus":0.5,"perTrialBonusThreshold":0.05,"exampleCost":0.01},"classroomParams":{"A":{"a":1,"b":4},"B":{"a":4,"b":1},"C":{"a":2,"b":8},"D":{"a":8,"b":2}},"conditions":["nonSeqFull","nonSeqPartial","seqNoFeedback","seqFeedback"],"classroomPairings":[["A","B"],["C","D"]],"coinWeights":[0.2,0.5,0.8],"subjectId":"AOWW3URQNRJ6U","assignmentId":"3M0NZ3JDP2K7BJ92ZFNMCMONNGE5ZP","hitId":"3FJ2RVH25ZSYKBA8MWMNC8NVPF629N","url":"https://gershmanlab.com/experiments/alicia/teaching/experiment/?hitId=3FJ2RVH25ZSYKBA8MWMNC8NVPF629N&workerId=AOWW3URQNRJ6U&assignmentId=3M0NZ3JDP2K7BJ92ZFNMCMONNGE5ZP&a=DZ0M7&tp_a=DZ0M7&b=3M0NZ3JDP2K7BJ92ZFNMCMONNGE5ZP&tp_b=3M0NZ3JDP2K7BJ92ZFNMCMONNGE5ZP&c=365717&tp_c=365717","pass":false},{"rt":915,"stimulus":"Oops, you have missed question(s) on the comprehension check! We'll show you the instructions again.","response":0,"trial_type":"html-button-response","trial_index":13,"time_elapsed":330746,"internal_node_id":"0.0-2.3-2.3-0.3","params":{"nStudents":24,"maxFlips":30,"completionMinutes":45,"basePay":8,"maxBonus":9,"perTrialBonus":0.5,"perTrialBonusThreshold":0.05,"exampleCost":0.01},"classroomParams":{"A":{"a":1,"b":4},"B":{"a":4,"b":1},"C":{"a":2,"b":8},"D":{"a":8,"b":2}},"conditions":["nonSeqFull","nonSeqPartial","seqNoFeedback","seqFeedback"],"classroomPairings":[["A","B"],["C","D"]],"coinWeights":[0.2,0.5,0.8],"subjectId":"AOWW3URQNRJ6U","assignmentId":"3M0NZ3JDP2K7BJ92ZFNMCMONNGE5ZP","hitId":"3FJ2RVH25ZSYKBA8MWMNC8NVPF629N","url":"https://gershmanlab.com/experiments/alicia/teaching/experiment/?hitId=3FJ2RVH25ZSYKBA8MWMNC8NVPF629N&workerId=AOWW3URQNRJ6U&assignmentId=3M0NZ3JDP2K7BJ92ZFNMCMONNGE5ZP&a=DZ0M7&tp_a=DZ0M7&b=3M0NZ3JDP2K7BJ92ZFNMCMONNGE5ZP&tp_b=3M0NZ3JDP2K7BJ92ZFNMCMONNGE5ZP&c=365717&tp_c=365717"},{"view_history":[{"page_index":0,"viewing_time":794},{"page_index":1,"viewing_time":152},{"page_index":2,"viewing_time":605},{"page_index":3,"viewing_time":259},{"page_index":4,"viewing_time":845},{"page_index":5,"viewing_time":460},{"page_index":6,"viewing_time":716}],"rt":3832,"trial_type":"instructions","trial_index":14,"time_elapsed":334578,"internal_node_id":"0.0-2.4-0.4","params":{"nStudents":24,"maxFlips":30,"completionMinutes":45,"basePay":8,"maxBonus":9,"perTrialBonus":0.5,"perTrialBonusThreshold":0.05,"exampleCost":0.01},"classroomParams":{"A":{"a":1,"b":4},"B":{"a":4,"b":1},"C":{"a":2,"b":8},"D":{"a":8,"b":2}},"conditions":["nonSeqFull","nonSeqPartial","seqNoFeedback","seqFeedback"],"classroomPairings":[["A","B"],["C","D"]],"coinWeights":[0.2,0.5,0.8],"subjectId":"AOWW3URQNRJ6U","assignmentId":"3M0NZ3JDP2K7BJ92ZFNMCMONNGE5ZP","hitId":"3FJ2RVH25ZSYKBA8MWMNC8NVPF629N","url":"https://gershmanlab.com/experiments/alicia/teaching/experiment/?hitId=3FJ2RVH25ZSYKBA8MWMNC8NVPF629N&workerId=AOWW3URQNRJ6U&assignmentId=3M0NZ3JDP2K7BJ92ZFNMCMONNGE5ZP&a=DZ0M7&tp_a=DZ0M7&b=3M0NZ3JDP2K7BJ92ZFNMCMONNGE5ZP&tp_b=3M0NZ3JDP2K7BJ92ZFNMCMONNGE5ZP&c=365717&tp_c=365717"},{"rt":8803,"response":{"Q0":"Students in different classrooms will have seen a different number of heads and tails before seeing the examples you select for them.","Q1":"By <b>considering the student's classroom information</b> so that I can teach efficiently and accurately/helpfully at the same time (because each example I give to the student costs money!).","Q2":"The coin lands heads 90% of the time.","Q3":"No, I will teach a <b>new</b> student each time.","Q4":"The students are also on the same alien planet as you, where coins can be unfair.","Q5":"Based on the student's second (and final) guess."},"question_order":[0,3,2,5,1,4],"trial_type":"survey-multi-choice","trial_index":15,"time_elapsed":343383,"internal_node_id":"0.0-2.4-1.4","params":{"nStudents":24,"maxFlips":30,"completionMinutes":45,"basePay":8,"maxBonus":9,"perTrialBonus":0.5,"perTrialBonusThreshold":0.05,"exampleCost":0.01},"classroomParams":{"A":{"a":1,"b":4},"B":{"a":4,"b":1},"C":{"a":2,"b":8},"D":{"a":8,"b":2}},"conditions":["nonSeqFull","nonSeqPartial","seqNoFeedback","seqFeedback"],"classroomPairings":[["A","B"],["C","D"]],"coinWeights":[0.2,0.5,0.8],"subjectId":"AOWW3URQNRJ6U","assignmentId":"3M0NZ3JDP2K7BJ92ZFNMCMONNGE5ZP","hitId":"3FJ2RVH25ZSYKBA8MWMNC8NVPF629N","url":"https://gershmanlab.com/experiments/alicia/teaching/experiment/?hitId=3FJ2RVH25ZSYKBA8MWMNC8NVPF629N&workerId=AOWW3URQNRJ6U&assignmentId=3M0NZ3JDP2K7BJ92ZFNMCMONNGE5ZP&a=DZ0M7&tp_a=DZ0M7&b=3M0NZ3JDP2K7BJ92ZFNMCMONNGE5ZP&tp_b=3M0NZ3JDP2K7BJ92ZFNMCMONNGE5ZP&c=365717&tp_c=365717","pass":true},{"rt":null,"stimulus":"<div style=\"font-size:30px;\">Congrats on passing the comprehension quiz! The experiment will begin in a few seconds.</div>","response":null,"trial_type":"html-keyboard-response","trial_index":16,"time_elapsed":346395,"internal_node_id":"0.0-3.0","params":{"nStudents":24,"maxFlips":30,"completionMinutes":45,"basePay":8,"maxBonus":9,"perTrialBonus":0.5,"perTrialBonusThreshold":0.05,"exampleCost":0.01},"classroomParams":{"A":{"a":1,"b":4},"B":{"a":4,"b":1},"C":{"a":2,"b":8},"D":{"a":8,"b":2}},"conditions":["nonSeqFull","nonSeqPartial","seqNoFeedback","seqFeedback"],"classroomPairings":[["A","B"],["C","D"]],"coinWeights":[0.2,0.5,0.8],"subjectId":"AOWW3URQNRJ6U","assignmentId":"3M0NZ3JDP2K7BJ92ZFNMCMONNGE5ZP","hitId":"3FJ2RVH25ZSYKBA8MWMNC8NVPF629N","url":"https://gershmanlab.com/experiments/alicia/teaching/experiment/?hitId=3FJ2RVH25ZSYKBA8MWMNC8NVPF629N&workerId=AOWW3URQNRJ6U&assignmentId=3M0NZ3JDP2K7BJ92ZFNMCMONNGE5ZP&a=DZ0M7&tp_a=DZ0M7&b=3M0NZ3JDP2K7BJ92ZFNMCMONNGE5ZP&tp_b=3M0NZ3JDP2K7BJ92ZFNMCMONNGE5ZP&c=365717&tp_c=365717"},{"rt":null,"stimulus":"<div style=\"font-size:50px;\">First student</div>","response":null,"trial_type":"html-keyboard-response","trial_index":17,"time_elapsed":349397,"internal_node_id":"0.0-4.0","params":{"nStudents":24,"maxFlips":30,"completionMinutes":45,"basePay":8,"maxBonus":9,"perTrialBonus":0.5,"perTrialBonusThreshold":0.05,"exampleCost":0.01},"classroomParams":{"A":{"a":1,"b":4},"B":{"a":4,"b":1},"C":{"a":2,"b":8},"D":{"a":8,"b":2}},"conditions":["nonSeqFull","nonSeqPartial","seqNoFeedback","seqFeedback"],"classroomPairings":[["A","B"],["C","D"]],"coinWeights":[0.2,0.5,0.8],"subjectId":"AOWW3URQNRJ6U","assignmentId":"3M0NZ3JDP2K7BJ92ZFNMCMONNGE5ZP","hitId":"3FJ2RVH25ZSYKBA8MWMNC8NVPF629N","url":"https://gershmanlab.com/experiments/alicia/teaching/experiment/?hitId=3FJ2RVH25ZSYKBA8MWMNC8NVPF629N&workerId=AOWW3URQNRJ6U&assignmentId=3M0NZ3JDP2K7BJ92ZFNMCMONNGE5ZP&a=DZ0M7&tp_a=DZ0M7&b=3M0NZ3JDP2K7BJ92ZFNMCMONNGE5ZP&tp_b=3M0NZ3JDP2K7BJ92ZFNMCMONNGE5ZP&c=365717&tp_c=365717"},{"rt":32611,"stimulus":"\n            <h4 style=\"color:Orange;\">Student 1</h4>\n            <h2>The weight of your coin is <b style=\"color:Tomato;\">0.5</b>.</h2>\n            <p>In this block, you will be giving <b>one</b> set of examples to Student 1.</p>\n                <p>You will receive feedback at the end of the block.</p>\n            <p></p>","response":0,"trial_type":"html-button-response","trial_index":18,"time_elapsed":382009,"internal_node_id":"0.0-5.0","params":{"nStudents":24,"maxFlips":30,"completionMinutes":45,"basePay":8,"maxBonus":9,"perTrialBonus":0.5,"perTrialBonusThreshold":0.05,"exampleCost":0.01},"classroomParams":{"A":{"a":1,"b":4},"B":{"a":4,"b":1},"C":{"a":2,"b":8},"D":{"a":8,"b":2}},"conditions":["nonSeqFull","nonSeqPartial","seqNoFeedback","seqFeedback"],"classroomPairings":[["A","B"],["C","D"]],"coinWeights":[0.2,0.5,0.8],"subjectId":"AOWW3URQNRJ6U","assignmentId":"3M0NZ3JDP2K7BJ92ZFNMCMONNGE5ZP","hitId":"3FJ2RVH25ZSYKBA8MWMNC8NVPF629N","url":"https://gershmanlab.com/experiments/alicia/teaching/experiment/?hitId=3FJ2RVH25ZSYKBA8MWMNC8NVPF629N&workerId=AOWW3URQNRJ6U&assignmentId=3M0NZ3JDP2K7BJ92ZFNMCMONNGE5ZP&a=DZ0M7&tp_a=DZ0M7&b=3M0NZ3JDP2K7BJ92ZFNMCMONNGE5ZP&tp_b=3M0NZ3JDP2K7BJ92ZFNMCMONNGE5ZP&c=365717&tp_c=365717"},{"rt":10258,"response":{"heads":"5","tails":"5"},"type":"response","condition":"nonSeqPartial","trueTheta":0.5,"classrooms":["A","B"],"studentTrueClassroom":"B","exampleSet":"first","trial_type":"survey-html-form","trial_index":19,"time_elapsed":392269,"internal_node_id":"0.0-6.0-0.0","params":{"nStudents":24,"maxFlips":30,"completionMinutes":45,"basePay":8,"maxBonus":9,"perTrialBonus":0.5,"perTrialBonusThreshold":0.05,"exampleCost":0.01},"classroomParams":{"A":{"a":1,"b":4},"B":{"a":4,"b":1},"C":{"a":2,"b":8},"D":{"a":8,"b":2}},"conditions":["nonSeqFull","nonSeqPartial","seqNoFeedback","seqFeedback"],"classroomPairings":[["A","B"],["C","D"]],"coinWeights":[0.2,0.5,0.8],"subjectId":"AOWW3URQNRJ6U","assignmentId":"3M0NZ3JDP2K7BJ92ZFNMCMONNGE5ZP","hitId":"3FJ2RVH25ZSYKBA8MWMNC8NVPF629N","url":"https://gershmanlab.com/experiments/alicia/teaching/experiment/?hitId=3FJ2RVH25ZSYKBA8MWMNC8NVPF629N&workerId=AOWW3URQNRJ6U&assignmentId=3M0NZ3JDP2K7BJ92ZFNMCMONNGE5ZP&a=DZ0M7&tp_a=DZ0M7&b=3M0NZ3JDP2K7BJ92ZFNMCMONNGE5ZP&tp_b=3M0NZ3JDP2K7BJ92ZFNMCMONNGE5ZP&c=365717&tp_c=365717","heads":5,"tails":5,"studentIndex":0,"studentTrueHypers":{"a":4,"b":1},"studentGuess":0.6,"delta":0.09999999999999998,"totalExamples":10,"bonus":0,"bonusSoFar":0},{"rt":null,"stimulus":"Sending examples to student... ","response":null,"trial_type":"html-keyboard-response","trial_index":20,"time_elapsed":394270,"internal_node_id":"0.0-7.0","params":{"nStudents":24,"maxFlips":30,"completionMinutes":45,"basePay":8,"maxBonus":9,"perTrialBonus":0.5,"perTrialBonusThreshold":0.05,"exampleCost":0.01},"classroomParams":{"A":{"a":1,"b":4},"B":{"a":4,"b":1},"C":{"a":2,"b":8},"D":{"a":8,"b":2}},"conditions":["nonSeqFull","nonSeqPartial","seqNoFeedback","seqFeedback"],"classroomPairings":[["A","B"],["C","D"]],"coinWeights":[0.2,0.5,0.8],"subjectId":"AOWW3URQNRJ6U","assignmentId":"3M0NZ3JDP2K7BJ92ZFNMCMONNGE5ZP","hitId":"3FJ2RVH25ZSYKBA8MWMNC8NVPF629N","url":"https://gershmanlab.com/experiments/alicia/teaching/experiment/?hitId=3FJ2RVH25ZSYKBA8MWMNC8NVPF629N&workerId=AOWW3URQNRJ6U&assignmentId=3M0NZ3JDP2K7BJ92ZFNMCMONNGE5ZP&a=DZ0M7&tp_a=DZ0M7&b=3M0NZ3JDP2K7BJ92ZFNMCMONNGE5ZP&tp_b=3M0NZ3JDP2K7BJ92ZFNMCMONNGE5ZP&c=365717&tp_c=365717"},{"rt":null,"stimulus":"Examples sent to student! Waiting for student...","response":null,"trial_type":"html-keyboard-response","trial_index":21,"time_elapsed":398772,"internal_node_id":"0.0-8.0","params":{"nStudents":24,"maxFlips":30,"completionMinutes":45,"basePay":8,"maxBonus":9,"perTrialBonus":0.5,"perTrialBonusThreshold":0.05,"exampleCost":0.01},"classroomParams":{"A":{"a":1,"b":4},"B":{"a":4,"b":1},"C":{"a":2,"b":8},"D":{"a":8,"b":2}},"conditions":["nonSeqFull","nonSeqPartial","seqNoFeedback","seqFeedback"],"classroomPairings":[["A","B"],["C","D"]],"coinWeights":[0.2,0.5,0.8],"subjectId":"AOWW3URQNRJ6U","assignmentId":"3M0NZ3JDP2K7BJ92ZFNMCMONNGE5ZP","hitId":"3FJ2RVH25ZSYKBA8MWMNC8NVPF629N","url":"https://gershmanlab.com/experiments/alicia/teaching/experiment/?hitId=3FJ2RVH25ZSYKBA8MWMNC8NVPF629N&workerId=AOWW3URQNRJ6U&assignmentId=3M0NZ3JDP2K7BJ92ZFNMCMONNGE5ZP&a=DZ0M7&tp_a=DZ0M7&b=3M0NZ3JDP2K7BJ92ZFNMCMONNGE5ZP&tp_b=3M0NZ3JDP2K7BJ92ZFNMCMONNGE5ZP&c=365717&tp_c=365717"},{"rt":4231,"stimulus":"\n                <p>Student's guess for coin weight: <b style=\"color:Tomato;\">0.60</b></p>\n                <p>You received a bonus of <b>$0</b>. Total bonus so far: <b>$0.00</b></b></p>\n                <p></p>\n                <p>Press any key to continue.</p>\n                ","response":"arrowleft","trial_type":"html-keyboard-response","trial_index":22,"time_elapsed":403003,"internal_node_id":"0.0-9.0","params":{"nStudents":24,"maxFlips":30,"completionMinutes":45,"basePay":8,"maxBonus":9,"perTrialBonus":0.5,"perTrialBonusThreshold":0.05,"exampleCost":0.01},"classroomParams":{"A":{"a":1,"b":4},"B":{"a":4,"b":1},"C":{"a":2,"b":8},"D":{"a":8,"b":2}},"conditions":["nonSeqFull","nonSeqPartial","seqNoFeedback","seqFeedback"],"classroomPairings":[["A","B"],["C","D"]],"coinWeights":[0.2,0.5,0.8],"subjectId":"AOWW3URQNRJ6U","assignmentId":"3M0NZ3JDP2K7BJ92ZFNMCMONNGE5ZP","hitId":"3FJ2RVH25ZSYKBA8MWMNC8NVPF629N","url":"https://gershmanlab.com/experiments/alicia/teaching/experiment/?hitId=3FJ2RVH25ZSYKBA8MWMNC8NVPF629N&workerId=AOWW3URQNRJ6U&assignmentId=3M0NZ3JDP2K7BJ92ZFNMCMONNGE5ZP&a=DZ0M7&tp_a=DZ0M7&b=3M0NZ3JDP2K7BJ92ZFNMCMONNGE5ZP&tp_b=3M0NZ3JDP2K7BJ92ZFNMCMONNGE5ZP&c=365717&tp_c=365717"},{"rt":null,"stimulus":"<div style=\"font-size:60px;\">Next student</div>","response":null,"trial_type":"html-keyboard-response","trial_index":23,"time_elapsed":405255,"internal_node_id":"0.0-10.0-0.0","params":{"nStudents":24,"maxFlips":30,"completionMinutes":45,"basePay":8,"maxBonus":9,"perTrialBonus":0.5,"perTrialBonusThreshold":0.05,"exampleCost":0.01},"classroomParams":{"A":{"a":1,"b":4},"B":{"a":4,"b":1},"C":{"a":2,"b":8},"D":{"a":8,"b":2}},"conditions":["nonSeqFull","nonSeqPartial","seqNoFeedback","seqFeedback"],"classroomPairings":[["A","B"],["C","D"]],"coinWeights":[0.2,0.5,0.8],"subjectId":"AOWW3URQNRJ6U","assignmentId":"3M0NZ3JDP2K7BJ92ZFNMCMONNGE5ZP","hitId":"3FJ2RVH25ZSYKBA8MWMNC8NVPF629N","url":"https://gershmanlab.com/experiments/alicia/teaching/experiment/?hitId=3FJ2RVH25ZSYKBA8MWMNC8NVPF629N&workerId=AOWW3URQNRJ6U&assignmentId=3M0NZ3JDP2K7BJ92ZFNMCMONNGE5ZP&a=DZ0M7&tp_a=DZ0M7&b=3M0NZ3JDP2K7BJ92ZFNMCMONNGE5ZP&tp_b=3M0NZ3JDP2K7BJ92ZFNMCMONNGE5ZP&c=365717&tp_c=365717"},{"rt":2073,"stimulus":"\n            <h4 style=\"color:Orange;\">Student 2</h4>\n            <h2>The weight of your coin is <b style=\"color:Tomato;\">0.5</b>.</h2>\n            <p>In this block, you will be giving <b>two</b> sets of examples to Student 2.</p>\n                <p>You will see the student's guess after the first set of examples. You will also receive feedback at the end of the block.</p>\n            <p>To earn the highest bonus, you will have to <b>take into consideration the student's guess</b> when you choose your second set of examples.</p>","response":0,"trial_type":"html-button-response","trial_index":24,"time_elapsed":407329,"internal_node_id":"0.0-11.0","params":{"nStudents":24,"maxFlips":30,"completionMinutes":45,"basePay":8,"maxBonus":9,"perTrialBonus":0.5,"perTrialBonusThreshold":0.05,"exampleCost":0.01},"classroomParams":{"A":{"a":1,"b":4},"B":{"a":4,"b":1},"C":{"a":2,"b":8},"D":{"a":8,"b":2}},"conditions":["nonSeqFull","nonSeqPartial","seqNoFeedback","seqFeedback"],"classroomPairings":[["A","B"],["C","D"]],"coinWeights":[0.2,0.5,0.8],"subjectId":"AOWW3URQNRJ6U","assignmentId":"3M0NZ3JDP2K7BJ92ZFNMCMONNGE5ZP","hitId":"3FJ2RVH25ZSYKBA8MWMNC8NVPF629N","url":"https://gershmanlab.com/experiments/alicia/teaching/experiment/?hitId=3FJ2RVH25ZSYKBA8MWMNC8NVPF629N&workerId=AOWW3URQNRJ6U&assignmentId=3M0NZ3JDP2K7BJ92ZFNMCMONNGE5ZP&a=DZ0M7&tp_a=DZ0M7&b=3M0NZ3JDP2K7BJ92ZFNMCMONNGE5ZP&tp_b=3M0NZ3JDP2K7BJ92ZFNMCMONNGE5ZP&c=365717&tp_c=365717"},{"rt":4265,"response":{"heads":"3","tails":"3"},"type":"response","condition":"seqFeedback","trueTheta":0.5,"classrooms":["C","D"],"studentTrueClassroom":"C","exampleSet":"first","trial_type":"survey-html-form","trial_index":25,"time_elapsed":411596,"internal_node_id":"0.0-12.0-0.0","params":{"nStudents":24,"maxFlips":30,"completionMinutes":45,"basePay":8,"maxBonus":9,"perTrialBonus":0.5,"perTrialBonusThreshold":0.05,"exampleCost":0.01},"classroomParams":{"A":{"a":1,"b":4},"B":{"a":4,"b":1},"C":{"a":2,"b":8},"D":{"a":8,"b":2}},"conditions":["nonSeqFull","nonSeqPartial","seqNoFeedback","seqFeedback"],"classroomPairings":[["A","B"],["C","D"]],"coinWeights":[0.2,0.5,0.8],"subjectId":"AOWW3URQNRJ6U","assignmentId":"3M0NZ3JDP2K7BJ92ZFNMCMONNGE5ZP","hitId":"3FJ2RVH25ZSYKBA8MWMNC8NVPF629N","url":"https://gershmanlab.com/experiments/alicia/teaching/experiment/?hitId=3FJ2RVH25ZSYKBA8MWMNC8NVPF629N&workerId=AOWW3URQNRJ6U&assignmentId=3M0NZ3JDP2K7BJ92ZFNMCMONNGE5ZP&a=DZ0M7&tp_a=DZ0M7&b=3M0NZ3JDP2K7BJ92ZFNMCMONNGE5ZP&tp_b=3M0NZ3JDP2K7BJ92ZFNMCMONNGE5ZP&c=365717&tp_c=365717","heads":3,"tails":3,"studentIndex":1,"studentTrueHypers":{"a":2,"b":8},"studentGuess":0.3125,"delta":0.1875,"totalExamples":6,"bonusSoFar":0},{"rt":null,"stimulus":"Sending examples to student... ","response":null,"trial_type":"html-keyboard-response","trial_index":26,"time_elapsed":413347,"internal_node_id":"0.0-13.0","params":{"nStudents":24,"maxFlips":30,"completionMinutes":45,"basePay":8,"maxBonus":9,"perTrialBonus":0.5,"perTrialBonusThreshold":0.05,"exampleCost":0.01},"classroomParams":{"A":{"a":1,"b":4},"B":{"a":4,"b":1},"C":{"a":2,"b":8},"D":{"a":8,"b":2}},"conditions":["nonSeqFull","nonSeqPartial","seqNoFeedback","seqFeedback"],"classroomPairings":[["A","B"],["C","D"]],"coinWeights":[0.2,0.5,0.8],"subjectId":"AOWW3URQNRJ6U","assignmentId":"3M0NZ3JDP2K7BJ92ZFNMCMONNGE5ZP","hitId":"3FJ2RVH25ZSYKBA8MWMNC8NVPF629N","url":"https://gershmanlab.com/experiments/alicia/teaching/experiment/?hitId=3FJ2RVH25ZSYKBA8MWMNC8NVPF629N&workerId=AOWW3URQNRJ6U&assignmentId=3M0NZ3JDP2K7BJ92ZFNMCMONNGE5ZP&a=DZ0M7&tp_a=DZ0M7&b=3M0NZ3JDP2K7BJ92ZFNMCMONNGE5ZP&tp_b=3M0NZ3JDP2K7BJ92ZFNMCMONNGE5ZP&c=365717&tp_c=365717"},{"rt":null,"stimulus":"Examples sent to student! Waiting for student...","response":null,"trial_type":"html-keyboard-response","trial_index":27,"time_elapsed":417850,"internal_node_id":"0.0-14.0","params":{"nStudents":24,"maxFlips":30,"completionMinutes":45,"basePay":8,"maxBonus":9,"perTrialBonus":0.5,"perTrialBonusThreshold":0.05,"exampleCost":0.01},"classroomParams":{"A":{"a":1,"b":4},"B":{"a":4,"b":1},"C":{"a":2,"b":8},"D":{"a":8,"b":2}},"conditions":["nonSeqFull","nonSeqPartial","seqNoFeedback","seqFeedback"],"classroomPairings":[["A","B"],["C","D"]],"coinWeights":[0.2,0.5,0.8],"subjectId":"AOWW3URQNRJ6U","assignmentId":"3M0NZ3JDP2K7BJ92ZFNMCMONNGE5ZP","hitId":"3FJ2RVH25ZSYKBA8MWMNC8NVPF629N","url":"https://gershmanlab.com/experiments/alicia/teaching/experiment/?hitId=3FJ2RVH25ZSYKBA8MWMNC8NVPF629N&workerId=AOWW3URQNRJ6U&assignmentId=3M0NZ3JDP2K7BJ92ZFNMCMONNGE5ZP&a=DZ0M7&tp_a=DZ0M7&b=3M0NZ3JDP2K7BJ92ZFNMCMONNGE5ZP&tp_b=3M0NZ3JDP2K7BJ92ZFNMCMONNGE5ZP&c=365717&tp_c=365717"},{"rt":2950,"stimulus":"\n                <p>Student's guess for coin weight: <b style=\"color:Tomato;\">0.31</b></p>\n                <p></b></p>\n                <p>You will now send another set of examples to your student. <b>Remember to take your student's guess into consideration so that you can earn the highest bonus possible!</b> </p>\n                <p>Press any key to continue.</p>\n                ","response":"arrowright","trial_type":"html-keyboard-response","trial_index":28,"time_elapsed":420801,"internal_node_id":"0.0-15.0","params":{"nStudents":24,"maxFlips":30,"completionMinutes":45,"basePay":8,"maxBonus":9,"perTrialBonus":0.5,"perTrialBonusThreshold":0.05,"exampleCost":0.01},"classroomParams":{"A":{"a":1,"b":4},"B":{"a":4,"b":1},"C":{"a":2,"b":8},"D":{"a":8,"b":2}},"conditions":["nonSeqFull","nonSeqPartial","seqNoFeedback","seqFeedback"],"classroomPairings":[["A","B"],["C","D"]],"coinWeights":[0.2,0.5,0.8],"subjectId":"AOWW3URQNRJ6U","assignmentId":"3M0NZ3JDP2K7BJ92ZFNMCMONNGE5ZP","hitId":"3FJ2RVH25ZSYKBA8MWMNC8NVPF629N","url":"https://gershmanlab.com/experiments/alicia/teaching/experiment/?hitId=3FJ2RVH25ZSYKBA8MWMNC8NVPF629N&workerId=AOWW3URQNRJ6U&assignmentId=3M0NZ3JDP2K7BJ92ZFNMCMONNGE5ZP&a=DZ0M7&tp_a=DZ0M7&b=3M0NZ3JDP2K7BJ92ZFNMCMONNGE5ZP&tp_b=3M0NZ3JDP2K7BJ92ZFNMCMONNGE5ZP&c=365717&tp_c=365717"},{"rt":8706,"response":{"heads":"5","tails":"5"},"type":"response","condition":"seqFeedback","trueTheta":0.5,"classrooms":["C","D"],"studentTrueClassroom":"C","exampleSet":"second","trial_type":"survey-html-form","trial_index":29,"time_elapsed":429508,"internal_node_id":"0.0-16.0-0.0","params":{"nStudents":24,"maxFlips":30,"completionMinutes":45,"basePay":8,"maxBonus":9,"perTrialBonus":0.5,"perTrialBonusThreshold":0.05,"exampleCost":0.01},"classroomParams":{"A":{"a":1,"b":4},"B":{"a":4,"b":1},"C":{"a":2,"b":8},"D":{"a":8,"b":2}},"conditions":["nonSeqFull","nonSeqPartial","seqNoFeedback","seqFeedback"],"classroomPairings":[["A","B"],["C","D"]],"coinWeights":[0.2,0.5,0.8],"subjectId":"AOWW3URQNRJ6U","assignmentId":"3M0NZ3JDP2K7BJ92ZFNMCMONNGE5ZP","hitId":"3FJ2RVH25ZSYKBA8MWMNC8NVPF629N","url":"https://gershmanlab.com/experiments/alicia/teaching/experiment/?hitId=3FJ2RVH25ZSYKBA8MWMNC8NVPF629N&workerId=AOWW3URQNRJ6U&assignmentId=3M0NZ3JDP2K7BJ92ZFNMCMONNGE5ZP&a=DZ0M7&tp_a=DZ0M7&b=3M0NZ3JDP2K7BJ92ZFNMCMONNGE5ZP&tp_b=3M0NZ3JDP2K7BJ92ZFNMCMONNGE5ZP&c=365717&tp_c=365717","firstResponseHeads":3,"firstResponseTails":3,"secondResponseHeads":5,"secondResponseTails":5,"totalHeads":8,"totalTails":8,"studentIndex":1,"studentTrueHypers":{"a":2,"b":8},"studentGuess":0.38461538461538464,"delta":0.11538461538461536,"bonus":0,"bonusSoFar":0,"totalExamples":16},{"rt":null,"stimulus":"Sending examples to student... ","response":null,"trial_type":"html-keyboard-response","trial_index":30,"time_elapsed":431260,"internal_node_id":"0.0-17.0","params":{"nStudents":24,"maxFlips":30,"completionMinutes":45,"basePay":8,"maxBonus":9,"perTrialBonus":0.5,"perTrialBonusThreshold":0.05,"exampleCost":0.01},"classroomParams":{"A":{"a":1,"b":4},"B":{"a":4,"b":1},"C":{"a":2,"b":8},"D":{"a":8,"b":2}},"conditions":["nonSeqFull","nonSeqPartial","seqNoFeedback","seqFeedback"],"classroomPairings":[["A","B"],["C","D"]],"coinWeights":[0.2,0.5,0.8],"subjectId":"AOWW3URQNRJ6U","assignmentId":"3M0NZ3JDP2K7BJ92ZFNMCMONNGE5ZP","hitId":"3FJ2RVH25ZSYKBA8MWMNC8NVPF629N","url":"https://gershmanlab.com/experiments/alicia/teaching/experiment/?hitId=3FJ2RVH25ZSYKBA8MWMNC8NVPF629N&workerId=AOWW3URQNRJ6U&assignmentId=3M0NZ3JDP2K7BJ92ZFNMCMONNGE5ZP&a=DZ0M7&tp_a=DZ0M7&b=3M0NZ3JDP2K7BJ92ZFNMCMONNGE5ZP&tp_b=3M0NZ3JDP2K7BJ92ZFNMCMONNGE5ZP&c=365717&tp_c=365717"},{"rt":null,"stimulus":"Examples sent to student! Waiting for student...","response":null,"trial_type":"html-keyboard-response","trial_index":31,"time_elapsed":437262,"internal_node_id":"0.0-18.0","params":{"nStudents":24,"maxFlips":30,"completionMinutes":45,"basePay":8,"maxBonus":9,"perTrialBonus":0.5,"perTrialBonusThreshold":0.05,"exampleCost":0.01},"classroomParams":{"A":{"a":1,"b":4},"B":{"a":4,"b":1},"C":{"a":2,"b":8},"D":{"a":8,"b":2}},"conditions":["nonSeqFull","nonSeqPartial","seqNoFeedback","seqFeedback"],"classroomPairings":[["A","B"],["C","D"]],"coinWeights":[0.2,0.5,0.8],"subjectId":"AOWW3URQNRJ6U","assignmentId":"3M0NZ3JDP2K7BJ92ZFNMCMONNGE5ZP","hitId":"3FJ2RVH25ZSYKBA8MWMNC8NVPF629N","url":"https://gershmanlab.com/experiments/alicia/teaching/experiment/?hitId=3FJ2RVH25ZSYKBA8MWMNC8NVPF629N&workerId=AOWW3URQNRJ6U&assignmentId=3M0NZ3JDP2K7BJ92ZFNMCMONNGE5ZP&a=DZ0M7&tp_a=DZ0M7&b=3M0NZ3JDP2K7BJ92ZFNMCMONNGE5ZP&tp_b=3M0NZ3JDP2K7BJ92ZFNMCMONNGE5ZP&c=365717&tp_c=365717"},{"rt":2101,"stimulus":"\n                <p>Student 2's first guess for coin weight: <b style=\"color:Tomato\";>0.31</b></p>\n                <p>Student 2's second guess for coin weight: <b style=\"color:Tomato\";>0.38</b></p>\n                <p>You received a bonus of <b>$0.00</b> based on the student's second guess.</p>\n                <p>Total bonus so far: <b>$0.00</b></p>\n                <p>Press any key to continue.</p>\n                ","response":"arrowdown","trial_type":"html-keyboard-response","trial_index":32,"time_elapsed":439364,"internal_node_id":"0.0-19.0","params":{"nStudents":24,"maxFlips":30,"completionMinutes":45,"basePay":8,"maxBonus":9,"perTrialBonus":0.5,"perTrialBonusThreshold":0.05,"exampleCost":0.01},"classroomParams":{"A":{"a":1,"b":4},"B":{"a":4,"b":1},"C":{"a":2,"b":8},"D":{"a":8,"b":2}},"conditions":["nonSeqFull","nonSeqPartial","seqNoFeedback","seqFeedback"],"classroomPairings":[["A","B"],["C","D"]],"coinWeights":[0.2,0.5,0.8],"subjectId":"AOWW3URQNRJ6U","assignmentId":"3M0NZ3JDP2K7BJ92ZFNMCMONNGE5ZP","hitId":"3FJ2RVH25ZSYKBA8MWMNC8NVPF629N","url":"https://gershmanlab.com/experiments/alicia/teaching/experiment/?hitId=3FJ2RVH25ZSYKBA8MWMNC8NVPF629N&workerId=AOWW3URQNRJ6U&assignmentId=3M0NZ3JDP2K7BJ92ZFNMCMONNGE5ZP&a=DZ0M7&tp_a=DZ0M7&b=3M0NZ3JDP2K7BJ92ZFNMCMONNGE5ZP&tp_b=3M0NZ3JDP2K7BJ92ZFNMCMONNGE5ZP&c=365717&tp_c=365717"},{"rt":null,"stimulus":"<div style=\"font-size:60px;\">Next student</div>","response":null,"trial_type":"html-keyboard-response","trial_index":33,"time_elapsed":441865,"internal_node_id":"0.0-20.0-0.0","params":{"nStudents":24,"maxFlips":30,"completionMinutes":45,"basePay":8,"maxBonus":9,"perTrialBonus":0.5,"perTrialBonusThreshold":0.05,"exampleCost":0.01},"classroomParams":{"A":{"a":1,"b":4},"B":{"a":4,"b":1},"C":{"a":2,"b":8},"D":{"a":8,"b":2}},"conditions":["nonSeqFull","nonSeqPartial","seqNoFeedback","seqFeedback"],"classroomPairings":[["A","B"],["C","D"]],"coinWeights":[0.2,0.5,0.8],"subjectId":"AOWW3URQNRJ6U","assignmentId":"3M0NZ3JDP2K7BJ92ZFNMCMONNGE5ZP","hitId":"3FJ2RVH25ZSYKBA8MWMNC8NVPF629N","url":"https://gershmanlab.com/experiments/alicia/teaching/experiment/?hitId=3FJ2RVH25ZSYKBA8MWMNC8NVPF629N&workerId=AOWW3URQNRJ6U&assignmentId=3M0NZ3JDP2K7BJ92ZFNMCMONNGE5ZP&a=DZ0M7&tp_a=DZ0M7&b=3M0NZ3JDP2K7BJ92ZFNMCMONNGE5ZP&tp_b=3M0NZ3JDP2K7BJ92ZFNMCMONNGE5ZP&c=365717&tp_c=365717"},{"rt":1289,"stimulus":"\n            <h4 style=\"color:Orange;\">Student 3</h4>\n            <h2>The weight of your coin is <b style=\"color:Tomato;\">0.5</b>.</h2>\n            <p>In this block, you will be giving <b>one</b> set of examples to Student 3.</p>\n                <p>You will receive feedback at the end of the block.</p>\n            <p></p>","response":0,"trial_type":"html-button-response","trial_index":34,"time_elapsed":443156,"internal_node_id":"0.0-21.0","params":{"nStudents":24,"maxFlips":30,"completionMinutes":45,"basePay":8,"maxBonus":9,"perTrialBonus":0.5,"perTrialBonusThreshold":0.05,"exampleCost":0.01},"classroomParams":{"A":{"a":1,"b":4},"B":{"a":4,"b":1},"C":{"a":2,"b":8},"D":{"a":8,"b":2}},"conditions":["nonSeqFull","nonSeqPartial","seqNoFeedback","seqFeedback"],"classroomPairings":[["A","B"],["C","D"]],"coinWeights":[0.2,0.5,0.8],"subjectId":"AOWW3URQNRJ6U","assignmentId":"3M0NZ3JDP2K7BJ92ZFNMCMONNGE5ZP","hitId":"3FJ2RVH25ZSYKBA8MWMNC8NVPF629N","url":"https://gershmanlab.com/experiments/alicia/teaching/experiment/?hitId=3FJ2RVH25ZSYKBA8MWMNC8NVPF629N&workerId=AOWW3URQNRJ6U&assignmentId=3M0NZ3JDP2K7BJ92ZFNMCMONNGE5ZP&a=DZ0M7&tp_a=DZ0M7&b=3M0NZ3JDP2K7BJ92ZFNMCMONNGE5ZP&tp_b=3M0NZ3JDP2K7BJ92ZFNMCMONNGE5ZP&c=365717&tp_c=365717"},{"rt":24482,"response":{"heads":"6","tails":"6"},"type":"response","condition":"nonSeqPartial","trueTheta":0.5,"classrooms":["C","D"],"studentTrueClassroom":"C","exampleSet":"first","trial_type":"survey-html-form","trial_index":35,"time_elapsed":467639,"internal_node_id":"0.0-22.0-0.0","params":{"nStudents":24,"maxFlips":30,"completionMinutes":45,"basePay":8,"maxBonus":9,"perTrialBonus":0.5,"perTrialBonusThreshold":0.05,"exampleCost":0.01},"classroomParams":{"A":{"a":1,"b":4},"B":{"a":4,"b":1},"C":{"a":2,"b":8},"D":{"a":8,"b":2}},"conditions":["nonSeqFull","nonSeqPartial","seqNoFeedback","seqFeedback"],"classroomPairings":[["A","B"],["C","D"]],"coinWeights":[0.2,0.5,0.8],"subjectId":"AOWW3URQNRJ6U","assignmentId":"3M0NZ3JDP2K7BJ92ZFNMCMONNGE5ZP","hitId":"3FJ2RVH25ZSYKBA8MWMNC8NVPF629N","url":"https://gershmanlab.com/experiments/alicia/teaching/experiment/?hitId=3FJ2RVH25ZSYKBA8MWMNC8NVPF629N&workerId=AOWW3URQNRJ6U&assignmentId=3M0NZ3JDP2K7BJ92ZFNMCMONNGE5ZP&a=DZ0M7&tp_a=DZ0M7&b=3M0NZ3JDP2K7BJ92ZFNMCMONNGE5ZP&tp_b=3M0NZ3JDP2K7BJ92ZFNMCMONNGE5ZP&c=365717&tp_c=365717","heads":6,"tails":6,"studentIndex":2,"studentTrueHypers":{"a":2,"b":8},"studentGuess":0.36363636363636365,"delta":0.13636363636363635,"totalExamples":12,"bonus":0,"bonusSoFar":0},{"rt":null,"stimulus":"Sending examples to student... ","response":null,"trial_type":"html-keyboard-response","trial_index":36,"time_elapsed":469142,"internal_node_id":"0.0-23.0","params":{"nStudents":24,"maxFlips":30,"completionMinutes":45,"basePay":8,"maxBonus":9,"perTrialBonus":0.5,"perTrialBonusThreshold":0.05,"exampleCost":0.01},"classroomParams":{"A":{"a":1,"b":4},"B":{"a":4,"b":1},"C":{"a":2,"b":8},"D":{"a":8,"b":2}},"conditions":["nonSeqFull","nonSeqPartial","seqNoFeedback","seqFeedback"],"classroomPairings":[["A","B"],["C","D"]],"coinWeights":[0.2,0.5,0.8],"subjectId":"AOWW3URQNRJ6U","assignmentId":"3M0NZ3JDP2K7BJ92ZFNMCMONNGE5ZP","hitId":"3FJ2RVH25ZSYKBA8MWMNC8NVPF629N","url":"https://gershmanlab.com/experiments/alicia/teaching/experiment/?hitId=3FJ2RVH25ZSYKBA8MWMNC8NVPF629N&workerId=AOWW3URQNRJ6U&assignmentId=3M0NZ3JDP2K7BJ92ZFNMCMONNGE5ZP&a=DZ0M7&tp_a=DZ0M7&b=3M0NZ3JDP2K7BJ92ZFNMCMONNGE5ZP&tp_b=3M0NZ3JDP2K7BJ92ZFNMCMONNGE5ZP&c=365717&tp_c=365717"},{"rt":null,"stimulus":"Examples sent to student! Waiting for student...","response":null,"trial_type":"html-keyboard-response","trial_index":37,"time_elapsed":474643,"internal_node_id":"0.0-24.0","params":{"nStudents":24,"maxFlips":30,"completionMinutes":45,"basePay":8,"maxBonus":9,"perTrialBonus":0.5,"perTrialBonusThreshold":0.05,"exampleCost":0.01},"classroomParams":{"A":{"a":1,"b":4},"B":{"a":4,"b":1},"C":{"a":2,"b":8},"D":{"a":8,"b":2}},"conditions":["nonSeqFull","nonSeqPartial","seqNoFeedback","seqFeedback"],"classroomPairings":[["A","B"],["C","D"]],"coinWeights":[0.2,0.5,0.8],"subjectId":"AOWW3URQNRJ6U","assignmentId":"3M0NZ3JDP2K7BJ92ZFNMCMONNGE5ZP","hitId":"3FJ2RVH25ZSYKBA8MWMNC8NVPF629N","url":"https://gershmanlab.com/experiments/alicia/teaching/experiment/?hitId=3FJ2RVH25ZSYKBA8MWMNC8NVPF629N&workerId=AOWW3URQNRJ6U&assignmentId=3M0NZ3JDP2K7BJ92ZFNMCMONNGE5ZP&a=DZ0M7&tp_a=DZ0M7&b=3M0NZ3JDP2K7BJ92ZFNMCMONNGE5ZP&tp_b=3M0NZ3JDP2K7BJ92ZFNMCMONNGE5ZP&c=365717&tp_c=365717"},{"rt":2095,"stimulus":"\n                <p>Student's guess for coin weight: <b style=\"color:Tomato;\">0.36</b></p>\n                <p>You received a bonus of <b>$0</b>. Total bonus so far: <b>$0.00</b></b></p>\n                <p></p>\n                <p>Press any key to continue.</p>\n                ","response":"arrowright","trial_type":"html-keyboard-response","trial_index":38,"time_elapsed":476739,"internal_node_id":"0.0-25.0","params":{"nStudents":24,"maxFlips":30,"completionMinutes":45,"basePay":8,"maxBonus":9,"perTrialBonus":0.5,"perTrialBonusThreshold":0.05,"exampleCost":0.01},"classroomParams":{"A":{"a":1,"b":4},"B":{"a":4,"b":1},"C":{"a":2,"b":8},"D":{"a":8,"b":2}},"conditions":["nonSeqFull","nonSeqPartial","seqNoFeedback","seqFeedback"],"classroomPairings":[["A","B"],["C","D"]],"coinWeights":[0.2,0.5,0.8],"subjectId":"AOWW3URQNRJ6U","assignmentId":"3M0NZ3JDP2K7BJ92ZFNMCMONNGE5ZP","hitId":"3FJ2RVH25ZSYKBA8MWMNC8NVPF629N","url":"https://gershmanlab.com/experiments/alicia/teaching/experiment/?hitId=3FJ2RVH25ZSYKBA8MWMNC8NVPF629N&workerId=AOWW3URQNRJ6U&assignmentId=3M0NZ3JDP2K7BJ92ZFNMCMONNGE5ZP&a=DZ0M7&tp_a=DZ0M7&b=3M0NZ3JDP2K7BJ92ZFNMCMONNGE5ZP&tp_b=3M0NZ3JDP2K7BJ92ZFNMCMONNGE5ZP&c=365717&tp_c=365717"},{"rt":null,"stimulus":"<div style=\"font-size:60px;\">Next student</div>","response":null,"trial_type":"html-keyboard-response","trial_index":39,"time_elapsed":479741,"internal_node_id":"0.0-26.0-0.0","params":{"nStudents":24,"maxFlips":30,"completionMinutes":45,"basePay":8,"maxBonus":9,"perTrialBonus":0.5,"perTrialBonusThreshold":0.05,"exampleCost":0.01},"classroomParams":{"A":{"a":1,"b":4},"B":{"a":4,"b":1},"C":{"a":2,"b":8},"D":{"a":8,"b":2}},"conditions":["nonSeqFull","nonSeqPartial","seqNoFeedback","seqFeedback"],"classroomPairings":[["A","B"],["C","D"]],"coinWeights":[0.2,0.5,0.8],"subjectId":"AOWW3URQNRJ6U","assignmentId":"3M0NZ3JDP2K7BJ92ZFNMCMONNGE5ZP","hitId":"3FJ2RVH25ZSYKBA8MWMNC8NVPF629N","url":"https://gershmanlab.com/experiments/alicia/teaching/experiment/?hitId=3FJ2RVH25ZSYKBA8MWMNC8NVPF629N&workerId=AOWW3URQNRJ6U&assignmentId=3M0NZ3JDP2K7BJ92ZFNMCMONNGE5ZP&a=DZ0M7&tp_a=DZ0M7&b=3M0NZ3JDP2K7BJ92ZFNMCMONNGE5ZP&tp_b=3M0NZ3JDP2K7BJ92ZFNMCMONNGE5ZP&c=365717&tp_c=365717"},{"rt":1251,"stimulus":"\n            <h4 style=\"color:Orange;\">Student 4</h4>\n            <h2>The weight of your coin is <b style=\"color:Tomato;\">0.8</b>.</h2>\n            <p>In this block, you will be giving <b>two</b> sets of examples to Student 4.</p>\n                <p>You will receive feedback at the end of the block.</p>\n            <p></p>","response":0,"trial_type":"html-button-response","trial_index":40,"time_elapsed":480994,"internal_node_id":"0.0-27.0","params":{"nStudents":24,"maxFlips":30,"completionMinutes":45,"basePay":8,"maxBonus":9,"perTrialBonus":0.5,"perTrialBonusThreshold":0.05,"exampleCost":0.01},"classroomParams":{"A":{"a":1,"b":4},"B":{"a":4,"b":1},"C":{"a":2,"b":8},"D":{"a":8,"b":2}},"conditions":["nonSeqFull","nonSeqPartial","seqNoFeedback","seqFeedback"],"classroomPairings":[["A","B"],["C","D"]],"coinWeights":[0.2,0.5,0.8],"subjectId":"AOWW3URQNRJ6U","assignmentId":"3M0NZ3JDP2K7BJ92ZFNMCMONNGE5ZP","hitId":"3FJ2RVH25ZSYKBA8MWMNC8NVPF629N","url":"https://gershmanlab.com/experiments/alicia/teaching/experiment/?hitId=3FJ2RVH25ZSYKBA8MWMNC8NVPF629N&workerId=AOWW3URQNRJ6U&assignmentId=3M0NZ3JDP2K7BJ92ZFNMCMONNGE5ZP&a=DZ0M7&tp_a=DZ0M7&b=3M0NZ3JDP2K7BJ92ZFNMCMONNGE5ZP&tp_b=3M0NZ3JDP2K7BJ92ZFNMCMONNGE5ZP&c=365717&tp_c=365717"},{"rt":16723,"response":{"heads":"12","tails":"0"},"type":"response","condition":"seqNoFeedback","trueTheta":0.8,"classrooms":["C","D"],"studentTrueClassroom":"C","exampleSet":"first","trial_type":"survey-html-form","trial_index":41,"time_elapsed":497718,"internal_node_id":"0.0-28.0-0.0","params":{"nStudents":24,"maxFlips":30,"completionMinutes":45,"basePay":8,"maxBonus":9,"perTrialBonus":0.5,"perTrialBonusThreshold":0.05,"exampleCost":0.01},"classroomParams":{"A":{"a":1,"b":4},"B":{"a":4,"b":1},"C":{"a":2,"b":8},"D":{"a":8,"b":2}},"conditions":["nonSeqFull","nonSeqPartial","seqNoFeedback","seqFeedback"],"classroomPairings":[["A","B"],["C","D"]],"coinWeights":[0.2,0.5,0.8],"subjectId":"AOWW3URQNRJ6U","assignmentId":"3M0NZ3JDP2K7BJ92ZFNMCMONNGE5ZP","hitId":"3FJ2RVH25ZSYKBA8MWMNC8NVPF629N","url":"https://gershmanlab.com/experiments/alicia/teaching/experiment/?hitId=3FJ2RVH25ZSYKBA8MWMNC8NVPF629N&workerId=AOWW3URQNRJ6U&assignmentId=3M0NZ3JDP2K7BJ92ZFNMCMONNGE5ZP&a=DZ0M7&tp_a=DZ0M7&b=3M0NZ3JDP2K7BJ92ZFNMCMONNGE5ZP&tp_b=3M0NZ3JDP2K7BJ92ZFNMCMONNGE5ZP&c=365717&tp_c=365717","heads":12,"tails":0,"studentIndex":3,"studentTrueHypers":{"a":2,"b":8},"studentGuess":0.6363636363636364,"delta":0.1636363636363637,"totalExamples":12,"bonusSoFar":0},{"rt":null,"stimulus":"Sending examples to student... ","response":null,"trial_type":"html-keyboard-response","trial_index":42,"time_elapsed":498971,"internal_node_id":"0.0-29.0","params":{"nStudents":24,"maxFlips":30,"completionMinutes":45,"basePay":8,"maxBonus":9,"perTrialBonus":0.5,"perTrialBonusThreshold":0.05,"exampleCost":0.01},"classroomParams":{"A":{"a":1,"b":4},"B":{"a":4,"b":1},"C":{"a":2,"b":8},"D":{"a":8,"b":2}},"conditions":["nonSeqFull","nonSeqPartial","seqNoFeedback","seqFeedback"],"classroomPairings":[["A","B"],["C","D"]],"coinWeights":[0.2,0.5,0.8],"subjectId":"AOWW3URQNRJ6U","assignmentId":"3M0NZ3JDP2K7BJ92ZFNMCMONNGE5ZP","hitId":"3FJ2RVH25ZSYKBA8MWMNC8NVPF629N","url":"https://gershmanlab.com/experiments/alicia/teaching/experiment/?hitId=3FJ2RVH25ZSYKBA8MWMNC8NVPF629N&workerId=AOWW3URQNRJ6U&assignmentId=3M0NZ3JDP2K7BJ92ZFNMCMONNGE5ZP&a=DZ0M7&tp_a=DZ0M7&b=3M0NZ3JDP2K7BJ92ZFNMCMONNGE5ZP&tp_b=3M0NZ3JDP2K7BJ92ZFNMCMONNGE5ZP&c=365717&tp_c=365717"},{"rt":null,"stimulus":"Examples sent to student! Waiting for student...","response":null,"trial_type":"html-keyboard-response","trial_index":43,"time_elapsed":503472,"internal_node_id":"0.0-30.0","params":{"nStudents":24,"maxFlips":30,"completionMinutes":45,"basePay":8,"maxBonus":9,"perTrialBonus":0.5,"perTrialBonusThreshold":0.05,"exampleCost":0.01},"classroomParams":{"A":{"a":1,"b":4},"B":{"a":4,"b":1},"C":{"a":2,"b":8},"D":{"a":8,"b":2}},"conditions":["nonSeqFull","nonSeqPartial","seqNoFeedback","seqFeedback"],"classroomPairings":[["A","B"],["C","D"]],"coinWeights":[0.2,0.5,0.8],"subjectId":"AOWW3URQNRJ6U","assignmentId":"3M0NZ3JDP2K7BJ92ZFNMCMONNGE5ZP","hitId":"3FJ2RVH25ZSYKBA8MWMNC8NVPF629N","url":"https://gershmanlab.com/experiments/alicia/teaching/experiment/?hitId=3FJ2RVH25ZSYKBA8MWMNC8NVPF629N&workerId=AOWW3URQNRJ6U&assignmentId=3M0NZ3JDP2K7BJ92ZFNMCMONNGE5ZP&a=DZ0M7&tp_a=DZ0M7&b=3M0NZ3JDP2K7BJ92ZFNMCMONNGE5ZP&tp_b=3M0NZ3JDP2K7BJ92ZFNMCMONNGE5ZP&c=365717&tp_c=365717"},{"rt":8159,"response":{"heads":"12","tails":"0"},"type":"response","condition":"seqNoFeedback","trueTheta":0.8,"classrooms":["C","D"],"studentTrueClassroom":"C","exampleSet":"second","trial_type":"survey-html-form","trial_index":44,"time_elapsed":511632,"internal_node_id":"0.0-31.0-0.0","params":{"nStudents":24,"maxFlips":30,"completionMinutes":45,"basePay":8,"maxBonus":9,"perTrialBonus":0.5,"perTrialBonusThreshold":0.05,"exampleCost":0.01},"classroomParams":{"A":{"a":1,"b":4},"B":{"a":4,"b":1},"C":{"a":2,"b":8},"D":{"a":8,"b":2}},"conditions":["nonSeqFull","nonSeqPartial","seqNoFeedback","seqFeedback"],"classroomPairings":[["A","B"],["C","D"]],"coinWeights":[0.2,0.5,0.8],"subjectId":"AOWW3URQNRJ6U","assignmentId":"3M0NZ3JDP2K7BJ92ZFNMCMONNGE5ZP","hitId":"3FJ2RVH25ZSYKBA8MWMNC8NVPF629N","url":"https://gershmanlab.com/experiments/alicia/teaching/experiment/?hitId=3FJ2RVH25ZSYKBA8MWMNC8NVPF629N&workerId=AOWW3URQNRJ6U&assignmentId=3M0NZ3JDP2K7BJ92ZFNMCMONNGE5ZP&a=DZ0M7&tp_a=DZ0M7&b=3M0NZ3JDP2K7BJ92ZFNMCMONNGE5ZP&tp_b=3M0NZ3JDP2K7BJ92ZFNMCMONNGE5ZP&c=365717&tp_c=365717","firstResponseHeads":12,"firstResponseTails":0,"secondResponseHeads":12,"secondResponseTails":0,"totalHeads":24,"totalTails":0,"studentIndex":3,"studentTrueHypers":{"a":2,"b":8},"studentGuess":0.7647058823529411,"delta":0.03529411764705892,"bonus":0.26,"bonusSoFar":0.26,"totalExamples":24},{"rt":null,"stimulus":"Sending examples to student... ","response":null,"trial_type":"html-keyboard-response","trial_index":45,"time_elapsed":513384,"internal_node_id":"0.0-32.0","params":{"nStudents":24,"maxFlips":30,"completionMinutes":45,"basePay":8,"maxBonus":9,"perTrialBonus":0.5,"perTrialBonusThreshold":0.05,"exampleCost":0.01},"classroomParams":{"A":{"a":1,"b":4},"B":{"a":4,"b":1},"C":{"a":2,"b":8},"D":{"a":8,"b":2}},"conditions":["nonSeqFull","nonSeqPartial","seqNoFeedback","seqFeedback"],"classroomPairings":[["A","B"],["C","D"]],"coinWeights":[0.2,0.5,0.8],"subjectId":"AOWW3URQNRJ6U","assignmentId":"3M0NZ3JDP2K7BJ92ZFNMCMONNGE5ZP","hitId":"3FJ2RVH25ZSYKBA8MWMNC8NVPF629N","url":"https://gershmanlab.com/experiments/alicia/teaching/experiment/?hitId=3FJ2RVH25ZSYKBA8MWMNC8NVPF629N&workerId=AOWW3URQNRJ6U&assignmentId=3M0NZ3JDP2K7BJ92ZFNMCMONNGE5ZP&a=DZ0M7&tp_a=DZ0M7&b=3M0NZ3JDP2K7BJ92ZFNMCMONNGE5ZP&tp_b=3M0NZ3JDP2K7BJ92ZFNMCMONNGE5ZP&c=365717&tp_c=365717"},{"rt":null,"stimulus":"Examples sent to student! Waiting for student...","response":null,"trial_type":"html-keyboard-response","trial_index":46,"time_elapsed":517887,"internal_node_id":"0.0-33.0","params":{"nStudents":24,"maxFlips":30,"completionMinutes":45,"basePay":8,"maxBonus":9,"perTrialBonus":0.5,"perTrialBonusThreshold":0.05,"exampleCost":0.01},"classroomParams":{"A":{"a":1,"b":4},"B":{"a":4,"b":1},"C":{"a":2,"b":8},"D":{"a":8,"b":2}},"conditions":["nonSeqFull","nonSeqPartial","seqNoFeedback","seqFeedback"],"classroomPairings":[["A","B"],["C","D"]],"coinWeights":[0.2,0.5,0.8],"subjectId":"AOWW3URQNRJ6U","assignmentId":"3M0NZ3JDP2K7BJ92ZFNMCMONNGE5ZP","hitId":"3FJ2RVH25ZSYKBA8MWMNC8NVPF629N","url":"https://gershmanlab.com/experiments/alicia/teaching/experiment/?hitId=3FJ2RVH25ZSYKBA8MWMNC8NVPF629N&workerId=AOWW3URQNRJ6U&assignmentId=3M0NZ3JDP2K7BJ92ZFNMCMONNGE5ZP&a=DZ0M7&tp_a=DZ0M7&b=3M0NZ3JDP2K7BJ92ZFNMCMONNGE5ZP&tp_b=3M0NZ3JDP2K7BJ92ZFNMCMONNGE5ZP&c=365717&tp_c=365717"},{"rt":2064,"stimulus":"\n                <p>Student 4's first guess for coin weight: <b style=\"color:Tomato\";>0.64</b></p>\n                <p>Student 4's second guess for coin weight: <b style=\"color:Tomato\";>0.76</b></p>\n                <p>You received a bonus of <b>$0.26</b> based on the student's second guess.</p>\n                <p>Total bonus so far: <b>$0.26</b></p>\n                <p>Press any key to continue.</p>\n                ","response":"arrowright","trial_type":"html-keyboard-response","trial_index":47,"time_elapsed":519951,"internal_node_id":"0.0-34.0","params":{"nStudents":24,"maxFlips":30,"completionMinutes":45,"basePay":8,"maxBonus":9,"perTrialBonus":0.5,"perTrialBonusThreshold":0.05,"exampleCost":0.01},"classroomParams":{"A":{"a":1,"b":4},"B":{"a":4,"b":1},"C":{"a":2,"b":8},"D":{"a":8,"b":2}},"conditions":["nonSeqFull","nonSeqPartial","seqNoFeedback","seqFeedback"],"classroomPairings":[["A","B"],["C","D"]],"coinWeights":[0.2,0.5,0.8],"subjectId":"AOWW3URQNRJ6U","assignmentId":"3M0NZ3JDP2K7BJ92ZFNMCMONNGE5ZP","hitId":"3FJ2RVH25ZSYKBA8MWMNC8NVPF629N","url":"https://gershmanlab.com/experiments/alicia/teaching/experiment/?hitId=3FJ2RVH25ZSYKBA8MWMNC8NVPF629N&workerId=AOWW3URQNRJ6U&assignmentId=3M0NZ3JDP2K7BJ92ZFNMCMONNGE5ZP&a=DZ0M7&tp_a=DZ0M7&b=3M0NZ3JDP2K7BJ92ZFNMCMONNGE5ZP&tp_b=3M0NZ3JDP2K7BJ92ZFNMCMONNGE5ZP&c=365717&tp_c=365717"},{"rt":null,"stimulus":"<div style=\"font-size:60px;\">Next student</div>","response":null,"trial_type":"html-keyboard-response","trial_index":48,"time_elapsed":521953,"internal_node_id":"0.0-35.0-0.0","params":{"nStudents":24,"maxFlips":30,"completionMinutes":45,"basePay":8,"maxBonus":9,"perTrialBonus":0.5,"perTrialBonusThreshold":0.05,"exampleCost":0.01},"classroomParams":{"A":{"a":1,"b":4},"B":{"a":4,"b":1},"C":{"a":2,"b":8},"D":{"a":8,"b":2}},"conditions":["nonSeqFull","nonSeqPartial","seqNoFeedback","seqFeedback"],"classroomPairings":[["A","B"],["C","D"]],"coinWeights":[0.2,0.5,0.8],"subjectId":"AOWW3URQNRJ6U","assignmentId":"3M0NZ3JDP2K7BJ92ZFNMCMONNGE5ZP","hitId":"3FJ2RVH25ZSYKBA8MWMNC8NVPF629N","url":"https://gershmanlab.com/experiments/alicia/teaching/experiment/?hitId=3FJ2RVH25ZSYKBA8MWMNC8NVPF629N&workerId=AOWW3URQNRJ6U&assignmentId=3M0NZ3JDP2K7BJ92ZFNMCMONNGE5ZP&a=DZ0M7&tp_a=DZ0M7&b=3M0NZ3JDP2K7BJ92ZFNMCMONNGE5ZP&tp_b=3M0NZ3JDP2K7BJ92ZFNMCMONNGE5ZP&c=365717&tp_c=365717"},{"rt":1708,"stimulus":"\n            <h4 style=\"color:Orange;\">Student 5</h4>\n            <h2>The weight of your coin is <b style=\"color:Tomato;\">0.2</b>.</h2>\n            <p>In this block, you will be giving <b>two</b> sets of examples to Student 5.</p>\n                <p>You will receive feedback at the end of the block.</p>\n            <p></p>","response":0,"trial_type":"html-button-response","trial_index":49,"time_elapsed":523663,"internal_node_id":"0.0-36.0","params":{"nStudents":24,"maxFlips":30,"completionMinutes":45,"basePay":8,"maxBonus":9,"perTrialBonus":0.5,"perTrialBonusThreshold":0.05,"exampleCost":0.01},"classroomParams":{"A":{"a":1,"b":4},"B":{"a":4,"b":1},"C":{"a":2,"b":8},"D":{"a":8,"b":2}},"conditions":["nonSeqFull","nonSeqPartial","seqNoFeedback","seqFeedback"],"classroomPairings":[["A","B"],["C","D"]],"coinWeights":[0.2,0.5,0.8],"subjectId":"AOWW3URQNRJ6U","assignmentId":"3M0NZ3JDP2K7BJ92ZFNMCMONNGE5ZP","hitId":"3FJ2RVH25ZSYKBA8MWMNC8NVPF629N","url":"https://gershmanlab.com/experiments/alicia/teaching/experiment/?hitId=3FJ2RVH25ZSYKBA8MWMNC8NVPF629N&workerId=AOWW3URQNRJ6U&assignmentId=3M0NZ3JDP2K7BJ92ZFNMCMONNGE5ZP&a=DZ0M7&tp_a=DZ0M7&b=3M0NZ3JDP2K7BJ92ZFNMCMONNGE5ZP&tp_b=3M0NZ3JDP2K7BJ92ZFNMCMONNGE5ZP&c=365717&tp_c=365717"},{"rt":4574,"response":{"heads":"0","tails":"13"},"type":"response","condition":"seqNoFeedback","trueTheta":0.2,"classrooms":["C","D"],"studentTrueClassroom":"D","exampleSet":"first","trial_type":"survey-html-form","trial_index":50,"time_elapsed":528238,"internal_node_id":"0.0-37.0-0.0","params":{"nStudents":24,"maxFlips":30,"completionMinutes":45,"basePay":8,"maxBonus":9,"perTrialBonus":0.5,"perTrialBonusThreshold":0.05,"exampleCost":0.01},"classroomParams":{"A":{"a":1,"b":4},"B":{"a":4,"b":1},"C":{"a":2,"b":8},"D":{"a":8,"b":2}},"conditions":["nonSeqFull","nonSeqPartial","seqNoFeedback","seqFeedback"],"classroomPairings":[["A","B"],["C","D"]],"coinWeights":[0.2,0.5,0.8],"subjectId":"AOWW3URQNRJ6U","assignmentId":"3M0NZ3JDP2K7BJ92ZFNMCMONNGE5ZP","hitId":"3FJ2RVH25ZSYKBA8MWMNC8NVPF629N","url":"https://gershmanlab.com/experiments/alicia/teaching/experiment/?hitId=3FJ2RVH25ZSYKBA8MWMNC8NVPF629N&workerId=AOWW3URQNRJ6U&assignmentId=3M0NZ3JDP2K7BJ92ZFNMCMONNGE5ZP&a=DZ0M7&tp_a=DZ0M7&b=3M0NZ3JDP2K7BJ92ZFNMCMONNGE5ZP&tp_b=3M0NZ3JDP2K7BJ92ZFNMCMONNGE5ZP&c=365717&tp_c=365717","heads":0,"tails":13,"studentIndex":4,"studentTrueHypers":{"a":8,"b":2},"studentGuess":0.34782608695652173,"delta":0.14782608695652172,"totalExamples":13,"bonusSoFar":0.26},{"rt":null,"stimulus":"Sending examples to student... ","response":null,"trial_type":"html-keyboard-response","trial_index":51,"time_elapsed":530241,"internal_node_id":"0.0-38.0","params":{"nStudents":24,"maxFlips":30,"completionMinutes":45,"basePay":8,"maxBonus":9,"perTrialBonus":0.5,"perTrialBonusThreshold":0.05,"exampleCost":0.01},"classroomParams":{"A":{"a":1,"b":4},"B":{"a":4,"b":1},"C":{"a":2,"b":8},"D":{"a":8,"b":2}},"conditions":["nonSeqFull","nonSeqPartial","seqNoFeedback","seqFeedback"],"classroomPairings":[["A","B"],["C","D"]],"coinWeights":[0.2,0.5,0.8],"subjectId":"AOWW3URQNRJ6U","assignmentId":"3M0NZ3JDP2K7BJ92ZFNMCMONNGE5ZP","hitId":"3FJ2RVH25ZSYKBA8MWMNC8NVPF629N","url":"https://gershmanlab.com/experiments/alicia/teaching/experiment/?hitId=3FJ2RVH25ZSYKBA8MWMNC8NVPF629N&workerId=AOWW3URQNRJ6U&assignmentId=3M0NZ3JDP2K7BJ92ZFNMCMONNGE5ZP&a=DZ0M7&tp_a=DZ0M7&b=3M0NZ3JDP2K7BJ92ZFNMCMONNGE5ZP&tp_b=3M0NZ3JDP2K7BJ92ZFNMCMONNGE5ZP&c=365717&tp_c=365717"},{"rt":null,"stimulus":"Examples sent to student! Waiting for student...","response":null,"trial_type":"html-keyboard-response","trial_index":52,"time_elapsed":534242,"internal_node_id":"0.0-39.0","params":{"nStudents":24,"maxFlips":30,"completionMinutes":45,"basePay":8,"maxBonus":9,"perTrialBonus":0.5,"perTrialBonusThreshold":0.05,"exampleCost":0.01},"classroomParams":{"A":{"a":1,"b":4},"B":{"a":4,"b":1},"C":{"a":2,"b":8},"D":{"a":8,"b":2}},"conditions":["nonSeqFull","nonSeqPartial","seqNoFeedback","seqFeedback"],"classroomPairings":[["A","B"],["C","D"]],"coinWeights":[0.2,0.5,0.8],"subjectId":"AOWW3URQNRJ6U","assignmentId":"3M0NZ3JDP2K7BJ92ZFNMCMONNGE5ZP","hitId":"3FJ2RVH25ZSYKBA8MWMNC8NVPF629N","url":"https://gershmanlab.com/experiments/alicia/teaching/experiment/?hitId=3FJ2RVH25ZSYKBA8MWMNC8NVPF629N&workerId=AOWW3URQNRJ6U&assignmentId=3M0NZ3JDP2K7BJ92ZFNMCMONNGE5ZP&a=DZ0M7&tp_a=DZ0M7&b=3M0NZ3JDP2K7BJ92ZFNMCMONNGE5ZP&tp_b=3M0NZ3JDP2K7BJ92ZFNMCMONNGE5ZP&c=365717&tp_c=365717"},{"rt":3292,"response":{"heads":"0","tails":"13"},"type":"response","condition":"seqNoFeedback","trueTheta":0.2,"classrooms":["C","D"],"studentTrueClassroom":"D","exampleSet":"second","trial_type":"survey-html-form","trial_index":53,"time_elapsed":537535,"internal_node_id":"0.0-40.0-0.0","params":{"nStudents":24,"maxFlips":30,"completionMinutes":45,"basePay":8,"maxBonus":9,"perTrialBonus":0.5,"perTrialBonusThreshold":0.05,"exampleCost":0.01},"classroomParams":{"A":{"a":1,"b":4},"B":{"a":4,"b":1},"C":{"a":2,"b":8},"D":{"a":8,"b":2}},"conditions":["nonSeqFull","nonSeqPartial","seqNoFeedback","seqFeedback"],"classroomPairings":[["A","B"],["C","D"]],"coinWeights":[0.2,0.5,0.8],"subjectId":"AOWW3URQNRJ6U","assignmentId":"3M0NZ3JDP2K7BJ92ZFNMCMONNGE5ZP","hitId":"3FJ2RVH25ZSYKBA8MWMNC8NVPF629N","url":"https://gershmanlab.com/experiments/alicia/teaching/experiment/?hitId=3FJ2RVH25ZSYKBA8MWMNC8NVPF629N&workerId=AOWW3URQNRJ6U&assignmentId=3M0NZ3JDP2K7BJ92ZFNMCMONNGE5ZP&a=DZ0M7&tp_a=DZ0M7&b=3M0NZ3JDP2K7BJ92ZFNMCMONNGE5ZP&tp_b=3M0NZ3JDP2K7BJ92ZFNMCMONNGE5ZP&c=365717&tp_c=365717","firstResponseHeads":0,"firstResponseTails":13,"secondResponseHeads":0,"secondResponseTails":13,"totalHeads":0,"totalTails":26,"studentIndex":4,"studentTrueHypers":{"a":8,"b":2},"studentGuess":0.2222222222222222,"delta":0.0222222222222222,"bonus":0.24,"bonusSoFar":0.5,"totalExamples":26},{"rt":null,"stimulus":"Sending examples to student... ","response":null,"trial_type":"html-keyboard-response","trial_index":54,"time_elapsed":539538,"internal_node_id":"0.0-41.0","params":{"nStudents":24,"maxFlips":30,"completionMinutes":45,"basePay":8,"maxBonus":9,"perTrialBonus":0.5,"perTrialBonusThreshold":0.05,"exampleCost":0.01},"classroomParams":{"A":{"a":1,"b":4},"B":{"a":4,"b":1},"C":{"a":2,"b":8},"D":{"a":8,"b":2}},"conditions":["nonSeqFull","nonSeqPartial","seqNoFeedback","seqFeedback"],"classroomPairings":[["A","B"],["C","D"]],"coinWeights":[0.2,0.5,0.8],"subjectId":"AOWW3URQNRJ6U","assignmentId":"3M0NZ3JDP2K7BJ92ZFNMCMONNGE5ZP","hitId":"3FJ2RVH25ZSYKBA8MWMNC8NVPF629N","url":"https://gershmanlab.com/experiments/alicia/teaching/experiment/?hitId=3FJ2RVH25ZSYKBA8MWMNC8NVPF629N&workerId=AOWW3URQNRJ6U&assignmentId=3M0NZ3JDP2K7BJ92ZFNMCMONNGE5ZP&a=DZ0M7&tp_a=DZ0M7&b=3M0NZ3JDP2K7BJ92ZFNMCMONNGE5ZP&tp_b=3M0NZ3JDP2K7BJ92ZFNMCMONNGE5ZP&c=365717&tp_c=365717"},{"rt":null,"stimulus":"Examples sent to student! Waiting for student...","response":null,"trial_type":"html-keyboard-response","trial_index":55,"time_elapsed":545539,"internal_node_id":"0.0-42.0","params":{"nStudents":24,"maxFlips":30,"completionMinutes":45,"basePay":8,"maxBonus":9,"perTrialBonus":0.5,"perTrialBonusThreshold":0.05,"exampleCost":0.01},"classroomParams":{"A":{"a":1,"b":4},"B":{"a":4,"b":1},"C":{"a":2,"b":8},"D":{"a":8,"b":2}},"conditions":["nonSeqFull","nonSeqPartial","seqNoFeedback","seqFeedback"],"classroomPairings":[["A","B"],["C","D"]],"coinWeights":[0.2,0.5,0.8],"subjectId":"AOWW3URQNRJ6U","assignmentId":"3M0NZ3JDP2K7BJ92ZFNMCMONNGE5ZP","hitId":"3FJ2RVH25ZSYKBA8MWMNC8NVPF629N","url":"https://gershmanlab.com/experiments/alicia/teaching/experiment/?hitId=3FJ2RVH25ZSYKBA8MWMNC8NVPF629N&workerId=AOWW3URQNRJ6U&assignmentId=3M0NZ3JDP2K7BJ92ZFNMCMONNGE5ZP&a=DZ0M7&tp_a=DZ0M7&b=3M0NZ3JDP2K7BJ92ZFNMCMONNGE5ZP&tp_b=3M0NZ3JDP2K7BJ92ZFNMCMONNGE5ZP&c=365717&tp_c=365717"},{"rt":2399,"stimulus":"\n                <p>Student 5's first guess for coin weight: <b style=\"color:Tomato\";>0.35</b></p>\n                <p>Student 5's second guess for coin weight: <b style=\"color:Tomato\";>0.22</b></p>\n                <p>You received a bonus of <b>$0.24</b> based on the student's second guess.</p>\n                <p>Total bonus so far: <b>$0.50</b></p>\n                <p>Press any key to continue.</p>\n                ","response":"arrowright","trial_type":"html-keyboard-response","trial_index":56,"time_elapsed":547938,"internal_node_id":"0.0-43.0","params":{"nStudents":24,"maxFlips":30,"completionMinutes":45,"basePay":8,"maxBonus":9,"perTrialBonus":0.5,"perTrialBonusThreshold":0.05,"exampleCost":0.01},"classroomParams":{"A":{"a":1,"b":4},"B":{"a":4,"b":1},"C":{"a":2,"b":8},"D":{"a":8,"b":2}},"conditions":["nonSeqFull","nonSeqPartial","seqNoFeedback","seqFeedback"],"classroomPairings":[["A","B"],["C","D"]],"coinWeights":[0.2,0.5,0.8],"subjectId":"AOWW3URQNRJ6U","assignmentId":"3M0NZ3JDP2K7BJ92ZFNMCMONNGE5ZP","hitId":"3FJ2RVH25ZSYKBA8MWMNC8NVPF629N","url":"https://gershmanlab.com/experiments/alicia/teaching/experiment/?hitId=3FJ2RVH25ZSYKBA8MWMNC8NVPF629N&workerId=AOWW3URQNRJ6U&assignmentId=3M0NZ3JDP2K7BJ92ZFNMCMONNGE5ZP&a=DZ0M7&tp_a=DZ0M7&b=3M0NZ3JDP2K7BJ92ZFNMCMONNGE5ZP&tp_b=3M0NZ3JDP2K7BJ92ZFNMCMONNGE5ZP&c=365717&tp_c=365717"},{"rt":null,"stimulus":"<div style=\"font-size:60px;\">Next student</div>","response":null,"trial_type":"html-keyboard-response","trial_index":57,"time_elapsed":550190,"internal_node_id":"0.0-44.0-0.0","params":{"nStudents":24,"maxFlips":30,"completionMinutes":45,"basePay":8,"maxBonus":9,"perTrialBonus":0.5,"perTrialBonusThreshold":0.05,"exampleCost":0.01},"classroomParams":{"A":{"a":1,"b":4},"B":{"a":4,"b":1},"C":{"a":2,"b":8},"D":{"a":8,"b":2}},"conditions":["nonSeqFull","nonSeqPartial","seqNoFeedback","seqFeedback"],"classroomPairings":[["A","B"],["C","D"]],"coinWeights":[0.2,0.5,0.8],"subjectId":"AOWW3URQNRJ6U","assignmentId":"3M0NZ3JDP2K7BJ92ZFNMCMONNGE5ZP","hitId":"3FJ2RVH25ZSYKBA8MWMNC8NVPF629N","url":"https://gershmanlab.com/experiments/alicia/teaching/experiment/?hitId=3FJ2RVH25ZSYKBA8MWMNC8NVPF629N&workerId=AOWW3URQNRJ6U&assignmentId=3M0NZ3JDP2K7BJ92ZFNMCMONNGE5ZP&a=DZ0M7&tp_a=DZ0M7&b=3M0NZ3JDP2K7BJ92ZFNMCMONNGE5ZP&tp_b=3M0NZ3JDP2K7BJ92ZFNMCMONNGE5ZP&c=365717&tp_c=365717"},{"rt":1662,"stimulus":"\n            <h4 style=\"color:Orange;\">Student 6</h4>\n            <h2>The weight of your coin is <b style=\"color:Tomato;\">0.5</b>.</h2>\n            <p>In this block, you will be giving <b>one</b> set of examples to Student 6.</p>\n                <p>You will receive feedback at the end of the block.</p>\n            <p></p>","response":0,"trial_type":"html-button-response","trial_index":58,"time_elapsed":551853,"internal_node_id":"0.0-45.0","params":{"nStudents":24,"maxFlips":30,"completionMinutes":45,"basePay":8,"maxBonus":9,"perTrialBonus":0.5,"perTrialBonusThreshold":0.05,"exampleCost":0.01},"classroomParams":{"A":{"a":1,"b":4},"B":{"a":4,"b":1},"C":{"a":2,"b":8},"D":{"a":8,"b":2}},"conditions":["nonSeqFull","nonSeqPartial","seqNoFeedback","seqFeedback"],"classroomPairings":[["A","B"],["C","D"]],"coinWeights":[0.2,0.5,0.8],"subjectId":"AOWW3URQNRJ6U","assignmentId":"3M0NZ3JDP2K7BJ92ZFNMCMONNGE5ZP","hitId":"3FJ2RVH25ZSYKBA8MWMNC8NVPF629N","url":"https://gershmanlab.com/experiments/alicia/teaching/experiment/?hitId=3FJ2RVH25ZSYKBA8MWMNC8NVPF629N&workerId=AOWW3URQNRJ6U&assignmentId=3M0NZ3JDP2K7BJ92ZFNMCMONNGE5ZP&a=DZ0M7&tp_a=DZ0M7&b=3M0NZ3JDP2K7BJ92ZFNMCMONNGE5ZP&tp_b=3M0NZ3JDP2K7BJ92ZFNMCMONNGE5ZP&c=365717&tp_c=365717"},{"rt":105938,"response":{"heads":"2","tails":"7"},"type":"response","condition":"nonSeqFull","trueTheta":0.5,"classrooms":["A","B"],"studentTrueClassroom":"B","exampleSet":"first","trial_type":"survey-html-form","trial_index":59,"time_elapsed":657792,"internal_node_id":"0.0-46.0-0.0","params":{"nStudents":24,"maxFlips":30,"completionMinutes":45,"basePay":8,"maxBonus":9,"perTrialBonus":0.5,"perTrialBonusThreshold":0.05,"exampleCost":0.01},"classroomParams":{"A":{"a":1,"b":4},"B":{"a":4,"b":1},"C":{"a":2,"b":8},"D":{"a":8,"b":2}},"conditions":["nonSeqFull","nonSeqPartial","seqNoFeedback","seqFeedback"],"classroomPairings":[["A","B"],["C","D"]],"coinWeights":[0.2,0.5,0.8],"subjectId":"AOWW3URQNRJ6U","assignmentId":"3M0NZ3JDP2K7BJ92ZFNMCMONNGE5ZP","hitId":"3FJ2RVH25ZSYKBA8MWMNC8NVPF629N","url":"https://gershmanlab.com/experiments/alicia/teaching/experiment/?hitId=3FJ2RVH25ZSYKBA8MWMNC8NVPF629N&workerId=AOWW3URQNRJ6U&assignmentId=3M0NZ3JDP2K7BJ92ZFNMCMONNGE5ZP&a=DZ0M7&tp_a=DZ0M7&b=3M0NZ3JDP2K7BJ92ZFNMCMONNGE5ZP&tp_b=3M0NZ3JDP2K7BJ92ZFNMCMONNGE5ZP&c=365717&tp_c=365717","heads":2,"tails":7,"studentIndex":5,"studentTrueHypers":{"a":4,"b":1},"studentGuess":0.42857142857142855,"delta":0.07142857142857145,"totalExamples":9,"bonus":0,"bonusSoFar":0.5},{"rt":null,"stimulus":"Sending examples to student... ","response":null,"trial_type":"html-keyboard-response","trial_index":60,"time_elapsed":659045,"internal_node_id":"0.0-47.0","params":{"nStudents":24,"maxFlips":30,"completionMinutes":45,"basePay":8,"maxBonus":9,"perTrialBonus":0.5,"perTrialBonusThreshold":0.05,"exampleCost":0.01},"classroomParams":{"A":{"a":1,"b":4},"B":{"a":4,"b":1},"C":{"a":2,"b":8},"D":{"a":8,"b":2}},"conditions":["nonSeqFull","nonSeqPartial","seqNoFeedback","seqFeedback"],"classroomPairings":[["A","B"],["C","D"]],"coinWeights":[0.2,0.5,0.8],"subjectId":"AOWW3URQNRJ6U","assignmentId":"3M0NZ3JDP2K7BJ92ZFNMCMONNGE5ZP","hitId":"3FJ2RVH25ZSYKBA8MWMNC8NVPF629N","url":"https://gershmanlab.com/experiments/alicia/teaching/experiment/?hitId=3FJ2RVH25ZSYKBA8MWMNC8NVPF629N&workerId=AOWW3URQNRJ6U&assignmentId=3M0NZ3JDP2K7BJ92ZFNMCMONNGE5ZP&a=DZ0M7&tp_a=DZ0M7&b=3M0NZ3JDP2K7BJ92ZFNMCMONNGE5ZP&tp_b=3M0NZ3JDP2K7BJ92ZFNMCMONNGE5ZP&c=365717&tp_c=365717"},{"rt":null,"stimulus":"Examples sent to student! Waiting for student...","response":null,"trial_type":"html-keyboard-response","trial_index":61,"time_elapsed":664764,"internal_node_id":"0.0-48.0","params":{"nStudents":24,"maxFlips":30,"completionMinutes":45,"basePay":8,"maxBonus":9,"perTrialBonus":0.5,"perTrialBonusThreshold":0.05,"exampleCost":0.01},"classroomParams":{"A":{"a":1,"b":4},"B":{"a":4,"b":1},"C":{"a":2,"b":8},"D":{"a":8,"b":2}},"conditions":["nonSeqFull","nonSeqPartial","seqNoFeedback","seqFeedback"],"classroomPairings":[["A","B"],["C","D"]],"coinWeights":[0.2,0.5,0.8],"subjectId":"AOWW3URQNRJ6U","assignmentId":"3M0NZ3JDP2K7BJ92ZFNMCMONNGE5ZP","hitId":"3FJ2RVH25ZSYKBA8MWMNC8NVPF629N","url":"https://gershmanlab.com/experiments/alicia/teaching/experiment/?hitId=3FJ2RVH25ZSYKBA8MWMNC8NVPF629N&workerId=AOWW3URQNRJ6U&assignmentId=3M0NZ3JDP2K7BJ92ZFNMCMONNGE5ZP&a=DZ0M7&tp_a=DZ0M7&b=3M0NZ3JDP2K7BJ92ZFNMCMONNGE5ZP&tp_b=3M0NZ3JDP2K7BJ92ZFNMCMONNGE5ZP&c=365717&tp_c=365717"},{"rt":13540,"stimulus":"\n                <p>Student's guess for coin weight: <b style=\"color:Tomato;\">0.43</b></p>\n                <p>You received a bonus of <b>$0</b>. Total bonus so far: <b>$0.50</b></b></p>\n                <p></p>\n                <p>Press any key to continue.</p>\n                ","response":"arrowleft","trial_type":"html-keyboard-response","trial_index":62,"time_elapsed":678306,"internal_node_id":"0.0-49.0","params":{"nStudents":24,"maxFlips":30,"completionMinutes":45,"basePay":8,"maxBonus":9,"perTrialBonus":0.5,"perTrialBonusThreshold":0.05,"exampleCost":0.01},"classroomParams":{"A":{"a":1,"b":4},"B":{"a":4,"b":1},"C":{"a":2,"b":8},"D":{"a":8,"b":2}},"conditions":["nonSeqFull","nonSeqPartial","seqNoFeedback","seqFeedback"],"classroomPairings":[["A","B"],["C","D"]],"coinWeights":[0.2,0.5,0.8],"subjectId":"AOWW3URQNRJ6U","assignmentId":"3M0NZ3JDP2K7BJ92ZFNMCMONNGE5ZP","hitId":"3FJ2RVH25ZSYKBA8MWMNC8NVPF629N","url":"https://gershmanlab.com/experiments/alicia/teaching/experiment/?hitId=3FJ2RVH25ZSYKBA8MWMNC8NVPF629N&workerId=AOWW3URQNRJ6U&assignmentId=3M0NZ3JDP2K7BJ92ZFNMCMONNGE5ZP&a=DZ0M7&tp_a=DZ0M7&b=3M0NZ3JDP2K7BJ92ZFNMCMONNGE5ZP&tp_b=3M0NZ3JDP2K7BJ92ZFNMCMONNGE5ZP&c=365717&tp_c=365717"},{"rt":null,"stimulus":"<div style=\"font-size:60px;\">Next student</div>","response":null,"trial_type":"html-keyboard-response","trial_index":63,"time_elapsed":680807,"internal_node_id":"0.0-50.0-0.0","params":{"nStudents":24,"maxFlips":30,"completionMinutes":45,"basePay":8,"maxBonus":9,"perTrialBonus":0.5,"perTrialBonusThreshold":0.05,"exampleCost":0.01},"classroomParams":{"A":{"a":1,"b":4},"B":{"a":4,"b":1},"C":{"a":2,"b":8},"D":{"a":8,"b":2}},"conditions":["nonSeqFull","nonSeqPartial","seqNoFeedback","seqFeedback"],"classroomPairings":[["A","B"],["C","D"]],"coinWeights":[0.2,0.5,0.8],"subjectId":"AOWW3URQNRJ6U","assignmentId":"3M0NZ3JDP2K7BJ92ZFNMCMONNGE5ZP","hitId":"3FJ2RVH25ZSYKBA8MWMNC8NVPF629N","url":"https://gershmanlab.com/experiments/alicia/teaching/experiment/?hitId=3FJ2RVH25ZSYKBA8MWMNC8NVPF629N&workerId=AOWW3URQNRJ6U&assignmentId=3M0NZ3JDP2K7BJ92ZFNMCMONNGE5ZP&a=DZ0M7&tp_a=DZ0M7&b=3M0NZ3JDP2K7BJ92ZFNMCMONNGE5ZP&tp_b=3M0NZ3JDP2K7BJ92ZFNMCMONNGE5ZP&c=365717&tp_c=365717"},{"rt":1202,"stimulus":"\n            <h4 style=\"color:Orange;\">Student 7</h4>\n            <h2>The weight of your coin is <b style=\"color:Tomato;\">0.8</b>.</h2>\n            <p>In this block, you will be giving <b>one</b> set of examples to Student 7.</p>\n                <p>You will receive feedback at the end of the block.</p>\n            <p></p>","response":0,"trial_type":"html-button-response","trial_index":64,"time_elapsed":682010,"internal_node_id":"0.0-51.0","params":{"nStudents":24,"maxFlips":30,"completionMinutes":45,"basePay":8,"maxBonus":9,"perTrialBonus":0.5,"perTrialBonusThreshold":0.05,"exampleCost":0.01},"classroomParams":{"A":{"a":1,"b":4},"B":{"a":4,"b":1},"C":{"a":2,"b":8},"D":{"a":8,"b":2}},"conditions":["nonSeqFull","nonSeqPartial","seqNoFeedback","seqFeedback"],"classroomPairings":[["A","B"],["C","D"]],"coinWeights":[0.2,0.5,0.8],"subjectId":"AOWW3URQNRJ6U","assignmentId":"3M0NZ3JDP2K7BJ92ZFNMCMONNGE5ZP","hitId":"3FJ2RVH25ZSYKBA8MWMNC8NVPF629N","url":"https://gershmanlab.com/experiments/alicia/teaching/experiment/?hitId=3FJ2RVH25ZSYKBA8MWMNC8NVPF629N&workerId=AOWW3URQNRJ6U&assignmentId=3M0NZ3JDP2K7BJ92ZFNMCMONNGE5ZP&a=DZ0M7&tp_a=DZ0M7&b=3M0NZ3JDP2K7BJ92ZFNMCMONNGE5ZP&tp_b=3M0NZ3JDP2K7BJ92ZFNMCMONNGE5ZP&c=365717&tp_c=365717"},{"rt":13039,"response":{"heads":"0","tails":"12"},"type":"response","condition":"nonSeqPartial","trueTheta":0.8,"classrooms":["C","D"],"studentTrueClassroom":"C","exampleSet":"first","trial_type":"survey-html-form","trial_index":65,"time_elapsed":695051,"internal_node_id":"0.0-52.0-0.0","params":{"nStudents":24,"maxFlips":30,"completionMinutes":45,"basePay":8,"maxBonus":9,"perTrialBonus":0.5,"perTrialBonusThreshold":0.05,"exampleCost":0.01},"classroomParams":{"A":{"a":1,"b":4},"B":{"a":4,"b":1},"C":{"a":2,"b":8},"D":{"a":8,"b":2}},"conditions":["nonSeqFull","nonSeqPartial","seqNoFeedback","seqFeedback"],"classroomPairings":[["A","B"],["C","D"]],"coinWeights":[0.2,0.5,0.8],"subjectId":"AOWW3URQNRJ6U","assignmentId":"3M0NZ3JDP2K7BJ92ZFNMCMONNGE5ZP","hitId":"3FJ2RVH25ZSYKBA8MWMNC8NVPF629N","url":"https://gershmanlab.com/experiments/alicia/teaching/experiment/?hitId=3FJ2RVH25ZSYKBA8MWMNC8NVPF629N&workerId=AOWW3URQNRJ6U&assignmentId=3M0NZ3JDP2K7BJ92ZFNMCMONNGE5ZP&a=DZ0M7&tp_a=DZ0M7&b=3M0NZ3JDP2K7BJ92ZFNMCMONNGE5ZP&tp_b=3M0NZ3JDP2K7BJ92ZFNMCMONNGE5ZP&c=365717&tp_c=365717","heads":0,"tails":12,"studentIndex":6,"studentTrueHypers":{"a":2,"b":8},"studentGuess":0.09090909090909091,"delta":0.7090909090909091,"totalExamples":12,"bonus":0,"bonusSoFar":0.5},{"rt":null,"stimulus":"Sending examples to student... ","response":null,"trial_type":"html-keyboard-response","trial_index":66,"time_elapsed":696303,"internal_node_id":"0.0-53.0","params":{"nStudents":24,"maxFlips":30,"completionMinutes":45,"basePay":8,"maxBonus":9,"perTrialBonus":0.5,"perTrialBonusThreshold":0.05,"exampleCost":0.01},"classroomParams":{"A":{"a":1,"b":4},"B":{"a":4,"b":1},"C":{"a":2,"b":8},"D":{"a":8,"b":2}},"conditions":["nonSeqFull","nonSeqPartial","seqNoFeedback","seqFeedback"],"classroomPairings":[["A","B"],["C","D"]],"coinWeights":[0.2,0.5,0.8],"subjectId":"AOWW3URQNRJ6U","assignmentId":"3M0NZ3JDP2K7BJ92ZFNMCMONNGE5ZP","hitId":"3FJ2RVH25ZSYKBA8MWMNC8NVPF629N","url":"https://gershmanlab.com/experiments/alicia/teaching/experiment/?hitId=3FJ2RVH25ZSYKBA8MWMNC8NVPF629N&workerId=AOWW3URQNRJ6U&assignmentId=3M0NZ3JDP2K7BJ92ZFNMCMONNGE5ZP&a=DZ0M7&tp_a=DZ0M7&b=3M0NZ3JDP2K7BJ92ZFNMCMONNGE5ZP&tp_b=3M0NZ3JDP2K7BJ92ZFNMCMONNGE5ZP&c=365717&tp_c=365717"},{"rt":null,"stimulus":"Examples sent to student! Waiting for student...","response":null,"trial_type":"html-keyboard-response","trial_index":67,"time_elapsed":700304,"internal_node_id":"0.0-54.0","params":{"nStudents":24,"maxFlips":30,"completionMinutes":45,"basePay":8,"maxBonus":9,"perTrialBonus":0.5,"perTrialBonusThreshold":0.05,"exampleCost":0.01},"classroomParams":{"A":{"a":1,"b":4},"B":{"a":4,"b":1},"C":{"a":2,"b":8},"D":{"a":8,"b":2}},"conditions":["nonSeqFull","nonSeqPartial","seqNoFeedback","seqFeedback"],"classroomPairings":[["A","B"],["C","D"]],"coinWeights":[0.2,0.5,0.8],"subjectId":"AOWW3URQNRJ6U","assignmentId":"3M0NZ3JDP2K7BJ92ZFNMCMONNGE5ZP","hitId":"3FJ2RVH25ZSYKBA8MWMNC8NVPF629N","url":"https://gershmanlab.com/experiments/alicia/teaching/experiment/?hitId=3FJ2RVH25ZSYKBA8MWMNC8NVPF629N&workerId=AOWW3URQNRJ6U&assignmentId=3M0NZ3JDP2K7BJ92ZFNMCMONNGE5ZP&a=DZ0M7&tp_a=DZ0M7&b=3M0NZ3JDP2K7BJ92ZFNMCMONNGE5ZP&tp_b=3M0NZ3JDP2K7BJ92ZFNMCMONNGE5ZP&c=365717&tp_c=365717"},{"rt":2063,"stimulus":"\n                <p>Student's guess for coin weight: <b style=\"color:Tomato;\">0.09</b></p>\n                <p>You received a bonus of <b>$0</b>. Total bonus so far: <b>$0.50</b></b></p>\n                <p></p>\n                <p>Press any key to continue.</p>\n                ","response":"arrowright","trial_type":"html-keyboard-response","trial_index":68,"time_elapsed":702368,"internal_node_id":"0.0-55.0","params":{"nStudents":24,"maxFlips":30,"completionMinutes":45,"basePay":8,"maxBonus":9,"perTrialBonus":0.5,"perTrialBonusThreshold":0.05,"exampleCost":0.01},"classroomParams":{"A":{"a":1,"b":4},"B":{"a":4,"b":1},"C":{"a":2,"b":8},"D":{"a":8,"b":2}},"conditions":["nonSeqFull","nonSeqPartial","seqNoFeedback","seqFeedback"],"classroomPairings":[["A","B"],["C","D"]],"coinWeights":[0.2,0.5,0.8],"subjectId":"AOWW3URQNRJ6U","assignmentId":"3M0NZ3JDP2K7BJ92ZFNMCMONNGE5ZP","hitId":"3FJ2RVH25ZSYKBA8MWMNC8NVPF629N","url":"https://gershmanlab.com/experiments/alicia/teaching/experiment/?hitId=3FJ2RVH25ZSYKBA8MWMNC8NVPF629N&workerId=AOWW3URQNRJ6U&assignmentId=3M0NZ3JDP2K7BJ92ZFNMCMONNGE5ZP&a=DZ0M7&tp_a=DZ0M7&b=3M0NZ3JDP2K7BJ92ZFNMCMONNGE5ZP&tp_b=3M0NZ3JDP2K7BJ92ZFNMCMONNGE5ZP&c=365717&tp_c=365717"},{"rt":null,"stimulus":"<div style=\"font-size:60px;\">Next student</div>","response":null,"trial_type":"html-keyboard-response","trial_index":69,"time_elapsed":704620,"internal_node_id":"0.0-56.0-0.0","params":{"nStudents":24,"maxFlips":30,"completionMinutes":45,"basePay":8,"maxBonus":9,"perTrialBonus":0.5,"perTrialBonusThreshold":0.05,"exampleCost":0.01},"classroomParams":{"A":{"a":1,"b":4},"B":{"a":4,"b":1},"C":{"a":2,"b":8},"D":{"a":8,"b":2}},"conditions":["nonSeqFull","nonSeqPartial","seqNoFeedback","seqFeedback"],"classroomPairings":[["A","B"],["C","D"]],"coinWeights":[0.2,0.5,0.8],"subjectId":"AOWW3URQNRJ6U","assignmentId":"3M0NZ3JDP2K7BJ92ZFNMCMONNGE5ZP","hitId":"3FJ2RVH25ZSYKBA8MWMNC8NVPF629N","url":"https://gershmanlab.com/experiments/alicia/teaching/experiment/?hitId=3FJ2RVH25ZSYKBA8MWMNC8NVPF629N&workerId=AOWW3URQNRJ6U&assignmentId=3M0NZ3JDP2K7BJ92ZFNMCMONNGE5ZP&a=DZ0M7&tp_a=DZ0M7&b=3M0NZ3JDP2K7BJ92ZFNMCMONNGE5ZP&tp_b=3M0NZ3JDP2K7BJ92ZFNMCMONNGE5ZP&c=365717&tp_c=365717"},{"rt":1973,"stimulus":"\n            <h4 style=\"color:Orange;\">Student 8</h4>\n            <h2>The weight of your coin is <b style=\"color:Tomato;\">0.8</b>.</h2>\n            <p>In this block, you will be giving <b>one</b> set of examples to Student 8.</p>\n                <p>You will receive feedback at the end of the block.</p>\n            <p></p>","response":0,"trial_type":"html-button-response","trial_index":70,"time_elapsed":706594,"internal_node_id":"0.0-57.0","params":{"nStudents":24,"maxFlips":30,"completionMinutes":45,"basePay":8,"maxBonus":9,"perTrialBonus":0.5,"perTrialBonusThreshold":0.05,"exampleCost":0.01},"classroomParams":{"A":{"a":1,"b":4},"B":{"a":4,"b":1},"C":{"a":2,"b":8},"D":{"a":8,"b":2}},"conditions":["nonSeqFull","nonSeqPartial","seqNoFeedback","seqFeedback"],"classroomPairings":[["A","B"],["C","D"]],"coinWeights":[0.2,0.5,0.8],"subjectId":"AOWW3URQNRJ6U","assignmentId":"3M0NZ3JDP2K7BJ92ZFNMCMONNGE5ZP","hitId":"3FJ2RVH25ZSYKBA8MWMNC8NVPF629N","url":"https://gershmanlab.com/experiments/alicia/teaching/experiment/?hitId=3FJ2RVH25ZSYKBA8MWMNC8NVPF629N&workerId=AOWW3URQNRJ6U&assignmentId=3M0NZ3JDP2K7BJ92ZFNMCMONNGE5ZP&a=DZ0M7&tp_a=DZ0M7&b=3M0NZ3JDP2K7BJ92ZFNMCMONNGE5ZP&tp_b=3M0NZ3JDP2K7BJ92ZFNMCMONNGE5ZP&c=365717&tp_c=365717"},{"rt":5955,"response":{"heads":"13","tails":"0"},"type":"response","condition":"nonSeqPartial","trueTheta":0.8,"classrooms":["A","B"],"studentTrueClassroom":"A","exampleSet":"first","trial_type":"survey-html-form","trial_index":71,"time_elapsed":712550,"internal_node_id":"0.0-58.0-0.0","params":{"nStudents":24,"maxFlips":30,"completionMinutes":45,"basePay":8,"maxBonus":9,"perTrialBonus":0.5,"perTrialBonusThreshold":0.05,"exampleCost":0.01},"classroomParams":{"A":{"a":1,"b":4},"B":{"a":4,"b":1},"C":{"a":2,"b":8},"D":{"a":8,"b":2}},"conditions":["nonSeqFull","nonSeqPartial","seqNoFeedback","seqFeedback"],"classroomPairings":[["A","B"],["C","D"]],"coinWeights":[0.2,0.5,0.8],"subjectId":"AOWW3URQNRJ6U","assignmentId":"3M0NZ3JDP2K7BJ92ZFNMCMONNGE5ZP","hitId":"3FJ2RVH25ZSYKBA8MWMNC8NVPF629N","url":"https://gershmanlab.com/experiments/alicia/teaching/experiment/?hitId=3FJ2RVH25ZSYKBA8MWMNC8NVPF629N&workerId=AOWW3URQNRJ6U&assignmentId=3M0NZ3JDP2K7BJ92ZFNMCMONNGE5ZP&a=DZ0M7&tp_a=DZ0M7&b=3M0NZ3JDP2K7BJ92ZFNMCMONNGE5ZP&tp_b=3M0NZ3JDP2K7BJ92ZFNMCMONNGE5ZP&c=365717&tp_c=365717","heads":13,"tails":0,"studentIndex":7,"studentTrueHypers":{"a":1,"b":4},"studentGuess":0.7777777777777778,"delta":0.022222222222222254,"totalExamples":13,"bonus":0.37,"bonusSoFar":0.87},{"rt":null,"stimulus":"Sending examples to student... ","response":null,"trial_type":"html-keyboard-response","trial_index":72,"time_elapsed":714552,"internal_node_id":"0.0-59.0","params":{"nStudents":24,"maxFlips":30,"completionMinutes":45,"basePay":8,"maxBonus":9,"perTrialBonus":0.5,"perTrialBonusThreshold":0.05,"exampleCost":0.01},"classroomParams":{"A":{"a":1,"b":4},"B":{"a":4,"b":1},"C":{"a":2,"b":8},"D":{"a":8,"b":2}},"conditions":["nonSeqFull","nonSeqPartial","seqNoFeedback","seqFeedback"],"classroomPairings":[["A","B"],["C","D"]],"coinWeights":[0.2,0.5,0.8],"subjectId":"AOWW3URQNRJ6U","assignmentId":"3M0NZ3JDP2K7BJ92ZFNMCMONNGE5ZP","hitId":"3FJ2RVH25ZSYKBA8MWMNC8NVPF629N","url":"https://gershmanlab.com/experiments/alicia/teaching/experiment/?hitId=3FJ2RVH25ZSYKBA8MWMNC8NVPF629N&workerId=AOWW3URQNRJ6U&assignmentId=3M0NZ3JDP2K7BJ92ZFNMCMONNGE5ZP&a=DZ0M7&tp_a=DZ0M7&b=3M0NZ3JDP2K7BJ92ZFNMCMONNGE5ZP&tp_b=3M0NZ3JDP2K7BJ92ZFNMCMONNGE5ZP&c=365717&tp_c=365717"},{"rt":null,"stimulus":"Examples sent to student! Waiting for student...","response":null,"trial_type":"html-keyboard-response","trial_index":73,"time_elapsed":720055,"internal_node_id":"0.0-60.0","params":{"nStudents":24,"maxFlips":30,"completionMinutes":45,"basePay":8,"maxBonus":9,"perTrialBonus":0.5,"perTrialBonusThreshold":0.05,"exampleCost":0.01},"classroomParams":{"A":{"a":1,"b":4},"B":{"a":4,"b":1},"C":{"a":2,"b":8},"D":{"a":8,"b":2}},"conditions":["nonSeqFull","nonSeqPartial","seqNoFeedback","seqFeedback"],"classroomPairings":[["A","B"],["C","D"]],"coinWeights":[0.2,0.5,0.8],"subjectId":"AOWW3URQNRJ6U","assignmentId":"3M0NZ3JDP2K7BJ92ZFNMCMONNGE5ZP","hitId":"3FJ2RVH25ZSYKBA8MWMNC8NVPF629N","url":"https://gershmanlab.com/experiments/alicia/teaching/experiment/?hitId=3FJ2RVH25ZSYKBA8MWMNC8NVPF629N&workerId=AOWW3URQNRJ6U&assignmentId=3M0NZ3JDP2K7BJ92ZFNMCMONNGE5ZP&a=DZ0M7&tp_a=DZ0M7&b=3M0NZ3JDP2K7BJ92ZFNMCMONNGE5ZP&tp_b=3M0NZ3JDP2K7BJ92ZFNMCMONNGE5ZP&c=365717&tp_c=365717"},{"rt":3454,"stimulus":"\n                <p>Student's guess for coin weight: <b style=\"color:Tomato;\">0.78</b></p>\n                <p>You received a bonus of <b>$0.37</b>. Total bonus so far: <b>$0.87</b></b></p>\n                <p></p>\n                <p>Press any key to continue.</p>\n                ","response":"arrowleft","trial_type":"html-keyboard-response","trial_index":74,"time_elapsed":723509,"internal_node_id":"0.0-61.0","params":{"nStudents":24,"maxFlips":30,"completionMinutes":45,"basePay":8,"maxBonus":9,"perTrialBonus":0.5,"perTrialBonusThreshold":0.05,"exampleCost":0.01},"classroomParams":{"A":{"a":1,"b":4},"B":{"a":4,"b":1},"C":{"a":2,"b":8},"D":{"a":8,"b":2}},"conditions":["nonSeqFull","nonSeqPartial","seqNoFeedback","seqFeedback"],"classroomPairings":[["A","B"],["C","D"]],"coinWeights":[0.2,0.5,0.8],"subjectId":"AOWW3URQNRJ6U","assignmentId":"3M0NZ3JDP2K7BJ92ZFNMCMONNGE5ZP","hitId":"3FJ2RVH25ZSYKBA8MWMNC8NVPF629N","url":"https://gershmanlab.com/experiments/alicia/teaching/experiment/?hitId=3FJ2RVH25ZSYKBA8MWMNC8NVPF629N&workerId=AOWW3URQNRJ6U&assignmentId=3M0NZ3JDP2K7BJ92ZFNMCMONNGE5ZP&a=DZ0M7&tp_a=DZ0M7&b=3M0NZ3JDP2K7BJ92ZFNMCMONNGE5ZP&tp_b=3M0NZ3JDP2K7BJ92ZFNMCMONNGE5ZP&c=365717&tp_c=365717"},{"rt":null,"stimulus":"<div style=\"font-size:60px;\">Next student</div>","response":null,"trial_type":"html-keyboard-response","trial_index":75,"time_elapsed":726011,"internal_node_id":"0.0-62.0-0.0","params":{"nStudents":24,"maxFlips":30,"completionMinutes":45,"basePay":8,"maxBonus":9,"perTrialBonus":0.5,"perTrialBonusThreshold":0.05,"exampleCost":0.01},"classroomParams":{"A":{"a":1,"b":4},"B":{"a":4,"b":1},"C":{"a":2,"b":8},"D":{"a":8,"b":2}},"conditions":["nonSeqFull","nonSeqPartial","seqNoFeedback","seqFeedback"],"classroomPairings":[["A","B"],["C","D"]],"coinWeights":[0.2,0.5,0.8],"subjectId":"AOWW3URQNRJ6U","assignmentId":"3M0NZ3JDP2K7BJ92ZFNMCMONNGE5ZP","hitId":"3FJ2RVH25ZSYKBA8MWMNC8NVPF629N","url":"https://gershmanlab.com/experiments/alicia/teaching/experiment/?hitId=3FJ2RVH25ZSYKBA8MWMNC8NVPF629N&workerId=AOWW3URQNRJ6U&assignmentId=3M0NZ3JDP2K7BJ92ZFNMCMONNGE5ZP&a=DZ0M7&tp_a=DZ0M7&b=3M0NZ3JDP2K7BJ92ZFNMCMONNGE5ZP&tp_b=3M0NZ3JDP2K7BJ92ZFNMCMONNGE5ZP&c=365717&tp_c=365717"},{"rt":2600,"stimulus":"\n            <h4 style=\"color:Orange;\">Student 9</h4>\n            <h2>The weight of your coin is <b style=\"color:Tomato;\">0.2</b>.</h2>\n            <p>In this block, you will be giving <b>two</b> sets of examples to Student 9.</p>\n                <p>You will see the student's guess after the first set of examples. You will also receive feedback at the end of the block.</p>\n            <p>To earn the highest bonus, you will have to <b>take into consideration the student's guess</b> when you choose your second set of examples.</p>","response":0,"trial_type":"html-button-response","trial_index":76,"time_elapsed":728613,"internal_node_id":"0.0-63.0","params":{"nStudents":24,"maxFlips":30,"completionMinutes":45,"basePay":8,"maxBonus":9,"perTrialBonus":0.5,"perTrialBonusThreshold":0.05,"exampleCost":0.01},"classroomParams":{"A":{"a":1,"b":4},"B":{"a":4,"b":1},"C":{"a":2,"b":8},"D":{"a":8,"b":2}},"conditions":["nonSeqFull","nonSeqPartial","seqNoFeedback","seqFeedback"],"classroomPairings":[["A","B"],["C","D"]],"coinWeights":[0.2,0.5,0.8],"subjectId":"AOWW3URQNRJ6U","assignmentId":"3M0NZ3JDP2K7BJ92ZFNMCMONNGE5ZP","hitId":"3FJ2RVH25ZSYKBA8MWMNC8NVPF629N","url":"https://gershmanlab.com/experiments/alicia/teaching/experiment/?hitId=3FJ2RVH25ZSYKBA8MWMNC8NVPF629N&workerId=AOWW3URQNRJ6U&assignmentId=3M0NZ3JDP2K7BJ92ZFNMCMONNGE5ZP&a=DZ0M7&tp_a=DZ0M7&b=3M0NZ3JDP2K7BJ92ZFNMCMONNGE5ZP&tp_b=3M0NZ3JDP2K7BJ92ZFNMCMONNGE5ZP&c=365717&tp_c=365717"},{"rt":5944,"response":{"heads":"0","tails":"13"},"type":"response","condition":"seqFeedback","trueTheta":0.2,"classrooms":["C","D"],"studentTrueClassroom":"D","exampleSet":"first","trial_type":"survey-html-form","trial_index":77,"time_elapsed":734557,"internal_node_id":"0.0-64.0-0.0","params":{"nStudents":24,"maxFlips":30,"completionMinutes":45,"basePay":8,"maxBonus":9,"perTrialBonus":0.5,"perTrialBonusThreshold":0.05,"exampleCost":0.01},"classroomParams":{"A":{"a":1,"b":4},"B":{"a":4,"b":1},"C":{"a":2,"b":8},"D":{"a":8,"b":2}},"conditions":["nonSeqFull","nonSeqPartial","seqNoFeedback","seqFeedback"],"classroomPairings":[["A","B"],["C","D"]],"coinWeights":[0.2,0.5,0.8],"subjectId":"AOWW3URQNRJ6U","assignmentId":"3M0NZ3JDP2K7BJ92ZFNMCMONNGE5ZP","hitId":"3FJ2RVH25ZSYKBA8MWMNC8NVPF629N","url":"https://gershmanlab.com/experiments/alicia/teaching/experiment/?hitId=3FJ2RVH25ZSYKBA8MWMNC8NVPF629N&workerId=AOWW3URQNRJ6U&assignmentId=3M0NZ3JDP2K7BJ92ZFNMCMONNGE5ZP&a=DZ0M7&tp_a=DZ0M7&b=3M0NZ3JDP2K7BJ92ZFNMCMONNGE5ZP&tp_b=3M0NZ3JDP2K7BJ92ZFNMCMONNGE5ZP&c=365717&tp_c=365717","heads":0,"tails":13,"studentIndex":8,"studentTrueHypers":{"a":8,"b":2},"studentGuess":0.34782608695652173,"delta":0.14782608695652172,"totalExamples":13,"bonusSoFar":0.87},{"rt":null,"stimulus":"Sending examples to student... ","response":null,"trial_type":"html-keyboard-response","trial_index":78,"time_elapsed":736560,"internal_node_id":"0.0-65.0","params":{"nStudents":24,"maxFlips":30,"completionMinutes":45,"basePay":8,"maxBonus":9,"perTrialBonus":0.5,"perTrialBonusThreshold":0.05,"exampleCost":0.01},"classroomParams":{"A":{"a":1,"b":4},"B":{"a":4,"b":1},"C":{"a":2,"b":8},"D":{"a":8,"b":2}},"conditions":["nonSeqFull","nonSeqPartial","seqNoFeedback","seqFeedback"],"classroomPairings":[["A","B"],["C","D"]],"coinWeights":[0.2,0.5,0.8],"subjectId":"AOWW3URQNRJ6U","assignmentId":"3M0NZ3JDP2K7BJ92ZFNMCMONNGE5ZP","hitId":"3FJ2RVH25ZSYKBA8MWMNC8NVPF629N","url":"https://gershmanlab.com/experiments/alicia/teaching/experiment/?hitId=3FJ2RVH25ZSYKBA8MWMNC8NVPF629N&workerId=AOWW3URQNRJ6U&assignmentId=3M0NZ3JDP2K7BJ92ZFNMCMONNGE5ZP&a=DZ0M7&tp_a=DZ0M7&b=3M0NZ3JDP2K7BJ92ZFNMCMONNGE5ZP&tp_b=3M0NZ3JDP2K7BJ92ZFNMCMONNGE5ZP&c=365717&tp_c=365717"},{"rt":null,"stimulus":"Examples sent to student! Waiting for student...","response":null,"trial_type":"html-keyboard-response","trial_index":79,"time_elapsed":741061,"internal_node_id":"0.0-66.0","params":{"nStudents":24,"maxFlips":30,"completionMinutes":45,"basePay":8,"maxBonus":9,"perTrialBonus":0.5,"perTrialBonusThreshold":0.05,"exampleCost":0.01},"classroomParams":{"A":{"a":1,"b":4},"B":{"a":4,"b":1},"C":{"a":2,"b":8},"D":{"a":8,"b":2}},"conditions":["nonSeqFull","nonSeqPartial","seqNoFeedback","seqFeedback"],"classroomPairings":[["A","B"],["C","D"]],"coinWeights":[0.2,0.5,0.8],"subjectId":"AOWW3URQNRJ6U","assignmentId":"3M0NZ3JDP2K7BJ92ZFNMCMONNGE5ZP","hitId":"3FJ2RVH25ZSYKBA8MWMNC8NVPF629N","url":"https://gershmanlab.com/experiments/alicia/teaching/experiment/?hitId=3FJ2RVH25ZSYKBA8MWMNC8NVPF629N&workerId=AOWW3URQNRJ6U&assignmentId=3M0NZ3JDP2K7BJ92ZFNMCMONNGE5ZP&a=DZ0M7&tp_a=DZ0M7&b=3M0NZ3JDP2K7BJ92ZFNMCMONNGE5ZP&tp_b=3M0NZ3JDP2K7BJ92ZFNMCMONNGE5ZP&c=365717&tp_c=365717"},{"rt":3639,"stimulus":"\n                <p>Student's guess for coin weight: <b style=\"color:Tomato;\">0.35</b></p>\n                <p></b></p>\n                <p>You will now send another set of examples to your student. <b>Remember to take your student's guess into consideration so that you can earn the highest bonus possible!</b> </p>\n                <p>Press any key to continue.</p>\n                ","response":"arrowleft","trial_type":"html-keyboard-response","trial_index":80,"time_elapsed":744701,"internal_node_id":"0.0-67.0","params":{"nStudents":24,"maxFlips":30,"completionMinutes":45,"basePay":8,"maxBonus":9,"perTrialBonus":0.5,"perTrialBonusThreshold":0.05,"exampleCost":0.01},"classroomParams":{"A":{"a":1,"b":4},"B":{"a":4,"b":1},"C":{"a":2,"b":8},"D":{"a":8,"b":2}},"conditions":["nonSeqFull","nonSeqPartial","seqNoFeedback","seqFeedback"],"classroomPairings":[["A","B"],["C","D"]],"coinWeights":[0.2,0.5,0.8],"subjectId":"AOWW3URQNRJ6U","assignmentId":"3M0NZ3JDP2K7BJ92ZFNMCMONNGE5ZP","hitId":"3FJ2RVH25ZSYKBA8MWMNC8NVPF629N","url":"https://gershmanlab.com/experiments/alicia/teaching/experiment/?hitId=3FJ2RVH25ZSYKBA8MWMNC8NVPF629N&workerId=AOWW3URQNRJ6U&assignmentId=3M0NZ3JDP2K7BJ92ZFNMCMONNGE5ZP&a=DZ0M7&tp_a=DZ0M7&b=3M0NZ3JDP2K7BJ92ZFNMCMONNGE5ZP&tp_b=3M0NZ3JDP2K7BJ92ZFNMCMONNGE5ZP&c=365717&tp_c=365717"},{"rt":4069,"response":{"heads":"0","tails":"14"},"type":"response","condition":"seqFeedback","trueTheta":0.2,"classrooms":["C","D"],"studentTrueClassroom":"D","exampleSet":"second","trial_type":"survey-html-form","trial_index":81,"time_elapsed":748771,"internal_node_id":"0.0-68.0-0.0","params":{"nStudents":24,"maxFlips":30,"completionMinutes":45,"basePay":8,"maxBonus":9,"perTrialBonus":0.5,"perTrialBonusThreshold":0.05,"exampleCost":0.01},"classroomParams":{"A":{"a":1,"b":4},"B":{"a":4,"b":1},"C":{"a":2,"b":8},"D":{"a":8,"b":2}},"conditions":["nonSeqFull","nonSeqPartial","seqNoFeedback","seqFeedback"],"classroomPairings":[["A","B"],["C","D"]],"coinWeights":[0.2,0.5,0.8],"subjectId":"AOWW3URQNRJ6U","assignmentId":"3M0NZ3JDP2K7BJ92ZFNMCMONNGE5ZP","hitId":"3FJ2RVH25ZSYKBA8MWMNC8NVPF629N","url":"https://gershmanlab.com/experiments/alicia/teaching/experiment/?hitId=3FJ2RVH25ZSYKBA8MWMNC8NVPF629N&workerId=AOWW3URQNRJ6U&assignmentId=3M0NZ3JDP2K7BJ92ZFNMCMONNGE5ZP&a=DZ0M7&tp_a=DZ0M7&b=3M0NZ3JDP2K7BJ92ZFNMCMONNGE5ZP&tp_b=3M0NZ3JDP2K7BJ92ZFNMCMONNGE5ZP&c=365717&tp_c=365717","firstResponseHeads":0,"firstResponseTails":13,"secondResponseHeads":0,"secondResponseTails":14,"totalHeads":0,"totalTails":27,"studentIndex":8,"studentTrueHypers":{"a":8,"b":2},"studentGuess":0.21621621621621623,"delta":0.016216216216216217,"bonus":0.23,"bonusSoFar":1.1,"totalExamples":27},{"rt":null,"stimulus":"Sending examples to student... ","response":null,"trial_type":"html-keyboard-response","trial_index":82,"time_elapsed":750274,"internal_node_id":"0.0-69.0","params":{"nStudents":24,"maxFlips":30,"completionMinutes":45,"basePay":8,"maxBonus":9,"perTrialBonus":0.5,"perTrialBonusThreshold":0.05,"exampleCost":0.01},"classroomParams":{"A":{"a":1,"b":4},"B":{"a":4,"b":1},"C":{"a":2,"b":8},"D":{"a":8,"b":2}},"conditions":["nonSeqFull","nonSeqPartial","seqNoFeedback","seqFeedback"],"classroomPairings":[["A","B"],["C","D"]],"coinWeights":[0.2,0.5,0.8],"subjectId":"AOWW3URQNRJ6U","assignmentId":"3M0NZ3JDP2K7BJ92ZFNMCMONNGE5ZP","hitId":"3FJ2RVH25ZSYKBA8MWMNC8NVPF629N","url":"https://gershmanlab.com/experiments/alicia/teaching/experiment/?hitId=3FJ2RVH25ZSYKBA8MWMNC8NVPF629N&workerId=AOWW3URQNRJ6U&assignmentId=3M0NZ3JDP2K7BJ92ZFNMCMONNGE5ZP&a=DZ0M7&tp_a=DZ0M7&b=3M0NZ3JDP2K7BJ92ZFNMCMONNGE5ZP&tp_b=3M0NZ3JDP2K7BJ92ZFNMCMONNGE5ZP&c=365717&tp_c=365717"},{"rt":null,"stimulus":"Examples sent to student! Waiting for student...","response":null,"trial_type":"html-keyboard-response","trial_index":83,"time_elapsed":755276,"internal_node_id":"0.0-70.0","params":{"nStudents":24,"maxFlips":30,"completionMinutes":45,"basePay":8,"maxBonus":9,"perTrialBonus":0.5,"perTrialBonusThreshold":0.05,"exampleCost":0.01},"classroomParams":{"A":{"a":1,"b":4},"B":{"a":4,"b":1},"C":{"a":2,"b":8},"D":{"a":8,"b":2}},"conditions":["nonSeqFull","nonSeqPartial","seqNoFeedback","seqFeedback"],"classroomPairings":[["A","B"],["C","D"]],"coinWeights":[0.2,0.5,0.8],"subjectId":"AOWW3URQNRJ6U","assignmentId":"3M0NZ3JDP2K7BJ92ZFNMCMONNGE5ZP","hitId":"3FJ2RVH25ZSYKBA8MWMNC8NVPF629N","url":"https://gershmanlab.com/experiments/alicia/teaching/experiment/?hitId=3FJ2RVH25ZSYKBA8MWMNC8NVPF629N&workerId=AOWW3URQNRJ6U&assignmentId=3M0NZ3JDP2K7BJ92ZFNMCMONNGE5ZP&a=DZ0M7&tp_a=DZ0M7&b=3M0NZ3JDP2K7BJ92ZFNMCMONNGE5ZP&tp_b=3M0NZ3JDP2K7BJ92ZFNMCMONNGE5ZP&c=365717&tp_c=365717"},{"rt":2539,"stimulus":"\n                <p>Student 9's first guess for coin weight: <b style=\"color:Tomato\";>0.35</b></p>\n                <p>Student 9's second guess for coin weight: <b style=\"color:Tomato\";>0.22</b></p>\n                <p>You received a bonus of <b>$0.23</b> based on the student's second guess.</p>\n                <p>Total bonus so far: <b>$1.10</b></p>\n                <p>Press any key to continue.</p>\n                ","response":"arrowdown","trial_type":"html-keyboard-response","trial_index":84,"time_elapsed":757816,"internal_node_id":"0.0-71.0","params":{"nStudents":24,"maxFlips":30,"completionM