[{"rt":3623,"stimulus":"Welcome to the experiment. Press any key to begin.","response":"k","trial_type":"html-keyboard-response","trial_index":0,"time_elapsed":3630,"internal_node_id":"0.0-0.0","params":{"nStudents":24,"maxFlips":30,"completionMinutes":45,"basePay":8,"maxBonus":9,"perTrialBonus":0.5,"perTrialBonusThreshold":0.05,"exampleCost":0.01},"classroomParams":{"A":{"a":1,"b":4},"B":{"a":4,"b":1},"C":{"a":2,"b":8},"D":{"a":8,"b":2}},"conditions":["nonSeqFull","nonSeqPartial","seqNoFeedback","seqFeedback"],"classroomPairings":[["A","B"],["C","D"]],"coinWeights":[0.2,0.5,0.8],"subjectId":"ARYL3C6N9SVV1","assignmentId":"3N1FSUEFL6MMCZ06TSFFG2Z6Z3TD4F","hitId":"3UDTAB6HH6LRO17U79I9TKUGSHV90J","url":"https://gershmanlab.com/experiments/alicia/teaching/experiment/?hitId=3UDTAB6HH6LRO17U79I9TKUGSHV90J&workerId=ARYL3C6N9SVV1&assignmentId=3N1FSUEFL6MMCZ06TSFFG2Z6Z3TD4F&a=FS1N9&tp_a=FS1N9&b=3N1FSUEFL6MMCZ06TSFFG2Z6Z3TD4F&tp_b=3N1FSUEFL6MMCZ06TSFFG2Z6Z3TD4F&c=365799&tp_c=365799"},{"rt":43616,"stimulus":"\n        <h3>Please read this consent agreement carefully before deciding whether to participate in this experiment.</h3>\n        <p><b>Purpose of the research:</b> To examine how people teach effectively.</p>\n        <p><b>What you will do in this research:</b> You will teach students the weights of different coins.</p>\n        <p><b>Time required:</b> This experiment will take 45 minutes to complete.</p>\n        <p><b>Risks:</b> There are no anticipated risks associated with participating in this study.             The effects of participating should be comparable to those you would experience from viewing a computer monitor             and using a mouse and keyboard for the duration of the experiment.</p>\n        <p><b>Benefits:</b> The study provides important information about the nature of teaching.</p>\n        <p><b>Compensation:</b> You will receive <b>$8</b> for completing the experiment and a performance bonus of up to <b>$9</b>.</p>\n        <p><b>Confidentiality:</b> Your participation in this study will remain confidential.             No personally identifiable information will be associated with your data.             Your de-identified data may be shared with other researchers and used in future projects.</p>\n        <p><b>Participation and withdrawal:</b> Your participation in this study is completely voluntary and             you may refuse to participate or you may choose to withdraw at any time without penalty or loss of\n            benefits to which you are otherwise entitled.</p>\n        <p><b>How to contact the researcher:</b> If you have questions or concerns about your participation            or payment, or want to request a summary of research findings, please contact\n            Alicia Chen, aliciachen@college.harvard.edu.</p>\n        <p><b>Whom to contact about your rights in this research:</b> For questions, concerns, suggestions,             or complaints that have not been or cannot be addressed by the researcher, or to report             research-related harm, please contact the Committee on the Use of Human Subjects in Research at Harvard University,             1414 Massachusetts Avenue, Second Floor, Cambridge, MA 02138. Phone: 617-496-2847. Email: cuhs@fas.harvard.edu.</p>\n        ","response":0,"trial_type":"html-button-response","trial_index":1,"time_elapsed":47254,"internal_node_id":"0.0-1.0","params":{"nStudents":24,"maxFlips":30,"completionMinutes":45,"basePay":8,"maxBonus":9,"perTrialBonus":0.5,"perTrialBonusThreshold":0.05,"exampleCost":0.01},"classroomParams":{"A":{"a":1,"b":4},"B":{"a":4,"b":1},"C":{"a":2,"b":8},"D":{"a":8,"b":2}},"conditions":["nonSeqFull","nonSeqPartial","seqNoFeedback","seqFeedback"],"classroomPairings":[["A","B"],["C","D"]],"coinWeights":[0.2,0.5,0.8],"subjectId":"ARYL3C6N9SVV1","assignmentId":"3N1FSUEFL6MMCZ06TSFFG2Z6Z3TD4F","hitId":"3UDTAB6HH6LRO17U79I9TKUGSHV90J","url":"https://gershmanlab.com/experiments/alicia/teaching/experiment/?hitId=3UDTAB6HH6LRO17U79I9TKUGSHV90J&workerId=ARYL3C6N9SVV1&assignmentId=3N1FSUEFL6MMCZ06TSFFG2Z6Z3TD4F&a=FS1N9&tp_a=FS1N9&b=3N1FSUEFL6MMCZ06TSFFG2Z6Z3TD4F&tp_b=3N1FSUEFL6MMCZ06TSFFG2Z6Z3TD4F&c=365799&tp_c=365799"},{"view_history":[{"page_index":0,"viewing_time":6109},{"page_index":1,"viewing_time":20190},{"page_index":2,"viewing_time":55380},{"page_index":3,"viewing_time":48541},{"page_index":4,"viewing_time":39132},{"page_index":5,"viewing_time":51082},{"page_index":6,"viewing_time":122821}],"rt":343255,"trial_type":"instructions","trial_index":2,"time_elapsed":390499,"internal_node_id":"0.0-2.0-0.0","params":{"nStudents":24,"maxFlips":30,"completionMinutes":45,"basePay":8,"maxBonus":9,"perTrialBonus":0.5,"perTrialBonusThreshold":0.05,"exampleCost":0.01},"classroomParams":{"A":{"a":1,"b":4},"B":{"a":4,"b":1},"C":{"a":2,"b":8},"D":{"a":8,"b":2}},"conditions":["nonSeqFull","nonSeqPartial","seqNoFeedback","seqFeedback"],"classroomPairings":[["A","B"],["C","D"]],"coinWeights":[0.2,0.5,0.8],"subjectId":"ARYL3C6N9SVV1","assignmentId":"3N1FSUEFL6MMCZ06TSFFG2Z6Z3TD4F","hitId":"3UDTAB6HH6LRO17U79I9TKUGSHV90J","url":"https://gershmanlab.com/experiments/alicia/teaching/experiment/?hitId=3UDTAB6HH6LRO17U79I9TKUGSHV90J&workerId=ARYL3C6N9SVV1&assignmentId=3N1FSUEFL6MMCZ06TSFFG2Z6Z3TD4F&a=FS1N9&tp_a=FS1N9&b=3N1FSUEFL6MMCZ06TSFFG2Z6Z3TD4F&tp_b=3N1FSUEFL6MMCZ06TSFFG2Z6Z3TD4F&c=365799&tp_c=365799"},{"rt":221423,"response":{"Q0":"Students in different classrooms will have seen a different number of heads and tails before seeing the examples you select for them.","Q1":"By <b>considering the student's classroom information</b> so that I can teach efficiently and accurately/helpfully at the same time (because each example I give to the student costs money!).","Q2":"The coin lands heads 90% of the time.","Q3":"No, I will teach a <b>new</b> student each time.","Q4":"The students are also on the same alien planet as you, where coins can be unfair.","Q5":"Based on the student's second (and final) guess."},"question_order":[1,4,2,5,0,3],"trial_type":"survey-multi-choice","trial_index":3,"time_elapsed":611933,"internal_node_id":"0.0-2.0-1.0","params":{"nStudents":24,"maxFlips":30,"completionMinutes":45,"basePay":8,"maxBonus":9,"perTrialBonus":0.5,"perTrialBonusThreshold":0.05,"exampleCost":0.01},"classroomParams":{"A":{"a":1,"b":4},"B":{"a":4,"b":1},"C":{"a":2,"b":8},"D":{"a":8,"b":2}},"conditions":["nonSeqFull","nonSeqPartial","seqNoFeedback","seqFeedback"],"classroomPairings":[["A","B"],["C","D"]],"coinWeights":[0.2,0.5,0.8],"subjectId":"ARYL3C6N9SVV1","assignmentId":"3N1FSUEFL6MMCZ06TSFFG2Z6Z3TD4F","hitId":"3UDTAB6HH6LRO17U79I9TKUGSHV90J","url":"https://gershmanlab.com/experiments/alicia/teaching/experiment/?hitId=3UDTAB6HH6LRO17U79I9TKUGSHV90J&workerId=ARYL3C6N9SVV1&assignmentId=3N1FSUEFL6MMCZ06TSFFG2Z6Z3TD4F&a=FS1N9&tp_a=FS1N9&b=3N1FSUEFL6MMCZ06TSFFG2Z6Z3TD4F&tp_b=3N1FSUEFL6MMCZ06TSFFG2Z6Z3TD4F&c=365799&tp_c=365799","pass":true},{"rt":null,"stimulus":"<div style=\"font-size:30px;\">Congrats on passing the comprehension quiz! The experiment will begin in a few seconds.</div>","response":null,"trial_type":"html-keyboard-response","trial_index":4,"time_elapsed":614943,"internal_node_id":"0.0-3.0","params":{"nStudents":24,"maxFlips":30,"completionMinutes":45,"basePay":8,"maxBonus":9,"perTrialBonus":0.5,"perTrialBonusThreshold":0.05,"exampleCost":0.01},"classroomParams":{"A":{"a":1,"b":4},"B":{"a":4,"b":1},"C":{"a":2,"b":8},"D":{"a":8,"b":2}},"conditions":["nonSeqFull","nonSeqPartial","seqNoFeedback","seqFeedback"],"classroomPairings":[["A","B"],["C","D"]],"coinWeights":[0.2,0.5,0.8],"subjectId":"ARYL3C6N9SVV1","assignmentId":"3N1FSUEFL6MMCZ06TSFFG2Z6Z3TD4F","hitId":"3UDTAB6HH6LRO17U79I9TKUGSHV90J","url":"https://gershmanlab.com/experiments/alicia/teaching/experiment/?hitId=3UDTAB6HH6LRO17U79I9TKUGSHV90J&workerId=ARYL3C6N9SVV1&assignmentId=3N1FSUEFL6MMCZ06TSFFG2Z6Z3TD4F&a=FS1N9&tp_a=FS1N9&b=3N1FSUEFL6MMCZ06TSFFG2Z6Z3TD4F&tp_b=3N1FSUEFL6MMCZ06TSFFG2Z6Z3TD4F&c=365799&tp_c=365799"},{"rt":null,"stimulus":"<div style=\"font-size:50px;\">First student</div>","response":null,"trial_type":"html-keyboard-response","trial_index":5,"time_elapsed":617948,"internal_node_id":"0.0-4.0","params":{"nStudents":24,"maxFlips":30,"completionMinutes":45,"basePay":8,"maxBonus":9,"perTrialBonus":0.5,"perTrialBonusThreshold":0.05,"exampleCost":0.01},"classroomParams":{"A":{"a":1,"b":4},"B":{"a":4,"b":1},"C":{"a":2,"b":8},"D":{"a":8,"b":2}},"conditions":["nonSeqFull","nonSeqPartial","seqNoFeedback","seqFeedback"],"classroomPairings":[["A","B"],["C","D"]],"coinWeights":[0.2,0.5,0.8],"subjectId":"ARYL3C6N9SVV1","assignmentId":"3N1FSUEFL6MMCZ06TSFFG2Z6Z3TD4F","hitId":"3UDTAB6HH6LRO17U79I9TKUGSHV90J","url":"https://gershmanlab.com/experiments/alicia/teaching/experiment/?hitId=3UDTAB6HH6LRO17U79I9TKUGSHV90J&workerId=ARYL3C6N9SVV1&assignmentId=3N1FSUEFL6MMCZ06TSFFG2Z6Z3TD4F&a=FS1N9&tp_a=FS1N9&b=3N1FSUEFL6MMCZ06TSFFG2Z6Z3TD4F&tp_b=3N1FSUEFL6MMCZ06TSFFG2Z6Z3TD4F&c=365799&tp_c=365799"},{"rt":18863,"stimulus":"\n            <h4 style=\"color:Orange;\">Student 1</h4>\n            <h2>The weight of your coin is <b style=\"color:Tomato;\">0.2</b>.</h2>\n            <p>In this block, you will be giving <b>two</b> sets of examples to Student 1.</p>\n                <p>You will receive feedback at the end of the block.</p>\n            <p></p>","response":0,"trial_type":"html-button-response","trial_index":6,"time_elapsed":636814,"internal_node_id":"0.0-5.0","params":{"nStudents":24,"maxFlips":30,"completionMinutes":45,"basePay":8,"maxBonus":9,"perTrialBonus":0.5,"perTrialBonusThreshold":0.05,"exampleCost":0.01},"classroomParams":{"A":{"a":1,"b":4},"B":{"a":4,"b":1},"C":{"a":2,"b":8},"D":{"a":8,"b":2}},"conditions":["nonSeqFull","nonSeqPartial","seqNoFeedback","seqFeedback"],"classroomPairings":[["A","B"],["C","D"]],"coinWeights":[0.2,0.5,0.8],"subjectId":"ARYL3C6N9SVV1","assignmentId":"3N1FSUEFL6MMCZ06TSFFG2Z6Z3TD4F","hitId":"3UDTAB6HH6LRO17U79I9TKUGSHV90J","url":"https://gershmanlab.com/experiments/alicia/teaching/experiment/?hitId=3UDTAB6HH6LRO17U79I9TKUGSHV90J&workerId=ARYL3C6N9SVV1&assignmentId=3N1FSUEFL6MMCZ06TSFFG2Z6Z3TD4F&a=FS1N9&tp_a=FS1N9&b=3N1FSUEFL6MMCZ06TSFFG2Z6Z3TD4F&tp_b=3N1FSUEFL6MMCZ06TSFFG2Z6Z3TD4F&c=365799&tp_c=365799"},{"rt":76959,"response":{"heads":"1","tails":"4"},"type":"response","condition":"seqNoFeedback","trueTheta":0.2,"classrooms":["A","B"],"studentTrueClassroom":"B","exampleSet":"first","trial_type":"survey-html-form","trial_index":7,"time_elapsed":713774,"internal_node_id":"0.0-6.0-0.0","params":{"nStudents":24,"maxFlips":30,"completionMinutes":45,"basePay":8,"maxBonus":9,"perTrialBonus":0.5,"perTrialBonusThreshold":0.05,"exampleCost":0.01},"classroomParams":{"A":{"a":1,"b":4},"B":{"a":4,"b":1},"C":{"a":2,"b":8},"D":{"a":8,"b":2}},"conditions":["nonSeqFull","nonSeqPartial","seqNoFeedback","seqFeedback"],"classroomPairings":[["A","B"],["C","D"]],"coinWeights":[0.2,0.5,0.8],"subjectId":"ARYL3C6N9SVV1","assignmentId":"3N1FSUEFL6MMCZ06TSFFG2Z6Z3TD4F","hitId":"3UDTAB6HH6LRO17U79I9TKUGSHV90J","url":"https://gershmanlab.com/experiments/alicia/teaching/experiment/?hitId=3UDTAB6HH6LRO17U79I9TKUGSHV90J&workerId=ARYL3C6N9SVV1&assignmentId=3N1FSUEFL6MMCZ06TSFFG2Z6Z3TD4F&a=FS1N9&tp_a=FS1N9&b=3N1FSUEFL6MMCZ06TSFFG2Z6Z3TD4F&tp_b=3N1FSUEFL6MMCZ06TSFFG2Z6Z3TD4F&c=365799&tp_c=365799","heads":1,"tails":4,"studentIndex":0,"studentTrueHypers":{"a":4,"b":1},"studentGuess":0.5,"delta":0.3,"totalExamples":5,"bonusSoFar":0},{"rt":null,"stimulus":"Sending examples to student... ","response":null,"trial_type":"html-keyboard-response","trial_index":8,"time_elapsed":715546,"internal_node_id":"0.0-7.0","params":{"nStudents":24,"maxFlips":30,"completionMinutes":45,"basePay":8,"maxBonus":9,"perTrialBonus":0.5,"perTrialBonusThreshold":0.05,"exampleCost":0.01},"classroomParams":{"A":{"a":1,"b":4},"B":{"a":4,"b":1},"C":{"a":2,"b":8},"D":{"a":8,"b":2}},"conditions":["nonSeqFull","nonSeqPartial","seqNoFeedback","seqFeedback"],"classroomPairings":[["A","B"],["C","D"]],"coinWeights":[0.2,0.5,0.8],"subjectId":"ARYL3C6N9SVV1","assignmentId":"3N1FSUEFL6MMCZ06TSFFG2Z6Z3TD4F","hitId":"3UDTAB6HH6LRO17U79I9TKUGSHV90J","url":"https://gershmanlab.com/experiments/alicia/teaching/experiment/?hitId=3UDTAB6HH6LRO17U79I9TKUGSHV90J&workerId=ARYL3C6N9SVV1&assignmentId=3N1FSUEFL6MMCZ06TSFFG2Z6Z3TD4F&a=FS1N9&tp_a=FS1N9&b=3N1FSUEFL6MMCZ06TSFFG2Z6Z3TD4F&tp_b=3N1FSUEFL6MMCZ06TSFFG2Z6Z3TD4F&c=365799&tp_c=365799"},{"rt":null,"stimulus":"Examples sent to student! Waiting for student...","response":null,"trial_type":"html-keyboard-response","trial_index":9,"time_elapsed":721052,"internal_node_id":"0.0-8.0","params":{"nStudents":24,"maxFlips":30,"completionMinutes":45,"basePay":8,"maxBonus":9,"perTrialBonus":0.5,"perTrialBonusThreshold":0.05,"exampleCost":0.01},"classroomParams":{"A":{"a":1,"b":4},"B":{"a":4,"b":1},"C":{"a":2,"b":8},"D":{"a":8,"b":2}},"conditions":["nonSeqFull","nonSeqPartial","seqNoFeedback","seqFeedback"],"classroomPairings":[["A","B"],["C","D"]],"coinWeights":[0.2,0.5,0.8],"subjectId":"ARYL3C6N9SVV1","assignmentId":"3N1FSUEFL6MMCZ06TSFFG2Z6Z3TD4F","hitId":"3UDTAB6HH6LRO17U79I9TKUGSHV90J","url":"https://gershmanlab.com/experiments/alicia/teaching/experiment/?hitId=3UDTAB6HH6LRO17U79I9TKUGSHV90J&workerId=ARYL3C6N9SVV1&assignmentId=3N1FSUEFL6MMCZ06TSFFG2Z6Z3TD4F&a=FS1N9&tp_a=FS1N9&b=3N1FSUEFL6MMCZ06TSFFG2Z6Z3TD4F&tp_b=3N1FSUEFL6MMCZ06TSFFG2Z6Z3TD4F&c=365799&tp_c=365799"},{"rt":44577,"response":{"heads":"2","tails":"8"},"type":"response","condition":"seqNoFeedback","trueTheta":0.2,"classrooms":["A","B"],"studentTrueClassroom":"B","exampleSet":"second","trial_type":"survey-html-form","trial_index":10,"time_elapsed":765631,"internal_node_id":"0.0-9.0-0.0","params":{"nStudents":24,"maxFlips":30,"completionMinutes":45,"basePay":8,"maxBonus":9,"perTrialBonus":0.5,"perTrialBonusThreshold":0.05,"exampleCost":0.01},"classroomParams":{"A":{"a":1,"b":4},"B":{"a":4,"b":1},"C":{"a":2,"b":8},"D":{"a":8,"b":2}},"conditions":["nonSeqFull","nonSeqPartial","seqNoFeedback","seqFeedback"],"classroomPairings":[["A","B"],["C","D"]],"coinWeights":[0.2,0.5,0.8],"subjectId":"ARYL3C6N9SVV1","assignmentId":"3N1FSUEFL6MMCZ06TSFFG2Z6Z3TD4F","hitId":"3UDTAB6HH6LRO17U79I9TKUGSHV90J","url":"https://gershmanlab.com/experiments/alicia/teaching/experiment/?hitId=3UDTAB6HH6LRO17U79I9TKUGSHV90J&workerId=ARYL3C6N9SVV1&assignmentId=3N1FSUEFL6MMCZ06TSFFG2Z6Z3TD4F&a=FS1N9&tp_a=FS1N9&b=3N1FSUEFL6MMCZ06TSFFG2Z6Z3TD4F&tp_b=3N1FSUEFL6MMCZ06TSFFG2Z6Z3TD4F&c=365799&tp_c=365799","firstResponseHeads":1,"firstResponseTails":4,"secondResponseHeads":2,"secondResponseTails":8,"totalHeads":3,"totalTails":12,"studentIndex":0,"studentTrueHypers":{"a":4,"b":1},"studentGuess":0.35,"delta":0.14999999999999997,"bonus":0,"bonusSoFar":0,"totalExamples":15},{"rt":null,"stimulus":"Sending examples to student... ","response":null,"trial_type":"html-keyboard-response","trial_index":11,"time_elapsed":767395,"internal_node_id":"0.0-10.0","params":{"nStudents":24,"maxFlips":30,"completionMinutes":45,"basePay":8,"maxBonus":9,"perTrialBonus":0.5,"perTrialBonusThreshold":0.05,"exampleCost":0.01},"classroomParams":{"A":{"a":1,"b":4},"B":{"a":4,"b":1},"C":{"a":2,"b":8},"D":{"a":8,"b":2}},"conditions":["nonSeqFull","nonSeqPartial","seqNoFeedback","seqFeedback"],"classroomPairings":[["A","B"],["C","D"]],"coinWeights":[0.2,0.5,0.8],"subjectId":"ARYL3C6N9SVV1","assignmentId":"3N1FSUEFL6MMCZ06TSFFG2Z6Z3TD4F","hitId":"3UDTAB6HH6LRO17U79I9TKUGSHV90J","url":"https://gershmanlab.com/experiments/alicia/teaching/experiment/?hitId=3UDTAB6HH6LRO17U79I9TKUGSHV90J&workerId=ARYL3C6N9SVV1&assignmentId=3N1FSUEFL6MMCZ06TSFFG2Z6Z3TD4F&a=FS1N9&tp_a=FS1N9&b=3N1FSUEFL6MMCZ06TSFFG2Z6Z3TD4F&tp_b=3N1FSUEFL6MMCZ06TSFFG2Z6Z3TD4F&c=365799&tp_c=365799"},{"rt":null,"stimulus":"Examples sent to student! Waiting for student...","response":null,"trial_type":"html-keyboard-response","trial_index":12,"time_elapsed":772409,"internal_node_id":"0.0-11.0","params":{"nStudents":24,"maxFlips":30,"completionMinutes":45,"basePay":8,"maxBonus":9,"perTrialBonus":0.5,"perTrialBonusThreshold":0.05,"exampleCost":0.01},"classroomParams":{"A":{"a":1,"b":4},"B":{"a":4,"b":1},"C":{"a":2,"b":8},"D":{"a":8,"b":2}},"conditions":["nonSeqFull","nonSeqPartial","seqNoFeedback","seqFeedback"],"classroomPairings":[["A","B"],["C","D"]],"coinWeights":[0.2,0.5,0.8],"subjectId":"ARYL3C6N9SVV1","assignmentId":"3N1FSUEFL6MMCZ06TSFFG2Z6Z3TD4F","hitId":"3UDTAB6HH6LRO17U79I9TKUGSHV90J","url":"https://gershmanlab.com/experiments/alicia/teaching/experiment/?hitId=3UDTAB6HH6LRO17U79I9TKUGSHV90J&workerId=ARYL3C6N9SVV1&assignmentId=3N1FSUEFL6MMCZ06TSFFG2Z6Z3TD4F&a=FS1N9&tp_a=FS1N9&b=3N1FSUEFL6MMCZ06TSFFG2Z6Z3TD4F&tp_b=3N1FSUEFL6MMCZ06TSFFG2Z6Z3TD4F&c=365799&tp_c=365799"},{"rt":12756,"stimulus":"\n                <p>Student 1's first guess for coin weight: <b style=\"color:Tomato\";>0.50</b></p>\n                <p>Student 1's second guess for coin weight: <b style=\"color:Tomato\";>0.35</b></p>\n                <p>You received a bonus of <b>$0.00</b> based on the student's second guess.</p>\n                <p>Total bonus so far: <b>$0.00</b></p>\n                <p>Press any key to continue.</p>\n                ","response":"f","trial_type":"html-keyboard-response","trial_index":13,"time_elapsed":785170,"internal_node_id":"0.0-12.0","params":{"nStudents":24,"maxFlips":30,"completionMinutes":45,"basePay":8,"maxBonus":9,"perTrialBonus":0.5,"perTrialBonusThreshold":0.05,"exampleCost":0.01},"classroomParams":{"A":{"a":1,"b":4},"B":{"a":4,"b":1},"C":{"a":2,"b":8},"D":{"a":8,"b":2}},"conditions":["nonSeqFull","nonSeqPartial","seqNoFeedback","seqFeedback"],"classroomPairings":[["A","B"],["C","D"]],"coinWeights":[0.2,0.5,0.8],"subjectId":"ARYL3C6N9SVV1","assignmentId":"3N1FSUEFL6MMCZ06TSFFG2Z6Z3TD4F","hitId":"3UDTAB6HH6LRO17U79I9TKUGSHV90J","url":"https://gershmanlab.com/experiments/alicia/teaching/experiment/?hitId=3UDTAB6HH6LRO17U79I9TKUGSHV90J&workerId=ARYL3C6N9SVV1&assignmentId=3N1FSUEFL6MMCZ06TSFFG2Z6Z3TD4F&a=FS1N9&tp_a=FS1N9&b=3N1FSUEFL6MMCZ06TSFFG2Z6Z3TD4F&tp_b=3N1FSUEFL6MMCZ06TSFFG2Z6Z3TD4F&c=365799&tp_c=365799"},{"rt":null,"stimulus":"<div style=\"font-size:60px;\">Next student</div>","response":null,"trial_type":"html-keyboard-response","trial_index":14,"time_elapsed":787426,"internal_node_id":"0.0-13.0-0.0","params":{"nStudents":24,"maxFlips":30,"completionMinutes":45,"basePay":8,"maxBonus":9,"perTrialBonus":0.5,"perTrialBonusThreshold":0.05,"exampleCost":0.01},"classroomParams":{"A":{"a":1,"b":4},"B":{"a":4,"b":1},"C":{"a":2,"b":8},"D":{"a":8,"b":2}},"conditions":["nonSeqFull","nonSeqPartial","seqNoFeedback","seqFeedback"],"classroomPairings":[["A","B"],["C","D"]],"coinWeights":[0.2,0.5,0.8],"subjectId":"ARYL3C6N9SVV1","assignmentId":"3N1FSUEFL6MMCZ06TSFFG2Z6Z3TD4F","hitId":"3UDTAB6HH6LRO17U79I9TKUGSHV90J","url":"https://gershmanlab.com/experiments/alicia/teaching/experiment/?hitId=3UDTAB6HH6LRO17U79I9TKUGSHV90J&workerId=ARYL3C6N9SVV1&assignmentId=3N1FSUEFL6MMCZ06TSFFG2Z6Z3TD4F&a=FS1N9&tp_a=FS1N9&b=3N1FSUEFL6MMCZ06TSFFG2Z6Z3TD4F&tp_b=3N1FSUEFL6MMCZ06TSFFG2Z6Z3TD4F&c=365799&tp_c=365799"},{"rt":4870,"stimulus":"\n            <h4 style=\"color:Orange;\">Student 2</h4>\n            <h2>The weight of your coin is <b style=\"color:Tomato;\">0.8</b>.</h2>\n            <p>In this block, you will be giving <b>two</b> sets of examples to Student 2.</p>\n                <p>You will receive feedback at the end of the block.</p>\n            <p></p>","response":0,"trial_type":"html-button-response","trial_index":15,"time_elapsed":792298,"internal_node_id":"0.0-14.0","params":{"nStudents":24,"maxFlips":30,"completionMinutes":45,"basePay":8,"maxBonus":9,"perTrialBonus":0.5,"perTrialBonusThreshold":0.05,"exampleCost":0.01},"classroomParams":{"A":{"a":1,"b":4},"B":{"a":4,"b":1},"C":{"a":2,"b":8},"D":{"a":8,"b":2}},"conditions":["nonSeqFull","nonSeqPartial","seqNoFeedback","seqFeedback"],"classroomPairings":[["A","B"],["C","D"]],"coinWeights":[0.2,0.5,0.8],"subjectId":"ARYL3C6N9SVV1","assignmentId":"3N1FSUEFL6MMCZ06TSFFG2Z6Z3TD4F","hitId":"3UDTAB6HH6LRO17U79I9TKUGSHV90J","url":"https://gershmanlab.com/experiments/alicia/teaching/experiment/?hitId=3UDTAB6HH6LRO17U79I9TKUGSHV90J&workerId=ARYL3C6N9SVV1&assignmentId=3N1FSUEFL6MMCZ06TSFFG2Z6Z3TD4F&a=FS1N9&tp_a=FS1N9&b=3N1FSUEFL6MMCZ06TSFFG2Z6Z3TD4F&tp_b=3N1FSUEFL6MMCZ06TSFFG2Z6Z3TD4F&c=365799&tp_c=365799"},{"rt":13928,"response":{"heads":"4","tails":"1"},"type":"response","condition":"seqNoFeedback","trueTheta":0.8,"classrooms":["A","B"],"studentTrueClassroom":"A","exampleSet":"first","trial_type":"survey-html-form","trial_index":16,"time_elapsed":806228,"internal_node_id":"0.0-15.0-0.0","params":{"nStudents":24,"maxFlips":30,"completionMinutes":45,"basePay":8,"maxBonus":9,"perTrialBonus":0.5,"perTrialBonusThreshold":0.05,"exampleCost":0.01},"classroomParams":{"A":{"a":1,"b":4},"B":{"a":4,"b":1},"C":{"a":2,"b":8},"D":{"a":8,"b":2}},"conditions":["nonSeqFull","nonSeqPartial","seqNoFeedback","seqFeedback"],"classroomPairings":[["A","B"],["C","D"]],"coinWeights":[0.2,0.5,0.8],"subjectId":"ARYL3C6N9SVV1","assignmentId":"3N1FSUEFL6MMCZ06TSFFG2Z6Z3TD4F","hitId":"3UDTAB6HH6LRO17U79I9TKUGSHV90J","url":"https://gershmanlab.com/experiments/alicia/teaching/experiment/?hitId=3UDTAB6HH6LRO17U79I9TKUGSHV90J&workerId=ARYL3C6N9SVV1&assignmentId=3N1FSUEFL6MMCZ06TSFFG2Z6Z3TD4F&a=FS1N9&tp_a=FS1N9&b=3N1FSUEFL6MMCZ06TSFFG2Z6Z3TD4F&tp_b=3N1FSUEFL6MMCZ06TSFFG2Z6Z3TD4F&c=365799&tp_c=365799","heads":4,"tails":1,"studentIndex":1,"studentTrueHypers":{"a":1,"b":4},"studentGuess":0.5,"delta":0.30000000000000004,"totalExamples":5,"bonusSoFar":0},{"rt":null,"stimulus":"Sending examples to student... ","response":null,"trial_type":"html-keyboard-response","trial_index":17,"time_elapsed":807734,"internal_node_id":"0.0-16.0","params":{"nStudents":24,"maxFlips":30,"completionMinutes":45,"basePay":8,"maxBonus":9,"perTrialBonus":0.5,"perTrialBonusThreshold":0.05,"exampleCost":0.01},"classroomParams":{"A":{"a":1,"b":4},"B":{"a":4,"b":1},"C":{"a":2,"b":8},"D":{"a":8,"b":2}},"conditions":["nonSeqFull","nonSeqPartial","seqNoFeedback","seqFeedback"],"classroomPairings":[["A","B"],["C","D"]],"coinWeights":[0.2,0.5,0.8],"subjectId":"ARYL3C6N9SVV1","assignmentId":"3N1FSUEFL6MMCZ06TSFFG2Z6Z3TD4F","hitId":"3UDTAB6HH6LRO17U79I9TKUGSHV90J","url":"https://gershmanlab.com/experiments/alicia/teaching/experiment/?hitId=3UDTAB6HH6LRO17U79I9TKUGSHV90J&workerId=ARYL3C6N9SVV1&assignmentId=3N1FSUEFL6MMCZ06TSFFG2Z6Z3TD4F&a=FS1N9&tp_a=FS1N9&b=3N1FSUEFL6MMCZ06TSFFG2Z6Z3TD4F&tp_b=3N1FSUEFL6MMCZ06TSFFG2Z6Z3TD4F&c=365799&tp_c=365799"},{"rt":null,"stimulus":"Examples sent to student! Waiting for student...","response":null,"trial_type":"html-keyboard-response","trial_index":18,"time_elapsed":813750,"internal_node_id":"0.0-17.0","params":{"nStudents":24,"maxFlips":30,"completionMinutes":45,"basePay":8,"maxBonus":9,"perTrialBonus":0.5,"perTrialBonusThreshold":0.05,"exampleCost":0.01},"classroomParams":{"A":{"a":1,"b":4},"B":{"a":4,"b":1},"C":{"a":2,"b":8},"D":{"a":8,"b":2}},"conditions":["nonSeqFull","nonSeqPartial","seqNoFeedback","seqFeedback"],"classroomPairings":[["A","B"],["C","D"]],"coinWeights":[0.2,0.5,0.8],"subjectId":"ARYL3C6N9SVV1","assignmentId":"3N1FSUEFL6MMCZ06TSFFG2Z6Z3TD4F","hitId":"3UDTAB6HH6LRO17U79I9TKUGSHV90J","url":"https://gershmanlab.com/experiments/alicia/teaching/experiment/?hitId=3UDTAB6HH6LRO17U79I9TKUGSHV90J&workerId=ARYL3C6N9SVV1&assignmentId=3N1FSUEFL6MMCZ06TSFFG2Z6Z3TD4F&a=FS1N9&tp_a=FS1N9&b=3N1FSUEFL6MMCZ06TSFFG2Z6Z3TD4F&tp_b=3N1FSUEFL6MMCZ06TSFFG2Z6Z3TD4F&c=365799&tp_c=365799"},{"rt":10087,"response":{"heads":"4","tails":"1"},"type":"response","condition":"seqNoFeedback","trueTheta":0.8,"classrooms":["A","B"],"studentTrueClassroom":"A","exampleSet":"second","trial_type":"survey-html-form","trial_index":19,"time_elapsed":823838,"internal_node_id":"0.0-18.0-0.0","params":{"nStudents":24,"maxFlips":30,"completionMinutes":45,"basePay":8,"maxBonus":9,"perTrialBonus":0.5,"perTrialBonusThreshold":0.05,"exampleCost":0.01},"classroomParams":{"A":{"a":1,"b":4},"B":{"a":4,"b":1},"C":{"a":2,"b":8},"D":{"a":8,"b":2}},"conditions":["nonSeqFull","nonSeqPartial","seqNoFeedback","seqFeedback"],"classroomPairings":[["A","B"],["C","D"]],"coinWeights":[0.2,0.5,0.8],"subjectId":"ARYL3C6N9SVV1","assignmentId":"3N1FSUEFL6MMCZ06TSFFG2Z6Z3TD4F","hitId":"3UDTAB6HH6LRO17U79I9TKUGSHV90J","url":"https://gershmanlab.com/experiments/alicia/teaching/experiment/?hitId=3UDTAB6HH6LRO17U79I9TKUGSHV90J&workerId=ARYL3C6N9SVV1&assignmentId=3N1FSUEFL6MMCZ06TSFFG2Z6Z3TD4F&a=FS1N9&tp_a=FS1N9&b=3N1FSUEFL6MMCZ06TSFFG2Z6Z3TD4F&tp_b=3N1FSUEFL6MMCZ06TSFFG2Z6Z3TD4F&c=365799&tp_c=365799","firstResponseHeads":4,"firstResponseTails":1,"secondResponseHeads":4,"secondResponseTails":1,"totalHeads":8,"totalTails":2,"studentIndex":1,"studentTrueHypers":{"a":1,"b":4},"studentGuess":0.6,"delta":0.20000000000000007,"bonus":0,"bonusSoFar":0,"totalExamples":10},{"rt":null,"stimulus":"Sending examples to student... ","response":null,"trial_type":"html-keyboard-response","trial_index":20,"time_elapsed":825349,"internal_node_id":"0.0-19.0","params":{"nStudents":24,"maxFlips":30,"completionMinutes":45,"basePay":8,"maxBonus":9,"perTrialBonus":0.5,"perTrialBonusThreshold":0.05,"exampleCost":0.01},"classroomParams":{"A":{"a":1,"b":4},"B":{"a":4,"b":1},"C":{"a":2,"b":8},"D":{"a":8,"b":2}},"conditions":["nonSeqFull","nonSeqPartial","seqNoFeedback","seqFeedback"],"classroomPairings":[["A","B"],["C","D"]],"coinWeights":[0.2,0.5,0.8],"subjectId":"ARYL3C6N9SVV1","assignmentId":"3N1FSUEFL6MMCZ06TSFFG2Z6Z3TD4F","hitId":"3UDTAB6HH6LRO17U79I9TKUGSHV90J","url":"https://gershmanlab.com/experiments/alicia/teaching/experiment/?hitId=3UDTAB6HH6LRO17U79I9TKUGSHV90J&workerId=ARYL3C6N9SVV1&assignmentId=3N1FSUEFL6MMCZ06TSFFG2Z6Z3TD4F&a=FS1N9&tp_a=FS1N9&b=3N1FSUEFL6MMCZ06TSFFG2Z6Z3TD4F&tp_b=3N1FSUEFL6MMCZ06TSFFG2Z6Z3TD4F&c=365799&tp_c=365799"},{"rt":null,"stimulus":"Examples sent to student! Waiting for student...","response":null,"trial_type":"html-keyboard-response","trial_index":21,"time_elapsed":830357,"internal_node_id":"0.0-20.0","params":{"nStudents":24,"maxFlips":30,"completionMinutes":45,"basePay":8,"maxBonus":9,"perTrialBonus":0.5,"perTrialBonusThreshold":0.05,"exampleCost":0.01},"classroomParams":{"A":{"a":1,"b":4},"B":{"a":4,"b":1},"C":{"a":2,"b":8},"D":{"a":8,"b":2}},"conditions":["nonSeqFull","nonSeqPartial","seqNoFeedback","seqFeedback"],"classroomPairings":[["A","B"],["C","D"]],"coinWeights":[0.2,0.5,0.8],"subjectId":"ARYL3C6N9SVV1","assignmentId":"3N1FSUEFL6MMCZ06TSFFG2Z6Z3TD4F","hitId":"3UDTAB6HH6LRO17U79I9TKUGSHV90J","url":"https://gershmanlab.com/experiments/alicia/teaching/experiment/?hitId=3UDTAB6HH6LRO17U79I9TKUGSHV90J&workerId=ARYL3C6N9SVV1&assignmentId=3N1FSUEFL6MMCZ06TSFFG2Z6Z3TD4F&a=FS1N9&tp_a=FS1N9&b=3N1FSUEFL6MMCZ06TSFFG2Z6Z3TD4F&tp_b=3N1FSUEFL6MMCZ06TSFFG2Z6Z3TD4F&c=365799&tp_c=365799"},{"rt":7001,"stimulus":"\n                <p>Student 2's first guess for coin weight: <b style=\"color:Tomato\";>0.50</b></p>\n                <p>Student 2's second guess for coin weight: <b style=\"color:Tomato\";>0.60</b></p>\n                <p>You received a bonus of <b>$0.00</b> based on the student's second guess.</p>\n                <p>Total bonus so far: <b>$0.00</b></p>\n                <p>Press any key to continue.</p>\n                ","response":"f","trial_type":"html-keyboard-response","trial_index":22,"time_elapsed":837359,"internal_node_id":"0.0-21.0","params":{"nStudents":24,"maxFlips":30,"completionMinutes":45,"basePay":8,"maxBonus":9,"perTrialBonus":0.5,"perTrialBonusThreshold":0.05,"exampleCost":0.01},"classroomParams":{"A":{"a":1,"b":4},"B":{"a":4,"b":1},"C":{"a":2,"b":8},"D":{"a":8,"b":2}},"conditions":["nonSeqFull","nonSeqPartial","seqNoFeedback","seqFeedback"],"classroomPairings":[["A","B"],["C","D"]],"coinWeights":[0.2,0.5,0.8],"subjectId":"ARYL3C6N9SVV1","assignmentId":"3N1FSUEFL6MMCZ06TSFFG2Z6Z3TD4F","hitId":"3UDTAB6HH6LRO17U79I9TKUGSHV90J","url":"https://gershmanlab.com/experiments/alicia/teaching/experiment/?hitId=3UDTAB6HH6LRO17U79I9TKUGSHV90J&workerId=ARYL3C6N9SVV1&assignmentId=3N1FSUEFL6MMCZ06TSFFG2Z6Z3TD4F&a=FS1N9&tp_a=FS1N9&b=3N1FSUEFL6MMCZ06TSFFG2Z6Z3TD4F&tp_b=3N1FSUEFL6MMCZ06TSFFG2Z6Z3TD4F&c=365799&tp_c=365799"},{"rt":null,"stimulus":"<div style=\"font-size:60px;\">Next student</div>","response":null,"trial_type":"html-keyboard-response","trial_index":23,"time_elapsed":839611,"internal_node_id":"0.0-22.0-0.0","params":{"nStudents":24,"maxFlips":30,"completionMinutes":45,"basePay":8,"maxBonus":9,"perTrialBonus":0.5,"perTrialBonusThreshold":0.05,"exampleCost":0.01},"classroomParams":{"A":{"a":1,"b":4},"B":{"a":4,"b":1},"C":{"a":2,"b":8},"D":{"a":8,"b":2}},"conditions":["nonSeqFull","nonSeqPartial","seqNoFeedback","seqFeedback"],"classroomPairings":[["A","B"],["C","D"]],"coinWeights":[0.2,0.5,0.8],"subjectId":"ARYL3C6N9SVV1","assignmentId":"3N1FSUEFL6MMCZ06TSFFG2Z6Z3TD4F","hitId":"3UDTAB6HH6LRO17U79I9TKUGSHV90J","url":"https://gershmanlab.com/experiments/alicia/teaching/experiment/?hitId=3UDTAB6HH6LRO17U79I9TKUGSHV90J&workerId=ARYL3C6N9SVV1&assignmentId=3N1FSUEFL6MMCZ06TSFFG2Z6Z3TD4F&a=FS1N9&tp_a=FS1N9&b=3N1FSUEFL6MMCZ06TSFFG2Z6Z3TD4F&tp_b=3N1FSUEFL6MMCZ06TSFFG2Z6Z3TD4F&c=365799&tp_c=365799"},{"rt":2334,"stimulus":"\n            <h4 style=\"color:Orange;\">Student 3</h4>\n            <h2>The weight of your coin is <b style=\"color:Tomato;\">0.2</b>.</h2>\n            <p>In this block, you will be giving <b>one</b> set of examples to Student 3.</p>\n                <p>You will receive feedback at the end of the block.</p>\n            <p></p>","response":0,"trial_type":"html-button-response","trial_index":24,"time_elapsed":841947,"internal_node_id":"0.0-23.0","params":{"nStudents":24,"maxFlips":30,"completionMinutes":45,"basePay":8,"maxBonus":9,"perTrialBonus":0.5,"perTrialBonusThreshold":0.05,"exampleCost":0.01},"classroomParams":{"A":{"a":1,"b":4},"B":{"a":4,"b":1},"C":{"a":2,"b":8},"D":{"a":8,"b":2}},"conditions":["nonSeqFull","nonSeqPartial","seqNoFeedback","seqFeedback"],"classroomPairings":[["A","B"],["C","D"]],"coinWeights":[0.2,0.5,0.8],"subjectId":"ARYL3C6N9SVV1","assignmentId":"3N1FSUEFL6MMCZ06TSFFG2Z6Z3TD4F","hitId":"3UDTAB6HH6LRO17U79I9TKUGSHV90J","url":"https://gershmanlab.com/experiments/alicia/teaching/experiment/?hitId=3UDTAB6HH6LRO17U79I9TKUGSHV90J&workerId=ARYL3C6N9SVV1&assignmentId=3N1FSUEFL6MMCZ06TSFFG2Z6Z3TD4F&a=FS1N9&tp_a=FS1N9&b=3N1FSUEFL6MMCZ06TSFFG2Z6Z3TD4F&tp_b=3N1FSUEFL6MMCZ06TSFFG2Z6Z3TD4F&c=365799&tp_c=365799"},{"rt":27182,"response":{"heads":"1","tails":"7"},"type":"response","condition":"nonSeqPartial","trueTheta":0.2,"classrooms":["A","B"],"studentTrueClassroom":"B","exampleSet":"first","trial_type":"survey-html-form","trial_index":25,"time_elapsed":869130,"internal_node_id":"0.0-24.0-0.0","params":{"nStudents":24,"maxFlips":30,"completionMinutes":45,"basePay":8,"maxBonus":9,"perTrialBonus":0.5,"perTrialBonusThreshold":0.05,"exampleCost":0.01},"classroomParams":{"A":{"a":1,"b":4},"B":{"a":4,"b":1},"C":{"a":2,"b":8},"D":{"a":8,"b":2}},"conditions":["nonSeqFull","nonSeqPartial","seqNoFeedback","seqFeedback"],"classroomPairings":[["A","B"],["C","D"]],"coinWeights":[0.2,0.5,0.8],"subjectId":"ARYL3C6N9SVV1","assignmentId":"3N1FSUEFL6MMCZ06TSFFG2Z6Z3TD4F","hitId":"3UDTAB6HH6LRO17U79I9TKUGSHV90J","url":"https://gershmanlab.com/experiments/alicia/teaching/experiment/?hitId=3UDTAB6HH6LRO17U79I9TKUGSHV90J&workerId=ARYL3C6N9SVV1&assignmentId=3N1FSUEFL6MMCZ06TSFFG2Z6Z3TD4F&a=FS1N9&tp_a=FS1N9&b=3N1FSUEFL6MMCZ06TSFFG2Z6Z3TD4F&tp_b=3N1FSUEFL6MMCZ06TSFFG2Z6Z3TD4F&c=365799&tp_c=365799","heads":1,"tails":7,"studentIndex":2,"studentTrueHypers":{"a":4,"b":1},"studentGuess":0.38461538461538464,"delta":0.18461538461538463,"totalExamples":8,"bonus":0,"bonusSoFar":0},{"rt":null,"stimulus":"Sending examples to student... ","response":null,"trial_type":"html-keyboard-response","trial_index":26,"time_elapsed":871148,"internal_node_id":"0.0-25.0","params":{"nStudents":24,"maxFlips":30,"completionMinutes":45,"basePay":8,"maxBonus":9,"perTrialBonus":0.5,"perTrialBonusThreshold":0.05,"exampleCost":0.01},"classroomParams":{"A":{"a":1,"b":4},"B":{"a":4,"b":1},"C":{"a":2,"b":8},"D":{"a":8,"b":2}},"conditions":["nonSeqFull","nonSeqPartial","seqNoFeedback","seqFeedback"],"classroomPairings":[["A","B"],["C","D"]],"coinWeights":[0.2,0.5,0.8],"subjectId":"ARYL3C6N9SVV1","assignmentId":"3N1FSUEFL6MMCZ06TSFFG2Z6Z3TD4F","hitId":"3UDTAB6HH6LRO17U79I9TKUGSHV90J","url":"https://gershmanlab.com/experiments/alicia/teaching/experiment/?hitId=3UDTAB6HH6LRO17U79I9TKUGSHV90J&workerId=ARYL3C6N9SVV1&assignmentId=3N1FSUEFL6MMCZ06TSFFG2Z6Z3TD4F&a=FS1N9&tp_a=FS1N9&b=3N1FSUEFL6MMCZ06TSFFG2Z6Z3TD4F&tp_b=3N1FSUEFL6MMCZ06TSFFG2Z6Z3TD4F&c=365799&tp_c=365799"},{"rt":null,"stimulus":"Examples sent to student! Waiting for student...","response":null,"trial_type":"html-keyboard-response","trial_index":27,"time_elapsed":875159,"internal_node_id":"0.0-26.0","params":{"nStudents":24,"maxFlips":30,"completionMinutes":45,"basePay":8,"maxBonus":9,"perTrialBonus":0.5,"perTrialBonusThreshold":0.05,"exampleCost":0.01},"classroomParams":{"A":{"a":1,"b":4},"B":{"a":4,"b":1},"C":{"a":2,"b":8},"D":{"a":8,"b":2}},"conditions":["nonSeqFull","nonSeqPartial","seqNoFeedback","seqFeedback"],"classroomPairings":[["A","B"],["C","D"]],"coinWeights":[0.2,0.5,0.8],"subjectId":"ARYL3C6N9SVV1","assignmentId":"3N1FSUEFL6MMCZ06TSFFG2Z6Z3TD4F","hitId":"3UDTAB6HH6LRO17U79I9TKUGSHV90J","url":"https://gershmanlab.com/experiments/alicia/teaching/experiment/?hitId=3UDTAB6HH6LRO17U79I9TKUGSHV90J&workerId=ARYL3C6N9SVV1&assignmentId=3N1FSUEFL6MMCZ06TSFFG2Z6Z3TD4F&a=FS1N9&tp_a=FS1N9&b=3N1FSUEFL6MMCZ06TSFFG2Z6Z3TD4F&tp_b=3N1FSUEFL6MMCZ06TSFFG2Z6Z3TD4F&c=365799&tp_c=365799"},{"rt":6878,"stimulus":"\n                <p>Student's guess for coin weight: <b style=\"color:Tomato;\">0.38</b></p>\n                <p>You received a bonus of <b>$0</b>. Total bonus so far: <b>$0.00</b></b></p>\n                <p></p>\n                <p>Press any key to continue.</p>\n                ","response":"g","trial_type":"html-keyboard-response","trial_index":28,"time_elapsed":882039,"internal_node_id":"0.0-27.0","params":{"nStudents":24,"maxFlips":30,"completionMinutes":45,"basePay":8,"maxBonus":9,"perTrialBonus":0.5,"perTrialBonusThreshold":0.05,"exampleCost":0.01},"classroomParams":{"A":{"a":1,"b":4},"B":{"a":4,"b":1},"C":{"a":2,"b":8},"D":{"a":8,"b":2}},"conditions":["nonSeqFull","nonSeqPartial","seqNoFeedback","seqFeedback"],"classroomPairings":[["A","B"],["C","D"]],"coinWeights":[0.2,0.5,0.8],"subjectId":"ARYL3C6N9SVV1","assignmentId":"3N1FSUEFL6MMCZ06TSFFG2Z6Z3TD4F","hitId":"3UDTAB6HH6LRO17U79I9TKUGSHV90J","url":"https://gershmanlab.com/experiments/alicia/teaching/experiment/?hitId=3UDTAB6HH6LRO17U79I9TKUGSHV90J&workerId=ARYL3C6N9SVV1&assignmentId=3N1FSUEFL6MMCZ06TSFFG2Z6Z3TD4F&a=FS1N9&tp_a=FS1N9&b=3N1FSUEFL6MMCZ06TSFFG2Z6Z3TD4F&tp_b=3N1FSUEFL6MMCZ06TSFFG2Z6Z3TD4F&c=365799&tp_c=365799"},{"rt":null,"stimulus":"<div style=\"font-size:60px;\">Next student</div>","response":null,"trial_type":"html-keyboard-response","trial_index":29,"time_elapsed":885041,"internal_node_id":"0.0-28.0-0.0","params":{"nStudents":24,"maxFlips":30,"completionMinutes":45,"basePay":8,"maxBonus":9,"perTrialBonus":0.5,"perTrialBonusThreshold":0.05,"exampleCost":0.01},"classroomParams":{"A":{"a":1,"b":4},"B":{"a":4,"b":1},"C":{"a":2,"b":8},"D":{"a":8,"b":2}},"conditions":["nonSeqFull","nonSeqPartial","seqNoFeedback","seqFeedback"],"classroomPairings":[["A","B"],["C","D"]],"coinWeights":[0.2,0.5,0.8],"subjectId":"ARYL3C6N9SVV1","assignmentId":"3N1FSUEFL6MMCZ06TSFFG2Z6Z3TD4F","hitId":"3UDTAB6HH6LRO17U79I9TKUGSHV90J","url":"https://gershmanlab.com/experiments/alicia/teaching/experiment/?hitId=3UDTAB6HH6LRO17U79I9TKUGSHV90J&workerId=ARYL3C6N9SVV1&assignmentId=3N1FSUEFL6MMCZ06TSFFG2Z6Z3TD4F&a=FS1N9&tp_a=FS1N9&b=3N1FSUEFL6MMCZ06TSFFG2Z6Z3TD4F&tp_b=3N1FSUEFL6MMCZ06TSFFG2Z6Z3TD4F&c=365799&tp_c=365799"},{"rt":4287,"stimulus":"\n            <h4 style=\"color:Orange;\">Student 4</h4>\n            <h2>The weight of your coin is <b style=\"color:Tomato;\">0.5</b>.</h2>\n            <p>In this block, you will be giving <b>two</b> sets of examples to Student 4.</p>\n                <p>You will receive feedback at the end of the block.</p>\n            <p></p>","response":0,"trial_type":"html-button-response","trial_index":30,"time_elapsed":889330,"internal_node_id":"0.0-29.0","params":{"nStudents":24,"maxFlips":30,"completionMinutes":45,"basePay":8,"maxBonus":9,"perTrialBonus":0.5,"perTrialBonusThreshold":0.05,"exampleCost":0.01},"classroomParams":{"A":{"a":1,"b":4},"B":{"a":4,"b":1},"C":{"a":2,"b":8},"D":{"a":8,"b":2}},"conditions":["nonSeqFull","nonSeqPartial","seqNoFeedback","seqFeedback"],"classroomPairings":[["A","B"],["C","D"]],"coinWeights":[0.2,0.5,0.8],"subjectId":"ARYL3C6N9SVV1","assignmentId":"3N1FSUEFL6MMCZ06TSFFG2Z6Z3TD4F","hitId":"3UDTAB6HH6LRO17U79I9TKUGSHV90J","url":"https://gershmanlab.com/experiments/alicia/teaching/experiment/?hitId=3UDTAB6HH6LRO17U79I9TKUGSHV90J&workerId=ARYL3C6N9SVV1&assignmentId=3N1FSUEFL6MMCZ06TSFFG2Z6Z3TD4F&a=FS1N9&tp_a=FS1N9&b=3N1FSUEFL6MMCZ06TSFFG2Z6Z3TD4F&tp_b=3N1FSUEFL6MMCZ06TSFFG2Z6Z3TD4F&c=365799&tp_c=365799"},{"rt":16279,"response":{"heads":"5","tails":"5"},"type":"response","condition":"seqNoFeedback","trueTheta":0.5,"classrooms":["C","D"],"studentTrueClassroom":"C","exampleSet":"first","trial_type":"survey-html-form","trial_index":31,"time_elapsed":905610,"internal_node_id":"0.0-30.0-0.0","params":{"nStudents":24,"maxFlips":30,"completionMinutes":45,"basePay":8,"maxBonus":9,"perTrialBonus":0.5,"perTrialBonusThreshold":0.05,"exampleCost":0.01},"classroomParams":{"A":{"a":1,"b":4},"B":{"a":4,"b":1},"C":{"a":2,"b":8},"D":{"a":8,"b":2}},"conditions":["nonSeqFull","nonSeqPartial","seqNoFeedback","seqFeedback"],"classroomPairings":[["A","B"],["C","D"]],"coinWeights":[0.2,0.5,0.8],"subjectId":"ARYL3C6N9SVV1","assignmentId":"3N1FSUEFL6MMCZ06TSFFG2Z6Z3TD4F","hitId":"3UDTAB6HH6LRO17U79I9TKUGSHV90J","url":"https://gershmanlab.com/experiments/alicia/teaching/experiment/?hitId=3UDTAB6HH6LRO17U79I9TKUGSHV90J&workerId=ARYL3C6N9SVV1&assignmentId=3N1FSUEFL6MMCZ06TSFFG2Z6Z3TD4F&a=FS1N9&tp_a=FS1N9&b=3N1FSUEFL6MMCZ06TSFFG2Z6Z3TD4F&tp_b=3N1FSUEFL6MMCZ06TSFFG2Z6Z3TD4F&c=365799&tp_c=365799","heads":5,"tails":5,"studentIndex":3,"studentTrueHypers":{"a":2,"b":8},"studentGuess":0.35,"delta":0.15000000000000002,"totalExamples":10,"bonusSoFar":0},{"rt":null,"stimulus":"Sending examples to student... ","response":null,"trial_type":"html-keyboard-response","trial_index":32,"time_elapsed":907612,"internal_node_id":"0.0-31.0","params":{"nStudents":24,"maxFlips":30,"completionMinutes":45,"basePay":8,"maxBonus":9,"perTrialBonus":0.5,"perTrialBonusThreshold":0.05,"exampleCost":0.01},"classroomParams":{"A":{"a":1,"b":4},"B":{"a":4,"b":1},"C":{"a":2,"b":8},"D":{"a":8,"b":2}},"conditions":["nonSeqFull","nonSeqPartial","seqNoFeedback","seqFeedback"],"classroomPairings":[["A","B"],["C","D"]],"coinWeights":[0.2,0.5,0.8],"subjectId":"ARYL3C6N9SVV1","assignmentId":"3N1FSUEFL6MMCZ06TSFFG2Z6Z3TD4F","hitId":"3UDTAB6HH6LRO17U79I9TKUGSHV90J","url":"https://gershmanlab.com/experiments/alicia/teaching/experiment/?hitId=3UDTAB6HH6LRO17U79I9TKUGSHV90J&workerId=ARYL3C6N9SVV1&assignmentId=3N1FSUEFL6MMCZ06TSFFG2Z6Z3TD4F&a=FS1N9&tp_a=FS1N9&b=3N1FSUEFL6MMCZ06TSFFG2Z6Z3TD4F&tp_b=3N1FSUEFL6MMCZ06TSFFG2Z6Z3TD4F&c=365799&tp_c=365799"},{"rt":null,"stimulus":"Examples sent to student! Waiting for student...","response":null,"trial_type":"html-keyboard-response","trial_index":33,"time_elapsed":913117,"internal_node_id":"0.0-32.0","params":{"nStudents":24,"maxFlips":30,"completionMinutes":45,"basePay":8,"maxBonus":9,"perTrialBonus":0.5,"perTrialBonusThreshold":0.05,"exampleCost":0.01},"classroomParams":{"A":{"a":1,"b":4},"B":{"a":4,"b":1},"C":{"a":2,"b":8},"D":{"a":8,"b":2}},"conditions":["nonSeqFull","nonSeqPartial","seqNoFeedback","seqFeedback"],"classroomPairings":[["A","B"],["C","D"]],"coinWeights":[0.2,0.5,0.8],"subjectId":"ARYL3C6N9SVV1","assignmentId":"3N1FSUEFL6MMCZ06TSFFG2Z6Z3TD4F","hitId":"3UDTAB6HH6LRO17U79I9TKUGSHV90J","url":"https://gershmanlab.com/experiments/alicia/teaching/experiment/?hitId=3UDTAB6HH6LRO17U79I9TKUGSHV90J&workerId=ARYL3C6N9SVV1&assignmentId=3N1FSUEFL6MMCZ06TSFFG2Z6Z3TD4F&a=FS1N9&tp_a=FS1N9&b=3N1FSUEFL6MMCZ06TSFFG2Z6Z3TD4F&tp_b=3N1FSUEFL6MMCZ06TSFFG2Z6Z3TD4F&c=365799&tp_c=365799"},{"rt":24701,"response":{"heads":"5","tails":"5"},"type":"response","condition":"seqNoFeedback","trueTheta":0.5,"classrooms":["C","D"],"studentTrueClassroom":"C","exampleSet":"second","trial_type":"survey-html-form","trial_index":34,"time_elapsed":937820,"internal_node_id":"0.0-33.0-0.0","params":{"nStudents":24,"maxFlips":30,"completionMinutes":45,"basePay":8,"maxBonus":9,"perTrialBonus":0.5,"perTrialBonusThreshold":0.05,"exampleCost":0.01},"classroomParams":{"A":{"a":1,"b":4},"B":{"a":4,"b":1},"C":{"a":2,"b":8},"D":{"a":8,"b":2}},"conditions":["nonSeqFull","nonSeqPartial","seqNoFeedback","seqFeedback"],"classroomPairings":[["A","B"],["C","D"]],"coinWeights":[0.2,0.5,0.8],"subjectId":"ARYL3C6N9SVV1","assignmentId":"3N1FSUEFL6MMCZ06TSFFG2Z6Z3TD4F","hitId":"3UDTAB6HH6LRO17U79I9TKUGSHV90J","url":"https://gershmanlab.com/experiments/alicia/teaching/experiment/?hitId=3UDTAB6HH6LRO17U79I9TKUGSHV90J&workerId=ARYL3C6N9SVV1&assignmentId=3N1FSUEFL6MMCZ06TSFFG2Z6Z3TD4F&a=FS1N9&tp_a=FS1N9&b=3N1FSUEFL6MMCZ06TSFFG2Z6Z3TD4F&tp_b=3N1FSUEFL6MMCZ06TSFFG2Z6Z3TD4F&c=365799&tp_c=365799","firstResponseHeads":5,"firstResponseTails":5,"secondResponseHeads":5,"secondResponseTails":5,"totalHeads":10,"totalTails":10,"studentIndex":3,"studentTrueHypers":{"a":2,"b":8},"studentGuess":0.4,"delta":0.09999999999999998,"bonus":0,"bonusSoFar":0,"totalExamples":20},{"rt":null,"stimulus":"Sending examples to student... ","response":null,"trial_type":"html-keyboard-response","trial_index":35,"time_elapsed":939823,"internal_node_id":"0.0-34.0","params":{"nStudents":24,"maxFlips":30,"completionMinutes":45,"basePay":8,"maxBonus":9,"perTrialBonus":0.5,"perTrialBonusThreshold":0.05,"exampleCost":0.01},"classroomParams":{"A":{"a":1,"b":4},"B":{"a":4,"b":1},"C":{"a":2,"b":8},"D":{"a":8,"b":2}},"conditions":["nonSeqFull","nonSeqPartial","seqNoFeedback","seqFeedback"],"classroomPairings":[["A","B"],["C","D"]],"coinWeights":[0.2,0.5,0.8],"subjectId":"ARYL3C6N9SVV1","assignmentId":"3N1FSUEFL6MMCZ06TSFFG2Z6Z3TD4F","hitId":"3UDTAB6HH6LRO17U79I9TKUGSHV90J","url":"https://gershmanlab.com/experiments/alicia/teaching/experiment/?hitId=3UDTAB6HH6LRO17U79I9TKUGSHV90J&workerId=ARYL3C6N9SVV1&assignmentId=3N1FSUEFL6MMCZ06TSFFG2Z6Z3TD4F&a=FS1N9&tp_a=FS1N9&b=3N1FSUEFL6MMCZ06TSFFG2Z6Z3TD4F&tp_b=3N1FSUEFL6MMCZ06TSFFG2Z6Z3TD4F&c=365799&tp_c=365799"},{"rt":null,"stimulus":"Examples sent to student! Waiting for student...","response":null,"trial_type":"html-keyboard-response","trial_index":36,"time_elapsed":945330,"internal_node_id":"0.0-35.0","params":{"nStudents":24,"maxFlips":30,"completionMinutes":45,"basePay":8,"maxBonus":9,"perTrialBonus":0.5,"perTrialBonusThreshold":0.05,"exampleCost":0.01},"classroomParams":{"A":{"a":1,"b":4},"B":{"a":4,"b":1},"C":{"a":2,"b":8},"D":{"a":8,"b":2}},"conditions":["nonSeqFull","nonSeqPartial","seqNoFeedback","seqFeedback"],"classroomPairings":[["A","B"],["C","D"]],"coinWeights":[0.2,0.5,0.8],"subjectId":"ARYL3C6N9SVV1","assignmentId":"3N1FSUEFL6MMCZ06TSFFG2Z6Z3TD4F","hitId":"3UDTAB6HH6LRO17U79I9TKUGSHV90J","url":"https://gershmanlab.com/experiments/alicia/teaching/experiment/?hitId=3UDTAB6HH6LRO17U79I9TKUGSHV90J&workerId=ARYL3C6N9SVV1&assignmentId=3N1FSUEFL6MMCZ06TSFFG2Z6Z3TD4F&a=FS1N9&tp_a=FS1N9&b=3N1FSUEFL6MMCZ06TSFFG2Z6Z3TD4F&tp_b=3N1FSUEFL6MMCZ06TSFFG2Z6Z3TD4F&c=365799&tp_c=365799"},{"rt":4726,"stimulus":"\n                <p>Student 4's first guess for coin weight: <b style=\"color:Tomato\";>0.35</b></p>\n                <p>Student 4's second guess for coin weight: <b style=\"color:Tomato\";>0.40</b></p>\n                <p>You received a bonus of <b>$0.00</b> based on the student's second guess.</p>\n                <p>Total bonus so far: <b>$0.00</b></p>\n                <p>Press any key to continue.</p>\n                ","response":"g","trial_type":"html-keyboard-response","trial_index":37,"time_elapsed":950058,"internal_node_id":"0.0-36.0","params":{"nStudents":24,"maxFlips":30,"completionMinutes":45,"basePay":8,"maxBonus":9,"perTrialBonus":0.5,"perTrialBonusThreshold":0.05,"exampleCost":0.01},"classroomParams":{"A":{"a":1,"b":4},"B":{"a":4,"b":1},"C":{"a":2,"b":8},"D":{"a":8,"b":2}},"conditions":["nonSeqFull","nonSeqPartial","seqNoFeedback","seqFeedback"],"classroomPairings":[["A","B"],["C","D"]],"coinWeights":[0.2,0.5,0.8],"subjectId":"ARYL3C6N9SVV1","assignmentId":"3N1FSUEFL6MMCZ06TSFFG2Z6Z3TD4F","hitId":"3UDTAB6HH6LRO17U79I9TKUGSHV90J","url":"https://gershmanlab.com/experiments/alicia/teaching/experiment/?hitId=3UDTAB6HH6LRO17U79I9TKUGSHV90J&workerId=ARYL3C6N9SVV1&assignmentId=3N1FSUEFL6MMCZ06TSFFG2Z6Z3TD4F&a=FS1N9&tp_a=FS1N9&b=3N1FSUEFL6MMCZ06TSFFG2Z6Z3TD4F&tp_b=3N1FSUEFL6MMCZ06TSFFG2Z6Z3TD4F&c=365799&tp_c=365799"},{"rt":null,"stimulus":"<div style=\"font-size:60px;\">Next student</div>","response":null,"trial_type":"html-keyboard-response","trial_index":38,"time_elapsed":953074,"internal_node_id":"0.0-37.0-0.0","params":{"nStudents":24,"maxFlips":30,"completionMinutes":45,"basePay":8,"maxBonus":9,"perTrialBonus":0.5,"perTrialBonusThreshold":0.05,"exampleCost":0.01},"classroomParams":{"A":{"a":1,"b":4},"B":{"a":4,"b":1},"C":{"a":2,"b":8},"D":{"a":8,"b":2}},"conditions":["nonSeqFull","nonSeqPartial","seqNoFeedback","seqFeedback"],"classroomPairings":[["A","B"],["C","D"]],"coinWeights":[0.2,0.5,0.8],"subjectId":"ARYL3C6N9SVV1","assignmentId":"3N1FSUEFL6MMCZ06TSFFG2Z6Z3TD4F","hitId":"3UDTAB6HH6LRO17U79I9TKUGSHV90J","url":"https://gershmanlab.com/experiments/alicia/teaching/experiment/?hitId=3UDTAB6HH6LRO17U79I9TKUGSHV90J&workerId=ARYL3C6N9SVV1&assignmentId=3N1FSUEFL6MMCZ06TSFFG2Z6Z3TD4F&a=FS1N9&tp_a=FS1N9&b=3N1FSUEFL6MMCZ06TSFFG2Z6Z3TD4F&tp_b=3N1FSUEFL6MMCZ06TSFFG2Z6Z3TD4F&c=365799&tp_c=365799"},{"rt":3646,"stimulus":"\n            <h4 style=\"color:Orange;\">Student 5</h4>\n            <h2>The weight of your coin is <b style=\"color:Tomato;\">0.8</b>.</h2>\n            <p>In this block, you will be giving <b>two</b> sets of examples to Student 5.</p>\n                <p>You will receive feedback at the end of the block.</p>\n            <p></p>","response":0,"trial_type":"html-button-response","trial_index":39,"time_elapsed":956722,"internal_node_id":"0.0-38.0","params":{"nStudents":24,"maxFlips":30,"completionMinutes":45,"basePay":8,"maxBonus":9,"perTrialBonus":0.5,"perTrialBonusThreshold":0.05,"exampleCost":0.01},"classroomParams":{"A":{"a":1,"b":4},"B":{"a":4,"b":1},"C":{"a":2,"b":8},"D":{"a":8,"b":2}},"conditions":["nonSeqFull","nonSeqPartial","seqNoFeedback","seqFeedback"],"classroomPairings":[["A","B"],["C","D"]],"coinWeights":[0.2,0.5,0.8],"subjectId":"ARYL3C6N9SVV1","assignmentId":"3N1FSUEFL6MMCZ06TSFFG2Z6Z3TD4F","hitId":"3UDTAB6HH6LRO17U79I9TKUGSHV90J","url":"https://gershmanlab.com/experiments/alicia/teaching/experiment/?hitId=3UDTAB6HH6LRO17U79I9TKUGSHV90J&workerId=ARYL3C6N9SVV1&assignmentId=3N1FSUEFL6MMCZ06TSFFG2Z6Z3TD4F&a=FS1N9&tp_a=FS1N9&b=3N1FSUEFL6MMCZ06TSFFG2Z6Z3TD4F&tp_b=3N1FSUEFL6MMCZ06TSFFG2Z6Z3TD4F&c=365799&tp_c=365799"},{"rt":11770,"response":{"heads":"9","tails":"1"},"type":"response","condition":"seqNoFeedback","trueTheta":0.8,"classrooms":["C","D"],"studentTrueClassroom":"C","exampleSet":"first","trial_type":"survey-html-form","trial_index":40,"time_elapsed":968492,"internal_node_id":"0.0-39.0-0.0","params":{"nStudents":24,"maxFlips":30,"completionMinutes":45,"basePay":8,"maxBonus":9,"perTrialBonus":0.5,"perTrialBonusThreshold":0.05,"exampleCost":0.01},"classroomParams":{"A":{"a":1,"b":4},"B":{"a":4,"b":1},"C":{"a":2,"b":8},"D":{"a":8,"b":2}},"conditions":["nonSeqFull","nonSeqPartial","seqNoFeedback","seqFeedback"],"classroomPairings":[["A","B"],["C","D"]],"coinWeights":[0.2,0.5,0.8],"subjectId":"ARYL3C6N9SVV1","assignmentId":"3N1FSUEFL6MMCZ06TSFFG2Z6Z3TD4F","hitId":"3UDTAB6HH6LRO17U79I9TKUGSHV90J","url":"https://gershmanlab.com/experiments/alicia/teaching/experiment/?hitId=3UDTAB6HH6LRO17U79I9TKUGSHV90J&workerId=ARYL3C6N9SVV1&assignmentId=3N1FSUEFL6MMCZ06TSFFG2Z6Z3TD4F&a=FS1N9&tp_a=FS1N9&b=3N1FSUEFL6MMCZ06TSFFG2Z6Z3TD4F&tp_b=3N1FSUEFL6MMCZ06TSFFG2Z6Z3TD4F&c=365799&tp_c=365799","heads":9,"tails":1,"studentIndex":4,"studentTrueHypers":{"a":2,"b":8},"studentGuess":0.55,"delta":0.25,"totalExamples":10,"bonusSoFar":0},{"rt":null,"stimulus":"Sending examples to student... ","response":null,"trial_type":"html-keyboard-response","trial_index":41,"time_elapsed":970501,"internal_node_id":"0.0-40.0","params":{"nStudents":24,"maxFlips":30,"completionMinutes":45,"basePay":8,"maxBonus":9,"perTrialBonus":0.5,"perTrialBonusThreshold":0.05,"exampleCost":0.01},"classroomParams":{"A":{"a":1,"b":4},"B":{"a":4,"b":1},"C":{"a":2,"b":8},"D":{"a":8,"b":2}},"conditions":["nonSeqFull","nonSeqPartial","seqNoFeedback","seqFeedback"],"classroomPairings":[["A","B"],["C","D"]],"coinWeights":[0.2,0.5,0.8],"subjectId":"ARYL3C6N9SVV1","assignmentId":"3N1FSUEFL6MMCZ06TSFFG2Z6Z3TD4F","hitId":"3UDTAB6HH6LRO17U79I9TKUGSHV90J","url":"https://gershmanlab.com/experiments/alicia/teaching/experiment/?hitId=3UDTAB6HH6LRO17U79I9TKUGSHV90J&workerId=ARYL3C6N9SVV1&assignmentId=3N1FSUEFL6MMCZ06TSFFG2Z6Z3TD4F&a=FS1N9&tp_a=FS1N9&b=3N1FSUEFL6MMCZ06TSFFG2Z6Z3TD4F&tp_b=3N1FSUEFL6MMCZ06TSFFG2Z6Z3TD4F&c=365799&tp_c=365799"},{"rt":null,"stimulus":"Examples sent to student! Waiting for student...","response":null,"trial_type":"html-keyboard-response","trial_index":42,"time_elapsed":976510,"internal_node_id":"0.0-41.0","params":{"nStudents":24,"maxFlips":30,"completionMinutes":45,"basePay":8,"maxBonus":9,"perTrialBonus":0.5,"perTrialBonusThreshold":0.05,"exampleCost":0.01},"classroomParams":{"A":{"a":1,"b":4},"B":{"a":4,"b":1},"C":{"a":2,"b":8},"D":{"a":8,"b":2}},"conditions":["nonSeqFull","nonSeqPartial","seqNoFeedback","seqFeedback"],"classroomPairings":[["A","B"],["C","D"]],"coinWeights":[0.2,0.5,0.8],"subjectId":"ARYL3C6N9SVV1","assignmentId":"3N1FSUEFL6MMCZ06TSFFG2Z6Z3TD4F","hitId":"3UDTAB6HH6LRO17U79I9TKUGSHV90J","url":"https://gershmanlab.com/experiments/alicia/teaching/experiment/?hitId=3UDTAB6HH6LRO17U79I9TKUGSHV90J&workerId=ARYL3C6N9SVV1&assignmentId=3N1FSUEFL6MMCZ06TSFFG2Z6Z3TD4F&a=FS1N9&tp_a=FS1N9&b=3N1FSUEFL6MMCZ06TSFFG2Z6Z3TD4F&tp_b=3N1FSUEFL6MMCZ06TSFFG2Z6Z3TD4F&c=365799&tp_c=365799"},{"rt":9233,"response":{"heads":"9","tails":"1"},"type":"response","condition":"seqNoFeedback","trueTheta":0.8,"classrooms":["C","D"],"studentTrueClassroom":"C","exampleSet":"second","trial_type":"survey-html-form","trial_index":43,"time_elapsed":985746,"internal_node_id":"0.0-42.0-0.0","params":{"nStudents":24,"maxFlips":30,"completionMinutes":45,"basePay":8,"maxBonus":9,"perTrialBonus":0.5,"perTrialBonusThreshold":0.05,"exampleCost":0.01},"classroomParams":{"A":{"a":1,"b":4},"B":{"a":4,"b":1},"C":{"a":2,"b":8},"D":{"a":8,"b":2}},"conditions":["nonSeqFull","nonSeqPartial","seqNoFeedback","seqFeedback"],"classroomPairings":[["A","B"],["C","D"]],"coinWeights":[0.2,0.5,0.8],"subjectId":"ARYL3C6N9SVV1","assignmentId":"3N1FSUEFL6MMCZ06TSFFG2Z6Z3TD4F","hitId":"3UDTAB6HH6LRO17U79I9TKUGSHV90J","url":"https://gershmanlab.com/experiments/alicia/teaching/experiment/?hitId=3UDTAB6HH6LRO17U79I9TKUGSHV90J&workerId=ARYL3C6N9SVV1&assignmentId=3N1FSUEFL6MMCZ06TSFFG2Z6Z3TD4F&a=FS1N9&tp_a=FS1N9&b=3N1FSUEFL6MMCZ06TSFFG2Z6Z3TD4F&tp_b=3N1FSUEFL6MMCZ06TSFFG2Z6Z3TD4F&c=365799&tp_c=365799","firstResponseHeads":9,"firstResponseTails":1,"secondResponseHeads":9,"secondResponseTails":1,"totalHeads":18,"totalTails":2,"studentIndex":4,"studentTrueHypers":{"a":2,"b":8},"studentGuess":0.6666666666666666,"delta":0.13333333333333341,"bonus":0,"bonusSoFar":0,"totalExamples":20},{"rt":null,"stimulus":"Sending examples to student... ","response":null,"trial_type":"html-keyboard-response","trial_index":44,"time_elapsed":987000,"internal_node_id":"0.0-43.0","params":{"nStudents":24,"maxFlips":30,"completionMinutes":45,"basePay":8,"maxBonus":9,"perTrialBonus":0.5,"perTrialBonusThreshold":0.05,"exampleCost":0.01},"classroomParams":{"A":{"a":1,"b":4},"B":{"a":4,"b":1},"C":{"a":2,"b":8},"D":{"a":8,"b":2}},"conditions":["nonSeqFull","nonSeqPartial","seqNoFeedback","seqFeedback"],"classroomPairings":[["A","B"],["C","D"]],"coinWeights":[0.2,0.5,0.8],"subjectId":"ARYL3C6N9SVV1","assignmentId":"3N1FSUEFL6MMCZ06TSFFG2Z6Z3TD4F","hitId":"3UDTAB6HH6LRO17U79I9TKUGSHV90J","url":"https://gershmanlab.com/experiments/alicia/teaching/experiment/?hitId=3UDTAB6HH6LRO17U79I9TKUGSHV90J&workerId=ARYL3C6N9SVV1&assignmentId=3N1FSUEFL6MMCZ06TSFFG2Z6Z3TD4F&a=FS1N9&tp_a=FS1N9&b=3N1FSUEFL6MMCZ06TSFFG2Z6Z3TD4F&tp_b=3N1FSUEFL6MMCZ06TSFFG2Z6Z3TD4F&c=365799&tp_c=365799"},{"rt":null,"stimulus":"Examples sent to student! Waiting for student...","response":null,"trial_type":"html-keyboard-response","trial_index":45,"time_elapsed":992521,"internal_node_id":"0.0-44.0","params":{"nStudents":24,"maxFlips":30,"completionMinutes":45,"basePay":8,"maxBonus":9,"perTrialBonus":0.5,"perTrialBonusThreshold":0.05,"exampleCost":0.01},"classroomParams":{"A":{"a":1,"b":4},"B":{"a":4,"b":1},"C":{"a":2,"b":8},"D":{"a":8,"b":2}},"conditions":["nonSeqFull","nonSeqPartial","seqNoFeedback","seqFeedback"],"classroomPairings":[["A","B"],["C","D"]],"coinWeights":[0.2,0.5,0.8],"subjectId":"ARYL3C6N9SVV1","assignmentId":"3N1FSUEFL6MMCZ06TSFFG2Z6Z3TD4F","hitId":"3UDTAB6HH6LRO17U79I9TKUGSHV90J","url":"https://gershmanlab.com/experiments/alicia/teaching/experiment/?hitId=3UDTAB6HH6LRO17U79I9TKUGSHV90J&workerId=ARYL3C6N9SVV1&assignmentId=3N1FSUEFL6MMCZ06TSFFG2Z6Z3TD4F&a=FS1N9&tp_a=FS1N9&b=3N1FSUEFL6MMCZ06TSFFG2Z6Z3TD4F&tp_b=3N1FSUEFL6MMCZ06TSFFG2Z6Z3TD4F&c=365799&tp_c=365799"},{"rt":2785,"stimulus":"\n                <p>Student 5's first guess for coin weight: <b style=\"color:Tomato\";>0.55</b></p>\n                <p>Student 5's second guess for coin weight: <b style=\"color:Tomato\";>0.67</b></p>\n                <p>You received a bonus of <b>$0.00</b> based on the student's second guess.</p>\n                <p>Total bonus so far: <b>$0.00</b></p>\n                <p>Press any key to continue.</p>\n                ","response":"f","trial_type":"html-keyboard-response","trial_index":46,"time_elapsed":995310,"internal_node_id":"0.0-45.0","params":{"nStudents":24,"maxFlips":30,"completionMinutes":45,"basePay":8,"maxBonus":9,"perTrialBonus":0.5,"perTrialBonusThreshold":0.05,"exampleCost":0.01},"classroomParams":{"A":{"a":1,"b":4},"B":{"a":4,"b":1},"C":{"a":2,"b":8},"D":{"a":8,"b":2}},"conditions":["nonSeqFull","nonSeqPartial","seqNoFeedback","seqFeedback"],"classroomPairings":[["A","B"],["C","D"]],"coinWeights":[0.2,0.5,0.8],"subjectId":"ARYL3C6N9SVV1","assignmentId":"3N1FSUEFL6MMCZ06TSFFG2Z6Z3TD4F","hitId":"3UDTAB6HH6LRO17U79I9TKUGSHV90J","url":"https://gershmanlab.com/experiments/alicia/teaching/experiment/?hitId=3UDTAB6HH6LRO17U79I9TKUGSHV90J&workerId=ARYL3C6N9SVV1&assignmentId=3N1FSUEFL6MMCZ06TSFFG2Z6Z3TD4F&a=FS1N9&tp_a=FS1N9&b=3N1FSUEFL6MMCZ06TSFFG2Z6Z3TD4F&tp_b=3N1FSUEFL6MMCZ06TSFFG2Z6Z3TD4F&c=365799&tp_c=365799"},{"rt":null,"stimulus":"<div style=\"font-size:60px;\">Next student</div>","response":null,"trial_type":"html-keyboard-response","trial_index":47,"time_elapsed":997571,"internal_node_id":"0.0-46.0-0.0","params":{"nStudents":24,"maxFlips":30,"completionMinutes":45,"basePay":8,"maxBonus":9,"perTrialBonus":0.5,"perTrialBonusThreshold":0.05,"exampleCost":0.01},"classroomParams":{"A":{"a":1,"b":4},"B":{"a":4,"b":1},"C":{"a":2,"b":8},"D":{"a":8,"b":2}},"conditions":["nonSeqFull","nonSeqPartial","seqNoFeedback","seqFeedback"],"classroomPairings":[["A","B"],["C","D"]],"coinWeights":[0.2,0.5,0.8],"subjectId":"ARYL3C6N9SVV1","assignmentId":"3N1FSUEFL6MMCZ06TSFFG2Z6Z3TD4F","hitId":"3UDTAB6HH6LRO17U79I9TKUGSHV90J","url":"https://gershmanlab.com/experiments/alicia/teaching/experiment/?hitId=3UDTAB6HH6LRO17U79I9TKUGSHV90J&workerId=ARYL3C6N9SVV1&assignmentId=3N1FSUEFL6MMCZ06TSFFG2Z6Z3TD4F&a=FS1N9&tp_a=FS1N9&b=3N1FSUEFL6MMCZ06TSFFG2Z6Z3TD4F&tp_b=3N1FSUEFL6MMCZ06TSFFG2Z6Z3TD4F&c=365799&tp_c=365799"},{"rt":1710,"stimulus":"\n            <h4 style=\"color:Orange;\">Student 6</h4>\n            <h2>The weight of your coin is <b style=\"color:Tomato;\">0.5</b>.</h2>\n            <p>In this block, you will be giving <b>one</b> set of examples to Student 6.</p>\n                <p>You will receive feedback at the end of the block.</p>\n            <p></p>","response":0,"trial_type":"html-button-response","trial_index":48,"time_elapsed":999283,"internal_node_id":"0.0-47.0","params":{"nStudents":24,"maxFlips":30,"completionMinutes":45,"basePay":8,"maxBonus":9,"perTrialBonus":0.5,"perTrialBonusThreshold":0.05,"exampleCost":0.01},"classroomParams":{"A":{"a":1,"b":4},"B":{"a":4,"b":1},"C":{"a":2,"b":8},"D":{"a":8,"b":2}},"conditions":["nonSeqFull","nonSeqPartial","seqNoFeedback","seqFeedback"],"classroomPairings":[["A","B"],["C","D"]],"coinWeights":[0.2,0.5,0.8],"subjectId":"ARYL3C6N9SVV1","assignmentId":"3N1FSUEFL6MMCZ06TSFFG2Z6Z3TD4F","hitId":"3UDTAB6HH6LRO17U79I9TKUGSHV90J","url":"https://gershmanlab.com/experiments/alicia/teaching/experiment/?hitId=3UDTAB6HH6LRO17U79I9TKUGSHV90J&workerId=ARYL3C6N9SVV1&assignmentId=3N1FSUEFL6MMCZ06TSFFG2Z6Z3TD4F&a=FS1N9&tp_a=FS1N9&b=3N1FSUEFL6MMCZ06TSFFG2Z6Z3TD4F&tp_b=3N1FSUEFL6MMCZ06TSFFG2Z6Z3TD4F&c=365799&tp_c=365799"},{"rt":8139,"response":{"heads":"10","tails":"10"},"type":"response","condition":"nonSeqFull","trueTheta":0.5,"classrooms":["C","D"],"studentTrueClassroom":"C","exampleSet":"first","trial_type":"survey-html-form","trial_index":49,"time_elapsed":1007423,"internal_node_id":"0.0-48.0-0.0","params":{"nStudents":24,"maxFlips":30,"completionMinutes":45,"basePay":8,"maxBonus":9,"perTrialBonus":0.5,"perTrialBonusThreshold":0.05,"exampleCost":0.01},"classroomParams":{"A":{"a":1,"b":4},"B":{"a":4,"b":1},"C":{"a":2,"b":8},"D":{"a":8,"b":2}},"conditions":["nonSeqFull","nonSeqPartial","seqNoFeedback","seqFeedback"],"classroomPairings":[["A","B"],["C","D"]],"coinWeights":[0.2,0.5,0.8],"subjectId":"ARYL3C6N9SVV1","assignmentId":"3N1FSUEFL6MMCZ06TSFFG2Z6Z3TD4F","hitId":"3UDTAB6HH6LRO17U79I9TKUGSHV90J","url":"https://gershmanlab.com/experiments/alicia/teaching/experiment/?hitId=3UDTAB6HH6LRO17U79I9TKUGSHV90J&workerId=ARYL3C6N9SVV1&assignmentId=3N1FSUEFL6MMCZ06TSFFG2Z6Z3TD4F&a=FS1N9&tp_a=FS1N9&b=3N1FSUEFL6MMCZ06TSFFG2Z6Z3TD4F&tp_b=3N1FSUEFL6MMCZ06TSFFG2Z6Z3TD4F&c=365799&tp_c=365799","heads":10,"tails":10,"studentIndex":5,"studentTrueHypers":{"a":2,"b":8},"studentGuess":0.4,"delta":0.09999999999999998,"totalExamples":20,"bonus":0,"bonusSoFar":0},{"rt":null,"stimulus":"Sending examples to student... ","response":null,"trial_type":"html-keyboard-response","trial_index":50,"time_elapsed":1009429,"internal_node_id":"0.0-49.0","params":{"nStudents":24,"maxFlips":30,"completionMinutes":45,"basePay":8,"maxBonus":9,"perTrialBonus":0.5,"perTrialBonusThreshold":0.05,"exampleCost":0.01},"classroomParams":{"A":{"a":1,"b":4},"B":{"a":4,"b":1},"C":{"a":2,"b":8},"D":{"a":8,"b":2}},"conditions":["nonSeqFull","nonSeqPartial","seqNoFeedback","seqFeedback"],"classroomPairings":[["A","B"],["C","D"]],"coinWeights":[0.2,0.5,0.8],"subjectId":"ARYL3C6N9SVV1","assignmentId":"3N1FSUEFL6MMCZ06TSFFG2Z6Z3TD4F","hitId":"3UDTAB6HH6LRO17U79I9TKUGSHV90J","url":"https://gershmanlab.com/experiments/alicia/teaching/experiment/?hitId=3UDTAB6HH6LRO17U79I9TKUGSHV90J&workerId=ARYL3C6N9SVV1&assignmentId=3N1FSUEFL6MMCZ06TSFFG2Z6Z3TD4F&a=FS1N9&tp_a=FS1N9&b=3N1FSUEFL6MMCZ06TSFFG2Z6Z3TD4F&tp_b=3N1FSUEFL6MMCZ06TSFFG2Z6Z3TD4F&c=365799&tp_c=365799"},{"rt":null,"stimulus":"Examples sent to student! Waiting for student...","response":null,"trial_type":"html-keyboard-response","trial_index":51,"time_elapsed":1014957,"internal_node_id":"0.0-50.0","params":{"nStudents":24,"maxFlips":30,"completionMinutes":45,"basePay":8,"maxBonus":9,"perTrialBonus":0.5,"perTrialBonusThreshold":0.05,"exampleCost":0.01},"classroomParams":{"A":{"a":1,"b":4},"B":{"a":4,"b":1},"C":{"a":2,"b":8},"D":{"a":8,"b":2}},"conditions":["nonSeqFull","nonSeqPartial","seqNoFeedback","seqFeedback"],"classroomPairings":[["A","B"],["C","D"]],"coinWeights":[0.2,0.5,0.8],"subjectId":"ARYL3C6N9SVV1","assignmentId":"3N1FSUEFL6MMCZ06TSFFG2Z6Z3TD4F","hitId":"3UDTAB6HH6LRO17U79I9TKUGSHV90J","url":"https://gershmanlab.com/experiments/alicia/teaching/experiment/?hitId=3UDTAB6HH6LRO17U79I9TKUGSHV90J&workerId=ARYL3C6N9SVV1&assignmentId=3N1FSUEFL6MMCZ06TSFFG2Z6Z3TD4F&a=FS1N9&tp_a=FS1N9&b=3N1FSUEFL6MMCZ06TSFFG2Z6Z3TD4F&tp_b=3N1FSUEFL6MMCZ06TSFFG2Z6Z3TD4F&c=365799&tp_c=365799"},{"rt":6053,"stimulus":"\n                <p>Student's guess for coin weight: <b style=\"color:Tomato;\">0.40</b></p>\n                <p>You received a bonus of <b>$0</b>. Total bonus so far: <b>$0.00</b></b></p>\n                <p></p>\n                <p>Press any key to continue.</p>\n                ","response":"g","trial_type":"html-keyboard-response","trial_index":52,"time_elapsed":1021011,"internal_node_id":"0.0-51.0","params":{"nStudents":24,"maxFlips":30,"completionMinutes":45,"basePay":8,"maxBonus":9,"perTrialBonus":0.5,"perTrialBonusThreshold":0.05,"exampleCost":0.01},"classroomParams":{"A":{"a":1,"b":4},"B":{"a":4,"b":1},"C":{"a":2,"b":8},"D":{"a":8,"b":2}},"conditions":["nonSeqFull","nonSeqPartial","seqNoFeedback","seqFeedback"],"classroomPairings":[["A","B"],["C","D"]],"coinWeights":[0.2,0.5,0.8],"subjectId":"ARYL3C6N9SVV1","assignmentId":"3N1FSUEFL6MMCZ06TSFFG2Z6Z3TD4F","hitId":"3UDTAB6HH6LRO17U79I9TKUGSHV90J","url":"https://gershmanlab.com/experiments/alicia/teaching/experiment/?hitId=3UDTAB6HH6LRO17U79I9TKUGSHV90J&workerId=ARYL3C6N9SVV1&assignmentId=3N1FSUEFL6MMCZ06TSFFG2Z6Z3TD4F&a=FS1N9&tp_a=FS1N9&b=3N1FSUEFL6MMCZ06TSFFG2Z6Z3TD4F&tp_b=3N1FSUEFL6MMCZ06TSFFG2Z6Z3TD4F&c=365799&tp_c=365799"},{"rt":null,"stimulus":"<div style=\"font-size:60px;\">Next student</div>","response":null,"trial_type":"html-keyboard-response","trial_index":53,"time_elapsed":1024027,"internal_node_id":"0.0-52.0-0.0","params":{"nStudents":24,"maxFlips":30,"completionMinutes":45,"basePay":8,"maxBonus":9,"perTrialBonus":0.5,"perTrialBonusThreshold":0.05,"exampleCost":0.01},"classroomParams":{"A":{"a":1,"b":4},"B":{"a":4,"b":1},"C":{"a":2,"b":8},"D":{"a":8,"b":2}},"conditions":["nonSeqFull","nonSeqPartial","seqNoFeedback","seqFeedback"],"classroomPairings":[["A","B"],["C","D"]],"coinWeights":[0.2,0.5,0.8],"subjectId":"ARYL3C6N9SVV1","assignmentId":"3N1FSUEFL6MMCZ06TSFFG2Z6Z3TD4F","hitId":"3UDTAB6HH6LRO17U79I9TKUGSHV90J","url":"https://gershmanlab.com/experiments/alicia/teaching/experiment/?hitId=3UDTAB6HH6LRO17U79I9TKUGSHV90J&workerId=ARYL3C6N9SVV1&assignmentId=3N1FSUEFL6MMCZ06TSFFG2Z6Z3TD4F&a=FS1N9&tp_a=FS1N9&b=3N1FSUEFL6MMCZ06TSFFG2Z6Z3TD4F&tp_b=3N1FSUEFL6MMCZ06TSFFG2Z6Z3TD4F&c=365799&tp_c=365799"},{"rt":1476,"stimulus":"\n            <h4 style=\"color:Orange;\">Student 7</h4>\n            <h2>The weight of your coin is <b style=\"color:Tomato;\">0.8</b>.</h2>\n            <p>In this block, you will be giving <b>one</b> set of examples to Student 7.</p>\n                <p>You will receive feedback at the end of the block.</p>\n            <p></p>","response":0,"trial_type":"html-button-response","trial_index":54,"time_elapsed":1025505,"internal_node_id":"0.0-53.0","params":{"nStudents":24,"maxFlips":30,"completionMinutes":45,"basePay":8,"maxBonus":9,"perTrialBonus":0.5,"perTrialBonusThreshold":0.05,"exampleCost":0.01},"classroomParams":{"A":{"a":1,"b":4},"B":{"a":4,"b":1},"C":{"a":2,"b":8},"D":{"a":8,"b":2}},"conditions":["nonSeqFull","nonSeqPartial","seqNoFeedback","seqFeedback"],"classroomPairings":[["A","B"],["C","D"]],"coinWeights":[0.2,0.5,0.8],"subjectId":"ARYL3C6N9SVV1","assignmentId":"3N1FSUEFL6MMCZ06TSFFG2Z6Z3TD4F","hitId":"3UDTAB6HH6LRO17U79I9TKUGSHV90J","url":"https://gershmanlab.com/experiments/alicia/teaching/experiment/?hitId=3UDTAB6HH6LRO17U79I9TKUGSHV90J&workerId=ARYL3C6N9SVV1&assignmentId=3N1FSUEFL6MMCZ06TSFFG2Z6Z3TD4F&a=FS1N9&tp_a=FS1N9&b=3N1FSUEFL6MMCZ06TSFFG2Z6Z3TD4F&tp_b=3N1FSUEFL6MMCZ06TSFFG2Z6Z3TD4F&c=365799&tp_c=365799"},{"rt":10748,"response":{"heads":"9","tails":"1"},"type":"response","condition":"nonSeqPartial","trueTheta":0.8,"classrooms":["A","B"],"studentTrueClassroom":"B","exampleSet":"first","trial_type":"survey-html-form","trial_index":55,"time_elapsed":1036254,"internal_node_id":"0.0-54.0-0.0","params":{"nStudents":24,"maxFlips":30,"completionMinutes":45,"basePay":8,"maxBonus":9,"perTrialBonus":0.5,"perTrialBonusThreshold":0.05,"exampleCost":0.01},"classroomParams":{"A":{"a":1,"b":4},"B":{"a":4,"b":1},"C":{"a":2,"b":8},"D":{"a":8,"b":2}},"conditions":["nonSeqFull","nonSeqPartial","seqNoFeedback","seqFeedback"],"classroomPairings":[["A","B"],["C","D"]],"coinWeights":[0.2,0.5,0.8],"subjectId":"ARYL3C6N9SVV1","assignmentId":"3N1FSUEFL6MMCZ06TSFFG2Z6Z3TD4F","hitId":"3UDTAB6HH6LRO17U79I9TKUGSHV90J","url":"https://gershmanlab.com/experiments/alicia/teaching/experiment/?hitId=3UDTAB6HH6LRO17U79I9TKUGSHV90J&workerId=ARYL3C6N9SVV1&assignmentId=3N1FSUEFL6MMCZ06TSFFG2Z6Z3TD4F&a=FS1N9&tp_a=FS1N9&b=3N1FSUEFL6MMCZ06TSFFG2Z6Z3TD4F&tp_b=3N1FSUEFL6MMCZ06TSFFG2Z6Z3TD4F&c=365799&tp_c=365799","heads":9,"tails":1,"studentIndex":6,"studentTrueHypers":{"a":4,"b":1},"studentGuess":0.8666666666666667,"delta":0.06666666666666665,"totalExamples":10,"bonus":0,"bonusSoFar":0},{"rt":null,"stimulus":"Sending examples to student... ","response":null,"trial_type":"html-keyboard-response","trial_index":56,"time_elapsed":1038262,"internal_node_id":"0.0-55.0","params":{"nStudents":24,"maxFlips":30,"completionMinutes":45,"basePay":8,"maxBonus":9,"perTrialBonus":0.5,"perTrialBonusThreshold":0.05,"exampleCost":0.01},"classroomParams":{"A":{"a":1,"b":4},"B":{"a":4,"b":1},"C":{"a":2,"b":8},"D":{"a":8,"b":2}},"conditions":["nonSeqFull","nonSeqPartial","seqNoFeedback","seqFeedback"],"classroomPairings":[["A","B"],["C","D"]],"coinWeights":[0.2,0.5,0.8],"subjectId":"ARYL3C6N9SVV1","assignmentId":"3N1FSUEFL6MMCZ06TSFFG2Z6Z3TD4F","hitId":"3UDTAB6HH6LRO17U79I9TKUGSHV90J","url":"https://gershmanlab.com/experiments/alicia/teaching/experiment/?hitId=3UDTAB6HH6LRO17U79I9TKUGSHV90J&workerId=ARYL3C6N9SVV1&assignmentId=3N1FSUEFL6MMCZ06TSFFG2Z6Z3TD4F&a=FS1N9&tp_a=FS1N9&b=3N1FSUEFL6MMCZ06TSFFG2Z6Z3TD4F&tp_b=3N1FSUEFL6MMCZ06TSFFG2Z6Z3TD4F&c=365799&tp_c=365799"},{"rt":null,"stimulus":"Examples sent to student! Waiting for student...","response":null,"trial_type":"html-keyboard-response","trial_index":57,"time_elapsed":1043270,"internal_node_id":"0.0-56.0","params":{"nStudents":24,"maxFlips":30,"completionMinutes":45,"basePay":8,"maxBonus":9,"perTrialBonus":0.5,"perTrialBonusThreshold":0.05,"exampleCost":0.01},"classroomParams":{"A":{"a":1,"b":4},"B":{"a":4,"b":1},"C":{"a":2,"b":8},"D":{"a":8,"b":2}},"conditions":["nonSeqFull","nonSeqPartial","seqNoFeedback","seqFeedback"],"classroomPairings":[["A","B"],["C","D"]],"coinWeights":[0.2,0.5,0.8],"subjectId":"ARYL3C6N9SVV1","assignmentId":"3N1FSUEFL6MMCZ06TSFFG2Z6Z3TD4F","hitId":"3UDTAB6HH6LRO17U79I9TKUGSHV90J","url":"https://gershmanlab.com/experiments/alicia/teaching/experiment/?hitId=3UDTAB6HH6LRO17U79I9TKUGSHV90J&workerId=ARYL3C6N9SVV1&assignmentId=3N1FSUEFL6MMCZ06TSFFG2Z6Z3TD4F&a=FS1N9&tp_a=FS1N9&b=3N1FSUEFL6MMCZ06TSFFG2Z6Z3TD4F&tp_b=3N1FSUEFL6MMCZ06TSFFG2Z6Z3TD4F&c=365799&tp_c=365799"},{"rt":19971,"stimulus":"\n                <p>Student's guess for coin weight: <b style=\"color:Tomato;\">0.87</b></p>\n                <p>You received a bonus of <b>$0</b>. Total bonus so far: <b>$0.00</b></b></p>\n                <p></p>\n                <p>Press any key to continue.</p>\n                ","response":"g","trial_type":"html-keyboard-response","trial_index":58,"time_elapsed":1063243,"internal_node_id":"0.0-57.0","params":{"nStudents":24,"maxFlips":30,"completionMinutes":45,"basePay":8,"maxBonus":9,"perTrialBonus":0.5,"perTrialBonusThreshold":0.05,"exampleCost":0.01},"classroomParams":{"A":{"a":1,"b":4},"B":{"a":4,"b":1},"C":{"a":2,"b":8},"D":{"a":8,"b":2}},"conditions":["nonSeqFull","nonSeqPartial","seqNoFeedback","seqFeedback"],"classroomPairings":[["A","B"],["C","D"]],"coinWeights":[0.2,0.5,0.8],"subjectId":"ARYL3C6N9SVV1","assignmentId":"3N1FSUEFL6MMCZ06TSFFG2Z6Z3TD4F","hitId":"3UDTAB6HH6LRO17U79I9TKUGSHV90J","url":"https://gershmanlab.com/experiments/alicia/teaching/experiment/?hitId=3UDTAB6HH6LRO17U79I9TKUGSHV90J&workerId=ARYL3C6N9SVV1&assignmentId=3N1FSUEFL6MMCZ06TSFFG2Z6Z3TD4F&a=FS1N9&tp_a=FS1N9&b=3N1FSUEFL6MMCZ06TSFFG2Z6Z3TD4F&tp_b=3N1FSUEFL6MMCZ06TSFFG2Z6Z3TD4F&c=365799&tp_c=365799"},{"rt":null,"stimulus":"<div style=\"font-size:60px;\">Next student</div>","response":null,"trial_type":"html-keyboard-response","trial_index":59,"time_elapsed":1066260,"internal_node_id":"0.0-58.0-0.0","params":{"nStudents":24,"maxFlips":30,"completionMinutes":45,"basePay":8,"maxBonus":9,"perTrialBonus":0.5,"perTrialBonusThreshold":0.05,"exampleCost":0.01},"classroomParams":{"A":{"a":1,"b":4},"B":{"a":4,"b":1},"C":{"a":2,"b":8},"D":{"a":8,"b":2}},"conditions":["nonSeqFull","nonSeqPartial","seqNoFeedback","seqFeedback"],"classroomPairings":[["A","B"],["C","D"]],"coinWeights":[0.2,0.5,0.8],"subjectId":"ARYL3C6N9SVV1","assignmentId":"3N1FSUEFL6MMCZ06TSFFG2Z6Z3TD4F","hitId":"3UDTAB6HH6LRO17U79I9TKUGSHV90J","url":"https://gershmanlab.com/experiments/alicia/teaching/experiment/?hitId=3UDTAB6HH6LRO17U79I9TKUGSHV90J&workerId=ARYL3C6N9SVV1&assignmentId=3N1FSUEFL6MMCZ06TSFFG2Z6Z3TD4F&a=FS1N9&tp_a=FS1N9&b=3N1FSUEFL6MMCZ06TSFFG2Z6Z3TD4F&tp_b=3N1FSUEFL6MMCZ06TSFFG2Z6Z3TD4F&c=365799&tp_c=365799"},{"rt":2434,"stimulus":"\n            <h4 style=\"color:Orange;\">Student 8</h4>\n            <h2>The weight of your coin is <b style=\"color:Tomato;\">0.8</b>.</h2>\n            <p>In this block, you will be giving <b>two</b> sets of examples to Student 8.</p>\n                <p>You will see the student's guess after the first set of examples. You will also receive feedback at the end of the block.</p>\n            <p>To earn the highest bonus, you will have to <b>take into consideration the student's guess</b> when you choose your second set of examples.</p>","response":0,"trial_type":"html-button-response","trial_index":60,"time_elapsed":1068695,"internal_node_id":"0.0-59.0","params":{"nStudents":24,"maxFlips":30,"completionMinutes":45,"basePay":8,"maxBonus":9,"perTrialBonus":0.5,"perTrialBonusThreshold":0.05,"exampleCost":0.01},"classroomParams":{"A":{"a":1,"b":4},"B":{"a":4,"b":1},"C":{"a":2,"b":8},"D":{"a":8,"b":2}},"conditions":["nonSeqFull","nonSeqPartial","seqNoFeedback","seqFeedback"],"classroomPairings":[["A","B"],["C","D"]],"coinWeights":[0.2,0.5,0.8],"subjectId":"ARYL3C6N9SVV1","assignmentId":"3N1FSUEFL6MMCZ06TSFFG2Z6Z3TD4F","hitId":"3UDTAB6HH6LRO17U79I9TKUGSHV90J","url":"https://gershmanlab.com/experiments/alicia/teaching/experiment/?hitId=3UDTAB6HH6LRO17U79I9TKUGSHV90J&workerId=ARYL3C6N9SVV1&assignmentId=3N1FSUEFL6MMCZ06TSFFG2Z6Z3TD4F&a=FS1N9&tp_a=FS1N9&b=3N1FSUEFL6MMCZ06TSFFG2Z6Z3TD4F&tp_b=3N1FSUEFL6MMCZ06TSFFG2Z6Z3TD4F&c=365799&tp_c=365799"},{"rt":16852,"response":{"heads":"5","tails":"1"},"type":"response","condition":"seqFeedback","trueTheta":0.8,"classrooms":["C","D"],"studentTrueClassroom":"D","exampleSet":"first","trial_type":"survey-html-form","trial_index":61,"time_elapsed":1085548,"internal_node_id":"0.0-60.0-0.0","params":{"nStudents":24,"maxFlips":30,"completionMinutes":45,"basePay":8,"maxBonus":9,"perTrialBonus":0.5,"perTrialBonusThreshold":0.05,"exampleCost":0.01},"classroomParams":{"A":{"a":1,"b":4},"B":{"a":4,"b":1},"C":{"a":2,"b":8},"D":{"a":8,"b":2}},"conditions":["nonSeqFull","nonSeqPartial","seqNoFeedback","seqFeedback"],"classroomPairings":[["A","B"],["C","D"]],"coinWeights":[0.2,0.5,0.8],"subjectId":"ARYL3C6N9SVV1","assignmentId":"3N1FSUEFL6MMCZ06TSFFG2Z6Z3TD4F","hitId":"3UDTAB6HH6LRO17U79I9TKUGSHV90J","url":"https://gershmanlab.com/experiments/alicia/teaching/experiment/?hitId=3UDTAB6HH6LRO17U79I9TKUGSHV90J&workerId=ARYL3C6N9SVV1&assignmentId=3N1FSUEFL6MMCZ06TSFFG2Z6Z3TD4F&a=FS1N9&tp_a=FS1N9&b=3N1FSUEFL6MMCZ06TSFFG2Z6Z3TD4F&tp_b=3N1FSUEFL6MMCZ06TSFFG2Z6Z3TD4F&c=365799&tp_c=365799","heads":5,"tails":1,"studentIndex":7,"studentTrueHypers":{"a":8,"b":2},"studentGuess":0.8125,"delta":0.012499999999999956,"totalExamples":6,"bonusSoFar":0},{"rt":null,"stimulus":"Sending examples to student... ","response":null,"trial_type":"html-keyboard-response","trial_index":62,"time_elapsed":1086812,"internal_node_id":"0.0-61.0","params":{"nStudents":24,"maxFlips":30,"completionMinutes":45,"basePay":8,"maxBonus":9,"perTrialBonus":0.5,"perTrialBonusThreshold":0.05,"exampleCost":0.01},"classroomParams":{"A":{"a":1,"b":4},"B":{"a":4,"b":1},"C":{"a":2,"b":8},"D":{"a":8,"b":2}},"conditions":["nonSeqFull","nonSeqPartial","seqNoFeedback","seqFeedback"],"classroomPairings":[["A","B"],["C","D"]],"coinWeights":[0.2,0.5,0.8],"subjectId":"ARYL3C6N9SVV1","assignmentId":"3N1FSUEFL6MMCZ06TSFFG2Z6Z3TD4F","hitId":"3UDTAB6HH6LRO17U79I9TKUGSHV90J","url":"https://gershmanlab.com/experiments/alicia/teaching/experiment/?hitId=3UDTAB6HH6LRO17U79I9TKUGSHV90J&workerId=ARYL3C6N9SVV1&assignmentId=3N1FSUEFL6MMCZ06TSFFG2Z6Z3TD4F&a=FS1N9&tp_a=FS1N9&b=3N1FSUEFL6MMCZ06TSFFG2Z6Z3TD4F&tp_b=3N1FSUEFL6MMCZ06TSFFG2Z6Z3TD4F&c=365799&tp_c=365799"},{"rt":null,"stimulus":"Examples sent to student! Waiting for student...","response":null,"trial_type":"html-keyboard-response","trial_index":63,"time_elapsed":1092323,"internal_node_id":"0.0-62.0","params":{"nStudents":24,"maxFlips":30,"completionMinutes":45,"basePay":8,"maxBonus":9,"perTrialBonus":0.5,"perTrialBonusThreshold":0.05,"exampleCost":0.01},"classroomParams":{"A":{"a":1,"b":4},"B":{"a":4,"b":1},"C":{"a":2,"b":8},"D":{"a":8,"b":2}},"conditions":["nonSeqFull","nonSeqPartial","seqNoFeedback","seqFeedback"],"classroomPairings":[["A","B"],["C","D"]],"coinWeights":[0.2,0.5,0.8],"subjectId":"ARYL3C6N9SVV1","assignmentId":"3N1FSUEFL6MMCZ06TSFFG2Z6Z3TD4F","hitId":"3UDTAB6HH6LRO17U79I9TKUGSHV90J","url":"https://gershmanlab.com/experiments/alicia/teaching/experiment/?hitId=3UDTAB6HH6LRO17U79I9TKUGSHV90J&workerId=ARYL3C6N9SVV1&assignmentId=3N1FSUEFL6MMCZ06TSFFG2Z6Z3TD4F&a=FS1N9&tp_a=FS1N9&b=3N1FSUEFL6MMCZ06TSFFG2Z6Z3TD4F&tp_b=3N1FSUEFL6MMCZ06TSFFG2Z6Z3TD4F&c=365799&tp_c=365799"},{"rt":7589,"stimulus":"\n                <p>Student's guess for coin weight: <b style=\"color:Tomato;\">0.81</b></p>\n                <p></b></p>\n                <p>You will now send another set of examples to your student. <b>Remember to take your student's guess into consideration so that you can earn the highest bonus possible!</b> </p>\n                <p>Press any key to continue.</p>\n                ","response":"f","trial_type":"html-keyboard-response","trial_index":64,"time_elapsed":1099913,"internal_node_id":"0.0-63.0","params":{"nStudents":24,"maxFlips":30,"completionMinutes":45,"basePay":8,"maxBonus":9,"perTrialBonus":0.5,"perTrialBonusThreshold":0.05,"exampleCost":0.01},"classroomParams":{"A":{"a":1,"b":4},"B":{"a":4,"b":1},"C":{"a":2,"b":8},"D":{"a":8,"b":2}},"conditions":["nonSeqFull","nonSeqPartial","seqNoFeedback","seqFeedback"],"classroomPairings":[["A","B"],["C","D"]],"coinWeights":[0.2,0.5,0.8],"subjectId":"ARYL3C6N9SVV1","assignmentId":"3N1FSUEFL6MMCZ06TSFFG2Z6Z3TD4F","hitId":"3UDTAB6HH6LRO17U79I9TKUGSHV90J","url":"https://gershmanlab.com/experiments/alicia/teaching/experiment/?hitId=3UDTAB6HH6LRO17U79I9TKUGSHV90J&workerId=ARYL3C6N9SVV1&assignmentId=3N1FSUEFL6MMCZ06TSFFG2Z6Z3TD4F&a=FS1N9&tp_a=FS1N9&b=3N1FSUEFL6MMCZ06TSFFG2Z6Z3TD4F&tp_b=3N1FSUEFL6MMCZ06TSFFG2Z6Z3TD4F&c=365799&tp_c=365799"},{"rt":19944,"response":{"heads":"8","tails":"2"},"type":"response","condition":"seqFeedback","trueTheta":0.8,"classrooms":["C","D"],"studentTrueClassroom":"D","exampleSet":"second","trial_type":"survey-html-form","trial_index":65,"time_elapsed":1119859,"internal_node_id":"0.0-64.0-0.0","params":{"nStudents":24,"maxFlips":30,"completionMinutes":45,"basePay":8,"maxBonus":9,"perTrialBonus":0.5,"perTrialBonusThreshold":0.05,"exampleCost":0.01},"classroomParams":{"A":{"a":1,"b":4},"B":{"a":4,"b":1},"C":{"a":2,"b":8},"D":{"a":8,"b":2}},"conditions":["nonSeqFull","nonSeqPartial","seqNoFeedback","seqFeedback"],"classroomPairings":[["A","B"],["C","D"]],"coinWeights":[0.2,0.5,0.8],"subjectId":"ARYL3C6N9SVV1","assignmentId":"3N1FSUEFL6MMCZ06TSFFG2Z6Z3TD4F","hitId":"3UDTAB6HH6LRO17U79I9TKUGSHV90J","url":"https://gershmanlab.com/experiments/alicia/teaching/experiment/?hitId=3UDTAB6HH6LRO17U79I9TKUGSHV90J&workerId=ARYL3C6N9SVV1&assignmentId=3N1FSUEFL6MMCZ06TSFFG2Z6Z3TD4F&a=FS1N9&tp_a=FS1N9&b=3N1FSUEFL6MMCZ06TSFFG2Z6Z3TD4F&tp_b=3N1FSUEFL6MMCZ06TSFFG2Z6Z3TD4F&c=365799&tp_c=365799","firstResponseHeads":5,"firstResponseTails":1,"secondResponseHeads":8,"secondResponseTails":2,"totalHeads":13,"totalTails":3,"studentIndex":7,"studentTrueHypers":{"a":8,"b":2},"studentGuess":0.8076923076923077,"delta":0.007692307692307665,"bonus":0.34,"bonusSoFar":0.34,"totalExamples":16},{"rt":null,"stimulus":"Sending examples to student... ","response":null,"trial_type":"html-keyboard-response","trial_index":66,"time_elapsed":1121373,"internal_node_id":"0.0-65.0","params":{"nStudents":24,"maxFlips":30,"completionMinutes":45,"basePay":8,"maxBonus":9,"perTrialBonus":0.5,"perTrialBonusThreshold":0.05,"exampleCost":0.01},"classroomParams":{"A":{"a":1,"b":4},"B":{"a":4,"b":1},"C":{"a":2,"b":8},"D":{"a":8,"b":2}},"conditions":["nonSeqFull","nonSeqPartial","seqNoFeedback","seqFeedback"],"classroomPairings":[["A","B"],["C","D"]],"coinWeights":[0.2,0.5,0.8],"subjectId":"ARYL3C6N9SVV1","assignmentId":"3N1FSUEFL6MMCZ06TSFFG2Z6Z3TD4F","hitId":"3UDTAB6HH6LRO17U79I9TKUGSHV90J","url":"https://gershmanlab.com/experiments/alicia/teaching/experiment/?hitId=3UDTAB6HH6LRO17U79I9TKUGSHV90J&workerId=ARYL3C6N9SVV1&assignmentId=3N1FSUEFL6MMCZ06TSFFG2Z6Z3TD4F&a=FS1N9&tp_a=FS1N9&b=3N1FSUEFL6MMCZ06TSFFG2Z6Z3TD4F&tp_b=3N1FSUEFL6MMCZ06TSFFG2Z6Z3TD4F&c=365799&tp_c=365799"},{"rt":null,"stimulus":"Examples sent to student! Waiting for student...","response":null,"trial_type":"html-keyboard-response","trial_index":67,"time_elapsed":1126895,"internal_node_id":"0.0-66.0","params":{"nStudents":24,"maxFlips":30,"completionMinutes":45,"basePay":8,"maxBonus":9,"perTrialBonus":0.5,"perTrialBonusThreshold":0.05,"exampleCost":0.01},"classroomParams":{"A":{"a":1,"b":4},"B":{"a":4,"b":1},"C":{"a":2,"b":8},"D":{"a":8,"b":2}},"conditions":["nonSeqFull","nonSeqPartial","seqNoFeedback","seqFeedback"],"classroomPairings":[["A","B"],["C","D"]],"coinWeights":[0.2,0.5,0.8],"subjectId":"ARYL3C6N9SVV1","assignmentId":"3N1FSUEFL6MMCZ06TSFFG2Z6Z3TD4F","hitId":"3UDTAB6HH6LRO17U79I9TKUGSHV90J","url":"https://gershmanlab.com/experiments/alicia/teaching/experiment/?hitId=3UDTAB6HH6LRO17U79I9TKUGSHV90J&workerId=ARYL3C6N9SVV1&assignmentId=3N1FSUEFL6MMCZ06TSFFG2Z6Z3TD4F&a=FS1N9&tp_a=FS1N9&b=3N1FSUEFL6MMCZ06TSFFG2Z6Z3TD4F&tp_b=3N1FSUEFL6MMCZ06TSFFG2Z6Z3TD4F&c=365799&tp_c=365799"},{"rt":5297,"stimulus":"\n                <p>Student 8's first guess for coin weight: <b style=\"color:Tomato\";>0.81</b></p>\n                <p>Student 8's second guess for coin weight: <b style=\"color:Tomato\";>0.81</b></p>\n                <p>You received a bonus of <b>$0.34</b> based on the student's second guess.</p>\n                <p>Total bonus so far: <b>$0.34</b></p>\n                <p>Press any key to continue.</p>\n                ","response":"d","trial_type":"html-keyboard-response","trial_index":68,"time_elapsed":1132194,"internal_node_id":"0.0-67.0","params":{"nStudents":24,"maxFlips":30,"completionMinutes":45,"basePay":8,"maxBonus":9,"perTrialBonus":0.5,"perTrialBonusThreshold":0.05,"exampleCost":0.01},"classroomParams":{"A":{"a":1,"b":4},"B":{"a":4,"b":1},"C":{"a":2,"b":8},"D":{"a":8,"b":2}},"conditions":["nonSeqFull","nonSeqPartial","seqNoFeedback","seqFeedback"],"classroomPairings":[["A","B"],["C","D"]],"coinWeights":[0.2,0.5,0.8],"subjectId":"ARYL3C6N9SVV1","assignmentId":"3N1FSUEFL6MMCZ06TSFFG2Z6Z3TD4F","hitId":"3UDTAB6HH6LRO17U79I9TKUGSHV90J","url":"https://gershmanlab.com/experiments/alicia/teaching/experiment/?hitId=3UDTAB6HH6LRO17U79I9TKUGSHV90J&workerId=ARYL3C6N9SVV1&assignmentId=3N1FSUEFL6MMCZ06TSFFG2Z6Z3TD4F&a=FS1N9&tp_a=FS1N9&b=3N1FSUEFL6MMCZ06TSFFG2Z6Z3TD4F&tp_b=3N1FSUEFL6MMCZ06TSFFG2Z6Z3TD4F&c=365799&tp_c=365799"},{"rt":null,"stimulus":"<div style=\"font-size:60px;\">Next student</div>","response":null,"trial_type":"html-keyboard-response","trial_index":69,"time_elapsed":1135196,"internal_node_id":"0.0-68.0-0.0","params":{"nStudents":24,"maxFlips":30,"completionMinutes":45,"basePay":8,"maxBonus":9,"perTrialBonus":0.5,"perTrialBonusThreshold":0.05,"exampleCost":0.01},"classroomParams":{"A":{"a":1,"b":4},"B":{"a":4,"b":1},"C":{"a":2,"b":8},"D":{"a":8,"b":2}},"conditions":["nonSeqFull","nonSeqPartial","seqNoFeedback","seqFeedback"],"classroomPairings":[["A","B"],["C","D"]],"coinWeights":[0.2,0.5,0.8],"subjectId":"ARYL3C6N9SVV1","assignmentId":"3N1FSUEFL6MMCZ06TSFFG2Z6Z3TD4F","hitId":"3UDTAB6HH6LRO17U79I9TKUGSHV90J","url":"https://gershmanlab.com/experiments/alicia/teaching/experiment/?hitId=3UDTAB6HH6LRO17U79I9TKUGSHV90J&workerId=ARYL3C6N9SVV1&assignmentId=3N1FSUEFL6MMCZ06TSFFG2Z6Z3TD4F&a=FS1N9&tp_a=FS1N9&b=3N1FSUEFL6MMCZ06TSFFG2Z6Z3TD4F&tp_b=3N1FSUEFL6MMCZ06TSFFG2Z6Z3TD4F&c=365799&tp_c=365799"},{"rt":3342,"stimulus":"\n            <h4 style=\"color:Orange;\">Student 9</h4>\n            <h2>The weight of your coin is <b style=\"color:Tomato;\">0.2</b>.</h2>\n            <p>In this block, you will be giving <b>one</b> set of examples to Student 9.</p>\n                <p>You will receive feedback at the end of the block.</p>\n            <p></p>","response":0,"trial_type":"html-button-response","trial_index":70,"time_elapsed":1138539,"internal_node_id":"0.0-69.0","params":{"nStudents":24,"maxFlips":30,"completionMinutes":45,"basePay":8,"maxBonus":9,"perTrialBonus":0.5,"perTrialBonusThreshold":0.05,"exampleCost":0.01},"classroomParams":{"A":{"a":1,"b":4},"B":{"a":4,"b":1},"C":{"a":2,"b":8},"D":{"a":8,"b":2}},"conditions":["nonSeqFull","nonSeqPartial","seqNoFeedback","seqFeedback"],"classroomPairings":[["A","B"],["C","D"]],"coinWeights":[0.2,0.5,0.8],"subjectId":"ARYL3C6N9SVV1","assignmentId":"3N1FSUEFL6MMCZ06TSFFG2Z6Z3TD4F","hitId":"3UDTAB6HH6LRO17U79I9TKUGSHV90J","url":"https://gershmanlab.com/experiments/alicia/teaching/experiment/?hitId=3UDTAB6HH6LRO17U79I9TKUGSHV90J&workerId=ARYL3C6N9SVV1&assignmentId=3N1FSUEFL6MMCZ06TSFFG2Z6Z3TD4F&a=FS1N9&tp_a=FS1N9&b=3N1FSUEFL6MMCZ06TSFFG2Z6Z3TD4F&tp_b=3N1FSUEFL6MMCZ06TSFFG2Z6Z3TD4F&c=365799&tp_c=365799"},{"rt":7568,"response":{"heads":"2","tails":"4"},"type":"response","condition":"nonSeqPartial","trueTheta":0.2,"classrooms":["C","D"],"studentTrueClassroom":"D","exampleSet":"first","trial_type":"survey-html-form","trial_index":71,"time_elapsed":1146109,"internal_node_id":"0.0-70.0-0.0","params":{"nStudents":24,"maxFlips":30,"completionMinutes":45,"basePay":8,"maxBonus":9,"perTrialBonus":0.5,"perTrialBonusThreshold":0.05,"exampleCost":0.01},"classroomParams":{"A":{"a":1,"b":4},"B":{"a":4,"b":1},"C":{"a":2,"b":8},"D":{"a":8,"b":2}},"conditions":["nonSeqFull","nonSeqPartial","seqNoFeedback","seqFeedback"],"classroomPairings":[["A","B"],["C","D"]],"coinWeights":[0.2,0.5,0.8],"subjectId":"ARYL3C6N9SVV1","assignmentId":"3N1FSUEFL6MMCZ06TSFFG2Z6Z3TD4F","hitId":"3UDTAB6HH6LRO17U79I9TKUGSHV90J","url":"https://gershmanlab.com/experiments/alicia/teaching/experiment/?hitId=3UDTAB6HH6LRO17U79I9TKUGSHV90J&workerId=ARYL3C6N9SVV1&assignmentId=3N1FSUEFL6MMCZ06TSFFG2Z6Z3TD4F&a=FS1N9&tp_a=FS1N9&b=3N1FSUEFL6MMCZ06TSFFG2Z6Z3TD4F&tp_b=3N1FSUEFL6MMCZ06TSFFG2Z6Z3TD4F&c=365799&tp_c=365799","heads":2,"tails":4,"studentIndex":8,"studentTrueHypers":{"a":8,"b":2},"studentGuess":0.625,"delta":0.425,"totalExamples":6,"bonus":0,"bonusSoFar":0.34},{"rt":null,"stimulus":"Sending examples to student... ","response":null,"trial_type":"html-keyboard-response","trial_index":72,"time_elapsed":1147362,"internal_node_id":"0.0-71.0","params":{"nStudents":24,"maxFlips":30,"completionMinutes":45,"basePay":8,"maxBonus":9,"perTrialBonus":0.5,"perTrialBonusThreshold":0.05,"exampleCost":0.01},"classroomParams":{"A":{"a":1,"b":4},"B":{"a":4,"b":1},"C":{"a":2,"b":8},"D":{"a":8,"b":2}},"conditions":["nonSeqFull","nonSeqPartial","seqNoFeedback","seqFeedback"],"classroomPairings":[["A","B"],["C","D"]],"coinWeights":[0.2,0.5,0.8],"subjectId":"ARYL3C6N9SVV1","assignmentId":"3N1FSUEFL6MMCZ06TSFFG2Z6Z3TD4F","hitId":"3UDTAB6HH6LRO17U79I9TKUGSHV90J","url":"https://gershmanlab.com/experiments/alicia/teaching/experiment/?hitId=3UDTAB6HH6LRO17U79I9TKUGSHV90J&workerId=ARYL3C6N9SVV1&assignmentId=3N1FSUEFL6MMCZ06TSFFG2Z6Z3TD4F&a=FS1N9&tp_a=FS1N9&b=3N1FSUEFL6MMCZ06TSFFG2Z6Z3TD4F&tp_b=3N1FSUEFL6MMCZ06TSFFG2Z6Z3TD4F&c=365799&tp_c=365799"},{"rt":null,"stimulus":"Examples sent to student! Waiting for student...","response":null,"trial_type":"html-keyboard-response","trial_index":73,"time_elapsed":1153370,"internal_node_id":"0.0-72.0","params":{"nStudents":24,"maxFlips":30,"completionMinutes":45,"basePay":8,"maxBonus":9,"perTrialBonus":0.5,"perTrialBonusThreshold":0.05,"exampleCost":0.01},"classroomParams":{"A":{"a":1,"b":4},"B":{"a":4,"b":1},"C":{"a":2,"b":8},"D":{"a":8,"b":2}},"conditions":["nonSeqFull","nonSeqPartial","seqNoFeedback","seqFeedback"],"classroomPairings":[["A","B"],["C","D"]],"coinWeights":[0.2,0.5,0.8],"subjectId":"ARYL3C6N9SVV1","assignmentId":"3N1FSUEFL6MMCZ06TSFFG2Z6Z3TD4F","hitId":"3UDTAB6HH6LRO17U79I9TKUGSHV90J","url":"https://gershmanlab.com/experiments/alicia/teaching/experiment/?hitId=3UDTAB6HH6LRO17U79I9TKUGSHV90J&workerId=ARYL3C6N9SVV1&assignmentId=3N1FSUEFL6MMCZ06TSFFG2Z6Z3TD4F&a=FS1N9&tp_a=FS1N9&b=3N1FSUEFL6MMCZ06TSFFG2Z6Z3TD4F&tp_b=3N1FSUEFL6MMCZ06TSFFG2Z6Z3TD4F&c=365799&tp_c=365799"},{"rt":4466,"stimulus":"\n                <p>Student's guess for coin weight: <b style=\"color:Tomato;\">0.63</b></p>\n                <p>You received a bonus of <b>$0</b>. Total bonus so far: <b>$0.34</b></b></p>\n                <p></p>\n                <p>Press any key to continue.</p>\n                ","response":"f","trial_type":"html-keyboard-response","trial_index":74,"time_elapsed":1157837,"internal_node_id":"0.0-73.0","params":{"nStudents":24,"maxFlips":30,"completionMinutes":45,"basePay":8,"maxBonus":9,"perTrialBonus":0.5,"perTrialBonusThreshold":0.05,"exampleCost":0.01},"classroomParams":{"A":{"a":1,"b":4},"B":{"a":4,"b":1},"C":{"a":2,"b":8},"D":{"a":8,"b":2}},"conditions":["nonSeqFull","nonSeqPartial","seqNoFeedback","seqFeedback"],"classroomPairings":[["A","B"],["C","D"]],"coinWeights":[0.2,0.5,0.8],"subjectId":"ARYL3C6N9SVV1","assignmentId":"3N1FSUEFL6MMCZ06TSFFG2Z6Z3TD4F","hitId":"3UDTAB6HH6LRO17U79I9TKUGSHV90J","url":"https://gershmanlab.com/experiments/alicia/teaching/experiment/?hitId=3UDTAB6HH6LRO17U79I9TKUGSHV90J&workerId=ARYL3C6N9SVV1&assignmentId=3N1FSUEFL6MMCZ06TSFFG2Z6Z3TD4F&a=FS1N9&tp_a=FS1N9&b=3N1FSUEFL6MMCZ06TSFFG2Z6Z3TD4F&tp_b=3N1FSUEFL6MMCZ06TSFFG2Z6Z3TD4F&c=365799&tp_c=365799"},{"rt":null,"stimulus":"<div style=\"font-size:60px;\">Next student</div>","response":null,"trial_type":"html-keyboard-response","trial_index":75,"time_elapsed":1159840,"internal_node_id":"0.0-74.0-0.0","params":{"nStudents":24,"maxFlips":30,"completionMinutes":45,"basePay":8,"maxBonus":9,"perTrialBonus":0.5,"perTrialBonusThreshold":0.05,"exampleCost":0.01},"classroomParams":{"A":{"a":1,"b":4},"B":{"a":4,"b":1},"C":{"a":2,"b":8},"D":{"a":8,"b":2}},"conditions":["nonSeqFull","nonSeqPartial","seqNoFeedback","seqFeedback"],"classroomPairings":[["A","B"],["C","D"]],"coinWeights":[0.2,0.5,0.8],"subjectId":"ARYL3C6N9SVV1","assignmentId":"3N1FSUEFL6MMCZ06TSFFG2Z6Z3TD4F","hitId":"3UDTAB6HH6LRO17U79I9TKUGSHV90J","url":"https://gershmanlab.com/experiments/alicia/teaching/experiment/?hitId=3UDTAB6HH6LRO17U79I9TKUGSHV90J&workerId=ARYL3C6N9SVV1&assignmentId=3N1FSUEFL6MMCZ06TSFFG2Z6Z3TD4F&a=FS1N9&tp_a=FS1N9&b=3N1FSUEFL6MMCZ06TSFFG2Z6Z3TD4F&tp_b=3N1FSUEFL6MMCZ06TSFFG2Z6Z3TD4F&c=365799&tp_c=365799"},{"rt":2117,"stimulus":"\n            <h4 style=\"color:Orange;\">Student 10</h4>\n            <h2>The weight of your coin is <b style=\"color:Tomato;\">0.5</b>.</h2>\n            <p>In this block, you will be giving <b>two</b> sets of examples to Student 10.</p>\n                <p>You will see the student's guess after the first set of examples. You will also receive feedback at the end of the block.</p>\n            <p>To earn the highest bonus, you will have to <b>take into consideration the student's guess</b> when you choose your second set of examples.</p>","response":0,"trial_type":"html-button-response","trial_index":76,"time_elapsed":1161959,"internal_node_id":"0.0-75.0","params":{"nStudents":24,"maxFlips":30,"completionMinutes":45,"basePay":8,"maxBonus":9,"perTrialBonus":0.5,"perTrialBonusThreshold":0.05,"exampleCost":0.01},"classroomParams":{"A":{"a":1,"b":4},"B":{"a":4,"b":1},"C":{"a":2,"b":8},"D":{"a":8,"b":2}},"conditions":["nonSeqFull","nonSeqPartial","seqNoFeedback","seqFeedback"],"classroomPairings":[["A","B"],["C","D"]],"coinWeights":[0.2,0.5,0.8],"subjectId":"ARYL3C6N9SVV1","assignmentId":"3N1FSUEFL6MMCZ06TSFFG2Z6Z3TD4F","hitId":"3UDTAB6HH6LRO17U79I9TKUGSHV90J","url":"https://gershmanlab.com/experiments/alicia/teaching/experiment/?hitId=3UDTAB6HH6LRO17U79I9TKUGSHV90J&workerId=ARYL3C6N9SVV1&assignmentId=3N1FSUEFL6MMCZ06TSFFG2Z6Z3TD4F&a=FS1N9&tp_a=FS1N9&b=3N1FSUEFL6MMCZ06TSFFG2Z6Z3TD4F&tp_b=3N1FSUEFL6MMCZ06TSFFG2Z6Z3TD4F&c=365799&tp_c=365799"},{"rt":30031,"response":{"heads":"2","tails":"2"},"type":"response","condition":"seqFeedback","trueTheta":0.5,"classrooms":["A","B"],"studentTrueClassroom":"B","exampleSet":"first","trial_type":"survey-html-form","trial_index":77,"time_elapsed":1191991,"internal_node_id":"0.0-76.0-0.0","params":{"nStudents":24,"maxFlips":30,"completionMinutes":45,"basePay":8,"maxBonus":9,"perTrialBonus":0.5,"perTrialBonusThreshold":0.05,"exampleCost":0.01},"classroomParams":{"A":{"a":1,"b":4},"B":{"a":4,"b":1},"C":{"a":2,"b":8},"D":{"a":8,"b":2}},"conditions":["nonSeqFull","nonSeqPartial","seqNoFeedback","seqFeedback"],"classroomPairings":[["A","B"],["C","D"]],"coinWeights":[0.2,0.5,0.8],"subjectId":"ARYL3C6N9SVV1","assignmentId":"3N1FSUEFL6MMCZ06TSFFG2Z6Z3TD4F","hitId":"3UDTAB6HH6LRO17U79I9TKUGSHV90J","url":"https://gershmanlab.com/experiments/alicia/teaching/experiment/?hitId=3UDTAB6HH6LRO17U79I9TKUGSHV90J&workerId=ARYL3C6N9SVV1&assignmentId=3N1FSUEFL6MMCZ06TSFFG2Z6Z3TD4F&a=FS1N9&tp_a=FS1N9&b=3N1FSUEFL6MMCZ06TSFFG2Z6Z3TD4F&tp_b=3N1FSUEFL6MMCZ06TSFFG2Z6Z3TD4F&c=365799&tp_c=365799","heads":2,"tails":2,"studentIndex":9,"studentTrueHypers":{"a":4,"b":1},"studentGuess":0.6666666666666666,"delta":0.16666666666666663,"totalExamples":4,"bonusSoFar":0.34},{"rt":null,"stimulus":"Sending examples to student... ","response":null,"trial_type":"html-keyboard-response","trial_index":78,"time_elapsed":1193763,"internal_node_id":"0.0-77.0","params":{"nStudents":24,"maxFlips":30,"completionMinutes":45,"basePay":8,"maxBonus":9,"perTrialBonus":0.5,"perTrialBonusThreshold":0.05,"exampleCost":0.01},"classroomParams":{"A":{"a":1,"b":4},"B":{"a":4,"b":1},"C":{"a":2,"b":8},"D":{"a":8,"b":2}},"conditions":["nonSeqFull","nonSeqPartial","seqNoFeedback","seqFeedback"],"classroomPairings":[["A","B"],["C","D"]],"coinWeights":[0.2,0.5,0.8],"subjectId":"ARYL3C6N9SVV1","assignmentId":"3N1FSUEFL6MMCZ06TSFFG2Z6Z3TD4F","hitId":"3UDTAB6HH6LRO17U79I9TKUGSHV90J","url":"https://gershmanlab.com/experiments/alicia/teaching/experiment/?hitId=3UDTAB6HH6LRO17U79I9TKUGSHV90J&workerId=ARYL3C6N9SVV1&assignmentId=3N1FSUEFL6MMCZ06TSFFG2Z6Z3TD4F&a=FS1N9&tp_a=FS1N9&b=3N1FSUEFL6MMCZ06TSFFG2Z6Z3TD4F&tp_b=3N1FSUEFL6MMCZ06TSFFG2Z6Z3TD4F&c=365799&tp_c=365799"},{"rt":null,"stimulus":"Examples sent to student! Waiting for student...","response":null,"trial_type":"html-keyboard-response","trial_index":79,"time_elapsed":1199271,"internal_node_id":"0.0-78.0","params":{"nStudents":24,"maxFlips":30,"completionMinutes":45,"basePay":8,"maxBonus":9,"perTrialBonus":0.5,"perTrialBonusThreshold":0.05,"exampleCost":0.01},"classroomParams":{"A":{"a":1,"b":4},"B":{"a":4,"b":1},"C":{"a":2,"b":8},"D":{"a":8,"b":2}},"conditions":["nonSeqFull","nonSeqPartial","seqNoFeedback","seqFeedback"],"classroomPairings":[["A","B"],["C","D"]],"coinWeights":[0.2,0.5,0.8],"subjectId":"ARYL3C6N9SVV1","assignmentId":"3N1FSUEFL6MMCZ06TSFFG2Z6Z3TD4F","hitId":"3UDTAB6HH6LRO17U79I9TKUGSHV90J","url":"https://gershmanlab.com/experiments/alicia/teaching/experiment/?hitId=3UDTAB6HH6LRO17U79I9TKUGSHV90J&workerId=ARYL3C6N9SVV1&assignmentId=3N1FSUEFL6MMCZ06TSFFG2Z6Z3TD4F&a=FS1N9&tp_a=FS1N9&b=3N1FSUEFL6MMCZ06TSFFG2Z6Z3TD4F&tp_b=3N1FSUEFL6MMCZ06TSFFG2Z6Z3TD4F&c=365799&tp_c=365799"},{"rt":3822,"stimulus":"\n                <p>Student's guess for coin weight: <b style=\"color:Tomato;\">0.67</b></p>\n                <p></b></p>\n                <p>You will now send another set of examples to your student. <b>Remember to take your student's guess into consideration so that you can earn the highest bonus possible!</b> </p>\n                <p>Press any key to continue.</p>\n                ","response":"f","trial_type":"html-keyboard-response","trial_index":80,"time_elapsed":1203095,"internal_node_id":"0.0-79.0","params":{"nStudents":24,"maxFlips":30,"completionMinutes":45,"basePay":8,"maxBonus":9,"perTrialBonus":0.5,"perTrialBonusThreshold":0.05,"exampleCost":0.01},"classroomParams":{"A":{"a":1,"b":4},"B":{"a":4,"b":1},"C":{"a":2,"b":8},"D":{"a":8,"b":2}},"conditions":["nonSeqFull","nonSeqPartial","seqNoFeedback","seqFeedback"],"classroomPairings":[["A","B"],["C","D"]],"coinWeights":[0.2,0.5,0.8],"subjectId":"ARYL3C6N9SVV1","assignmentId":"3N1FSUEFL6MMCZ06TSFFG2Z6Z3TD4F","hitId":"3UDTAB6HH6LRO17U79I9TKUGSHV90J","url":"https://gershmanlab.com/experiments/alicia/teaching/experiment/?hitId=3UDTAB6HH6LRO17U79I9TKUGSHV90J&workerId=ARYL3C6N9SVV1&assignmentId=3N1FSUEFL6MMCZ06TSFFG2Z6Z3TD4F&a=FS1N9&tp_a=FS1N9&b=3N1FSUEFL6MMCZ06TSFFG2Z6Z3TD4F&tp_b=3N1FSUEFL6MMCZ06TSFFG2Z6Z3TD4F&c=365799&tp_c=365799"},{"rt":6365,"response":{"heads":"2","tails":"2"},"type":"response","condition":"seqFeedback","trueTheta":0.5,"classrooms":["A","B"],"studentTrueClassroom":"B","exampleSet":"second","trial_type":"survey-html-form","trial_index":81,"time_elapsed":1209462,"internal_node_id":"0.0-80.0-0.0","params":{"nStudents":24,"maxFlips":30,"completionMinutes":45,"basePay":8,"maxBonus":9,"perTrialBonus":0.5,"perTrialBonusThreshold":0.05,"exampleCost":0.01},"classroomParams":{"A":{"a":1,"b":4},"B":{"a":4,"b":1},"C":{"a":2,"b":8},"D":{"a":8,"b":2}},"conditions":["nonSeqFull","nonSeqPartial","seqNoFeedback","seqFeedback"],"classroomPairings":[["A","B"],["C","D"]],"coinWeights":[0.2,0.5,0.8],"subjectId":"ARYL3C6N9SVV1","assignmentId":"3N1FSUEFL6MMCZ06TSFFG2Z6Z3TD4F","hitId":"3UDTAB6HH6LRO17U79I9TKUGSHV90J","url":"https://gershmanlab.com/experiments/alicia/teaching/experiment/?hitId=3UDTAB6HH6LRO17U79I9TKUGSHV90J&workerId=ARYL3C6N9SVV1&assignmentId=3N1FSUEFL6MMCZ06TSFFG2Z6Z3TD4F&a=FS1N9&tp_a=FS1N9&b=3N1FSUEFL6MMCZ06TSFFG2Z6Z3TD4F&tp_b=3N1FSUEFL6MMCZ06TSFFG2Z6Z3TD4F&c=365799&tp_c=365799","firstResponseHeads":2,"firstResponseTails":2,"secondResponseHeads":2,"secondResponseTails":2,"totalHeads":4,"totalTails":4,"studentIndex":9,"studentTrueHypers":{"a":4,"b":1},"studentGuess":0.6153846153846154,"delta":0.11538461538461542,"bonus":0,"bonusSoFar":0.34,"totalExamples":8},{"rt":null,"stimulus":"Sending examples to student... ","response":null,"trial_type":"html-keyboard-response","trial_index":82,"time_elapsed":1211217,"internal_node_id":"0.0-81.0","params":{"nStudents":24,"maxFlips":30,"completionMinutes":45,"basePay":8,"maxBonus":9,"perTrialBonus":0.5,"perTrialBonusThreshold":0.05,"exampleCost":0.01},"classroomParams":{"A":{"a":1,"b":4},"B":{"a":4,"b":1},"C":{"a":2,"b":8},"D":{"a":8,"b":2}},"conditions":["nonSeqFull","nonSeqPartial","seqNoFeedback","seqFeedback"],"classroomPairings":[["A","B"],["C","D"]],"coinWeights":[0.2,0.5,0.8],"subjectId":"ARYL3C6N9SVV1","assignmentId":"3N1FSUEFL6MMCZ06TSFFG2Z6Z3TD4F","hitId":"3UDTAB6HH6LRO17U79I9TKUGSHV90J","url":"https://gershmanlab.com/experiments/alicia/teaching/experiment/?hitId=3UDTAB6HH6LRO17U79I9TKUGSHV90J&workerId=ARYL3C6N9SVV1&assignmentId=3N1FSUEFL6MMCZ06TSFFG2Z6Z3TD4F&a=FS1N9&tp_a=FS1N9&b=3N1FSUEFL6MMCZ06TSFFG2Z6Z3TD4F&tp_b=3N1FSUEFL6MMCZ06TSFFG2Z6Z3TD4F&c=365799&tp_c=365799"},{"rt":null,"stimulus":"Examples sent to student! Waiting for student...","response":null,"trial_type":"html-keyboard-response","trial_index":83,"time_elapsed":1217226,"internal_node_id":"0.0-82.0","params":{"nStudents":24,"maxFlips":30,"completionMinutes":45,"basePay":8,"maxBonus":9,"perTrialBonus":0.5,"perTrialBonusThreshold":0.05,"exampleCost":0.01},"classroomParams":{"A":{"a":1,"b":4},"B":{"a":4,"b":1},"C":{"a":2,"b":8},"D":{"a":8,"b":2}},"conditions":["nonSeqFull","nonSeqPartial","seqNoFeedback","seqFeedback"],"classroomPairings":[["A","B"],["C","D"]],"coinWeights":[0.2,0.5,0.8],"subjectId":"ARYL3C6N9SVV1","assignmentId":"3N1FSUEFL6MMCZ06TSFFG2Z6Z3TD4F","hitId":"3UDTAB6HH6LRO17U79I9TKUGSHV90J","url":"https://gershmanlab.com/experiments/alicia/teaching/experiment/?hitId=3UDTAB6HH6LRO17U79I9TKUGSHV90J&workerId=ARYL3C6N9SVV1&assignmentId=3N1FSUEFL6MMCZ06TSFFG2Z6Z3TD4F&a=FS1N9&tp_a=FS1N9&b=3N1FSUEFL6MMCZ06TSFFG2Z6Z3TD4F&tp_b=3N1FSUEFL6MMCZ06TSFFG2Z6Z3TD4F&c=365799&tp_c=365799"},{"rt":2321,"stimulus":"\n                <p>Student 10's first guess for coin weight: <b style=\"color:Tomato\";>0.67</b></p>\n                <p>Student 10's second guess for coin weight: <b style=\"color:Tomato\";>0.62</b></p>\n                <p>You received a bonus of <b>$0.00</b> based on the student's second guess.</p>\n                <p>Total bonus so far: <b>$0.34</b></p>\n                <p>Press any key to continue.</p>\n                ","response":"d","trial_type":"html-keyboard-response","trial_index":84,"time_elapsed":1219550,"internal_node_id":"0.0-83.0","params":{"nStudents":24,"maxFlips":30,"completionMinutes":45,"basePay":8,"maxBonus":9,"perTrialBonus":0.5,"perTrialBonusThreshold":0.05,"exampleCost":0.01},"classroomParams":{"A":{"a":1,"b":4},"B":{"a":4,"b":1},"C":{"a":2,"b":8},"D":{"a":8,"b":2}},"conditions":["nonSeqFull","nonSeqPartial","seqNoFeedback","seqFeedback"],"classroomPairings":[["A","B"],["C","D"]],"coinWeights":[0.2,0.5,0.8],"subjectId":"ARYL3C6N9SVV1","assignmentId":"3N1FSUEFL6MMCZ06TSFFG2Z6Z3TD4F","hitId":"3UDTAB6HH6LRO17U79I9TKUGSHV90J","url":"https://gershmanlab.com/experiments/alicia/teaching/experiment/?hitId=3UDTAB6HH6LRO17U79I9TKUGSHV90J&workerId=ARYL3C6N9SVV1&assignmentId=3N1FSUEFL6MMCZ06TSFFG2Z6Z3TD4F&a=FS1N9&tp_a=FS1N9&b=3N1FSUEFL6MMCZ06TSFFG2Z6Z3TD4F&tp_b=3N1FSUEFL6MMCZ06TSFFG2Z6Z3TD4F&c=365799&tp_c=365799"},{"rt":null,"stimulus":"<div style=\"font-size:60px;\">Next student</div>","response":null,"trial_type":"html-keyboard-response","trial_index":85,"time_elapsed":1222053,"internal_node_id":"0.0-84.0-0.0","params":{"nStudents":24,"maxFlips":30,"completionMinutes":45,"basePay":8,"maxBonus":9,"perTrialBonus":0.5,"perTrialBonusThreshold":0.05,"exampleCost":0.01},"classroomParams":{"A":{"a":1,"b":4},"B":{"a":4,"b":1},"C":{"a":2,"b":8},"D":{"a":8,"b":2}},"conditions":["nonSeqFull","nonSeqPartial","seqNoFeedback","seqFeedback"],"classroomPairings":[["A","B"],["C","D"]],"coinWeights":[0.2,0.5,0.8],"subjectId":"ARYL3C6N9SVV1","assignmentId":"3N1FSUEFL6MMCZ06TSFFG2Z6Z3TD4F","hitId":"3UDTAB6HH6LRO17U79I9TKUGSHV90J","url":"https://gershmanlab.com/experiments/alicia/teaching/experiment/?hitId=3UDTAB6HH6LRO17U79I9TKUGSHV90J&workerId=ARYL3C6N9SVV1&assignmentId=3N1FSUEFL6MMCZ06TSFFG2Z6Z3TD4F&a=FS1N9&tp_a=FS1N9&b=3N1FSUEFL6MMCZ06TSFFG2Z6Z3TD4F&tp_b=3N1FSUEFL6MMCZ06TSFFG2Z6Z3TD4F&c=365799&tp_c=365799"},{"rt":3208,"stimulus":"\n            <h4 style=\"co