[{"rt":2548,"stimulus":"Welcome to the experiment. Press any key to begin.","response":" ","trial_type":"html-keyboard-response","trial_index":0,"time_elapsed":2578,"internal_node_id":"0.0-0.0","params":{"nStudents":24,"maxFlips":30,"completionMinutes":45,"basePay":8,"maxBonus":9,"perTrialBonus":0.5,"perTrialBonusThreshold":0.05,"exampleCost":0.01},"classroomParams":{"A":{"a":1,"b":4},"B":{"a":4,"b":1},"C":{"a":2,"b":8},"D":{"a":8,"b":2}},"conditions":["nonSeqFull","nonSeqPartial","seqNoFeedback","seqFeedback"],"classroomPairings":[["A","B"],["C","D"]],"coinWeights":[0.2,0.5,0.8],"subjectId":"AVFMTS8A5R4XK","assignmentId":"3VHP9MDGRO6M5NRHDDGNN0EF3TQFC5","hitId":"3J94SKDEKIB2MY6CGVTNWB9X0ALD5P","url":"https://gershmanlab.com/experiments/alicia/teaching/experiment/?hitId=3J94SKDEKIB2MY6CGVTNWB9X0ALD5P&workerId=AVFMTS8A5R4XK&assignmentId=3VHP9MDGRO6M5NRHDDGNN0EF3TQFC5&a=G9HV9&tp_a=G9HV9&b=3VHP9MDGRO6M5NRHDDGNN0EF3TQFC5&tp_b=3VHP9MDGRO6M5NRHDDGNN0EF3TQFC5&c=365799&tp_c=365799"},{"rt":3739,"stimulus":"\n        <h3>Please read this consent agreement carefully before deciding whether to participate in this experiment.</h3>\n        <p><b>Purpose of the research:</b> To examine how people teach effectively.</p>\n        <p><b>What you will do in this research:</b> You will teach students the weights of different coins.</p>\n        <p><b>Time required:</b> This experiment will take 45 minutes to complete.</p>\n        <p><b>Risks:</b> There are no anticipated risks associated with participating in this study.             The effects of participating should be comparable to those you would experience from viewing a computer monitor             and using a mouse and keyboard for the duration of the experiment.</p>\n        <p><b>Benefits:</b> The study provides important information about the nature of teaching.</p>\n        <p><b>Compensation:</b> You will receive <b>$8</b> for completing the experiment and a performance bonus of up to <b>$9</b>.</p>\n        <p><b>Confidentiality:</b> Your participation in this study will remain confidential.             No personally identifiable information will be associated with your data.             Your de-identified data may be shared with other researchers and used in future projects.</p>\n        <p><b>Participation and withdrawal:</b> Your participation in this study is completely voluntary and             you may refuse to participate or you may choose to withdraw at any time without penalty or loss of\n            benefits to which you are otherwise entitled.</p>\n        <p><b>How to contact the researcher:</b> If you have questions or concerns about your participation            or payment, or want to request a summary of research findings, please contact\n            Alicia Chen, aliciachen@college.harvard.edu.</p>\n        <p><b>Whom to contact about your rights in this research:</b> For questions, concerns, suggestions,             or complaints that have not been or cannot be addressed by the researcher, or to report             research-related harm, please contact the Committee on the Use of Human Subjects in Research at Harvard University,             1414 Massachusetts Avenue, Second Floor, Cambridge, MA 02138. Phone: 617-496-2847. Email: cuhs@fas.harvard.edu.</p>\n        ","response":0,"trial_type":"html-button-response","trial_index":1,"time_elapsed":6319,"internal_node_id":"0.0-1.0","params":{"nStudents":24,"maxFlips":30,"completionMinutes":45,"basePay":8,"maxBonus":9,"perTrialBonus":0.5,"perTrialBonusThreshold":0.05,"exampleCost":0.01},"classroomParams":{"A":{"a":1,"b":4},"B":{"a":4,"b":1},"C":{"a":2,"b":8},"D":{"a":8,"b":2}},"conditions":["nonSeqFull","nonSeqPartial","seqNoFeedback","seqFeedback"],"classroomPairings":[["A","B"],["C","D"]],"coinWeights":[0.2,0.5,0.8],"subjectId":"AVFMTS8A5R4XK","assignmentId":"3VHP9MDGRO6M5NRHDDGNN0EF3TQFC5","hitId":"3J94SKDEKIB2MY6CGVTNWB9X0ALD5P","url":"https://gershmanlab.com/experiments/alicia/teaching/experiment/?hitId=3J94SKDEKIB2MY6CGVTNWB9X0ALD5P&workerId=AVFMTS8A5R4XK&assignmentId=3VHP9MDGRO6M5NRHDDGNN0EF3TQFC5&a=G9HV9&tp_a=G9HV9&b=3VHP9MDGRO6M5NRHDDGNN0EF3TQFC5&tp_b=3VHP9MDGRO6M5NRHDDGNN0EF3TQFC5&c=365799&tp_c=365799"},{"view_history":[{"page_index":0,"viewing_time":27082},{"page_index":1,"viewing_time":76915},{"page_index":2,"viewing_time":75981},{"page_index":3,"viewing_time":69585},{"page_index":4,"viewing_time":27833},{"page_index":5,"viewing_time":26306},{"page_index":6,"viewing_time":24679}],"rt":328381,"trial_type":"instructions","trial_index":2,"time_elapsed":334703,"internal_node_id":"0.0-2.0-0.0","params":{"nStudents":24,"maxFlips":30,"completionMinutes":45,"basePay":8,"maxBonus":9,"perTrialBonus":0.5,"perTrialBonusThreshold":0.05,"exampleCost":0.01},"classroomParams":{"A":{"a":1,"b":4},"B":{"a":4,"b":1},"C":{"a":2,"b":8},"D":{"a":8,"b":2}},"conditions":["nonSeqFull","nonSeqPartial","seqNoFeedback","seqFeedback"],"classroomPairings":[["A","B"],["C","D"]],"coinWeights":[0.2,0.5,0.8],"subjectId":"AVFMTS8A5R4XK","assignmentId":"3VHP9MDGRO6M5NRHDDGNN0EF3TQFC5","hitId":"3J94SKDEKIB2MY6CGVTNWB9X0ALD5P","url":"https://gershmanlab.com/experiments/alicia/teaching/experiment/?hitId=3J94SKDEKIB2MY6CGVTNWB9X0ALD5P&workerId=AVFMTS8A5R4XK&assignmentId=3VHP9MDGRO6M5NRHDDGNN0EF3TQFC5&a=G9HV9&tp_a=G9HV9&b=3VHP9MDGRO6M5NRHDDGNN0EF3TQFC5&tp_b=3VHP9MDGRO6M5NRHDDGNN0EF3TQFC5&c=365799&tp_c=365799"},{"rt":254420,"response":{"Q0":"Students in different classrooms will have seen a different number of heads and tails before seeing the examples you select for them.","Q1":"By <b>considering the student's classroom information</b> so that I can teach efficiently and accurately/helpfully at the same time (because each example I give to the student costs money!).","Q2":"The coin lands heads 90% of the time.","Q3":"Yes, I might encounter the same student twice.","Q4":"The students are all on planet Earth, where they tend to believe the vast majority of coins will be fair.","Q5":"Based on both guesses."},"question_order":[1,2,5,0,3,4],"trial_type":"survey-multi-choice","trial_index":3,"time_elapsed":589127,"internal_node_id":"0.0-2.0-1.0","params":{"nStudents":24,"maxFlips":30,"completionMinutes":45,"basePay":8,"maxBonus":9,"perTrialBonus":0.5,"perTrialBonusThreshold":0.05,"exampleCost":0.01},"classroomParams":{"A":{"a":1,"b":4},"B":{"a":4,"b":1},"C":{"a":2,"b":8},"D":{"a":8,"b":2}},"conditions":["nonSeqFull","nonSeqPartial","seqNoFeedback","seqFeedback"],"classroomPairings":[["A","B"],["C","D"]],"coinWeights":[0.2,0.5,0.8],"subjectId":"AVFMTS8A5R4XK","assignmentId":"3VHP9MDGRO6M5NRHDDGNN0EF3TQFC5","hitId":"3J94SKDEKIB2MY6CGVTNWB9X0ALD5P","url":"https://gershmanlab.com/experiments/alicia/teaching/experiment/?hitId=3J94SKDEKIB2MY6CGVTNWB9X0ALD5P&workerId=AVFMTS8A5R4XK&assignmentId=3VHP9MDGRO6M5NRHDDGNN0EF3TQFC5&a=G9HV9&tp_a=G9HV9&b=3VHP9MDGRO6M5NRHDDGNN0EF3TQFC5&tp_b=3VHP9MDGRO6M5NRHDDGNN0EF3TQFC5&c=365799&tp_c=365799","pass":false},{"rt":4148,"stimulus":"Oops, you have missed question(s) on the comprehension check! We'll show you the instructions again.","response":0,"trial_type":"html-button-response","trial_index":4,"time_elapsed":593280,"internal_node_id":"0.0-2.0-2.0-0.0","params":{"nStudents":24,"maxFlips":30,"completionMinutes":45,"basePay":8,"maxBonus":9,"perTrialBonus":0.5,"perTrialBonusThreshold":0.05,"exampleCost":0.01},"classroomParams":{"A":{"a":1,"b":4},"B":{"a":4,"b":1},"C":{"a":2,"b":8},"D":{"a":8,"b":2}},"conditions":["nonSeqFull","nonSeqPartial","seqNoFeedback","seqFeedback"],"classroomPairings":[["A","B"],["C","D"]],"coinWeights":[0.2,0.5,0.8],"subjectId":"AVFMTS8A5R4XK","assignmentId":"3VHP9MDGRO6M5NRHDDGNN0EF3TQFC5","hitId":"3J94SKDEKIB2MY6CGVTNWB9X0ALD5P","url":"https://gershmanlab.com/experiments/alicia/teaching/experiment/?hitId=3J94SKDEKIB2MY6CGVTNWB9X0ALD5P&workerId=AVFMTS8A5R4XK&assignmentId=3VHP9MDGRO6M5NRHDDGNN0EF3TQFC5&a=G9HV9&tp_a=G9HV9&b=3VHP9MDGRO6M5NRHDDGNN0EF3TQFC5&tp_b=3VHP9MDGRO6M5NRHDDGNN0EF3TQFC5&c=365799&tp_c=365799"},{"view_history":[{"page_index":0,"viewing_time":2721},{"page_index":1,"viewing_time":1559},{"page_index":2,"viewing_time":4337},{"page_index":3,"viewing_time":10953},{"page_index":4,"viewing_time":17594},{"page_index":5,"viewing_time":5246},{"page_index":6,"viewing_time":26643}],"rt":69054,"trial_type":"instructions","trial_index":5,"time_elapsed":662335,"internal_node_id":"0.0-2.1-0.1","params":{"nStudents":24,"maxFlips":30,"completionMinutes":45,"basePay":8,"maxBonus":9,"perTrialBonus":0.5,"perTrialBonusThreshold":0.05,"exampleCost":0.01},"classroomParams":{"A":{"a":1,"b":4},"B":{"a":4,"b":1},"C":{"a":2,"b":8},"D":{"a":8,"b":2}},"conditions":["nonSeqFull","nonSeqPartial","seqNoFeedback","seqFeedback"],"classroomPairings":[["A","B"],["C","D"]],"coinWeights":[0.2,0.5,0.8],"subjectId":"AVFMTS8A5R4XK","assignmentId":"3VHP9MDGRO6M5NRHDDGNN0EF3TQFC5","hitId":"3J94SKDEKIB2MY6CGVTNWB9X0ALD5P","url":"https://gershmanlab.com/experiments/alicia/teaching/experiment/?hitId=3J94SKDEKIB2MY6CGVTNWB9X0ALD5P&workerId=AVFMTS8A5R4XK&assignmentId=3VHP9MDGRO6M5NRHDDGNN0EF3TQFC5&a=G9HV9&tp_a=G9HV9&b=3VHP9MDGRO6M5NRHDDGNN0EF3TQFC5&tp_b=3VHP9MDGRO6M5NRHDDGNN0EF3TQFC5&c=365799&tp_c=365799"},{"rt":42691,"response":{"Q0":"Students in different classrooms will have seen a different number of heads and tails before seeing the examples you select for them.","Q1":"By giving 30 examples (the maximum) on each trial so I can make sure that the students' guesses are as accurate as possible.","Q2":"The coin lands heads 90% of the time.","Q3":"Yes, I might encounter the same student twice.","Q4":"The students are all on planet Earth, where they tend to believe the vast majority of coins will be fair.","Q5":"Based on both guesses."},"question_order":[5,1,2,4,0,3],"trial_type":"survey-multi-choice","trial_index":6,"time_elapsed":705028,"internal_node_id":"0.0-2.1-1.1","params":{"nStudents":24,"maxFlips":30,"completionMinutes":45,"basePay":8,"maxBonus":9,"perTrialBonus":0.5,"perTrialBonusThreshold":0.05,"exampleCost":0.01},"classroomParams":{"A":{"a":1,"b":4},"B":{"a":4,"b":1},"C":{"a":2,"b":8},"D":{"a":8,"b":2}},"conditions":["nonSeqFull","nonSeqPartial","seqNoFeedback","seqFeedback"],"classroomPairings":[["A","B"],["C","D"]],"coinWeights":[0.2,0.5,0.8],"subjectId":"AVFMTS8A5R4XK","assignmentId":"3VHP9MDGRO6M5NRHDDGNN0EF3TQFC5","hitId":"3J94SKDEKIB2MY6CGVTNWB9X0ALD5P","url":"https://gershmanlab.com/experiments/alicia/teaching/experiment/?hitId=3J94SKDEKIB2MY6CGVTNWB9X0ALD5P&workerId=AVFMTS8A5R4XK&assignmentId=3VHP9MDGRO6M5NRHDDGNN0EF3TQFC5&a=G9HV9&tp_a=G9HV9&b=3VHP9MDGRO6M5NRHDDGNN0EF3TQFC5&tp_b=3VHP9MDGRO6M5NRHDDGNN0EF3TQFC5&c=365799&tp_c=365799","pass":false},{"rt":2073,"stimulus":"Oops, you have missed question(s) on the comprehension check! We'll show you the instructions again.","response":0,"trial_type":"html-button-response","trial_index":7,"time_elapsed":707104,"internal_node_id":"0.0-2.1-2.1-0.1","params":{"nStudents":24,"maxFlips":30,"completionMinutes":45,"basePay":8,"maxBonus":9,"perTrialBonus":0.5,"perTrialBonusThreshold":0.05,"exampleCost":0.01},"classroomParams":{"A":{"a":1,"b":4},"B":{"a":4,"b":1},"C":{"a":2,"b":8},"D":{"a":8,"b":2}},"conditions":["nonSeqFull","nonSeqPartial","seqNoFeedback","seqFeedback"],"classroomPairings":[["A","B"],["C","D"]],"coinWeights":[0.2,0.5,0.8],"subjectId":"AVFMTS8A5R4XK","assignmentId":"3VHP9MDGRO6M5NRHDDGNN0EF3TQFC5","hitId":"3J94SKDEKIB2MY6CGVTNWB9X0ALD5P","url":"https://gershmanlab.com/experiments/alicia/teaching/experiment/?hitId=3J94SKDEKIB2MY6CGVTNWB9X0ALD5P&workerId=AVFMTS8A5R4XK&assignmentId=3VHP9MDGRO6M5NRHDDGNN0EF3TQFC5&a=G9HV9&tp_a=G9HV9&b=3VHP9MDGRO6M5NRHDDGNN0EF3TQFC5&tp_b=3VHP9MDGRO6M5NRHDDGNN0EF3TQFC5&c=365799&tp_c=365799"},{"view_history":[{"page_index":0,"viewing_time":1848},{"page_index":1,"viewing_time":32437},{"page_index":2,"viewing_time":16206},{"page_index":3,"viewing_time":1539},{"page_index":4,"viewing_time":1413},{"page_index":5,"viewing_time":1400},{"page_index":6,"viewing_time":3773}],"rt":58617,"trial_type":"instructions","trial_index":8,"time_elapsed":765721,"internal_node_id":"0.0-2.2-0.2","params":{"nStudents":24,"maxFlips":30,"completionMinutes":45,"basePay":8,"maxBonus":9,"perTrialBonus":0.5,"perTrialBonusThreshold":0.05,"exampleCost":0.01},"classroomParams":{"A":{"a":1,"b":4},"B":{"a":4,"b":1},"C":{"a":2,"b":8},"D":{"a":8,"b":2}},"conditions":["nonSeqFull","nonSeqPartial","seqNoFeedback","seqFeedback"],"classroomPairings":[["A","B"],["C","D"]],"coinWeights":[0.2,0.5,0.8],"subjectId":"AVFMTS8A5R4XK","assignmentId":"3VHP9MDGRO6M5NRHDDGNN0EF3TQFC5","hitId":"3J94SKDEKIB2MY6CGVTNWB9X0ALD5P","url":"https://gershmanlab.com/experiments/alicia/teaching/experiment/?hitId=3J94SKDEKIB2MY6CGVTNWB9X0ALD5P&workerId=AVFMTS8A5R4XK&assignmentId=3VHP9MDGRO6M5NRHDDGNN0EF3TQFC5&a=G9HV9&tp_a=G9HV9&b=3VHP9MDGRO6M5NRHDDGNN0EF3TQFC5&tp_b=3VHP9MDGRO6M5NRHDDGNN0EF3TQFC5&c=365799&tp_c=365799"},{"rt":90681,"response":{"Q0":"The classrooms are all the same and aren't helpful for deciding how to teach.","Q1":"By giving 30 examples (the maximum) on each trial so I can make sure that the students' guesses are as accurate as possible.","Q2":"The coin lands heads 90% of the time.","Q3":"Yes, I might encounter the same student twice.","Q4":"The students are also on the same alien planet as you, where coins can be unfair.","Q5":"Based on both guesses."},"question_order":[0,1,4,2,5,3],"trial_type":"survey-multi-choice","trial_index":9,"time_elapsed":856405,"internal_node_id":"0.0-2.2-1.2","params":{"nStudents":24,"maxFlips":30,"completionMinutes":45,"basePay":8,"maxBonus":9,"perTrialBonus":0.5,"perTrialBonusThreshold":0.05,"exampleCost":0.01},"classroomParams":{"A":{"a":1,"b":4},"B":{"a":4,"b":1},"C":{"a":2,"b":8},"D":{"a":8,"b":2}},"conditions":["nonSeqFull","nonSeqPartial","seqNoFeedback","seqFeedback"],"classroomPairings":[["A","B"],["C","D"]],"coinWeights":[0.2,0.5,0.8],"subjectId":"AVFMTS8A5R4XK","assignmentId":"3VHP9MDGRO6M5NRHDDGNN0EF3TQFC5","hitId":"3J94SKDEKIB2MY6CGVTNWB9X0ALD5P","url":"https://gershmanlab.com/experiments/alicia/teaching/experiment/?hitId=3J94SKDEKIB2MY6CGVTNWB9X0ALD5P&workerId=AVFMTS8A5R4XK&assignmentId=3VHP9MDGRO6M5NRHDDGNN0EF3TQFC5&a=G9HV9&tp_a=G9HV9&b=3VHP9MDGRO6M5NRHDDGNN0EF3TQFC5&tp_b=3VHP9MDGRO6M5NRHDDGNN0EF3TQFC5&c=365799&tp_c=365799","pass":false},{"rt":2074,"stimulus":"Oops, you have missed question(s) on the comprehension check! We'll show you the instructions again.","response":0,"trial_type":"html-button-response","trial_index":10,"time_elapsed":858483,"internal_node_id":"0.0-2.2-2.2-0.2","params":{"nStudents":24,"maxFlips":30,"completionMinutes":45,"basePay":8,"maxBonus":9,"perTrialBonus":0.5,"perTrialBonusThreshold":0.05,"exampleCost":0.01},"classroomParams":{"A":{"a":1,"b":4},"B":{"a":4,"b":1},"C":{"a":2,"b":8},"D":{"a":8,"b":2}},"conditions":["nonSeqFull","nonSeqPartial","seqNoFeedback","seqFeedback"],"classroomPairings":[["A","B"],["C","D"]],"coinWeights":[0.2,0.5,0.8],"subjectId":"AVFMTS8A5R4XK","assignmentId":"3VHP9MDGRO6M5NRHDDGNN0EF3TQFC5","hitId":"3J94SKDEKIB2MY6CGVTNWB9X0ALD5P","url":"https://gershmanlab.com/experiments/alicia/teaching/experiment/?hitId=3J94SKDEKIB2MY6CGVTNWB9X0ALD5P&workerId=AVFMTS8A5R4XK&assignmentId=3VHP9MDGRO6M5NRHDDGNN0EF3TQFC5&a=G9HV9&tp_a=G9HV9&b=3VHP9MDGRO6M5NRHDDGNN0EF3TQFC5&tp_b=3VHP9MDGRO6M5NRHDDGNN0EF3TQFC5&c=365799&tp_c=365799"},{"view_history":[{"page_index":0,"viewing_time":1337},{"page_index":1,"viewing_time":199},{"page_index":2,"viewing_time":1474},{"page_index":3,"viewing_time":1091},{"page_index":4,"viewing_time":1433},{"page_index":5,"viewing_time":1152},{"page_index":6,"viewing_time":1367}],"rt":8052,"trial_type":"instructions","trial_index":11,"time_elapsed":866535,"internal_node_id":"0.0-2.3-0.3","params":{"nStudents":24,"maxFlips":30,"completionMinutes":45,"basePay":8,"maxBonus":9,"perTrialBonus":0.5,"perTrialBonusThreshold":0.05,"exampleCost":0.01},"classroomParams":{"A":{"a":1,"b":4},"B":{"a":4,"b":1},"C":{"a":2,"b":8},"D":{"a":8,"b":2}},"conditions":["nonSeqFull","nonSeqPartial","seqNoFeedback","seqFeedback"],"classroomPairings":[["A","B"],["C","D"]],"coinWeights":[0.2,0.5,0.8],"subjectId":"AVFMTS8A5R4XK","assignmentId":"3VHP9MDGRO6M5NRHDDGNN0EF3TQFC5","hitId":"3J94SKDEKIB2MY6CGVTNWB9X0ALD5P","url":"https://gershmanlab.com/experiments/alicia/teaching/experiment/?hitId=3J94SKDEKIB2MY6CGVTNWB9X0ALD5P&workerId=AVFMTS8A5R4XK&assignmentId=3VHP9MDGRO6M5NRHDDGNN0EF3TQFC5&a=G9HV9&tp_a=G9HV9&b=3VHP9MDGRO6M5NRHDDGNN0EF3TQFC5&tp_b=3VHP9MDGRO6M5NRHDDGNN0EF3TQFC5&c=365799&tp_c=365799"},{"rt":15164,"response":{"Q0":"Students in different classrooms will have seen a different number of heads and tails before seeing the examples you select for them.","Q1":"By giving 30 examples (the maximum) on each trial so I can make sure that the students' guesses are as accurate as possible.","Q2":"The coin lands heads 90% of the time.","Q3":"Yes, I might encounter the same student twice.","Q4":"The students are also on the same alien planet as you, where coins can be unfair.","Q5":"Based on both guesses."},"question_order":[2,1,0,4,3,5],"trial_type":"survey-multi-choice","trial_index":12,"time_elapsed":881701,"internal_node_id":"0.0-2.3-1.3","params":{"nStudents":24,"maxFlips":30,"completionMinutes":45,"basePay":8,"maxBonus":9,"perTrialBonus":0.5,"perTrialBonusThreshold":0.05,"exampleCost":0.01},"classroomParams":{"A":{"a":1,"b":4},"B":{"a":4,"b":1},"C":{"a":2,"b":8},"D":{"a":8,"b":2}},"conditions":["nonSeqFull","nonSeqPartial","seqNoFeedback","seqFeedback"],"classroomPairings":[["A","B"],["C","D"]],"coinWeights":[0.2,0.5,0.8],"subjectId":"AVFMTS8A5R4XK","assignmentId":"3VHP9MDGRO6M5NRHDDGNN0EF3TQFC5","hitId":"3J94SKDEKIB2MY6CGVTNWB9X0ALD5P","url":"https://gershmanlab.com/experiments/alicia/teaching/experiment/?hitId=3J94SKDEKIB2MY6CGVTNWB9X0ALD5P&workerId=AVFMTS8A5R4XK&assignmentId=3VHP9MDGRO6M5NRHDDGNN0EF3TQFC5&a=G9HV9&tp_a=G9HV9&b=3VHP9MDGRO6M5NRHDDGNN0EF3TQFC5&tp_b=3VHP9MDGRO6M5NRHDDGNN0EF3TQFC5&c=365799&tp_c=365799","pass":false},{"rt":2265,"stimulus":"Oops, you have missed question(s) on the comprehension check! We'll show you the instructions again.","response":0,"trial_type":"html-button-response","trial_index":13,"time_elapsed":883971,"internal_node_id":"0.0-2.3-2.3-0.3","params":{"nStudents":24,"maxFlips":30,"completionMinutes":45,"basePay":8,"maxBonus":9,"perTrialBonus":0.5,"perTrialBonusThreshold":0.05,"exampleCost":0.01},"classroomParams":{"A":{"a":1,"b":4},"B":{"a":4,"b":1},"C":{"a":2,"b":8},"D":{"a":8,"b":2}},"conditions":["nonSeqFull","nonSeqPartial","seqNoFeedback","seqFeedback"],"classroomPairings":[["A","B"],["C","D"]],"coinWeights":[0.2,0.5,0.8],"subjectId":"AVFMTS8A5R4XK","assignmentId":"3VHP9MDGRO6M5NRHDDGNN0EF3TQFC5","hitId":"3J94SKDEKIB2MY6CGVTNWB9X0ALD5P","url":"https://gershmanlab.com/experiments/alicia/teaching/experiment/?hitId=3J94SKDEKIB2MY6CGVTNWB9X0ALD5P&workerId=AVFMTS8A5R4XK&assignmentId=3VHP9MDGRO6M5NRHDDGNN0EF3TQFC5&a=G9HV9&tp_a=G9HV9&b=3VHP9MDGRO6M5NRHDDGNN0EF3TQFC5&tp_b=3VHP9MDGRO6M5NRHDDGNN0EF3TQFC5&c=365799&tp_c=365799"},{"view_history":[{"page_index":0,"viewing_time":1289},{"page_index":1,"viewing_time":976},{"page_index":2,"viewing_time":1645},{"page_index":3,"viewing_time":1196},{"page_index":4,"viewing_time":1217},{"page_index":5,"viewing_time":1280},{"page_index":6,"viewing_time":1351}],"rt":8954,"trial_type":"instructions","trial_index":14,"time_elapsed":892926,"internal_node_id":"0.0-2.4-0.4","params":{"nStudents":24,"maxFlips":30,"completionMinutes":45,"basePay":8,"maxBonus":9,"perTrialBonus":0.5,"perTrialBonusThreshold":0.05,"exampleCost":0.01},"classroomParams":{"A":{"a":1,"b":4},"B":{"a":4,"b":1},"C":{"a":2,"b":8},"D":{"a":8,"b":2}},"conditions":["nonSeqFull","nonSeqPartial","seqNoFeedback","seqFeedback"],"classroomPairings":[["A","B"],["C","D"]],"coinWeights":[0.2,0.5,0.8],"subjectId":"AVFMTS8A5R4XK","assignmentId":"3VHP9MDGRO6M5NRHDDGNN0EF3TQFC5","hitId":"3J94SKDEKIB2MY6CGVTNWB9X0ALD5P","url":"https://gershmanlab.com/experiments/alicia/teaching/experiment/?hitId=3J94SKDEKIB2MY6CGVTNWB9X0ALD5P&workerId=AVFMTS8A5R4XK&assignmentId=3VHP9MDGRO6M5NRHDDGNN0EF3TQFC5&a=G9HV9&tp_a=G9HV9&b=3VHP9MDGRO6M5NRHDDGNN0EF3TQFC5&tp_b=3VHP9MDGRO6M5NRHDDGNN0EF3TQFC5&c=365799&tp_c=365799"},{"rt":14919,"response":{"Q0":"Students in different classrooms have seen a different proportion of fair and unfair coins before seeing the examples you select for them.","Q1":"By giving 30 examples (the maximum) on each trial so I can make sure that the students' guesses are as accurate as possible.","Q2":"The coin lands heads 90% of the time.","Q3":"Yes, I might encounter the same student twice.","Q4":"The students are also on the same alien planet as you, where coins can be unfair.","Q5":"Based on both guesses."},"question_order":[2,5,0,1,4,3],"trial_type":"survey-multi-choice","trial_index":15,"time_elapsed":907847,"internal_node_id":"0.0-2.4-1.4","params":{"nStudents":24,"maxFlips":30,"completionMinutes":45,"basePay":8,"maxBonus":9,"perTrialBonus":0.5,"perTrialBonusThreshold":0.05,"exampleCost":0.01},"classroomParams":{"A":{"a":1,"b":4},"B":{"a":4,"b":1},"C":{"a":2,"b":8},"D":{"a":8,"b":2}},"conditions":["nonSeqFull","nonSeqPartial","seqNoFeedback","seqFeedback"],"classroomPairings":[["A","B"],["C","D"]],"coinWeights":[0.2,0.5,0.8],"subjectId":"AVFMTS8A5R4XK","assignmentId":"3VHP9MDGRO6M5NRHDDGNN0EF3TQFC5","hitId":"3J94SKDEKIB2MY6CGVTNWB9X0ALD5P","url":"https://gershmanlab.com/experiments/alicia/teaching/experiment/?hitId=3J94SKDEKIB2MY6CGVTNWB9X0ALD5P&workerId=AVFMTS8A5R4XK&assignmentId=3VHP9MDGRO6M5NRHDDGNN0EF3TQFC5&a=G9HV9&tp_a=G9HV9&b=3VHP9MDGRO6M5NRHDDGNN0EF3TQFC5&tp_b=3VHP9MDGRO6M5NRHDDGNN0EF3TQFC5&c=365799&tp_c=365799","pass":false},{"rt":2663,"stimulus":"Oops, you have missed question(s) on the comprehension check! We'll show you the instructions again.","response":0,"trial_type":"html-button-response","trial_index":16,"time_elapsed":910513,"internal_node_id":"0.0-2.4-2.4-0.4","params":{"nStudents":24,"maxFlips":30,"completionMinutes":45,"basePay":8,"maxBonus":9,"perTrialBonus":0.5,"perTrialBonusThreshold":0.05,"exampleCost":0.01},"classroomParams":{"A":{"a":1,"b":4},"B":{"a":4,"b":1},"C":{"a":2,"b":8},"D":{"a":8,"b":2}},"conditions":["nonSeqFull","nonSeqPartial","seqNoFeedback","seqFeedback"],"classroomPairings":[["A","B"],["C","D"]],"coinWeights":[0.2,0.5,0.8],"subjectId":"AVFMTS8A5R4XK","assignmentId":"3VHP9MDGRO6M5NRHDDGNN0EF3TQFC5","hitId":"3J94SKDEKIB2MY6CGVTNWB9X0ALD5P","url":"https://gershmanlab.com/experiments/alicia/teaching/experiment/?hitId=3J94SKDEKIB2MY6CGVTNWB9X0ALD5P&workerId=AVFMTS8A5R4XK&assignmentId=3VHP9MDGRO6M5NRHDDGNN0EF3TQFC5&a=G9HV9&tp_a=G9HV9&b=3VHP9MDGRO6M5NRHDDGNN0EF3TQFC5&tp_b=3VHP9MDGRO6M5NRHDDGNN0EF3TQFC5&c=365799&tp_c=365799"},{"view_history":[{"page_index":0,"viewing_time":357501},{"page_index":1,"viewing_time":2703},{"page_index":2,"viewing_time":3312},{"page_index":3,"viewing_time":3240},{"page_index":4,"viewing_time":1598},{"page_index":5,"viewing_time":3049},{"page_index":6,"viewing_time":3061}],"rt":374464,"trial_type":"instructions","trial_index":17,"time_elapsed":1284980,"internal_node_id":"0.0-2.5-0.5","params":{"nStudents":24,"maxFlips":30,"completionMinutes":45,"basePay":8,"maxBonus":9,"perTrialBonus":0.5,"perTrialBonusThreshold":0.05,"exampleCost":0.01},"classroomParams":{"A":{"a":1,"b":4},"B":{"a":4,"b":1},"C":{"a":2,"b":8},"D":{"a":8,"b":2}},"conditions":["nonSeqFull","nonSeqPartial","seqNoFeedback","seqFeedback"],"classroomPairings":[["A","B"],["C","D"]],"coinWeights":[0.2,0.5,0.8],"subjectId":"AVFMTS8A5R4XK","assignmentId":"3VHP9MDGRO6M5NRHDDGNN0EF3TQFC5","hitId":"3J94SKDEKIB2MY6CGVTNWB9X0ALD5P","url":"https://gershmanlab.com/experiments/alicia/teaching/experiment/?hitId=3J94SKDEKIB2MY6CGVTNWB9X0ALD5P&workerId=AVFMTS8A5R4XK&assignmentId=3VHP9MDGRO6M5NRHDDGNN0EF3TQFC5&a=G9HV9&tp_a=G9HV9&b=3VHP9MDGRO6M5NRHDDGNN0EF3TQFC5&tp_b=3VHP9MDGRO6M5NRHDDGNN0EF3TQFC5&c=365799&tp_c=365799"},{"rt":45817,"response":{"Q0":"Students in different classrooms will have seen a different number of heads and tails before seeing the examples you select for them.","Q1":"By <b>considering the student's classroom information</b> so that I can teach efficiently and accurately/helpfully at the same time (because each example I give to the student costs money!).","Q2":"The coin lands heads 90% of the time.","Q3":"Yes, I might encounter the same student twice.","Q4":"The students are also on the same alien planet as you, where coins can be unfair.","Q5":"Based on both guesses."},"question_order":[0,4,2,1,3,5],"trial_type":"survey-multi-choice","trial_index":18,"time_elapsed":1330799,"internal_node_id":"0.0-2.5-1.5","params":{"nStudents":24,"maxFlips":30,"completionMinutes":45,"basePay":8,"maxBonus":9,"perTrialBonus":0.5,"perTrialBonusThreshold":0.05,"exampleCost":0.01},"classroomParams":{"A":{"a":1,"b":4},"B":{"a":4,"b":1},"C":{"a":2,"b":8},"D":{"a":8,"b":2}},"conditions":["nonSeqFull","nonSeqPartial","seqNoFeedback","seqFeedback"],"classroomPairings":[["A","B"],["C","D"]],"coinWeights":[0.2,0.5,0.8],"subjectId":"AVFMTS8A5R4XK","assignmentId":"3VHP9MDGRO6M5NRHDDGNN0EF3TQFC5","hitId":"3J94SKDEKIB2MY6CGVTNWB9X0ALD5P","url":"https://gershmanlab.com/experiments/alicia/teaching/experiment/?hitId=3J94SKDEKIB2MY6CGVTNWB9X0ALD5P&workerId=AVFMTS8A5R4XK&assignmentId=3VHP9MDGRO6M5NRHDDGNN0EF3TQFC5&a=G9HV9&tp_a=G9HV9&b=3VHP9MDGRO6M5NRHDDGNN0EF3TQFC5&tp_b=3VHP9MDGRO6M5NRHDDGNN0EF3TQFC5&c=365799&tp_c=365799","pass":false},{"rt":1980,"stimulus":"Oops, you have missed question(s) on the comprehension check! We'll show you the instructions again.","response":0,"trial_type":"html-button-response","trial_index":19,"time_elapsed":1332782,"internal_node_id":"0.0-2.5-2.5-0.5","params":{"nStudents":24,"maxFlips":30,"completionMinutes":45,"basePay":8,"maxBonus":9,"perTrialBonus":0.5,"perTrialBonusThreshold":0.05,"exampleCost":0.01},"classroomParams":{"A":{"a":1,"b":4},"B":{"a":4,"b":1},"C":{"a":2,"b":8},"D":{"a":8,"b":2}},"conditions":["nonSeqFull","nonSeqPartial","seqNoFeedback","seqFeedback"],"classroomPairings":[["A","B"],["C","D"]],"coinWeights":[0.2,0.5,0.8],"subjectId":"AVFMTS8A5R4XK","assignmentId":"3VHP9MDGRO6M5NRHDDGNN0EF3TQFC5","hitId":"3J94SKDEKIB2MY6CGVTNWB9X0ALD5P","url":"https://gershmanlab.com/experiments/alicia/teaching/experiment/?hitId=3J94SKDEKIB2MY6CGVTNWB9X0ALD5P&workerId=AVFMTS8A5R4XK&assignmentId=3VHP9MDGRO6M5NRHDDGNN0EF3TQFC5&a=G9HV9&tp_a=G9HV9&b=3VHP9MDGRO6M5NRHDDGNN0EF3TQFC5&tp_b=3VHP9MDGRO6M5NRHDDGNN0EF3TQFC5&c=365799&tp_c=365799"},{"view_history":[{"page_index":0,"viewing_time":1469},{"page_index":1,"viewing_time":977},{"page_index":2,"viewing_time":1462},{"page_index":3,"viewing_time":1248},{"page_index":4,"viewing_time":1440},{"page_index":5,"viewing_time":3024},{"page_index":6,"viewing_time":18053}],"rt":27673,"trial_type":"instructions","trial_index":20,"time_elapsed":1360456,"internal_node_id":"0.0-2.6-0.6","params":{"nStudents":24,"maxFlips":30,"completionMinutes":45,"basePay":8,"maxBonus":9,"perTrialBonus":0.5,"perTrialBonusThreshold":0.05,"exampleCost":0.01},"classroomParams":{"A":{"a":1,"b":4},"B":{"a":4,"b":1},"C":{"a":2,"b":8},"D":{"a":8,"b":2}},"conditions":["nonSeqFull","nonSeqPartial","seqNoFeedback","seqFeedback"],"classroomPairings":[["A","B"],["C","D"]],"coinWeights":[0.2,0.5,0.8],"subjectId":"AVFMTS8A5R4XK","assignmentId":"3VHP9MDGRO6M5NRHDDGNN0EF3TQFC5","hitId":"3J94SKDEKIB2MY6CGVTNWB9X0ALD5P","url":"https://gershmanlab.com/experiments/alicia/teaching/experiment/?hitId=3J94SKDEKIB2MY6CGVTNWB9X0ALD5P&workerId=AVFMTS8A5R4XK&assignmentId=3VHP9MDGRO6M5NRHDDGNN0EF3TQFC5&a=G9HV9&tp_a=G9HV9&b=3VHP9MDGRO6M5NRHDDGNN0EF3TQFC5&tp_b=3VHP9MDGRO6M5NRHDDGNN0EF3TQFC5&c=365799&tp_c=365799"},{"rt":33962,"response":{"Q0":"Students in different classrooms will have seen a different number of heads and tails before seeing the examples you select for them.","Q1":"By giving as few examples as possible.","Q2":"The coin lands heads 90% of the time.","Q3":"Yes, I might encounter the same student twice.","Q4":"The students are also on the same alien planet as you, where coins can be unfair.","Q5":"Based on both guesses."},"question_order":[3,0,4,1,5,2],"trial_type":"survey-multi-choice","trial_index":21,"time_elapsed":1394419,"internal_node_id":"0.0-2.6-1.6","params":{"nStudents":24,"maxFlips":30,"completionMinutes":45,"basePay":8,"maxBonus":9,"perTrialBonus":0.5,"perTrialBonusThreshold":0.05,"exampleCost":0.01},"classroomParams":{"A":{"a":1,"b":4},"B":{"a":4,"b":1},"C":{"a":2,"b":8},"D":{"a":8,"b":2}},"conditions":["nonSeqFull","nonSeqPartial","seqNoFeedback","seqFeedback"],"classroomPairings":[["A","B"],["C","D"]],"coinWeights":[0.2,0.5,0.8],"subjectId":"AVFMTS8A5R4XK","assignmentId":"3VHP9MDGRO6M5NRHDDGNN0EF3TQFC5","hitId":"3J94SKDEKIB2MY6CGVTNWB9X0ALD5P","url":"https://gershmanlab.com/experiments/alicia/teaching/experiment/?hitId=3J94SKDEKIB2MY6CGVTNWB9X0ALD5P&workerId=AVFMTS8A5R4XK&assignmentId=3VHP9MDGRO6M5NRHDDGNN0EF3TQFC5&a=G9HV9&tp_a=G9HV9&b=3VHP9MDGRO6M5NRHDDGNN0EF3TQFC5&tp_b=3VHP9MDGRO6M5NRHDDGNN0EF3TQFC5&c=365799&tp_c=365799","pass":false},{"rt":2348,"stimulus":"Oops, you have missed question(s) on the comprehension check! We'll show you the instructions again.","response":0,"trial_type":"html-button-response","trial_index":22,"time_elapsed":1396771,"internal_node_id":"0.0-2.6-2.6-0.6","params":{"nStudents":24,"maxFlips":30,"completionMinutes":45,"basePay":8,"maxBonus":9,"perTrialBonus":0.5,"perTrialBonusThreshold":0.05,"exampleCost":0.01},"classroomParams":{"A":{"a":1,"b":4},"B":{"a":4,"b":1},"C":{"a":2,"b":8},"D":{"a":8,"b":2}},"conditions":["nonSeqFull","nonSeqPartial","seqNoFeedback","seqFeedback"],"classroomPairings":[["A","B"],["C","D"]],"coinWeights":[0.2,0.5,0.8],"subjectId":"AVFMTS8A5R4XK","assignmentId":"3VHP9MDGRO6M5NRHDDGNN0EF3TQFC5","hitId":"3J94SKDEKIB2MY6CGVTNWB9X0ALD5P","url":"https://gershmanlab.com/experiments/alicia/teaching/experiment/?hitId=3J94SKDEKIB2MY6CGVTNWB9X0ALD5P&workerId=AVFMTS8A5R4XK&assignmentId=3VHP9MDGRO6M5NRHDDGNN0EF3TQFC5&a=G9HV9&tp_a=G9HV9&b=3VHP9MDGRO6M5NRHDDGNN0EF3TQFC5&tp_b=3VHP9MDGRO6M5NRHDDGNN0EF3TQFC5&c=365799&tp_c=365799"},{"view_history":[{"page_index":0,"viewing_time":82143},{"page_index":1,"viewing_time":1047},{"page_index":2,"viewing_time":1266},{"page_index":3,"viewing_time":1209},{"page_index":4,"viewing_time":1279},{"page_index":5,"viewing_time":1326},{"page_index":6,"viewing_time":1313}],"rt":89582,"trial_type":"instructions","trial_index":23,"time_elapsed":1486354,"internal_node_id":"0.0-2.7-0.7","params":{"nStudents":24,"maxFlips":30,"completionMinutes":45,"basePay":8,"maxBonus":9,"perTrialBonus":0.5,"perTrialBonusThreshold":0.05,"exampleCost":0.01},"classroomParams":{"A":{"a":1,"b":4},"B":{"a":4,"b":1},"C":{"a":2,"b":8},"D":{"a":8,"b":2}},"conditions":["nonSeqFull","nonSeqPartial","seqNoFeedback","seqFeedback"],"classroomPairings":[["A","B"],["C","D"]],"coinWeights":[0.2,0.5,0.8],"subjectId":"AVFMTS8A5R4XK","assignmentId":"3VHP9MDGRO6M5NRHDDGNN0EF3TQFC5","hitId":"3J94SKDEKIB2MY6CGVTNWB9X0ALD5P","url":"https://gershmanlab.com/experiments/alicia/teaching/experiment/?hitId=3J94SKDEKIB2MY6CGVTNWB9X0ALD5P&workerId=AVFMTS8A5R4XK&assignmentId=3VHP9MDGRO6M5NRHDDGNN0EF3TQFC5&a=G9HV9&tp_a=G9HV9&b=3VHP9MDGRO6M5NRHDDGNN0EF3TQFC5&tp_b=3VHP9MDGRO6M5NRHDDGNN0EF3TQFC5&c=365799&tp_c=365799"},{"rt":13604,"response":{"Q0":"Students in different classrooms will have seen a different number of heads and tails before seeing the examples you select for them.","Q1":"By <b>considering the student's classroom information</b> so that I can teach efficiently and accurately/helpfully at the same time (because each example I give to the student costs money!).","Q2":"The coin lands heads 90% of the time.","Q3":"No, I will teach a <b>new</b> student each time.","Q4":"The students are also on the same alien planet as you, where coins can be unfair.","Q5":"Based on the student's second (and final) guess."},"question_order":[2,0,5,3,1,4],"trial_type":"survey-multi-choice","trial_index":24,"time_elapsed":1499960,"internal_node_id":"0.0-2.7-1.7","params":{"nStudents":24,"maxFlips":30,"completionMinutes":45,"basePay":8,"maxBonus":9,"perTrialBonus":0.5,"perTrialBonusThreshold":0.05,"exampleCost":0.01},"classroomParams":{"A":{"a":1,"b":4},"B":{"a":4,"b":1},"C":{"a":2,"b":8},"D":{"a":8,"b":2}},"conditions":["nonSeqFull","nonSeqPartial","seqNoFeedback","seqFeedback"],"classroomPairings":[["A","B"],["C","D"]],"coinWeights":[0.2,0.5,0.8],"subjectId":"AVFMTS8A5R4XK","assignmentId":"3VHP9MDGRO6M5NRHDDGNN0EF3TQFC5","hitId":"3J94SKDEKIB2MY6CGVTNWB9X0ALD5P","url":"https://gershmanlab.com/experiments/alicia/teaching/experiment/?hitId=3J94SKDEKIB2MY6CGVTNWB9X0ALD5P&workerId=AVFMTS8A5R4XK&assignmentId=3VHP9MDGRO6M5NRHDDGNN0EF3TQFC5&a=G9HV9&tp_a=G9HV9&b=3VHP9MDGRO6M5NRHDDGNN0EF3TQFC5&tp_b=3VHP9MDGRO6M5NRHDDGNN0EF3TQFC5&c=365799&tp_c=365799","pass":true},{"rt":null,"stimulus":"<div style=\"font-size:30px;\">Congrats on passing the comprehension quiz! The experiment will begin in a few seconds.</div>","response":null,"trial_type":"html-keyboard-response","trial_index":25,"time_elapsed":1502977,"internal_node_id":"0.0-3.0","params":{"nStudents":24,"maxFlips":30,"completionMinutes":45,"basePay":8,"maxBonus":9,"perTrialBonus":0.5,"perTrialBonusThreshold":0.05,"exampleCost":0.01},"classroomParams":{"A":{"a":1,"b":4},"B":{"a":4,"b":1},"C":{"a":2,"b":8},"D":{"a":8,"b":2}},"conditions":["nonSeqFull","nonSeqPartial","seqNoFeedback","seqFeedback"],"classroomPairings":[["A","B"],["C","D"]],"coinWeights":[0.2,0.5,0.8],"subjectId":"AVFMTS8A5R4XK","assignmentId":"3VHP9MDGRO6M5NRHDDGNN0EF3TQFC5","hitId":"3J94SKDEKIB2MY6CGVTNWB9X0ALD5P","url":"https://gershmanlab.com/experiments/alicia/teaching/experiment/?hitId=3J94SKDEKIB2MY6CGVTNWB9X0ALD5P&workerId=AVFMTS8A5R4XK&assignmentId=3VHP9MDGRO6M5NRHDDGNN0EF3TQFC5&a=G9HV9&tp_a=G9HV9&b=3VHP9MDGRO6M5NRHDDGNN0EF3TQFC5&tp_b=3VHP9MDGRO6M5NRHDDGNN0EF3TQFC5&c=365799&tp_c=365799"},{"rt":null,"stimulus":"<div style=\"font-size:50px;\">First student</div>","response":null,"trial_type":"html-keyboard-response","trial_index":26,"time_elapsed":1505988,"internal_node_id":"0.0-4.0","params":{"nStudents":24,"maxFlips":30,"completionMinutes":45,"basePay":8,"maxBonus":9,"perTrialBonus":0.5,"perTrialBonusThreshold":0.05,"exampleCost":0.01},"classroomParams":{"A":{"a":1,"b":4},"B":{"a":4,"b":1},"C":{"a":2,"b":8},"D":{"a":8,"b":2}},"conditions":["nonSeqFull","nonSeqPartial","seqNoFeedback","seqFeedback"],"classroomPairings":[["A","B"],["C","D"]],"coinWeights":[0.2,0.5,0.8],"subjectId":"AVFMTS8A5R4XK","assignmentId":"3VHP9MDGRO6M5NRHDDGNN0EF3TQFC5","hitId":"3J94SKDEKIB2MY6CGVTNWB9X0ALD5P","url":"https://gershmanlab.com/experiments/alicia/teaching/experiment/?hitId=3J94SKDEKIB2MY6CGVTNWB9X0ALD5P&workerId=AVFMTS8A5R4XK&assignmentId=3VHP9MDGRO6M5NRHDDGNN0EF3TQFC5&a=G9HV9&tp_a=G9HV9&b=3VHP9MDGRO6M5NRHDDGNN0EF3TQFC5&tp_b=3VHP9MDGRO6M5NRHDDGNN0EF3TQFC5&c=365799&tp_c=365799"},{"rt":4821,"stimulus":"\n            <h4 style=\"color:Orange;\">Student 1</h4>\n            <h2>The weight of your coin is <b style=\"color:Tomato;\">0.2</b>.</h2>\n            <p>In this block, you will be giving <b>one</b> set of examples to Student 1.</p>\n                <p>You will receive feedback at the end of the block.</p>\n            <p></p>","response":0,"trial_type":"html-button-response","trial_index":27,"time_elapsed":1510810,"internal_node_id":"0.0-5.0","params":{"nStudents":24,"maxFlips":30,"completionMinutes":45,"basePay":8,"maxBonus":9,"perTrialBonus":0.5,"perTrialBonusThreshold":0.05,"exampleCost":0.01},"classroomParams":{"A":{"a":1,"b":4},"B":{"a":4,"b":1},"C":{"a":2,"b":8},"D":{"a":8,"b":2}},"conditions":["nonSeqFull","nonSeqPartial","seqNoFeedback","seqFeedback"],"classroomPairings":[["A","B"],["C","D"]],"coinWeights":[0.2,0.5,0.8],"subjectId":"AVFMTS8A5R4XK","assignmentId":"3VHP9MDGRO6M5NRHDDGNN0EF3TQFC5","hitId":"3J94SKDEKIB2MY6CGVTNWB9X0ALD5P","url":"https://gershmanlab.com/experiments/alicia/teaching/experiment/?hitId=3J94SKDEKIB2MY6CGVTNWB9X0ALD5P&workerId=AVFMTS8A5R4XK&assignmentId=3VHP9MDGRO6M5NRHDDGNN0EF3TQFC5&a=G9HV9&tp_a=G9HV9&b=3VHP9MDGRO6M5NRHDDGNN0EF3TQFC5&tp_b=3VHP9MDGRO6M5NRHDDGNN0EF3TQFC5&c=365799&tp_c=365799"},{"rt":12672,"response":{"heads":"24","tails":"20"},"type":"response","condition":"nonSeqFull","trueTheta":0.2,"classrooms":["A","B"],"studentTrueClassroom":"B","exampleSet":"first","trial_type":"survey-html-form","trial_index":28,"time_elapsed":1523485,"internal_node_id":"0.0-6.0-0.0","params":{"nStudents":24,"maxFlips":30,"completionMinutes":45,"basePay":8,"maxBonus":9,"perTrialBonus":0.5,"perTrialBonusThreshold":0.05,"exampleCost":0.01},"classroomParams":{"A":{"a":1,"b":4},"B":{"a":4,"b":1},"C":{"a":2,"b":8},"D":{"a":8,"b":2}},"conditions":["nonSeqFull","nonSeqPartial","seqNoFeedback","seqFeedback"],"classroomPairings":[["A","B"],["C","D"]],"coinWeights":[0.2,0.5,0.8],"subjectId":"AVFMTS8A5R4XK","assignmentId":"3VHP9MDGRO6M5NRHDDGNN0EF3TQFC5","hitId":"3J94SKDEKIB2MY6CGVTNWB9X0ALD5P","url":"https://gershmanlab.com/experiments/alicia/teaching/experiment/?hitId=3J94SKDEKIB2MY6CGVTNWB9X0ALD5P&workerId=AVFMTS8A5R4XK&assignmentId=3VHP9MDGRO6M5NRHDDGNN0EF3TQFC5&a=G9HV9&tp_a=G9HV9&b=3VHP9MDGRO6M5NRHDDGNN0EF3TQFC5&tp_b=3VHP9MDGRO6M5NRHDDGNN0EF3TQFC5&c=365799&tp_c=365799","heads":24,"tails":20,"studentIndex":0,"studentTrueHypers":{"a":4,"b":1},"studentGuess":0.5714285714285714,"delta":0.3714285714285714,"totalExamples":44,"bonus":0,"bonusSoFar":0},{"rt":42255,"response":{"heads":"2","tails":"4"},"type":"response","condition":"nonSeqFull","trueTheta":0.2,"classrooms":["A","B"],"studentTrueClassroom":"B","exampleSet":"first","trial_type":"survey-html-form","trial_index":29,"time_elapsed":1565744,"internal_node_id":"0.0-6.1-0.1","params":{"nStudents":24,"maxFlips":30,"completionMinutes":45,"basePay":8,"maxBonus":9,"perTrialBonus":0.5,"perTrialBonusThreshold":0.05,"exampleCost":0.01},"classroomParams":{"A":{"a":1,"b":4},"B":{"a":4,"b":1},"C":{"a":2,"b":8},"D":{"a":8,"b":2}},"conditions":["nonSeqFull","nonSeqPartial","seqNoFeedback","seqFeedback"],"classroomPairings":[["A","B"],["C","D"]],"coinWeights":[0.2,0.5,0.8],"subjectId":"AVFMTS8A5R4XK","assignmentId":"3VHP9MDGRO6M5NRHDDGNN0EF3TQFC5","hitId":"3J94SKDEKIB2MY6CGVTNWB9X0ALD5P","url":"https://gershmanlab.com/experiments/alicia/teaching/experiment/?hitId=3J94SKDEKIB2MY6CGVTNWB9X0ALD5P&workerId=AVFMTS8A5R4XK&assignmentId=3VHP9MDGRO6M5NRHDDGNN0EF3TQFC5&a=G9HV9&tp_a=G9HV9&b=3VHP9MDGRO6M5NRHDDGNN0EF3TQFC5&tp_b=3VHP9MDGRO6M5NRHDDGNN0EF3TQFC5&c=365799&tp_c=365799","heads":2,"tails":4,"studentIndex":0,"studentTrueHypers":{"a":4,"b":1},"studentGuess":0.5454545454545454,"delta":0.3454545454545454,"totalExamples":6,"bonus":0,"bonusSoFar":0},{"rt":null,"stimulus":"Sending examples to student... ","response":null,"trial_type":"html-keyboard-response","trial_index":30,"time_elapsed":1567748,"internal_node_id":"0.0-7.0","params":{"nStudents":24,"maxFlips":30,"completionMinutes":45,"basePay":8,"maxBonus":9,"perTrialBonus":0.5,"perTrialBonusThreshold":0.05,"exampleCost":0.01},"classroomParams":{"A":{"a":1,"b":4},"B":{"a":4,"b":1},"C":{"a":2,"b":8},"D":{"a":8,"b":2}},"conditions":["nonSeqFull","nonSeqPartial","seqNoFeedback","seqFeedback"],"classroomPairings":[["A","B"],["C","D"]],"coinWeights":[0.2,0.5,0.8],"subjectId":"AVFMTS8A5R4XK","assignmentId":"3VHP9MDGRO6M5NRHDDGNN0EF3TQFC5","hitId":"3J94SKDEKIB2MY6CGVTNWB9X0ALD5P","url":"https://gershmanlab.com/experiments/alicia/teaching/experiment/?hitId=3J94SKDEKIB2MY6CGVTNWB9X0ALD5P&workerId=AVFMTS8A5R4XK&assignmentId=3VHP9MDGRO6M5NRHDDGNN0EF3TQFC5&a=G9HV9&tp_a=G9HV9&b=3VHP9MDGRO6M5NRHDDGNN0EF3TQFC5&tp_b=3VHP9MDGRO6M5NRHDDGNN0EF3TQFC5&c=365799&tp_c=365799"},{"rt":null,"stimulus":"Examples sent to student! Waiting for student...","response":null,"trial_type":"html-keyboard-response","trial_index":31,"time_elapsed":1572759,"internal_node_id":"0.0-8.0","params":{"nStudents":24,"maxFlips":30,"completionMinutes":45,"basePay":8,"maxBonus":9,"perTrialBonus":0.5,"perTrialBonusThreshold":0.05,"exampleCost":0.01},"classroomParams":{"A":{"a":1,"b":4},"B":{"a":4,"b":1},"C":{"a":2,"b":8},"D":{"a":8,"b":2}},"conditions":["nonSeqFull","nonSeqPartial","seqNoFeedback","seqFeedback"],"classroomPairings":[["A","B"],["C","D"]],"coinWeights":[0.2,0.5,0.8],"subjectId":"AVFMTS8A5R4XK","assignmentId":"3VHP9MDGRO6M5NRHDDGNN0EF3TQFC5","hitId":"3J94SKDEKIB2MY6CGVTNWB9X0ALD5P","url":"https://gershmanlab.com/experiments/alicia/teaching/experiment/?hitId=3J94SKDEKIB2MY6CGVTNWB9X0ALD5P&workerId=AVFMTS8A5R4XK&assignmentId=3VHP9MDGRO6M5NRHDDGNN0EF3TQFC5&a=G9HV9&tp_a=G9HV9&b=3VHP9MDGRO6M5NRHDDGNN0EF3TQFC5&tp_b=3VHP9MDGRO6M5NRHDDGNN0EF3TQFC5&c=365799&tp_c=365799"},{"rt":4362,"stimulus":"\n                <p>Student's guess for coin weight: <b style=\"color:Tomato;\">0.57</b></p>\n                <p>You received a bonus of <b>$0</b>. Total bonus so far: <b>$0.00</b></b></p>\n                <p></p>\n                <p>Press any key to continue.</p>\n                ","response":" ","trial_type":"html-keyboard-response","trial_index":32,"time_elapsed":1577123,"internal_node_id":"0.0-9.0","params":{"nStudents":24,"maxFlips":30,"completionMinutes":45,"basePay":8,"maxBonus":9,"perTrialBonus":0.5,"perTrialBonusThreshold":0.05,"exampleCost":0.01},"classroomParams":{"A":{"a":1,"b":4},"B":{"a":4,"b":1},"C":{"a":2,"b":8},"D":{"a":8,"b":2}},"conditions":["nonSeqFull","nonSeqPartial","seqNoFeedback","seqFeedback"],"classroomPairings":[["A","B"],["C","D"]],"coinWeights":[0.2,0.5,0.8],"subjectId":"AVFMTS8A5R4XK","assignmentId":"3VHP9MDGRO6M5NRHDDGNN0EF3TQFC5","hitId":"3J94SKDEKIB2MY6CGVTNWB9X0ALD5P","url":"https://gershmanlab.com/experiments/alicia/teaching/experiment/?hitId=3J94SKDEKIB2MY6CGVTNWB9X0ALD5P&workerId=AVFMTS8A5R4XK&assignmentId=3VHP9MDGRO6M5NRHDDGNN0EF3TQFC5&a=G9HV9&tp_a=G9HV9&b=3VHP9MDGRO6M5NRHDDGNN0EF3TQFC5&tp_b=3VHP9MDGRO6M5NRHDDGNN0EF3TQFC5&c=365799&tp_c=365799"},{"rt":null,"stimulus":"<div style=\"font-size:60px;\">Next student</div>","response":null,"trial_type":"html-keyboard-response","trial_index":33,"time_elapsed":1579384,"internal_node_id":"0.0-10.0-0.0","params":{"nStudents":24,"maxFlips":30,"completionMinutes":45,"basePay":8,"maxBonus":9,"perTrialBonus":0.5,"perTrialBonusThreshold":0.05,"exampleCost":0.01},"classroomParams":{"A":{"a":1,"b":4},"B":{"a":4,"b":1},"C":{"a":2,"b":8},"D":{"a":8,"b":2}},"conditions":["nonSeqFull","nonSeqPartial","seqNoFeedback","seqFeedback"],"classroomPairings":[["A","B"],["C","D"]],"coinWeights":[0.2,0.5,0.8],"subjectId":"AVFMTS8A5R4XK","assignmentId":"3VHP9MDGRO6M5NRHDDGNN0EF3TQFC5","hitId":"3J94SKDEKIB2MY6CGVTNWB9X0ALD5P","url":"https://gershmanlab.com/experiments/alicia/teaching/experiment/?hitId=3J94SKDEKIB2MY6CGVTNWB9X0ALD5P&workerId=AVFMTS8A5R4XK&assignmentId=3VHP9MDGRO6M5NRHDDGNN0EF3TQFC5&a=G9HV9&tp_a=G9HV9&b=3VHP9MDGRO6M5NRHDDGNN0EF3TQFC5&tp_b=3VHP9MDGRO6M5NRHDDGNN0EF3TQFC5&c=365799&tp_c=365799"},{"rt":17370,"stimulus":"\n            <h4 style=\"color:Orange;\">Student 2</h4>\n            <h2>The weight of your coin is <b style=\"color:Tomato;\">0.2</b>.</h2>\n            <p>In this block, you will be giving <b>one</b> set of examples to Student 2.</p>\n                <p>You will receive feedback at the end of the block.</p>\n            <p></p>","response":0,"trial_type":"html-button-response","trial_index":34,"time_elapsed":1596755,"internal_node_id":"0.0-11.0","params":{"nStudents":24,"maxFlips":30,"completionMinutes":45,"basePay":8,"maxBonus":9,"perTrialBonus":0.5,"perTrialBonusThreshold":0.05,"exampleCost":0.01},"classroomParams":{"A":{"a":1,"b":4},"B":{"a":4,"b":1},"C":{"a":2,"b":8},"D":{"a":8,"b":2}},"conditions":["nonSeqFull","nonSeqPartial","seqNoFeedback","seqFeedback"],"classroomPairings":[["A","B"],["C","D"]],"coinWeights":[0.2,0.5,0.8],"subjectId":"AVFMTS8A5R4XK","assignmentId":"3VHP9MDGRO6M5NRHDDGNN0EF3TQFC5","hitId":"3J94SKDEKIB2MY6CGVTNWB9X0ALD5P","url":"https://gershmanlab.com/experiments/alicia/teaching/experiment/?hitId=3J94SKDEKIB2MY6CGVTNWB9X0ALD5P&workerId=AVFMTS8A5R4XK&assignmentId=3VHP9MDGRO6M5NRHDDGNN0EF3TQFC5&a=G9HV9&tp_a=G9HV9&b=3VHP9MDGRO6M5NRHDDGNN0EF3TQFC5&tp_b=3VHP9MDGRO6M5NRHDDGNN0EF3TQFC5&c=365799&tp_c=365799"},{"rt":143477,"response":{"heads":"6","tails":"7"},"type":"response","condition":"nonSeqPartial","trueTheta":0.2,"classrooms":["A","B"],"studentTrueClassroom":"B","exampleSet":"first","trial_type":"survey-html-form","trial_index":35,"time_elapsed":1740234,"internal_node_id":"0.0-12.0-0.0","params":{"nStudents":24,"maxFlips":30,"completionMinutes":45,"basePay":8,"maxBonus":9,"perTrialBonus":0.5,"perTrialBonusThreshold":0.05,"exampleCost":0.01},"classroomParams":{"A":{"a":1,"b":4},"B":{"a":4,"b":1},"C":{"a":2,"b":8},"D":{"a":8,"b":2}},"conditions":["nonSeqFull","nonSeqPartial","seqNoFeedback","seqFeedback"],"classroomPairings":[["A","B"],["C","D"]],"coinWeights":[0.2,0.5,0.8],"subjectId":"AVFMTS8A5R4XK","assignmentId":"3VHP9MDGRO6M5NRHDDGNN0EF3TQFC5","hitId":"3J94SKDEKIB2MY6CGVTNWB9X0ALD5P","url":"https://gershmanlab.com/experiments/alicia/teaching/experiment/?hitId=3J94SKDEKIB2MY6CGVTNWB9X0ALD5P&workerId=AVFMTS8A5R4XK&assignmentId=3VHP9MDGRO6M5NRHDDGNN0EF3TQFC5&a=G9HV9&tp_a=G9HV9&b=3VHP9MDGRO6M5NRHDDGNN0EF3TQFC5&tp_b=3VHP9MDGRO6M5NRHDDGNN0EF3TQFC5&c=365799&tp_c=365799","heads":6,"tails":7,"studentIndex":1,"studentTrueHypers":{"a":4,"b":1},"studentGuess":0.5555555555555556,"delta":0.35555555555555557,"totalExamples":13,"bonus":0,"bonusSoFar":0},{"rt":null,"stimulus":"Sending examples to student... ","response":null,"trial_type":"html-keyboard-response","trial_index":36,"time_elapsed":1741487,"internal_node_id":"0.0-13.0","params":{"nStudents":24,"maxFlips":30,"completionMinutes":45,"basePay":8,"maxBonus":9,"perTrialBonus":0.5,"perTrialBonusThreshold":0.05,"exampleCost":0.01},"classroomParams":{"A":{"a":1,"b":4},"B":{"a":4,"b":1},"C":{"a":2,"b":8},"D":{"a":8,"b":2}},"conditions":["nonSeqFull","nonSeqPartial","seqNoFeedback","seqFeedback"],"classroomPairings":[["A","B"],["C","D"]],"coinWeights":[0.2,0.5,0.8],"subjectId":"AVFMTS8A5R4XK","assignmentId":"3VHP9MDGRO6M5NRHDDGNN0EF3TQFC5","hitId":"3J94SKDEKIB2MY6CGVTNWB9X0ALD5P","url":"https://gershmanlab.com/experiments/alicia/teaching/experiment/?hitId=3J94SKDEKIB2MY6CGVTNWB9X0ALD5P&workerId=AVFMTS8A5R4XK&assignmentId=3VHP9MDGRO6M5NRHDDGNN0EF3TQFC5&a=G9HV9&tp_a=G9HV9&b=3VHP9MDGRO6M5NRHDDGNN0EF3TQFC5&tp_b=3VHP9MDGRO6M5NRHDDGNN0EF3TQFC5&c=365799&tp_c=365799"},{"rt":null,"stimulus":"Examples sent to student! Waiting for student...","response":null,"trial_type":"html-keyboard-response","trial_index":37,"time_elapsed":1745505,"internal_node_id":"0.0-14.0","params":{"nStudents":24,"maxFlips":30,"completionMinutes":45,"basePay":8,"maxBonus":9,"perTrialBonus":0.5,"perTrialBonusThreshold":0.05,"exampleCost":0.01},"classroomParams":{"A":{"a":1,"b":4},"B":{"a":4,"b":1},"C":{"a":2,"b":8},"D":{"a":8,"b":2}},"conditions":["nonSeqFull","nonSeqPartial","seqNoFeedback","seqFeedback"],"classroomPairings":[["A","B"],["C","D"]],"coinWeights":[0.2,0.5,0.8],"subjectId":"AVFMTS8A5R4XK","assignmentId":"3VHP9MDGRO6M5NRHDDGNN0EF3TQFC5","hitId":"3J94SKDEKIB2MY6CGVTNWB9X0ALD5P","url":"https://gershmanlab.com/experiments/alicia/teaching/experiment/?hitId=3J94SKDEKIB2MY6CGVTNWB9X0ALD5P&workerId=AVFMTS8A5R4XK&assignmentId=3VHP9MDGRO6M5NRHDDGNN0EF3TQFC5&a=G9HV9&tp_a=G9HV9&b=3VHP9MDGRO6M5NRHDDGNN0EF3TQFC5&tp_b=3VHP9MDGRO6M5NRHDDGNN0EF3TQFC5&c=365799&tp_c=365799"},{"rt":6675,"stimulus":"\n                <p>Student's guess for coin weight: <b style=\"color:Tomato;\">0.56</b></p>\n                <p>You received a bonus of <b>$0</b>. Total bonus so far: <b>$0.00</b></b></p>\n                <p></p>\n                <p>Press any key to continue.</p>\n                ","response":" ","trial_type":"html-keyboard-response","trial_index":38,"time_elapsed":1752181,"internal_node_id":"0.0-15.0","params":{"nStudents":24,"maxFlips":30,"completionMinutes":45,"basePay":8,"maxBonus":9,"perTrialBonus":0.5,"perTrialBonusThreshold":0.05,"exampleCost":0.01},"classroomParams":{"A":{"a":1,"b":4},"B":{"a":4,"b":1},"C":{"a":2,"b":8},"D":{"a":8,"b":2}},"conditions":["nonSeqFull","nonSeqPartial","seqNoFeedback","seqFeedback"],"classroomPairings":[["A","B"],["C","D"]],"coinWeights":[0.2,0.5,0.8],"subjectId":"AVFMTS8A5R4XK","assignmentId":"3VHP9MDGRO6M5NRHDDGNN0EF3TQFC5","hitId":"3J94SKDEKIB2MY6CGVTNWB9X0ALD5P","url":"https://gershmanlab.com/experiments/alicia/teaching/experiment/?hitId=3J94SKDEKIB2MY6CGVTNWB9X0ALD5P&workerId=AVFMTS8A5R4XK&assignmentId=3VHP9MDGRO6M5NRHDDGNN0EF3TQFC5&a=G9HV9&tp_a=G9HV9&b=3VHP9MDGRO6M5NRHDDGNN0EF3TQFC5&tp_b=3VHP9MDGRO6M5NRHDDGNN0EF3TQFC5&c=365799&tp_c=365799"},{"rt":null,"stimulus":"<div style=\"font-size:60px;\">Next student</div>","response":null,"trial_type":"html-keyboard-response","trial_index":39,"time_elapsed":1755192,"internal_node_id":"0.0-16.0-0.0","params":{"nStudents":24,"maxFlips":30,"completionMinutes":45,"basePay":8,"maxBonus":9,"perTrialBonus":0.5,"perTrialBonusThreshold":0.05,"exampleCost":0.01},"classroomParams":{"A":{"a":1,"b":4},"B":{"a":4,"b":1},"C":{"a":2,"b":8},"D":{"a":8,"b":2}},"conditions":["nonSeqFull","nonSeqPartial","seqNoFeedback","seqFeedback"],"classroomPairings":[["A","B"],["C","D"]],"coinWeights":[0.2,0.5,0.8],"subjectId":"AVFMTS8A5R4XK","assignmentId":"3VHP9MDGRO6M5NRHDDGNN0EF3TQFC5","hitId":"3J94SKDEKIB2MY6CGVTNWB9X0ALD5P","url":"https://gershmanlab.com/experiments/alicia/teaching/experiment/?hitId=3J94SKDEKIB2MY6CGVTNWB9X0ALD5P&workerId=AVFMTS8A5R4XK&assignmentId=3VHP9MDGRO6M5NRHDDGNN0EF3TQFC5&a=G9HV9&tp_a=G9HV9&b=3VHP9MDGRO6M5NRHDDGNN0EF3TQFC5&tp_b=3VHP9MDGRO6M5NRHDDGNN0EF3TQFC5&c=365799&tp_c=365799"},{"rt":7109,"stimulus":"\n            <h4 style=\"color:Orange;\">Student 3</h4>\n            <h2>The weight of your coin is <b style=\"color:Tomato;\">0.5</b>.</h2>\n            <p>In this block, you will be giving <b>one</b> set of examples to Student 3.</p>\n                <p>You will receive feedback at the end of the block.</p>\n            <p></p>","response":0,"trial_type":"html-button-response","trial_index":40,"time_elapsed":1762303,"internal_node_id":"0.0-17.0","params":{"nStudents":24,"maxFlips":30,"completionMinutes":45,"basePay":8,"maxBonus":9,"perTrialBonus":0.5,"perTrialBonusThreshold":0.05,"exampleCost":0.01},"classroomParams":{"A":{"a":1,"b":4},"B":{"a":4,"b":1},"C":{"a":2,"b":8},"D":{"a":8,"b":2}},"conditions":["nonSeqFull","nonSeqPartial","seqNoFeedback","seqFeedback"],"classroomPairings":[["A","B"],["C","D"]],"coinWeights":[0.2,0.5,0.8],"subjectId":"AVFMTS8A5R4XK","assignmentId":"3VHP9MDGRO6M5NRHDDGNN0EF3TQFC5","hitId":"3J94SKDEKIB2MY6CGVTNWB9X0ALD5P","url":"https://gershmanlab.com/experiments/alicia/teaching/experiment/?hitId=3J94SKDEKIB2MY6CGVTNWB9X0ALD5P&workerId=AVFMTS8A5R4XK&assignmentId=3VHP9MDGRO6M5NRHDDGNN0EF3TQFC5&a=G9HV9&tp_a=G9HV9&b=3VHP9MDGRO6M5NRHDDGNN0EF3TQFC5&tp_b=3VHP9MDGRO6M5NRHDDGNN0EF3TQFC5&c=365799&tp_c=365799"},{"rt":41077,"response":{"heads":"6","tails":"4"},"type":"response","condition":"nonSeqPartial","trueTheta":0.5,"classrooms":["A","B"],"studentTrueClassroom":"A","exampleSet":"first","trial_type":"survey-html-form","trial_index":41,"time_elapsed":1803385,"internal_node_id":"0.0-18.0-0.0","params":{"nStudents":24,"maxFlips":30,"completionMinutes":45,"basePay":8,"maxBonus":9,"perTrialBonus":0.5,"perTrialBonusThreshold":0.05,"exampleCost":0.01},"classroomParams":{"A":{"a":1,"b":4},"B":{"a":4,"b":1},"C":{"a":2,"b":8},"D":{"a":8,"b":2}},"conditions":["nonSeqFull","nonSeqPartial","seqNoFeedback","seqFeedback"],"classroomPairings":[["A","B"],["C","D"]],"coinWeights":[0.2,0.5,0.8],"subjectId":"AVFMTS8A5R4XK","assignmentId":"3VHP9MDGRO6M5NRHDDGNN0EF3TQFC5","hitId":"3J94SKDEKIB2MY6CGVTNWB9X0ALD5P","url":"https://gershmanlab.com/experiments/alicia/teaching/experiment/?hitId=3J94SKDEKIB2MY6CGVTNWB9X0ALD5P&workerId=AVFMTS8A5R4XK&assignmentId=3VHP9MDGRO6M5NRHDDGNN0EF3TQFC5&a=G9HV9&tp_a=G9HV9&b=3VHP9MDGRO6M5NRHDDGNN0EF3TQFC5&tp_b=3VHP9MDGRO6M5NRHDDGNN0EF3TQFC5&c=365799&tp_c=365799","heads":6,"tails":4,"studentIndex":2,"studentTrueHypers":{"a":1,"b":4},"studentGuess":0.4666666666666667,"delta":0.033333333333333326,"totalExamples":10,"bonus":0.4,"bonusSoFar":0.4},{"rt":null,"stimulus":"Sending examples to student... ","response":null,"trial_type":"html-keyboard-response","trial_index":42,"time_elapsed":1804888,"internal_node_id":"0.0-19.0","params":{"nStudents":24,"maxFlips":30,"completionMinutes":45,"basePay":8,"maxBonus":9,"perTrialBonus":0.5,"perTrialBonusThreshold":0.05,"exampleCost":0.01},"classroomParams":{"A":{"a":1,"b":4},"B":{"a":4,"b":1},"C":{"a":2,"b":8},"D":{"a":8,"b":2}},"conditions":["nonSeqFull","nonSeqPartial","seqNoFeedback","seqFeedback"],"classroomPairings":[["A","B"],["C","D"]],"coinWeights":[0.2,0.5,0.8],"subjectId":"AVFMTS8A5R4XK","assignmentId":"3VHP9MDGRO6M5NRHDDGNN0EF3TQFC5","hitId":"3J94SKDEKIB2MY6CGVTNWB9X0ALD5P","url":"https://gershmanlab.com/experiments/alicia/teaching/experiment/?hitId=3J94SKDEKIB2MY6CGVTNWB9X0ALD5P&workerId=AVFMTS8A5R4XK&assignmentId=3VHP9MDGRO6M5NRHDDGNN0EF3TQFC5&a=G9HV9&tp_a=G9HV9&b=3VHP9MDGRO6M5NRHDDGNN0EF3TQFC5&tp_b=3VHP9MDGRO6M5NRHDDGNN0EF3TQFC5&c=365799&tp_c=365799"},{"rt":null,"stimulus":"Examples sent to student! Waiting for student...","response":null,"trial_type":"html-keyboard-response","trial_index":43,"time_elapsed":1809893,"internal_node_id":"0.0-20.0","params":{"nStudents":24,"maxFlips":30,"completionMinutes":45,"basePay":8,"maxBonus":9,"perTrialBonus":0.5,"perTrialBonusThreshold":0.05,"exampleCost":0.01},"classroomParams":{"A":{"a":1,"b":4},"B":{"a":4,"b":1},"C":{"a":2,"b":8},"D":{"a":8,"b":2}},"conditions":["nonSeqFull","nonSeqPartial","seqNoFeedback","seqFeedback"],"classroomPairings":[["A","B"],["C","D"]],"coinWeights":[0.2,0.5,0.8],"subjectId":"AVFMTS8A5R4XK","assignmentId":"3VHP9MDGRO6M5NRHDDGNN0EF3TQFC5","hitId":"3J94SKDEKIB2MY6CGVTNWB9X0ALD5P","url":"https://gershmanlab.com/experiments/alicia/teaching/experiment/?hitId=3J94SKDEKIB2MY6CGVTNWB9X0ALD5P&workerId=AVFMTS8A5R4XK&assignmentId=3VHP9MDGRO6M5NRHDDGNN0EF3TQFC5&a=G9HV9&tp_a=G9HV9&b=3VHP9MDGRO6M5NRHDDGNN0EF3TQFC5&tp_b=3VHP9MDGRO6M5NRHDDGNN0EF3TQFC5&c=365799&tp_c=365799"},{"rt":10430,"stimulus":"\n                <p>Student's guess for coin weight: <b style=\"color:Tomato;\">0.47</b></p>\n                <p>You received a bonus of <b>$0.4</b>. Total bonus so far: <b>$0.40</b></b></p>\n                <p></p>\n                <p>Press any key to continue.</p>\n                ","response":" ","trial_type":"html-keyboard-response","trial_index":44,"time_elapsed":1820324,"internal_node_id":"0.0-21.0","params":{"nStudents":24,"maxFlips":30,"completionMinutes":45,"basePay":8,"maxBonus":9,"perTrialBonus":0.5,"perTrialBonusThreshold":0.05,"exampleCost":0.01},"classroomParams":{"A":{"a":1,"b":4},"B":{"a":4,"b":1},"C":{"a":2,"b":8},"D":{"a":8,"b":2}},"conditions":["nonSeqFull","nonSeqPartial","seqNoFeedback","seqFeedback"],"classroomPairings":[["A","B"],["C","D"]],"coinWeights":[0.2,0.5,0.8],"subjectId":"AVFMTS8A5R4XK","assignmentId":"3VHP9MDGRO6M5NRHDDGNN0EF3TQFC5","hitId":"3J94SKDEKIB2MY6CGVTNWB9X0ALD5P","url":"https://gershmanlab.com/experiments/alicia/teaching/experiment/?hitId=3J94SKDEKIB2MY6CGVTNWB9X0ALD5P&workerId=AVFMTS8A5R4XK&assignmentId=3VHP9MDGRO6M5NRHDDGNN0EF3TQFC5&a=G9HV9&tp_a=G9HV9&b=3VHP9MDGRO6M5NRHDDGNN0EF3TQFC5&tp_b=3VHP9MDGRO6M5NRHDDGNN0EF3TQFC5&c=365799&tp_c=365799"},{"rt":null,"stimulus":"<div style=\"font-size:60px;\">Next student</div>","response":null,"trial_type":"html-keyboard-response","trial_index":45,"time_elapsed":1823340,"internal_node_id":"0.0-22.0-0.0","params":{"nStudents":24,"maxFlips":30,"completionMinutes":45,"basePay":8,"maxBonus":9,"perTrialBonus":0.5,"perTrialBonusThreshold":0.05,"exampleCost":0.01},"classroomParams":{"A":{"a":1,"b":4},"B":{"a":4,"b":1},"C":{"a":2,"b":8},"D":{"a":8,"b":2}},"conditions":["nonSeqFull","nonSeqPartial","seqNoFeedback","seqFeedback"],"classroomPairings":[["A","B"],["C","D"]],"coinWeights":[0.2,0.5,0.8],"subjectId":"AVFMTS8A5R4XK","assignmentId":"3VHP9MDGRO6M5NRHDDGNN0EF3TQFC5","hitId":"3J94SKDEKIB2MY6CGVTNWB9X0ALD5P","url":"https://gershmanlab.com/experiments/alicia/teaching/experiment/?hitId=3J94SKDEKIB2MY6CGVTNWB9X0ALD5P&workerId=AVFMTS8A5R4XK&assignmentId=3VHP9MDGRO6M5NRHDDGNN0EF3TQFC5&a=G9HV9&tp_a=G9HV9&b=3VHP9MDGRO6M5NRHDDGNN0EF3TQFC5&tp_b=3VHP9MDGRO6M5NRHDDGNN0EF3TQFC5&c=365799&tp_c=365799"},{"rt":12327,"stimulus":"\n            <h4 style=\"color:Orange;\">Student 4</h4>\n            <h2>The weight of your coin is <b style=\"color:Tomato;\">0.5</b>.</h2>\n            <p>In this block, you will be giving <b>one</b> set of examples to Student 4.</p>\n                <p>You will receive feedback at the end of the block.</p>\n            <p></p>","response":0,"trial_type":"html-button-response","trial_index":46,"time_elapsed":1835669,"internal_node_id":"0.0-23.0","params":{"nStudents":24,"maxFlips":30,"completionMinutes":45,"basePay":8,"maxBonus":9,"perTrialBonus":0.5,"perTrialBonusThreshold":0.05,"exampleCost":0.01},"classroomParams":{"A":{"a":1,"b":4},"B":{"a":4,"b":1},"C":{"a":2,"b":8},"D":{"a":8,"b":2}},"conditions":["nonSeqFull","nonSeqPartial","seqNoFeedback","seqFeedback"],"classroomPairings":[["A","B"],["C","D"]],"coinWeights":[0.2,0.5,0.8],"subjectId":"AVFMTS8A5R4XK","assignmentId":"3VHP9MDGRO6M5NRHDDGNN0EF3TQFC5","hitId":"3J94SKDEKIB2MY6CGVTNWB9X0ALD5P","url":"https://gershmanlab.com/experiments/alicia/teaching/experiment/?hitId=3J94SKDEKIB2MY6CGVTNWB9X0ALD5P&workerId=AVFMTS8A5R4XK&assignmentId=3VHP9MDGRO6M5NRHDDGNN0EF3TQFC5&a=G9HV9&tp_a=G9HV9&b=3VHP9MDGRO6M5NRHDDGNN0EF3TQFC5&tp_b=3VHP9MDGRO6M5NRHDDGNN0EF3TQFC5&c=365799&tp_c=365799"},{"rt":8277,"response":{"heads":"6","tails":"5"},"type":"response","condition":"nonSeqFull","trueTheta":0.5,"classrooms":["A","B"],"studentTrueClassroom":"B","exampleSet":"first","trial_type":"survey-html-form","trial_index":47,"time_elapsed":1843948,"internal_node_id":"0.0-24.0-0.0","params":{"nStudents":24,"maxFlips":30,"completionMinutes":45,"basePay":8,"maxBonus":9,"perTrialBonus":0.5,"perTrialBonusThreshold":0.05,"exampleCost":0.01},"classroomParams":{"A":{"a":1,"b":4},"B":{"a":4,"b":1},"C":{"a":2,"b":8},"D":{"a":8,"b":2}},"conditions":["nonSeqFull","nonSeqPartial","seqNoFeedback","seqFeedback"],"classroomPairings":[["A","B"],["C","D"]],"coinWeights":[0.2,0.5,0.8],"subjectId":"AVFMTS8A5R4XK","assignmentId":"3VHP9MDGRO6M5NRHDDGNN0EF3TQFC5","hitId":"3J94SKDEKIB2MY6CGVTNWB9X0ALD5P","url":"https://gershmanlab.com/experiments/alicia/teaching/experiment/?hitId=3J94SKDEKIB2MY6CGVTNWB9X0ALD5P&workerId=AVFMTS8A5R4XK&assignmentId=3VHP9MDGRO6M5NRHDDGNN0EF3TQFC5&a=G9HV9&tp_a=G9HV9&b=3VHP9MDGRO6M5NRHDDGNN0EF3TQFC5&tp_b=3VHP9MDGRO6M5NRHDDGNN0EF3TQFC5&c=365799&tp_c=365799","heads":6,"tails":5,"studentIndex":3,"studentTrueHypers":{"a":4,"b":1},"studentGuess":0.625,"delta":0.125,"totalExamples":11,"bonus":0,"bonusSoFar":0.4},{"rt":null,"stimulus":"Sending examples to student... ","response":null,"trial_type":"html-keyboard-response","trial_index":48,"time_elapsed":1845449,"internal_node_id":"0.0-25.0","params":{"nStudents":24,"maxFlips":30,"completionMinutes":45,"basePay":8,"maxBonus":9,"perTrialBonus":0.5,"perTrialBonusThreshold":0.05,"exampleCost":0.01},"classroomParams":{"A":{"a":1,"b":4},"B":{"a":4,"b":1},"C":{"a":2,"b":8},"D":{"a":8,"b":2}},"conditions":["nonSeqFull","nonSeqPartial","seqNoFeedback","seqFeedback"],"classroomPairings":[["A","B"],["C","D"]],"coinWeights":[0.2,0.5,0.8],"subjectId":"AVFMTS8A5R4XK","assignmentId":"3VHP9MDGRO6M5NRHDDGNN0EF3TQFC5","hitId":"3J94SKDEKIB2MY6CGVTNWB9X0ALD5P","url":"https://gershmanlab.com/experiments/alicia/teaching/experiment/?hitId=3J94SKDEKIB2MY6CGVTNWB9X0ALD5P&workerId=AVFMTS8A5R4XK&assignmentId=3VHP9MDGRO6M5NRHDDGNN0EF3TQFC5&a=G9HV9&tp_a=G9HV9&b=3VHP9MDGRO6M5NRHDDGNN0EF3TQFC5&tp_b=3VHP9MDGRO6M5NRHDDGNN0EF3TQFC5&c=365799&tp_c=365799"},{"rt":null,"stimulus":"Examples sent to student! Waiting for student...","response":null,"trial_type":"html-keyboard-response","trial_index":49,"time_elapsed":1851461,"internal_node_id":"0.0-26.0","params":{"nStudents":24,"maxFlips":30,"completionMinutes":45,"basePay":8,"maxBonus":9,"perTrialBonus":0.5,"perTrialBonusThreshold":0.05,"exampleCost":0.01},"classroomParams":{"A":{"a":1,"b":4},"B":{"a":4,"b":1},"C":{"a":2,"b":8},"D":{"a":8,"b":2}},"conditions":["nonSeqFull","nonSeqPartial","seqNoFeedback","seqFeedback"],"classroomPairings":[["A","B"],["C","D"]],"coinWeights":[0.2,0.5,0.8],"subjectId":"AVFMTS8A5R4XK","assignmentId":"3VHP9MDGRO6M5NRHDDGNN0EF3TQFC5","hitId":"3J94SKDEKIB2MY6CGVTNWB9X0ALD5P","url":"https://gershmanlab.com/experiments/alicia/teaching/experiment/?hitId=3J94SKDEKIB2MY6CGVTNWB9X0ALD5P&workerId=AVFMTS8A5R4XK&assignmentId=3VHP9MDGRO6M5NRHDDGNN0EF3TQFC5&a=G9HV9&tp_a=G9HV9&b=3VHP9MDGRO6M5NRHDDGNN0EF3TQFC5&tp_b=3VHP9MDGRO6M5NRHDDGNN0EF3TQFC5&c=365799&tp_c=365799"},{"rt":2431,"stimulus":"\n                <p>Student's guess for coin weight: <b style=\"color:Tomato;\">0.63</b></p>\n                <p>You received a bonus of <b>$0</b>. Total bonus so far: <b>$0.40</b></b></p>\n                <p></p>\n                <p>Press any key to continue.</p>\n                ","response":" ","trial_type":"html-keyboard-response","trial_index":50,"time_elapsed":1853893,"internal_node_id":"0.0-27.0","params":{"nStudents":24,"maxFlips":30,"completionMinutes":45,"basePay":8,"maxBonus":9,"perTrialBonus":0.5,"perTrialBonusThreshold":0.05,"exampleCost":0.01},"classroomParams":{"A":{"a":1,"b":4},"B":{"a":4,"b":1},"C":{"a":2,"b":8},"D":{"a":8,"b":2}},"conditions":["nonSeqFull","nonSeqPartial","seqNoFeedback","seqFeedback"],"classroomPairings":[["A","B"],["C","D"]],"coinWeights":[0.2,0.5,0.8],"subjectId":"AVFMTS8A5R4XK","assignmentId":"3VHP9MDGRO6M5NRHDDGNN0EF3TQFC5","hitId":"3J94SKDEKIB2MY6CGVTNWB9X0ALD5P","url":"https://gershmanlab.com/experiments/alicia/teaching/experiment/?hitId=3J94SKDEKIB2MY6CGVTNWB9X0ALD5P&workerId=AVFMTS8A5R4XK&assignmentId=3VHP9MDGRO6M5NRHDDGNN0EF3TQFC5&a=G9HV9&tp_a=G9HV9&b=3VHP9MDGRO6M5NRHDDGNN0EF3TQFC5&tp_b=3VHP9MDGRO6M5NRHDDGNN0EF3TQFC5&c=365799&tp_c=365799"},{"rt":null,"stimulus":"<div style=\"font-size:60px;\">Next student</div>","response":null,"trial_type":"html-keyboard-response","trial_index":51,"time_elapsed":1855894,"internal_node_id":"0.0-28.0-0.0","params":{"nStudents":24,"maxFlips":30,"completionMinutes":45,"basePay":8,"maxBonus":9,"perTrialBonus":0.5,"perTrialBonusThreshold":0.05,"exampleCost":0.01},"classroomParams":{"A":{"a":1,"b":4},"B":{"a":4,"b":1},"C":{"a":2,"b":8},"D":{"a":8,"b":2}},"conditions":["nonSeqFull","nonSeqPartial","seqNoFeedback","seqFeedback"],"classroomPairings":[["A","B"],["C","D"]],"coinWeights":[0.2,0.5,0.8],"subjectId":"AVFMTS8A5R4XK","assignmentId":"3VHP9MDGRO6M5NRHDDGNN0EF3TQFC5","hitId":"3J94SKDEKIB2MY6CGVTNWB9X0ALD5P","url":"https://gershmanlab.com/experiments/alicia/teaching/experiment/?hitId=3J94SKDEKIB2MY6CGVTNWB9X0ALD5P&workerId=AVFMTS8A5R4XK&assignmentId=3VHP9MDGRO6M5NRHDDGNN0EF3TQFC5&a=G9HV9&tp_a=G9HV9&b=3VHP9MDGRO6M5NRHDDGNN0EF3TQFC5&tp_b=3VHP9MDGRO6M5NRHDDGNN0EF3TQFC5&c=365799&tp_c=365799"},{"rt":2355,"stimulus":"\n            <h4 style=\"color:Orange;\">Student 5</h4>\n            <h2>The weight of your coin is <b style=\"color:Tomato;\">0.8</b>.</h2>\n            <p>In this block, you will be giving <b>one</b> set of examples to Student 5.</p>\n                <p>You will receive feedback at the end of the block.</p>\n            <p></p>","response":0,"trial_type":"html-button-response","trial_index":52,"time_elapsed":1858250,"internal_node_id":"0.0-29.0","params":{"nStudents":24,"maxFlips":30,"completionMinutes":45,"basePay":8,"maxBonus":9,"perTrialBonus":0.5,"perTrialBonusThreshold":0.05,"exampleCost":0.01},"classroomParams":{"A":{"a":1,"b":4},"B":{"a":4,"b":1},"C":{"a":2,"b":8},"D":{"a":8,"b":2}},"conditions":["nonSeqFull","nonSeqPartial","seqNoFeedback","seqFeedback"],"classroomPairings":[["A","B"],["C","D"]],"coinWeights":[0.2,0.5,0.8],"subjectId":"AVFMTS8A5R4XK","assignmentId":"3VHP9MDGRO6M5NRHDDGNN0EF3TQFC5","hitId":"3J94SKDEKIB2MY6CGVTNWB9X0ALD5P","url":"https://gershmanlab.com/experiments/alicia/teaching/experiment/?hitId=3J94SKDEKIB2MY6CGVTNWB9X0ALD5P&workerId=AVFMTS8A5R4XK&assignmentId=3VHP9MDGRO6M5NRHDDGNN0EF3TQFC5&a=G9HV9&tp_a=G9HV9&b=3VHP9MDGRO6M5NRHDDGNN0EF3TQFC5&tp_b=3VHP9MDGRO6M5NRHDDGNN0EF3TQFC5&c=365799&tp_c=365799"},{"rt":12845,"response":{"heads":"6","tails":"4"},"type":"response","condition":"nonSeqFull","trueTheta":0.8,"classrooms":["A","B"],"studentTrueClassroom":"A","exampleSet":"first","trial_type":"survey-html-form","trial_index":53,"time_elapsed":1871097,"internal_node_id":"0.0-30.0-0.0","params":{"nStudents":24,"maxFlips":30,"completionMinutes":45,"basePay":8,"maxBonus":9,"perTrialBonus":0.5,"perTrialBonusThreshold":0.05,"exampleCost":0.01},"classroomParams":{"A":{"a":1,"b":4},"B":{"a":4,"b":1},"C":{"a":2,"b":8},"D":{"a":8,"b":2}},"conditions":["nonSeqFull","nonSeqPartial","seqNoFeedback","seqFeedback"],"classroomPairings":[["A","B"],["C","D"]],"coinWeights":[0.2,0.5,0.8],"subjectId":"AVFMTS8A5R4XK","assignmentId":"3VHP9MDGRO6M5NRHDDGNN0EF3TQFC5","hitId":"3J94SKDEKIB2MY6CGVTNWB9X0ALD5P","url":"https://gershmanlab.com/experiments/alicia/teaching/experiment/?hitId=3J94SKDEKIB2MY6CGVTNWB9X0ALD5P&workerId=AVFMTS8A5R4XK&assignmentId=3VHP9MDGRO6M5NRHDDGNN0EF3TQFC5&a=G9HV9&tp_a=G9HV9&b=3VHP9MDGRO6M5NRHDDGNN0EF3TQFC5&tp_b=3VHP9MDGRO6M5NRHDDGNN0EF3TQFC5&c=365799&tp_c=365799","heads":6,"tails":4,"studentIndex":4,"studentTrueHypers":{"a":1,"b":4},"studentGuess":0.4666666666666667,"delta":0.33333333333333337,"totalExamples":10,"bonus":0,"bonusSoFar":0.4},{"rt":null,"stimulus":"Sending examples to student... ","response":null,"trial_type":"html-keyboard-response","trial_index":54,"time_elapsed":1873104,"internal_node_id":"0.0-31.0","params":{"nStudents":24,"maxFlips":30,"completionMinutes":45,"basePay":8,"maxBonus":9,"perTrialBonus":0.5,"perTrialBonusThreshold":0.05,"exampleCost":0.01},"classroomParams":{"A":{"a":1,"b":4},"B":{"a":4,"b":1},"C":{"a":2,"b":8},"D":{"a":8,"b":2}},"conditions":["nonSeqFull","nonSeqPartial","seqNoFeedback","seqFeedback"],"classroomPairings":[["A","B"],["C","D"]],"coinWeights":[0.2,0.5,0.8],"subjectId":"AVFMTS8A5R4XK","assignmentId":"3VHP9MDGRO6M5NRHDDGNN0EF3TQFC5","hitId":"3J94SKDEKIB2MY6CGVTNWB9X0ALD5P","url":"https://gershmanlab.com/experiments/alicia/teaching/experiment/?hitId=3J94SKDEKIB2MY6CGVTNWB9X0ALD5P&workerId=AVFMTS8A5R4XK&assignmentId=3VHP9MDGRO6M5NRHDDGNN0EF3TQFC5&a=G9HV9&tp_a=G9HV9&b=3VHP9MDGRO6M5NRHDDGNN0EF3TQFC5&tp_b=3VHP9MDGRO6M5NRHDDGNN0EF3TQFC5&c=365799&tp_c=365799"},{"rt":null,"stimulus":"Examples sent to student! Waiting for student...","response":null,"trial_type":"html-keyboard-response","trial_index":55,"time_elapsed":1878616,"internal_node_id":"0.0-32.0","params":{"nStudents":24,"maxFlips":30,"completionMinutes":45,"basePay":8,"maxBonus":9,"perTrialBonus":0.5,"perTrialBonusThreshold":0.05,"exampleCost":0.01},"classroomParams":{"A":{"a":1,"b":4},"B":{"a":4,"b":1},"C":{"a":2,"b":8},"D":{"a":8,"b":2}},"conditions":["nonSeqFull","nonSeqPartial","seqNoFeedback","seqFeedback"],"classroomPairings":[["A","B"],["C","D"]],"coinWeights":[0.2,0.5,0.8],"subjectId":"AVFMTS8A5R4XK","assignmentId":"3VHP9MDGRO6M5NRHDDGNN0EF3TQFC5","hitId":"3J94SKDEKIB2MY6CGVTNWB9X0ALD5P","url":"https://gershmanlab.com/experiments/alicia/teaching/experiment/?hitId=3J94SKDEKIB2MY6CGVTNWB9X0ALD5P&workerId=AVFMTS8A5R4XK&assignmentId=3VHP9MDGRO6M5NRHDDGNN0EF3TQFC5&a=G9HV9&tp_a=G9HV9&b=3VHP9MDGRO6M5NRHDDGNN0EF3TQFC5&tp_b=3VHP9MDGRO6M5NRHDDGNN0EF3TQFC5&c=365799&tp_c=365799"},{"rt":2516,"stimulus":"\n                <p>Student's guess for coin weight: <b style=\"color:Tomato;\">0.47</b></p>\n                <p>You received a bonus of <b>$0</b>. Total bonus so far: <b>$0.40</b></b></p>\n                <p></p>\n                <p>Press any key to continue.</p>\n                ","response":" ","trial_type":"html-keyboard-response","trial_index":56,"time_elapsed":1881133,"internal_node_id":"0.0-33.0","params":{"nStudents":24,"maxFlips":30,"completionMinutes":45,"basePay":8,"maxBonus":9,"perTrialBonus":0.5,"perTrialBonusThreshold":0.05,"exampleCost":0.01},"classroomParams":{"A":{"a":1,"b":4},"B":{"a":4,"b":1},"C":{"a":2,"b":8},"D":{"a":8,"b":2}},"conditions":["nonSeqFull","nonSeqPartial","seqNoFeedback","seqFeedback"],"classroomPairings":[["A","B"],["C","D"]],"coinWeights":[0.2,0.5,0.8],"subjectId":"AVFMTS8A5R4XK","assignmentId":"3VHP9MDGRO6M5NRHDDGNN0EF3TQFC5","hitId":"3J94SKDEKIB2MY6CGVTNWB9X0ALD5P","url":"https://gershmanlab.com/experiments/alicia/teaching/experiment/?hitId=3J94SKDEKIB2MY6CGVTNWB9X0ALD5P&workerId=AVFMTS8A5R4XK&assignmentId=3VHP9MDGRO6M5NRHDDGNN0EF3TQFC5&a=G9HV9&tp_a=G9HV9&b=3VHP9MDGRO6M5NRHDDGNN0EF3TQFC5&tp_b=3VHP9MDGRO6M5NRHDDGNN0EF3TQFC5&c=365799&tp_c=365799"},{"rt":null,"stimulus":"<div style=\"font-size:60px;\">Next student</div>","response":null,"trial_type":"html-keyboard-response","trial_index":57,"time_elapsed":1883136,"internal_node_id":"0.0-34.0-0.0","params":{"nStudents":24,"maxFlips":30,"completionMinutes":45,"basePay":8,"maxBonus":9,"perTrialBonus":0.5,"perTrialBonusThreshold":0.05,"exampleCost":0.01},"classroomParams":{"A":{"a":1,"b":4},"B":{"a":4,"b":1},"C":{"a":2,"b":8},"D":{"a":8,"b":2}},"conditions":["nonSeqFull","nonSeqPartial","seqNoFeedback","seqFeedback"],"classroomPairings":[["A","B"],["C","D"]],"coinWeights":[0.2,0.5,0.8],"subjectId":"AVFMTS8A5R4XK","assignmentId":"3VHP9MDGRO6M5NRHDDGNN0EF3TQFC5","hitId":"3J94SKDEKIB2MY6CGVTNWB9X0ALD5P","url":"https://gershmanlab.com/experiments/alicia/teaching/experiment/?hitId=3J94SKDEKIB2MY6CGVTNWB9X0ALD5P&workerId=AVFMTS8A5R4XK&assignmentId=3VHP9MDGRO6M5NRHDDGNN0EF3TQFC5&a=G9HV9&tp_a=G9HV9&b=3VHP9MDGRO6M5NRHDDGNN0EF3TQFC5&tp_b=3VHP9MDGRO6M5NRHDDGNN0EF3TQFC5&c=365799&tp_c=365799"},{"rt":4660,"stimulus":"\n            <h4 style=\"color:Orange;\">Student 6</h4>\n            <h2>The weight of your coin is <b style=\"color:Tomato;\">0.8</b>.</h2>\n            <p>In this block, you will be giving <b>one</b> set of examples to Student 6.</p>\n                <p>You will receive feedback at the end of the block.</p>\n            <p></p>","response":0,"trial_type":"html-button-response","trial_index":58,"time_elapsed":1887798,"internal_node_id":"0.0-35.0","params":{"nStudents":24,"maxFlips":30,"completionMinutes":45,"basePay":8,"maxBonus":9,"perTrialBonus":0.5,"perTrialBonusThreshold":0.05,"exampleCost":0.01},"classroomParams":{"A":{"a":1,"b":4},"B":{"a":4,"b":1},"C":{"a":2,"b":8},"D":{"a":8,"b":2}},"conditions":["nonSeqFull","nonSeqPartial","seqNoFeedback","seqFeedback"],"classroomPairings":[["A","B"],["C","D"]],"coinWeights":[0.2,0.5,0.8],"subjectId":"AVFMTS8A5R4XK","assignmentId":"3VHP9MDGRO6M5NRHDDGNN0EF3TQFC5","hitId":"3J94SKDEKIB2MY6CGVTNWB9X0ALD5P","url":"https://gershmanlab.com/experiments/alicia/teaching/experiment/?hitId=3J94SKDEKIB2MY6CGVTNWB9X0ALD5P&workerId=AVFMTS8A5R4XK&assignmentId=3VHP9MDGRO6M5NRHDDGNN0EF3TQFC5&a=G9HV9&tp_a=G9HV9&b=3VHP9MDGRO6M5NRHDDGNN0EF3TQFC5&tp_b=3VHP9MDGRO6M5NRHDDGNN0EF3TQFC5&c=365799&tp_c=365799"},{"rt":13292,"response":{"heads":"6","tails":"4"},"type":"response","condition":"nonSeqFull","trueTheta":0.8,"classrooms":["C","D"],"studentTrueClassroom":"D","exampleSet":"first","trial_type":"survey-html-form","trial_index":59,"time_elapsed":1901092,"internal_node_id":"0.0-36.0-0.0","params":{"nStudents":24,"maxFlips":30,"completionMinutes":45,"basePay":8,"maxBonus":9,"perTrialBonus":0.5,"perTrialBonusThreshold":0.05,"exampleCost":0.01},"classroomParams":{"A":{"a":1,"b":4},"B":{"a":4,"b":1},"C":{"a":2,"b":8},"D":{"a":8,"b":2}},"conditions":["nonSeqFull","nonSeqPartial","seqNoFeedback","seqFeedback"],"classroomPairings":[["A","B"],["C","D"]],"coinWeights":[0.2,0.5,0.8],"subjectId":"AVFMTS8A5R4XK","assignmentId":"3VHP9MDGRO6M5NRHDDGNN0EF3TQFC5","hitId":"3J94SKDEKIB2MY6CGVTNWB9X0ALD5P","url":"https://gershmanlab.com/experiments/alicia/teaching/experiment/?hitId=3J94SKDEKIB2MY6CGVTNWB9X0ALD5P&workerId=AVFMTS8A5R4XK&assignmentId=3VHP9MDGRO6M5NRHDDGNN0EF3TQFC5&a=G9HV9&tp_a=G9HV9&b=3VHP9MDGRO6M5NRHDDGNN0EF3TQFC5&tp_b=3VHP9MDGRO6M5NRHDDGNN0EF3TQFC5&c=365799&tp_c=365799","heads":6,"tails":4,"studentIndex":5,"studentTrueHypers":{"a":8,"b":2},"studentGuess":0.7,"delta":0.10000000000000009,"totalExamples":10,"bonus":0,"bonusSoFar":0.4},{"rt":null,"stimulus":"Sending examples to student... ","response":null,"trial_type":"html-keyboard-response","trial_index":60,"time_elapsed":1903108,"internal_node_id":"0.0-37.0","params":{"nStudents":24,"maxFlips":30,"completionMinutes":45,"basePay":8,"maxBonus":9,"perTrialBonus":0.5,"perTrialBonusThreshold":0.05,"exampleCost":0.01},"classroomParams":{"A":{"a":1,"b":4},"B":{"a":4,"b":1},"C":{"a":2,"b":8},"D":{"a":8,"b":2}},"conditions":["nonSeqFull","nonSeqPartial","seqNoFeedback","seqFeedback"],"classroomPairings":[["A","B"],["C","D"]],"coinWeights":[0.2,0.5,0.8],"subjectId":"AVFMTS8A5R4XK","assignmentId":"3VHP9MDGRO6M5NRHDDGNN0EF3TQFC5","hitId":"3J94SKDEKIB2MY6CGVTNWB9X0ALD5P","url":"https://gershmanlab.com/experiments/alicia/teaching/experiment/?hitId=3J94SKDEKIB2MY6CGVTNWB9X0ALD5P&workerId=AVFMTS8A5R4XK&assignmentId=3VHP9MDGRO6M5NRHDDGNN0EF3TQFC5&a=G9HV9&tp_a=G9HV9&b=3VHP9MDGRO6M5NRHDDGNN0EF3TQFC5&tp_b=3VHP9MDGRO6M5NRHDDGNN0EF3TQFC5&c=365799&tp_c=365799"},{"rt":null,"stimulus":"Examples sent to student! Waiting for student...","response":null,"trial_type":"html-keyboard-response","trial_index":61,"time_elapsed":1908110,"internal_node_id":"0.0-38.0","params":{"nStudents":24,"maxFlips":30,"completionMinutes":45,"basePay":8,"maxBonus":9,"perTrialBonus":0.5,"perTrialBonusThreshold":0.05,"exampleCost":0.01},"classroomParams":{"A":{"a":1,"b":4},"B":{"a":4,"b":1},"C":{"a":2,"b":8},"D":{"a":8,"b":2}},"conditions":["nonSeqFull","nonSeqPartial","seqNoFeedback","seqFeedback"],"classroomPairings":[["A","B"],["C","D"]],"coinWeights":[0.2,0.5,0.8],"subjectId":"AVFMTS8A5R4XK","assignmentId":"3VHP9MDGRO6M5NRHDDGNN0EF3TQFC5","hitId":"3J94SKDEKIB2MY6CGVTNWB9X0ALD5P","url":"https://gershmanlab.com/experiments/alicia/teaching/experiment/?hitId=3J94SKDEKIB2MY6CGVTNWB9X0ALD5P&workerId=AVFMTS8A5R4XK&assignmentId=3VHP9MDGRO6M5NRHDDGNN0EF3TQFC5&a=G9HV9&tp_a=G9HV9&b=3VHP9MDGRO6M5NRHDDGNN0EF3TQFC5&tp_b=3VHP9MDGRO6M5NRHDDGNN0EF3TQFC5&c=365799&tp_c=365799"},{"rt":809,"stimulus":"\n                <p>Student's guess for coin weight: <b style=\"color:Tomato;\">0.70</b></p>\n                <p>You received a bonus of <b>$0</b>. Total bonus so far: <b>$0.40</b></b></p>\n                <p></p>\n                <p>Press any key to continue.</p>\n                ","response":" ","trial_type":"html-keyboard-response","trial_index":62,"time_elapsed":1908920,"internal_node_id":"0.0-39.0","params":{"nStudents":24,"maxFlips":30,"completionMinutes":45,"basePay":8,"maxBonus":9,"perTrialBonus":0.5,"perTrialBonusThreshold":0.05,"exampleCost":0.01},"classroomParams":{"A":{"a":1,"b":4},"B":{"a":4,"b":1},"C":{"a":2,"b":8},"D":{"a":8,"b":2}},"conditions":["nonSeqFull","nonSeqPartial","seqNoFeedback","seqFeedback"],"classroomPairings":[["A","B"],["C","D"]],"coinWeights":[0.2,0.5,0.8],"subjectId":"AVFMTS8A5R4XK","assignmentId":"3VHP9MDGRO6M5NRHDDGNN0EF3TQFC5","hitId":"3J94SKDEKIB2MY6CGVTNWB9X0ALD5P","url":"https://gershmanlab.com/experiments/alicia/teaching/experiment/?hitId=3J94SKDEKIB2MY6CGVTNWB9X0ALD5P&workerId=AVFMTS8A5R4XK&assignmentId=3VHP9MDGRO6M5NRHDDGNN0EF3TQFC5&a=G9HV9&tp_a=G9HV9&b=3VHP9MDGRO6M5NRHDDGNN0EF3TQFC5&tp_b=3VHP9MDGRO6M5NRHDDGNN0EF3TQFC5&c=365799&tp_c=365799"},{"rt":null,"stimulus":"<div style=\"font-size:60px;\">Next student</div>","response":null,"trial_type":"html-keyboard-response","trial_index":63,"time_elapsed":1911173,"internal_node_id":"0.0-40.0-0.0","params":{"nStudents":24,"maxFlips":30,"completionMinutes":45,"basePay":8,"maxBonus":9,"perTrialBonus":0.5,"perTrialBonusThreshold":0.05,"exampleCost":0.01},"classroomParams":{"A":{"a":1,"b":4},"B":{"a":4,"b":1},"C":{"a":2,"b":8},"D":{"a":8,"b":2}},"conditions":["nonSeqFull","nonSeqPartial","seqNoFeedback","seqFeedback"],"classroomPairings":[["A","B"],["C","D"]],"coinWeights":[0.2,0.5,0.8],"subjectId":"AVFMTS8A5R4XK","assignmentId":"3VHP9MDGRO6M5NRHDDGNN0EF3TQFC5","hitId":"3J94SKDEKIB2MY6CGVTNWB9X0ALD5P","url":"https://gershmanlab.com/experiments/alicia/teaching/experiment/?hitId=3J94SKDEKIB2MY6CGVTNWB9X0ALD5P&workerId=AVFMTS8A5R4XK&assignmentId=3VHP9MDGRO6M5NRHDDGNN0EF3TQFC5&a=G9HV9&tp_a=G9HV9&b=3VHP9MDGRO6M5NRHDDGNN0EF3TQFC5&tp_b=3VHP9MDGRO6M5NRHDDGNN0EF3TQFC5&c=365799&tp_c=365799"},{"rt":4384,"stimulus":"\n            <h4 style=\"color:Orange;\">Student 7</h4>\n            <h2>The weight of your coin is <b style=\"color:Tomato;\">0.5</b>.</h2>\n            <p>In this block, you will be giving <b>one</b> set of examples to Student 7.</p>\n                <p>You will receive feedback at the end of the block.</p>\n            <p></p>","response":0,"trial_type":"html-button-response","trial_index":64,"time_elapsed":1915558,"internal_node_id":"0.0-41.0","params":{"nStudents":24,"maxFlips":30,"completionMinutes":45,"basePay":8,"maxBonus":9,"perTrialBonus":0.5,"perTrialBonusThreshold":0.05,"exampleCost":0.01},"classroomParams":{"A":{"a":1,"b":4},"B":{"a":4,"b":1},"C":{"a":2,"b":8},"D":{"a":8,"b":2}},"conditions":["nonSeqFull","nonSeqPartial","seqNoFeedback","seqFeedback"],"classroomPairings":[["A","B"],["C","D"]],"coinWeights":[0.2,0.5,0.8],"subjectId":"AVFMTS8A5R4XK","assignmentId":"3VHP9MDGRO6M5NRHDDGNN0EF3TQFC5","hitId":"3J94SKDEKIB2MY6CGVTNWB9X0ALD5P","url":"https://gershmanlab.com/experiments/alicia/teaching/experiment/?hitId=3J94SKDEKIB2MY6CGVTNWB9X0ALD5P&workerId=AVFMTS8A5R4XK&assignmentId=3VHP9MDGRO6M5NRHDDGNN0EF3TQFC5&a=G9HV9&tp_a=G9HV9&b=3VHP9MDGRO6M5NRHDDGNN0EF3TQFC5&tp_b=3VHP9MDGRO6M5NRHDDGNN0EF3TQFC5&c=365799&tp_c=365799"},{"rt":8308,"response":{"heads":"5","tails":"7"},"type":"response","condition":"nonSeqPartial","trueTheta":0.5,"classrooms":["C","D"],"studentTrueClassroom":"D","exampleSet":"first","trial_type":"survey-html-form","trial_index":65,"time_elapsed":1923868,"internal_node_id":"0.0-42.0-0.0","params":{"nStudents":24,"maxFlips":30,"completionMinutes":45,"basePay":8,"maxBonus":9,"perTrialBonus":0.5,"perTrialBonusThreshold":0.05,"exampleCost":0.01},"classroomParams":{"A":{"a":1,"b":4},"B":{"a":4,"b":1},"C":{"a":2,"b":8},"D":{"a":8,"b":2}},"conditions":["nonSeqFull","nonSeqPartial","seqNoFeedback","seqFeedback"],"classroomPairings":[["A","B"],["C","D"]],"coinWeights":[0.2,0.5,0.8],"subjectId":"AVFMTS8A5R4XK","assignmentId":"3VHP9MDGRO6M5NRHDDGNN0EF3TQFC5","hitId":"3J94SKDEKIB2MY6CGVTNWB9X0ALD5P","url":"https://gershmanlab.com/experiments/alicia/teaching/experiment/?hitId=3J94SKDEKIB2MY6CGVTNWB9X0ALD5P&workerId=AVFMTS8A5R4XK&assignmentId=3VHP9MDGRO6M5NRHDDGNN0EF3TQFC5&a=G9HV9&tp_a=G9HV9&b=3VHP9MDGRO6M5NRHDDGNN0EF3TQFC5&tp_b=3VHP9MDGRO6M5NRHDDGNN0EF3TQFC5&c=365799&tp_c=365799","heads":5,"tails":7,"studentIndex":6,"studentTrueHypers":{"a":8,"b":2},"studentGuess":0.5909090909090909,"delta":0.09090909090909094,"totalExamples":12,"bonus":0,"bonusSoFar":0.4},{"rt":null,"stimulus":"Sending examples to student... ","response":null,"trial_type":"html-keyboard-response","trial_index":66,"time_elapsed":1925872,"internal_node_id":"0.0-43.0","params":{"nStudents":24,"maxFlips":30,"completionMinutes":45,"basePay":8,"maxBonus":9,"perTrialBonus":0.5,"perTrialBonusThreshold":0.05,"exampleCost":0.01},"classroomParams":{"A":{"a":1,"b":4},"B":{"a":4,"b":1},"C":{"a":2,"b":8},"D":{"a":8,"b":2}},"conditions":["nonSeqFull","nonSeqPartial","seqNoFeedback","seqFeedback"],"classroomPairings":[["A","B"],["C","D"]],"coinWeights":[0.2,0.5,0.8],"subjectId":"AVFMTS8A5R4XK","assignmentId":"3VHP9MDGRO6M5NRHDDGNN0EF3TQFC5","hitId":"3J94SKDEKIB2MY6CGVTNWB9X0ALD5P","url":"https://gershmanlab.com/experiments/alicia/teaching/experiment/?hitId=3J94SKDEKIB2MY6CGVTNWB9X0ALD5P&workerId=AVFMTS8A5R4XK&assignmentId=3VHP9MDGRO6M5NRHDDGNN0EF3TQFC5&a=G9HV9&tp_a=G9HV9&b=3VHP9MDGRO6M5NRHDDGNN0EF3TQFC5&tp_b=3VHP9MDGRO6M5NRHDDGNN0EF3TQFC5&c=365799&tp_c=365799"},{"rt":null,"stimulus":"Examples sent to student! Waiting for student...","response":null,"trial_type":"html-keyboard-response","trial_index":67,"time_elapsed":1930374,"internal_node_id":"0.0-44.0","params":{"nStudents":24,"maxFlips":30,"completionMinutes":45,"basePay":8,"maxBonus":9,"perTrialBonus":0.5,"perTrialBonusThreshold":0.05,"exampleCost":0.01},"classroomParams":{"A":{"a":1,"b":4},"B":{"a":4,"b":1},"C":{"a":2,"b":8},"D":{"a":8,"b":2}},"conditions":["nonSeqFull","nonSeqPartial","seqNoFeedback","seqFeedback"],"classroomPairings":[["A","B"],["C","D"]],"coinWeights":[0.2,0.5,0.8],"subjectId":"AVFMTS8A5R4XK","assignmentId":"3VHP9MDGRO6M5NRHDDGNN0EF3TQFC5","hitId":"3J94SKDEKIB2MY6CGVTNWB9X0ALD5P","url":"https://gershmanlab.com/experiments/alicia/teaching/experiment/?hitId=3J94SKDEKIB2MY6CGVTNWB9X0ALD5P&workerId=AVFMTS8A5R4XK&assignmentId=3VHP9MDGRO6M5NRHDDGNN0EF3TQFC5&a=G9HV9&tp_a=G9HV9&b=3VHP9MDGRO6M5NRHDDGNN0EF3TQFC5&tp_b=3VHP9MDGRO6M5NRHDDGNN0EF3TQFC5&c=365799&tp_c=365799"},{"rt":1555,"stimulus":"\n                <p>Student's guess for coin weight: <b style=\"color:Tomato;\">0.59</b></p>\n                <p>You received a bonus of <b>$0</b>. Total bonus so far: <b>$0.40</b></b></p>\n                <p></p>\n                <p>Press any key to continue.</p>\n                ","response":" ","trial_type":"html-keyboard-response","trial_index":68,"time_elapsed":1931930,"internal_node_id":"0.0-45.0","params":{"nStudents":24,"maxFlips":30,"completionMinutes":45,"basePay":8,"maxBonus":9,"perTrialBonus":0.5,"perTrialBonusThreshold":0.05,"exampleCost":0.01},"classroomParams":{"A":{"a":1,"b":4},"B":{"a":4,"b":1},"C":{"a":2,"b":8},"D":{"a":8,"b":2}},"conditions":["nonSeqFull","nonSeqPartial","seqNoFeedback","seqFeedback"],"classroomPairings":[["A","B"],["C","D"]],"coinWeights":[0.2,0.5,0.8],"subjectId":"AVFMTS8A5R4XK","assignmentId":"3VHP9MDGRO6M5NRHDDGNN0EF3TQFC5","hitId":"3J94SKDEKIB2MY6CGVTNWB9X0ALD5P","url":"https://gershmanlab.com/experiments/alicia/teaching/experiment/?hitId=3J94SKDEKIB2MY6CGVTNWB9X0ALD5P&workerId=AVFMTS8A5R4XK&assignmentId=3VHP9MDGRO6M5NRHDDGNN0EF3TQFC5&a=G9HV9&tp_a=G9HV9&b=3VHP9MDGRO6M5NRHDDGNN0EF3TQFC5&tp_b=3VHP9MDGRO6M5NRHDDGNN0EF3TQFC5&c=365799&tp_c=365799"},{"rt":null,"stimulus":"<div style=\"font-size:60px;\">Next student</div>","response":null,"trial_type":"html-keyboard-response","trial_index":69,"time_elapsed":1934437,"internal_node_id":"0.0-46.0-0.0","params":{"nStudents":24,"maxFlips":30,"completionMinutes":45,"basePay":8,"maxBonus":9,"perTrialBonus":0.5,"perTrialBonusThreshold":0.05,"exampleCost":0.01},"classroomParams":{"A":{"a":1,"b":4},"B":{"a":4,"b":1},"C":{"a":2,"b":8},"D":{"a":8,"b":2}},"conditions":["nonSeqFull","nonSeqPartial","seqNoFeedback","seqFeedback"],"classroomPairings":[["A","B"],["C","D"]],"coinWeights":[0.2,0.5,0.8],"subjectId":"AVFMTS8A5R4XK","assignmentId":"3VHP9MDGRO6M5NRHDDGNN0EF3TQFC5","hitId":"3J94SKDEKIB2MY6CGVTNWB9X0ALD5P","url":"https://gershmanlab.com/experiments/alicia/teaching/experiment/?hitId=3J94SKDEKIB2MY6CGVTNWB9X0ALD5P&workerId=AVFMTS8A5R4XK&assignmentId=3VHP9MDGRO6M5NRHDDGNN0EF3TQFC5&a=G9HV9&tp_a=G9HV9&b=3VHP9MDGRO6M5NRHDDGNN0EF3TQFC5&tp_b=3VHP9MDGRO6M5NRHDDGNN0EF3TQFC5&c=365799&tp_c=365799"},{"rt":3409,"stimulus":"\n            <h4 style=\"color:Orange;\">Student 8</h4>\n            <h2>The weight of your coin is <b style=\"color:Tomato;\">0.2</b>.</h2>\n            <p>In this block, you will be giving <b>two</b> sets of examples to Student 8.</p>\n                <p>You will see the student's guess after the first set of examples. You will also receive feedback at the end of the block.</p>\n            <p>To earn the highest bonus, you will have to <b>take into consideration the student's guess</b> when you choose your second set of examples.</p>","response":0,"trial_type":"html-button-response","trial_index":70,"time_elapsed":1937847,"internal_node_id":"0.0-47.0","params":{"nStudents":24,"maxFlips":30,"completionMinutes":45,"basePay":8,"maxBonus":9,"perTrialBonus":0.5,"perTrialBonusThreshold":0.05,"exampleCost":0.01},"classroomParams":{"A":{"a":1,"b":4},"B":{"a":4,"b":1},"C":{"a":2,"b":8},"D":{"a":8,"b":2}},"conditions":["nonSeqFull","nonSeqPartial","seqNoFeedback","seqFeedback"],"classroomPairings":[["A","B"],["C","D"]],"coinWeights":[0.2,0.5,0.8],"subjectId":"AVFMTS8A5R4XK","assignmentId":"3VHP9MDGRO6M5NRHDDGNN0EF3TQFC5","hitId":"3J94SKDEKIB2MY6CGVTNWB9X0ALD5P","url":"https://gershmanlab.com/experiments/alicia/teaching/experiment/?hitId=3J94SKDEKIB2MY6CGVTNWB9X0ALD5P&workerId=AVFMTS8A5R4XK&assignmentId=3VHP9MDGRO6M5NRHDDGNN0EF3TQFC5&a=G9HV9&tp_a=G9HV9&b=3VHP9MDGRO6M5NRHDDGNN0EF3TQFC5&tp_b=3VHP9MDGRO6M5NRHDDGNN0EF3TQFC5&c=365799&tp_c=365799"},{"rt":7846,"response":{"heads":"7","tails":"3"},"type":"response","condition":"seqFeedback","trueTheta":0.2,"classrooms":["A","B"],"studentTrueClassroom":"A","exampleSet":"first","trial_type":"survey-html-form","trial_index":71,"time_elapsed":1945695,"internal_node_id":"0.0-48.0-0.0","params":{"nStudents":24,"maxFlips":30,"completionMinutes":45,"basePay":8,"maxBonus":9,"perTrialBonus":0.5,"perTrialBonusThreshold":0.05,"exampleCost":0.01},"classroomParams":{"A":{"a":1,"b":4},"B":{"a":4,"b":1},"C":{"a":2,"b":8},"D":{"a":8,"b":2}},"conditions":["nonSeqFull","nonSeqPartial","seqNoFeedback","seqFeedback"],"classroomPairings":[["A","B"],["C","D"]],"coinWeights":[0.2,0.5,0.8],"subjectId":"AVFMTS8A5R4XK","assignmentId":"3VHP9MDGRO6M5NRHDDGNN0EF3TQFC5","hitId":"3J94SKDEKIB2MY6CGVTNWB9X0ALD5P","url":"https://gershmanlab.com/experiments/alicia/teaching/experiment/?hitId=3J94SKDEKIB2MY6CGVTNWB9X0ALD5P&workerId=AVFMTS8A5R4XK&assignmentId=3VHP9MDGRO6M5NRHDDGNN0EF3TQFC5&a=G9HV9&tp_a=G9HV9&b=3VHP9MDGRO6M5NRHDDGNN0EF3TQFC5&tp_b=3VHP9MDGRO6M5NRHDDGNN0EF3TQFC5&c=365799&tp_c=365799","heads":7,"tails":3,"studentIndex":7,"studentTrueHypers":{"a":1,"b":4},"studentGuess":0.5333333333333333,"delta":0.3333333333333333,"totalExamples":10,"bonusSoFar":0.4},{"rt":null,"stimulus":"Sending examples to student... ","response":null,"trial_type":"html-keyboard-response","trial_index":72,"time_elapsed":1947453,"internal_node_id":"0.0-49.0","params":{"nStudents":24,"maxFlips":30,"completionMinutes":45,"basePay":8,"maxBonus":9,"perTrialBonus":0.5,"perTrialBonusThreshold":0.05,"exampleCost":0.01},"classroomParams":{"A":{"a":1,"b":4},"B":{"a":4,"b":1},"C":{"a":2,"b":8},"D":{"a":8,"b":2}},"conditions":["nonSeqFull","nonSeqPartial","seqNoFeedback","seqFeedback"],"classroomPairings":[["A","B"],["C","D"]],"coinWeights":[0.2,0.5,0.8],"subjectId":"AVFMTS8A5R4XK","assignmentId":"3VHP9MDGRO6M5NRHDDGNN0EF3TQFC5","hitId":"3J94SKDEKIB2MY6CGVTNWB9X0ALD5P","url":"https://gershmanlab.com/experiments/alicia/teaching/experiment/?hitId=3J94SKDEKIB2MY6CGVTNWB9X0ALD5P&workerId=AVFMTS8A5R4XK&assignmentId=3VHP9MDGRO6M5NRHDDGNN0EF3TQFC5&a=G9HV9&tp_a=G9HV9&b=3VHP9MDGRO6M5NRHDDGNN0EF3TQFC5&tp_b=3VHP9MDGRO6M5NRHDDGNN0EF3TQFC5&c=365799&tp_c=365799"},{"rt":null,"stimulus":"Examples sent to student! Waiting for student...","response":null,"trial_type":"html-keyboard-response","trial_index":73,"time_elapsed":1951454,"internal_node_id":"0.0-50.0","params":{"nStudents":24,"maxFlips":30,"completionMinutes":45,"basePay":8,"maxBonus":9,"perTrialBonus":0.5,"perTrialBonusThreshold":0.05,"exampleCost":0.01},"classroomParams":{"A":{"a":1,"b":4},"B":{"a":4,"b":1},"C":{"a":2,"b":8},"D":{"a":8,"b":2}},"conditions":["nonSeqFull","nonSeqPartial","seqNoFeedback","seqFeedback"],"classroomPairings":[["A","B"],["C","D"]],"coinWeights":[0.2,0.5,0.8],"subjectId":"AVFMTS8A5R4XK","assignmentId":"3VHP9MDGRO6M5NRHDDGNN0EF3TQFC5","hitId":"3J94SKDEKIB2MY6CGVTNWB9X0ALD5P","url":"https://gershmanlab.com/experiments/alicia/teaching/experiment/?hitId=3J94SKDEKIB2MY6CGVTNWB9X0ALD5P&workerId=AVFMTS8A5R4XK&assignmentId=3VHP9MDGRO6M5NRHDDGNN0EF3TQFC5&a=G9HV9&tp_a=G9HV9&b=3VHP9MDGRO6M5NRHDDGNN0EF3TQFC5&tp_b=3VHP9MDGRO6M5NRHDDGNN0EF3TQFC5&c=365799&tp_c=365799"},{"rt":2416,"stimulus":"\n                <p>Student's guess for coin weight: <b style=\"color:Tomato;\">0.53</b></p>\n                <p></b></p>\n                <p>You will now send another set of examples to your student. <b>Remember to take your student's guess into consideration so that you can earn the highest bonus possible!</b> </p>\n                <p>Press any key to continue.</p>\n                ","response":" ","trial_type":"html-keyboard-response","trial_index":74,"time_elapsed":1953871,"internal_node_id":"0.0-51.0","params":{"nStudents":24,"maxFlips":30,"completionMinutes":45,"basePay":8,"maxBonus":9,"perTrialBonus":0.5,"perTrialBonusThreshold":0.05,"exampleCost":0.01},"classroomParams":{"A":{"a":1,"b":4},"B":{"a":4,"b":1},"C":{"a":2,"b":8},"D":{"a":8,"b":2}},"conditions":["nonSeqFull","nonSeqPartial","seqNoFeedback","seqFeedback"],"classroomPairings":[["A","B"],["C","D"]],"coinWeights":[0.2,0.5,0.8],"subjectId":"AVFMTS8A5R4XK","assignmentId":"3VHP9MDGRO6M5NRHDDGNN0EF3TQFC5","hitId":"3J94SKDEKIB2MY6CGVTNWB9X0ALD5P","url":"https://gershmanlab.com/experiments/alicia/teaching/experiment/?hitId=3J94SKDEKIB2MY6CGVTNWB9X0ALD5P&workerId=AVFMTS8A5R4XK&assignmentId=3VHP9MDGRO6M5NRHDDGNN0EF3TQFC5&a=G9HV9&tp_a=G9HV9&b=3VHP9MDGRO6M5NRHDDGNN0EF3TQFC5&tp_b=3VHP9MDGRO6M5NRHDDGNN0EF3TQFC5&c=365799&tp_c=365799"},{"rt":10749,"response":{"heads":"7","tails":"6"},"type":"response","condition":"seqFeedback","trueTheta":0.2,"classrooms":["A","B"],"studentTrueClassroom":"A","exampleSet":"second","trial_type":"survey-html-form","trial_index":75,"time_elapsed":1964622,"internal_node_id":"0.0-52.0-0.0","params":{"nStudents":24,"maxFlips":30,"completionMinutes":45,"basePay":8,"maxBonus":9,"perTrialBonus":0.5,"perTrialBonusThreshold":0.05,"exampleCost":0.01},"classroomParams":{"A":{"a":1,"b":4},"B":{"a":4,"b":1},"C":{"a":2,"b":8},"D":{"a":8,"b":2}},"conditions":["nonSeqFull","nonSeqPartial","seqNoFeedback","seqFeedback"],"classroomPairings":[["A","B"],["C","D"]],"coinWeights":[0.2,0.5,0.8],"subjectId":"AVFMTS8A5R4XK","assignmentId":"3VHP9MDGRO6M5NRHDDGNN0EF3TQFC5","hitId":"3J94SKDEKIB2MY6CGVTNWB9X0ALD5P","url":"https://gershmanlab.com/experiments/alicia/teaching/experiment/?hitId=3J94SKDEKIB2MY6CGVTNWB9X0ALD5P&workerId=AVFMTS8A5R4XK&assignmentId=3VHP9MDGRO6M5NRHDDGNN0EF3TQFC5&a=G9HV9&tp_a=G9HV9&b=3VHP9MDGRO6M5NRHDDGNN0EF3TQFC5&tp_b=3VHP9MDGRO6M5NRHDDGNN0EF3TQFC5&c=365799&tp_c=365799","firstResponseHeads":7,"firstResponseTails":3,"secondResponseHeads":7,"secondResponseTails":6,"totalHeads":14,"totalTails":9,"studentIndex":7,"studentTrueHypers":{"a":1,"b":4},"studentGuess":0.5357142857142857,"delta":0.3357142857142857,"bonus":0,"bonusSoFar":0.4,"totalExamples":23},{"rt":null,"stimulus":"Sending examples to student... ","response":null,"trial_type":"html-keyboard-response","trial_index":76,"time_elapsed":1965875,"internal_node_id":"0.0-53.0","params":{"nStudents":24,"maxFlips":30,"completionMinutes":45,"basePay":8,"maxBonus":9,"perTrialBonus":0.5,"perTrialBonusThreshold":0.05,"exampleCost":0.01},"classroomParams":{"A":{"a":1,"b":4},"B":{"a":4,"b":1},"C":{"a":2,"b":8},"D":{"a":8,"b":2}},"conditions":["nonSeqFull","nonSeqPartial","seqNoFeedback","seqFeedback"],"classroomPairings":[["A","B"],["C","D"]],"coinWeights":[0.2,0.5,0.8],"subjectId":"AVFMTS8A5R4XK","assignmentId":"3VHP9MDGRO6M5NRHDDGNN0EF3TQFC5","hitId":"3J94SKDEKIB2MY6CGVTNWB9X0ALD5P","url":"https://gershmanlab.com/experiments/alicia/teaching/experiment/?hitId=3J94SKDEKIB2MY6CGVTNWB9X0ALD5P&workerId=AVFMTS8A5R4XK&assignmentId=3VHP9MDGRO6M5NRHDDGNN0EF3TQFC5&a=G9HV9&tp_a=G9HV9&b=3VHP9MDGRO6M5NRHDDGNN0EF3TQFC5&tp_b=3VHP9MDGRO6M5NRHDDGNN0EF3TQFC5&c=365799&tp_c=365799"},{"rt":null,"stimulus":"Examples sent to student! Waiting for student...","response":null,"trial_type":"html-keyboard-response","trial_index":77,"time_elapsed":1971378,"internal_node_id":"0.0-54.0","params":{"nStudents":24,"maxFlips":30,"completionMinutes":45,"basePay":8,"maxBonus":9,"perTrialBonus":0.5,"perTrialBonusThreshold":0.05,"exampleCost":0.01},"classroomParams":{"A":{"a":1,"b":4},"B":{"a":4,"b":1},"C":{"a":2,"b":8},"D":{"a":8,"b":2}},"conditions":["nonSeqFull","nonSeqPartial","seqNoFeedback","seqFeedback"],"classroomPairings":[["A","B"],["C","D"]],"coinWeights":[0.2,0.5,0.8],"subjectId":"AVFMTS8A5R4XK","assignmentId":"3VHP9MDGRO6M5NRHDDGNN0EF3TQFC5","hitId":"3J94SKDEKIB2MY6CGVTNWB9X0ALD5P","url":"https://gershmanlab.com/experiments/alicia/teaching/experiment/?hitId=3J94SKDEKIB2MY6CGVTNWB9X0ALD5P&workerId=AVFMTS8A5R4XK&assignmentId=3VHP9MDGRO6M5NRHDDGNN0EF3TQFC5&a=G9HV9&tp_a=G9HV9&b=3VHP9MDGRO6M5NRHDDGNN0EF3TQFC5&tp_b=3VHP9MDGRO6M5NRHDDGNN0EF3TQFC5&c=365799&tp_c=365799"},{"rt":1583,"stimulus":"\n                <p>Student 8's first guess for coin weight: <b style=\"color:Tomato\";>0.53</b></p>\n                <p>Student 8's second guess for coin weight: <b style=\"color:Tomato\";>0.54</b></p>\n                <p>You received a bonus of <b>$0.00</b> based on the student's second guess.</p>\n                <p>Total bonus so far: <b>$0.40</b></p>\n                <p>Press any key to continue.</p>\n                ","response":" ","trial_type":"html-keyboard-response","trial_index":78,"time_elapsed":1972962,"internal_node_id":"0.0-55.0","params":{"nStudents":24,"maxFlips":30,"completionMinutes":45,"basePay":8,"maxBonus":9,"perTrialBonus":0.5,"perTrialBonusThreshold":0.05,"exampleCost":0.01},"classroomParams":{"A":{"a":1,"b":4},"B":{"a":4,"b":1},"C":{"a":2,"b":8},"D":{"a":8,"b":2}},"conditions":["nonSeqFull","nonSeqPartial","seqNoFeedback","seqFeedback"],"classroomPairings":[["A","B"],["C","D"]],"coinWeights":[0.2,0.5,0.8],"subjectId":"AVFMTS8A5R4XK","assignmentId":"3VHP9MDGRO6M5NRHDDGNN0EF3TQFC5","hitId":"3J94SKDEKIB2MY6CGVTNWB9X0ALD5P","url":"https://gershmanlab.com/experiments/alicia/teaching/experiment/?hitId=3J94SKDEKIB2MY6CGVTNWB9X0ALD5P&workerId=AVFMTS8A5R4XK&assignmentId=3VHP9MDGRO6M5NRHDDGNN0EF3TQFC5&a=G9HV9&tp_a=G9HV9&b=3VHP9MDGRO6M5NRHDDGNN0EF3TQFC5&tp_b=3VHP9MDGRO6M5NRHDDGNN0EF3TQFC5&c=365799&tp_c=365799"},{"rt":null,"stimulus":"<div style=\"font-size:60px;\">Next student</div>","response":null,"trial_type":"html-keyboard-response","trial_index":79,"time_elapsed":1975967,"internal_node_id":"0.0-56.0-0.0","params":{"nStudents":24,"maxFlips":30,"completionMinutes":45,"basePay":8,"maxBonus":9,"perTrialBonus":0.5,"perTrialBonusThreshold":0.05,"exampleCost":0.01},"classroomParams":{"A":{"a":1,"b":4},"B":{"a":4,"b":1},"C":{"a":2,"b":8},"D":{"a":8,"b":2}},"conditions":["nonSeqFull","nonSeqPartial","seqNoFeedback","seqFeedback"],"classroomPairings":[["A","B"],["C","D"]],"coinWeights":[0.2,0.5,0.8],"subjectId":"AVFMTS8A5R4XK","assignmentId":"3VHP9MDGRO6M5NRHDDGNN0EF3TQFC5","hitId":"3J94SKDEKIB2MY6CGVTNWB9X0ALD5P","url":"https://gershmanlab.com/experiments/alicia/teaching/experiment/?hitId=3J94SKDEKIB2MY6CGVTNWB9X0ALD5P&workerId=AVFMTS8A5R4XK&assignmentId=3VHP9MDGRO6M5NRHDDGNN0EF3TQFC5&a=G9HV9&tp_a=G9HV9&b=3VHP9MDGRO6M5NRHDDGNN0EF3TQFC5&tp_b=3VHP9MDGRO6M5NRHDDGNN0EF3TQFC5&c=365799&tp_c=365799"},{"rt":2258,"stimulus":"\n            <h4 style=\"color:Orange;\">Student 9</h4>\n            <h2>The weight of your coin is <b style=\"color:Tomato;\">0.5</b>.</h2>\n            <p>In this block, you will be giving <b>one</b> set of examples to Student 9.</p>\n                <p>You will receive feedback at the end of the block.</p>\n            <p></p>","response":0,"trial_type":"html-button-response","trial_index":80,"time_elapsed":1978227,"internal_node_id":"0.0-57.0","params":{"nStudents":24,"maxFlips":30,"completionMinutes":45,"basePay":8,"maxBonus":9,"perTrialBonus":0.5,"perTrialBonusThreshold":0.05,"exampleCost":0.01},"classroomParams":{"A":{"a":1,"b":4},"B":{"a":4,"b":1},"C":{"a":2,"b":8},"D":{"a":8,"b":2}},"conditions":["nonSeqFull","nonSeqPartial","seqNoFeedback","seqFeedback"],"classroomPairings":[["A","B"],["C","D"]],"coinWeights":[0.2,0.5,0.8],"subjectId":"AVFMTS8A5R4XK","assignmentId":"3VHP9MDGRO6M5NRHDDGNN0EF3TQFC5","hitId":"3J94SKDEKIB2MY6CGVTNWB9X0ALD5P","url":"https://gershmanlab.com/experiments/alicia/teaching/experiment/?hitId=3J94SKDEKIB2MY6CGVTNWB9X0ALD5P&workerId=AVFMTS8A5R4XK&assignmentId=3VHP9MDGRO6M5NRHDDGNN0EF3TQFC5&a=G9HV9&tp_a=G9HV9&b=3VHP9MDGRO6M5NRHDDGNN0EF3TQFC5&tp_b=3VHP9MDGRO6M5NRHDDGNN0EF3TQFC5&c=365799&tp_c=365799"},{"rt":8143,"response":{"heads":"9","tails":"10"},"type":"response","condition":"nonSeqFull","trueTheta":0.5,"classrooms":["C","D"],"studentTrueClassroom":"D","exampleSet":"first","trial_type":"survey-html-form","trial_index":81,"time_elapsed":1986372,"internal_node_id":"0.0-58.0-0.0","params":{"nStudents":24,"maxFlips":30,"completionMinutes":45,"basePay":8,"maxBonus":9,"perTrialBonus":0.5,"perTrialBonusThreshold":0.05,"exampleCost":0.01},"classroomParams":{"A":{"a":1,"b":4},"B":{"a":4,"b":1},"C":{"a":2,"b":8},"D":{"a":8,"b":2}},"conditions":["nonSeqFull","nonSeqPartial","seqNoFeedback","seqFeedback"],"classroomPairings":[["A","B"],["C","D"]],"coinWeights":[0.2,0.5,0.8],"subjectId":"AVFMTS8A5R4XK","assignmentId":"3VHP9MDGRO6M5NRHDDGNN0EF3TQFC5","hitId":"3J94SKDEKIB2MY6CGVTNWB9X0ALD5P","url":"https://gershmanlab.com/experiments/alicia/teaching/experiment/?hitId=3J94SKDEKIB2MY6CGVTNWB9X0ALD5P&workerId=AVFMTS8A5R4XK&assignmentId=3VHP9MDGRO6M5NRHDDGNN0EF3TQFC5&a=G9HV9&tp_a=G9HV9&b=3VHP9MDGRO6M5NRHDDGNN0EF3TQFC5&tp_b=3VHP9MDGRO6M5NRHDDGNN0EF3TQFC5&c=365799&tp_c=365799","heads":9,"tails":10,"studentIndex":8,"studentTrueHypers":{"a":8,"b":2},"studentGuess":0.5862068965517241,"delta":0.08620689655172409,"totalExamples":19,"bonus":0,"bonusSoFar":0.4},{"rt":null,"stimulus":"Sending examples to student... ","response":null,"trial_type":"html-keyboard-response","trial_index":82,"time_elapsed":1987877,"internal_node_id":"0.0-59.0","params":{"nStudents":24,"maxFlips":30,"completionMinutes":45,"basePay":8,"maxBonus":9,"perTrialBonus":0.5,"perTrialBonusThreshold":0.05,"exampleCost":0.01},"classroomParams":{"A":{"a":1,"b":4},"B":{"a":4,"b":1},"C":{"a":2,"b":8},"D":{"a":8,"b":2}},"conditions":["nonSeqFull","nonSeqPartial","seqNoFeedback","seqFeedback"],"classroomPairings":[["A","B"],["C","D"]],"coinWeights":[0.2,0.5,0.8],"subjectId":"AVFMTS8A5R4XK","assignmentId":"3VHP9MDGRO6M5NRHDDGNN0EF3TQFC5","hitId":"3J94SKDEKIB2MY6CGVTNWB9X0ALD5P","url":"https://gershmanlab.com/experiments/alicia/teaching/experiment/?hitId=3J94SKDEKIB2MY6CGVTNWB9X0ALD5P&workerId=AVFMTS8A5R4XK&assignmentId=3VHP9MDGRO6M5NRHDDGNN0EF3TQFC5&a=G9HV9&tp_a=G9HV9&b=3VHP9MDGRO6M5NRHDDGNN0EF3TQFC5&tp_b=3VHP9MDGRO6M5NRHDDGNN0EF3TQFC5&c=365799&tp_c=365799"},{"rt":null,"stimulus":"Examples sent to student! Waiting for student...","response":null,"trial_type":"html-keyboard-response","trial_index":83,"time_elapsed":1993326,"internal_node_id":"0.0-60.0","params":{"nStudents":24,"maxFlips":30,"completionMinutes":45,"basePay":8,"maxBonus":9,"perTrialBonus":0.5,"perTrialBonusThreshold":0.05,"exampleCost":0.01},"classroomParams":{"A":{"a":1,"b":4},"B":{"a":4,"b":1},"C":{"a":2,"b":8},"D":{"a":8,"b":2}},"conditions":["nonSeqFull","nonSeqPartial","seqNoFeedback","seqFeedback"],"classroomPairings":[["A","B"],["C","D"]],"coinWeights":[0.2,0.5,0.8],"subjectId":"AVFMTS8A5R4XK","assignmentId":"3VHP9MDGRO6M5NRHDDGNN0EF3TQFC5","hitId":"3J94SKDEKIB2MY6CGVTNWB9X0ALD5P","url":"https://gershmanlab.com/experiments/alicia/teaching/experiment/?hitId=3J94SKDEKIB2MY6CGVTNWB9X0ALD5P&workerId=AVFMTS8A5R4XK&assignmentId=3VHP9MDGRO6M5NRHDDGNN0EF3TQFC5&a=G9HV9&tp_a=G9HV9&b=3VHP9MDGRO6M5NRHDDGNN0EF3TQFC5&tp_b=3VHP9MDGRO6M5NRHDDGNN0EF3TQFC5&c=365799&tp_c=365799"},{"rt":null,"stimulus":"\n                <p>Student's guess for coin weight: <b style=\"color:Tomato;\">0.59</b></p>\n                <p>You received a bonus of <b>$0</b>. Total bonus so far: <b>$0.40</b></b></p>\n                <p></p>\n                <p>Press any key to continue.</p>\n                ","response":null,"trial_type":"html-keyboard-response","trial_index":84,"time_elapsed":2024328,"internal_node_id":"0.0-61.0","params":{"nStudents":24,"maxFlips":30,"completionMinutes":45,"basePay":8,"maxBonus":9,"perTrialBonus":0.5,"perTrialBonu