[{"rt":23398,"response":{"heads":"8","tails":"2"},"type":"response","condition":"nonSeqFull","trueTheta":0.8,"classrooms":["C","D"],"studentTrueClassroom":"C","exampleSet":"first","trial_type":"survey-html-form","trial_index":7,"time_elapsed":415478,"internal_node_id":"0.0-6.0-0.0","params":{"nStudents":24,"maxFlips":30,"completionMinutes":45,"basePay":8,"maxBonus":9,"perTrialBonus":0.5,"perTrialBonusThreshold":0.05,"exampleCost":0.01},"classroomParams":{"A":{"a":1,"b":4},"B":{"a":4,"b":1},"C":{"a":2,"b":8},"D":{"a":8,"b":2}},"conditions":["nonSeqFull","nonSeqPartial","seqNoFeedback","seqFeedback"],"classroomPairings":[["A","B"],["C","D"]],"coinWeights":[0.2,0.5,0.8],"subjectId":"A10JXOU89D5RXR","assignmentId":"338JKRMM27LIQ4LPOP8WKQ04J5IAHW","hitId":"3J94SKDEKIB2MY6CGVTNWB9X0ALD5P","url":"https://gershmanlab.com/experiments/alicia/teaching/experiment/?hitId=3J94SKDEKIB2MY6CGVTNWB9X0ALD5P&workerId=A10JXOU89D5RXR&assignmentId=338JKRMM27LIQ4LPOP8WKQ04J5IAHW&a=MK839&tp_a=MK839&b=338JKRMM27LIQ4LPOP8WKQ04J5IAHW&tp_b=338JKRMM27LIQ4LPOP8WKQ04J5IAHW&c=365799&tp_c=365799","heads":8,"tails":2,"studentIndex":0,"studentTrueHypers":{"a":2,"b":8},"studentGuess":0.5,"delta":0.30000000000000004,"totalExamples":10,"bonus":0,"bonusSoFar":0},{"rt":12366,"response":{"heads":"5","tails":"5"},"type":"response","condition":"seqFeedback","trueTheta":0.5,"classrooms":["C","D"],"studentTrueClassroom":"D","exampleSet":"first","trial_type":"survey-html-form","trial_index":13,"time_elapsed":452560,"internal_node_id":"0.0-12.0-0.0","params":{"nStudents":24,"maxFlips":30,"completionMinutes":45,"basePay":8,"maxBonus":9,"perTrialBonus":0.5,"perTrialBonusThreshold":0.05,"exampleCost":0.01},"classroomParams":{"A":{"a":1,"b":4},"B":{"a":4,"b":1},"C":{"a":2,"b":8},"D":{"a":8,"b":2}},"conditions":["nonSeqFull","nonSeqPartial","seqNoFeedback","seqFeedback"],"classroomPairings":[["A","B"],["C","D"]],"coinWeights":[0.2,0.5,0.8],"subjectId":"A10JXOU89D5RXR","assignmentId":"338JKRMM27LIQ4LPOP8WKQ04J5IAHW","hitId":"3J94SKDEKIB2MY6CGVTNWB9X0ALD5P","url":"https://gershmanlab.com/experiments/alicia/teaching/experiment/?hitId=3J94SKDEKIB2MY6CGVTNWB9X0ALD5P&workerId=A10JXOU89D5RXR&assignmentId=338JKRMM27LIQ4LPOP8WKQ04J5IAHW&a=MK839&tp_a=MK839&b=338JKRMM27LIQ4LPOP8WKQ04J5IAHW&tp_b=338JKRMM27LIQ4LPOP8WKQ04J5IAHW&c=365799&tp_c=365799","heads":5,"tails":5,"studentIndex":1,"studentTrueHypers":{"a":8,"b":2},"studentGuess":0.65,"delta":0.15000000000000002,"totalExamples":10,"bonusSoFar":0},{"rt":17253,"response":{"heads":"5","tails":"5"},"type":"response","condition":"seqFeedback","trueTheta":0.5,"classrooms":["C","D"],"studentTrueClassroom":"D","exampleSet":"second","trial_type":"survey-html-form","trial_index":17,"time_elapsed":482439,"internal_node_id":"0.0-16.0-0.0","params":{"nStudents":24,"maxFlips":30,"completionMinutes":45,"basePay":8,"maxBonus":9,"perTrialBonus":0.5,"perTrialBonusThreshold":0.05,"exampleCost":0.01},"classroomParams":{"A":{"a":1,"b":4},"B":{"a":4,"b":1},"C":{"a":2,"b":8},"D":{"a":8,"b":2}},"conditions":["nonSeqFull","nonSeqPartial","seqNoFeedback","seqFeedback"],"classroomPairings":[["A","B"],["C","D"]],"coinWeights":[0.2,0.5,0.8],"subjectId":"A10JXOU89D5RXR","assignmentId":"338JKRMM27LIQ4LPOP8WKQ04J5IAHW","hitId":"3J94SKDEKIB2MY6CGVTNWB9X0ALD5P","url":"https://gershmanlab.com/experiments/alicia/teaching/experiment/?hitId=3J94SKDEKIB2MY6CGVTNWB9X0ALD5P&workerId=A10JXOU89D5RXR&assignmentId=338JKRMM27LIQ4LPOP8WKQ04J5IAHW&a=MK839&tp_a=MK839&b=338JKRMM27LIQ4LPOP8WKQ04J5IAHW&tp_b=338JKRMM27LIQ4LPOP8WKQ04J5IAHW&c=365799&tp_c=365799","firstResponseHeads":5,"firstResponseTails":5,"secondResponseHeads":5,"secondResponseTails":5,"totalHeads":10,"totalTails":10,"studentIndex":1,"studentTrueHypers":{"a":8,"b":2},"studentGuess":0.6,"delta":0.09999999999999998,"bonus":0,"bonusSoFar":0,"totalExamples":20},{"rt":16026,"response":{"heads":"2","tails":"8"},"type":"response","condition":"nonSeqFull","trueTheta":0.2,"classrooms":["C","D"],"studentTrueClassroom":"C","exampleSet":"first","trial_type":"survey-html-form","trial_index":23,"time_elapsed":517643,"internal_node_id":"0.0-22.0-0.0","params":{"nStudents":24,"maxFlips":30,"completionMinutes":45,"basePay":8,"maxBonus":9,"perTrialBonus":0.5,"perTrialBonusThreshold":0.05,"exampleCost":0.01},"classroomParams":{"A":{"a":1,"b":4},"B":{"a":4,"b":1},"C":{"a":2,"b":8},"D":{"a":8,"b":2}},"conditions":["nonSeqFull","nonSeqPartial","seqNoFeedback","seqFeedback"],"classroomPairings":[["A","B"],["C","D"]],"coinWeights":[0.2,0.5,0.8],"subjectId":"A10JXOU89D5RXR","assignmentId":"338JKRMM27LIQ4LPOP8WKQ04J5IAHW","hitId":"3J94SKDEKIB2MY6CGVTNWB9X0ALD5P","url":"https://gershmanlab.com/experiments/alicia/teaching/experiment/?hitId=3J94SKDEKIB2MY6CGVTNWB9X0ALD5P&workerId=A10JXOU89D5RXR&assignmentId=338JKRMM27LIQ4LPOP8WKQ04J5IAHW&a=MK839&tp_a=MK839&b=338JKRMM27LIQ4LPOP8WKQ04J5IAHW&tp_b=338JKRMM27LIQ4LPOP8WKQ04J5IAHW&c=365799&tp_c=365799","heads":2,"tails":8,"studentIndex":2,"studentTrueHypers":{"a":2,"b":8},"studentGuess":0.2,"delta":0,"totalExamples":10,"bonus":0.4,"bonusSoFar":0.4},{"rt":25131,"response":{"heads":"2","tails":"8"},"type":"response","condition":"nonSeqPartial","trueTheta":0.2,"classrooms":["C","D"],"studentTrueClassroom":"D","exampleSet":"first","trial_type":"survey-html-form","trial_index":29,"time_elapsed":558424,"internal_node_id":"0.0-28.0-0.0","params":{"nStudents":24,"maxFlips":30,"completionMinutes":45,"basePay":8,"maxBonus":9,"perTrialBonus":0.5,"perTrialBonusThreshold":0.05,"exampleCost":0.01},"classroomParams":{"A":{"a":1,"b":4},"B":{"a":4,"b":1},"C":{"a":2,"b":8},"D":{"a":8,"b":2}},"conditions":["nonSeqFull","nonSeqPartial","seqNoFeedback","seqFeedback"],"classroomPairings":[["A","B"],["C","D"]],"coinWeights":[0.2,0.5,0.8],"subjectId":"A10JXOU89D5RXR","assignmentId":"338JKRMM27LIQ4LPOP8WKQ04J5IAHW","hitId":"3J94SKDEKIB2MY6CGVTNWB9X0ALD5P","url":"https://gershmanlab.com/experiments/alicia/teaching/experiment/?hitId=3J94SKDEKIB2MY6CGVTNWB9X0ALD5P&workerId=A10JXOU89D5RXR&assignmentId=338JKRMM27LIQ4LPOP8WKQ04J5IAHW&a=MK839&tp_a=MK839&b=338JKRMM27LIQ4LPOP8WKQ04J5IAHW&tp_b=338JKRMM27LIQ4LPOP8WKQ04J5IAHW&c=365799&tp_c=365799","heads":2,"tails":8,"studentIndex":3,"studentTrueHypers":{"a":8,"b":2},"studentGuess":0.5,"delta":0.3,"totalExamples":10,"bonus":0,"bonusSoFar":0.4},{"rt":11303,"response":{"heads":"8","tails":"2"},"type":"response","condition":"seqNoFeedback","trueTheta":0.8,"classrooms":["A","B"],"studentTrueClassroom":"B","exampleSet":"first","trial_type":"survey-html-form","trial_index":35,"time_elapsed":588892,"internal_node_id":"0.0-34.0-0.0","params":{"nStudents":24,"maxFlips":30,"completionMinutes":45,"basePay":8,"maxBonus":9,"perTrialBonus":0.5,"perTrialBonusThreshold":0.05,"exampleCost":0.01},"classroomParams":{"A":{"a":1,"b":4},"B":{"a":4,"b":1},"C":{"a":2,"b":8},"D":{"a":8,"b":2}},"conditions":["nonSeqFull","nonSeqPartial","seqNoFeedback","seqFeedback"],"classroomPairings":[["A","B"],["C","D"]],"coinWeights":[0.2,0.5,0.8],"subjectId":"A10JXOU89D5RXR","assignmentId":"338JKRMM27LIQ4LPOP8WKQ04J5IAHW","hitId":"3J94SKDEKIB2MY6CGVTNWB9X0ALD5P","url":"https://gershmanlab.com/experiments/alicia/teaching/experiment/?hitId=3J94SKDEKIB2MY6CGVTNWB9X0ALD5P&workerId=A10JXOU89D5RXR&assignmentId=338JKRMM27LIQ4LPOP8WKQ04J5IAHW&a=MK839&tp_a=MK839&b=338JKRMM27LIQ4LPOP8WKQ04J5IAHW&tp_b=338JKRMM27LIQ4LPOP8WKQ04J5IAHW&c=365799&tp_c=365799","heads":8,"tails":2,"studentIndex":4,"studentTrueHypers":{"a":4,"b":1},"studentGuess":0.8,"delta":0,"totalExamples":10,"bonusSoFar":0.4},{"rt":12204,"response":{"heads":"8","tails":"2"},"type":"response","condition":"seqNoFeedback","trueTheta":0.8,"classrooms":["A","B"],"studentTrueClassroom":"B","exampleSet":"second","trial_type":"survey-html-form","trial_index":38,"time_elapsed":608125,"internal_node_id":"0.0-37.0-0.0","params":{"nStudents":24,"maxFlips":30,"completionMinutes":45,"basePay":8,"maxBonus":9,"perTrialBonus":0.5,"perTrialBonusThreshold":0.05,"exampleCost":0.01},"classroomParams":{"A":{"a":1,"b":4},"B":{"a":4,"b":1},"C":{"a":2,"b":8},"D":{"a":8,"b":2}},"conditions":["nonSeqFull","nonSeqPartial","seqNoFeedback","seqFeedback"],"classroomPairings":[["A","B"],["C","D"]],"coinWeights":[0.2,0.5,0.8],"subjectId":"A10JXOU89D5RXR","assignmentId":"338JKRMM27LIQ4LPOP8WKQ04J5IAHW","hitId":"3J94SKDEKIB2MY6CGVTNWB9X0ALD5P","url":"https://gershmanlab.com/experiments/alicia/teaching/experiment/?hitId=3J94SKDEKIB2MY6CGVTNWB9X0ALD5P&workerId=A10JXOU89D5RXR&assignmentId=338JKRMM27LIQ4LPOP8WKQ04J5IAHW&a=MK839&tp_a=MK839&b=338JKRMM27LIQ4LPOP8WKQ04J5IAHW&tp_b=338JKRMM27LIQ4LPOP8WKQ04J5IAHW&c=365799&tp_c=365799","firstResponseHeads":8,"firstResponseTails":2,"secondResponseHeads":8,"secondResponseTails":2,"totalHeads":16,"totalTails":4,"studentIndex":4,"studentTrueHypers":{"a":4,"b":1},"studentGuess":0.8,"delta":0,"bonus":0.3,"bonusSoFar":0.7,"totalExamples":20},{"rt":9167,"response":{"heads":"8","tails":"2"},"type":"response","condition":"nonSeqPartial","trueTheta":0.8,"classrooms":["C","D"],"studentTrueClassroom":"C","exampleSet":"first","trial_type":"survey-html-form","trial_index":44,"time_elapsed":631457,"internal_node_id":"0.0-43.0-0.0","params":{"nStudents":24,"maxFlips":30,"completionMinutes":45,"basePay":8,"maxBonus":9,"perTrialBonus":0.5,"perTrialBonusThreshold":0.05,"exampleCost":0.01},"classroomParams":{"A":{"a":1,"b":4},"B":{"a":4,"b":1},"C":{"a":2,"b":8},"D":{"a":8,"b":2}},"conditions":["nonSeqFull","nonSeqPartial","seqNoFeedback","seqFeedback"],"classroomPairings":[["A","B"],["C","D"]],"coinWeights":[0.2,0.5,0.8],"subjectId":"A10JXOU89D5RXR","assignmentId":"338JKRMM27LIQ4LPOP8WKQ04J5IAHW","hitId":"3J94SKDEKIB2MY6CGVTNWB9X0ALD5P","url":"https://gershmanlab.com/experiments/alicia/teaching/experiment/?hitId=3J94SKDEKIB2MY6CGVTNWB9X0ALD5P&workerId=A10JXOU89D5RXR&assignmentId=338JKRMM27LIQ4LPOP8WKQ04J5IAHW&a=MK839&tp_a=MK839&b=338JKRMM27LIQ4LPOP8WKQ04J5IAHW&tp_b=338JKRMM27LIQ4LPOP8WKQ04J5IAHW&c=365799&tp_c=365799","heads":8,"tails":2,"studentIndex":5,"studentTrueHypers":{"a":2,"b":8},"studentGuess":0.5,"delta":0.30000000000000004,"totalExamples":10,"bonus":0,"bonusSoFar":0.7},{"rt":11176,"response":{"heads":"2","tails":"8"},"type":"response","condition":"seqFeedback","trueTheta":0.2,"classrooms":["C","D"],"studentTrueClassroom":"D","exampleSet":"first","trial_type":"survey-html-form","trial_index":50,"time_elapsed":662865,"internal_node_id":"0.0-49.0-0.0","params":{"nStudents":24,"maxFlips":30,"completionMinutes":45,"basePay":8,"maxBonus":9,"perTrialBonus":0.5,"perTrialBonusThreshold":0.05,"exampleCost":0.01},"classroomParams":{"A":{"a":1,"b":4},"B":{"a":4,"b":1},"C":{"a":2,"b":8},"D":{"a":8,"b":2}},"conditions":["nonSeqFull","nonSeqPartial","seqNoFeedback","seqFeedback"],"classroomPairings":[["A","B"],["C","D"]],"coinWeights":[0.2,0.5,0.8],"subjectId":"A10JXOU89D5RXR","assignmentId":"338JKRMM27LIQ4LPOP8WKQ04J5IAHW","hitId":"3J94SKDEKIB2MY6CGVTNWB9X0ALD5P","url":"https://gershmanlab.com/experiments/alicia/teaching/experiment/?hitId=3J94SKDEKIB2MY6CGVTNWB9X0ALD5P&workerId=A10JXOU89D5RXR&assignmentId=338JKRMM27LIQ4LPOP8WKQ04J5IAHW&a=MK839&tp_a=MK839&b=338JKRMM27LIQ4LPOP8WKQ04J5IAHW&tp_b=338JKRMM27LIQ4LPOP8WKQ04J5IAHW&c=365799&tp_c=365799","heads":2,"tails":8,"studentIndex":6,"studentTrueHypers":{"a":8,"b":2},"studentGuess":0.5,"delta":0.3,"totalExamples":10,"bonusSoFar":0.7},{"rt":14519,"response":{"heads":"0","tails":"8"},"type":"response","condition":"seqFeedback","trueTheta":0.2,"classrooms":["C","D"],"studentTrueClassroom":"D","exampleSet":"second","trial_type":"survey-html-form","trial_index":54,"time_elapsed":689617,"internal_node_id":"0.0-53.0-0.0","params":{"nStudents":24,"maxFlips":30,"completionMinutes":45,"basePay":8,"maxBonus":9,"perTrialBonus":0.5,"perTrialBonusThreshold":0.05,"exampleCost":0.01},"classroomParams":{"A":{"a":1,"b":4},"B":{"a":4,"b":1},"C":{"a":2,"b":8},"D":{"a":8,"b":2}},"conditions":["nonSeqFull","nonSeqPartial","seqNoFeedback","seqFeedback"],"classroomPairings":[["A","B"],["C","D"]],"coinWeights":[0.2,0.5,0.8],"subjectId":"A10JXOU89D5RXR","assignmentId":"338JKRMM27LIQ4LPOP8WKQ04J5IAHW","hitId":"3J94SKDEKIB2MY6CGVTNWB9X0ALD5P","url":"https://gershmanlab.com/experiments/alicia/teaching/experiment/?hitId=3J94SKDEKIB2MY6CGVTNWB9X0ALD5P&workerId=A10JXOU89D5RXR&assignmentId=338JKRMM27LIQ4LPOP8WKQ04J5IAHW&a=MK839&tp_a=MK839&b=338JKRMM27LIQ4LPOP8WKQ04J5IAHW&tp_b=338JKRMM27LIQ4LPOP8WKQ04J5IAHW&c=365799&tp_c=365799","firstResponseHeads":2,"firstResponseTails":8,"secondResponseHeads":0,"secondResponseTails":8,"totalHeads":2,"totalTails":16,"studentIndex":6,"studentTrueHypers":{"a":8,"b":2},"studentGuess":0.35714285714285715,"delta":0.15714285714285714,"bonus":0,"bonusSoFar":0.7,"totalExamples":18},{"rt":15798,"response":{"heads":"5","tails":"5"},"type":"response","condition":"nonSeqFull","trueTheta":0.5,"classrooms":["A","B"],"studentTrueClassroom":"B","exampleSet":"first","trial_type":"survey-html-form","trial_index":60,"time_elapsed":719785,"internal_node_id":"0.0-59.0-0.0","params":{"nStudents":24,"maxFlips":30,"completionMinutes":45,"basePay":8,"maxBonus":9,"perTrialBonus":0.5,"perTrialBonusThreshold":0.05,"exampleCost":0.01},"classroomParams":{"A":{"a":1,"b":4},"B":{"a":4,"b":1},"C":{"a":2,"b":8},"D":{"a":8,"b":2}},"conditions":["nonSeqFull","nonSeqPartial","seqNoFeedback","seqFeedback"],"classroomPairings":[["A","B"],["C","D"]],"coinWeights":[0.2,0.5,0.8],"subjectId":"A10JXOU89D5RXR","assignmentId":"338JKRMM27LIQ4LPOP8WKQ04J5IAHW","hitId":"3J94SKDEKIB2MY6CGVTNWB9X0ALD5P","url":"https://gershmanlab.com/experiments/alicia/teaching/experiment/?hitId=3J94SKDEKIB2MY6CGVTNWB9X0ALD5P&workerId=A10JXOU89D5RXR&assignmentId=338JKRMM27LIQ4LPOP8WKQ04J5IAHW&a=MK839&tp_a=MK839&b=338JKRMM27LIQ4LPOP8WKQ04J5IAHW&tp_b=338JKRMM27LIQ4LPOP8WKQ04J5IAHW&c=365799&tp_c=365799","heads":5,"tails":5,"studentIndex":7,"studentTrueHypers":{"a":4,"b":1},"studentGuess":0.6,"delta":0.09999999999999998,"totalExamples":10,"bonus":0,"bonusSoFar":0.7},{"rt":11871,"response":{"heads":"8","tails":"2"},"type":"response","condition":"seqFeedback","trueTheta":0.8,"classrooms":["C","D"],"studentTrueClassroom":"C","exampleSet":"first","trial_type":"survey-html-form","trial_index":66,"time_elapsed":746406,"internal_node_id":"0.0-65.0-0.0","params":{"nStudents":24,"maxFlips":30,"completionMinutes":45,"basePay":8,"maxBonus":9,"perTrialBonus":0.5,"perTrialBonusThreshold":0.05,"exampleCost":0.01},"classroomParams":{"A":{"a":1,"b":4},"B":{"a":4,"b":1},"C":{"a":2,"b":8},"D":{"a":8,"b":2}},"conditions":["nonSeqFull","nonSeqPartial","seqNoFeedback","seqFeedback"],"classroomPairings":[["A","B"],["C","D"]],"coinWeights":[0.2,0.5,0.8],"subjectId":"A10JXOU89D5RXR","assignmentId":"338JKRMM27LIQ4LPOP8WKQ04J5IAHW","hitId":"3J94SKDEKIB2MY6CGVTNWB9X0ALD5P","url":"https://gershmanlab.com/experiments/alicia/teaching/experiment/?hitId=3J94SKDEKIB2MY6CGVTNWB9X0ALD5P&workerId=A10JXOU89D5RXR&assignmentId=338JKRMM27LIQ4LPOP8WKQ04J5IAHW&a=MK839&tp_a=MK839&b=338JKRMM27LIQ4LPOP8WKQ04J5IAHW&tp_b=338JKRMM27LIQ4LPOP8WKQ04J5IAHW&c=365799&tp_c=365799","heads":8,"tails":2,"studentIndex":8,"studentTrueHypers":{"a":2,"b":8},"studentGuess":0.5,"delta":0.30000000000000004,"totalExamples":10,"bonusSoFar":0.7},{"rt":5698,"response":{"heads":"8","tails":"0"},"type":"response","condition":"seqFeedback","trueTheta":0.8,"classrooms":["C","D"],"studentTrueClassroom":"C","exampleSet":"second","trial_type":"survey-html-form","trial_index":70,"time_elapsed":762230,"internal_node_id":"0.0-69.0-0.0","params":{"nStudents":24,"maxFlips":30,"completionMinutes":45,"basePay":8,"maxBonus":9,"perTrialBonus":0.5,"perTrialBonusThreshold":0.05,"exampleCost":0.01},"classroomParams":{"A":{"a":1,"b":4},"B":{"a":4,"b":1},"C":{"a":2,"b":8},"D":{"a":8,"b":2}},"conditions":["nonSeqFull","nonSeqPartial","seqNoFeedback","seqFeedback"],"classroomPairings":[["A","B"],["C","D"]],"coinWeights":[0.2,0.5,0.8],"subjectId":"A10JXOU89D5RXR","assignmentId":"338JKRMM27LIQ4LPOP8WKQ04J5IAHW","hitId":"3J94SKDEKIB2MY6CGVTNWB9X0ALD5P","url":"https://gershmanlab.com/experiments/alicia/teaching/experiment/?hitId=3J94SKDEKIB2MY6CGVTNWB9X0ALD5P&workerId=A10JXOU89D5RXR&assignmentId=338JKRMM27LIQ4LPOP8WKQ04J5IAHW&a=MK839&tp_a=MK839&b=338JKRMM27LIQ4LPOP8WKQ04J5IAHW&tp_b=338JKRMM27LIQ4LPOP8WKQ04J5IAHW&c=365799&tp_c=365799","firstResponseHeads":8,"firstResponseTails":2,"secondResponseHeads":8,"secondResponseTails":0,"totalHeads":16,"totalTails":2,"studentIndex":8,"studentTrueHypers":{"a":2,"b":8},"studentGuess":0.6428571428571429,"delta":0.15714285714285714,"bonus":0,"bonusSoFar":0.7,"totalExamples":18},{"rt":13756,"response":{"heads":"0","tails":"8"},"type":"response","condition":"seqFeedback","trueTheta":0.2,"classrooms":["A","B"],"studentTrueClassroom":"A","exampleSet":"first","trial_type":"survey-html-form","trial_index":76,"time_elapsed":790937,"internal_node_id":"0.0-75.0-0.0","params":{"nStudents":24,"maxFlips":30,"completionMinutes":45,"basePay":8,"maxBonus":9,"perTrialBonus":0.5,"perTrialBonusThreshold":0.05,"exampleCost":0.01},"classroomParams":{"A":{"a":1,"b":4},"B":{"a":4,"b":1},"C":{"a":2,"b":8},"D":{"a":8,"b":2}},"conditions":["nonSeqFull","nonSeqPartial","seqNoFeedback","seqFeedback"],"classroomPairings":[["A","B"],["C","D"]],"coinWeights":[0.2,0.5,0.8],"subjectId":"A10JXOU89D5RXR","assignmentId":"338JKRMM27LIQ4LPOP8WKQ04J5IAHW","hitId":"3J94SKDEKIB2MY6CGVTNWB9X0ALD5P","url":"https://gershmanlab.com/experiments/alicia/teaching/experiment/?hitId=3J94SKDEKIB2MY6CGVTNWB9X0ALD5P&workerId=A10JXOU89D5RXR&assignmentId=338JKRMM27LIQ4LPOP8WKQ04J5IAHW&a=MK839&tp_a=MK839&b=338JKRMM27LIQ4LPOP8WKQ04J5IAHW&tp_b=338JKRMM27LIQ4LPOP8WKQ04J5IAHW&c=365799&tp_c=365799","heads":0,"tails":8,"studentIndex":9,"studentTrueHypers":{"a":1,"b":4},"studentGuess":0.07692307692307693,"delta":0.12307692307692308,"totalExamples":8,"bonusSoFar":0.7},{"rt":5839,"response":{"heads":"0","tails":"8"},"type":"response","condition":"seqFeedback","trueTheta":0.2,"classrooms":["A","B"],"studentTrueClassroom":"A","exampleSet":"second","trial_type":"survey-html-form","trial_index":80,"time_elapsed":809937,"internal_node_id":"0.0-79.0-0.0","params":{"nStudents":24,"maxFlips":30,"completionMinutes":45,"basePay":8,"maxBonus":9,"perTrialBonus":0.5,"perTrialBonusThreshold":0.05,"exampleCost":0.01},"classroomParams":{"A":{"a":1,"b":4},"B":{"a":4,"b":1},"C":{"a":2,"b":8},"D":{"a":8,"b":2}},"conditions":["nonSeqFull","nonSeqPartial","seqNoFeedback","seqFeedback"],"classroomPairings":[["A","B"],["C","D"]],"coinWeights":[0.2,0.5,0.8],"subjectId":"A10JXOU89D5RXR","assignmentId":"338JKRMM27LIQ4LPOP8WKQ04J5IAHW","hitId":"3J94SKDEKIB2MY6CGVTNWB9X0ALD5P","url":"https://gershmanlab.com/experiments/alicia/teaching/experiment/?hitId=3J94SKDEKIB2MY6CGVTNWB9X0ALD5P&workerId=A10JXOU89D5RXR&assignmentId=338JKRMM27LIQ4LPOP8WKQ04J5IAHW&a=MK839&tp_a=MK839&b=338JKRMM27LIQ4LPOP8WKQ04J5IAHW&tp_b=338JKRMM27LIQ4LPOP8WKQ04J5IAHW&c=365799&tp_c=365799","firstResponseHeads":0,"firstResponseTails":8,"secondResponseHeads":0,"secondResponseTails":8,"totalHeads":0,"totalTails":16,"studentIndex":9,"studentTrueHypers":{"a":1,"b":4},"studentGuess":0.047619047619047616,"delta":0.1523809523809524,"bonus":0,"bonusSoFar":0.7,"totalExamples":16},{"rt":15840,"response":{"heads":"8","tails":"0"},"type":"response","condition":"seqFeedback","trueTheta":0.8,"classrooms":["A","B"],"studentTrueClassroom":"A","exampleSet":"first","trial_type":"survey-html-form","trial_index":86,"time_elapsed":839026,"internal_node_id":"0.0-85.0-0.0","params":{"nStudents":24,"maxFlips":30,"completionMinutes":45,"basePay":8,"maxBonus":9,"perTrialBonus":0.5,"perTrialBonusThreshold":0.05,"exampleCost":0.01},"classroomParams":{"A":{"a":1,"b":4},"B":{"a":4,"b":1},"C":{"a":2,"b":8},"D":{"a":8,"b":2}},"conditions":["nonSeqFull","nonSeqPartial","seqNoFeedback","seqFeedback"],"classroomPairings":[["A","B"],["C","D"]],"coinWeights":[0.2,0.5,0.8],"subjectId":"A10JXOU89D5RXR","assignmentId":"338JKRMM27LIQ4LPOP8WKQ04J5IAHW","hitId":"3J94SKDEKIB2MY6CGVTNWB9X0ALD5P","url":"https://gershmanlab.com/experiments/alicia/teaching/experiment/?hitId=3J94SKDEKIB2MY6CGVTNWB9X0ALD5P&workerId=A10JXOU89D5RXR&assignmentId=338JKRMM27LIQ4LPOP8WKQ04J5IAHW&a=MK839&tp_a=MK839&b=338JKRMM27LIQ4LPOP8WKQ04J5IAHW&tp_b=338JKRMM27LIQ4LPOP8WKQ04J5IAHW&c=365799&tp_c=365799","heads":8,"tails":0,"studentIndex":10,"studentTrueHypers":{"a":1,"b":4},"studentGuess":0.6923076923076923,"delta":0.10769230769230775,"totalExamples":8,"bonusSoFar":0.7},{"rt":5779,"response":{"heads":"8","tails":"0"},"type":"response","condition":"seqFeedback","trueTheta":0.8,"classrooms":["A","B"],"studentTrueClassroom":"A","exampleSet":"second","trial_type":"survey-html-form","trial_index":90,"time_elapsed":856078,"internal_node_id":"0.0-89.0-0.0","params":{"nStudents":24,"maxFlips":30,"completionMinutes":45,"basePay":8,"maxBonus":9,"perTrialBonus":0.5,"perTrialBonusThreshold":0.05,"exampleCost":0.01},"classroomParams":{"A":{"a":1,"b":4},"B":{"a":4,"b":1},"C":{"a":2,"b":8},"D":{"a":8,"b":2}},"conditions":["nonSeqFull","nonSeqPartial","seqNoFeedback","seqFeedback"],"classroomPairings":[["A","B"],["C","D"]],"coinWeights":[0.2,0.5,0.8],"subjectId":"A10JXOU89D5RXR","assignmentId":"338JKRMM27LIQ4LPOP8WKQ04J5IAHW","hitId":"3J94SKDEKIB2MY6CGVTNWB9X0ALD5P","url":"https://gershmanlab.com/experiments/alicia/teaching/experiment/?hitId=3J94SKDEKIB2MY6CGVTNWB9X0ALD5P&workerId=A10JXOU89D5RXR&assignmentId=338JKRMM27LIQ4LPOP8WKQ04J5IAHW&a=MK839&tp_a=MK839&b=338JKRMM27LIQ4LPOP8WKQ04J5IAHW&tp_b=338JKRMM27LIQ4LPOP8WKQ04J5IAHW&c=365799&tp_c=365799","firstResponseHeads":8,"firstResponseTails":0,"secondResponseHeads":8,"secondResponseTails":0,"totalHeads":16,"totalTails":0,"studentIndex":10,"studentTrueHypers":{"a":1,"b":4},"studentGuess":0.8095238095238095,"delta":0.00952380952380949,"bonus":0.34,"bonusSoFar":1.04,"totalExamples":16},{"rt":8070,"response":{"heads":"1","tails":"1"},"type":"response","condition":"nonSeqPartial","trueTheta":0.5,"classrooms":["C","D"],"studentTrueClassroom":"D","exampleSet":"first","trial_type":"survey-html-form","trial_index":96,"time_elapsed":878778,"internal_node_id":"0.0-95.0-0.0","params":{"nStudents":24,"maxFlips":30,"completionMinutes":45,"basePay":8,"maxBonus":9,"perTrialBonus":0.5,"perTrialBonusThreshold":0.05,"exampleCost":0.01},"classroomParams":{"A":{"a":1,"b":4},"B":{"a":4,"b":1},"C":{"a":2,"b":8},"D":{"a":8,"b":2}},"conditions":["nonSeqFull","nonSeqPartial","seqNoFeedback","seqFeedback"],"classroomPairings":[["A","B"],["C","D"]],"coinWeights":[0.2,0.5,0.8],"subjectId":"A10JXOU89D5RXR","assignmentId":"338JKRMM27LIQ4LPOP8WKQ04J5IAHW","hitId":"3J94SKDEKIB2MY6CGVTNWB9X0ALD5P","url":"https://gershmanlab.com/experiments/alicia/teaching/experiment/?hitId=3J94SKDEKIB2MY6CGVTNWB9X0ALD5P&workerId=A10JXOU89D5RXR&assignmentId=338JKRMM27LIQ4LPOP8WKQ04J5IAHW&a=MK839&tp_a=MK839&b=338JKRMM27LIQ4LPOP8WKQ04J5IAHW&tp_b=338JKRMM27LIQ4LPOP8WKQ04J5IAHW&c=365799&tp_c=365799","heads":1,"tails":1,"studentIndex":11,"studentTrueHypers":{"a":8,"b":2},"studentGuess":0.75,"delta":0.25,"totalExamples":2,"bonus":0,"bonusSoFar":1.04},{"rt":7319,"response":{"heads":"5","tails":"0"},"type":"response","condition":"nonSeqPartial","trueTheta":0.8,"classrooms":["A","B"],"studentTrueClassroom":"A","exampleSet":"first","trial_type":"survey-html-form","trial_index":102,"time_elapsed":898926,"internal_node_id":"0.0-101.0-0.0","params":{"nStudents":24,"maxFlips":30,"completionMinutes":45,"basePay":8,"maxBonus":9,"perTrialBonus":0.5,"perTrialBonusThreshold":0.05,"exampleCost":0.01},"classroomParams":{"A":{"a":1,"b":4},"B":{"a":4,"b":1},"C":{"a":2,"b":8},"D":{"a":8,"b":2}},"conditions":["nonSeqFull","nonSeqPartial","seqNoFeedback","seqFeedback"],"classroomPairings":[["A","B"],["C","D"]],"coinWeights":[0.2,0.5,0.8],"subjectId":"A10JXOU89D5RXR","assignmentId":"338JKRMM27LIQ4LPOP8WKQ04J5IAHW","hitId":"3J94SKDEKIB2MY6CGVTNWB9X0ALD5P","url":"https://gershmanlab.com/experiments/alicia/teaching/experiment/?hitId=3J94SKDEKIB2MY6CGVTNWB9X0ALD5P&workerId=A10JXOU89D5RXR&assignmentId=338JKRMM27LIQ4LPOP8WKQ04J5IAHW&a=MK839&tp_a=MK839&b=338JKRMM27LIQ4LPOP8WKQ04J5IAHW&tp_b=338JKRMM27LIQ4LPOP8WKQ04J5IAHW&c=365799&tp_c=365799","heads":5,"tails":0,"studentIndex":12,"studentTrueHypers":{"a":1,"b":4},"studentGuess":0.6,"delta":0.20000000000000007,"totalExamples":5,"bonus":0,"bonusSoFar":1.04},{"rt":5854,"response":{"heads":"1","tails":"1"},"type":"response","condition":"seqFeedback","trueTheta":0.5,"classrooms":["A","B"],"studentTrueClassroom":"B","exampleSet":"first","trial_type":"survey-html-form","trial_index":108,"time_elapsed":918782,"internal_node_id":"0.0-107.0-0.0","params":{"nStudents":24,"maxFlips":30,"completionMinutes":45,"basePay":8,"maxBonus":9,"perTrialBonus":0.5,"perTrialBonusThreshold":0.05,"exampleCost":0.01},"classroomParams":{"A":{"a":1,"b":4},"B":{"a":4,"b":1},"C":{"a":2,"b":8},"D":{"a":8,"b":2}},"conditions":["nonSeqFull","nonSeqPartial","seqNoFeedback","seqFeedback"],"classroomPairings":[["A","B"],["C","D"]],"coinWeights":[0.2,0.5,0.8],"subjectId":"A10JXOU89D5RXR","assignmentId":"338JKRMM27LIQ4LPOP8WKQ04J5IAHW","hitId":"3J94SKDEKIB2MY6CGVTNWB9X0ALD5P","url":"https://gershmanlab.com/experiments/alicia/teaching/experiment/?hitId=3J94SKDEKIB2MY6CGVTNWB9X0ALD5P&workerId=A10JXOU89D5RXR&assignmentId=338JKRMM27LIQ4LPOP8WKQ04J5IAHW&a=MK839&tp_a=MK839&b=338JKRMM27LIQ4LPOP8WKQ04J5IAHW&tp_b=338JKRMM27LIQ4LPOP8WKQ04J5IAHW&c=365799&tp_c=365799","heads":1,"tails":1,"studentIndex":13,"studentTrueHypers":{"a":4,"b":1},"studentGuess":0.7142857142857143,"delta":0.2142857142857143,"totalExamples":2,"bonusSoFar":1.04},{"rt":6761,"response":{"heads":"0","tails":"2"},"type":"response","condition":"seqFeedback","trueTheta":0.5,"classrooms":["A","B"],"studentTrueClassroom":"B","exampleSet":"second","trial_type":"survey-html-form","trial_index":112,"time_elapsed":935614,"internal_node_id":"0.0-111.0-0.0","params":{"nStudents":24,"maxFlips":30,"completionMinutes":45,"basePay":8,"maxBonus":9,"perTrialBonus":0.5,"perTrialBonusThreshold":0.05,"exampleCost":0.01},"classroomParams":{"A":{"a":1,"b":4},"B":{"a":4,"b":1},"C":{"a":2,"b":8},"D":{"a":8,"b":2}},"conditions":["nonSeqFull","nonSeqPartial","seqNoFeedback","seqFeedback"],"classroomPairings":[["A","B"],["C","D"]],"coinWeights":[0.2,0.5,0.8],"subjectId":"A10JXOU89D5RXR","assignmentId":"338JKRMM27LIQ4LPOP8WKQ04J5IAHW","hitId":"3J94SKDEKIB2MY6CGVTNWB9X0ALD5P","url":"https://gershmanlab.com/experiments/alicia/teaching/experiment/?hitId=3J94SKDEKIB2MY6CGVTNWB9X0ALD5P&workerId=A10JXOU89D5RXR&assignmentId=338JKRMM27LIQ4LPOP8WKQ04J5IAHW&a=MK839&tp_a=MK839&b=338JKRMM27LIQ4LPOP8WKQ04J5IAHW&tp_b=338JKRMM27LIQ4LPOP8WKQ04J5IAHW&c=365799&tp_c=365799","firstResponseHeads":1,"firstResponseTails":1,"secondResponseHeads":0,"secondResponseTails":2,"totalHeads":1,"totalTails":3,"studentIndex":13,"studentTrueHypers":{"a":4,"b":1},"studentGuess":0.5555555555555556,"delta":0.05555555555555558,"bonus":0,"bonusSoFar":1.04,"totalExamples":4},{"rt":10863,"response":{"heads":"4","tails":"4"},"type":"response","condition":"nonSeqPartial","trueTheta":0.5,"classrooms":["A","B"],"studentTrueClassroom":"A","exampleSet":"first","trial_type":"survey-html-form","trial_index":118,"time_elapsed":959774,"internal_node_id":"0.0-117.0-0.0","params":{"nStudents":24,"maxFlips":30,"completionMinutes":45,"basePay":8,"maxBonus":9,"perTrialBonus":0.5,"perTrialBonusThreshold":0.05,"exampleCost":0.01},"classroomParams":{"A":{"a":1,"b":4},"B":{"a":4,"b":1},"C":{"a":2,"b":8},"D":{"a":8,"b":2}},"conditions":["nonSeqFull","nonSeqPartial","seqNoFeedback","seqFeedback"],"classroomPairings":[["A","B"],["C","D"]],"coinWeights":[0.2,0.5,0.8],"subjectId":"A10JXOU89D5RXR","assignmentId":"338JKRMM27LIQ4LPOP8WKQ04J5IAHW","hitId":"3J94SKDEKIB2MY6CGVTNWB9X0ALD5P","url":"https://gershmanlab.com/experiments/alicia/teaching/experiment/?hitId=3J94SKDEKIB2MY6CGVTNWB9X0ALD5P&workerId=A10JXOU89D5RXR&assignmentId=338JKRMM27LIQ4LPOP8WKQ04J5IAHW&a=MK839&tp_a=MK839&b=338JKRMM27LIQ4LPOP8WKQ04J5IAHW&tp_b=338JKRMM27LIQ4LPOP8WKQ04J5IAHW&c=365799&tp_c=365799","heads":4,"tails":4,"studentIndex":14,"studentTrueHypers":{"a":1,"b":4},"studentGuess":0.38461538461538464,"delta":0.11538461538461536,"totalExamples":8,"bonus":0,"bonusSoFar":1.04},{"rt":8119,"response":{"heads":"8","tails":"2"},"type":"response","condition":"seqNoFeedback","trueTheta":0.8,"classrooms":["C","D"],"studentTrueClassroom":"C","exampleSet":"first","trial_type":"survey-html-form","trial_index":124,"time_elapsed":980758,"internal_node_id":"0.0-123.0-0.0","params":{"nStudents":24,"maxFlips":30,"completionMinutes":45,"basePay":8,"maxBonus":9,"perTrialBonus":0.5,"perTrialBonusThreshold":0.05,"exampleCost":0.01},"classroomParams":{"A":{"a":1,"b":4},"B":{"a":4,"b":1},"C":{"a":2,"b":8},"D":{"a":8,"b":2}},"conditions":["nonSeqFull","nonSeqPartial","seqNoFeedback","seqFeedback"],"classroomPairings":[["A","B"],["C","D"]],"coinWeights":[0.2,0.5,0.8],"subjectId":"A10JXOU89D5RXR","assignmentId":"338JKRMM27LIQ4LPOP8WKQ04J5IAHW","hitId":"3J94SKDEKIB2MY6CGVTNWB9X0ALD5P","url":"https://gershmanlab.com/experiments/alicia/teaching/experiment/?hitId=3J94SKDEKIB2MY6CGVTNWB9X0ALD5P&workerId=A10JXOU89D5RXR&assignmentId=338JKRMM27LIQ4LPOP8WKQ04J5IAHW&a=MK839&tp_a=MK839&b=338JKRMM27LIQ4LPOP8WKQ04J5IAHW&tp_b=338JKRMM27LIQ4LPOP8WKQ04J5IAHW&c=365799&tp_c=365799","heads":8,"tails":2,"studentIndex":15,"studentTrueHypers":{"a":2,"b":8},"studentGuess":0.5,"delta":0.30000000000000004,"totalExamples":10,"bonusSoFar":1.04},{"rt":11589,"response":{"heads":"8","tails":"2"},"type":"response","condition":"seqNoFeedback","trueTheta":0.8,"classrooms":["C","D"],"studentTrueClassroom":"C","exampleSet":"second","trial_type":"survey-html-form","trial_index":127,"time_elapsed":998371,"internal_node_id":"0.0-126.0-0.0","params":{"nStudents":24,"maxFlips":30,"completionMinutes":45,"basePay":8,"maxBonus":9,"perTrialBonus":0.5,"perTrialBonusThreshold":0.05,"exampleCost":0.01},"classroomParams":{"A":{"a":1,"b":4},"B":{"a":4,"b":1},"C":{"a":2,"b":8},"D":{"a":8,"b":2}},"conditions":["nonSeqFull","nonSeqPartial","seqNoFeedback","seqFeedback"],"classroomPairings":[["A","B"],["C","D"]],"coinWeights":[0.2,0.5,0.8],"subjectId":"A10JXOU89D5RXR","assignmentId":"338JKRMM27LIQ4LPOP8WKQ04J5IAHW","hitId":"3J94SKDEKIB2MY6CGVTNWB9X0ALD5P","url":"https://gershmanlab.com/experiments/alicia/teaching/experiment/?hitId=3J94SKDEKIB2MY6CGVTNWB9X0ALD5P&workerId=A10JXOU89D5RXR&assignmentId=338JKRMM27LIQ4LPOP8WKQ04J5IAHW&a=MK839&tp_a=MK839&b=338JKRMM27LIQ4LPOP8WKQ04J5IAHW&tp_b=338JKRMM27LIQ4LPOP8WKQ04J5IAHW&c=365799&tp_c=365799","firstResponseHeads":8,"firstResponseTails":2,"secondResponseHeads":8,"secondResponseTails":2,"totalHeads":16,"totalTails":4,"studentIndex":15,"studentTrueHypers":{"a":2,"b":8},"studentGuess":0.6,"delta":0.20000000000000007,"bonus":0,"bonusSoFar":1.04,"totalExamples":20},{"rt":10479,"response":{"heads":"4","tails":"1"},"type":"response","condition":"nonSeqFull","trueTheta":0.8,"classrooms":["A","B"],"studentTrueClassroom":"B","exampleSet":"first","trial_type":"survey-html-form","trial_index":133,"time_elapsed":1021618,"internal_node_id":"0.0-132.0-0.0","params":{"nStudents":24,"maxFlips":30,"completionMinutes":45,"basePay":8,"maxBonus":9,"perTrialBonus":0.5,"perTrialBonusThreshold":0.05,"exampleCost":0.01},"classroomParams":{"A":{"a":1,"b":4},"B":{"a":4,"b":1},"C":{"a":2,"b":8},"D":{"a":8,"b":2}},"conditions":["nonSeqFull","nonSeqPartial","seqNoFeedback","seqFeedback"],"classroomPairings":[["A","B"],["C","D"]],"coinWeights":[0.2,0.5,0.8],"subjectId":"A10JXOU89D5RXR","assignmentId":"338JKRMM27LIQ4LPOP8WKQ04J5IAHW","hitId":"3J94SKDEKIB2MY6CGVTNWB9X0ALD5P","url":"https://gershmanlab.com/experiments/alicia/teaching/experiment/?hitId=3J94SKDEKIB2MY6CGVTNWB9X0ALD5P&workerId=A10JXOU89D5RXR&assignmentId=338JKRMM27LIQ4LPOP8WKQ04J5IAHW&a=MK839&tp_a=MK839&b=338JKRMM27LIQ4LPOP8WKQ04J5IAHW&tp_b=338JKRMM27LIQ4LPOP8WKQ04J5IAHW&c=365799&tp_c=365799","heads":4,"tails":1,"studentIndex":16,"studentTrueHypers":{"a":4,"b":1},"studentGuess":0.8,"delta":0,"totalExamples":5,"bonus":0.45,"bonusSoFar":1.49},{"rt":24575,"response":{"heads":"8","tails":"2"},"type":"response","condition":"nonSeqFull","trueTheta":0.5,"classrooms":["C","D"],"studentTrueClassroom":"C","exampleSet":"first","trial_type":"survey-html-form","trial_index":139,"time_elapsed":1061962,"internal_node_id":"0.0-138.0-0.0","params":{"nStudents":24,"maxFlips":30,"completionMinutes":45,"basePay":8,"maxBonus":9,"perTrialBonus":0.5,"perTrialBonusThreshold":0.05,"exampleCost":0.01},"classroomParams":{"A":{"a":1,"b":4},"B":{"a":4,"b":1},"C":{"a":2,"b":8},"D":{"a":8,"b":2}},"conditions":["nonSeqFull","nonSeqPartial","seqNoFeedback","seqFeedback"],"classroomPairings":[["A","B"],["C","D"]],"coinWeights":[0.2,0.5,0.8],"subjectId":"A10JXOU89D5RXR","assignmentId":"338JKRMM27LIQ4LPOP8WKQ04J5IAHW","hitId":"3J94SKDEKIB2MY6CGVTNWB9X0ALD5P","url":"https://gershmanlab.com/experiments/alicia/teaching/experiment/?hitId=3J94SKDEKIB2MY6CGVTNWB9X0ALD5P&workerId=A10JXOU89D5RXR&assignmentId=338JKRMM27LIQ4LPOP8WKQ04J5IAHW&a=MK839&tp_a=MK839&b=338JKRMM27LIQ4LPOP8WKQ04J5IAHW&tp_b=338JKRMM27LIQ4LPOP8WKQ04J5IAHW&c=365799&tp_c=365799","heads":8,"tails":2,"studentIndex":17,"studentTrueHypers":{"a":2,"b":8},"studentGuess":0.5,"delta":0,"totalExamples":10,"bonus":0.4,"bonusSoFar":1.89},{"rt":29875,"response":{"heads":"1","tails":"9"},"type":"response","condition":"seqNoFeedback","trueTheta":0.2,"classrooms":["A","B"],"studentTrueClassroom":"A","exampleSet":"first","trial_type":"survey-html-form","trial_index":145,"time_elapsed":1106567,"internal_node_id":"0.0-144.0-0.0","params":{"nStudents":24,"maxFlips":30,"completionMinutes":45,"basePay":8,"maxBonus":9,"perTrialBonus":0.5,"perTrialBonusThreshold":0.05,"exampleCost":0.01},"classroomParams":{"A":{"a":1,"b":4},"B":{"a":4,"b":1},"C":{"a":2,"b":8},"D":{"a":8,"b":2}},"conditions":["nonSeqFull","nonSeqPartial","seqNoFeedback","seqFeedback"],"classroomPairings":[["A","B"],["C","D"]],"coinWeights":[0.2,0.5,0.8],"subjectId":"A10JXOU89D5RXR","assignmentId":"338JKRMM27LIQ4LPOP8WKQ04J5IAHW","hitId":"3J94SKDEKIB2MY6CGVTNWB9X0ALD5P","url":"https://gershmanlab.com/experiments/alicia/teaching/experiment/?hitId=3J94SKDEKIB2MY6CGVTNWB9X0ALD5P&workerId=A10JXOU89D5RXR&assignmentId=338JKRMM27LIQ4LPOP8WKQ04J5IAHW&a=MK839&tp_a=MK839&b=338JKRMM27LIQ4LPOP8WKQ04J5IAHW&tp_b=338JKRMM27LIQ4LPOP8WKQ04J5IAHW&c=365799&tp_c=365799","heads":1,"tails":9,"studentIndex":18,"studentTrueHypers":{"a":1,"b":4},"studentGuess":0.13333333333333333,"delta":0.06666666666666668,"totalExamples":10,"bonusSoFar":1.89},{"rt":12376,"response":{"heads":"2","tails":"8"},"type":"response","condition":"seqNoFeedback","trueTheta":0.2,"classrooms":["A","B"],"studentTrueClassroom":"A","exampleSet":"second","trial_type":"survey-html-form","trial_index":148,"time_elapsed":1124466,"internal_node_id":"0.0-147.0-0.0","params":{"nStudents":24,"maxFlips":30,"completionMinutes":45,"basePay":8,"maxBonus":9,"perTrialBonus":0.5,"perTrialBonusThreshold":0.05,"exampleCost":0.01},"classroomParams":{"A":{"a":1,"b":4},"B":{"a":4,"b":1},"C":{"a":2,"b":8},"D":{"a":8,"b":2}},"conditions":["nonSeqFull","nonSeqPartial","seqNoFeedback","seqFeedback"],"classroomPairings":[["A","B"],["C","D"]],"coinWeights":[0.2,0.5,0.8],"subjectId":"A10JXOU89D5RXR","assignmentId":"338JKRMM27LIQ4LPOP8WKQ04J5IAHW","hitId":"3J94SKDEKIB2MY6CGVTNWB9X0ALD5P","url":"https://gershmanlab.com/experiments/alicia/teaching/experiment/?hitId=3J94SKDEKIB2MY6CGVTNWB9X0ALD5P&workerId=A10JXOU89D5RXR&assignmentId=338JKRMM27LIQ4LPOP8WKQ04J5IAHW&a=MK839&tp_a=MK839&b=338JKRMM27LIQ4LPOP8WKQ04J5IAHW&tp_b=338JKRMM27LIQ4LPOP8WKQ04J5IAHW&c=365799&tp_c=365799","firstResponseHeads":1,"firstResponseTails":9,"secondResponseHeads":2,"secondResponseTails":8,"totalHeads":3,"totalTails":17,"studentIndex":18,"studentTrueHypers":{"a":1,"b":4},"studentGuess":0.16,"delta":0.04000000000000001,"bonus":0.3,"bonusSoFar":2.19,"totalExamples":20},{"rt":10251,"response":{"heads":"2","tails":"8"},"type":"response","condition":"nonSeqPartial","trueTheta":0.2,"classrooms":["A","B"],"studentTrueClassroom":"B","exampleSet":"first","trial_type":"survey-html-form","trial_index":154,"time_elapsed":1149547,"internal_node_id":"0.0-153.0-0.0","params":{"nStudents":24,"maxFlips":30,"completionMinutes":45,"basePay":8,"maxBonus":9,"perTrialBonus":0.5,"perTrialBonusThreshold":0.05,"exampleCost":0.01},"classroomParams":{"A":{"a":1,"b":4},"B":{"a":4,"b":1},"C":{"a":2,"b":8},"D":{"a":8,"b":2}},"conditions":["nonSeqFull","nonSeqPartial","seqNoFeedback","seqFeedback"],"classroomPairings":[["A","B"],["C","D"]],"coinWeights":[0.2,0.5,0.8],"subjectId":"A10JXOU89D5RXR","assignmentId":"338JKRMM27LIQ4LPOP8WKQ04J5IAHW","hitId":"3J94SKDEKIB2MY6CGVTNWB9X0ALD5P","url":"https://gershmanlab.com/experiments/alicia/teaching/experiment/?hitId=3J94SKDEKIB2MY6CGVTNWB9X0ALD5P&workerId=A10JXOU89D5RXR&assignmentId=338JKRMM27LIQ4LPOP8WKQ04J5IAHW&a=MK839&tp_a=MK839&b=338JKRMM27LIQ4LPOP8WKQ04J5IAHW&tp_b=338JKRMM27LIQ4LPOP8WKQ04J5IAHW&c=365799&tp_c=365799","heads":2,"tails":8,"studentIndex":19,"studentTrueHypers":{"a":4,"b":1},"studentGuess":0.4,"delta":0.2,"totalExamples":10,"bonus":0,"bonusSoFar":2.19},{"rt":32539,"response":{"heads":"0","tails":"19"},"type":"response","condition":"nonSeqFull","trueTheta":0.2,"classrooms":["A","B"],"studentTrueClassroom":"B","exampleSet":"first","trial_type":"survey-html-form","trial_index":160,"time_elapsed":1195531,"internal_node_id":"0.0-159.0-0.0","params":{"nStudents":24,"maxFlips":30,"completionMinutes":45,"basePay":8,"maxBonus":9,"perTrialBonus":0.5,"perTrialBonusThreshold":0.05,"exampleCost":0.01},"classroomParams":{"A":{"a":1,"b":4},"B":{"a":4,"b":1},"C":{"a":2,"b":8},"D":{"a":8,"b":2}},"conditions":["nonSeqFull","nonSeqPartial","seqNoFeedback","seqFeedback"],"classroomPairings":[["A","B"],["C","D"]],"coinWeights":[0.2,0.5,0.8],"subjectId":"A10JXOU89D5RXR","assignmentId":"338JKRMM27LIQ4LPOP8WKQ04J5IAHW","hitId":"3J94SKDEKIB2MY6CGVTNWB9X0ALD5P","url":"https://gershmanlab.com/experiments/alicia/teaching/experiment/?hitId=3J94SKDEKIB2MY6CGVTNWB9X0ALD5P&workerId=A10JXOU89D5RXR&assignmentId=338JKRMM27LIQ4LPOP8WKQ04J5IAHW&a=MK839&tp_a=MK839&b=338JKRMM27LIQ4LPOP8WKQ04J5IAHW&tp_b=338JKRMM27LIQ4LPOP8WKQ04J5IAHW&c=365799&tp_c=365799","heads":0,"tails":19,"studentIndex":20,"studentTrueHypers":{"a":4,"b":1},"studentGuess":0.16666666666666666,"delta":0.033333333333333354,"totalExamples":19,"bonus":0.31,"bonusSoFar":2.5},{"rt":15443,"response":{"heads":"6","tails":"6"},"type":"response","condition":"seqNoFeedback","trueTheta":0.5,"classrooms":["C","D"],"studentTrueClassroom":"C","exampleSet":"first","trial_type":"survey-html-form","trial_index":166,"time_elapsed":1224751,"internal_node_id":"0.0-165.0-0.0","params":{"nStudents":24,"maxFlips":30,"completionMinutes":45,"basePay":8,"maxBonus":9,"perTrialBonus":0.5,"perTrialBonusThreshold":0.05,"exampleCost":0.01},"classroomParams":{"A":{"a":1,"b":4},"B":{"a":4,"b":1},"C":{"a":2,"b":8},"D":{"a":8,"b":2}},"conditions":["nonSeqFull","nonSeqPartial","seqNoFeedback","seqFeedback"],"classroomPairings":[["A","B"],["C","D"]],"coinWeights":[0.2,0.5,0.8],"subjectId":"A10JXOU89D5RXR","assignmentId":"338JKRMM27LIQ4LPOP8WKQ04J5IAHW","hitId":"3J94SKDEKIB2MY6CGVTNWB9X0ALD5P","url":"https://gershmanlab.com/experiments/alicia/teaching/experiment/?hitId=3J94SKDEKIB2MY6CGVTNWB9X0ALD5P&workerId=A10JXOU89D5RXR&assignmentId=338JKRMM27LIQ4LPOP8WKQ04J5IAHW&a=MK839&tp_a=MK839&b=338JKRMM27LIQ4LPOP8WKQ04J5IAHW&tp_b=338JKRMM27LIQ4LPOP8WKQ04J5IAHW&c=365799&tp_c=365799","heads":6,"tails":6,"studentIndex":21,"studentTrueHypers":{"a":2,"b":8},"studentGuess":0.36363636363636365,"delta":0.13636363636363635,"totalExamples":12,"bonusSoFar":2.5},{"rt":12912,"response":{"heads":"5","tails":"5"},"type":"response","condition":"seqNoFeedback","trueTheta":0.5,"classrooms":["C","D"],"studentTrueClassroom":"C","exampleSet":"second","trial_type":"survey-html-form","trial_index":169,"time_elapsed":1244182,"internal_node_id":"0.0-168.0-0.0","params":{"nStudents":24,"maxFlips":30,"completionMinutes":45,"basePay":8,"maxBonus":9,"perTrialBonus":0.5,"perTrialBonusThreshold":0.05,"exampleCost":0.01},"classroomParams":{"A":{"a":1,"b":4},"B":{"a":4,"b":1},"C":{"a":2,"b":8},"D":{"a":8,"b":2}},"conditions":["nonSeqFull","nonSeqPartial","seqNoFeedback","seqFeedback"],"classroomPairings":[["A","B"],["C","D"]],"coinWeights":[0.2,0.5,0.8],"subjectId":"A10JXOU89D5RXR","assignmentId":"338JKRMM27LIQ4LPOP8WKQ04J5IAHW","hitId":"3J94SKDEKIB2MY6CGVTNWB9X0ALD5P","url":"https://gershmanlab.com/experiments/alicia/teaching/experiment/?hitId=3J94SKDEKIB2MY6CGVTNWB9X0ALD5P&workerId=A10JXOU89D5RXR&assignmentId=338JKRMM27LIQ4LPOP8WKQ04J5IAHW&a=MK839&tp_a=MK839&b=338JKRMM27LIQ4LPOP8WKQ04J5IAHW&tp_b=338JKRMM27LIQ4LPOP8WKQ04J5IAHW&c=365799&tp_c=365799","firstResponseHeads":6,"firstResponseTails":6,"secondResponseHeads":5,"secondResponseTails":5,"totalHeads":11,"totalTails":11,"studentIndex":21,"studentTrueHypers":{"a":2,"b":8},"studentGuess":0.40625,"delta":0.09375,"bonus":0,"bonusSoFar":2.5,"totalExamples":22},{"rt":20784,"response":{"heads":"5","tails":"5"},"type":"response","condition":"seqNoFeedback","trueTheta":0.5,"classrooms":["A","B"],"studentTrueClassroom":"A","exampleSet":"first","trial_type":"survey-html-form","trial_index":175,"time_elapsed":1279640,"internal_node_id":"0.0-174.0-0.0","params":{"nStudents":24,"maxFlips":30,"completionMinutes":45,"basePay":8,"maxBonus":9,"perTrialBonus":0.5,"perTrialBonusThreshold":0.05,"exampleCost":0.01},"classroomParams":{"A":{"a":1,"b":4},"B":{"a":4,"b":1},"C":{"a":2,"b":8},"D":{"a":8,"b":2}},"conditions":["nonSeqFull","nonSeqPartial","seqNoFeedback","seqFeedback"],"classroomPairings":[["A","B"],["C","D"]],"coinWeights":[0.2,0.5,0.8],"subjectId":"A10JXOU89D5RXR","assignmentId":"338JKRMM27LIQ4LPOP8WKQ04J5IAHW","hitId":"3J94SKDEKIB2MY6CGVTNWB9X0ALD5P","url":"https://gershmanlab.com/experiments/alicia/teaching/experiment/?hitId=3J94SKDEKIB2MY6CGVTNWB9X0ALD5P&workerId=A10JXOU89D5RXR&assignmentId=338JKRMM27LIQ4LPOP8WKQ04J5IAHW&a=MK839&tp_a=MK839&b=338JKRMM27LIQ4LPOP8WKQ04J5IAHW&tp_b=338JKRMM27LIQ4LPOP8WKQ04J5IAHW&c=365799&tp_c=365799","heads":5,"tails":5,"studentIndex":22,"studentTrueHypers":{"a":1,"b":4},"studentGuess":0.4,"delta":0.09999999999999998,"totalExamples":10,"bonusSoFar":2.5},{"rt":9479,"response":{"heads":"5","tails":"5"},"type":"response","condition":"seqNoFeedback","trueTheta":0.5,"classrooms":["A","B"],"studentTrueClassroom":"A","exampleSet":"second","trial_type":"survey-html-form","trial_index":178,"time_elapsed":1295639,"internal_node_id":"0.0-177.0-0.0","params":{"nStudents":24,"maxFlips":30,"completionMinutes":45,"basePay":8,"maxBonus":9,"perTrialBonus":0.5,"perTrialBonusThreshold":0.05,"exampleCost":0.01},"classroomParams":{"A":{"a":1,"b":4},"B":{"a":4,"b":1},"C":{"a":2,"b":8},"D":{"a":8,"b":2}},"conditions":["nonSeqFull","nonSeqPartial","seqNoFeedback","seqFeedback"],"classroomPairings":[["A","B"],["C","D"]],"coinWeights":[0.2,0.5,0.8],"subjectId":"A10JXOU89D5RXR","assignmentId":"338JKRMM27LIQ4LPOP8WKQ04J5IAHW","hitId":"3J94SKDEKIB2MY6CGVTNWB9X0ALD5P","url":"https://gershmanlab.com/experiments/alicia/teaching/experiment/?hitId=3J94SKDEKIB2MY6CGVTNWB9X0ALD5P&workerId=A10JXOU89D5RXR&assignmentId=338JKRMM27LIQ4LPOP8WKQ04J5IAHW&a=MK839&tp_a=MK839&b=338JKRMM27LIQ4LPOP8WKQ04J5IAHW&tp_b=338JKRMM27LIQ4LPOP8WKQ04J5IAHW&c=365799&tp_c=365799","firstResponseHeads":5,"firstResponseTails":5,"secondResponseHeads":5,"secondResponseTails":5,"totalHeads":10,"totalTails":10,"studentIndex":22,"studentTrueHypers":{"a":1,"b":4},"studentGuess":0.44,"delta":0.06,"bonus":0,"bonusSoFar":2.5,"totalExamples":20},{"rt":12274,"response":{"heads":"1","tails":"4"},"type":"response","condition":"seqNoFeedback","trueTheta":0.2,"classrooms":["C","D"],"studentTrueClassroom":"C","exampleSet":"first","trial_type":"survey-html-form","trial_index":184,"time_elapsed":1321092,"internal_node_id":"0.0-183.0-0.0","params":{"nStudents":24,"maxFlips":30,"completionMinutes":45,"basePay":8,"maxBonus":9,"perTrialBonus":0.5,"perTrialBonusThreshold":0.05,"exampleCost":0.01},"classroomParams":{"A":{"a":1,"b":4},"B":{"a":4,"b":1},"C":{"a":2,"b":8},"D":{"a":8,"b":2}},"conditions":["nonSeqFull","nonSeqPartial","seqNoFeedback","seqFeedback"],"classroomPairings":[["A","B"],["C","D"]],"coinWeights":[0.2,0.5,0.8],"subjectId":"A10JXOU89D5RXR","assignmentId":"338JKRMM27LIQ4LPOP8WKQ04J5IAHW","hitId":"3J94SKDEKIB2MY6CGVTNWB9X0ALD5P","url":"https://gershmanlab.com/experiments/alicia/teaching/experiment/?hitId=3J94SKDEKIB2MY6CGVTNWB9X0ALD5P&workerId=A10JXOU89D5RXR&assignmentId=338JKRMM27LIQ4LPOP8WKQ04J5IAHW&a=MK839&tp_a=MK839&b=338JKRMM27LIQ4LPOP8WKQ04J5IAHW&tp_b=338JKRMM27LIQ4LPOP8WKQ04J5IAHW&c=365799&tp_c=365799","heads":1,"tails":4,"studentIndex":23,"studentTrueHypers":{"a":2,"b":8},"studentGuess":0.2,"delta":0,"totalExamples":5,"bonusSoFar":2.5},{"rt":8363,"response":{"heads":"1","tails":"4"},"type":"response","condition":"seqNoFeedback","trueTheta":0.2,"classrooms":["C","D"],"studentTrueClassroom":"C","exampleSet":"second","trial_type":"survey-html-form","trial_index":187,"time_elapsed":1335232,"internal_node_id":"0.0-186.0-0.0","params":{"nStudents":24,"maxFlips":30,"completionMinutes":45,"basePay":8,"maxBonus":9,"perTrialBonus":0.5,"perTrialBonusThreshold":0.05,"exampleCost":0.01},"classroomParams":{"A":{"a":1,"b":4},"B":{"a":4,"b":1},"C":{"a":2,"b":8},"D":{"a":8,"b":2}},"conditions":["nonSeqFull","nonSeqPartial","seqNoFeedback","seqFeedback"],"classroomPairings":[["A","B"],["C","D"]],"coinWeights":[0.2,0.5,0.8],"subjectId":"A10JXOU89D5RXR","assignmentId":"338JKRMM27LIQ4LPOP8WKQ04J5IAHW","hitId":"3J94SKDEKIB2MY6CGVTNWB9X0ALD5P","url":"https://gershmanlab.com/experiments/alicia/teaching/experiment/?hitId=3J94SKDEKIB2MY6CGVTNWB9X0ALD5P&workerId=A10JXOU89D5RXR&assignmentId=338JKRMM27LIQ4LPOP8WKQ04J5IAHW&a=MK839&tp_a=MK839&b=338JKRMM27LIQ4LPOP8WKQ04J5IAHW&tp_b=338JKRMM27LIQ4LPOP8WKQ04J5IAHW&c=365799&tp_c=365799","firstResponseHeads":1,"firstResponseTails":4,"secondResponseHeads":1,"secondResponseTails":4,"totalHeads":2,"totalTails":8,"studentIndex":23,"studentTrueHypers":{"a":2,"b":8},"studentGuess":0.2,"delta":0,"bonus":0.4,"bonusSoFar":2.9,"totalExamples":10},{"rt":12946,"response":{"gender":"female","age":"60","understood":"yes","comments":"none"},"type":"response","trial_type":"survey-html-form","trial_index":191,"time_elapsed":1356624,"internal_node_id":"0.0-191.0","params":{"nStudents":24,"maxFlips":30,"completionMinutes":45,"basePay":8,"maxBonus":9,"perTrialBonus":0.5,"perTrialBonusThreshold":0.05,"exampleCost":0.01},"classroomParams":{"A":{"a":1,"b":4},"B":{"a":4,"b":1},"C":{"a":2,"b":8},"D":{"a":8,"b":2}},"conditions":["nonSeqFull","nonSeqPartial","seqNoFeedback","seqFeedback"],"classroomPairings":[["A","B"],["C","D"]],"coinWeights":[0.2,0.5,0.8],"subjectId":"A10JXOU89D5RXR","assignmentId":"338JKRMM27LIQ4LPOP8WKQ04J5IAHW","hitId":"3J94SKDEKIB2MY6CGVTNWB9X0ALD5P","url":"https://gershmanlab.com/experiments/alicia/teaching/experiment/?hitId=3J94SKDEKIB2MY6CGVTNWB9X0ALD5P&workerId=A10JXOU89D5RXR&assignmentId=338JKRMM27LIQ4LPOP8WKQ04J5IAHW&a=MK839&tp_a=MK839&b=338JKRMM27LIQ4LPOP8WKQ04J5IAHW&tp_b=338JKRMM27LIQ4LPOP8WKQ04J5IAHW&c=365799&tp_c=365799","totalBonus":2.9}]