[{"rt":5433,"response":{"heads":"1","tails":"4"},"type":"response","condition":"seqNoFeedback","trueTheta":0.2,"classrooms":["A","B"],"studentTrueClassroom":"B","exampleSet":"first","trial_type":"survey-html-form","trial_index":10,"time_elapsed":65207,"internal_node_id":"0.0-6.0-0.0","params":{"nStudents":24,"maxFlips":30,"completionMinutes":45,"basePay":8,"maxBonus":9,"perTrialBonus":0.5,"perTrialBonusThreshold":0.05,"exampleCost":0.01},"classroomParams":{"A":{"a":1,"b":4},"B":{"a":4,"b":1},"C":{"a":2,"b":8},"D":{"a":8,"b":2}},"conditions":["nonSeqFull","nonSeqPartial","seqNoFeedback","seqFeedback"],"classroomPairings":[["A","B"],["C","D"]],"coinWeights":[0.2,0.5,0.8],"subjectId":"A11LNK1U3DT08V","assignmentId":"3Z4GS9HPNWW3EDHF4DA0JM9K4UH771","hitId":"3SD15I2WD2G0NA4TSPXGB81L5S7630","url":"https://gershmanlab.com/experiments/alicia/teaching/experiment/?hitId=3SD15I2WD2G0NA4TSPXGB81L5S7630&workerId=A11LNK1U3DT08V&assignmentId=3Z4GS9HPNWW3EDHF4DA0JM9K4UH771&a=PS4Z9&tp_a=PS4Z9&b=3Z4GS9HPNWW3EDHF4DA0JM9K4UH771&tp_b=3Z4GS9HPNWW3EDHF4DA0JM9K4UH771&c=365799&tp_c=365799","heads":1,"tails":4,"studentIndex":0,"studentTrueHypers":{"a":4,"b":1},"studentGuess":0.5,"delta":0.3,"totalExamples":5,"bonusSoFar":0},{"rt":7859,"response":{"heads":"1","tails":"4"},"type":"response","condition":"seqNoFeedback","trueTheta":0.2,"classrooms":["A","B"],"studentTrueClassroom":"B","exampleSet":"second","trial_type":"survey-html-form","trial_index":13,"time_elapsed":79776,"internal_node_id":"0.0-9.0-0.0","params":{"nStudents":24,"maxFlips":30,"completionMinutes":45,"basePay":8,"maxBonus":9,"perTrialBonus":0.5,"perTrialBonusThreshold":0.05,"exampleCost":0.01},"classroomParams":{"A":{"a":1,"b":4},"B":{"a":4,"b":1},"C":{"a":2,"b":8},"D":{"a":8,"b":2}},"conditions":["nonSeqFull","nonSeqPartial","seqNoFeedback","seqFeedback"],"classroomPairings":[["A","B"],["C","D"]],"coinWeights":[0.2,0.5,0.8],"subjectId":"A11LNK1U3DT08V","assignmentId":"3Z4GS9HPNWW3EDHF4DA0JM9K4UH771","hitId":"3SD15I2WD2G0NA4TSPXGB81L5S7630","url":"https://gershmanlab.com/experiments/alicia/teaching/experiment/?hitId=3SD15I2WD2G0NA4TSPXGB81L5S7630&workerId=A11LNK1U3DT08V&assignmentId=3Z4GS9HPNWW3EDHF4DA0JM9K4UH771&a=PS4Z9&tp_a=PS4Z9&b=3Z4GS9HPNWW3EDHF4DA0JM9K4UH771&tp_b=3Z4GS9HPNWW3EDHF4DA0JM9K4UH771&c=365799&tp_c=365799","firstResponseHeads":1,"firstResponseTails":4,"secondResponseHeads":1,"secondResponseTails":4,"totalHeads":2,"totalTails":8,"studentIndex":0,"studentTrueHypers":{"a":4,"b":1},"studentGuess":0.4,"delta":0.2,"bonus":0,"bonusSoFar":0,"totalExamples":10},{"rt":5409,"response":{"heads":"2","tails":"8"},"type":"response","condition":"nonSeqFull","trueTheta":0.2,"classrooms":["C","D"],"studentTrueClassroom":"C","exampleSet":"first","trial_type":"survey-html-form","trial_index":19,"time_elapsed":99870,"internal_node_id":"0.0-15.0-0.0","params":{"nStudents":24,"maxFlips":30,"completionMinutes":45,"basePay":8,"maxBonus":9,"perTrialBonus":0.5,"perTrialBonusThreshold":0.05,"exampleCost":0.01},"classroomParams":{"A":{"a":1,"b":4},"B":{"a":4,"b":1},"C":{"a":2,"b":8},"D":{"a":8,"b":2}},"conditions":["nonSeqFull","nonSeqPartial","seqNoFeedback","seqFeedback"],"classroomPairings":[["A","B"],["C","D"]],"coinWeights":[0.2,0.5,0.8],"subjectId":"A11LNK1U3DT08V","assignmentId":"3Z4GS9HPNWW3EDHF4DA0JM9K4UH771","hitId":"3SD15I2WD2G0NA4TSPXGB81L5S7630","url":"https://gershmanlab.com/experiments/alicia/teaching/experiment/?hitId=3SD15I2WD2G0NA4TSPXGB81L5S7630&workerId=A11LNK1U3DT08V&assignmentId=3Z4GS9HPNWW3EDHF4DA0JM9K4UH771&a=PS4Z9&tp_a=PS4Z9&b=3Z4GS9HPNWW3EDHF4DA0JM9K4UH771&tp_b=3Z4GS9HPNWW3EDHF4DA0JM9K4UH771&c=365799&tp_c=365799","heads":2,"tails":8,"studentIndex":1,"studentTrueHypers":{"a":2,"b":8},"studentGuess":0.2,"delta":0,"totalExamples":10,"bonus":0.4,"bonusSoFar":0.4},{"rt":5086,"response":{"heads":"8","tails":"2"},"type":"response","condition":"nonSeqFull","trueTheta":0.8,"classrooms":["C","D"],"studentTrueClassroom":"D","exampleSet":"first","trial_type":"survey-html-form","trial_index":25,"time_elapsed":116967,"internal_node_id":"0.0-21.0-0.0","params":{"nStudents":24,"maxFlips":30,"completionMinutes":45,"basePay":8,"maxBonus":9,"perTrialBonus":0.5,"perTrialBonusThreshold":0.05,"exampleCost":0.01},"classroomParams":{"A":{"a":1,"b":4},"B":{"a":4,"b":1},"C":{"a":2,"b":8},"D":{"a":8,"b":2}},"conditions":["nonSeqFull","nonSeqPartial","seqNoFeedback","seqFeedback"],"classroomPairings":[["A","B"],["C","D"]],"coinWeights":[0.2,0.5,0.8],"subjectId":"A11LNK1U3DT08V","assignmentId":"3Z4GS9HPNWW3EDHF4DA0JM9K4UH771","hitId":"3SD15I2WD2G0NA4TSPXGB81L5S7630","url":"https://gershmanlab.com/experiments/alicia/teaching/experiment/?hitId=3SD15I2WD2G0NA4TSPXGB81L5S7630&workerId=A11LNK1U3DT08V&assignmentId=3Z4GS9HPNWW3EDHF4DA0JM9K4UH771&a=PS4Z9&tp_a=PS4Z9&b=3Z4GS9HPNWW3EDHF4DA0JM9K4UH771&tp_b=3Z4GS9HPNWW3EDHF4DA0JM9K4UH771&c=365799&tp_c=365799","heads":8,"tails":2,"studentIndex":2,"studentTrueHypers":{"a":8,"b":2},"studentGuess":0.8,"delta":0,"totalExamples":10,"bonus":0.4,"bonusSoFar":0.8},{"rt":6616,"response":{"heads":"4","tails":"1"},"type":"response","condition":"nonSeqPartial","trueTheta":0.5,"classrooms":["A","B"],"studentTrueClassroom":"B","exampleSet":"first","trial_type":"survey-html-form","trial_index":31,"time_elapsed":135681,"internal_node_id":"0.0-27.0-0.0","params":{"nStudents":24,"maxFlips":30,"completionMinutes":45,"basePay":8,"maxBonus":9,"perTrialBonus":0.5,"perTrialBonusThreshold":0.05,"exampleCost":0.01},"classroomParams":{"A":{"a":1,"b":4},"B":{"a":4,"b":1},"C":{"a":2,"b":8},"D":{"a":8,"b":2}},"conditions":["nonSeqFull","nonSeqPartial","seqNoFeedback","seqFeedback"],"classroomPairings":[["A","B"],["C","D"]],"coinWeights":[0.2,0.5,0.8],"subjectId":"A11LNK1U3DT08V","assignmentId":"3Z4GS9HPNWW3EDHF4DA0JM9K4UH771","hitId":"3SD15I2WD2G0NA4TSPXGB81L5S7630","url":"https://gershmanlab.com/experiments/alicia/teaching/experiment/?hitId=3SD15I2WD2G0NA4TSPXGB81L5S7630&workerId=A11LNK1U3DT08V&assignmentId=3Z4GS9HPNWW3EDHF4DA0JM9K4UH771&a=PS4Z9&tp_a=PS4Z9&b=3Z4GS9HPNWW3EDHF4DA0JM9K4UH771&tp_b=3Z4GS9HPNWW3EDHF4DA0JM9K4UH771&c=365799&tp_c=365799","heads":4,"tails":1,"studentIndex":3,"studentTrueHypers":{"a":4,"b":1},"studentGuess":0.8,"delta":0.30000000000000004,"totalExamples":5,"bonus":0,"bonusSoFar":0.8},{"rt":6204,"response":{"heads":"2","tails":"8"},"type":"response","condition":"seqNoFeedback","trueTheta":0.2,"classrooms":["C","D"],"studentTrueClassroom":"D","exampleSet":"first","trial_type":"survey-html-form","trial_index":37,"time_elapsed":154838,"internal_node_id":"0.0-33.0-0.0","params":{"nStudents":24,"maxFlips":30,"completionMinutes":45,"basePay":8,"maxBonus":9,"perTrialBonus":0.5,"perTrialBonusThreshold":0.05,"exampleCost":0.01},"classroomParams":{"A":{"a":1,"b":4},"B":{"a":4,"b":1},"C":{"a":2,"b":8},"D":{"a":8,"b":2}},"conditions":["nonSeqFull","nonSeqPartial","seqNoFeedback","seqFeedback"],"classroomPairings":[["A","B"],["C","D"]],"coinWeights":[0.2,0.5,0.8],"subjectId":"A11LNK1U3DT08V","assignmentId":"3Z4GS9HPNWW3EDHF4DA0JM9K4UH771","hitId":"3SD15I2WD2G0NA4TSPXGB81L5S7630","url":"https://gershmanlab.com/experiments/alicia/teaching/experiment/?hitId=3SD15I2WD2G0NA4TSPXGB81L5S7630&workerId=A11LNK1U3DT08V&assignmentId=3Z4GS9HPNWW3EDHF4DA0JM9K4UH771&a=PS4Z9&tp_a=PS4Z9&b=3Z4GS9HPNWW3EDHF4DA0JM9K4UH771&tp_b=3Z4GS9HPNWW3EDHF4DA0JM9K4UH771&c=365799&tp_c=365799","heads":2,"tails":8,"studentIndex":4,"studentTrueHypers":{"a":8,"b":2},"studentGuess":0.5,"delta":0.3,"totalExamples":10,"bonusSoFar":0.8},{"rt":5271,"response":{"heads":"2","tails":"8"},"type":"response","condition":"seqNoFeedback","trueTheta":0.2,"classrooms":["C","D"],"studentTrueClassroom":"D","exampleSet":"second","trial_type":"survey-html-form","trial_index":40,"time_elapsed":166370,"internal_node_id":"0.0-36.0-0.0","params":{"nStudents":24,"maxFlips":30,"completionMinutes":45,"basePay":8,"maxBonus":9,"perTrialBonus":0.5,"perTrialBonusThreshold":0.05,"exampleCost":0.01},"classroomParams":{"A":{"a":1,"b":4},"B":{"a":4,"b":1},"C":{"a":2,"b":8},"D":{"a":8,"b":2}},"conditions":["nonSeqFull","nonSeqPartial","seqNoFeedback","seqFeedback"],"classroomPairings":[["A","B"],["C","D"]],"coinWeights":[0.2,0.5,0.8],"subjectId":"A11LNK1U3DT08V","assignmentId":"3Z4GS9HPNWW3EDHF4DA0JM9K4UH771","hitId":"3SD15I2WD2G0NA4TSPXGB81L5S7630","url":"https://gershmanlab.com/experiments/alicia/teaching/experiment/?hitId=3SD15I2WD2G0NA4TSPXGB81L5S7630&workerId=A11LNK1U3DT08V&assignmentId=3Z4GS9HPNWW3EDHF4DA0JM9K4UH771&a=PS4Z9&tp_a=PS4Z9&b=3Z4GS9HPNWW3EDHF4DA0JM9K4UH771&tp_b=3Z4GS9HPNWW3EDHF4DA0JM9K4UH771&c=365799&tp_c=365799","firstResponseHeads":2,"firstResponseTails":8,"secondResponseHeads":2,"secondResponseTails":8,"totalHeads":4,"totalTails":16,"studentIndex":4,"studentTrueHypers":{"a":8,"b":2},"studentGuess":0.4,"delta":0.2,"bonus":0,"bonusSoFar":0.8,"totalExamples":20},{"rt":5700,"response":{"heads":"1","tails":"4"},"type":"response","condition":"seqFeedback","trueTheta":0.8,"classrooms":["A","B"],"studentTrueClassroom":"B","exampleSet":"first","trial_type":"survey-html-form","trial_index":46,"time_elapsed":183470,"internal_node_id":"0.0-42.0-0.0","params":{"nStudents":24,"maxFlips":30,"completionMinutes":45,"basePay":8,"maxBonus":9,"perTrialBonus":0.5,"perTrialBonusThreshold":0.05,"exampleCost":0.01},"classroomParams":{"A":{"a":1,"b":4},"B":{"a":4,"b":1},"C":{"a":2,"b":8},"D":{"a":8,"b":2}},"conditions":["nonSeqFull","nonSeqPartial","seqNoFeedback","seqFeedback"],"classroomPairings":[["A","B"],["C","D"]],"coinWeights":[0.2,0.5,0.8],"subjectId":"A11LNK1U3DT08V","assignmentId":"3Z4GS9HPNWW3EDHF4DA0JM9K4UH771","hitId":"3SD15I2WD2G0NA4TSPXGB81L5S7630","url":"https://gershmanlab.com/experiments/alicia/teaching/experiment/?hitId=3SD15I2WD2G0NA4TSPXGB81L5S7630&workerId=A11LNK1U3DT08V&assignmentId=3Z4GS9HPNWW3EDHF4DA0JM9K4UH771&a=PS4Z9&tp_a=PS4Z9&b=3Z4GS9HPNWW3EDHF4DA0JM9K4UH771&tp_b=3Z4GS9HPNWW3EDHF4DA0JM9K4UH771&c=365799&tp_c=365799","heads":1,"tails":4,"studentIndex":5,"studentTrueHypers":{"a":4,"b":1},"studentGuess":0.5,"delta":0.30000000000000004,"totalExamples":5,"bonusSoFar":0.8},{"rt":5415,"response":{"heads":"4","tails":"1"},"type":"response","condition":"seqFeedback","trueTheta":0.8,"classrooms":["A","B"],"studentTrueClassroom":"B","exampleSet":"second","trial_type":"survey-html-form","trial_index":50,"time_elapsed":197622,"internal_node_id":"0.0-46.0-0.0","params":{"nStudents":24,"maxFlips":30,"completionMinutes":45,"basePay":8,"maxBonus":9,"perTrialBonus":0.5,"perTrialBonusThreshold":0.05,"exampleCost":0.01},"classroomParams":{"A":{"a":1,"b":4},"B":{"a":4,"b":1},"C":{"a":2,"b":8},"D":{"a":8,"b":2}},"conditions":["nonSeqFull","nonSeqPartial","seqNoFeedback","seqFeedback"],"classroomPairings":[["A","B"],["C","D"]],"coinWeights":[0.2,0.5,0.8],"subjectId":"A11LNK1U3DT08V","assignmentId":"3Z4GS9HPNWW3EDHF4DA0JM9K4UH771","hitId":"3SD15I2WD2G0NA4TSPXGB81L5S7630","url":"https://gershmanlab.com/experiments/alicia/teaching/experiment/?hitId=3SD15I2WD2G0NA4TSPXGB81L5S7630&workerId=A11LNK1U3DT08V&assignmentId=3Z4GS9HPNWW3EDHF4DA0JM9K4UH771&a=PS4Z9&tp_a=PS4Z9&b=3Z4GS9HPNWW3EDHF4DA0JM9K4UH771&tp_b=3Z4GS9HPNWW3EDHF4DA0JM9K4UH771&c=365799&tp_c=365799","firstResponseHeads":1,"firstResponseTails":4,"secondResponseHeads":4,"secondResponseTails":1,"totalHeads":5,"totalTails":5,"studentIndex":5,"studentTrueHypers":{"a":4,"b":1},"studentGuess":0.6,"delta":0.20000000000000007,"bonus":0,"bonusSoFar":0.8,"totalExamples":10},{"rt":5466,"response":{"heads":"5","tails":"5"},"type":"response","condition":"seqNoFeedback","trueTheta":0.5,"classrooms":["A","B"],"studentTrueClassroom":"B","exampleSet":"first","trial_type":"survey-html-form","trial_index":56,"time_elapsed":215607,"internal_node_id":"0.0-52.0-0.0","params":{"nStudents":24,"maxFlips":30,"completionMinutes":45,"basePay":8,"maxBonus":9,"perTrialBonus":0.5,"perTrialBonusThreshold":0.05,"exampleCost":0.01},"classroomParams":{"A":{"a":1,"b":4},"B":{"a":4,"b":1},"C":{"a":2,"b":8},"D":{"a":8,"b":2}},"conditions":["nonSeqFull","nonSeqPartial","seqNoFeedback","seqFeedback"],"classroomPairings":[["A","B"],["C","D"]],"coinWeights":[0.2,0.5,0.8],"subjectId":"A11LNK1U3DT08V","assignmentId":"3Z4GS9HPNWW3EDHF4DA0JM9K4UH771","hitId":"3SD15I2WD2G0NA4TSPXGB81L5S7630","url":"https://gershmanlab.com/experiments/alicia/teaching/experiment/?hitId=3SD15I2WD2G0NA4TSPXGB81L5S7630&workerId=A11LNK1U3DT08V&assignmentId=3Z4GS9HPNWW3EDHF4DA0JM9K4UH771&a=PS4Z9&tp_a=PS4Z9&b=3Z4GS9HPNWW3EDHF4DA0JM9K4UH771&tp_b=3Z4GS9HPNWW3EDHF4DA0JM9K4UH771&c=365799&tp_c=365799","heads":5,"tails":5,"studentIndex":6,"studentTrueHypers":{"a":4,"b":1},"studentGuess":0.6,"delta":0.09999999999999998,"totalExamples":10,"bonusSoFar":0.8},{"rt":5646,"response":{"heads":"4","tails":"1"},"type":"response","condition":"seqNoFeedback","trueTheta":0.5,"classrooms":["A","B"],"studentTrueClassroom":"B","exampleSet":"second","trial_type":"survey-html-form","trial_index":59,"time_elapsed":227011,"internal_node_id":"0.0-55.0-0.0","params":{"nStudents":24,"maxFlips":30,"completionMinutes":45,"basePay":8,"maxBonus":9,"perTrialBonus":0.5,"perTrialBonusThreshold":0.05,"exampleCost":0.01},"classroomParams":{"A":{"a":1,"b":4},"B":{"a":4,"b":1},"C":{"a":2,"b":8},"D":{"a":8,"b":2}},"conditions":["nonSeqFull","nonSeqPartial","seqNoFeedback","seqFeedback"],"classroomPairings":[["A","B"],["C","D"]],"coinWeights":[0.2,0.5,0.8],"subjectId":"A11LNK1U3DT08V","assignmentId":"3Z4GS9HPNWW3EDHF4DA0JM9K4UH771","hitId":"3SD15I2WD2G0NA4TSPXGB81L5S7630","url":"https://gershmanlab.com/experiments/alicia/teaching/experiment/?hitId=3SD15I2WD2G0NA4TSPXGB81L5S7630&workerId=A11LNK1U3DT08V&assignmentId=3Z4GS9HPNWW3EDHF4DA0JM9K4UH771&a=PS4Z9&tp_a=PS4Z9&b=3Z4GS9HPNWW3EDHF4DA0JM9K4UH771&tp_b=3Z4GS9HPNWW3EDHF4DA0JM9K4UH771&c=365799&tp_c=365799","firstResponseHeads":5,"firstResponseTails":5,"secondResponseHeads":4,"secondResponseTails":1,"totalHeads":9,"totalTails":6,"studentIndex":6,"studentTrueHypers":{"a":4,"b":1},"studentGuess":0.65,"delta":0.15000000000000002,"bonus":0,"bonusSoFar":0.8,"totalExamples":15},{"rt":4581,"response":{"heads":"5","tails":"5"},"type":"response","condition":"seqFeedback","trueTheta":0.5,"classrooms":["A","B"],"studentTrueClassroom":"A","exampleSet":"first","trial_type":"survey-html-form","trial_index":65,"time_elapsed":243478,"internal_node_id":"0.0-61.0-0.0","params":{"nStudents":24,"maxFlips":30,"completionMinutes":45,"basePay":8,"maxBonus":9,"perTrialBonus":0.5,"perTrialBonusThreshold":0.05,"exampleCost":0.01},"classroomParams":{"A":{"a":1,"b":4},"B":{"a":4,"b":1},"C":{"a":2,"b":8},"D":{"a":8,"b":2}},"conditions":["nonSeqFull","nonSeqPartial","seqNoFeedback","seqFeedback"],"classroomPairings":[["A","B"],["C","D"]],"coinWeights":[0.2,0.5,0.8],"subjectId":"A11LNK1U3DT08V","assignmentId":"3Z4GS9HPNWW3EDHF4DA0JM9K4UH771","hitId":"3SD15I2WD2G0NA4TSPXGB81L5S7630","url":"https://gershmanlab.com/experiments/alicia/teaching/experiment/?hitId=3SD15I2WD2G0NA4TSPXGB81L5S7630&workerId=A11LNK1U3DT08V&assignmentId=3Z4GS9HPNWW3EDHF4DA0JM9K4UH771&a=PS4Z9&tp_a=PS4Z9&b=3Z4GS9HPNWW3EDHF4DA0JM9K4UH771&tp_b=3Z4GS9HPNWW3EDHF4DA0JM9K4UH771&c=365799&tp_c=365799","heads":5,"tails":5,"studentIndex":7,"studentTrueHypers":{"a":1,"b":4},"studentGuess":0.4,"delta":0.09999999999999998,"totalExamples":10,"bonusSoFar":0.8},{"rt":4464,"response":{"heads":"10","tails":"10"},"type":"response","condition":"seqFeedback","trueTheta":0.5,"classrooms":["A","B"],"studentTrueClassroom":"A","exampleSet":"second","trial_type":"survey-html-form","trial_index":69,"time_elapsed":256795,"internal_node_id":"0.0-65.0-0.0","params":{"nStudents":24,"maxFlips":30,"completionMinutes":45,"basePay":8,"maxBonus":9,"perTrialBonus":0.5,"perTrialBonusThreshold":0.05,"exampleCost":0.01},"classroomParams":{"A":{"a":1,"b":4},"B":{"a":4,"b":1},"C":{"a":2,"b":8},"D":{"a":8,"b":2}},"conditions":["nonSeqFull","nonSeqPartial","seqNoFeedback","seqFeedback"],"classroomPairings":[["A","B"],["C","D"]],"coinWeights":[0.2,0.5,0.8],"subjectId":"A11LNK1U3DT08V","assignmentId":"3Z4GS9HPNWW3EDHF4DA0JM9K4UH771","hitId":"3SD15I2WD2G0NA4TSPXGB81L5S7630","url":"https://gershmanlab.com/experiments/alicia/teaching/experiment/?hitId=3SD15I2WD2G0NA4TSPXGB81L5S7630&workerId=A11LNK1U3DT08V&assignmentId=3Z4GS9HPNWW3EDHF4DA0JM9K4UH771&a=PS4Z9&tp_a=PS4Z9&b=3Z4GS9HPNWW3EDHF4DA0JM9K4UH771&tp_b=3Z4GS9HPNWW3EDHF4DA0JM9K4UH771&c=365799&tp_c=365799","firstResponseHeads":5,"firstResponseTails":5,"secondResponseHeads":10,"secondResponseTails":10,"totalHeads":15,"totalTails":15,"studentIndex":7,"studentTrueHypers":{"a":1,"b":4},"studentGuess":0.45714285714285713,"delta":0.04285714285714287,"bonus":0.2,"bonusSoFar":1,"totalExamples":30},{"rt":2917,"response":{"heads":"15","tails":"15"},"type":"response","condition":"nonSeqFull","trueTheta":0.5,"classrooms":["C","D"],"studentTrueClassroom":"D","exampleSet":"first","trial_type":"survey-html-form","trial_index":75,"time_elapsed":271630,"internal_node_id":"0.0-71.0-0.0","params":{"nStudents":24,"maxFlips":30,"completionMinutes":45,"basePay":8,"maxBonus":9,"perTrialBonus":0.5,"perTrialBonusThreshold":0.05,"exampleCost":0.01},"classroomParams":{"A":{"a":1,"b":4},"B":{"a":4,"b":1},"C":{"a":2,"b":8},"D":{"a":8,"b":2}},"conditions":["nonSeqFull","nonSeqPartial","seqNoFeedback","seqFeedback"],"classroomPairings":[["A","B"],["C","D"]],"coinWeights":[0.2,0.5,0.8],"subjectId":"A11LNK1U3DT08V","assignmentId":"3Z4GS9HPNWW3EDHF4DA0JM9K4UH771","hitId":"3SD15I2WD2G0NA4TSPXGB81L5S7630","url":"https://gershmanlab.com/experiments/alicia/teaching/experiment/?hitId=3SD15I2WD2G0NA4TSPXGB81L5S7630&workerId=A11LNK1U3DT08V&assignmentId=3Z4GS9HPNWW3EDHF4DA0JM9K4UH771&a=PS4Z9&tp_a=PS4Z9&b=3Z4GS9HPNWW3EDHF4DA0JM9K4UH771&tp_b=3Z4GS9HPNWW3EDHF4DA0JM9K4UH771&c=365799&tp_c=365799","heads":15,"tails":15,"studentIndex":8,"studentTrueHypers":{"a":8,"b":2},"studentGuess":0.575,"delta":0.07499999999999996,"totalExamples":30,"bonus":0,"bonusSoFar":1},{"rt":4082,"response":{"heads":"8","tails":"2"},"type":"response","condition":"seqFeedback","trueTheta":0.8,"classrooms":["C","D"],"studentTrueClassroom":"C","exampleSet":"first","trial_type":"survey-html-form","trial_index":81,"time_elapsed":288283,"internal_node_id":"0.0-77.0-0.0","params":{"nStudents":24,"maxFlips":30,"completionMinutes":45,"basePay":8,"maxBonus":9,"perTrialBonus":0.5,"perTrialBonusThreshold":0.05,"exampleCost":0.01},"classroomParams":{"A":{"a":1,"b":4},"B":{"a":4,"b":1},"C":{"a":2,"b":8},"D":{"a":8,"b":2}},"conditions":["nonSeqFull","nonSeqPartial","seqNoFeedback","seqFeedback"],"classroomPairings":[["A","B"],["C","D"]],"coinWeights":[0.2,0.5,0.8],"subjectId":"A11LNK1U3DT08V","assignmentId":"3Z4GS9HPNWW3EDHF4DA0JM9K4UH771","hitId":"3SD15I2WD2G0NA4TSPXGB81L5S7630","url":"https://gershmanlab.com/experiments/alicia/teaching/experiment/?hitId=3SD15I2WD2G0NA4TSPXGB81L5S7630&workerId=A11LNK1U3DT08V&assignmentId=3Z4GS9HPNWW3EDHF4DA0JM9K4UH771&a=PS4Z9&tp_a=PS4Z9&b=3Z4GS9HPNWW3EDHF4DA0JM9K4UH771&tp_b=3Z4GS9HPNWW3EDHF4DA0JM9K4UH771&c=365799&tp_c=365799","heads":8,"tails":2,"studentIndex":9,"studentTrueHypers":{"a":2,"b":8},"studentGuess":0.5,"delta":0.30000000000000004,"totalExamples":10,"bonusSoFar":1},{"rt":9056,"response":{"heads":"16","tails":"4"},"type":"response","condition":"seqFeedback","trueTheta":0.8,"classrooms":["C","D"],"studentTrueClassroom":"C","exampleSet":"second","trial_type":"survey-html-form","trial_index":85,"time_elapsed":305618,"internal_node_id":"0.0-81.0-0.0","params":{"nStudents":24,"maxFlips":30,"completionMinutes":45,"basePay":8,"maxBonus":9,"perTrialBonus":0.5,"perTrialBonusThreshold":0.05,"exampleCost":0.01},"classroomParams":{"A":{"a":1,"b":4},"B":{"a":4,"b":1},"C":{"a":2,"b":8},"D":{"a":8,"b":2}},"conditions":["nonSeqFull","nonSeqPartial","seqNoFeedback","seqFeedback"],"classroomPairings":[["A","B"],["C","D"]],"coinWeights":[0.2,0.5,0.8],"subjectId":"A11LNK1U3DT08V","assignmentId":"3Z4GS9HPNWW3EDHF4DA0JM9K4UH771","hitId":"3SD15I2WD2G0NA4TSPXGB81L5S7630","url":"https://gershmanlab.com/experiments/alicia/teaching/experiment/?hitId=3SD15I2WD2G0NA4TSPXGB81L5S7630&workerId=A11LNK1U3DT08V&assignmentId=3Z4GS9HPNWW3EDHF4DA0JM9K4UH771&a=PS4Z9&tp_a=PS4Z9&b=3Z4GS9HPNWW3EDHF4DA0JM9K4UH771&tp_b=3Z4GS9HPNWW3EDHF4DA0JM9K4UH771&c=365799&tp_c=365799","firstResponseHeads":8,"firstResponseTails":2,"secondResponseHeads":16,"secondResponseTails":4,"totalHeads":24,"totalTails":6,"studentIndex":9,"studentTrueHypers":{"a":2,"b":8},"studentGuess":0.65,"delta":0.15000000000000002,"bonus":0,"bonusSoFar":1,"totalExamples":30},{"rt":13268,"response":{"heads":"1","tails":"4"},"type":"response","condition":"nonSeqFull","trueTheta":0.2,"classrooms":["A","B"],"studentTrueClassroom":"B","exampleSet":"first","trial_type":"survey-html-form","trial_index":91,"time_elapsed":329653,"internal_node_id":"0.0-87.0-0.0","params":{"nStudents":24,"maxFlips":30,"completionMinutes":45,"basePay":8,"maxBonus":9,"perTrialBonus":0.5,"perTrialBonusThreshold":0.05,"exampleCost":0.01},"classroomParams":{"A":{"a":1,"b":4},"B":{"a":4,"b":1},"C":{"a":2,"b":8},"D":{"a":8,"b":2}},"conditions":["nonSeqFull","nonSeqPartial","seqNoFeedback","seqFeedback"],"classroomPairings":[["A","B"],["C","D"]],"coinWeights":[0.2,0.5,0.8],"subjectId":"A11LNK1U3DT08V","assignmentId":"3Z4GS9HPNWW3EDHF4DA0JM9K4UH771","hitId":"3SD15I2WD2G0NA4TSPXGB81L5S7630","url":"https://gershmanlab.com/experiments/alicia/teaching/experiment/?hitId=3SD15I2WD2G0NA4TSPXGB81L5S7630&workerId=A11LNK1U3DT08V&assignmentId=3Z4GS9HPNWW3EDHF4DA0JM9K4UH771&a=PS4Z9&tp_a=PS4Z9&b=3Z4GS9HPNWW3EDHF4DA0JM9K4UH771&tp_b=3Z4GS9HPNWW3EDHF4DA0JM9K4UH771&c=365799&tp_c=365799","heads":1,"tails":4,"studentIndex":10,"studentTrueHypers":{"a":4,"b":1},"studentGuess":0.5,"delta":0.3,"totalExamples":5,"bonus":0,"bonusSoFar":1},{"rt":3263,"response":{"heads":"5","tails":"5"},"type":"response","condition":"seqFeedback","trueTheta":0.5,"classrooms":["C","D"],"studentTrueClassroom":"C","exampleSet":"first","trial_type":"survey-html-form","trial_index":97,"time_elapsed":344638,"internal_node_id":"0.0-93.0-0.0","params":{"nStudents":24,"maxFlips":30,"completionMinutes":45,"basePay":8,"maxBonus":9,"perTrialBonus":0.5,"perTrialBonusThreshold":0.05,"exampleCost":0.01},"classroomParams":{"A":{"a":1,"b":4},"B":{"a":4,"b":1},"C":{"a":2,"b":8},"D":{"a":8,"b":2}},"conditions":["nonSeqFull","nonSeqPartial","seqNoFeedback","seqFeedback"],"classroomPairings":[["A","B"],["C","D"]],"coinWeights":[0.2,0.5,0.8],"subjectId":"A11LNK1U3DT08V","assignmentId":"3Z4GS9HPNWW3EDHF4DA0JM9K4UH771","hitId":"3SD15I2WD2G0NA4TSPXGB81L5S7630","url":"https://gershmanlab.com/experiments/alicia/teaching/experiment/?hitId=3SD15I2WD2G0NA4TSPXGB81L5S7630&workerId=A11LNK1U3DT08V&assignmentId=3Z4GS9HPNWW3EDHF4DA0JM9K4UH771&a=PS4Z9&tp_a=PS4Z9&b=3Z4GS9HPNWW3EDHF4DA0JM9K4UH771&tp_b=3Z4GS9HPNWW3EDHF4DA0JM9K4UH771&c=365799&tp_c=365799","heads":5,"tails":5,"studentIndex":11,"studentTrueHypers":{"a":2,"b":8},"studentGuess":0.35,"delta":0.15000000000000002,"totalExamples":10,"bonusSoFar":1},{"rt":3652,"response":{"heads":"15","tails":"15"},"type":"response","condition":"seqFeedback","trueTheta":0.5,"classrooms":["C","D"],"studentTrueClassroom":"C","exampleSet":"second","trial_type":"survey-html-form","trial_index":101,"time_elapsed":356840,"internal_node_id":"0.0-97.0-0.0","params":{"nStudents":24,"maxFlips":30,"completionMinutes":45,"basePay":8,"maxBonus":9,"perTrialBonus":0.5,"perTrialBonusThreshold":0.05,"exampleCost":0.01},"classroomParams":{"A":{"a":1,"b":4},"B":{"a":4,"b":1},"C":{"a":2,"b":8},"D":{"a":8,"b":2}},"conditions":["nonSeqFull","nonSeqPartial","seqNoFeedback","seqFeedback"],"classroomPairings":[["A","B"],["C","D"]],"coinWeights":[0.2,0.5,0.8],"subjectId":"A11LNK1U3DT08V","assignmentId":"3Z4GS9HPNWW3EDHF4DA0JM9K4UH771","hitId":"3SD15I2WD2G0NA4TSPXGB81L5S7630","url":"https://gershmanlab.com/experiments/alicia/teaching/experiment/?hitId=3SD15I2WD2G0NA4TSPXGB81L5S7630&workerId=A11LNK1U3DT08V&assignmentId=3Z4GS9HPNWW3EDHF4DA0JM9K4UH771&a=PS4Z9&tp_a=PS4Z9&b=3Z4GS9HPNWW3EDHF4DA0JM9K4UH771&tp_b=3Z4GS9HPNWW3EDHF4DA0JM9K4UH771&c=365799&tp_c=365799","firstResponseHeads":5,"firstResponseTails":5,"secondResponseHeads":15,"secondResponseTails":15,"totalHeads":20,"totalTails":20,"studentIndex":11,"studentTrueHypers":{"a":2,"b":8},"studentGuess":0.44,"delta":0.06,"bonus":0,"bonusSoFar":1,"totalExamples":40},{"rt":4700,"response":{"heads":"4","tails":"1"},"type":"response","condition":"nonSeqPartial","trueTheta":0.8,"classrooms":["A","B"],"studentTrueClassroom":"B","exampleSet":"first","trial_type":"survey-html-form","trial_index":107,"time_elapsed":375043,"internal_node_id":"0.0-103.0-0.0","params":{"nStudents":24,"maxFlips":30,"completionMinutes":45,"basePay":8,"maxBonus":9,"perTrialBonus":0.5,"perTrialBonusThreshold":0.05,"exampleCost":0.01},"classroomParams":{"A":{"a":1,"b":4},"B":{"a":4,"b":1},"C":{"a":2,"b":8},"D":{"a":8,"b":2}},"conditions":["nonSeqFull","nonSeqPartial","seqNoFeedback","seqFeedback"],"classroomPairings":[["A","B"],["C","D"]],"coinWeights":[0.2,0.5,0.8],"subjectId":"A11LNK1U3DT08V","assignmentId":"3Z4GS9HPNWW3EDHF4DA0JM9K4UH771","hitId":"3SD15I2WD2G0NA4TSPXGB81L5S7630","url":"https://gershmanlab.com/experiments/alicia/teaching/experiment/?hitId=3SD15I2WD2G0NA4TSPXGB81L5S7630&workerId=A11LNK1U3DT08V&assignmentId=3Z4GS9HPNWW3EDHF4DA0JM9K4UH771&a=PS4Z9&tp_a=PS4Z9&b=3Z4GS9HPNWW3EDHF4DA0JM9K4UH771&tp_b=3Z4GS9HPNWW3EDHF4DA0JM9K4UH771&c=365799&tp_c=365799","heads":4,"tails":1,"studentIndex":12,"studentTrueHypers":{"a":4,"b":1},"studentGuess":0.8,"delta":0,"totalExamples":5,"bonus":0.45,"bonusSoFar":1.45},{"rt":4414,"response":{"heads":"1","tails":"4"},"type":"response","condition":"nonSeqPartial","trueTheta":0.2,"classrooms":["A","B"],"studentTrueClassroom":"B","exampleSet":"first","trial_type":"survey-html-form","trial_index":113,"time_elapsed":391261,"internal_node_id":"0.0-109.0-0.0","params":{"nStudents":24,"maxFlips":30,"completionMinutes":45,"basePay":8,"maxBonus":9,"perTrialBonus":0.5,"perTrialBonusThreshold":0.05,"exampleCost":0.01},"classroomParams":{"A":{"a":1,"b":4},"B":{"a":4,"b":1},"C":{"a":2,"b":8},"D":{"a":8,"b":2}},"conditions":["nonSeqFull","nonSeqPartial","seqNoFeedback","seqFeedback"],"classroomPairings":[["A","B"],["C","D"]],"coinWeights":[0.2,0.5,0.8],"subjectId":"A11LNK1U3DT08V","assignmentId":"3Z4GS9HPNWW3EDHF4DA0JM9K4UH771","hitId":"3SD15I2WD2G0NA4TSPXGB81L5S7630","url":"https://gershmanlab.com/experiments/alicia/teaching/experiment/?hitId=3SD15I2WD2G0NA4TSPXGB81L5S7630&workerId=A11LNK1U3DT08V&assignmentId=3Z4GS9HPNWW3EDHF4DA0JM9K4UH771&a=PS4Z9&tp_a=PS4Z9&b=3Z4GS9HPNWW3EDHF4DA0JM9K4UH771&tp_b=3Z4GS9HPNWW3EDHF4DA0JM9K4UH771&c=365799&tp_c=365799","heads":1,"tails":4,"studentIndex":13,"studentTrueHypers":{"a":4,"b":1},"studentGuess":0.5,"delta":0.3,"totalExamples":5,"bonus":0,"bonusSoFar":1.45},{"rt":3165,"response":{"heads":"8","tails":"2"},"type":"response","condition":"seqNoFeedback","trueTheta":0.8,"classrooms":["C","D"],"studentTrueClassroom":"C","exampleSet":"first","trial_type":"survey-html-form","trial_index":119,"time_elapsed":404296,"internal_node_id":"0.0-115.0-0.0","params":{"nStudents":24,"maxFlips":30,"completionMinutes":45,"basePay":8,"maxBonus":9,"perTrialBonus":0.5,"perTrialBonusThreshold":0.05,"exampleCost":0.01},"classroomParams":{"A":{"a":1,"b":4},"B":{"a":4,"b":1},"C":{"a":2,"b":8},"D":{"a":8,"b":2}},"conditions":["nonSeqFull","nonSeqPartial","seqNoFeedback","seqFeedback"],"classroomPairings":[["A","B"],["C","D"]],"coinWeights":[0.2,0.5,0.8],"subjectId":"A11LNK1U3DT08V","assignmentId":"3Z4GS9HPNWW3EDHF4DA0JM9K4UH771","hitId":"3SD15I2WD2G0NA4TSPXGB81L5S7630","url":"https://gershmanlab.com/experiments/alicia/teaching/experiment/?hitId=3SD15I2WD2G0NA4TSPXGB81L5S7630&workerId=A11LNK1U3DT08V&assignmentId=3Z4GS9HPNWW3EDHF4DA0JM9K4UH771&a=PS4Z9&tp_a=PS4Z9&b=3Z4GS9HPNWW3EDHF4DA0JM9K4UH771&tp_b=3Z4GS9HPNWW3EDHF4DA0JM9K4UH771&c=365799&tp_c=365799","heads":8,"tails":2,"studentIndex":14,"studentTrueHypers":{"a":2,"b":8},"studentGuess":0.5,"delta":0.30000000000000004,"totalExamples":10,"bonusSoFar":1.45},{"rt":4613,"response":{"heads":"8","tails":"2"},"type":"response","condition":"seqNoFeedback","trueTheta":0.8,"classrooms":["C","D"],"studentTrueClassroom":"C","exampleSet":"second","trial_type":"survey-html-form","trial_index":122,"time_elapsed":416916,"internal_node_id":"0.0-118.0-0.0","params":{"nStudents":24,"maxFlips":30,"completionMinutes":45,"basePay":8,"maxBonus":9,"perTrialBonus":0.5,"perTrialBonusThreshold":0.05,"exampleCost":0.01},"classroomParams":{"A":{"a":1,"b":4},"B":{"a":4,"b":1},"C":{"a":2,"b":8},"D":{"a":8,"b":2}},"conditions":["nonSeqFull","nonSeqPartial","seqNoFeedback","seqFeedback"],"classroomPairings":[["A","B"],["C","D"]],"coinWeights":[0.2,0.5,0.8],"subjectId":"A11LNK1U3DT08V","assignmentId":"3Z4GS9HPNWW3EDHF4DA0JM9K4UH771","hitId":"3SD15I2WD2G0NA4TSPXGB81L5S7630","url":"https://gershmanlab.com/experiments/alicia/teaching/experiment/?hitId=3SD15I2WD2G0NA4TSPXGB81L5S7630&workerId=A11LNK1U3DT08V&assignmentId=3Z4GS9HPNWW3EDHF4DA0JM9K4UH771&a=PS4Z9&tp_a=PS4Z9&b=3Z4GS9HPNWW3EDHF4DA0JM9K4UH771&tp_b=3Z4GS9HPNWW3EDHF4DA0JM9K4UH771&c=365799&tp_c=365799","firstResponseHeads":8,"firstResponseTails":2,"secondResponseHeads":8,"secondResponseTails":2,"totalHeads":16,"totalTails":4,"studentIndex":14,"studentTrueHypers":{"a":2,"b":8},"studentGuess":0.6,"delta":0.20000000000000007,"bonus":0,"bonusSoFar":1.45,"totalExamples":20},{"rt":4133,"response":{"heads":"8","tails":"2"},"type":"response","condition":"nonSeqPartial","trueTheta":0.8,"classrooms":["C","D"],"studentTrueClassroom":"C","exampleSet":"first","trial_type":"survey-html-form","trial_index":128,"time_elapsed":431017,"internal_node_id":"0.0-124.0-0.0","params":{"nStudents":24,"maxFlips":30,"completionMinutes":45,"basePay":8,"maxBonus":9,"perTrialBonus":0.5,"perTrialBonusThreshold":0.05,"exampleCost":0.01},"classroomParams":{"A":{"a":1,"b":4},"B":{"a":4,"b":1},"C":{"a":2,"b":8},"D":{"a":8,"b":2}},"conditions":["nonSeqFull","nonSeqPartial","seqNoFeedback","seqFeedback"],"classroomPairings":[["A","B"],["C","D"]],"coinWeights":[0.2,0.5,0.8],"subjectId":"A11LNK1U3DT08V","assignmentId":"3Z4GS9HPNWW3EDHF4DA0JM9K4UH771","hitId":"3SD15I2WD2G0NA4TSPXGB81L5S7630","url":"https://gershmanlab.com/experiments/alicia/teaching/experiment/?hitId=3SD15I2WD2G0NA4TSPXGB81L5S7630&workerId=A11LNK1U3DT08V&assignmentId=3Z4GS9HPNWW3EDHF4DA0JM9K4UH771&a=PS4Z9&tp_a=PS4Z9&b=3Z4GS9HPNWW3EDHF4DA0JM9K4UH771&tp_b=3Z4GS9HPNWW3EDHF4DA0JM9K4UH771&c=365799&tp_c=365799","heads":8,"tails":2,"studentIndex":15,"studentTrueHypers":{"a":2,"b":8},"studentGuess":0.5,"delta":0.30000000000000004,"totalExamples":10,"bonus":0,"bonusSoFar":1.45},{"rt":10851,"response":{"heads":"4","tails":"1"},"type":"response","condition":"nonSeqFull","trueTheta":0.8,"classrooms":["A","B"],"studentTrueClassroom":"A","exampleSet":"first","trial_type":"survey-html-form","trial_index":134,"time_elapsed":452719,"internal_node_id":"0.0-130.0-0.0","params":{"nStudents":24,"maxFlips":30,"completionMinutes":45,"basePay":8,"maxBonus":9,"perTrialBonus":0.5,"perTrialBonusThreshold":0.05,"exampleCost":0.01},"classroomParams":{"A":{"a":1,"b":4},"B":{"a":4,"b":1},"C":{"a":2,"b":8},"D":{"a":8,"b":2}},"conditions":["nonSeqFull","nonSeqPartial","seqNoFeedback","seqFeedback"],"classroomPairings":[["A","B"],["C","D"]],"coinWeights":[0.2,0.5,0.8],"subjectId":"A11LNK1U3DT08V","assignmentId":"3Z4GS9HPNWW3EDHF4DA0JM9K4UH771","hitId":"3SD15I2WD2G0NA4TSPXGB81L5S7630","url":"https://gershmanlab.com/experiments/alicia/teaching/experiment/?hitId=3SD15I2WD2G0NA4TSPXGB81L5S7630&workerId=A11LNK1U3DT08V&assignmentId=3Z4GS9HPNWW3EDHF4DA0JM9K4UH771&a=PS4Z9&tp_a=PS4Z9&b=3Z4GS9HPNWW3EDHF4DA0JM9K4UH771&tp_b=3Z4GS9HPNWW3EDHF4DA0JM9K4UH771&c=365799&tp_c=365799","heads":4,"tails":1,"studentIndex":16,"studentTrueHypers":{"a":1,"b":4},"studentGuess":0.5,"delta":0.30000000000000004,"totalExamples":5,"bonus":0,"bonusSoFar":1.45},{"rt":2963,"response":{"heads":"4","tails":"1"},"type":"response","condition":"seqNoFeedback","trueTheta":0.8,"classrooms":["A","B"],"studentTrueClassroom":"A","exampleSet":"first","trial_type":"survey-html-form","trial_index":140,"time_elapsed":465769,"internal_node_id":"0.0-136.0-0.0","params":{"nStudents":24,"maxFlips":30,"completionMinutes":45,"basePay":8,"maxBonus":9,"perTrialBonus":0.5,"perTrialBonusThreshold":0.05,"exampleCost":0.01},"classroomParams":{"A":{"a":1,"b":4},"B":{"a":4,"b":1},"C":{"a":2,"b":8},"D":{"a":8,"b":2}},"conditions":["nonSeqFull","nonSeqPartial","seqNoFeedback","seqFeedback"],"classroomPairings":[["A","B"],["C","D"]],"coinWeights":[0.2,0.5,0.8],"subjectId":"A11LNK1U3DT08V","assignmentId":"3Z4GS9HPNWW3EDHF4DA0JM9K4UH771","hitId":"3SD15I2WD2G0NA4TSPXGB81L5S7630","url":"https://gershmanlab.com/experiments/alicia/teaching/experiment/?hitId=3SD15I2WD2G0NA4TSPXGB81L5S7630&workerId=A11LNK1U3DT08V&assignmentId=3Z4GS9HPNWW3EDHF4DA0JM9K4UH771&a=PS4Z9&tp_a=PS4Z9&b=3Z4GS9HPNWW3EDHF4DA0JM9K4UH771&tp_b=3Z4GS9HPNWW3EDHF4DA0JM9K4UH771&c=365799&tp_c=365799","heads":4,"tails":1,"studentIndex":17,"studentTrueHypers":{"a":1,"b":4},"studentGuess":0.5,"delta":0.30000000000000004,"totalExamples":5,"bonusSoFar":1.45},{"rt":4289,"response":{"heads":"4","tails":"1"},"type":"response","condition":"seqNoFeedback","trueTheta":0.8,"classrooms":["A","B"],"studentTrueClassroom":"A","exampleSet":"second","trial_type":"survey-html-form","trial_index":143,"time_elapsed":476821,"internal_node_id":"0.0-139.0-0.0","params":{"nStudents":24,"maxFlips":30,"completionMinutes":45,"basePay":8,"maxBonus":9,"perTrialBonus":0.5,"perTrialBonusThreshold":0.05,"exampleCost":0.01},"classroomParams":{"A":{"a":1,"b":4},"B":{"a":4,"b":1},"C":{"a":2,"b":8},"D":{"a":8,"b":2}},"conditions":["nonSeqFull","nonSeqPartial","seqNoFeedback","seqFeedback"],"classroomPairings":[["A","B"],["C","D"]],"coinWeights":[0.2,0.5,0.8],"subjectId":"A11LNK1U3DT08V","assignmentId":"3Z4GS9HPNWW3EDHF4DA0JM9K4UH771","hitId":"3SD15I2WD2G0NA4TSPXGB81L5S7630","url":"https://gershmanlab.com/experiments/alicia/teaching/experiment/?hitId=3SD15I2WD2G0NA4TSPXGB81L5S7630&workerId=A11LNK1U3DT08V&assignmentId=3Z4GS9HPNWW3EDHF4DA0JM9K4UH771&a=PS4Z9&tp_a=PS4Z9&b=3Z4GS9HPNWW3EDHF4DA0JM9K4UH771&tp_b=3Z4GS9HPNWW3EDHF4DA0JM9K4UH771&c=365799&tp_c=365799","firstResponseHeads":4,"firstResponseTails":1,"secondResponseHeads":4,"secondResponseTails":1,"totalHeads":8,"totalTails":2,"studentIndex":17,"studentTrueHypers":{"a":1,"b":4},"studentGuess":0.6,"delta":0.20000000000000007,"bonus":0,"bonusSoFar":1.45,"totalExamples":10},{"rt":3469,"response":{"heads":"5","tails":"5"},"type":"response","condition":"seqNoFeedback","trueTheta":0.5,"classrooms":["C","D"],"studentTrueClassroom":"C","exampleSet":"first","trial_type":"survey-html-form","trial_index":149,"time_elapsed":491178,"internal_node_id":"0.0-145.0-0.0","params":{"nStudents":24,"maxFlips":30,"completionMinutes":45,"basePay":8,"maxBonus":9,"perTrialBonus":0.5,"perTrialBonusThreshold":0.05,"exampleCost":0.01},"classroomParams":{"A":{"a":1,"b":4},"B":{"a":4,"b":1},"C":{"a":2,"b":8},"D":{"a":8,"b":2}},"conditions":["nonSeqFull","nonSeqPartial","seqNoFeedback","seqFeedback"],"classroomPairings":[["A","B"],["C","D"]],"coinWeights":[0.2,0.5,0.8],"subjectId":"A11LNK1U3DT08V","assignmentId":"3Z4GS9HPNWW3EDHF4DA0JM9K4UH771","hitId":"3SD15I2WD2G0NA4TSPXGB81L5S7630","url":"https://gershmanlab.com/experiments/alicia/teaching/experiment/?hitId=3SD15I2WD2G0NA4TSPXGB81L5S7630&workerId=A11LNK1U3DT08V&assignmentId=3Z4GS9HPNWW3EDHF4DA0JM9K4UH771&a=PS4Z9&tp_a=PS4Z9&b=3Z4GS9HPNWW3EDHF4DA0JM9K4UH771&tp_b=3Z4GS9HPNWW3EDHF4DA0JM9K4UH771&c=365799&tp_c=365799","heads":5,"tails":5,"studentIndex":18,"studentTrueHypers":{"a":2,"b":8},"studentGuess":0.35,"delta":0.15000000000000002,"totalExamples":10,"bonusSoFar":1.45},{"rt":2405,"response":{"heads":"5","tails":"5"},"type":"response","condition":"seqNoFeedback","trueTheta":0.5,"classrooms":["C","D"],"studentTrueClassroom":"C","exampleSet":"second","trial_type":"survey-html-form","trial_index":152,"time_elapsed":499591,"internal_node_id":"0.0-148.0-0.0","params":{"nStudents":24,"maxFlips":30,"completionMinutes":45,"basePay":8,"maxBonus":9,"perTrialBonus":0.5,"perTrialBonusThreshold":0.05,"exampleCost":0.01},"classroomParams":{"A":{"a":1,"b":4},"B":{"a":4,"b":1},"C":{"a":2,"b":8},"D":{"a":8,"b":2}},"conditions":["nonSeqFull","nonSeqPartial","seqNoFeedback","seqFeedback"],"classroomPairings":[["A","B"],["C","D"]],"coinWeights":[0.2,0.5,0.8],"subjectId":"A11LNK1U3DT08V","assignmentId":"3Z4GS9HPNWW3EDHF4DA0JM9K4UH771","hitId":"3SD15I2WD2G0NA4TSPXGB81L5S7630","url":"https://gershmanlab.com/experiments/alicia/teaching/experiment/?hitId=3SD15I2WD2G0NA4TSPXGB81L5S7630&workerId=A11LNK1U3DT08V&assignmentId=3Z4GS9HPNWW3EDHF4DA0JM9K4UH771&a=PS4Z9&tp_a=PS4Z9&b=3Z4GS9HPNWW3EDHF4DA0JM9K4UH771&tp_b=3Z4GS9HPNWW3EDHF4DA0JM9K4UH771&c=365799&tp_c=365799","firstResponseHeads":5,"firstResponseTails":5,"secondResponseHeads":5,"secondResponseTails":5,"totalHeads":10,"totalTails":10,"studentIndex":18,"studentTrueHypers":{"a":2,"b":8},"studentGuess":0.4,"delta":0.09999999999999998,"bonus":0,"bonusSoFar":1.45,"totalExamples":20},{"rt":4097,"response":{"heads":"2","tails":"8"},"type":"response","condition":"seqFeedback","trueTheta":0.2,"classrooms":["C","D"],"studentTrueClassroom":"C","exampleSet":"first","trial_type":"survey-html-form","trial_index":158,"time_elapsed":514258,"internal_node_id":"0.0-154.0-0.0","params":{"nStudents":24,"maxFlips":30,"completionMinutes":45,"basePay":8,"maxBonus":9,"perTrialBonus":0.5,"perTrialBonusThreshold":0.05,"exampleCost":0.01},"classroomParams":{"A":{"a":1,"b":4},"B":{"a":4,"b":1},"C":{"a":2,"b":8},"D":{"a":8,"b":2}},"conditions":["nonSeqFull","nonSeqPartial","seqNoFeedback","seqFeedback"],"classroomPairings":[["A","B"],["C","D"]],"coinWeights":[0.2,0.5,0.8],"subjectId":"A11LNK1U3DT08V","assignmentId":"3Z4GS9HPNWW3EDHF4DA0JM9K4UH771","hitId":"3SD15I2WD2G0NA4TSPXGB81L5S7630","url":"https://gershmanlab.com/experiments/alicia/teaching/experiment/?hitId=3SD15I2WD2G0NA4TSPXGB81L5S7630&workerId=A11LNK1U3DT08V&assignmentId=3Z4GS9HPNWW3EDHF4DA0JM9K4UH771&a=PS4Z9&tp_a=PS4Z9&b=3Z4GS9HPNWW3EDHF4DA0JM9K4UH771&tp_b=3Z4GS9HPNWW3EDHF4DA0JM9K4UH771&c=365799&tp_c=365799","heads":2,"tails":8,"studentIndex":19,"studentTrueHypers":{"a":2,"b":8},"studentGuess":0.2,"delta":0,"totalExamples":10,"bonusSoFar":1.45},{"rt":8684,"response":{"heads":"1","tails":"4"},"type":"response","condition":"seqFeedback","trueTheta":0.2,"classrooms":["C","D"],"studentTrueClassroom":"C","exampleSet":"second","trial_type":"survey-html-form","trial_index":162,"time_elapsed":531145,"internal_node_id":"0.0-158.0-0.0","params":{"nStudents":24,"maxFlips":30,"completionMinutes":45,"basePay":8,"maxBonus":9,"perTrialBonus":0.5,"perTrialBonusThreshold":0.05,"exampleCost":0.01},"classroomParams":{"A":{"a":1,"b":4},"B":{"a":4,"b":1},"C":{"a":2,"b":8},"D":{"a":8,"b":2}},"conditions":["nonSeqFull","nonSeqPartial","seqNoFeedback","seqFeedback"],"classroomPairings":[["A","B"],["C","D"]],"coinWeights":[0.2,0.5,0.8],"subjectId":"A11LNK1U3DT08V","assignmentId":"3Z4GS9HPNWW3EDHF4DA0JM9K4UH771","hitId":"3SD15I2WD2G0NA4TSPXGB81L5S7630","url":"https://gershmanlab.com/experiments/alicia/teaching/experiment/?hitId=3SD15I2WD2G0NA4TSPXGB81L5S7630&workerId=A11LNK1U3DT08V&assignmentId=3Z4GS9HPNWW3EDHF4DA0JM9K4UH771&a=PS4Z9&tp_a=PS4Z9&b=3Z4GS9HPNWW3EDHF4DA0JM9K4UH771&tp_b=3Z4GS9HPNWW3EDHF4DA0JM9K4UH771&c=365799&tp_c=365799","firstResponseHeads":2,"firstResponseTails":8,"secondResponseHeads":1,"secondResponseTails":4,"totalHeads":3,"totalTails":12,"studentIndex":19,"studentTrueHypers":{"a":2,"b":8},"studentGuess":0.2,"delta":0,"bonus":0.35,"bonusSoFar":1.8,"totalExamples":15},{"rt":2864,"response":{"heads":"5","tails":"5"},"type":"response","condition":"nonSeqFull","trueTheta":0.5,"classrooms":["A","B"],"studentTrueClassroom":"B","exampleSet":"first","trial_type":"survey-html-form","trial_index":168,"time_elapsed":546046,"internal_node_id":"0.0-164.0-0.0","params":{"nStudents":24,"maxFlips":30,"completionMinutes":45,"basePay":8,"maxBonus":9,"perTrialBonus":0.5,"perTrialBonusThreshold":0.05,"exampleCost":0.01},"classroomParams":{"A":{"a":1,"b":4},"B":{"a":4,"b":1},"C":{"a":2,"b":8},"D":{"a":8,"b":2}},"conditions":["nonSeqFull","nonSeqPartial","seqNoFeedback","seqFeedback"],"classroomPairings":[["A","B"],["C","D"]],"coinWeights":[0.2,0.5,0.8],"subjectId":"A11LNK1U3DT08V","assignmentId":"3Z4GS9HPNWW3EDHF4DA0JM9K4UH771","hitId":"3SD15I2WD2G0NA4TSPXGB81L5S7630","url":"https://gershmanlab.com/experiments/alicia/teaching/experiment/?hitId=3SD15I2WD2G0NA4TSPXGB81L5S7630&workerId=A11LNK1U3DT08V&assignmentId=3Z4GS9HPNWW3EDHF4DA0JM9K4UH771&a=PS4Z9&tp_a=PS4Z9&b=3Z4GS9HPNWW3EDHF4DA0JM9K4UH771&tp_b=3Z4GS9HPNWW3EDHF4DA0JM9K4UH771&c=365799&tp_c=365799","heads":5,"tails":5,"studentIndex":20,"studentTrueHypers":{"a":4,"b":1},"studentGuess":0.6,"delta":0.09999999999999998,"totalExamples":10,"bonus":0,"bonusSoFar":1.8},{"rt":3516,"response":{"heads":"2","tails":"8"},"type":"response","condition":"nonSeqPartial","trueTheta":0.2,"classrooms":["C","D"],"studentTrueClassroom":"D","exampleSet":"first","trial_type":"survey-html-form","trial_index":174,"time_elapsed":559031,"internal_node_id":"0.0-170.0-0.0","params":{"nStudents":24,"maxFlips":30,"completionMinutes":45,"basePay":8,"maxBonus":9,"perTrialBonus":0.5,"perTrialBonusThreshold":0.05,"exampleCost":0.01},"classroomParams":{"A":{"a":1,"b":4},"B":{"a":4,"b":1},"C":{"a":2,"b":8},"D":{"a":8,"b":2}},"conditions":["nonSeqFull","nonSeqPartial","seqNoFeedback","seqFeedback"],"classroomPairings":[["A","B"],["C","D"]],"coinWeights":[0.2,0.5,0.8],"subjectId":"A11LNK1U3DT08V","assignmentId":"3Z4GS9HPNWW3EDHF4DA0JM9K4UH771","hitId":"3SD15I2WD2G0NA4TSPXGB81L5S7630","url":"https://gershmanlab.com/experiments/alicia/teaching/experiment/?hitId=3SD15I2WD2G0NA4TSPXGB81L5S7630&workerId=A11LNK1U3DT08V&assignmentId=3Z4GS9HPNWW3EDHF4DA0JM9K4UH771&a=PS4Z9&tp_a=PS4Z9&b=3Z4GS9HPNWW3EDHF4DA0JM9K4UH771&tp_b=3Z4GS9HPNWW3EDHF4DA0JM9K4UH771&c=365799&tp_c=365799","heads":2,"tails":8,"studentIndex":21,"studentTrueHypers":{"a":8,"b":2},"studentGuess":0.5,"delta":0.3,"totalExamples":10,"bonus":0,"bonusSoFar":1.8},{"rt":2500,"response":{"heads":"5","tails":"5"},"type":"response","condition":"nonSeqPartial","trueTheta":0.5,"classrooms":["C","D"],"studentTrueClassroom":"C","exampleSet":"first","trial_type":"survey-html-form","trial_index":180,"time_elapsed":574499,"internal_node_id":"0.0-176.0-0.0","params":{"nStudents":24,"maxFlips":30,"completionMinutes":45,"basePay":8,"maxBonus":9,"perTrialBonus":0.5,"perTrialBonusThreshold":0.05,"exampleCost":0.01},"classroomParams":{"A":{"a":1,"b":4},"B":{"a":4,"b":1},"C":{"a":2,"b":8},"D":{"a":8,"b":2}},"conditions":["nonSeqFull","nonSeqPartial","seqNoFeedback","seqFeedback"],"classroomPairings":[["A","B"],["C","D"]],"coinWeights":[0.2,0.5,0.8],"subjectId":"A11LNK1U3DT08V","assignmentId":"3Z4GS9HPNWW3EDHF4DA0JM9K4UH771","hitId":"3SD15I2WD2G0NA4TSPXGB81L5S7630","url":"https://gershmanlab.com/experiments/alicia/teaching/experiment/?hitId=3SD15I2WD2G0NA4TSPXGB81L5S7630&workerId=A11LNK1U3DT08V&assignmentId=3Z4GS9HPNWW3EDHF4DA0JM9K4UH771&a=PS4Z9&tp_a=PS4Z9&b=3Z4GS9HPNWW3EDHF4DA0JM9K4UH771&tp_b=3Z4GS9HPNWW3EDHF4DA0JM9K4UH771&c=365799&tp_c=365799","heads":5,"tails":5,"studentIndex":22,"studentTrueHypers":{"a":2,"b":8},"studentGuess":0.35,"delta":0.15000000000000002,"totalExamples":10,"bonus":0,"bonusSoFar":1.8},{"rt":4050,"response":{"heads":"1","tails":"4"},"type":"response","condition":"seqFeedback","trueTheta":0.2,"classrooms":["A","B"],"studentTrueClassroom":"B","exampleSet":"first","trial_type":"survey-html-form","trial_index":186,"time_elapsed":591551,"internal_node_id":"0.0-182.0-0.0","params":{"nStudents":24,"maxFlips":30,"completionMinutes":45,"basePay":8,"maxBonus":9,"perTrialBonus":0.5,"perTrialBonusThreshold":0.05,"exampleCost":0.01},"classroomParams":{"A":{"a":1,"b":4},"B":{"a":4,"b":1},"C":{"a":2,"b":8},"D":{"a":8,"b":2}},"conditions":["nonSeqFull","nonSeqPartial","seqNoFeedback","seqFeedback"],"classroomPairings":[["A","B"],["C","D"]],"coinWeights":[0.2,0.5,0.8],"subjectId":"A11LNK1U3DT08V","assignmentId":"3Z4GS9HPNWW3EDHF4DA0JM9K4UH771","hitId":"3SD15I2WD2G0NA4TSPXGB81L5S7630","url":"https://gershmanlab.com/experiments/alicia/teaching/experiment/?hitId=3SD15I2WD2G0NA4TSPXGB81L5S7630&workerId=A11LNK1U3DT08V&assignmentId=3Z4GS9HPNWW3EDHF4DA0JM9K4UH771&a=PS4Z9&tp_a=PS4Z9&b=3Z4GS9HPNWW3EDHF4DA0JM9K4UH771&tp_b=3Z4GS9HPNWW3EDHF4DA0JM9K4UH771&c=365799&tp_c=365799","heads":1,"tails":4,"studentIndex":23,"studentTrueHypers":{"a":4,"b":1},"studentGuess":0.5,"delta":0.3,"totalExamples":5,"bonusSoFar":1.8},{"rt":5503,"response":{"heads":"2","tails":"8"},"type":"response","condition":"seqFeedback","trueTheta":0.2,"classrooms":["A","B"],"studentTrueClassroom":"B","exampleSet":"second","trial_type":"survey-html-form","trial_index":190,"time_elapsed":604019,"internal_node_id":"0.0-186.0-0.0","params":{"nStudents":24,"maxFlips":30,"completionMinutes":45,"basePay":8,"maxBonus":9,"perTrialBonus":0.5,"perTrialBonusThreshold":0.05,"exampleCost":0.01},"classroomParams":{"A":{"a":1,"b":4},"B":{"a":4,"b":1},"C":{"a":2,"b":8},"D":{"a":8,"b":2}},"conditions":["nonSeqFull","nonSeqPartial","seqNoFeedback","seqFeedback"],"classroomPairings":[["A","B"],["C","D"]],"coinWeights":[0.2,0.5,0.8],"subjectId":"A11LNK1U3DT08V","assignmentId":"3Z4GS9HPNWW3EDHF4DA0JM9K4UH771","hitId":"3SD15I2WD2G0NA4TSPXGB81L5S7630","url":"https://gershmanlab.com/experiments/alicia/teaching/experiment/?hitId=3SD15I2WD2G0NA4TSPXGB81L5S7630&workerId=A11LNK1U3DT08V&assignmentId=3Z4GS9HPNWW3EDHF4DA0JM9K4UH771&a=PS4Z9&tp_a=PS4Z9&b=3Z4GS9HPNWW3EDHF4DA0JM9K4UH771&tp_b=3Z4GS9HPNWW3EDHF4DA0JM9K4UH771&c=365799&tp_c=365799","firstResponseHeads":1,"firstResponseTails":4,"secondResponseHeads":2,"secondResponseTails":8,"totalHeads":3,"totalTails":12,"studentIndex":23,"studentTrueHypers":{"a":4,"b":1},"studentGuess":0.35,"delta":0.14999999999999997,"bonus":0,"bonusSoFar":1.8,"totalExamples":15},{"rt":56330,"response":{"gender":"male","age":"25","understood":"yes","comments":"A11LNK1U3DT08V is my worker ID - just to make sure you have it if you need it"},"type":"response","trial_type":"survey-html-form","trial_index":194,"time_elapsed":670179,"internal_node_id":"0.0-191.0","params":{"nStudents":24,"maxFlips":30,"completionMinutes":45,"basePay":8,"maxBonus":9,"perTrialBonus":0.5,"perTrialBonusThreshold":0.05,"exampleCost":0.01},"classroomParams":{"A":{"a":1,"b":4},"B":{"a":4,"b":1},"C":{"a":2,"b":8},"D":{"a":8,"b":2}},"conditions":["nonSeqFull","nonSeqPartial","seqNoFeedback","seqFeedback"],"classroomPairings":[["A","B"],["C","D"]],"coinWeights":[0.2,0.5,0.8],"subjectId":"A11LNK1U3DT08V","assignmentId":"3Z4GS9HPNWW3EDHF4DA0JM9K4UH771","hitId":"3SD15I2WD2G0NA4TSPXGB81L5S7630","url":"https://gershmanlab.com/experiments/alicia/teaching/experiment/?hitId=3SD15I2WD2G0NA4TSPXGB81L5S7630&workerId=A11LNK1U3DT08V&assignmentId=3Z4GS9HPNWW3EDHF4DA0JM9K4UH771&a=PS4Z9&tp_a=PS4Z9&b=3Z4GS9HPNWW3EDHF4DA0JM9K4UH771&tp_b=3Z4GS9HPNWW3EDHF4DA0JM9K4UH771&c=365799&tp_c=365799","totalBonus":1.8}]