[{"rt":13654,"response":{"heads":"1","tails":"4"},"type":"response","condition":"nonSeqFull","trueTheta":0.8,"classrooms":["A","B"],"studentTrueClassroom":"A","exampleSet":"first","trial_type":"survey-html-form","trial_index":10,"time_elapsed":722906,"internal_node_id":"0.0-6.0-0.0","params":{"nStudents":24,"maxFlips":30,"completionMinutes":45,"basePay":8,"maxBonus":9,"perTrialBonus":0.5,"perTrialBonusThreshold":0.05,"exampleCost":0.01},"classroomParams":{"A":{"a":1,"b":4},"B":{"a":4,"b":1},"C":{"a":2,"b":8},"D":{"a":8,"b":2}},"conditions":["nonSeqFull","nonSeqPartial","seqNoFeedback","seqFeedback"],"classroomPairings":[["A","B"],["C","D"]],"coinWeights":[0.2,0.5,0.8],"subjectId":"A11YS0T8MV3Q7C","assignmentId":"3C8HJ7UOP8G5JQU8RE48TOZ99COZMV","hitId":"3NI0WFPPI9246I5W92FX9A3E2GN605","url":"https://gershmanlab.com/experiments/alicia/teaching/experiment/?hitId=3NI0WFPPI9246I5W92FX9A3E2GN605&workerId=A11YS0T8MV3Q7C&assignmentId=3C8HJ7UOP8G5JQU8RE48TOZ99COZMV&a=OJ8C9&tp_a=OJ8C9&b=3C8HJ7UOP8G5JQU8RE48TOZ99COZMV&tp_b=3C8HJ7UOP8G5JQU8RE48TOZ99COZMV&c=365799&tp_c=365799","heads":1,"tails":4,"studentIndex":0,"studentTrueHypers":{"a":1,"b":4},"studentGuess":0.2,"delta":0.6000000000000001,"totalExamples":5,"bonus":0,"bonusSoFar":0},{"rt":6673,"response":{"heads":"6","tails":"2"},"type":"response","condition":"nonSeqFull","trueTheta":0.8,"classrooms":["C","D"],"studentTrueClassroom":"C","exampleSet":"first","trial_type":"survey-html-form","trial_index":16,"time_elapsed":748147,"internal_node_id":"0.0-12.0-0.0","params":{"nStudents":24,"maxFlips":30,"completionMinutes":45,"basePay":8,"maxBonus":9,"perTrialBonus":0.5,"perTrialBonusThreshold":0.05,"exampleCost":0.01},"classroomParams":{"A":{"a":1,"b":4},"B":{"a":4,"b":1},"C":{"a":2,"b":8},"D":{"a":8,"b":2}},"conditions":["nonSeqFull","nonSeqPartial","seqNoFeedback","seqFeedback"],"classroomPairings":[["A","B"],["C","D"]],"coinWeights":[0.2,0.5,0.8],"subjectId":"A11YS0T8MV3Q7C","assignmentId":"3C8HJ7UOP8G5JQU8RE48TOZ99COZMV","hitId":"3NI0WFPPI9246I5W92FX9A3E2GN605","url":"https://gershmanlab.com/experiments/alicia/teaching/experiment/?hitId=3NI0WFPPI9246I5W92FX9A3E2GN605&workerId=A11YS0T8MV3Q7C&assignmentId=3C8HJ7UOP8G5JQU8RE48TOZ99COZMV&a=OJ8C9&tp_a=OJ8C9&b=3C8HJ7UOP8G5JQU8RE48TOZ99COZMV&tp_b=3C8HJ7UOP8G5JQU8RE48TOZ99COZMV&c=365799&tp_c=365799","heads":6,"tails":2,"studentIndex":1,"studentTrueHypers":{"a":2,"b":8},"studentGuess":0.4444444444444444,"delta":0.3555555555555556,"totalExamples":8,"bonus":0,"bonusSoFar":0},{"rt":6485,"response":{"heads":"6","tails":"1"},"type":"response","condition":"seqFeedback","trueTheta":0.8,"classrooms":["A","B"],"studentTrueClassroom":"B","exampleSet":"first","trial_type":"survey-html-form","trial_index":22,"time_elapsed":768806,"internal_node_id":"0.0-18.0-0.0","params":{"nStudents":24,"maxFlips":30,"completionMinutes":45,"basePay":8,"maxBonus":9,"perTrialBonus":0.5,"perTrialBonusThreshold":0.05,"exampleCost":0.01},"classroomParams":{"A":{"a":1,"b":4},"B":{"a":4,"b":1},"C":{"a":2,"b":8},"D":{"a":8,"b":2}},"conditions":["nonSeqFull","nonSeqPartial","seqNoFeedback","seqFeedback"],"classroomPairings":[["A","B"],["C","D"]],"coinWeights":[0.2,0.5,0.8],"subjectId":"A11YS0T8MV3Q7C","assignmentId":"3C8HJ7UOP8G5JQU8RE48TOZ99COZMV","hitId":"3NI0WFPPI9246I5W92FX9A3E2GN605","url":"https://gershmanlab.com/experiments/alicia/teaching/experiment/?hitId=3NI0WFPPI9246I5W92FX9A3E2GN605&workerId=A11YS0T8MV3Q7C&assignmentId=3C8HJ7UOP8G5JQU8RE48TOZ99COZMV&a=OJ8C9&tp_a=OJ8C9&b=3C8HJ7UOP8G5JQU8RE48TOZ99COZMV&tp_b=3C8HJ7UOP8G5JQU8RE48TOZ99COZMV&c=365799&tp_c=365799","heads":6,"tails":1,"studentIndex":2,"studentTrueHypers":{"a":4,"b":1},"studentGuess":0.8333333333333334,"delta":0.033333333333333326,"totalExamples":7,"bonusSoFar":0},{"rt":4282,"response":{"heads":"6","tails":"1"},"type":"response","condition":"seqFeedback","trueTheta":0.8,"classrooms":["A","B"],"studentTrueClassroom":"B","exampleSet":"second","trial_type":"survey-html-form","trial_index":26,"time_elapsed":783705,"internal_node_id":"0.0-22.0-0.0","params":{"nStudents":24,"maxFlips":30,"completionMinutes":45,"basePay":8,"maxBonus":9,"perTrialBonus":0.5,"perTrialBonusThreshold":0.05,"exampleCost":0.01},"classroomParams":{"A":{"a":1,"b":4},"B":{"a":4,"b":1},"C":{"a":2,"b":8},"D":{"a":8,"b":2}},"conditions":["nonSeqFull","nonSeqPartial","seqNoFeedback","seqFeedback"],"classroomPairings":[["A","B"],["C","D"]],"coinWeights":[0.2,0.5,0.8],"subjectId":"A11YS0T8MV3Q7C","assignmentId":"3C8HJ7UOP8G5JQU8RE48TOZ99COZMV","hitId":"3NI0WFPPI9246I5W92FX9A3E2GN605","url":"https://gershmanlab.com/experiments/alicia/teaching/experiment/?hitId=3NI0WFPPI9246I5W92FX9A3E2GN605&workerId=A11YS0T8MV3Q7C&assignmentId=3C8HJ7UOP8G5JQU8RE48TOZ99COZMV&a=OJ8C9&tp_a=OJ8C9&b=3C8HJ7UOP8G5JQU8RE48TOZ99COZMV&tp_b=3C8HJ7UOP8G5JQU8RE48TOZ99COZMV&c=365799&tp_c=365799","firstResponseHeads":6,"firstResponseTails":1,"secondResponseHeads":6,"secondResponseTails":1,"totalHeads":12,"totalTails":2,"studentIndex":2,"studentTrueHypers":{"a":4,"b":1},"studentGuess":0.8421052631578947,"delta":0.042105263157894646,"bonus":0.36,"bonusSoFar":0.36,"totalExamples":14},{"rt":5394,"response":{"heads":"2","tails":"6"},"type":"response","condition":"nonSeqFull","trueTheta":0.2,"classrooms":["C","D"],"studentTrueClassroom":"C","exampleSet":"first","trial_type":"survey-html-form","trial_index":32,"time_elapsed":805130,"internal_node_id":"0.0-28.0-0.0","params":{"nStudents":24,"maxFlips":30,"completionMinutes":45,"basePay":8,"maxBonus":9,"perTrialBonus":0.5,"perTrialBonusThreshold":0.05,"exampleCost":0.01},"classroomParams":{"A":{"a":1,"b":4},"B":{"a":4,"b":1},"C":{"a":2,"b":8},"D":{"a":8,"b":2}},"conditions":["nonSeqFull","nonSeqPartial","seqNoFeedback","seqFeedback"],"classroomPairings":[["A","B"],["C","D"]],"coinWeights":[0.2,0.5,0.8],"subjectId":"A11YS0T8MV3Q7C","assignmentId":"3C8HJ7UOP8G5JQU8RE48TOZ99COZMV","hitId":"3NI0WFPPI9246I5W92FX9A3E2GN605","url":"https://gershmanlab.com/experiments/alicia/teaching/experiment/?hitId=3NI0WFPPI9246I5W92FX9A3E2GN605&workerId=A11YS0T8MV3Q7C&assignmentId=3C8HJ7UOP8G5JQU8RE48TOZ99COZMV&a=OJ8C9&tp_a=OJ8C9&b=3C8HJ7UOP8G5JQU8RE48TOZ99COZMV&tp_b=3C8HJ7UOP8G5JQU8RE48TOZ99COZMV&c=365799&tp_c=365799","heads":2,"tails":6,"studentIndex":3,"studentTrueHypers":{"a":2,"b":8},"studentGuess":0.2222222222222222,"delta":0.0222222222222222,"totalExamples":8,"bonus":0.42,"bonusSoFar":0.78},{"rt":4864,"response":{"heads":"4","tails":"3"},"type":"response","condition":"nonSeqFull","trueTheta":0.5,"classrooms":["A","B"],"studentTrueClassroom":"B","exampleSet":"first","trial_type":"survey-html-form","trial_index":38,"time_elapsed":828020,"internal_node_id":"0.0-34.0-0.0","params":{"nStudents":24,"maxFlips":30,"completionMinutes":45,"basePay":8,"maxBonus":9,"perTrialBonus":0.5,"perTrialBonusThreshold":0.05,"exampleCost":0.01},"classroomParams":{"A":{"a":1,"b":4},"B":{"a":4,"b":1},"C":{"a":2,"b":8},"D":{"a":8,"b":2}},"conditions":["nonSeqFull","nonSeqPartial","seqNoFeedback","seqFeedback"],"classroomPairings":[["A","B"],["C","D"]],"coinWeights":[0.2,0.5,0.8],"subjectId":"A11YS0T8MV3Q7C","assignmentId":"3C8HJ7UOP8G5JQU8RE48TOZ99COZMV","hitId":"3NI0WFPPI9246I5W92FX9A3E2GN605","url":"https://gershmanlab.com/experiments/alicia/teaching/experiment/?hitId=3NI0WFPPI9246I5W92FX9A3E2GN605&workerId=A11YS0T8MV3Q7C&assignmentId=3C8HJ7UOP8G5JQU8RE48TOZ99COZMV&a=OJ8C9&tp_a=OJ8C9&b=3C8HJ7UOP8G5JQU8RE48TOZ99COZMV&tp_b=3C8HJ7UOP8G5JQU8RE48TOZ99COZMV&c=365799&tp_c=365799","heads":4,"tails":3,"studentIndex":4,"studentTrueHypers":{"a":4,"b":1},"studentGuess":0.6666666666666666,"delta":0.16666666666666663,"totalExamples":7,"bonus":0,"bonusSoFar":0.78},{"rt":3737,"response":{"heads":"3","tails":"4"},"type":"response","condition":"seqNoFeedback","trueTheta":0.5,"classrooms":["A","B"],"studentTrueClassroom":"B","exampleSet":"first","trial_type":"survey-html-form","trial_index":44,"time_elapsed":845755,"internal_node_id":"0.0-40.0-0.0","params":{"nStudents":24,"maxFlips":30,"completionMinutes":45,"basePay":8,"maxBonus":9,"perTrialBonus":0.5,"perTrialBonusThreshold":0.05,"exampleCost":0.01},"classroomParams":{"A":{"a":1,"b":4},"B":{"a":4,"b":1},"C":{"a":2,"b":8},"D":{"a":8,"b":2}},"conditions":["nonSeqFull","nonSeqPartial","seqNoFeedback","seqFeedback"],"classroomPairings":[["A","B"],["C","D"]],"coinWeights":[0.2,0.5,0.8],"subjectId":"A11YS0T8MV3Q7C","assignmentId":"3C8HJ7UOP8G5JQU8RE48TOZ99COZMV","hitId":"3NI0WFPPI9246I5W92FX9A3E2GN605","url":"https://gershmanlab.com/experiments/alicia/teaching/experiment/?hitId=3NI0WFPPI9246I5W92FX9A3E2GN605&workerId=A11YS0T8MV3Q7C&assignmentId=3C8HJ7UOP8G5JQU8RE48TOZ99COZMV&a=OJ8C9&tp_a=OJ8C9&b=3C8HJ7UOP8G5JQU8RE48TOZ99COZMV&tp_b=3C8HJ7UOP8G5JQU8RE48TOZ99COZMV&c=365799&tp_c=365799","heads":3,"tails":4,"studentIndex":5,"studentTrueHypers":{"a":4,"b":1},"studentGuess":0.5833333333333334,"delta":0.08333333333333337,"totalExamples":7,"bonusSoFar":0.78},{"rt":6183,"response":{"heads":"4","tails":"4"},"type":"response","condition":"seqNoFeedback","trueTheta":0.5,"classrooms":["A","B"],"studentTrueClassroom":"B","exampleSet":"second","trial_type":"survey-html-form","trial_index":47,"time_elapsed":857706,"internal_node_id":"0.0-43.0-0.0","params":{"nStudents":24,"maxFlips":30,"completionMinutes":45,"basePay":8,"maxBonus":9,"perTrialBonus":0.5,"perTrialBonusThreshold":0.05,"exampleCost":0.01},"classroomParams":{"A":{"a":1,"b":4},"B":{"a":4,"b":1},"C":{"a":2,"b":8},"D":{"a":8,"b":2}},"conditions":["nonSeqFull","nonSeqPartial","seqNoFeedback","seqFeedback"],"classroomPairings":[["A","B"],["C","D"]],"coinWeights":[0.2,0.5,0.8],"subjectId":"A11YS0T8MV3Q7C","assignmentId":"3C8HJ7UOP8G5JQU8RE48TOZ99COZMV","hitId":"3NI0WFPPI9246I5W92FX9A3E2GN605","url":"https://gershmanlab.com/experiments/alicia/teaching/experiment/?hitId=3NI0WFPPI9246I5W92FX9A3E2GN605&workerId=A11YS0T8MV3Q7C&assignmentId=3C8HJ7UOP8G5JQU8RE48TOZ99COZMV&a=OJ8C9&tp_a=OJ8C9&b=3C8HJ7UOP8G5JQU8RE48TOZ99COZMV&tp_b=3C8HJ7UOP8G5JQU8RE48TOZ99COZMV&c=365799&tp_c=365799","firstResponseHeads":3,"firstResponseTails":4,"secondResponseHeads":4,"secondResponseTails":4,"totalHeads":7,"totalTails":8,"studentIndex":5,"studentTrueHypers":{"a":4,"b":1},"studentGuess":0.55,"delta":0.050000000000000044,"bonus":0,"bonusSoFar":0.78,"totalExamples":15},{"rt":14743,"response":{"heads":"6","tails":"1"},"type":"response","condition":"nonSeqPartial","trueTheta":0.8,"classrooms":["C","D"],"studentTrueClassroom":"C","exampleSet":"first","trial_type":"survey-html-form","trial_index":53,"time_elapsed":887681,"internal_node_id":"0.0-49.0-0.0","params":{"nStudents":24,"maxFlips":30,"completionMinutes":45,"basePay":8,"maxBonus":9,"perTrialBonus":0.5,"perTrialBonusThreshold":0.05,"exampleCost":0.01},"classroomParams":{"A":{"a":1,"b":4},"B":{"a":4,"b":1},"C":{"a":2,"b":8},"D":{"a":8,"b":2}},"conditions":["nonSeqFull","nonSeqPartial","seqNoFeedback","seqFeedback"],"classroomPairings":[["A","B"],["C","D"]],"coinWeights":[0.2,0.5,0.8],"subjectId":"A11YS0T8MV3Q7C","assignmentId":"3C8HJ7UOP8G5JQU8RE48TOZ99COZMV","hitId":"3NI0WFPPI9246I5W92FX9A3E2GN605","url":"https://gershmanlab.com/experiments/alicia/teaching/experiment/?hitId=3NI0WFPPI9246I5W92FX9A3E2GN605&workerId=A11YS0T8MV3Q7C&assignmentId=3C8HJ7UOP8G5JQU8RE48TOZ99COZMV&a=OJ8C9&tp_a=OJ8C9&b=3C8HJ7UOP8G5JQU8RE48TOZ99COZMV&tp_b=3C8HJ7UOP8G5JQU8RE48TOZ99COZMV&c=365799&tp_c=365799","heads":6,"tails":1,"studentIndex":6,"studentTrueHypers":{"a":2,"b":8},"studentGuess":0.47058823529411764,"delta":0.3294117647058824,"totalExamples":7,"bonus":0,"bonusSoFar":0.78},{"rt":9241,"response":{"heads":"2","tails":"6"},"type":"response","condition":"nonSeqPartial","trueTheta":0.2,"classrooms":["C","D"],"studentTrueClassroom":"D","exampleSet":"first","trial_type":"survey-html-form","trial_index":59,"time_elapsed":910274,"internal_node_id":"0.0-55.0-0.0","params":{"nStudents":24,"maxFlips":30,"completionMinutes":45,"basePay":8,"maxBonus":9,"perTrialBonus":0.5,"perTrialBonusThreshold":0.05,"exampleCost":0.01},"classroomParams":{"A":{"a":1,"b":4},"B":{"a":4,"b":1},"C":{"a":2,"b":8},"D":{"a":8,"b":2}},"conditions":["nonSeqFull","nonSeqPartial","seqNoFeedback","seqFeedback"],"classroomPairings":[["A","B"],["C","D"]],"coinWeights":[0.2,0.5,0.8],"subjectId":"A11YS0T8MV3Q7C","assignmentId":"3C8HJ7UOP8G5JQU8RE48TOZ99COZMV","hitId":"3NI0WFPPI9246I5W92FX9A3E2GN605","url":"https://gershmanlab.com/experiments/alicia/teaching/experiment/?hitId=3NI0WFPPI9246I5W92FX9A3E2GN605&workerId=A11YS0T8MV3Q7C&assignmentId=3C8HJ7UOP8G5JQU8RE48TOZ99COZMV&a=OJ8C9&tp_a=OJ8C9&b=3C8HJ7UOP8G5JQU8RE48TOZ99COZMV&tp_b=3C8HJ7UOP8G5JQU8RE48TOZ99COZMV&c=365799&tp_c=365799","heads":2,"tails":6,"studentIndex":7,"studentTrueHypers":{"a":8,"b":2},"studentGuess":0.5555555555555556,"delta":0.35555555555555557,"totalExamples":8,"bonus":0,"bonusSoFar":0.78},{"rt":4304,"response":{"heads":"5","tails":"1"},"type":"response","condition":"nonSeqPartial","trueTheta":0.8,"classrooms":["A","B"],"studentTrueClassroom":"B","exampleSet":"first","trial_type":"survey-html-form","trial_index":65,"time_elapsed":926493,"internal_node_id":"0.0-61.0-0.0","params":{"nStudents":24,"maxFlips":30,"completionMinutes":45,"basePay":8,"maxBonus":9,"perTrialBonus":0.5,"perTrialBonusThreshold":0.05,"exampleCost":0.01},"classroomParams":{"A":{"a":1,"b":4},"B":{"a":4,"b":1},"C":{"a":2,"b":8},"D":{"a":8,"b":2}},"conditions":["nonSeqFull","nonSeqPartial","seqNoFeedback","seqFeedback"],"classroomPairings":[["A","B"],["C","D"]],"coinWeights":[0.2,0.5,0.8],"subjectId":"A11YS0T8MV3Q7C","assignmentId":"3C8HJ7UOP8G5JQU8RE48TOZ99COZMV","hitId":"3NI0WFPPI9246I5W92FX9A3E2GN605","url":"https://gershmanlab.com/experiments/alicia/teaching/experiment/?hitId=3NI0WFPPI9246I5W92FX9A3E2GN605&workerId=A11YS0T8MV3Q7C&assignmentId=3C8HJ7UOP8G5JQU8RE48TOZ99COZMV&a=OJ8C9&tp_a=OJ8C9&b=3C8HJ7UOP8G5JQU8RE48TOZ99COZMV&tp_b=3C8HJ7UOP8G5JQU8RE48TOZ99COZMV&c=365799&tp_c=365799","heads":5,"tails":1,"studentIndex":8,"studentTrueHypers":{"a":4,"b":1},"studentGuess":0.8181818181818182,"delta":0.018181818181818188,"totalExamples":6,"bonus":0.44,"bonusSoFar":1.22},{"rt":6820,"response":{"heads":"4","tails":"4"},"type":"response","condition":"seqNoFeedback","trueTheta":0.5,"classrooms":["C","D"],"studentTrueClassroom":"D","exampleSet":"first","trial_type":"survey-html-form","trial_index":71,"time_elapsed":945868,"internal_node_id":"0.0-67.0-0.0","params":{"nStudents":24,"maxFlips":30,"completionMinutes":45,"basePay":8,"maxBonus":9,"perTrialBonus":0.5,"perTrialBonusThreshold":0.05,"exampleCost":0.01},"classroomParams":{"A":{"a":1,"b":4},"B":{"a":4,"b":1},"C":{"a":2,"b":8},"D":{"a":8,"b":2}},"conditions":["nonSeqFull","nonSeqPartial","seqNoFeedback","seqFeedback"],"classroomPairings":[["A","B"],["C","D"]],"coinWeights":[0.2,0.5,0.8],"subjectId":"A11YS0T8MV3Q7C","assignmentId":"3C8HJ7UOP8G5JQU8RE48TOZ99COZMV","hitId":"3NI0WFPPI9246I5W92FX9A3E2GN605","url":"https://gershmanlab.com/experiments/alicia/teaching/experiment/?hitId=3NI0WFPPI9246I5W92FX9A3E2GN605&workerId=A11YS0T8MV3Q7C&assignmentId=3C8HJ7UOP8G5JQU8RE48TOZ99COZMV&a=OJ8C9&tp_a=OJ8C9&b=3C8HJ7UOP8G5JQU8RE48TOZ99COZMV&tp_b=3C8HJ7UOP8G5JQU8RE48TOZ99COZMV&c=365799&tp_c=365799","heads":4,"tails":4,"studentIndex":9,"studentTrueHypers":{"a":8,"b":2},"studentGuess":0.6666666666666666,"delta":0.16666666666666663,"totalExamples":8,"bonusSoFar":1.22},{"rt":3091,"response":{"heads":"3","tails":"5"},"type":"response","condition":"seqNoFeedback","trueTheta":0.5,"classrooms":["C","D"],"studentTrueClassroom":"D","exampleSet":"second","trial_type":"survey-html-form","trial_index":74,"time_elapsed":956232,"internal_node_id":"0.0-70.0-0.0","params":{"nStudents":24,"maxFlips":30,"completionMinutes":45,"basePay":8,"maxBonus":9,"perTrialBonus":0.5,"perTrialBonusThreshold":0.05,"exampleCost":0.01},"classroomParams":{"A":{"a":1,"b":4},"B":{"a":4,"b":1},"C":{"a":2,"b":8},"D":{"a":8,"b":2}},"conditions":["nonSeqFull","nonSeqPartial","seqNoFeedback","seqFeedback"],"classroomPairings":[["A","B"],["C","D"]],"coinWeights":[0.2,0.5,0.8],"subjectId":"A11YS0T8MV3Q7C","assignmentId":"3C8HJ7UOP8G5JQU8RE48TOZ99COZMV","hitId":"3NI0WFPPI9246I5W92FX9A3E2GN605","url":"https://gershmanlab.com/experiments/alicia/teaching/experiment/?hitId=3NI0WFPPI9246I5W92FX9A3E2GN605&workerId=A11YS0T8MV3Q7C&assignmentId=3C8HJ7UOP8G5JQU8RE48TOZ99COZMV&a=OJ8C9&tp_a=OJ8C9&b=3C8HJ7UOP8G5JQU8RE48TOZ99COZMV&tp_b=3C8HJ7UOP8G5JQU8RE48TOZ99COZMV&c=365799&tp_c=365799","firstResponseHeads":4,"firstResponseTails":4,"secondResponseHeads":3,"secondResponseTails":5,"totalHeads":7,"totalTails":9,"studentIndex":9,"studentTrueHypers":{"a":8,"b":2},"studentGuess":0.5769230769230769,"delta":0.07692307692307687,"bonus":0,"bonusSoFar":1.22,"totalExamples":16},{"rt":3520,"response":{"heads":"1","tails":"4"},"type":"response","condition":"nonSeqPartial","trueTheta":0.2,"classrooms":["A","B"],"studentTrueClassroom":"B","exampleSet":"first","trial_type":"survey-html-form","trial_index":80,"time_elapsed":973271,"internal_node_id":"0.0-76.0-0.0","params":{"nStudents":24,"maxFlips":30,"completionMinutes":45,"basePay":8,"maxBonus":9,"perTrialBonus":0.5,"perTrialBonusThreshold":0.05,"exampleCost":0.01},"classroomParams":{"A":{"a":1,"b":4},"B":{"a":4,"b":1},"C":{"a":2,"b":8},"D":{"a":8,"b":2}},"conditions":["nonSeqFull","nonSeqPartial","seqNoFeedback","seqFeedback"],"classroomPairings":[["A","B"],["C","D"]],"coinWeights":[0.2,0.5,0.8],"subjectId":"A11YS0T8MV3Q7C","assignmentId":"3C8HJ7UOP8G5JQU8RE48TOZ99COZMV","hitId":"3NI0WFPPI9246I5W92FX9A3E2GN605","url":"https://gershmanlab.com/experiments/alicia/teaching/experiment/?hitId=3NI0WFPPI9246I5W92FX9A3E2GN605&workerId=A11YS0T8MV3Q7C&assignmentId=3C8HJ7UOP8G5JQU8RE48TOZ99COZMV&a=OJ8C9&tp_a=OJ8C9&b=3C8HJ7UOP8G5JQU8RE48TOZ99COZMV&tp_b=3C8HJ7UOP8G5JQU8RE48TOZ99COZMV&c=365799&tp_c=365799","heads":1,"tails":4,"studentIndex":10,"studentTrueHypers":{"a":4,"b":1},"studentGuess":0.5,"delta":0.3,"totalExamples":5,"bonus":0,"bonusSoFar":1.22},{"rt":8408,"response":{"heads":"3","tails":"5"},"type":"response","condition":"nonSeqPartial","trueTheta":0.5,"classrooms":["A","B"],"studentTrueClassroom":"B","exampleSet":"first","trial_type":"survey-html-form","trial_index":86,"time_elapsed":998205,"internal_node_id":"0.0-82.0-0.0","params":{"nStudents":24,"maxFlips":30,"completionMinutes":45,"basePay":8,"maxBonus":9,"perTrialBonus":0.5,"perTrialBonusThreshold":0.05,"exampleCost":0.01},"classroomParams":{"A":{"a":1,"b":4},"B":{"a":4,"b":1},"C":{"a":2,"b":8},"D":{"a":8,"b":2}},"conditions":["nonSeqFull","nonSeqPartial","seqNoFeedback","seqFeedback"],"classroomPairings":[["A","B"],["C","D"]],"coinWeights":[0.2,0.5,0.8],"subjectId":"A11YS0T8MV3Q7C","assignmentId":"3C8HJ7UOP8G5JQU8RE48TOZ99COZMV","hitId":"3NI0WFPPI9246I5W92FX9A3E2GN605","url":"https://gershmanlab.com/experiments/alicia/teaching/experiment/?hitId=3NI0WFPPI9246I5W92FX9A3E2GN605&workerId=A11YS0T8MV3Q7C&assignmentId=3C8HJ7UOP8G5JQU8RE48TOZ99COZMV&a=OJ8C9&tp_a=OJ8C9&b=3C8HJ7UOP8G5JQU8RE48TOZ99COZMV&tp_b=3C8HJ7UOP8G5JQU8RE48TOZ99COZMV&c=365799&tp_c=365799","heads":3,"tails":5,"studentIndex":11,"studentTrueHypers":{"a":4,"b":1},"studentGuess":0.5384615384615384,"delta":0.038461538461538436,"totalExamples":8,"bonus":0.42,"bonusSoFar":1.64},{"rt":4425,"response":{"heads":"6","tails":"2"},"type":"response","condition":"seqNoFeedback","trueTheta":0.8,"classrooms":["A","B"],"studentTrueClassroom":"A","exampleSet":"first","trial_type":"survey-html-form","trial_index":92,"time_elapsed":1015040,"internal_node_id":"0.0-88.0-0.0","params":{"nStudents":24,"maxFlips":30,"completionMinutes":45,"basePay":8,"maxBonus":9,"perTrialBonus":0.5,"perTrialBonusThreshold":0.05,"exampleCost":0.01},"classroomParams":{"A":{"a":1,"b":4},"B":{"a":4,"b":1},"C":{"a":2,"b":8},"D":{"a":8,"b":2}},"conditions":["nonSeqFull","nonSeqPartial","seqNoFeedback","seqFeedback"],"classroomPairings":[["A","B"],["C","D"]],"coinWeights":[0.2,0.5,0.8],"subjectId":"A11YS0T8MV3Q7C","assignmentId":"3C8HJ7UOP8G5JQU8RE48TOZ99COZMV","hitId":"3NI0WFPPI9246I5W92FX9A3E2GN605","url":"https://gershmanlab.com/experiments/alicia/teaching/experiment/?hitId=3NI0WFPPI9246I5W92FX9A3E2GN605&workerId=A11YS0T8MV3Q7C&assignmentId=3C8HJ7UOP8G5JQU8RE48TOZ99COZMV&a=OJ8C9&tp_a=OJ8C9&b=3C8HJ7UOP8G5JQU8RE48TOZ99COZMV&tp_b=3C8HJ7UOP8G5JQU8RE48TOZ99COZMV&c=365799&tp_c=365799","heads":6,"tails":2,"studentIndex":12,"studentTrueHypers":{"a":1,"b":4},"studentGuess":0.5384615384615384,"delta":0.2615384615384616,"totalExamples":8,"bonusSoFar":1.64},{"rt":2163,"response":{"heads":"6","tails":"2"},"type":"response","condition":"seqNoFeedback","trueTheta":0.8,"classrooms":["A","B"],"studentTrueClassroom":"A","exampleSet":"second","trial_type":"survey-html-form","trial_index":95,"time_elapsed":1023973,"internal_node_id":"0.0-91.0-0.0","params":{"nStudents":24,"maxFlips":30,"completionMinutes":45,"basePay":8,"maxBonus":9,"perTrialBonus":0.5,"perTrialBonusThreshold":0.05,"exampleCost":0.01},"classroomParams":{"A":{"a":1,"b":4},"B":{"a":4,"b":1},"C":{"a":2,"b":8},"D":{"a":8,"b":2}},"conditions":["nonSeqFull","nonSeqPartial","seqNoFeedback","seqFeedback"],"classroomPairings":[["A","B"],["C","D"]],"coinWeights":[0.2,0.5,0.8],"subjectId":"A11YS0T8MV3Q7C","assignmentId":"3C8HJ7UOP8G5JQU8RE48TOZ99COZMV","hitId":"3NI0WFPPI9246I5W92FX9A3E2GN605","url":"https://gershmanlab.com/experiments/alicia/teaching/experiment/?hitId=3NI0WFPPI9246I5W92FX9A3E2GN605&workerId=A11YS0T8MV3Q7C&assignmentId=3C8HJ7UOP8G5JQU8RE48TOZ99COZMV&a=OJ8C9&tp_a=OJ8C9&b=3C8HJ7UOP8G5JQU8RE48TOZ99COZMV&tp_b=3C8HJ7UOP8G5JQU8RE48TOZ99COZMV&c=365799&tp_c=365799","firstResponseHeads":6,"firstResponseTails":2,"secondResponseHeads":6,"secondResponseTails":2,"totalHeads":12,"totalTails":4,"studentIndex":12,"studentTrueHypers":{"a":1,"b":4},"studentGuess":0.6190476190476191,"delta":0.18095238095238098,"bonus":0,"bonusSoFar":1.64,"totalExamples":16},{"rt":3588,"response":{"heads":"3","tails":"5"},"type":"response","condition":"seqFeedback","trueTheta":0.5,"classrooms":["C","D"],"studentTrueClassroom":"D","exampleSet":"first","trial_type":"survey-html-form","trial_index":101,"time_elapsed":1041904,"internal_node_id":"0.0-97.0-0.0","params":{"nStudents":24,"maxFlips":30,"completionMinutes":45,"basePay":8,"maxBonus":9,"perTrialBonus":0.5,"perTrialBonusThreshold":0.05,"exampleCost":0.01},"classroomParams":{"A":{"a":1,"b":4},"B":{"a":4,"b":1},"C":{"a":2,"b":8},"D":{"a":8,"b":2}},"conditions":["nonSeqFull","nonSeqPartial","seqNoFeedback","seqFeedback"],"classroomPairings":[["A","B"],["C","D"]],"coinWeights":[0.2,0.5,0.8],"subjectId":"A11YS0T8MV3Q7C","assignmentId":"3C8HJ7UOP8G5JQU8RE48TOZ99COZMV","hitId":"3NI0WFPPI9246I5W92FX9A3E2GN605","url":"https://gershmanlab.com/experiments/alicia/teaching/experiment/?hitId=3NI0WFPPI9246I5W92FX9A3E2GN605&workerId=A11YS0T8MV3Q7C&assignmentId=3C8HJ7UOP8G5JQU8RE48TOZ99COZMV&a=OJ8C9&tp_a=OJ8C9&b=3C8HJ7UOP8G5JQU8RE48TOZ99COZMV&tp_b=3C8HJ7UOP8G5JQU8RE48TOZ99COZMV&c=365799&tp_c=365799","heads":3,"tails":5,"studentIndex":13,"studentTrueHypers":{"a":8,"b":2},"studentGuess":0.6111111111111112,"delta":0.11111111111111116,"totalExamples":8,"bonusSoFar":1.64},{"rt":11174,"response":{"heads":"3","tails":"5"},"type":"response","condition":"seqFeedback","trueTheta":0.5,"classrooms":["C","D"],"studentTrueClassroom":"D","exampleSet":"second","trial_type":"survey-html-form","trial_index":105,"time_elapsed":1064778,"internal_node_id":"0.0-101.0-0.0","params":{"nStudents":24,"maxFlips":30,"completionMinutes":45,"basePay":8,"maxBonus":9,"perTrialBonus":0.5,"perTrialBonusThreshold":0.05,"exampleCost":0.01},"classroomParams":{"A":{"a":1,"b":4},"B":{"a":4,"b":1},"C":{"a":2,"b":8},"D":{"a":8,"b":2}},"conditions":["nonSeqFull","nonSeqPartial","seqNoFeedback","seqFeedback"],"classroomPairings":[["A","B"],["C","D"]],"coinWeights":[0.2,0.5,0.8],"subjectId":"A11YS0T8MV3Q7C","assignmentId":"3C8HJ7UOP8G5JQU8RE48TOZ99COZMV","hitId":"3NI0WFPPI9246I5W92FX9A3E2GN605","url":"https://gershmanlab.com/experiments/alicia/teaching/experiment/?hitId=3NI0WFPPI9246I5W92FX9A3E2GN605&workerId=A11YS0T8MV3Q7C&assignmentId=3C8HJ7UOP8G5JQU8RE48TOZ99COZMV&a=OJ8C9&tp_a=OJ8C9&b=3C8HJ7UOP8G5JQU8RE48TOZ99COZMV&tp_b=3C8HJ7UOP8G5JQU8RE48TOZ99COZMV&c=365799&tp_c=365799","firstResponseHeads":3,"firstResponseTails":5,"secondResponseHeads":3,"secondResponseTails":5,"totalHeads":6,"totalTails":10,"studentIndex":13,"studentTrueHypers":{"a":8,"b":2},"studentGuess":0.5384615384615384,"delta":0.038461538461538436,"bonus":0.34,"bonusSoFar":1.98,"totalExamples":16},{"rt":7889,"response":{"heads":"6","tails":"2"},"type":"response","condition":"nonSeqFull","trueTheta":0.5,"classrooms":["C","D"],"studentTrueClassroom":"D","exampleSet":"first","trial_type":"survey-html-form","trial_index":111,"time_elapsed":1084589,"internal_node_id":"0.0-107.0-0.0","params":{"nStudents":24,"maxFlips":30,"completionMinutes":45,"basePay":8,"maxBonus":9,"perTrialBonus":0.5,"perTrialBonusThreshold":0.05,"exampleCost":0.01},"classroomParams":{"A":{"a":1,"b":4},"B":{"a":4,"b":1},"C":{"a":2,"b":8},"D":{"a":8,"b":2}},"conditions":["nonSeqFull","nonSeqPartial","seqNoFeedback","seqFeedback"],"classroomPairings":[["A","B"],["C","D"]],"coinWeights":[0.2,0.5,0.8],"subjectId":"A11YS0T8MV3Q7C","assignmentId":"3C8HJ7UOP8G5JQU8RE48TOZ99COZMV","hitId":"3NI0WFPPI9246I5W92FX9A3E2GN605","url":"https://gershmanlab.com/experiments/alicia/teaching/experiment/?hitId=3NI0WFPPI9246I5W92FX9A3E2GN605&workerId=A11YS0T8MV3Q7C&assignmentId=3C8HJ7UOP8G5JQU8RE48TOZ99COZMV&a=OJ8C9&tp_a=OJ8C9&b=3C8HJ7UOP8G5JQU8RE48TOZ99COZMV&tp_b=3C8HJ7UOP8G5JQU8RE48TOZ99COZMV&c=365799&tp_c=365799","heads":6,"tails":2,"studentIndex":14,"studentTrueHypers":{"a":8,"b":2},"studentGuess":0.7777777777777778,"delta":0.2777777777777778,"totalExamples":8,"bonus":0,"bonusSoFar":1.98},{"rt":6234,"response":{"heads":"5","tails":"3"},"type":"response","condition":"seqFeedback","trueTheta":0.8,"classrooms":["C","D"],"studentTrueClassroom":"C","exampleSet":"first","trial_type":"survey-html-form","trial_index":117,"time_elapsed":1108156,"internal_node_id":"0.0-113.0-0.0","params":{"nStudents":24,"maxFlips":30,"completionMinutes":45,"basePay":8,"maxBonus":9,"perTrialBonus":0.5,"perTrialBonusThreshold":0.05,"exampleCost":0.01},"classroomParams":{"A":{"a":1,"b":4},"B":{"a":4,"b":1},"C":{"a":2,"b":8},"D":{"a":8,"b":2}},"conditions":["nonSeqFull","nonSeqPartial","seqNoFeedback","seqFeedback"],"classroomPairings":[["A","B"],["C","D"]],"coinWeights":[0.2,0.5,0.8],"subjectId":"A11YS0T8MV3Q7C","assignmentId":"3C8HJ7UOP8G5JQU8RE48TOZ99COZMV","hitId":"3NI0WFPPI9246I5W92FX9A3E2GN605","url":"https://gershmanlab.com/experiments/alicia/teaching/experiment/?hitId=3NI0WFPPI9246I5W92FX9A3E2GN605&workerId=A11YS0T8MV3Q7C&assignmentId=3C8HJ7UOP8G5JQU8RE48TOZ99COZMV&a=OJ8C9&tp_a=OJ8C9&b=3C8HJ7UOP8G5JQU8RE48TOZ99COZMV&tp_b=3C8HJ7UOP8G5JQU8RE48TOZ99COZMV&c=365799&tp_c=365799","heads":5,"tails":3,"studentIndex":15,"studentTrueHypers":{"a":2,"b":8},"studentGuess":0.3888888888888889,"delta":0.41111111111111115,"totalExamples":8,"bonusSoFar":1.98},{"rt":6060,"response":{"heads":"3","tails":"5"},"type":"response","condition":"seqFeedback","trueTheta":0.8,"classrooms":["C","D"],"studentTrueClassroom":"C","exampleSet":"second","trial_type":"survey-html-form","trial_index":121,"time_elapsed":1127115,"internal_node_id":"0.0-117.0-0.0","params":{"nStudents":24,"maxFlips":30,"completionMinutes":45,"basePay":8,"maxBonus":9,"perTrialBonus":0.5,"perTrialBonusThreshold":0.05,"exampleCost":0.01},"classroomParams":{"A":{"a":1,"b":4},"B":{"a":4,"b":1},"C":{"a":2,"b":8},"D":{"a":8,"b":2}},"conditions":["nonSeqFull","nonSeqPartial","seqNoFeedback","seqFeedback"],"classroomPairings":[["A","B"],["C","D"]],"coinWeights":[0.2,0.5,0.8],"subjectId":"A11YS0T8MV3Q7C","assignmentId":"3C8HJ7UOP8G5JQU8RE48TOZ99COZMV","hitId":"3NI0WFPPI9246I5W92FX9A3E2GN605","url":"https://gershmanlab.com/experiments/alicia/teaching/experiment/?hitId=3NI0WFPPI9246I5W92FX9A3E2GN605&workerId=A11YS0T8MV3Q7C&assignmentId=3C8HJ7UOP8G5JQU8RE48TOZ99COZMV&a=OJ8C9&tp_a=OJ8C9&b=3C8HJ7UOP8G5JQU8RE48TOZ99COZMV&tp_b=3C8HJ7UOP8G5JQU8RE48TOZ99COZMV&c=365799&tp_c=365799","firstResponseHeads":5,"firstResponseTails":3,"secondResponseHeads":3,"secondResponseTails":5,"totalHeads":8,"totalTails":8,"studentIndex":15,"studentTrueHypers":{"a":2,"b":8},"studentGuess":0.38461538461538464,"delta":0.4153846153846154,"bonus":0,"bonusSoFar":1.98,"totalExamples":16},{"rt":3425,"response":{"heads":"2","tails":"5"},"type":"response","condition":"seqNoFeedback","trueTheta":0.2,"classrooms":["C","D"],"studentTrueClassroom":"D","exampleSet":"first","trial_type":"survey-html-form","trial_index":127,"time_elapsed":1144339,"internal_node_id":"0.0-123.0-0.0","params":{"nStudents":24,"maxFlips":30,"completionMinutes":45,"basePay":8,"maxBonus":9,"perTrialBonus":0.5,"perTrialBonusThreshold":0.05,"exampleCost":0.01},"classroomParams":{"A":{"a":1,"b":4},"B":{"a":4,"b":1},"C":{"a":2,"b":8},"D":{"a":8,"b":2}},"conditions":["nonSeqFull","nonSeqPartial","seqNoFeedback","seqFeedback"],"classroomPairings":[["A","B"],["C","D"]],"coinWeights":[0.2,0.5,0.8],"subjectId":"A11YS0T8MV3Q7C","assignmentId":"3C8HJ7UOP8G5JQU8RE48TOZ99COZMV","hitId":"3NI0WFPPI9246I5W92FX9A3E2GN605","url":"https://gershmanlab.com/experiments/alicia/teaching/experiment/?hitId=3NI0WFPPI9246I5W92FX9A3E2GN605&workerId=A11YS0T8MV3Q7C&assignmentId=3C8HJ7UOP8G5JQU8RE48TOZ99COZMV&a=OJ8C9&tp_a=OJ8C9&b=3C8HJ7UOP8G5JQU8RE48TOZ99COZMV&tp_b=3C8HJ7UOP8G5JQU8RE48TOZ99COZMV&c=365799&tp_c=365799","heads":2,"tails":5,"studentIndex":16,"studentTrueHypers":{"a":8,"b":2},"studentGuess":0.5882352941176471,"delta":0.38823529411764707,"totalExamples":7,"bonusSoFar":1.98},{"rt":8572,"response":{"heads":"1","tails":"7"},"type":"response","condition":"seqNoFeedback","trueTheta":0.2,"classrooms":["C","D"],"studentTrueClassroom":"D","exampleSet":"second","trial_type":"survey-html-form","trial_index":130,"time_elapsed":1158171,"internal_node_id":"0.0-126.0-0.0","params":{"nStudents":24,"maxFlips":30,"completionMinutes":45,"basePay":8,"maxBonus":9,"perTrialBonus":0.5,"perTrialBonusThreshold":0.05,"exampleCost":0.01},"classroomParams":{"A":{"a":1,"b":4},"B":{"a":4,"b":1},"C":{"a":2,"b":8},"D":{"a":8,"b":2}},"conditions":["nonSeqFull","nonSeqPartial","seqNoFeedback","seqFeedback"],"classroomPairings":[["A","B"],["C","D"]],"coinWeights":[0.2,0.5,0.8],"subjectId":"A11YS0T8MV3Q7C","assignmentId":"3C8HJ7UOP8G5JQU8RE48TOZ99COZMV","hitId":"3NI0WFPPI9246I5W92FX9A3E2GN605","url":"https://gershmanlab.com/experiments/alicia/teaching/experiment/?hitId=3NI0WFPPI9246I5W92FX9A3E2GN605&workerId=A11YS0T8MV3Q7C&assignmentId=3C8HJ7UOP8G5JQU8RE48TOZ99COZMV&a=OJ8C9&tp_a=OJ8C9&b=3C8HJ7UOP8G5JQU8RE48TOZ99COZMV&tp_b=3C8HJ7UOP8G5JQU8RE48TOZ99COZMV&c=365799&tp_c=365799","firstResponseHeads":2,"firstResponseTails":5,"secondResponseHeads":1,"secondResponseTails":7,"totalHeads":3,"totalTails":12,"studentIndex":16,"studentTrueHypers":{"a":8,"b":2},"studentGuess":0.44,"delta":0.24,"bonus":0,"bonusSoFar":1.98,"totalExamples":15},{"rt":5661,"response":{"heads":"3","tails":"6"},"type":"response","condition":"nonSeqPartial","trueTheta":0.5,"classrooms":["C","D"],"studentTrueClassroom":"D","exampleSet":"first","trial_type":"survey-html-form","trial_index":136,"time_elapsed":1177579,"internal_node_id":"0.0-132.0-0.0","params":{"nStudents":24,"maxFlips":30,"completionMinutes":45,"basePay":8,"maxBonus":9,"perTrialBonus":0.5,"perTrialBonusThreshold":0.05,"exampleCost":0.01},"classroomParams":{"A":{"a":1,"b":4},"B":{"a":4,"b":1},"C":{"a":2,"b":8},"D":{"a":8,"b":2}},"conditions":["nonSeqFull","nonSeqPartial","seqNoFeedback","seqFeedback"],"classroomPairings":[["A","B"],["C","D"]],"coinWeights":[0.2,0.5,0.8],"subjectId":"A11YS0T8MV3Q7C","assignmentId":"3C8HJ7UOP8G5JQU8RE48TOZ99COZMV","hitId":"3NI0WFPPI9246I5W92FX9A3E2GN605","url":"https://gershmanlab.com/experiments/alicia/teaching/experiment/?hitId=3NI0WFPPI9246I5W92FX9A3E2GN605&workerId=A11YS0T8MV3Q7C&assignmentId=3C8HJ7UOP8G5JQU8RE48TOZ99COZMV&a=OJ8C9&tp_a=OJ8C9&b=3C8HJ7UOP8G5JQU8RE48TOZ99COZMV&tp_b=3C8HJ7UOP8G5JQU8RE48TOZ99COZMV&c=365799&tp_c=365799","heads":3,"tails":6,"studentIndex":17,"studentTrueHypers":{"a":8,"b":2},"studentGuess":0.5789473684210527,"delta":0.07894736842105265,"totalExamples":9,"bonus":0,"bonusSoFar":1.98},{"rt":3507,"response":{"heads":"4","tails":"1"},"type":"response","condition":"seqNoFeedback","trueTheta":0.2,"classrooms":["A","B"],"studentTrueClassroom":"B","exampleSet":"first","trial_type":"survey-html-form","trial_index":142,"time_elapsed":1194667,"internal_node_id":"0.0-138.0-0.0","params":{"nStudents":24,"maxFlips":30,"completionMinutes":45,"basePay":8,"maxBonus":9,"perTrialBonus":0.5,"perTrialBonusThreshold":0.05,"exampleCost":0.01},"classroomParams":{"A":{"a":1,"b":4},"B":{"a":4,"b":1},"C":{"a":2,"b":8},"D":{"a":8,"b":2}},"conditions":["nonSeqFull","nonSeqPartial","seqNoFeedback","seqFeedback"],"classroomPairings":[["A","B"],["C","D"]],"coinWeights":[0.2,0.5,0.8],"subjectId":"A11YS0T8MV3Q7C","assignmentId":"3C8HJ7UOP8G5JQU8RE48TOZ99COZMV","hitId":"3NI0WFPPI9246I5W92FX9A3E2GN605","url":"https://gershmanlab.com/experiments/alicia/teaching/experiment/?hitId=3NI0WFPPI9246I5W92FX9A3E2GN605&workerId=A11YS0T8MV3Q7C&assignmentId=3C8HJ7UOP8G5JQU8RE48TOZ99COZMV&a=OJ8C9&tp_a=OJ8C9&b=3C8HJ7UOP8G5JQU8RE48TOZ99COZMV&tp_b=3C8HJ7UOP8G5JQU8RE48TOZ99COZMV&c=365799&tp_c=365799","heads":4,"tails":1,"studentIndex":18,"studentTrueHypers":{"a":4,"b":1},"studentGuess":0.8,"delta":0.6000000000000001,"totalExamples":5,"bonusSoFar":1.98},{"rt":3107,"response":{"heads":"6","tails":"2"},"type":"response","condition":"seqNoFeedback","trueTheta":0.2,"classrooms":["A","B"],"studentTrueClassroom":"B","exampleSet":"second","trial_type":"survey-html-form","trial_index":145,"time_elapsed":1204795,"internal_node_id":"0.0-141.0-0.0","params":{"nStudents":24,"maxFlips":30,"completionMinutes":45,"basePay":8,"maxBonus":9,"perTrialBonus":0.5,"perTrialBonusThreshold":0.05,"exampleCost":0.01},"classroomParams":{"A":{"a":1,"b":4},"B":{"a":4,"b":1},"C":{"a":2,"b":8},"D":{"a":8,"b":2}},"conditions":["nonSeqFull","nonSeqPartial","seqNoFeedback","seqFeedback"],"classroomPairings":[["A","B"],["C","D"]],"coinWeights":[0.2,0.5,0.8],"subjectId":"A11YS0T8MV3Q7C","assignmentId":"3C8HJ7UOP8G5JQU8RE48TOZ99COZMV","hitId":"3NI0WFPPI9246I5W92FX9A3E2GN605","url":"https://gershmanlab.com/experiments/alicia/teaching/experiment/?hitId=3NI0WFPPI9246I5W92FX9A3E2GN605&workerId=A11YS0T8MV3Q7C&assignmentId=3C8HJ7UOP8G5JQU8RE48TOZ99COZMV&a=OJ8C9&tp_a=OJ8C9&b=3C8HJ7UOP8G5JQU8RE48TOZ99COZMV&tp_b=3C8HJ7UOP8G5JQU8RE48TOZ99COZMV&c=365799&tp_c=365799","firstResponseHeads":4,"firstResponseTails":1,"secondResponseHeads":6,"secondResponseTails":2,"totalHeads":10,"totalTails":3,"studentIndex":18,"studentTrueHypers":{"a":4,"b":1},"studentGuess":0.7777777777777778,"delta":0.5777777777777777,"bonus":0,"bonusSoFar":1.98,"totalExamples":13},{"rt":4248,"response":{"heads":"7","tails":"3"},"type":"response","condition":"seqNoFeedback","trueTheta":0.8,"classrooms":["C","D"],"studentTrueClassroom":"C","exampleSet":"first","trial_type":"survey-html-form","trial_index":151,"time_elapsed":1222413,"internal_node_id":"0.0-147.0-0.0","params":{"nStudents":24,"maxFlips":30,"completionMinutes":45,"basePay":8,"maxBonus":9,"perTrialBonus":0.5,"perTrialBonusThreshold":0.05,"exampleCost":0.01},"classroomParams":{"A":{"a":1,"b":4},"B":{"a":4,"b":1},"C":{"a":2,"b":8},"D":{"a":8,"b":2}},"conditions":["nonSeqFull","nonSeqPartial","seqNoFeedback","seqFeedback"],"classroomPairings":[["A","B"],["C","D"]],"coinWeights":[0.2,0.5,0.8],"subjectId":"A11YS0T8MV3Q7C","assignmentId":"3C8HJ7UOP8G5JQU8RE48TOZ99COZMV","hitId":"3NI0WFPPI9246I5W92FX9A3E2GN605","url":"https://gershmanlab.com/experiments/alicia/teaching/experiment/?hitId=3NI0WFPPI9246I5W92FX9A3E2GN605&workerId=A11YS0T8MV3Q7C&assignmentId=3C8HJ7UOP8G5JQU8RE48TOZ99COZMV&a=OJ8C9&tp_a=OJ8C9&b=3C8HJ7UOP8G5JQU8RE48TOZ99COZMV&tp_b=3C8HJ7UOP8G5JQU8RE48TOZ99COZMV&c=365799&tp_c=365799","heads":7,"tails":3,"studentIndex":19,"studentTrueHypers":{"a":2,"b":8},"studentGuess":0.45,"delta":0.35000000000000003,"totalExamples":10,"bonusSoFar":1.98},{"rt":4002,"response":{"heads":"7","tails":"3"},"type":"response","condition":"seqNoFeedback","trueTheta":0.8,"classrooms":["C","D"],"studentTrueClassroom":"C","exampleSet":"second","trial_type":"survey-html-form","trial_index":154,"time_elapsed":1232190,"internal_node_id":"0.0-150.0-0.0","params":{"nStudents":24,"maxFlips":30,"completionMinutes":45,"basePay":8,"maxBonus":9,"perTrialBonus":0.5,"perTrialBonusThreshold":0.05,"exampleCost":0.01},"classroomParams":{"A":{"a":1,"b":4},"B":{"a":4,"b":1},"C":{"a":2,"b":8},"D":{"a":8,"b":2}},"conditions":["nonSeqFull","nonSeqPartial","seqNoFeedback","seqFeedback"],"classroomPairings":[["A","B"],["C","D"]],"coinWeights":[0.2,0.5,0.8],"subjectId":"A11YS0T8MV3Q7C","assignmentId":"3C8HJ7UOP8G5JQU8RE48TOZ99COZMV","hitId":"3NI0WFPPI9246I5W92FX9A3E2GN605","url":"https://gershmanlab.com/experiments/alicia/teaching/experiment/?hitId=3NI0WFPPI9246I5W92FX9A3E2GN605&workerId=A11YS0T8MV3Q7C&assignmentId=3C8HJ7UOP8G5JQU8RE48TOZ99COZMV&a=OJ8C9&tp_a=OJ8C9&b=3C8HJ7UOP8G5JQU8RE48TOZ99COZMV&tp_b=3C8HJ7UOP8G5JQU8RE48TOZ99COZMV&c=365799&tp_c=365799","firstResponseHeads":7,"firstResponseTails":3,"secondResponseHeads":7,"secondResponseTails":3,"totalHeads":14,"totalTails":6,"studentIndex":19,"studentTrueHypers":{"a":2,"b":8},"studentGuess":0.5333333333333333,"delta":0.2666666666666667,"bonus":0,"bonusSoFar":1.98,"totalExamples":20},{"rt":12154,"response":{"heads":"1","tails":"4"},"type":"response","condition":"seqFeedback","trueTheta":0.2,"classrooms":["A","B"],"studentTrueClassroom":"A","exampleSet":"first","trial_type":"survey-html-form","trial_index":160,"time_elapsed":1261143,"internal_node_id":"0.0-156.0-0.0","params":{"nStudents":24,"maxFlips":30,"completionMinutes":45,"basePay":8,"maxBonus":9,"perTrialBonus":0.5,"perTrialBonusThreshold":0.05,"exampleCost":0.01},"classroomParams":{"A":{"a":1,"b":4},"B":{"a":4,"b":1},"C":{"a":2,"b":8},"D":{"a":8,"b":2}},"conditions":["nonSeqFull","nonSeqPartial","seqNoFeedback","seqFeedback"],"classroomPairings":[["A","B"],["C","D"]],"coinWeights":[0.2,0.5,0.8],"subjectId":"A11YS0T8MV3Q7C","assignmentId":"3C8HJ7UOP8G5JQU8RE48TOZ99COZMV","hitId":"3NI0WFPPI9246I5W92FX9A3E2GN605","url":"https://gershmanlab.com/experiments/alicia/teaching/experiment/?hitId=3NI0WFPPI9246I5W92FX9A3E2GN605&workerId=A11YS0T8MV3Q7C&assignmentId=3C8HJ7UOP8G5JQU8RE48TOZ99COZMV&a=OJ8C9&tp_a=OJ8C9&b=3C8HJ7UOP8G5JQU8RE48TOZ99COZMV&tp_b=3C8HJ7UOP8G5JQU8RE48TOZ99COZMV&c=365799&tp_c=365799","heads":1,"tails":4,"studentIndex":20,"studentTrueHypers":{"a":1,"b":4},"studentGuess":0.2,"delta":0,"totalExamples":5,"bonusSoFar":1.98},{"rt":3196,"response":{"heads":"1","tails":"4"},"type":"response","condition":"seqFeedback","trueTheta":0.2,"classrooms":["A","B"],"studentTrueClassroom":"A","exampleSet":"second","trial_type":"survey-html-form","trial_index":164,"time_elapsed":1271718,"internal_node_id":"0.0-160.0-0.0","params":{"nStudents":24,"maxFlips":30,"completionMinutes":45,"basePay":8,"maxBonus":9,"perTrialBonus":0.5,"perTrialBonusThreshold":0.05,"exampleCost":0.01},"classroomParams":{"A":{"a":1,"b":4},"B":{"a":4,"b":1},"C":{"a":2,"b":8},"D":{"a":8,"b":2}},"conditions":["nonSeqFull","nonSeqPartial","seqNoFeedback","seqFeedback"],"classroomPairings":[["A","B"],["C","D"]],"coinWeights":[0.2,0.5,0.8],"subjectId":"A11YS0T8MV3Q7C","assignmentId":"3C8HJ7UOP8G5JQU8RE48TOZ99COZMV","hitId":"3NI0WFPPI9246I5W92FX9A3E2GN605","url":"https://gershmanlab.com/experiments/alicia/teaching/experiment/?hitId=3NI0WFPPI9246I5W92FX9A3E2GN605&workerId=A11YS0T8MV3Q7C&assignmentId=3C8HJ7UOP8G5JQU8RE48TOZ99COZMV&a=OJ8C9&tp_a=OJ8C9&b=3C8HJ7UOP8G5JQU8RE48TOZ99COZMV&tp_b=3C8HJ7UOP8G5JQU8RE48TOZ99COZMV&c=365799&tp_c=365799","firstResponseHeads":1,"firstResponseTails":4,"secondResponseHeads":1,"secondResponseTails":4,"totalHeads":2,"totalTails":8,"studentIndex":20,"studentTrueHypers":{"a":1,"b":4},"studentGuess":0.2,"delta":0,"bonus":0.4,"bonusSoFar":2.38,"totalExamples":10},{"rt":6583,"response":{"heads":"2","tails":"6"},"type":"response","condition":"nonSeqFull","trueTheta":0.2,"classrooms":["A","B"],"studentTrueClassroom":"A","exampleSet":"first","trial_type":"survey-html-form","trial_index":170,"time_elapsed":1290617,"internal_node_id":"0.0-166.0-0.0","params":{"nStudents":24,"maxFlips":30,"completionMinutes":45,"basePay":8,"maxBonus":9,"perTrialBonus":0.5,"perTrialBonusThreshold":0.05,"exampleCost":0.01},"classroomParams":{"A":{"a":1,"b":4},"B":{"a":4,"b":1},"C":{"a":2,"b":8},"D":{"a":8,"b":2}},"conditions":["nonSeqFull","nonSeqPartial","seqNoFeedback","seqFeedback"],"classroomPairings":[["A","B"],["C","D"]],"coinWeights":[0.2,0.5,0.8],"subjectId":"A11YS0T8MV3Q7C","assignmentId":"3C8HJ7UOP8G5JQU8RE48TOZ99COZMV","hitId":"3NI0WFPPI9246I5W92FX9A3E2GN605","url":"https://gershmanlab.com/experiments/alicia/teaching/experiment/?hitId=3NI0WFPPI9246I5W92FX9A3E2GN605&workerId=A11YS0T8MV3Q7C&assignmentId=3C8HJ7UOP8G5JQU8RE48TOZ99COZMV&a=OJ8C9&tp_a=OJ8C9&b=3C8HJ7UOP8G5JQU8RE48TOZ99COZMV&tp_b=3C8HJ7UOP8G5JQU8RE48TOZ99COZMV&c=365799&tp_c=365799","heads":2,"tails":6,"studentIndex":21,"studentTrueHypers":{"a":1,"b":4},"studentGuess":0.23076923076923078,"delta":0.03076923076923077,"totalExamples":8,"bonus":0.42,"bonusSoFar":2.8},{"rt":5225,"response":{"heads":"2","tails":"8"},"type":"response","condition":"seqFeedback","trueTheta":0.2,"classrooms":["C","D"],"studentTrueClassroom":"D","exampleSet":"first","trial_type":"survey-html-form","trial_index":176,"time_elapsed":1308161,"internal_node_id":"0.0-172.0-0.0","params":{"nStudents":24,"maxFlips":30,"completionMinutes":45,"basePay":8,"maxBonus":9,"perTrialBonus":0.5,"perTrialBonusThreshold":0.05,"exampleCost":0.01},"classroomParams":{"A":{"a":1,"b":4},"B":{"a":4,"b":1},"C":{"a":2,"b":8},"D":{"a":8,"b":2}},"conditions":["nonSeqFull","nonSeqPartial","seqNoFeedback","seqFeedback"],"classroomPairings":[["A","B"],["C","D"]],"coinWeights":[0.2,0.5,0.8],"subjectId":"A11YS0T8MV3Q7C","assignmentId":"3C8HJ7UOP8G5JQU8RE48TOZ99COZMV","hitId":"3NI0WFPPI9246I5W92FX9A3E2GN605","url":"https://gershmanlab.com/experiments/alicia/teaching/experiment/?hitId=3NI0WFPPI9246I5W92FX9A3E2GN605&workerId=A11YS0T8MV3Q7C&assignmentId=3C8HJ7UOP8G5JQU8RE48TOZ99COZMV&a=OJ8C9&tp_a=OJ8C9&b=3C8HJ7UOP8G5JQU8RE48TOZ99COZMV&tp_b=3C8HJ7UOP8G5JQU8RE48TOZ99COZMV&c=365799&tp_c=365799","heads":2,"tails":8,"studentIndex":22,"studentTrueHypers":{"a":8,"b":2},"studentGuess":0.5,"delta":0.3,"totalExamples":10,"bonusSoFar":2.8},{"rt":2907,"response":{"heads":"3","tails":"7"},"type":"response","condition":"seqFeedback","trueTheta":0.2,"classrooms":["C","D"],"studentTrueClassroom":"D","exampleSet":"second","trial_type":"survey-html-form","trial_index":180,"time_elapsed":1320233,"internal_node_id":"0.0-176.0-0.0","params":{"nStudents":24,"maxFlips":30,"completionMinutes":45,"basePay":8,"maxBonus":9,"perTrialBonus":0.5,"perTrialBonusThreshold":0.05,"exampleCost":0.01},"classroomParams":{"A":{"a":1,"b":4},"B":{"a":4,"b":1},"C":{"a":2,"b":8},"D":{"a":8,"b":2}},"conditions":["nonSeqFull","nonSeqPartial","seqNoFeedback","seqFeedback"],"classroomPairings":[["A","B"],["C","D"]],"coinWeights":[0.2,0.5,0.8],"subjectId":"A11YS0T8MV3Q7C","assignmentId":"3C8HJ7UOP8G5JQU8RE48TOZ99COZMV","hitId":"3NI0WFPPI9246I5W92FX9A3E2GN605","url":"https://gershmanlab.com/experiments/alicia/teaching/experiment/?hitId=3NI0WFPPI9246I5W92FX9A3E2GN605&workerId=A11YS0T8MV3Q7C&assignmentId=3C8HJ7UOP8G5JQU8RE48TOZ99COZMV&a=OJ8C9&tp_a=OJ8C9&b=3C8HJ7UOP8G5JQU8RE48TOZ99COZMV&tp_b=3C8HJ7UOP8G5JQU8RE48TOZ99COZMV&c=365799&tp_c=365799","firstResponseHeads":2,"firstResponseTails":8,"secondResponseHeads":3,"secondResponseTails":7,"totalHeads":5,"totalTails":15,"studentIndex":22,"studentTrueHypers":{"a":8,"b":2},"studentGuess":0.43333333333333335,"delta":0.23333333333333334,"bonus":0,"bonusSoFar":2.8,"totalExamples":20},{"rt":7392,"response":{"heads":"2","tails":"2"},"type":"response","condition":"seqFeedback","trueTheta":0.5,"classrooms":["A","B"],"studentTrueClassroom":"B","exampleSet":"first","trial_type":"survey-html-form","trial_index":186,"time_elapsed":1339213,"internal_node_id":"0.0-182.0-0.0","params":{"nStudents":24,"maxFlips":30,"completionMinutes":45,"basePay":8,"maxBonus":9,"perTrialBonus":0.5,"perTrialBonusThreshold":0.05,"exampleCost":0.01},"classroomParams":{"A":{"a":1,"b":4},"B":{"a":4,"b":1},"C":{"a":2,"b":8},"D":{"a":8,"b":2}},"conditions":["nonSeqFull","nonSeqPartial","seqNoFeedback","seqFeedback"],"classroomPairings":[["A","B"],["C","D"]],"coinWeights":[0.2,0.5,0.8],"subjectId":"A11YS0T8MV3Q7C","assignmentId":"3C8HJ7UOP8G5JQU8RE48TOZ99COZMV","hitId":"3NI0WFPPI9246I5W92FX9A3E2GN605","url":"https://gershmanlab.com/experiments/alicia/teaching/experiment/?hitId=3NI0WFPPI9246I5W92FX9A3E2GN605&workerId=A11YS0T8MV3Q7C&assignmentId=3C8HJ7UOP8G5JQU8RE48TOZ99COZMV&a=OJ8C9&tp_a=OJ8C9&b=3C8HJ7UOP8G5JQU8RE48TOZ99COZMV&tp_b=3C8HJ7UOP8G5JQU8RE48TOZ99COZMV&c=365799&tp_c=365799","heads":2,"tails":2,"studentIndex":23,"studentTrueHypers":{"a":4,"b":1},"studentGuess":0.6666666666666666,"delta":0.16666666666666663,"totalExamples":4,"bonusSoFar":2.8},{"rt":4507,"response":{"heads":"4","tails":"1"},"type":"response","condition":"seqFeedback","trueTheta":0.5,"classrooms":["A","B"],"studentTrueClassroom":"B","exampleSet":"second","trial_type":"survey-html-form","trial_index":190,"time_elapsed":1352753,"internal_node_id":"0.0-186.0-0.0","params":{"nStudents":24,"maxFlips":30,"completionMinutes":45,"basePay":8,"maxBonus":9,"perTrialBonus":0.5,"perTrialBonusThreshold":0.05,"exampleCost":0.01},"classroomParams":{"A":{"a":1,"b":4},"B":{"a":4,"b":1},"C":{"a":2,"b":8},"D":{"a":8,"b":2}},"conditions":["nonSeqFull","nonSeqPartial","seqNoFeedback","seqFeedback"],"classroomPairings":[["A","B"],["C","D"]],"coinWeights":[0.2,0.5,0.8],"subjectId":"A11YS0T8MV3Q7C","assignmentId":"3C8HJ7UOP8G5JQU8RE48TOZ99COZMV","hitId":"3NI0WFPPI9246I5W92FX9A3E2GN605","url":"https://gershmanlab.com/experiments/alicia/teaching/experiment/?hitId=3NI0WFPPI9246I5W92FX9A3E2GN605&workerId=A11YS0T8MV3Q7C&assignmentId=3C8HJ7UOP8G5JQU8RE48TOZ99COZMV&a=OJ8C9&tp_a=OJ8C9&b=3C8HJ7UOP8G5JQU8RE48TOZ99COZMV&tp_b=3C8HJ7UOP8G5JQU8RE48TOZ99COZMV&c=365799&tp_c=365799","firstResponseHeads":2,"firstResponseTails":2,"secondResponseHeads":4,"secondResponseTails":1,"totalHeads":6,"totalTails":3,"studentIndex":23,"studentTrueHypers":{"a":4,"b":1},"studentGuess":0.7142857142857143,"delta":0.2142857142857143,"bonus":0,"bonusSoFar":2.8,"totalExamples":9},{"rt":14326,"response":{"gender":"male","age":"31","understood":"yes","comments":"Good experiment overall!"},"type":"response","trial_type":"survey-html-form","trial_index":194,"time_elapsed":1376115,"internal_node_id":"0.0-191.0","params":{"nStudents":24,"maxFlips":30,"completionMinutes":45,"basePay":8,"maxBonus":9,"perTrialBonus":0.5,"perTrialBonusThreshold":0.05,"exampleCost":0.01},"classroomParams":{"A":{"a":1,"b":4},"B":{"a":4,"b":1},"C":{"a":2,"b":8},"D":{"a":8,"b":2}},"conditions":["nonSeqFull","nonSeqPartial","seqNoFeedback","seqFeedback"],"classroomPairings":[["A","B"],["C","D"]],"coinWeights":[0.2,0.5,0.8],"subjectId":"A11YS0T8MV3Q7C","assignmentId":"3C8HJ7UOP8G5JQU8RE48TOZ99COZMV","hitId":"3NI0WFPPI9246I5W92FX9A3E2GN605","url":"https://gershmanlab.com/experiments/alicia/teaching/experiment/?hitId=3NI0WFPPI9246I5W92FX9A3E2GN605&workerId=A11YS0T8MV3Q7C&assignmentId=3C8HJ7UOP8G5JQU8RE48TOZ99COZMV&a=OJ8C9&tp_a=OJ8C9&b=3C8HJ7UOP8G5JQU8RE48TOZ99COZMV&tp_b=3C8HJ7UOP8G5JQU8RE48TOZ99COZMV&c=365799&tp_c=365799","totalBonus":2.8}]