[{"rt":64303,"response":{"heads":"5","tails":"5"},"type":"response","condition":"nonSeqPartial","trueTheta":0.5,"classrooms":["C","D"],"studentTrueClassroom":"D","exampleSet":"first","trial_type":"survey-html-form","trial_index":10,"time_elapsed":606429,"internal_node_id":"0.0-6.0-0.0","params":{"nStudents":24,"maxFlips":30,"completionMinutes":45,"basePay":8,"maxBonus":9,"perTrialBonus":0.5,"perTrialBonusThreshold":0.05,"exampleCost":0.01},"classroomParams":{"A":{"a":1,"b":4},"B":{"a":4,"b":1},"C":{"a":2,"b":8},"D":{"a":8,"b":2}},"conditions":["nonSeqFull","nonSeqPartial","seqNoFeedback","seqFeedback"],"classroomPairings":[["A","B"],["C","D"]],"coinWeights":[0.2,0.5,0.8],"subjectId":"A12HWPFXQPITHD","assignmentId":"36W0OB37HX0JRCTX0HOV1JRDSQPHZ4","hitId":"363A7XIFV48LMLIF2CKYA8VQSVQAVR","url":"https://gershmanlab.com/experiments/alicia/teaching/experiment/?hitId=363A7XIFV48LMLIF2CKYA8VQSVQAVR&workerId=A12HWPFXQPITHD&assignmentId=36W0OB37HX0JRCTX0HOV1JRDSQPHZ4&a=7OW69&tp_a=7OW69&b=36W0OB37HX0JRCTX0HOV1JRDSQPHZ4&tp_b=36W0OB37HX0JRCTX0HOV1JRDSQPHZ4&c=365799&tp_c=365799","heads":5,"tails":5,"studentIndex":0,"studentTrueHypers":{"a":8,"b":2},"studentGuess":0.65,"delta":0.15000000000000002,"totalExamples":10,"bonus":0,"bonusSoFar":0},{"rt":19864,"response":{"heads":"8","tails":"8"},"type":"response","condition":"seqFeedback","trueTheta":0.5,"classrooms":["C","D"],"studentTrueClassroom":"C","exampleSet":"first","trial_type":"survey-html-form","trial_index":16,"time_elapsed":647213,"internal_node_id":"0.0-12.0-0.0","params":{"nStudents":24,"maxFlips":30,"completionMinutes":45,"basePay":8,"maxBonus":9,"perTrialBonus":0.5,"perTrialBonusThreshold":0.05,"exampleCost":0.01},"classroomParams":{"A":{"a":1,"b":4},"B":{"a":4,"b":1},"C":{"a":2,"b":8},"D":{"a":8,"b":2}},"conditions":["nonSeqFull","nonSeqPartial","seqNoFeedback","seqFeedback"],"classroomPairings":[["A","B"],["C","D"]],"coinWeights":[0.2,0.5,0.8],"subjectId":"A12HWPFXQPITHD","assignmentId":"36W0OB37HX0JRCTX0HOV1JRDSQPHZ4","hitId":"363A7XIFV48LMLIF2CKYA8VQSVQAVR","url":"https://gershmanlab.com/experiments/alicia/teaching/experiment/?hitId=363A7XIFV48LMLIF2CKYA8VQSVQAVR&workerId=A12HWPFXQPITHD&assignmentId=36W0OB37HX0JRCTX0HOV1JRDSQPHZ4&a=7OW69&tp_a=7OW69&b=36W0OB37HX0JRCTX0HOV1JRDSQPHZ4&tp_b=36W0OB37HX0JRCTX0HOV1JRDSQPHZ4&c=365799&tp_c=365799","heads":8,"tails":8,"studentIndex":1,"studentTrueHypers":{"a":2,"b":8},"studentGuess":0.38461538461538464,"delta":0.11538461538461536,"totalExamples":16,"bonusSoFar":0},{"rt":58215,"response":{"heads":"6","tails":"6"},"type":"response","condition":"seqFeedback","trueTheta":0.5,"classrooms":["C","D"],"studentTrueClassroom":"C","exampleSet":"second","trial_type":"survey-html-form","trial_index":20,"time_elapsed":725269,"internal_node_id":"0.0-16.0-0.0","params":{"nStudents":24,"maxFlips":30,"completionMinutes":45,"basePay":8,"maxBonus":9,"perTrialBonus":0.5,"perTrialBonusThreshold":0.05,"exampleCost":0.01},"classroomParams":{"A":{"a":1,"b":4},"B":{"a":4,"b":1},"C":{"a":2,"b":8},"D":{"a":8,"b":2}},"conditions":["nonSeqFull","nonSeqPartial","seqNoFeedback","seqFeedback"],"classroomPairings":[["A","B"],["C","D"]],"coinWeights":[0.2,0.5,0.8],"subjectId":"A12HWPFXQPITHD","assignmentId":"36W0OB37HX0JRCTX0HOV1JRDSQPHZ4","hitId":"363A7XIFV48LMLIF2CKYA8VQSVQAVR","url":"https://gershmanlab.com/experiments/alicia/teaching/experiment/?hitId=363A7XIFV48LMLIF2CKYA8VQSVQAVR&workerId=A12HWPFXQPITHD&assignmentId=36W0OB37HX0JRCTX0HOV1JRDSQPHZ4&a=7OW69&tp_a=7OW69&b=36W0OB37HX0JRCTX0HOV1JRDSQPHZ4&tp_b=36W0OB37HX0JRCTX0HOV1JRDSQPHZ4&c=365799&tp_c=365799","firstResponseHeads":8,"firstResponseTails":8,"secondResponseHeads":6,"secondResponseTails":6,"totalHeads":14,"totalTails":14,"studentIndex":1,"studentTrueHypers":{"a":2,"b":8},"studentGuess":0.42105263157894735,"delta":0.07894736842105265,"bonus":0,"bonusSoFar":0,"totalExamples":28},{"rt":35600,"response":{"heads":"4","tails":"1"},"type":"response","condition":"nonSeqFull","trueTheta":0.2,"classrooms":["A","B"],"studentTrueClassroom":"A","exampleSet":"first","trial_type":"survey-html-form","trial_index":26,"time_elapsed":782925,"internal_node_id":"0.0-22.0-0.0","params":{"nStudents":24,"maxFlips":30,"completionMinutes":45,"basePay":8,"maxBonus":9,"perTrialBonus":0.5,"perTrialBonusThreshold":0.05,"exampleCost":0.01},"classroomParams":{"A":{"a":1,"b":4},"B":{"a":4,"b":1},"C":{"a":2,"b":8},"D":{"a":8,"b":2}},"conditions":["nonSeqFull","nonSeqPartial","seqNoFeedback","seqFeedback"],"classroomPairings":[["A","B"],["C","D"]],"coinWeights":[0.2,0.5,0.8],"subjectId":"A12HWPFXQPITHD","assignmentId":"36W0OB37HX0JRCTX0HOV1JRDSQPHZ4","hitId":"363A7XIFV48LMLIF2CKYA8VQSVQAVR","url":"https://gershmanlab.com/experiments/alicia/teaching/experiment/?hitId=363A7XIFV48LMLIF2CKYA8VQSVQAVR&workerId=A12HWPFXQPITHD&assignmentId=36W0OB37HX0JRCTX0HOV1JRDSQPHZ4&a=7OW69&tp_a=7OW69&b=36W0OB37HX0JRCTX0HOV1JRDSQPHZ4&tp_b=36W0OB37HX0JRCTX0HOV1JRDSQPHZ4&c=365799&tp_c=365799","heads":4,"tails":1,"studentIndex":2,"studentTrueHypers":{"a":1,"b":4},"studentGuess":0.5,"delta":0.3,"totalExamples":5,"bonus":0,"bonusSoFar":0},{"rt":10088,"response":{"heads":"0","tails":"0"},"type":"response","condition":"seqNoFeedback","trueTheta":0.2,"classrooms":["C","D"],"studentTrueClassroom":"C","exampleSet":"first","trial_type":"survey-html-form","trial_index":32,"time_elapsed":812637,"internal_node_id":"0.0-28.0-0.0","params":{"nStudents":24,"maxFlips":30,"completionMinutes":45,"basePay":8,"maxBonus":9,"perTrialBonus":0.5,"perTrialBonusThreshold":0.05,"exampleCost":0.01},"classroomParams":{"A":{"a":1,"b":4},"B":{"a":4,"b":1},"C":{"a":2,"b":8},"D":{"a":8,"b":2}},"conditions":["nonSeqFull","nonSeqPartial","seqNoFeedback","seqFeedback"],"classroomPairings":[["A","B"],["C","D"]],"coinWeights":[0.2,0.5,0.8],"subjectId":"A12HWPFXQPITHD","assignmentId":"36W0OB37HX0JRCTX0HOV1JRDSQPHZ4","hitId":"363A7XIFV48LMLIF2CKYA8VQSVQAVR","url":"https://gershmanlab.com/experiments/alicia/teaching/experiment/?hitId=363A7XIFV48LMLIF2CKYA8VQSVQAVR&workerId=A12HWPFXQPITHD&assignmentId=36W0OB37HX0JRCTX0HOV1JRDSQPHZ4&a=7OW69&tp_a=7OW69&b=36W0OB37HX0JRCTX0HOV1JRDSQPHZ4&tp_b=36W0OB37HX0JRCTX0HOV1JRDSQPHZ4&c=365799&tp_c=365799","heads":0,"tails":0,"studentIndex":3,"studentTrueHypers":{"a":2,"b":8},"studentGuess":0.2,"delta":0,"totalExamples":0,"bonusSoFar":0},{"rt":1191,"response":{"heads":"0","tails":"0"},"type":"response","condition":"seqNoFeedback","trueTheta":0.2,"classrooms":["C","D"],"studentTrueClassroom":"C","exampleSet":"first","trial_type":"survey-html-form","trial_index":33,"time_elapsed":813829,"internal_node_id":"0.0-28.1-0.1","params":{"nStudents":24,"maxFlips":30,"completionMinutes":45,"basePay":8,"maxBonus":9,"perTrialBonus":0.5,"perTrialBonusThreshold":0.05,"exampleCost":0.01},"classroomParams":{"A":{"a":1,"b":4},"B":{"a":4,"b":1},"C":{"a":2,"b":8},"D":{"a":8,"b":2}},"conditions":["nonSeqFull","nonSeqPartial","seqNoFeedback","seqFeedback"],"classroomPairings":[["A","B"],["C","D"]],"coinWeights":[0.2,0.5,0.8],"subjectId":"A12HWPFXQPITHD","assignmentId":"36W0OB37HX0JRCTX0HOV1JRDSQPHZ4","hitId":"363A7XIFV48LMLIF2CKYA8VQSVQAVR","url":"https://gershmanlab.com/experiments/alicia/teaching/experiment/?hitId=363A7XIFV48LMLIF2CKYA8VQSVQAVR&workerId=A12HWPFXQPITHD&assignmentId=36W0OB37HX0JRCTX0HOV1JRDSQPHZ4&a=7OW69&tp_a=7OW69&b=36W0OB37HX0JRCTX0HOV1JRDSQPHZ4&tp_b=36W0OB37HX0JRCTX0HOV1JRDSQPHZ4&c=365799&tp_c=365799","heads":0,"tails":0,"studentIndex":3,"studentTrueHypers":{"a":2,"b":8},"studentGuess":0.2,"delta":0,"totalExamples":0,"bonusSoFar":0},{"rt":379,"response":{"heads":"0","tails":"0"},"type":"response","condition":"seqNoFeedback","trueTheta":0.2,"classrooms":["C","D"],"studentTrueClassroom":"C","exampleSet":"first","trial_type":"survey-html-form","trial_index":34,"time_elapsed":814208,"internal_node_id":"0.0-28.2-0.2","params":{"nStudents":24,"maxFlips":30,"completionMinutes":45,"basePay":8,"maxBonus":9,"perTrialBonus":0.5,"perTrialBonusThreshold":0.05,"exampleCost":0.01},"classroomParams":{"A":{"a":1,"b":4},"B":{"a":4,"b":1},"C":{"a":2,"b":8},"D":{"a":8,"b":2}},"conditions":["nonSeqFull","nonSeqPartial","seqNoFeedback","seqFeedback"],"classroomPairings":[["A","B"],["C","D"]],"coinWeights":[0.2,0.5,0.8],"subjectId":"A12HWPFXQPITHD","assignmentId":"36W0OB37HX0JRCTX0HOV1JRDSQPHZ4","hitId":"363A7XIFV48LMLIF2CKYA8VQSVQAVR","url":"https://gershmanlab.com/experiments/alicia/teaching/experiment/?hitId=363A7XIFV48LMLIF2CKYA8VQSVQAVR&workerId=A12HWPFXQPITHD&assignmentId=36W0OB37HX0JRCTX0HOV1JRDSQPHZ4&a=7OW69&tp_a=7OW69&b=36W0OB37HX0JRCTX0HOV1JRDSQPHZ4&tp_b=36W0OB37HX0JRCTX0HOV1JRDSQPHZ4&c=365799&tp_c=365799","heads":0,"tails":0,"studentIndex":3,"studentTrueHypers":{"a":2,"b":8},"studentGuess":0.2,"delta":0,"totalExamples":0,"bonusSoFar":0},{"rt":964,"response":{"heads":"0","tails":"0"},"type":"response","condition":"seqNoFeedback","trueTheta":0.2,"classrooms":["C","D"],"studentTrueClassroom":"C","exampleSet":"first","trial_type":"survey-html-form","trial_index":35,"time_elapsed":815173,"internal_node_id":"0.0-28.3-0.3","params":{"nStudents":24,"maxFlips":30,"completionMinutes":45,"basePay":8,"maxBonus":9,"perTrialBonus":0.5,"perTrialBonusThreshold":0.05,"exampleCost":0.01},"classroomParams":{"A":{"a":1,"b":4},"B":{"a":4,"b":1},"C":{"a":2,"b":8},"D":{"a":8,"b":2}},"conditions":["nonSeqFull","nonSeqPartial","seqNoFeedback","seqFeedback"],"classroomPairings":[["A","B"],["C","D"]],"coinWeights":[0.2,0.5,0.8],"subjectId":"A12HWPFXQPITHD","assignmentId":"36W0OB37HX0JRCTX0HOV1JRDSQPHZ4","hitId":"363A7XIFV48LMLIF2CKYA8VQSVQAVR","url":"https://gershmanlab.com/experiments/alicia/teaching/experiment/?hitId=363A7XIFV48LMLIF2CKYA8VQSVQAVR&workerId=A12HWPFXQPITHD&assignmentId=36W0OB37HX0JRCTX0HOV1JRDSQPHZ4&a=7OW69&tp_a=7OW69&b=36W0OB37HX0JRCTX0HOV1JRDSQPHZ4&tp_b=36W0OB37HX0JRCTX0HOV1JRDSQPHZ4&c=365799&tp_c=365799","heads":0,"tails":0,"studentIndex":3,"studentTrueHypers":{"a":2,"b":8},"studentGuess":0.2,"delta":0,"totalExamples":0,"bonusSoFar":0},{"rt":168,"response":{"heads":"0","tails":"0"},"type":"response","condition":"seqNoFeedback","trueTheta":0.2,"classrooms":["C","D"],"studentTrueClassroom":"C","exampleSet":"first","trial_type":"survey-html-form","trial_index":36,"time_elapsed":815341,"internal_node_id":"0.0-28.4-0.4","params":{"nStudents":24,"maxFlips":30,"completionMinutes":45,"basePay":8,"maxBonus":9,"perTrialBonus":0.5,"perTrialBonusThreshold":0.05,"exampleCost":0.01},"classroomParams":{"A":{"a":1,"b":4},"B":{"a":4,"b":1},"C":{"a":2,"b":8},"D":{"a":8,"b":2}},"conditions":["nonSeqFull","nonSeqPartial","seqNoFeedback","seqFeedback"],"classroomPairings":[["A","B"],["C","D"]],"coinWeights":[0.2,0.5,0.8],"subjectId":"A12HWPFXQPITHD","assignmentId":"36W0OB37HX0JRCTX0HOV1JRDSQPHZ4","hitId":"363A7XIFV48LMLIF2CKYA8VQSVQAVR","url":"https://gershmanlab.com/experiments/alicia/teaching/experiment/?hitId=363A7XIFV48LMLIF2CKYA8VQSVQAVR&workerId=A12HWPFXQPITHD&assignmentId=36W0OB37HX0JRCTX0HOV1JRDSQPHZ4&a=7OW69&tp_a=7OW69&b=36W0OB37HX0JRCTX0HOV1JRDSQPHZ4&tp_b=36W0OB37HX0JRCTX0HOV1JRDSQPHZ4&c=365799&tp_c=365799","heads":0,"tails":0,"studentIndex":3,"studentTrueHypers":{"a":2,"b":8},"studentGuess":0.2,"delta":0,"totalExamples":0,"bonusSoFar":0},{"rt":159,"response":{"heads":"0","tails":"0"},"type":"response","condition":"seqNoFeedback","trueTheta":0.2,"classrooms":["C","D"],"studentTrueClassroom":"C","exampleSet":"first","trial_type":"survey-html-form","trial_index":37,"time_elapsed":815501,"internal_node_id":"0.0-28.5-0.5","params":{"nStudents":24,"maxFlips":30,"completionMinutes":45,"basePay":8,"maxBonus":9,"perTrialBonus":0.5,"perTrialBonusThreshold":0.05,"exampleCost":0.01},"classroomParams":{"A":{"a":1,"b":4},"B":{"a":4,"b":1},"C":{"a":2,"b":8},"D":{"a":8,"b":2}},"conditions":["nonSeqFull","nonSeqPartial","seqNoFeedback","seqFeedback"],"classroomPairings":[["A","B"],["C","D"]],"coinWeights":[0.2,0.5,0.8],"subjectId":"A12HWPFXQPITHD","assignmentId":"36W0OB37HX0JRCTX0HOV1JRDSQPHZ4","hitId":"363A7XIFV48LMLIF2CKYA8VQSVQAVR","url":"https://gershmanlab.com/experiments/alicia/teaching/experiment/?hitId=363A7XIFV48LMLIF2CKYA8VQSVQAVR&workerId=A12HWPFXQPITHD&assignmentId=36W0OB37HX0JRCTX0HOV1JRDSQPHZ4&a=7OW69&tp_a=7OW69&b=36W0OB37HX0JRCTX0HOV1JRDSQPHZ4&tp_b=36W0OB37HX0JRCTX0HOV1JRDSQPHZ4&c=365799&tp_c=365799","heads":0,"tails":0,"studentIndex":3,"studentTrueHypers":{"a":2,"b":8},"studentGuess":0.2,"delta":0,"totalExamples":0,"bonusSoFar":0},{"rt":16663,"response":{"heads":"0","tails":"0"},"type":"response","condition":"seqNoFeedback","trueTheta":0.2,"classrooms":["C","D"],"studentTrueClassroom":"C","exampleSet":"first","trial_type":"survey-html-form","trial_index":38,"time_elapsed":832165,"internal_node_id":"0.0-28.6-0.6","params":{"nStudents":24,"maxFlips":30,"completionMinutes":45,"basePay":8,"maxBonus":9,"perTrialBonus":0.5,"perTrialBonusThreshold":0.05,"exampleCost":0.01},"classroomParams":{"A":{"a":1,"b":4},"B":{"a":4,"b":1},"C":{"a":2,"b":8},"D":{"a":8,"b":2}},"conditions":["nonSeqFull","nonSeqPartial","seqNoFeedback","seqFeedback"],"classroomPairings":[["A","B"],["C","D"]],"coinWeights":[0.2,0.5,0.8],"subjectId":"A12HWPFXQPITHD","assignmentId":"36W0OB37HX0JRCTX0HOV1JRDSQPHZ4","hitId":"363A7XIFV48LMLIF2CKYA8VQSVQAVR","url":"https://gershmanlab.com/experiments/alicia/teaching/experiment/?hitId=363A7XIFV48LMLIF2CKYA8VQSVQAVR&workerId=A12HWPFXQPITHD&assignmentId=36W0OB37HX0JRCTX0HOV1JRDSQPHZ4&a=7OW69&tp_a=7OW69&b=36W0OB37HX0JRCTX0HOV1JRDSQPHZ4&tp_b=36W0OB37HX0JRCTX0HOV1JRDSQPHZ4&c=365799&tp_c=365799","heads":0,"tails":0,"studentIndex":3,"studentTrueHypers":{"a":2,"b":8},"studentGuess":0.2,"delta":0,"totalExamples":0,"bonusSoFar":0},{"rt":143,"response":{"heads":"0","tails":"0"},"type":"response","condition":"seqNoFeedback","trueTheta":0.2,"classrooms":["C","D"],"studentTrueClassroom":"C","exampleSet":"first","trial_type":"survey-html-form","trial_index":39,"time_elapsed":832309,"internal_node_id":"0.0-28.7-0.7","params":{"nStudents":24,"maxFlips":30,"completionMinutes":45,"basePay":8,"maxBonus":9,"perTrialBonus":0.5,"perTrialBonusThreshold":0.05,"exampleCost":0.01},"classroomParams":{"A":{"a":1,"b":4},"B":{"a":4,"b":1},"C":{"a":2,"b":8},"D":{"a":8,"b":2}},"conditions":["nonSeqFull","nonSeqPartial","seqNoFeedback","seqFeedback"],"classroomPairings":[["A","B"],["C","D"]],"coinWeights":[0.2,0.5,0.8],"subjectId":"A12HWPFXQPITHD","assignmentId":"36W0OB37HX0JRCTX0HOV1JRDSQPHZ4","hitId":"363A7XIFV48LMLIF2CKYA8VQSVQAVR","url":"https://gershmanlab.com/experiments/alicia/teaching/experiment/?hitId=363A7XIFV48LMLIF2CKYA8VQSVQAVR&workerId=A12HWPFXQPITHD&assignmentId=36W0OB37HX0JRCTX0HOV1JRDSQPHZ4&a=7OW69&tp_a=7OW69&b=36W0OB37HX0JRCTX0HOV1JRDSQPHZ4&tp_b=36W0OB37HX0JRCTX0HOV1JRDSQPHZ4&c=365799&tp_c=365799","heads":0,"tails":0,"studentIndex":3,"studentTrueHypers":{"a":2,"b":8},"studentGuess":0.2,"delta":0,"totalExamples":0,"bonusSoFar":0},{"rt":3783,"response":{"heads":"0","tails":"1"},"type":"response","condition":"seqNoFeedback","trueTheta":0.2,"classrooms":["C","D"],"studentTrueClassroom":"C","exampleSet":"first","trial_type":"survey-html-form","trial_index":40,"time_elapsed":836093,"internal_node_id":"0.0-28.8-0.8","params":{"nStudents":24,"maxFlips":30,"completionMinutes":45,"basePay":8,"maxBonus":9,"perTrialBonus":0.5,"perTrialBonusThreshold":0.05,"exampleCost":0.01},"classroomParams":{"A":{"a":1,"b":4},"B":{"a":4,"b":1},"C":{"a":2,"b":8},"D":{"a":8,"b":2}},"conditions":["nonSeqFull","nonSeqPartial","seqNoFeedback","seqFeedback"],"classroomPairings":[["A","B"],["C","D"]],"coinWeights":[0.2,0.5,0.8],"subjectId":"A12HWPFXQPITHD","assignmentId":"36W0OB37HX0JRCTX0HOV1JRDSQPHZ4","hitId":"363A7XIFV48LMLIF2CKYA8VQSVQAVR","url":"https://gershmanlab.com/experiments/alicia/teaching/experiment/?hitId=363A7XIFV48LMLIF2CKYA8VQSVQAVR&workerId=A12HWPFXQPITHD&assignmentId=36W0OB37HX0JRCTX0HOV1JRDSQPHZ4&a=7OW69&tp_a=7OW69&b=36W0OB37HX0JRCTX0HOV1JRDSQPHZ4&tp_b=36W0OB37HX0JRCTX0HOV1JRDSQPHZ4&c=365799&tp_c=365799","heads":0,"tails":1,"studentIndex":3,"studentTrueHypers":{"a":2,"b":8},"studentGuess":0.18181818181818182,"delta":0.018181818181818188,"totalExamples":1,"bonusSoFar":0},{"rt":5746,"response":{"heads":"1","tails":"0"},"type":"response","condition":"seqNoFeedback","trueTheta":0.2,"classrooms":["C","D"],"studentTrueClassroom":"C","exampleSet":"second","trial_type":"survey-html-form","trial_index":43,"time_elapsed":848861,"internal_node_id":"0.0-31.0-0.0","params":{"nStudents":24,"maxFlips":30,"completionMinutes":45,"basePay":8,"maxBonus":9,"perTrialBonus":0.5,"perTrialBonusThreshold":0.05,"exampleCost":0.01},"classroomParams":{"A":{"a":1,"b":4},"B":{"a":4,"b":1},"C":{"a":2,"b":8},"D":{"a":8,"b":2}},"conditions":["nonSeqFull","nonSeqPartial","seqNoFeedback","seqFeedback"],"classroomPairings":[["A","B"],["C","D"]],"coinWeights":[0.2,0.5,0.8],"subjectId":"A12HWPFXQPITHD","assignmentId":"36W0OB37HX0JRCTX0HOV1JRDSQPHZ4","hitId":"363A7XIFV48LMLIF2CKYA8VQSVQAVR","url":"https://gershmanlab.com/experiments/alicia/teaching/experiment/?hitId=363A7XIFV48LMLIF2CKYA8VQSVQAVR&workerId=A12HWPFXQPITHD&assignmentId=36W0OB37HX0JRCTX0HOV1JRDSQPHZ4&a=7OW69&tp_a=7OW69&b=36W0OB37HX0JRCTX0HOV1JRDSQPHZ4&tp_b=36W0OB37HX0JRCTX0HOV1JRDSQPHZ4&c=365799&tp_c=365799","firstResponseHeads":0,"firstResponseTails":0,"secondResponseHeads":1,"secondResponseTails":0,"totalHeads":1,"totalTails":0,"studentIndex":3,"studentTrueHypers":{"a":2,"b":8},"studentGuess":0.2727272727272727,"delta":0.0727272727272727,"bonus":0,"bonusSoFar":0,"totalExamples":1},{"rt":29335,"response":{"heads":"1","tails":"0"},"type":"response","condition":"seqFeedback","trueTheta":0.8,"classrooms":["A","B"],"studentTrueClassroom":"B","exampleSet":"first","trial_type":"survey-html-form","trial_index":49,"time_elapsed":896197,"internal_node_id":"0.0-37.0-0.0","params":{"nStudents":24,"maxFlips":30,"completionMinutes":45,"basePay":8,"maxBonus":9,"perTrialBonus":0.5,"perTrialBonusThreshold":0.05,"exampleCost":0.01},"classroomParams":{"A":{"a":1,"b":4},"B":{"a":4,"b":1},"C":{"a":2,"b":8},"D":{"a":8,"b":2}},"conditions":["nonSeqFull","nonSeqPartial","seqNoFeedback","seqFeedback"],"classroomPairings":[["A","B"],["C","D"]],"coinWeights":[0.2,0.5,0.8],"subjectId":"A12HWPFXQPITHD","assignmentId":"36W0OB37HX0JRCTX0HOV1JRDSQPHZ4","hitId":"363A7XIFV48LMLIF2CKYA8VQSVQAVR","url":"https://gershmanlab.com/experiments/alicia/teaching/experiment/?hitId=363A7XIFV48LMLIF2CKYA8VQSVQAVR&workerId=A12HWPFXQPITHD&assignmentId=36W0OB37HX0JRCTX0HOV1JRDSQPHZ4&a=7OW69&tp_a=7OW69&b=36W0OB37HX0JRCTX0HOV1JRDSQPHZ4&tp_b=36W0OB37HX0JRCTX0HOV1JRDSQPHZ4&c=365799&tp_c=365799","heads":1,"tails":0,"studentIndex":4,"studentTrueHypers":{"a":4,"b":1},"studentGuess":0.8333333333333334,"delta":0.033333333333333326,"totalExamples":1,"bonusSoFar":0},{"rt":4312,"response":{"heads":"0","tails":"1"},"type":"response","condition":"seqFeedback","trueTheta":0.8,"classrooms":["A","B"],"studentTrueClassroom":"B","exampleSet":"second","trial_type":"survey-html-form","trial_index":53,"time_elapsed":914053,"internal_node_id":"0.0-41.0-0.0","params":{"nStudents":24,"maxFlips":30,"completionMinutes":45,"basePay":8,"maxBonus":9,"perTrialBonus":0.5,"perTrialBonusThreshold":0.05,"exampleCost":0.01},"classroomParams":{"A":{"a":1,"b":4},"B":{"a":4,"b":1},"C":{"a":2,"b":8},"D":{"a":8,"b":2}},"conditions":["nonSeqFull","nonSeqPartial","seqNoFeedback","seqFeedback"],"classroomPairings":[["A","B"],["C","D"]],"coinWeights":[0.2,0.5,0.8],"subjectId":"A12HWPFXQPITHD","assignmentId":"36W0OB37HX0JRCTX0HOV1JRDSQPHZ4","hitId":"363A7XIFV48LMLIF2CKYA8VQSVQAVR","url":"https://gershmanlab.com/experiments/alicia/teaching/experiment/?hitId=363A7XIFV48LMLIF2CKYA8VQSVQAVR&workerId=A12HWPFXQPITHD&assignmentId=36W0OB37HX0JRCTX0HOV1JRDSQPHZ4&a=7OW69&tp_a=7OW69&b=36W0OB37HX0JRCTX0HOV1JRDSQPHZ4&tp_b=36W0OB37HX0JRCTX0HOV1JRDSQPHZ4&c=365799&tp_c=365799","firstResponseHeads":1,"firstResponseTails":0,"secondResponseHeads":0,"secondResponseTails":1,"totalHeads":1,"totalTails":1,"studentIndex":4,"studentTrueHypers":{"a":4,"b":1},"studentGuess":0.7142857142857143,"delta":0.08571428571428574,"bonus":0,"bonusSoFar":0,"totalExamples":2},{"rt":4032,"response":{"heads":"1","tails":"0"},"type":"response","condition":"seqFeedback","trueTheta":0.2,"classrooms":["C","D"],"studentTrueClassroom":"C","exampleSet":"first","trial_type":"survey-html-form","trial_index":59,"time_elapsed":932869,"internal_node_id":"0.0-47.0-0.0","params":{"nStudents":24,"maxFlips":30,"completionMinutes":45,"basePay":8,"maxBonus":9,"perTrialBonus":0.5,"perTrialBonusThreshold":0.05,"exampleCost":0.01},"classroomParams":{"A":{"a":1,"b":4},"B":{"a":4,"b":1},"C":{"a":2,"b":8},"D":{"a":8,"b":2}},"conditions":["nonSeqFull","nonSeqPartial","seqNoFeedback","seqFeedback"],"classroomPairings":[["A","B"],["C","D"]],"coinWeights":[0.2,0.5,0.8],"subjectId":"A12HWPFXQPITHD","assignmentId":"36W0OB37HX0JRCTX0HOV1JRDSQPHZ4","hitId":"363A7XIFV48LMLIF2CKYA8VQSVQAVR","url":"https://gershmanlab.com/experiments/alicia/teaching/experiment/?hitId=363A7XIFV48LMLIF2CKYA8VQSVQAVR&workerId=A12HWPFXQPITHD&assignmentId=36W0OB37HX0JRCTX0HOV1JRDSQPHZ4&a=7OW69&tp_a=7OW69&b=36W0OB37HX0JRCTX0HOV1JRDSQPHZ4&tp_b=36W0OB37HX0JRCTX0HOV1JRDSQPHZ4&c=365799&tp_c=365799","heads":1,"tails":0,"studentIndex":5,"studentTrueHypers":{"a":2,"b":8},"studentGuess":0.2727272727272727,"delta":0.0727272727272727,"totalExamples":1,"bonusSoFar":0},{"rt":16408,"response":{"heads":"2","tails":"8"},"type":"response","condition":"seqFeedback","trueTheta":0.2,"classrooms":["C","D"],"studentTrueClassroom":"C","exampleSet":"second","trial_type":"survey-html-form","trial_index":63,"time_elapsed":960005,"internal_node_id":"0.0-51.0-0.0","params":{"nStudents":24,"maxFlips":30,"completionMinutes":45,"basePay":8,"maxBonus":9,"perTrialBonus":0.5,"perTrialBonusThreshold":0.05,"exampleCost":0.01},"classroomParams":{"A":{"a":1,"b":4},"B":{"a":4,"b":1},"C":{"a":2,"b":8},"D":{"a":8,"b":2}},"conditions":["nonSeqFull","nonSeqPartial","seqNoFeedback","seqFeedback"],"classroomPairings":[["A","B"],["C","D"]],"coinWeights":[0.2,0.5,0.8],"subjectId":"A12HWPFXQPITHD","assignmentId":"36W0OB37HX0JRCTX0HOV1JRDSQPHZ4","hitId":"363A7XIFV48LMLIF2CKYA8VQSVQAVR","url":"https://gershmanlab.com/experiments/alicia/teaching/experiment/?hitId=363A7XIFV48LMLIF2CKYA8VQSVQAVR&workerId=A12HWPFXQPITHD&assignmentId=36W0OB37HX0JRCTX0HOV1JRDSQPHZ4&a=7OW69&tp_a=7OW69&b=36W0OB37HX0JRCTX0HOV1JRDSQPHZ4&tp_b=36W0OB37HX0JRCTX0HOV1JRDSQPHZ4&c=365799&tp_c=365799","firstResponseHeads":1,"firstResponseTails":0,"secondResponseHeads":2,"secondResponseTails":8,"totalHeads":3,"totalTails":8,"studentIndex":5,"studentTrueHypers":{"a":2,"b":8},"studentGuess":0.23809523809523808,"delta":0.03809523809523807,"bonus":0.39,"bonusSoFar":0.39,"totalExamples":11},{"rt":15166,"response":{"heads":"8","tails":"02"},"type":"response","condition":"nonSeqFull","trueTheta":0.8,"classrooms":["C","D"],"studentTrueClassroom":"D","exampleSet":"first","trial_type":"survey-html-form","trial_index":69,"time_elapsed":990251,"internal_node_id":"0.0-57.0-0.0","params":{"nStudents":24,"maxFlips":30,"completionMinutes":45,"basePay":8,"maxBonus":9,"perTrialBonus":0.5,"perTrialBonusThreshold":0.05,"exampleCost":0.01},"classroomParams":{"A":{"a":1,"b":4},"B":{"a":4,"b":1},"C":{"a":2,"b":8},"D":{"a":8,"b":2}},"conditions":["nonSeqFull","nonSeqPartial","seqNoFeedback","seqFeedback"],"classroomPairings":[["A","B"],["C","D"]],"coinWeights":[0.2,0.5,0.8],"subjectId":"A12HWPFXQPITHD","assignmentId":"36W0OB37HX0JRCTX0HOV1JRDSQPHZ4","hitId":"363A7XIFV48LMLIF2CKYA8VQSVQAVR","url":"https://gershmanlab.com/experiments/alicia/teaching/experiment/?hitId=363A7XIFV48LMLIF2CKYA8VQSVQAVR&workerId=A12HWPFXQPITHD&assignmentId=36W0OB37HX0JRCTX0HOV1JRDSQPHZ4&a=7OW69&tp_a=7OW69&b=36W0OB37HX0JRCTX0HOV1JRDSQPHZ4&tp_b=36W0OB37HX0JRCTX0HOV1JRDSQPHZ4&c=365799&tp_c=365799","heads":8,"tails":2,"studentIndex":6,"studentTrueHypers":{"a":8,"b":2},"studentGuess":0.8,"delta":0,"totalExamples":10,"bonus":0.4,"bonusSoFar":0.79},{"rt":81951,"response":{"heads":"5","tails":"20"},"type":"response","condition":"seqNoFeedback","trueTheta":0.2,"classrooms":["A","B"],"studentTrueClassroom":"B","exampleSet":"first","trial_type":"survey-html-form","trial_index":75,"time_elapsed":1084701,"internal_node_id":"0.0-63.0-0.0","params":{"nStudents":24,"maxFlips":30,"completionMinutes":45,"basePay":8,"maxBonus":9,"perTrialBonus":0.5,"perTrialBonusThreshold":0.05,"exampleCost":0.01},"classroomParams":{"A":{"a":1,"b":4},"B":{"a":4,"b":1},"C":{"a":2,"b":8},"D":{"a":8,"b":2}},"conditions":["nonSeqFull","nonSeqPartial","seqNoFeedback","seqFeedback"],"classroomPairings":[["A","B"],["C","D"]],"coinWeights":[0.2,0.5,0.8],"subjectId":"A12HWPFXQPITHD","assignmentId":"36W0OB37HX0JRCTX0HOV1JRDSQPHZ4","hitId":"363A7XIFV48LMLIF2CKYA8VQSVQAVR","url":"https://gershmanlab.com/experiments/alicia/teaching/experiment/?hitId=363A7XIFV48LMLIF2CKYA8VQSVQAVR&workerId=A12HWPFXQPITHD&assignmentId=36W0OB37HX0JRCTX0HOV1JRDSQPHZ4&a=7OW69&tp_a=7OW69&b=36W0OB37HX0JRCTX0HOV1JRDSQPHZ4&tp_b=36W0OB37HX0JRCTX0HOV1JRDSQPHZ4&c=365799&tp_c=365799","heads":5,"tails":20,"studentIndex":7,"studentTrueHypers":{"a":4,"b":1},"studentGuess":0.3,"delta":0.09999999999999998,"totalExamples":25,"bonusSoFar":0.79},{"rt":13552,"response":{"heads":"20","tails":"05"},"type":"response","condition":"seqNoFeedback","trueTheta":0.2,"classrooms":["A","B"],"studentTrueClassroom":"B","exampleSet":"second","trial_type":"survey-html-form","trial_index":78,"time_elapsed":1105511,"internal_node_id":"0.0-66.0-0.0","params":{"nStudents":24,"maxFlips":30,"completionMinutes":45,"basePay":8,"maxBonus":9,"perTrialBonus":0.5,"perTrialBonusThreshold":0.05,"exampleCost":0.01},"classroomParams":{"A":{"a":1,"b":4},"B":{"a":4,"b":1},"C":{"a":2,"b":8},"D":{"a":8,"b":2}},"conditions":["nonSeqFull","nonSeqPartial","seqNoFeedback","seqFeedback"],"classroomPairings":[["A","B"],["C","D"]],"coinWeights":[0.2,0.5,0.8],"subjectId":"A12HWPFXQPITHD","assignmentId":"36W0OB37HX0JRCTX0HOV1JRDSQPHZ4","hitId":"363A7XIFV48LMLIF2CKYA8VQSVQAVR","url":"https://gershmanlab.com/experiments/alicia/teaching/experiment/?hitId=363A7XIFV48LMLIF2CKYA8VQSVQAVR&workerId=A12HWPFXQPITHD&assignmentId=36W0OB37HX0JRCTX0HOV1JRDSQPHZ4&a=7OW69&tp_a=7OW69&b=36W0OB37HX0JRCTX0HOV1JRDSQPHZ4&tp_b=36W0OB37HX0JRCTX0HOV1JRDSQPHZ4&c=365799&tp_c=365799","firstResponseHeads":5,"firstResponseTails":20,"secondResponseHeads":20,"secondResponseTails":5,"totalHeads":25,"totalTails":25,"studentIndex":7,"studentTrueHypers":{"a":4,"b":1},"studentGuess":0.5272727272727272,"delta":0.3272727272727272,"bonus":0,"bonusSoFar":0.79,"totalExamples":50},{"rt":12912,"response":{"heads":"1","tails":"4"},"type":"response","condition":"nonSeqPartial","trueTheta":0.8,"classrooms":["A","B"],"studentTrueClassroom":"B","exampleSet":"first","trial_type":"survey-html-form","trial_index":84,"time_elapsed":1134101,"internal_node_id":"0.0-72.0-0.0","params":{"nStudents":24,"maxFlips":30,"completionMinutes":45,"basePay":8,"maxBonus":9,"perTrialBonus":0.5,"perTrialBonusThreshold":0.05,"exampleCost":0.01},"classroomParams":{"A":{"a":1,"b":4},"B":{"a":4,"b":1},"C":{"a":2,"b":8},"D":{"a":8,"b":2}},"conditions":["nonSeqFull","nonSeqPartial","seqNoFeedback","seqFeedback"],"classroomPairings":[["A","B"],["C","D"]],"coinWeights":[0.2,0.5,0.8],"subjectId":"A12HWPFXQPITHD","assignmentId":"36W0OB37HX0JRCTX0HOV1JRDSQPHZ4","hitId":"363A7XIFV48LMLIF2CKYA8VQSVQAVR","url":"https://gershmanlab.com/experiments/alicia/teaching/experiment/?hitId=363A7XIFV48LMLIF2CKYA8VQSVQAVR&workerId=A12HWPFXQPITHD&assignmentId=36W0OB37HX0JRCTX0HOV1JRDSQPHZ4&a=7OW69&tp_a=7OW69&b=36W0OB37HX0JRCTX0HOV1JRDSQPHZ4&tp_b=36W0OB37HX0JRCTX0HOV1JRDSQPHZ4&c=365799&tp_c=365799","heads":1,"tails":4,"studentIndex":8,"studentTrueHypers":{"a":4,"b":1},"studentGuess":0.5,"delta":0.30000000000000004,"totalExamples":5,"bonus":0,"bonusSoFar":0.79},{"rt":3864,"response":{"heads":"1","tails":"1"},"type":"response","condition":"seqFeedback","trueTheta":0.5,"classrooms":["A","B"],"studentTrueClassroom":"B","exampleSet":"first","trial_type":"survey-html-form","trial_index":90,"time_elapsed":1151886,"internal_node_id":"0.0-78.0-0.0","params":{"nStudents":24,"maxFlips":30,"completionMinutes":45,"basePay":8,"maxBonus":9,"perTrialBonus":0.5,"perTrialBonusThreshold":0.05,"exampleCost":0.01},"classroomParams":{"A":{"a":1,"b":4},"B":{"a":4,"b":1},"C":{"a":2,"b":8},"D":{"a":8,"b":2}},"conditions":["nonSeqFull","nonSeqPartial","seqNoFeedback","seqFeedback"],"classroomPairings":[["A","B"],["C","D"]],"coinWeights":[0.2,0.5,0.8],"subjectId":"A12HWPFXQPITHD","assignmentId":"36W0OB37HX0JRCTX0HOV1JRDSQPHZ4","hitId":"363A7XIFV48LMLIF2CKYA8VQSVQAVR","url":"https://gershmanlab.com/experiments/alicia/teaching/experiment/?hitId=363A7XIFV48LMLIF2CKYA8VQSVQAVR&workerId=A12HWPFXQPITHD&assignmentId=36W0OB37HX0JRCTX0HOV1JRDSQPHZ4&a=7OW69&tp_a=7OW69&b=36W0OB37HX0JRCTX0HOV1JRDSQPHZ4&tp_b=36W0OB37HX0JRCTX0HOV1JRDSQPHZ4&c=365799&tp_c=365799","heads":1,"tails":1,"studentIndex":9,"studentTrueHypers":{"a":4,"b":1},"studentGuess":0.7142857142857143,"delta":0.2142857142857143,"totalExamples":2,"bonusSoFar":0.79},{"rt":8640,"response":{"heads":"5","tails":"5"},"type":"response","condition":"seqFeedback","trueTheta":0.5,"classrooms":["A","B"],"studentTrueClassroom":"B","exampleSet":"second","trial_type":"survey-html-form","trial_index":94,"time_elapsed":1167925,"internal_node_id":"0.0-82.0-0.0","params":{"nStudents":24,"maxFlips":30,"completionMinutes":45,"basePay":8,"maxBonus":9,"perTrialBonus":0.5,"perTrialBonusThreshold":0.05,"exampleCost":0.01},"classroomParams":{"A":{"a":1,"b":4},"B":{"a":4,"b":1},"C":{"a":2,"b":8},"D":{"a":8,"b":2}},"conditions":["nonSeqFull","nonSeqPartial","seqNoFeedback","seqFeedback"],"classroomPairings":[["A","B"],["C","D"]],"coinWeights":[0.2,0.5,0.8],"subjectId":"A12HWPFXQPITHD","assignmentId":"36W0OB37HX0JRCTX0HOV1JRDSQPHZ4","hitId":"363A7XIFV48LMLIF2CKYA8VQSVQAVR","url":"https://gershmanlab.com/experiments/alicia/teaching/experiment/?hitId=363A7XIFV48LMLIF2CKYA8VQSVQAVR&workerId=A12HWPFXQPITHD&assignmentId=36W0OB37HX0JRCTX0HOV1JRDSQPHZ4&a=7OW69&tp_a=7OW69&b=36W0OB37HX0JRCTX0HOV1JRDSQPHZ4&tp_b=36W0OB37HX0JRCTX0HOV1JRDSQPHZ4&c=365799&tp_c=365799","firstResponseHeads":1,"firstResponseTails":1,"secondResponseHeads":5,"secondResponseTails":5,"totalHeads":6,"totalTails":6,"studentIndex":9,"studentTrueHypers":{"a":4,"b":1},"studentGuess":0.5882352941176471,"delta":0.08823529411764708,"bonus":0,"bonusSoFar":0.79,"totalExamples":12},{"rt":8888,"response":{"heads":"10","tails":"10"},"type":"response","condition":"nonSeqPartial","trueTheta":0.5,"classrooms":["A","B"],"studentTrueClassroom":"B","exampleSet":"first","trial_type":"survey-html-form","trial_index":100,"time_elapsed":1189844,"internal_node_id":"0.0-88.0-0.0","params":{"nStudents":24,"maxFlips":30,"completionMinutes":45,"basePay":8,"maxBonus":9,"perTrialBonus":0.5,"perTrialBonusThreshold":0.05,"exampleCost":0.01},"classroomParams":{"A":{"a":1,"b":4},"B":{"a":4,"b":1},"C":{"a":2,"b":8},"D":{"a":8,"b":2}},"conditions":["nonSeqFull","nonSeqPartial","seqNoFeedback","seqFeedback"],"classroomPairings":[["A","B"],["C","D"]],"coinWeights":[0.2,0.5,0.8],"subjectId":"A12HWPFXQPITHD","assignmentId":"36W0OB37HX0JRCTX0HOV1JRDSQPHZ4","hitId":"363A7XIFV48LMLIF2CKYA8VQSVQAVR","url":"https://gershmanlab.com/experiments/alicia/teaching/experiment/?hitId=363A7XIFV48LMLIF2CKYA8VQSVQAVR&workerId=A12HWPFXQPITHD&assignmentId=36W0OB37HX0JRCTX0HOV1JRDSQPHZ4&a=7OW69&tp_a=7OW69&b=36W0OB37HX0JRCTX0HOV1JRDSQPHZ4&tp_b=36W0OB37HX0JRCTX0HOV1JRDSQPHZ4&c=365799&tp_c=365799","heads":10,"tails":10,"studentIndex":10,"studentTrueHypers":{"a":4,"b":1},"studentGuess":0.56,"delta":0.06000000000000005,"totalExamples":20,"bonus":0,"bonusSoFar":0.79},{"rt":12472,"response":{"heads":"08","tails":"2"},"type":"response","condition":"nonSeqFull","trueTheta":0.8,"classrooms":["A","B"],"studentTrueClassroom":"B","exampleSet":"first","trial_type":"survey-html-form","trial_index":106,"time_elapsed":1213964,"internal_node_id":"0.0-94.0-0.0","params":{"nStudents":24,"maxFlips":30,"completionMinutes":45,"basePay":8,"maxBonus":9,"perTrialBonus":0.5,"perTrialBonusThreshold":0.05,"exampleCost":0.01},"classroomParams":{"A":{"a":1,"b":4},"B":{"a":4,"b":1},"C":{"a":2,"b":8},"D":{"a":8,"b":2}},"conditions":["nonSeqFull","nonSeqPartial","seqNoFeedback","seqFeedback"],"classroomPairings":[["A","B"],["C","D"]],"coinWeights":[0.2,0.5,0.8],"subjectId":"A12HWPFXQPITHD","assignmentId":"36W0OB37HX0JRCTX0HOV1JRDSQPHZ4","hitId":"363A7XIFV48LMLIF2CKYA8VQSVQAVR","url":"https://gershmanlab.com/experiments/alicia/teaching/experiment/?hitId=363A7XIFV48LMLIF2CKYA8VQSVQAVR&workerId=A12HWPFXQPITHD&assignmentId=36W0OB37HX0JRCTX0HOV1JRDSQPHZ4&a=7OW69&tp_a=7OW69&b=36W0OB37HX0JRCTX0HOV1JRDSQPHZ4&tp_b=36W0OB37HX0JRCTX0HOV1JRDSQPHZ4&c=365799&tp_c=365799","heads":8,"tails":2,"studentIndex":11,"studentTrueHypers":{"a":4,"b":1},"studentGuess":0.8,"delta":0,"totalExamples":10,"bonus":0.4,"bonusSoFar":1.19},{"rt":5304,"response":{"heads":"15","tails":"15"},"type":"response","condition":"seqNoFeedback","trueTheta":0.5,"classrooms":["A","B"],"studentTrueClassroom":"A","exampleSet":"first","trial_type":"survey-html-form","trial_index":112,"time_elapsed":1233220,"internal_node_id":"0.0-100.0-0.0","params":{"nStudents":24,"maxFlips":30,"completionMinutes":45,"basePay":8,"maxBonus":9,"perTrialBonus":0.5,"perTrialBonusThreshold":0.05,"exampleCost":0.01},"classroomParams":{"A":{"a":1,"b":4},"B":{"a":4,"b":1},"C":{"a":2,"b":8},"D":{"a":8,"b":2}},"conditions":["nonSeqFull","nonSeqPartial","seqNoFeedback","seqFeedback"],"classroomPairings":[["A","B"],["C","D"]],"coinWeights":[0.2,0.5,0.8],"subjectId":"A12HWPFXQPITHD","assignmentId":"36W0OB37HX0JRCTX0HOV1JRDSQPHZ4","hitId":"363A7XIFV48LMLIF2CKYA8VQSVQAVR","url":"https://gershmanlab.com/experiments/alicia/teaching/experiment/?hitId=363A7XIFV48LMLIF2CKYA8VQSVQAVR&workerId=A12HWPFXQPITHD&assignmentId=36W0OB37HX0JRCTX0HOV1JRDSQPHZ4&a=7OW69&tp_a=7OW69&b=36W0OB37HX0JRCTX0HOV1JRDSQPHZ4&tp_b=36W0OB37HX0JRCTX0HOV1JRDSQPHZ4&c=365799&tp_c=365799","heads":15,"tails":15,"studentIndex":12,"studentTrueHypers":{"a":1,"b":4},"studentGuess":0.45714285714285713,"delta":0.04285714285714287,"totalExamples":30,"bonusSoFar":1.19},{"rt":5706,"response":{"heads":"15","tails":"15"},"type":"response","condition":"seqNoFeedback","trueTheta":0.5,"classrooms":["A","B"],"studentTrueClassroom":"A","exampleSet":"second","trial_type":"survey-html-form","trial_index":115,"time_elapsed":1245453,"internal_node_id":"0.0-103.0-0.0","params":{"nStudents":24,"maxFlips":30,"completionMinutes":45,"basePay":8,"maxBonus":9,"perTrialBonus":0.5,"perTrialBonusThreshold":0.05,"exampleCost":0.01},"classroomParams":{"A":{"a":1,"b":4},"B":{"a":4,"b":1},"C":{"a":2,"b":8},"D":{"a":8,"b":2}},"conditions":["nonSeqFull","nonSeqPartial","seqNoFeedback","seqFeedback"],"classroomPairings":[["A","B"],["C","D"]],"coinWeights":[0.2,0.5,0.8],"subjectId":"A12HWPFXQPITHD","assignmentId":"36W0OB37HX0JRCTX0HOV1JRDSQPHZ4","hitId":"363A7XIFV48LMLIF2CKYA8VQSVQAVR","url":"https://gershmanlab.com/experiments/alicia/teaching/experiment/?hitId=363A7XIFV48LMLIF2CKYA8VQSVQAVR&workerId=A12HWPFXQPITHD&assignmentId=36W0OB37HX0JRCTX0HOV1JRDSQPHZ4&a=7OW69&tp_a=7OW69&b=36W0OB37HX0JRCTX0HOV1JRDSQPHZ4&tp_b=36W0OB37HX0JRCTX0HOV1JRDSQPHZ4&c=365799&tp_c=365799","firstResponseHeads":15,"firstResponseTails":15,"secondResponseHeads":15,"secondResponseTails":15,"totalHeads":30,"totalTails":30,"studentIndex":12,"studentTrueHypers":{"a":1,"b":4},"studentGuess":0.47692307692307695,"delta":0.02307692307692305,"bonus":0,"bonusSoFar":1.19,"totalExamples":60},{"rt":25754,"response":{"heads":"16","tails":"4"},"type":"response","condition":"nonSeqPartial","trueTheta":0.8,"classrooms":["C","D"],"studentTrueClassroom":"C","exampleSet":"first","trial_type":"survey-html-form","trial_index":121,"time_elapsed":1298189,"internal_node_id":"0.0-109.0-0.0","params":{"nStudents":24,"maxFlips":30,"completionMinutes":45,"basePay":8,"maxBonus":9,"perTrialBonus":0.5,"perTrialBonusThreshold":0.05,"exampleCost":0.01},"classroomParams":{"A":{"a":1,"b":4},"B":{"a":4,"b":1},"C":{"a":2,"b":8},"D":{"a":8,"b":2}},"conditions":["nonSeqFull","nonSeqPartial","seqNoFeedback","seqFeedback"],"classroomPairings":[["A","B"],["C","D"]],"coinWeights":[0.2,0.5,0.8],"subjectId":"A12HWPFXQPITHD","assignmentId":"36W0OB37HX0JRCTX0HOV1JRDSQPHZ4","hitId":"363A7XIFV48LMLIF2CKYA8VQSVQAVR","url":"https://gershmanlab.com/experiments/alicia/teaching/experiment/?hitId=363A7XIFV48LMLIF2CKYA8VQSVQAVR&workerId=A12HWPFXQPITHD&assignmentId=36W0OB37HX0JRCTX0HOV1JRDSQPHZ4&a=7OW69&tp_a=7OW69&b=36W0OB37HX0JRCTX0HOV1JRDSQPHZ4&tp_b=36W0OB37HX0JRCTX0HOV1JRDSQPHZ4&c=365799&tp_c=365799","heads":16,"tails":4,"studentIndex":13,"studentTrueHypers":{"a":2,"b":8},"studentGuess":0.6,"delta":0.20000000000000007,"totalExamples":20,"bonus":0,"bonusSoFar":1.19},{"rt":16984,"response":{"heads":"15","tails":"15"},"type":"response","condition":"nonSeqFull","trueTheta":0.5,"classrooms":["C","D"],"studentTrueClassroom":"D","exampleSet":"first","trial_type":"survey-html-form","trial_index":127,"time_elapsed":1327741,"internal_node_id":"0.0-115.0-0.0","params":{"nStudents":24,"maxFlips":30,"completionMinutes":45,"basePay":8,"maxBonus":9,"perTrialBonus":0.5,"perTrialBonusThreshold":0.05,"exampleCost":0.01},"classroomParams":{"A":{"a":1,"b":4},"B":{"a":4,"b":1},"C":{"a":2,"b":8},"D":{"a":8,"b":2}},"conditions":["nonSeqFull","nonSeqPartial","seqNoFeedback","seqFeedback"],"classroomPairings":[["A","B"],["C","D"]],"coinWeights":[0.2,0.5,0.8],"subjectId":"A12HWPFXQPITHD","assignmentId":"36W0OB37HX0JRCTX0HOV1JRDSQPHZ4","hitId":"363A7XIFV48LMLIF2CKYA8VQSVQAVR","url":"https://gershmanlab.com/experiments/alicia/teaching/experiment/?hitId=363A7XIFV48LMLIF2CKYA8VQSVQAVR&workerId=A12HWPFXQPITHD&assignmentId=36W0OB37HX0JRCTX0HOV1JRDSQPHZ4&a=7OW69&tp_a=7OW69&b=36W0OB37HX0JRCTX0HOV1JRDSQPHZ4&tp_b=36W0OB37HX0JRCTX0HOV1JRDSQPHZ4&c=365799&tp_c=365799","heads":15,"tails":15,"studentIndex":14,"studentTrueHypers":{"a":8,"b":2},"studentGuess":0.575,"delta":0.07499999999999996,"totalExamples":30,"bonus":0,"bonusSoFar":1.19},{"rt":30495,"response":{"heads":"0","tails":"1"},"type":"response","condition":"nonSeqPartial","trueTheta":0.2,"classrooms":["C","D"],"studentTrueClassroom":"D","exampleSet":"first","trial_type":"survey-html-form","trial_index":133,"time_elapsed":1376109,"internal_node_id":"0.0-121.0-0.0","params":{"nStudents":24,"maxFlips":30,"completionMinutes":45,"basePay":8,"maxBonus":9,"perTrialBonus":0.5,"perTrialBonusThreshold":0.05,"exampleCost":0.01},"classroomParams":{"A":{"a":1,"b":4},"B":{"a":4,"b":1},"C":{"a":2,"b":8},"D":{"a":8,"b":2}},"conditions":["nonSeqFull","nonSeqPartial","seqNoFeedback","seqFeedback"],"classroomPairings":[["A","B"],["C","D"]],"coinWeights":[0.2,0.5,0.8],"subjectId":"A12HWPFXQPITHD","assignmentId":"36W0OB37HX0JRCTX0HOV1JRDSQPHZ4","hitId":"363A7XIFV48LMLIF2CKYA8VQSVQAVR","url":"https://gershmanlab.com/experiments/alicia/teaching/experiment/?hitId=363A7XIFV48LMLIF2CKYA8VQSVQAVR&workerId=A12HWPFXQPITHD&assignmentId=36W0OB37HX0JRCTX0HOV1JRDSQPHZ4&a=7OW69&tp_a=7OW69&b=36W0OB37HX0JRCTX0HOV1JRDSQPHZ4&tp_b=36W0OB37HX0JRCTX0HOV1JRDSQPHZ4&c=365799&tp_c=365799","heads":0,"tails":1,"studentIndex":15,"studentTrueHypers":{"a":8,"b":2},"studentGuess":0.7272727272727273,"delta":0.5272727272727273,"totalExamples":1,"bonus":0,"bonusSoFar":1.19},{"rt":22935,"response":{"heads":"2","tails":"8"},"type":"response","condition":"seqNoFeedback","trueTheta":0.8,"classrooms":["C","D"],"studentTrueClassroom":"D","exampleSet":"first","trial_type":"survey-html-form","trial_index":139,"time_elapsed":1412205,"internal_node_id":"0.0-127.0-0.0","params":{"nStudents":24,"maxFlips":30,"completionMinutes":45,"basePay":8,"maxBonus":9,"perTrialBonus":0.5,"perTrialBonusThreshold":0.05,"exampleCost":0.01},"classroomParams":{"A":{"a":1,"b":4},"B":{"a":4,"b":1},"C":{"a":2,"b":8},"D":{"a":8,"b":2}},"conditions":["nonSeqFull","nonSeqPartial","seqNoFeedback","seqFeedback"],"classroomPairings":[["A","B"],["C","D"]],"coinWeights":[0.2,0.5,0.8],"subjectId":"A12HWPFXQPITHD","assignmentId":"36W0OB37HX0JRCTX0HOV1JRDSQPHZ4","hitId":"363A7XIFV48LMLIF2CKYA8VQSVQAVR","url":"https://gershmanlab.com/experiments/alicia/teaching/experiment/?hitId=363A7XIFV48LMLIF2CKYA8VQSVQAVR&workerId=A12HWPFXQPITHD&assignmentId=36W0OB37HX0JRCTX0HOV1JRDSQPHZ4&a=7OW69&tp_a=7OW69&b=36W0OB37HX0JRCTX0HOV1JRDSQPHZ4&tp_b=36W0OB37HX0JRCTX0HOV1JRDSQPHZ4&c=365799&tp_c=365799","heads":2,"tails":8,"studentIndex":16,"studentTrueHypers":{"a":8,"b":2},"studentGuess":0.5,"delta":0.30000000000000004,"totalExamples":10,"bonusSoFar":1.19},{"rt":13640,"response":{"heads":"01","tails":"5"},"type":"response","condition":"seqNoFeedback","trueTheta":0.8,"classrooms":["C","D"],"studentTrueClassroom":"D","exampleSet":"second","trial_type":"survey-html-form","trial_index":142,"time_elapsed":1431869,"internal_node_id":"0.0-130.0-0.0","params":{"nStudents":24,"maxFlips":30,"completionMinutes":45,"basePay":8,"maxBonus":9,"perTrialBonus":0.5,"perTrialBonusThreshold":0.05,"exampleCost":0.01},"classroomParams":{"A":{"a":1,"b":4},"B":{"a":4,"b":1},"C":{"a":2,"b":8},"D":{"a":8,"b":2}},"conditions":["nonSeqFull","nonSeqPartial","seqNoFeedback","seqFeedback"],"classroomPairings":[["A","B"],["C","D"]],"coinWeights":[0.2,0.5,0.8],"subjectId":"A12HWPFXQPITHD","assignmentId":"36W0OB37HX0JRCTX0HOV1JRDSQPHZ4","hitId":"363A7XIFV48LMLIF2CKYA8VQSVQAVR","url":"https://gershmanlab.com/experiments/alicia/teaching/experiment/?hitId=363A7XIFV48LMLIF2CKYA8VQSVQAVR&workerId=A12HWPFXQPITHD&assignmentId=36W0OB37HX0JRCTX0HOV1JRDSQPHZ4&a=7OW69&tp_a=7OW69&b=36W0OB37HX0JRCTX0HOV1JRDSQPHZ4&tp_b=36W0OB37HX0JRCTX0HOV1JRDSQPHZ4&c=365799&tp_c=365799","firstResponseHeads":2,"firstResponseTails":8,"secondResponseHeads":1,"secondResponseTails":5,"totalHeads":3,"totalTails":13,"studentIndex":16,"studentTrueHypers":{"a":8,"b":2},"studentGuess":0.4230769230769231,"delta":0.37692307692307697,"bonus":0,"bonusSoFar":1.19,"totalExamples":16},{"rt":3688,"response":{"heads":"1","tails":"4"},"type":"response","condition":"nonSeqPartial","trueTheta":0.2,"classrooms":["A","B"],"studentTrueClassroom":"A","exampleSet":"first","trial_type":"survey-html-form","trial_index":148,"time_elapsed":1449333,"internal_node_id":"0.0-136.0-0.0","params":{"nStudents":24,"maxFlips":30,"completionMinutes":45,"basePay":8,"maxBonus":9,"perTrialBonus":0.5,"perTrialBonusThreshold":0.05,"exampleCost":0.01},"classroomParams":{"A":{"a":1,"b":4},"B":{"a":4,"b":1},"C":{"a":2,"b":8},"D":{"a":8,"b":2}},"conditions":["nonSeqFull","nonSeqPartial","seqNoFeedback","seqFeedback"],"classroomPairings":[["A","B"],["C","D"]],"coinWeights":[0.2,0.5,0.8],"subjectId":"A12HWPFXQPITHD","assignmentId":"36W0OB37HX0JRCTX0HOV1JRDSQPHZ4","hitId":"363A7XIFV48LMLIF2CKYA8VQSVQAVR","url":"https://gershmanlab.com/experiments/alicia/teaching/experiment/?hitId=363A7XIFV48LMLIF2CKYA8VQSVQAVR&workerId=A12HWPFXQPITHD&assignmentId=36W0OB37HX0JRCTX0HOV1JRDSQPHZ4&a=7OW69&tp_a=7OW69&b=36W0OB37HX0JRCTX0HOV1JRDSQPHZ4&tp_b=36W0OB37HX0JRCTX0HOV1JRDSQPHZ4&c=365799&tp_c=365799","heads":1,"tails":4,"studentIndex":17,"studentTrueHypers":{"a":1,"b":4},"studentGuess":0.2,"delta":0,"totalExamples":5,"bonus":0.45,"bonusSoFar":1.64},{"rt":10162,"response":{"heads":"2","tails":"8"},"type":"response","condition":"nonSeqFull","trueTheta":0.2,"classrooms":["C","D"],"studentTrueClassroom":"C","exampleSet":"first","trial_type":"survey-html-form","trial_index":154,"time_elapsed":1473285,"internal_node_id":"0.0-142.0-0.0","params":{"nStudents":24,"maxFlips":30,"completionMinutes":45,"basePay":8,"maxBonus":9,"perTrialBonus":0.5,"perTrialBonusThreshold":0.05,"exampleCost":0.01},"classroomParams":{"A":{"a":1,"b":4},"B":{"a":4,"b":1},"C":{"a":2,"b":8},"D":{"a":8,"b":2}},"conditions":["nonSeqFull","nonSeqPartial","seqNoFeedback","seqFeedback"],"classroomPairings":[["A","B"],["C","D"]],"coinWeights":[0.2,0.5,0.8],"subjectId":"A12HWPFXQPITHD","assignmentId":"36W0OB37HX0JRCTX0HOV1JRDSQPHZ4","hitId":"363A7XIFV48LMLIF2CKYA8VQSVQAVR","url":"https://gershmanlab.com/experiments/alicia/teaching/experiment/?hitId=363A7XIFV48LMLIF2CKYA8VQSVQAVR&workerId=A12HWPFXQPITHD&assignmentId=36W0OB37HX0JRCTX0HOV1JRDSQPHZ4&a=7OW69&tp_a=7OW69&b=36W0OB37HX0JRCTX0HOV1JRDSQPHZ4&tp_b=36W0OB37HX0JRCTX0HOV1JRDSQPHZ4&c=365799&tp_c=365799","heads":2,"tails":8,"studentIndex":18,"studentTrueHypers":{"a":2,"b":8},"studentGuess":0.2,"delta":0,"totalExamples":10,"bonus":0.4,"bonusSoFar":2.04},{"rt":39855,"response":{"heads":"1","tails":"01"},"type":"response","condition":"seqNoFeedback","trueTheta":0.8,"classrooms":["A","B"],"studentTrueClassroom":"A","exampleSet":"first","trial_type":"survey-html-form","trial_index":160,"time_elapsed":1525269,"internal_node_id":"0.0-148.0-0.0","params":{"nStudents":24,"maxFlips":30,"completionMinutes":45,"basePay":8,"maxBonus":9,"perTrialBonus":0.5,"perTrialBonusThreshold":0.05,"exampleCost":0.01},"classroomParams":{"A":{"a":1,"b":4},"B":{"a":4,"b":1},"C":{"a":2,"b":8},"D":{"a":8,"b":2}},"conditions":["nonSeqFull","nonSeqPartial","seqNoFeedback","seqFeedback"],"classroomPairings":[["A","B"],["C","D"]],"coinWeights":[0.2,0.5,0.8],"subjectId":"A12HWPFXQPITHD","assignmentId":"36W0OB37HX0JRCTX0HOV1JRDSQPHZ4","hitId":"363A7XIFV48LMLIF2CKYA8VQSVQAVR","url":"https://gershmanlab.com/experiments/alicia/teaching/experiment/?hitId=363A7XIFV48LMLIF2CKYA8VQSVQAVR&workerId=A12HWPFXQPITHD&assignmentId=36W0OB37HX0JRCTX0HOV1JRDSQPHZ4&a=7OW69&tp_a=7OW69&b=36W0OB37HX0JRCTX0HOV1JRDSQPHZ4&tp_b=36W0OB37HX0JRCTX0HOV1JRDSQPHZ4&c=365799&tp_c=365799","heads":1,"tails":1,"studentIndex":19,"studentTrueHypers":{"a":1,"b":4},"studentGuess":0.2857142857142857,"delta":0.5142857142857143,"totalExamples":2,"bonusSoFar":2.04},{"rt":4329,"response":{"heads":"1","tails":"1"},"type":"response","condition":"seqNoFeedback","trueTheta":0.8,"classrooms":["A","B"],"studentTrueClassroom":"A","exampleSet":"second","trial_type":"survey-html-form","trial_index":163,"time_elapsed":1537117,"internal_node_id":"0.0-151.0-0.0","params":{"nStudents":24,"maxFlips":30,"completionMinutes":45,"basePay":8,"maxBonus":9,"perTrialBonus":0.5,"perTrialBonusThreshold":0.05,"exampleCost":0.01},"classroomParams":{"A":{"a":1,"b":4},"B":{"a":4,"b":1},"C":{"a":2,"b":8},"D":{"a":8,"b":2}},"conditions":["nonSeqFull","nonSeqPartial","seqNoFeedback","seqFeedback"],"classroomPairings":[["A","B"],["C","D"]],"coinWeights":[0.2,0.5,0.8],"subjectId":"A12HWPFXQPITHD","assignmentId":"36W0OB37HX0JRCTX0HOV1JRDSQPHZ4","hitId":"363A7XIFV48LMLIF2CKYA8VQSVQAVR","url":"https://gershmanlab.com/experiments/alicia/teaching/experiment/?hitId=363A7XIFV48LMLIF2CKYA8VQSVQAVR&workerId=A12HWPFXQPITHD&assignmentId=36W0OB37HX0JRCTX0HOV1JRDSQPHZ4&a=7OW69&tp_a=7OW69&b=36W0OB37HX0JRCTX0HOV1JRDSQPHZ4&tp_b=36W0OB37HX0JRCTX0HOV1JRDSQPHZ4&c=365799&tp_c=365799","firstResponseHeads":1,"firstResponseTails":1,"secondResponseHeads":1,"secondResponseTails":1,"totalHeads":2,"totalTails":2,"studentIndex":19,"studentTrueHypers":{"a":1,"b":4},"studentGuess":0.3333333333333333,"delta":0.46666666666666673,"bonus":0,"bonusSoFar":2.04,"totalExamples":4},{"rt":13000,"response":{"heads":"10","tails":"10"},"type":"response","condition":"seqNoFeedback","trueTheta":0.5,"classrooms":["C","D"],"studentTrueClassroom":"C","exampleSet":"first","trial_type":"survey-html-form","trial_index":169,"time_elapsed":1562885,"internal_node_id":"0.0-157.0-0.0","params":{"nStudents":24,"maxFlips":30,"completionMinutes":45,"basePay":8,"maxBonus":9,"perTrialBonus":0.5,"perTrialBonusThreshold":0.05,"exampleCost":0.01},"classroomParams":{"A":{"a":1,"b":4},"B":{"a":4,"b":1},"C":{"a":2,"b":8},"D":{"a":8,"b":2}},"conditions":["nonSeqFull","nonSeqPartial","seqNoFeedback","seqFeedback"],"classroomPairings":[["A","B"],["C","D"]],"coinWeights":[0.2,0.5,0.8],"subjectId":"A12HWPFXQPITHD","assignmentId":"36W0OB37HX0JRCTX0HOV1JRDSQPHZ4","hitId":"363A7XIFV48LMLIF2CKYA8VQSVQAVR","url":"https://gershmanlab.com/experiments/alicia/teaching/experiment/?hitId=363A7XIFV48LMLIF2CKYA8VQSVQAVR&workerId=A12HWPFXQPITHD&assignmentId=36W0OB37HX0JRCTX0HOV1JRDSQPHZ4&a=7OW69&tp_a=7OW69&b=36W0OB37HX0JRCTX0HOV1JRDSQPHZ4&tp_b=36W0OB37HX0JRCTX0HOV1JRDSQPHZ4&c=365799&tp_c=365799","heads":10,"tails":10,"studentIndex":20,"studentTrueHypers":{"a":2,"b":8},"studentGuess":0.4,"delta":0.09999999999999998,"totalExamples":20,"bonusSoFar":2.04},{"rt":3793,"response":{"heads":"1","tails":"1"},"type":"response","condition":"seqNoFeedback","trueTheta":0.5,"classrooms":["C","D"],"studentTrueClassroom":"C","exampleSet":"second","trial_type":"survey-html-form","trial_index":172,"time_elapsed":1573437,"internal_node_id":"0.0-160.0-0.0","params":{"nStudents":24,"maxFlips":30,"completionMinutes":45,"basePay":8,"maxBonus":9,"perTrialBonus":0.5,"perTrialBonusThreshold":0.05,"exampleCost":0.01},"classroomParams":{"A":{"a":1,"b":4},"B":{"a":4,"b":1},"C":{"a":2,"b":8},"D":{"a":8,"b":2}},"conditions":["nonSeqFull","nonSeqPartial","seqNoFeedback","seqFeedback"],"classroomPairings":[["A","B"],["C","D"]],"coinWeights":[0.2,0.5,0.8],"subjectId":"A12HWPFXQPITHD","assignmentId":"36W0OB37HX0JRCTX0HOV1JRDSQPHZ4","hitId":"363A7XIFV48LMLIF2CKYA8VQSVQAVR","url":"https://gershmanlab.com/experiments/alicia/teaching/experiment/?hitId=363A7XIFV48LMLIF2CKYA8VQSVQAVR&workerId=A12HWPFXQPITHD&assignmentId=36W0OB37HX0JRCTX0HOV1JRDSQPHZ4&a=7OW69&tp_a=7OW69&b=36W0OB37HX0JRCTX0HOV1JRDSQPHZ4&tp_b=36W0OB37HX0JRCTX0HOV1JRDSQPHZ4&c=365799&tp_c=365799","firstResponseHeads":10,"firstResponseTails":10,"secondResponseHeads":1,"secondResponseTails":1,"totalHeads":11,"totalTails":11,"studentIndex":20,"studentTrueHypers":{"a":2,"b":8},"studentGuess":0.40625,"delta":0.09375,"bonus":0,"bonusSoFar":2.04,"totalExamples":22},{"rt":19808,"response":{"heads":"04","tails":"1"},"type":"response","condition":"nonSeqFull","trueTheta":0.5,"classrooms":["A","B"],"studentTrueClassroom":"A","exampleSet":"first","trial_type":"survey-html-form","trial_index":178,"time_elapsed":1606053,"internal_node_id":"0.0-166.0-0.0","params":{"nStudents":24,"maxFlips":30,"completionMinutes":45,"basePay":8,"maxBonus":9,"perTrialBonus":0.5,"perTrialBonusThreshold":0.05,"exampleCost":0.01},"classroomParams":{"A":{"a":1,"b":4},"B":{"a":4,"b":1},"C":{"a":2,"b":8},"D":{"a":8,"b":2}},"conditions":["nonSeqFull","nonSeqPartial","seqNoFeedback","seqFeedback"],"classroomPairings":[["A","B"],["C","D"]],"coinWeights":[0.2,0.5,0.8],"subjectId":"A12HWPFXQPITHD","assignmentId":"36W0OB37HX0JRCTX0HOV1JRDSQPHZ4","hitId":"363A7XIFV48LMLIF2CKYA8VQSVQAVR","url":"https://gershmanlab.com/experiments/alicia/teaching/experiment/?hitId=363A7XIFV48LMLIF2CKYA8VQSVQAVR&workerId=A12HWPFXQPITHD&assignmentId=36W0OB37HX0JRCTX0HOV1JRDSQPHZ4&a=7OW69&tp_a=7OW69&b=36W0OB37HX0JRCTX0HOV1JRDSQPHZ4&tp_b=36W0OB37HX0JRCTX0HOV1JRDSQPHZ4&c=365799&tp_c=365799","heads":4,"tails":1,"studentIndex":21,"studentTrueHypers":{"a":1,"b":4},"studentGuess":0.5,"delta":0,"totalExamples":5,"bonus":0.45,"bonusSoFar":2.49},{"rt":41368,"response":{"heads":"1","tails":"1"},"type":"response","condition":"seqFeedback","trueTheta":0.2,"classrooms":["A","B"],"studentTrueClassroom":"A","exampleSet":"first","trial_type":"survey-html-form","trial_index":184,"time_elapsed":1660509,"internal_node_id":"0.0-172.0-0.0","params":{"nStudents":24,"maxFlips":30,"completionMinutes":45,"basePay":8,"maxBonus":9,"perTrialBonus":0.5,"perTrialBonusThreshold":0.05,"exampleCost":0.01},"classroomParams":{"A":{"a":1,"b":4},"B":{"a":4,"b":1},"C":{"a":2,"b":8},"D":{"a":8,"b":2}},"conditions":["nonSeqFull","nonSeqPartial","seqNoFeedback","seqFeedback"],"classroomPairings":[["A","B"],["C","D"]],"coinWeights":[0.2,0.5,0.8],"subjectId":"A12HWPFXQPITHD","assignmentId":"36W0OB37HX0JRCTX0HOV1JRDSQPHZ4","hitId":"363A7XIFV48LMLIF2CKYA8VQSVQAVR","url":"https://gershmanlab.com/experiments/alicia/teaching/experiment/?hitId=363A7XIFV48LMLIF2CKYA8VQSVQAVR&workerId=A12HWPFXQPITHD&assignmentId=36W0OB37HX0JRCTX0HOV1JRDSQPHZ4&a=7OW69&tp_a=7OW69&b=36W0OB37HX0JRCTX0HOV1JRDSQPHZ4&tp_b=36W0OB37HX0JRCTX0HOV1JRDSQPHZ4&c=365799&tp_c=365799","heads":1,"tails":1,"studentIndex":22,"studentTrueHypers":{"a":1,"b":4},"studentGuess":0.2857142857142857,"delta":0.08571428571428569,"totalExamples":2,"bonusSoFar":2.49},{"rt":44432,"response":{"heads":"1","tails":"4"},"type":"response","condition":"seqFeedback","trueTheta":0.2,"classrooms":["A","B"],"studentTrueClassroom":"A","exampleSet":"second","trial_type":"survey-html-form","trial_index":188,"time_elapsed":1714877,"internal_node_id":"0.0-176.0-0.0","params":{"nStudents":24,"maxFlips":30,"completionMinutes":45,"basePay":8,"maxBonus":9,"perTrialBonus":0.5,"perTrialBonusThreshold":0.05,"exampleCost":0.01},"classroomParams":{"A":{"a":1,"b":4},"B":{"a":4,"b":1},"C":{"a":2,"b":8},"D":{"a":8,"b":2}},"conditions":["nonSeqFull","nonSeqPartial","seqNoFeedback","seqFeedback"],"classroomPairings":[["A","B"],["C","D"]],"coinWeights":[0.2,0.5,0.8],"subjectId":"A12HWPFXQPITHD","assignmentId":"36W0OB37HX0JRCTX0HOV1JRDSQPHZ4","hitId":"363A7XIFV48LMLIF2CKYA8VQSVQAVR","url":"https://gershmanlab.com/experiments/alicia/teaching/experiment/?hitId=363A7XIFV48LMLIF2CKYA8VQSVQAVR&workerId=A12HWPFXQPITHD&assignmentId=36W0OB37HX0JRCTX0HOV1JRDSQPHZ4&a=7OW69&tp_a=7OW69&b=36W0OB37HX0JRCTX0HOV1JRDSQPHZ4&tp_b=36W0OB37HX0JRCTX0HOV1JRDSQPHZ4&c=365799&tp_c=365799","firstResponseHeads":1,"firstResponseTails":1,"secondResponseHeads":1,"secondResponseTails":4,"totalHeads":2,"totalTails":5,"studentIndex":22,"studentTrueHypers":{"a":1,"b":4},"studentGuess":0.25,"delta":0.04999999999999999,"bonus":0.43,"bonusSoFar":2.92,"totalExamples":7},{"rt":45759,"response":{"heads":"1","tails":"4"},"type":"response","condition":"seqFeedback","trueTheta":0.8,"classrooms":["C","D"],"studentTrueClassroom":"D","exampleSet":"first","trial_type":"survey-html-form","trial_index":194,"time_elapsed":1775772,"internal_node_id":"0.0-182.0-0.0","params":{"nStudents":24,"maxFlips":30,"completionMinutes":45,"basePay":8,"maxBonus":9,"perTrialBonus":0.5,"perTrialBonusThreshold":0.05,"exampleCost":0.01},"classroomParams":{"A":{"a":1,"b":4},"B":{"a":4,"b":1},"C":{"a":2,"b":8},"D":{"a":8,"b":2}},"conditions":["nonSeqFull","nonSeqPartial","seqNoFeedback","seqFeedback"],"classroomPairings":[["A","B"],["C","D"]],"coinWeights":[0.2,0.5,0.8],"subjectId":"A12HWPFXQPITHD","assignmentId":"36W0OB37HX0JRCTX0HOV1JRDSQPHZ4","hitId":"363A7XIFV48LMLIF2CKYA8VQSVQAVR","url":"https://gershmanlab.com/experiments/alicia/teaching/experiment/?hitId=363A7XIFV48LMLIF2CKYA8VQSVQAVR&workerId=A12HWPFXQPITHD&assignmentId=36W0OB37HX0JRCTX0HOV1JRDSQPHZ4&a=7OW69&tp_a=7OW69&b=36W0OB37HX0JRCTX0HOV1JRDSQPHZ4&tp_b=36W0OB37HX0JRCTX0HOV1JRDSQPHZ4&c=365799&tp_c=365799","heads":1,"tails":4,"studentIndex":23,"studentTrueHypers":{"a":8,"b":2},"studentGuess":0.6,"delta":0.20000000000000007,"totalExamples":5,"bonusSoFar":2.92},{"rt":16456,"response":{"heads":"8","tails":"2"},"type":"response","condition":"seqFeedback","trueTheta":0.8,"classrooms":["C","D"],"studentTrueClassroom":"D","exampleSet":"second","trial_type":"survey-html-form","trial_index":198,"time_elapsed":1801572,"internal_node_id":"0.0-186.0-0.0","params":{"nStudents":24,"maxFlips":30,"completionMinutes":45,"basePay":8,"maxBonus":9,"perTrialBonus":0.5,"perTrialBonusThreshold":0.05,"exampleCost":0.01},"classroomParams":{"A":{"a":1,"b":4},"B":{"a":4,"b":1},"C":{"a":2,"b":8},"D":{"a":8,"b":2}},"conditions":["nonSeqFull","nonSeqPartial","seqNoFeedback","seqFeedback"],"classroomPairings":[["A","B"],["C","D"]],"coinWeights":[0.2,0.5,0.8],"subjectId":"A12HWPFXQPITHD","assignmentId":"36W0OB37HX0JRCTX0HOV1JRDSQPHZ4","hitId":"363A7XIFV48LMLIF2CKYA8VQSVQAVR","url":"https://gershmanlab.com/experiments/alicia/teaching/experiment/?hitId=363A7XIFV48LMLIF2CKYA8VQSVQAVR&workerId=A12HWPFXQPITHD&assignmentId=36W0OB37HX0JRCTX0HOV1JRDSQPHZ4&a=7OW69&tp_a=7OW69&b=36W0OB37HX0JRCTX0HOV1JRDSQPHZ4&tp_b=36W0OB37HX0JRCTX0HOV1JRDSQPHZ4&c=365799&tp_c=365799","firstResponseHeads":1,"firstResponseTails":4,"secondResponseHeads":8,"secondResponseTails":2,"totalHeads":9,"totalTails":6,"studentIndex":23,"studentTrueHypers":{"a":8,"b":2},"studentGuess":0.68,"delta":0.12,"bonus":0,"bonusSoFar":2.92,"totalExamples":15},{"rt":126651,"response":{"gender":"male","age":"31","understood":"yes","comments":"Give explicit examples of how to do the task properly. Even though I understood I felt like I was doing it wrong the entire time which reflects in my performance."},"type":"response","trial_type":"survey-html-form","trial_index":202,"time_elapsed":1937304,"internal_node_id":"0.0-191.0","params":{"nStudents":24,"maxFlips":30,"completionMinutes":45,"basePay":8,"maxBonus":9,"perTrialBonus":0.5,"perTrialBonusThreshold":0.05,"exampleCost":0.01},"classroomParams":{"A":{"a":1,"b":4},"B":{"a":4,"b":1},"C":{"a":2,"b":8},"D":{"a":8,"b":2}},"conditions":["nonSeqFull","nonSeqPartial","seqNoFeedback","seqFeedback"],"classroomPairings":[["A","B"],["C","D"]],"coinWeights":[0.2,0.5,0.8],"subjectId":"A12HWPFXQPITHD","assignmentId":"36W0OB37HX0JRCTX0HOV1JRDSQPHZ4","hitId":"363A7XIFV48LMLIF2CKYA8VQSVQAVR","url":"https://gershmanlab.com/experiments/alicia/teaching/experiment/?hitId=363A7XIFV48LMLIF2CKYA8VQSVQAVR&workerId=A12HWPFXQPITHD&assignmentId=36W0OB37HX0JRCTX0HOV1JRDSQPHZ4&a=7OW69&tp_a=7OW69&b=36W0OB37HX0JRCTX0HOV1JRDSQPHZ4&tp_b=36W0OB37HX0JRCTX0HOV1JRDSQPHZ4&c=365799&tp_c=365799","totalBonus":2.92}]