[{"rt":18206,"response":{"heads":"5","tails":"5"},"type":"response","condition":"seqFeedback","trueTheta":0.5,"classrooms":["C","D"],"studentTrueClassroom":"D","exampleSet":"first","trial_type":"survey-html-form","trial_index":10,"time_elapsed":330443,"internal_node_id":"0.0-6.0-0.0","params":{"nStudents":24,"maxFlips":30,"completionMinutes":45,"basePay":8,"maxBonus":9,"perTrialBonus":0.5,"perTrialBonusThreshold":0.05,"exampleCost":0.01},"classroomParams":{"A":{"a":1,"b":4},"B":{"a":4,"b":1},"C":{"a":2,"b":8},"D":{"a":8,"b":2}},"conditions":["nonSeqFull","nonSeqPartial","seqNoFeedback","seqFeedback"],"classroomPairings":[["A","B"],["C","D"]],"coinWeights":[0.2,0.5,0.8],"subjectId":"A13WTEQ06V3B6D","assignmentId":"33JKGHPFYDGB21GPOQTEY1S0ZYGMN1","hitId":"3SD15I2WD2G0NA4TSPXGB81L5S7630","url":"https://gershmanlab.com/experiments/alicia/teaching/experiment/?hitId=3SD15I2WD2G0NA4TSPXGB81L5S7630&workerId=A13WTEQ06V3B6D&assignmentId=33JKGHPFYDGB21GPOQTEY1S0ZYGMN1&a=FGJ39&tp_a=FGJ39&b=33JKGHPFYDGB21GPOQTEY1S0ZYGMN1&tp_b=33JKGHPFYDGB21GPOQTEY1S0ZYGMN1&c=365799&tp_c=365799","heads":5,"tails":5,"studentIndex":0,"studentTrueHypers":{"a":8,"b":2},"studentGuess":0.65,"delta":0.15000000000000002,"totalExamples":10,"bonusSoFar":0},{"rt":5142,"response":{"heads":"5","tails":"5"},"type":"response","condition":"seqFeedback","trueTheta":0.5,"classrooms":["C","D"],"studentTrueClassroom":"D","exampleSet":"second","trial_type":"survey-html-form","trial_index":14,"time_elapsed":348288,"internal_node_id":"0.0-10.0-0.0","params":{"nStudents":24,"maxFlips":30,"completionMinutes":45,"basePay":8,"maxBonus":9,"perTrialBonus":0.5,"perTrialBonusThreshold":0.05,"exampleCost":0.01},"classroomParams":{"A":{"a":1,"b":4},"B":{"a":4,"b":1},"C":{"a":2,"b":8},"D":{"a":8,"b":2}},"conditions":["nonSeqFull","nonSeqPartial","seqNoFeedback","seqFeedback"],"classroomPairings":[["A","B"],["C","D"]],"coinWeights":[0.2,0.5,0.8],"subjectId":"A13WTEQ06V3B6D","assignmentId":"33JKGHPFYDGB21GPOQTEY1S0ZYGMN1","hitId":"3SD15I2WD2G0NA4TSPXGB81L5S7630","url":"https://gershmanlab.com/experiments/alicia/teaching/experiment/?hitId=3SD15I2WD2G0NA4TSPXGB81L5S7630&workerId=A13WTEQ06V3B6D&assignmentId=33JKGHPFYDGB21GPOQTEY1S0ZYGMN1&a=FGJ39&tp_a=FGJ39&b=33JKGHPFYDGB21GPOQTEY1S0ZYGMN1&tp_b=33JKGHPFYDGB21GPOQTEY1S0ZYGMN1&c=365799&tp_c=365799","firstResponseHeads":5,"firstResponseTails":5,"secondResponseHeads":5,"secondResponseTails":5,"totalHeads":10,"totalTails":10,"studentIndex":0,"studentTrueHypers":{"a":8,"b":2},"studentGuess":0.6,"delta":0.09999999999999998,"bonus":0,"bonusSoFar":0,"totalExamples":20},{"rt":6158,"response":{"heads":"10","tails":"10"},"type":"response","condition":"nonSeqPartial","trueTheta":0.5,"classrooms":["A","B"],"studentTrueClassroom":"A","exampleSet":"first","trial_type":"survey-html-form","trial_index":20,"time_elapsed":371070,"internal_node_id":"0.0-16.0-0.0","params":{"nStudents":24,"maxFlips":30,"completionMinutes":45,"basePay":8,"maxBonus":9,"perTrialBonus":0.5,"perTrialBonusThreshold":0.05,"exampleCost":0.01},"classroomParams":{"A":{"a":1,"b":4},"B":{"a":4,"b":1},"C":{"a":2,"b":8},"D":{"a":8,"b":2}},"conditions":["nonSeqFull","nonSeqPartial","seqNoFeedback","seqFeedback"],"classroomPairings":[["A","B"],["C","D"]],"coinWeights":[0.2,0.5,0.8],"subjectId":"A13WTEQ06V3B6D","assignmentId":"33JKGHPFYDGB21GPOQTEY1S0ZYGMN1","hitId":"3SD15I2WD2G0NA4TSPXGB81L5S7630","url":"https://gershmanlab.com/experiments/alicia/teaching/experiment/?hitId=3SD15I2WD2G0NA4TSPXGB81L5S7630&workerId=A13WTEQ06V3B6D&assignmentId=33JKGHPFYDGB21GPOQTEY1S0ZYGMN1&a=FGJ39&tp_a=FGJ39&b=33JKGHPFYDGB21GPOQTEY1S0ZYGMN1&tp_b=33JKGHPFYDGB21GPOQTEY1S0ZYGMN1&c=365799&tp_c=365799","heads":10,"tails":10,"studentIndex":1,"studentTrueHypers":{"a":1,"b":4},"studentGuess":0.44,"delta":0.06,"totalExamples":20,"bonus":0,"bonusSoFar":0},{"rt":6626,"response":{"heads":"2","tails":"8"},"type":"response","condition":"nonSeqFull","trueTheta":0.2,"classrooms":["A","B"],"studentTrueClassroom":"A","exampleSet":"first","trial_type":"survey-html-form","trial_index":26,"time_elapsed":391982,"internal_node_id":"0.0-22.0-0.0","params":{"nStudents":24,"maxFlips":30,"completionMinutes":45,"basePay":8,"maxBonus":9,"perTrialBonus":0.5,"perTrialBonusThreshold":0.05,"exampleCost":0.01},"classroomParams":{"A":{"a":1,"b":4},"B":{"a":4,"b":1},"C":{"a":2,"b":8},"D":{"a":8,"b":2}},"conditions":["nonSeqFull","nonSeqPartial","seqNoFeedback","seqFeedback"],"classroomPairings":[["A","B"],["C","D"]],"coinWeights":[0.2,0.5,0.8],"subjectId":"A13WTEQ06V3B6D","assignmentId":"33JKGHPFYDGB21GPOQTEY1S0ZYGMN1","hitId":"3SD15I2WD2G0NA4TSPXGB81L5S7630","url":"https://gershmanlab.com/experiments/alicia/teaching/experiment/?hitId=3SD15I2WD2G0NA4TSPXGB81L5S7630&workerId=A13WTEQ06V3B6D&assignmentId=33JKGHPFYDGB21GPOQTEY1S0ZYGMN1&a=FGJ39&tp_a=FGJ39&b=33JKGHPFYDGB21GPOQTEY1S0ZYGMN1&tp_b=33JKGHPFYDGB21GPOQTEY1S0ZYGMN1&c=365799&tp_c=365799","heads":2,"tails":8,"studentIndex":2,"studentTrueHypers":{"a":1,"b":4},"studentGuess":0.2,"delta":0,"totalExamples":10,"bonus":0.4,"bonusSoFar":0.4},{"rt":9314,"response":{"heads":"1","tails":"4"},"type":"response","condition":"seqFeedback","trueTheta":0.2,"classrooms":["C","D"],"studentTrueClassroom":"C","exampleSet":"first","trial_type":"survey-html-form","trial_index":32,"time_elapsed":421750,"internal_node_id":"0.0-28.0-0.0","params":{"nStudents":24,"maxFlips":30,"completionMinutes":45,"basePay":8,"maxBonus":9,"perTrialBonus":0.5,"perTrialBonusThreshold":0.05,"exampleCost":0.01},"classroomParams":{"A":{"a":1,"b":4},"B":{"a":4,"b":1},"C":{"a":2,"b":8},"D":{"a":8,"b":2}},"conditions":["nonSeqFull","nonSeqPartial","seqNoFeedback","seqFeedback"],"classroomPairings":[["A","B"],["C","D"]],"coinWeights":[0.2,0.5,0.8],"subjectId":"A13WTEQ06V3B6D","assignmentId":"33JKGHPFYDGB21GPOQTEY1S0ZYGMN1","hitId":"3SD15I2WD2G0NA4TSPXGB81L5S7630","url":"https://gershmanlab.com/experiments/alicia/teaching/experiment/?hitId=3SD15I2WD2G0NA4TSPXGB81L5S7630&workerId=A13WTEQ06V3B6D&assignmentId=33JKGHPFYDGB21GPOQTEY1S0ZYGMN1&a=FGJ39&tp_a=FGJ39&b=33JKGHPFYDGB21GPOQTEY1S0ZYGMN1&tp_b=33JKGHPFYDGB21GPOQTEY1S0ZYGMN1&c=365799&tp_c=365799","heads":1,"tails":4,"studentIndex":3,"studentTrueHypers":{"a":2,"b":8},"studentGuess":0.2,"delta":0,"totalExamples":5,"bonusSoFar":0.4},{"rt":2780,"response":{"heads":"1","tails":"4"},"type":"response","condition":"seqFeedback","trueTheta":0.2,"classrooms":["C","D"],"studentTrueClassroom":"C","exampleSet":"second","trial_type":"survey-html-form","trial_index":36,"time_elapsed":435167,"internal_node_id":"0.0-32.0-0.0","params":{"nStudents":24,"maxFlips":30,"completionMinutes":45,"basePay":8,"maxBonus":9,"perTrialBonus":0.5,"perTrialBonusThreshold":0.05,"exampleCost":0.01},"classroomParams":{"A":{"a":1,"b":4},"B":{"a":4,"b":1},"C":{"a":2,"b":8},"D":{"a":8,"b":2}},"conditions":["nonSeqFull","nonSeqPartial","seqNoFeedback","seqFeedback"],"classroomPairings":[["A","B"],["C","D"]],"coinWeights":[0.2,0.5,0.8],"subjectId":"A13WTEQ06V3B6D","assignmentId":"33JKGHPFYDGB21GPOQTEY1S0ZYGMN1","hitId":"3SD15I2WD2G0NA4TSPXGB81L5S7630","url":"https://gershmanlab.com/experiments/alicia/teaching/experiment/?hitId=3SD15I2WD2G0NA4TSPXGB81L5S7630&workerId=A13WTEQ06V3B6D&assignmentId=33JKGHPFYDGB21GPOQTEY1S0ZYGMN1&a=FGJ39&tp_a=FGJ39&b=33JKGHPFYDGB21GPOQTEY1S0ZYGMN1&tp_b=33JKGHPFYDGB21GPOQTEY1S0ZYGMN1&c=365799&tp_c=365799","firstResponseHeads":1,"firstResponseTails":4,"secondResponseHeads":1,"secondResponseTails":4,"totalHeads":2,"totalTails":8,"studentIndex":3,"studentTrueHypers":{"a":2,"b":8},"studentGuess":0.2,"delta":0,"bonus":0.4,"bonusSoFar":0.8,"totalExamples":10},{"rt":5455,"response":{"heads":"1","tails":"4"},"type":"response","condition":"seqNoFeedback","trueTheta":0.2,"classrooms":["C","D"],"studentTrueClassroom":"C","exampleSet":"first","trial_type":"survey-html-form","trial_index":42,"time_elapsed":453238,"internal_node_id":"0.0-38.0-0.0","params":{"nStudents":24,"maxFlips":30,"completionMinutes":45,"basePay":8,"maxBonus":9,"perTrialBonus":0.5,"perTrialBonusThreshold":0.05,"exampleCost":0.01},"classroomParams":{"A":{"a":1,"b":4},"B":{"a":4,"b":1},"C":{"a":2,"b":8},"D":{"a":8,"b":2}},"conditions":["nonSeqFull","nonSeqPartial","seqNoFeedback","seqFeedback"],"classroomPairings":[["A","B"],["C","D"]],"coinWeights":[0.2,0.5,0.8],"subjectId":"A13WTEQ06V3B6D","assignmentId":"33JKGHPFYDGB21GPOQTEY1S0ZYGMN1","hitId":"3SD15I2WD2G0NA4TSPXGB81L5S7630","url":"https://gershmanlab.com/experiments/alicia/teaching/experiment/?hitId=3SD15I2WD2G0NA4TSPXGB81L5S7630&workerId=A13WTEQ06V3B6D&assignmentId=33JKGHPFYDGB21GPOQTEY1S0ZYGMN1&a=FGJ39&tp_a=FGJ39&b=33JKGHPFYDGB21GPOQTEY1S0ZYGMN1&tp_b=33JKGHPFYDGB21GPOQTEY1S0ZYGMN1&c=365799&tp_c=365799","heads":1,"tails":4,"studentIndex":4,"studentTrueHypers":{"a":2,"b":8},"studentGuess":0.2,"delta":0,"totalExamples":5,"bonusSoFar":0.8},{"rt":6956,"response":{"heads":"1","tails":"4"},"type":"response","condition":"seqNoFeedback","trueTheta":0.2,"classrooms":["C","D"],"studentTrueClassroom":"C","exampleSet":"second","trial_type":"survey-html-form","trial_index":45,"time_elapsed":467553,"internal_node_id":"0.0-41.0-0.0","params":{"nStudents":24,"maxFlips":30,"completionMinutes":45,"basePay":8,"maxBonus":9,"perTrialBonus":0.5,"perTrialBonusThreshold":0.05,"exampleCost":0.01},"classroomParams":{"A":{"a":1,"b":4},"B":{"a":4,"b":1},"C":{"a":2,"b":8},"D":{"a":8,"b":2}},"conditions":["nonSeqFull","nonSeqPartial","seqNoFeedback","seqFeedback"],"classroomPairings":[["A","B"],["C","D"]],"coinWeights":[0.2,0.5,0.8],"subjectId":"A13WTEQ06V3B6D","assignmentId":"33JKGHPFYDGB21GPOQTEY1S0ZYGMN1","hitId":"3SD15I2WD2G0NA4TSPXGB81L5S7630","url":"https://gershmanlab.com/experiments/alicia/teaching/experiment/?hitId=3SD15I2WD2G0NA4TSPXGB81L5S7630&workerId=A13WTEQ06V3B6D&assignmentId=33JKGHPFYDGB21GPOQTEY1S0ZYGMN1&a=FGJ39&tp_a=FGJ39&b=33JKGHPFYDGB21GPOQTEY1S0ZYGMN1&tp_b=33JKGHPFYDGB21GPOQTEY1S0ZYGMN1&c=365799&tp_c=365799","firstResponseHeads":1,"firstResponseTails":4,"secondResponseHeads":1,"secondResponseTails":4,"totalHeads":2,"totalTails":8,"studentIndex":4,"studentTrueHypers":{"a":2,"b":8},"studentGuess":0.2,"delta":0,"bonus":0.4,"bonusSoFar":1.2,"totalExamples":10},{"rt":10736,"response":{"heads":"5","tails":"1"},"type":"response","condition":"seqFeedback","trueTheta":0.8,"classrooms":["A","B"],"studentTrueClassroom":"A","exampleSet":"first","trial_type":"survey-html-form","trial_index":51,"time_elapsed":515107,"internal_node_id":"0.0-47.0-0.0","params":{"nStudents":24,"maxFlips":30,"completionMinutes":45,"basePay":8,"maxBonus":9,"perTrialBonus":0.5,"perTrialBonusThreshold":0.05,"exampleCost":0.01},"classroomParams":{"A":{"a":1,"b":4},"B":{"a":4,"b":1},"C":{"a":2,"b":8},"D":{"a":8,"b":2}},"conditions":["nonSeqFull","nonSeqPartial","seqNoFeedback","seqFeedback"],"classroomPairings":[["A","B"],["C","D"]],"coinWeights":[0.2,0.5,0.8],"subjectId":"A13WTEQ06V3B6D","assignmentId":"33JKGHPFYDGB21GPOQTEY1S0ZYGMN1","hitId":"3SD15I2WD2G0NA4TSPXGB81L5S7630","url":"https://gershmanlab.com/experiments/alicia/teaching/experiment/?hitId=3SD15I2WD2G0NA4TSPXGB81L5S7630&workerId=A13WTEQ06V3B6D&assignmentId=33JKGHPFYDGB21GPOQTEY1S0ZYGMN1&a=FGJ39&tp_a=FGJ39&b=33JKGHPFYDGB21GPOQTEY1S0ZYGMN1&tp_b=33JKGHPFYDGB21GPOQTEY1S0ZYGMN1&c=365799&tp_c=365799","heads":5,"tails":1,"studentIndex":5,"studentTrueHypers":{"a":1,"b":4},"studentGuess":0.5454545454545454,"delta":0.25454545454545463,"totalExamples":6,"bonusSoFar":1.2},{"rt":7470,"response":{"heads":"9","tails":"1"},"type":"response","condition":"seqFeedback","trueTheta":0.8,"classrooms":["A","B"],"studentTrueClassroom":"A","exampleSet":"second","trial_type":"survey-html-form","trial_index":55,"time_elapsed":532077,"internal_node_id":"0.0-51.0-0.0","params":{"nStudents":24,"maxFlips":30,"completionMinutes":45,"basePay":8,"maxBonus":9,"perTrialBonus":0.5,"perTrialBonusThreshold":0.05,"exampleCost":0.01},"classroomParams":{"A":{"a":1,"b":4},"B":{"a":4,"b":1},"C":{"a":2,"b":8},"D":{"a":8,"b":2}},"conditions":["nonSeqFull","nonSeqPartial","seqNoFeedback","seqFeedback"],"classroomPairings":[["A","B"],["C","D"]],"coinWeights":[0.2,0.5,0.8],"subjectId":"A13WTEQ06V3B6D","assignmentId":"33JKGHPFYDGB21GPOQTEY1S0ZYGMN1","hitId":"3SD15I2WD2G0NA4TSPXGB81L5S7630","url":"https://gershmanlab.com/experiments/alicia/teaching/experiment/?hitId=3SD15I2WD2G0NA4TSPXGB81L5S7630&workerId=A13WTEQ06V3B6D&assignmentId=33JKGHPFYDGB21GPOQTEY1S0ZYGMN1&a=FGJ39&tp_a=FGJ39&b=33JKGHPFYDGB21GPOQTEY1S0ZYGMN1&tp_b=33JKGHPFYDGB21GPOQTEY1S0ZYGMN1&c=365799&tp_c=365799","firstResponseHeads":5,"firstResponseTails":1,"secondResponseHeads":9,"secondResponseTails":1,"totalHeads":14,"totalTails":2,"studentIndex":5,"studentTrueHypers":{"a":1,"b":4},"studentGuess":0.7142857142857143,"delta":0.08571428571428574,"bonus":0,"bonusSoFar":1.2,"totalExamples":16},{"rt":4802,"response":{"heads":"8","tails":"1"},"type":"response","condition":"nonSeqFull","trueTheta":0.8,"classrooms":["A","B"],"studentTrueClassroom":"B","exampleSet":"first","trial_type":"survey-html-form","trial_index":61,"time_elapsed":551249,"internal_node_id":"0.0-57.0-0.0","params":{"nStudents":24,"maxFlips":30,"completionMinutes":45,"basePay":8,"maxBonus":9,"perTrialBonus":0.5,"perTrialBonusThreshold":0.05,"exampleCost":0.01},"classroomParams":{"A":{"a":1,"b":4},"B":{"a":4,"b":1},"C":{"a":2,"b":8},"D":{"a":8,"b":2}},"conditions":["nonSeqFull","nonSeqPartial","seqNoFeedback","seqFeedback"],"classroomPairings":[["A","B"],["C","D"]],"coinWeights":[0.2,0.5,0.8],"subjectId":"A13WTEQ06V3B6D","assignmentId":"33JKGHPFYDGB21GPOQTEY1S0ZYGMN1","hitId":"3SD15I2WD2G0NA4TSPXGB81L5S7630","url":"https://gershmanlab.com/experiments/alicia/teaching/experiment/?hitId=3SD15I2WD2G0NA4TSPXGB81L5S7630&workerId=A13WTEQ06V3B6D&assignmentId=33JKGHPFYDGB21GPOQTEY1S0ZYGMN1&a=FGJ39&tp_a=FGJ39&b=33JKGHPFYDGB21GPOQTEY1S0ZYGMN1&tp_b=33JKGHPFYDGB21GPOQTEY1S0ZYGMN1&c=365799&tp_c=365799","heads":8,"tails":1,"studentIndex":6,"studentTrueHypers":{"a":4,"b":1},"studentGuess":0.8571428571428571,"delta":0.05714285714285705,"totalExamples":9,"bonus":0,"bonusSoFar":1.2},{"rt":4021,"response":{"heads":"1","tails":"4"},"type":"response","condition":"nonSeqPartial","trueTheta":0.2,"classrooms":["C","D"],"studentTrueClassroom":"C","exampleSet":"first","trial_type":"survey-html-form","trial_index":67,"time_elapsed":570214,"internal_node_id":"0.0-63.0-0.0","params":{"nStudents":24,"maxFlips":30,"completionMinutes":45,"basePay":8,"maxBonus":9,"perTrialBonus":0.5,"perTrialBonusThreshold":0.05,"exampleCost":0.01},"classroomParams":{"A":{"a":1,"b":4},"B":{"a":4,"b":1},"C":{"a":2,"b":8},"D":{"a":8,"b":2}},"conditions":["nonSeqFull","nonSeqPartial","seqNoFeedback","seqFeedback"],"classroomPairings":[["A","B"],["C","D"]],"coinWeights":[0.2,0.5,0.8],"subjectId":"A13WTEQ06V3B6D","assignmentId":"33JKGHPFYDGB21GPOQTEY1S0ZYGMN1","hitId":"3SD15I2WD2G0NA4TSPXGB81L5S7630","url":"https://gershmanlab.com/experiments/alicia/teaching/experiment/?hitId=3SD15I2WD2G0NA4TSPXGB81L5S7630&workerId=A13WTEQ06V3B6D&assignmentId=33JKGHPFYDGB21GPOQTEY1S0ZYGMN1&a=FGJ39&tp_a=FGJ39&b=33JKGHPFYDGB21GPOQTEY1S0ZYGMN1&tp_b=33JKGHPFYDGB21GPOQTEY1S0ZYGMN1&c=365799&tp_c=365799","heads":1,"tails":4,"studentIndex":7,"studentTrueHypers":{"a":2,"b":8},"studentGuess":0.2,"delta":0,"totalExamples":5,"bonus":0.45,"bonusSoFar":1.65},{"rt":2624,"response":{"heads":"2","tails":"2"},"type":"response","condition":"seqFeedback","trueTheta":0.5,"classrooms":["A","B"],"studentTrueClassroom":"B","exampleSet":"first","trial_type":"survey-html-form","trial_index":73,"time_elapsed":593621,"internal_node_id":"0.0-69.0-0.0","params":{"nStudents":24,"maxFlips":30,"completionMinutes":45,"basePay":8,"maxBonus":9,"perTrialBonus":0.5,"perTrialBonusThreshold":0.05,"exampleCost":0.01},"classroomParams":{"A":{"a":1,"b":4},"B":{"a":4,"b":1},"C":{"a":2,"b":8},"D":{"a":8,"b":2}},"conditions":["nonSeqFull","nonSeqPartial","seqNoFeedback","seqFeedback"],"classroomPairings":[["A","B"],["C","D"]],"coinWeights":[0.2,0.5,0.8],"subjectId":"A13WTEQ06V3B6D","assignmentId":"33JKGHPFYDGB21GPOQTEY1S0ZYGMN1","hitId":"3SD15I2WD2G0NA4TSPXGB81L5S7630","url":"https://gershmanlab.com/experiments/alicia/teaching/experiment/?hitId=3SD15I2WD2G0NA4TSPXGB81L5S7630&workerId=A13WTEQ06V3B6D&assignmentId=33JKGHPFYDGB21GPOQTEY1S0ZYGMN1&a=FGJ39&tp_a=FGJ39&b=33JKGHPFYDGB21GPOQTEY1S0ZYGMN1&tp_b=33JKGHPFYDGB21GPOQTEY1S0ZYGMN1&c=365799&tp_c=365799","heads":2,"tails":2,"studentIndex":8,"studentTrueHypers":{"a":4,"b":1},"studentGuess":0.6666666666666666,"delta":0.16666666666666663,"totalExamples":4,"bonusSoFar":1.65},{"rt":3496,"response":{"heads":"4","tails":"4"},"type":"response","condition":"seqFeedback","trueTheta":0.5,"classrooms":["A","B"],"studentTrueClassroom":"B","exampleSet":"second","trial_type":"survey-html-form","trial_index":77,"time_elapsed":608125,"internal_node_id":"0.0-73.0-0.0","params":{"nStudents":24,"maxFlips":30,"completionMinutes":45,"basePay":8,"maxBonus":9,"perTrialBonus":0.5,"perTrialBonusThreshold":0.05,"exampleCost":0.01},"classroomParams":{"A":{"a":1,"b":4},"B":{"a":4,"b":1},"C":{"a":2,"b":8},"D":{"a":8,"b":2}},"conditions":["nonSeqFull","nonSeqPartial","seqNoFeedback","seqFeedback"],"classroomPairings":[["A","B"],["C","D"]],"coinWeights":[0.2,0.5,0.8],"subjectId":"A13WTEQ06V3B6D","assignmentId":"33JKGHPFYDGB21GPOQTEY1S0ZYGMN1","hitId":"3SD15I2WD2G0NA4TSPXGB81L5S7630","url":"https://gershmanlab.com/experiments/alicia/teaching/experiment/?hitId=3SD15I2WD2G0NA4TSPXGB81L5S7630&workerId=A13WTEQ06V3B6D&assignmentId=33JKGHPFYDGB21GPOQTEY1S0ZYGMN1&a=FGJ39&tp_a=FGJ39&b=33JKGHPFYDGB21GPOQTEY1S0ZYGMN1&tp_b=33JKGHPFYDGB21GPOQTEY1S0ZYGMN1&c=365799&tp_c=365799","firstResponseHeads":2,"firstResponseTails":2,"secondResponseHeads":4,"secondResponseTails":4,"totalHeads":6,"totalTails":6,"studentIndex":8,"studentTrueHypers":{"a":4,"b":1},"studentGuess":0.5882352941176471,"delta":0.08823529411764708,"bonus":0,"bonusSoFar":1.65,"totalExamples":12},{"rt":2692,"response":{"heads":"4","tails":"4"},"type":"response","condition":"nonSeqPartial","trueTheta":0.5,"classrooms":["C","D"],"studentTrueClassroom":"C","exampleSet":"first","trial_type":"survey-html-form","trial_index":83,"time_elapsed":627300,"internal_node_id":"0.0-79.0-0.0","params":{"nStudents":24,"maxFlips":30,"completionMinutes":45,"basePay":8,"maxBonus":9,"perTrialBonus":0.5,"perTrialBonusThreshold":0.05,"exampleCost":0.01},"classroomParams":{"A":{"a":1,"b":4},"B":{"a":4,"b":1},"C":{"a":2,"b":8},"D":{"a":8,"b":2}},"conditions":["nonSeqFull","nonSeqPartial","seqNoFeedback","seqFeedback"],"classroomPairings":[["A","B"],["C","D"]],"coinWeights":[0.2,0.5,0.8],"subjectId":"A13WTEQ06V3B6D","assignmentId":"33JKGHPFYDGB21GPOQTEY1S0ZYGMN1","hitId":"3SD15I2WD2G0NA4TSPXGB81L5S7630","url":"https://gershmanlab.com/experiments/alicia/teaching/experiment/?hitId=3SD15I2WD2G0NA4TSPXGB81L5S7630&workerId=A13WTEQ06V3B6D&assignmentId=33JKGHPFYDGB21GPOQTEY1S0ZYGMN1&a=FGJ39&tp_a=FGJ39&b=33JKGHPFYDGB21GPOQTEY1S0ZYGMN1&tp_b=33JKGHPFYDGB21GPOQTEY1S0ZYGMN1&c=365799&tp_c=365799","heads":4,"tails":4,"studentIndex":9,"studentTrueHypers":{"a":2,"b":8},"studentGuess":0.3333333333333333,"delta":0.16666666666666669,"totalExamples":8,"bonus":0,"bonusSoFar":1.65},{"rt":2866,"response":{"heads":"8","tails":"2"},"type":"response","condition":"nonSeqPartial","trueTheta":0.8,"classrooms":["A","B"],"studentTrueClassroom":"B","exampleSet":"first","trial_type":"survey-html-form","trial_index":89,"time_elapsed":656876,"internal_node_id":"0.0-85.0-0.0","params":{"nStudents":24,"maxFlips":30,"completionMinutes":45,"basePay":8,"maxBonus":9,"perTrialBonus":0.5,"perTrialBonusThreshold":0.05,"exampleCost":0.01},"classroomParams":{"A":{"a":1,"b":4},"B":{"a":4,"b":1},"C":{"a":2,"b":8},"D":{"a":8,"b":2}},"conditions":["nonSeqFull","nonSeqPartial","seqNoFeedback","seqFeedback"],"classroomPairings":[["A","B"],["C","D"]],"coinWeights":[0.2,0.5,0.8],"subjectId":"A13WTEQ06V3B6D","assignmentId":"33JKGHPFYDGB21GPOQTEY1S0ZYGMN1","hitId":"3SD15I2WD2G0NA4TSPXGB81L5S7630","url":"https://gershmanlab.com/experiments/alicia/teaching/experiment/?hitId=3SD15I2WD2G0NA4TSPXGB81L5S7630&workerId=A13WTEQ06V3B6D&assignmentId=33JKGHPFYDGB21GPOQTEY1S0ZYGMN1&a=FGJ39&tp_a=FGJ39&b=33JKGHPFYDGB21GPOQTEY1S0ZYGMN1&tp_b=33JKGHPFYDGB21GPOQTEY1S0ZYGMN1&c=365799&tp_c=365799","heads":8,"tails":2,"studentIndex":10,"studentTrueHypers":{"a":4,"b":1},"studentGuess":0.8,"delta":0,"totalExamples":10,"bonus":0.4,"bonusSoFar":2.05},{"rt":3279,"response":{"heads":"5","tails":"5"},"type":"response","condition":"nonSeqFull","trueTheta":0.5,"classrooms":["A","B"],"studentTrueClassroom":"B","exampleSet":"first","trial_type":"survey-html-form","trial_index":95,"time_elapsed":676695,"internal_node_id":"0.0-91.0-0.0","params":{"nStudents":24,"maxFlips":30,"completionMinutes":45,"basePay":8,"maxBonus":9,"perTrialBonus":0.5,"perTrialBonusThreshold":0.05,"exampleCost":0.01},"classroomParams":{"A":{"a":1,"b":4},"B":{"a":4,"b":1},"C":{"a":2,"b":8},"D":{"a":8,"b":2}},"conditions":["nonSeqFull","nonSeqPartial","seqNoFeedback","seqFeedback"],"classroomPairings":[["A","B"],["C","D"]],"coinWeights":[0.2,0.5,0.8],"subjectId":"A13WTEQ06V3B6D","assignmentId":"33JKGHPFYDGB21GPOQTEY1S0ZYGMN1","hitId":"3SD15I2WD2G0NA4TSPXGB81L5S7630","url":"https://gershmanlab.com/experiments/alicia/teaching/experiment/?hitId=3SD15I2WD2G0NA4TSPXGB81L5S7630&workerId=A13WTEQ06V3B6D&assignmentId=33JKGHPFYDGB21GPOQTEY1S0ZYGMN1&a=FGJ39&tp_a=FGJ39&b=33JKGHPFYDGB21GPOQTEY1S0ZYGMN1&tp_b=33JKGHPFYDGB21GPOQTEY1S0ZYGMN1&c=365799&tp_c=365799","heads":5,"tails":5,"studentIndex":11,"studentTrueHypers":{"a":4,"b":1},"studentGuess":0.6,"delta":0.09999999999999998,"totalExamples":10,"bonus":0,"bonusSoFar":2.05},{"rt":2414,"response":{"heads":"1","tails":"4"},"type":"response","condition":"seqNoFeedback","trueTheta":0.2,"classrooms":["A","B"],"studentTrueClassroom":"B","exampleSet":"first","trial_type":"survey-html-form","trial_index":101,"time_elapsed":697648,"internal_node_id":"0.0-97.0-0.0","params":{"nStudents":24,"maxFlips":30,"completionMinutes":45,"basePay":8,"maxBonus":9,"perTrialBonus":0.5,"perTrialBonusThreshold":0.05,"exampleCost":0.01},"classroomParams":{"A":{"a":1,"b":4},"B":{"a":4,"b":1},"C":{"a":2,"b":8},"D":{"a":8,"b":2}},"conditions":["nonSeqFull","nonSeqPartial","seqNoFeedback","seqFeedback"],"classroomPairings":[["A","B"],["C","D"]],"coinWeights":[0.2,0.5,0.8],"subjectId":"A13WTEQ06V3B6D","assignmentId":"33JKGHPFYDGB21GPOQTEY1S0ZYGMN1","hitId":"3SD15I2WD2G0NA4TSPXGB81L5S7630","url":"https://gershmanlab.com/experiments/alicia/teaching/experiment/?hitId=3SD15I2WD2G0NA4TSPXGB81L5S7630&workerId=A13WTEQ06V3B6D&assignmentId=33JKGHPFYDGB21GPOQTEY1S0ZYGMN1&a=FGJ39&tp_a=FGJ39&b=33JKGHPFYDGB21GPOQTEY1S0ZYGMN1&tp_b=33JKGHPFYDGB21GPOQTEY1S0ZYGMN1&c=365799&tp_c=365799","heads":1,"tails":4,"studentIndex":12,"studentTrueHypers":{"a":4,"b":1},"studentGuess":0.5,"delta":0.3,"totalExamples":5,"bonusSoFar":2.05},{"rt":8863,"response":{"heads":"1","tails":"4"},"type":"response","condition":"seqNoFeedback","trueTheta":0.2,"classrooms":["A","B"],"studentTrueClassroom":"B","exampleSet":"second","trial_type":"survey-html-form","trial_index":104,"time_elapsed":712525,"internal_node_id":"0.0-100.0-0.0","params":{"nStudents":24,"maxFlips":30,"completionMinutes":45,"basePay":8,"maxBonus":9,"perTrialBonus":0.5,"perTrialBonusThreshold":0.05,"exampleCost":0.01},"classroomParams":{"A":{"a":1,"b":4},"B":{"a":4,"b":1},"C":{"a":2,"b":8},"D":{"a":8,"b":2}},"conditions":["nonSeqFull","nonSeqPartial","seqNoFeedback","seqFeedback"],"classroomPairings":[["A","B"],["C","D"]],"coinWeights":[0.2,0.5,0.8],"subjectId":"A13WTEQ06V3B6D","assignmentId":"33JKGHPFYDGB21GPOQTEY1S0ZYGMN1","hitId":"3SD15I2WD2G0NA4TSPXGB81L5S7630","url":"https://gershmanlab.com/experiments/alicia/teaching/experiment/?hitId=3SD15I2WD2G0NA4TSPXGB81L5S7630&workerId=A13WTEQ06V3B6D&assignmentId=33JKGHPFYDGB21GPOQTEY1S0ZYGMN1&a=FGJ39&tp_a=FGJ39&b=33JKGHPFYDGB21GPOQTEY1S0ZYGMN1&tp_b=33JKGHPFYDGB21GPOQTEY1S0ZYGMN1&c=365799&tp_c=365799","firstResponseHeads":1,"firstResponseTails":4,"secondResponseHeads":1,"secondResponseTails":4,"totalHeads":2,"totalTails":8,"studentIndex":12,"studentTrueHypers":{"a":4,"b":1},"studentGuess":0.4,"delta":0.2,"bonus":0,"bonusSoFar":2.05,"totalExamples":10},{"rt":9399,"response":{"heads":"4","tails":"1"},"type":"response","condition":"seqFeedback","trueTheta":0.8,"classrooms":["C","D"],"studentTrueClassroom":"C","exampleSet":"first","trial_type":"survey-html-form","trial_index":110,"time_elapsed":741021,"internal_node_id":"0.0-106.0-0.0","params":{"nStudents":24,"maxFlips":30,"completionMinutes":45,"basePay":8,"maxBonus":9,"perTrialBonus":0.5,"perTrialBonusThreshold":0.05,"exampleCost":0.01},"classroomParams":{"A":{"a":1,"b":4},"B":{"a":4,"b":1},"C":{"a":2,"b":8},"D":{"a":8,"b":2}},"conditions":["nonSeqFull","nonSeqPartial","seqNoFeedback","seqFeedback"],"classroomPairings":[["A","B"],["C","D"]],"coinWeights":[0.2,0.5,0.8],"subjectId":"A13WTEQ06V3B6D","assignmentId":"33JKGHPFYDGB21GPOQTEY1S0ZYGMN1","hitId":"3SD15I2WD2G0NA4TSPXGB81L5S7630","url":"https://gershmanlab.com/experiments/alicia/teaching/experiment/?hitId=3SD15I2WD2G0NA4TSPXGB81L5S7630&workerId=A13WTEQ06V3B6D&assignmentId=33JKGHPFYDGB21GPOQTEY1S0ZYGMN1&a=FGJ39&tp_a=FGJ39&b=33JKGHPFYDGB21GPOQTEY1S0ZYGMN1&tp_b=33JKGHPFYDGB21GPOQTEY1S0ZYGMN1&c=365799&tp_c=365799","heads":4,"tails":1,"studentIndex":13,"studentTrueHypers":{"a":2,"b":8},"studentGuess":0.4,"delta":0.4,"totalExamples":5,"bonusSoFar":2.05},{"rt":3145,"response":{"heads":"8","tails":"2"},"type":"response","condition":"seqFeedback","trueTheta":0.8,"classrooms":["C","D"],"studentTrueClassroom":"C","exampleSet":"second","trial_type":"survey-html-form","trial_index":114,"time_elapsed":753528,"internal_node_id":"0.0-110.0-0.0","params":{"nStudents":24,"maxFlips":30,"completionMinutes":45,"basePay":8,"maxBonus":9,"perTrialBonus":0.5,"perTrialBonusThreshold":0.05,"exampleCost":0.01},"classroomParams":{"A":{"a":1,"b":4},"B":{"a":4,"b":1},"C":{"a":2,"b":8},"D":{"a":8,"b":2}},"conditions":["nonSeqFull","nonSeqPartial","seqNoFeedback","seqFeedback"],"classroomPairings":[["A","B"],["C","D"]],"coinWeights":[0.2,0.5,0.8],"subjectId":"A13WTEQ06V3B6D","assignmentId":"33JKGHPFYDGB21GPOQTEY1S0ZYGMN1","hitId":"3SD15I2WD2G0NA4TSPXGB81L5S7630","url":"https://gershmanlab.com/experiments/alicia/teaching/experiment/?hitId=3SD15I2WD2G0NA4TSPXGB81L5S7630&workerId=A13WTEQ06V3B6D&assignmentId=33JKGHPFYDGB21GPOQTEY1S0ZYGMN1&a=FGJ39&tp_a=FGJ39&b=33JKGHPFYDGB21GPOQTEY1S0ZYGMN1&tp_b=33JKGHPFYDGB21GPOQTEY1S0ZYGMN1&c=365799&tp_c=365799","firstResponseHeads":4,"firstResponseTails":1,"secondResponseHeads":8,"secondResponseTails":2,"totalHeads":12,"totalTails":3,"studentIndex":13,"studentTrueHypers":{"a":2,"b":8},"studentGuess":0.56,"delta":0.24,"bonus":0,"bonusSoFar":2.05,"totalExamples":15},{"rt":3568,"response":{"heads":"8","tails":"2"},"type":"response","condition":"nonSeqPartial","trueTheta":0.8,"classrooms":["C","D"],"studentTrueClassroom":"C","exampleSet":"first","trial_type":"survey-html-form","trial_index":120,"time_elapsed":780501,"internal_node_id":"0.0-116.0-0.0","params":{"nStudents":24,"maxFlips":30,"completionMinutes":45,"basePay":8,"maxBonus":9,"perTrialBonus":0.5,"perTrialBonusThreshold":0.05,"exampleCost":0.01},"classroomParams":{"A":{"a":1,"b":4},"B":{"a":4,"b":1},"C":{"a":2,"b":8},"D":{"a":8,"b":2}},"conditions":["nonSeqFull","nonSeqPartial","seqNoFeedback","seqFeedback"],"classroomPairings":[["A","B"],["C","D"]],"coinWeights":[0.2,0.5,0.8],"subjectId":"A13WTEQ06V3B6D","assignmentId":"33JKGHPFYDGB21GPOQTEY1S0ZYGMN1","hitId":"3SD15I2WD2G0NA4TSPXGB81L5S7630","url":"https://gershmanlab.com/experiments/alicia/teaching/experiment/?hitId=3SD15I2WD2G0NA4TSPXGB81L5S7630&workerId=A13WTEQ06V3B6D&assignmentId=33JKGHPFYDGB21GPOQTEY1S0ZYGMN1&a=FGJ39&tp_a=FGJ39&b=33JKGHPFYDGB21GPOQTEY1S0ZYGMN1&tp_b=33JKGHPFYDGB21GPOQTEY1S0ZYGMN1&c=365799&tp_c=365799","heads":8,"tails":2,"studentIndex":14,"studentTrueHypers":{"a":2,"b":8},"studentGuess":0.5,"delta":0.30000000000000004,"totalExamples":10,"bonus":0,"bonusSoFar":2.05},{"rt":4036,"response":{"heads":"5","tails":"5"},"type":"response","condition":"nonSeqFull","trueTheta":0.5,"classrooms":["C","D"],"studentTrueClassroom":"C","exampleSet":"first","trial_type":"survey-html-form","trial_index":126,"time_elapsed":803595,"internal_node_id":"0.0-122.0-0.0","params":{"nStudents":24,"maxFlips":30,"completionMinutes":45,"basePay":8,"maxBonus":9,"perTrialBonus":0.5,"perTrialBonusThreshold":0.05,"exampleCost":0.01},"classroomParams":{"A":{"a":1,"b":4},"B":{"a":4,"b":1},"C":{"a":2,"b":8},"D":{"a":8,"b":2}},"conditions":["nonSeqFull","nonSeqPartial","seqNoFeedback","seqFeedback"],"classroomPairings":[["A","B"],["C","D"]],"coinWeights":[0.2,0.5,0.8],"subjectId":"A13WTEQ06V3B6D","assignmentId":"33JKGHPFYDGB21GPOQTEY1S0ZYGMN1","hitId":"3SD15I2WD2G0NA4TSPXGB81L5S7630","url":"https://gershmanlab.com/experiments/alicia/teaching/experiment/?hitId=3SD15I2WD2G0NA4TSPXGB81L5S7630&workerId=A13WTEQ06V3B6D&assignmentId=33JKGHPFYDGB21GPOQTEY1S0ZYGMN1&a=FGJ39&tp_a=FGJ39&b=33JKGHPFYDGB21GPOQTEY1S0ZYGMN1&tp_b=33JKGHPFYDGB21GPOQTEY1S0ZYGMN1&c=365799&tp_c=365799","heads":5,"tails":5,"studentIndex":15,"studentTrueHypers":{"a":2,"b":8},"studentGuess":0.35,"delta":0.15000000000000002,"totalExamples":10,"bonus":0,"bonusSoFar":2.05},{"rt":3195,"response":{"heads":"15","tails":"15"},"type":"response","condition":"seqNoFeedback","trueTheta":0.5,"classrooms":["C","D"],"studentTrueClassroom":"C","exampleSet":"first","trial_type":"survey-html-form","trial_index":132,"time_elapsed":828022,"internal_node_id":"0.0-128.0-0.0","params":{"nStudents":24,"maxFlips":30,"completionMinutes":45,"basePay":8,"maxBonus":9,"perTrialBonus":0.5,"perTrialBonusThreshold":0.05,"exampleCost":0.01},"classroomParams":{"A":{"a":1,"b":4},"B":{"a":4,"b":1},"C":{"a":2,"b":8},"D":{"a":8,"b":2}},"conditions":["nonSeqFull","nonSeqPartial","seqNoFeedback","seqFeedback"],"classroomPairings":[["A","B"],["C","D"]],"coinWeights":[0.2,0.5,0.8],"subjectId":"A13WTEQ06V3B6D","assignmentId":"33JKGHPFYDGB21GPOQTEY1S0ZYGMN1","hitId":"3SD15I2WD2G0NA4TSPXGB81L5S7630","url":"https://gershmanlab.com/experiments/alicia/teaching/experiment/?hitId=3SD15I2WD2G0NA4TSPXGB81L5S7630&workerId=A13WTEQ06V3B6D&assignmentId=33JKGHPFYDGB21GPOQTEY1S0ZYGMN1&a=FGJ39&tp_a=FGJ39&b=33JKGHPFYDGB21GPOQTEY1S0ZYGMN1&tp_b=33JKGHPFYDGB21GPOQTEY1S0ZYGMN1&c=365799&tp_c=365799","heads":15,"tails":15,"studentIndex":16,"studentTrueHypers":{"a":2,"b":8},"studentGuess":0.425,"delta":0.07500000000000001,"totalExamples":30,"bonusSoFar":2.05},{"rt":5651,"response":{"heads":"15","tails":"15"},"type":"response","condition":"seqNoFeedback","trueTheta":0.5,"classrooms":["C","D"],"studentTrueClassroom":"C","exampleSet":"second","trial_type":"survey-html-form","trial_index":135,"time_elapsed":840184,"internal_node_id":"0.0-131.0-0.0","params":{"nStudents":24,"maxFlips":30,"completionMinutes":45,"basePay":8,"maxBonus":9,"perTrialBonus":0.5,"perTrialBonusThreshold":0.05,"exampleCost":0.01},"classroomParams":{"A":{"a":1,"b":4},"B":{"a":4,"b":1},"C":{"a":2,"b":8},"D":{"a":8,"b":2}},"conditions":["nonSeqFull","nonSeqPartial","seqNoFeedback","seqFeedback"],"classroomPairings":[["A","B"],["C","D"]],"coinWeights":[0.2,0.5,0.8],"subjectId":"A13WTEQ06V3B6D","assignmentId":"33JKGHPFYDGB21GPOQTEY1S0ZYGMN1","hitId":"3SD15I2WD2G0NA4TSPXGB81L5S7630","url":"https://gershmanlab.com/experiments/alicia/teaching/experiment/?hitId=3SD15I2WD2G0NA4TSPXGB81L5S7630&workerId=A13WTEQ06V3B6D&assignmentId=33JKGHPFYDGB21GPOQTEY1S0ZYGMN1&a=FGJ39&tp_a=FGJ39&b=33JKGHPFYDGB21GPOQTEY1S0ZYGMN1&tp_b=33JKGHPFYDGB21GPOQTEY1S0ZYGMN1&c=365799&tp_c=365799","firstResponseHeads":15,"firstResponseTails":15,"secondResponseHeads":15,"secondResponseTails":15,"totalHeads":30,"totalTails":30,"studentIndex":16,"studentTrueHypers":{"a":2,"b":8},"studentGuess":0.45714285714285713,"delta":0.04285714285714287,"bonus":0,"bonusSoFar":2.05,"totalExamples":60},{"rt":3867,"response":{"heads":"2","tails":"8"},"type":"response","condition":"nonSeqFull","trueTheta":0.2,"classrooms":["C","D"],"studentTrueClassroom":"C","exampleSet":"first","trial_type":"survey-html-form","trial_index":141,"time_elapsed":857065,"internal_node_id":"0.0-137.0-0.0","params":{"nStudents":24,"maxFlips":30,"completionMinutes":45,"basePay":8,"maxBonus":9,"perTrialBonus":0.5,"perTrialBonusThreshold":0.05,"exampleCost":0.01},"classroomParams":{"A":{"a":1,"b":4},"B":{"a":4,"b":1},"C":{"a":2,"b":8},"D":{"a":8,"b":2}},"conditions":["nonSeqFull","nonSeqPartial","seqNoFeedback","seqFeedback"],"classroomPairings":[["A","B"],["C","D"]],"coinWeights":[0.2,0.5,0.8],"subjectId":"A13WTEQ06V3B6D","assignmentId":"33JKGHPFYDGB21GPOQTEY1S0ZYGMN1","hitId":"3SD15I2WD2G0NA4TSPXGB81L5S7630","url":"https://gershmanlab.com/experiments/alicia/teaching/experiment/?hitId=3SD15I2WD2G0NA4TSPXGB81L5S7630&workerId=A13WTEQ06V3B6D&assignmentId=33JKGHPFYDGB21GPOQTEY1S0ZYGMN1&a=FGJ39&tp_a=FGJ39&b=33JKGHPFYDGB21GPOQTEY1S0ZYGMN1&tp_b=33JKGHPFYDGB21GPOQTEY1S0ZYGMN1&c=365799&tp_c=365799","heads":2,"tails":8,"studentIndex":17,"studentTrueHypers":{"a":2,"b":8},"studentGuess":0.2,"delta":0,"totalExamples":10,"bonus":0.4,"bonusSoFar":2.45},{"rt":3093,"response":{"heads":"8","tails":"2"},"type":"response","condition":"nonSeqFull","trueTheta":0.8,"classrooms":["C","D"],"studentTrueClassroom":"D","exampleSet":"first","trial_type":"survey-html-form","trial_index":147,"time_elapsed":873983,"internal_node_id":"0.0-143.0-0.0","params":{"nStudents":24,"maxFlips":30,"completionMinutes":45,"basePay":8,"maxBonus":9,"perTrialBonus":0.5,"perTrialBonusThreshold":0.05,"exampleCost":0.01},"classroomParams":{"A":{"a":1,"b":4},"B":{"a":4,"b":1},"C":{"a":2,"b":8},"D":{"a":8,"b":2}},"conditions":["nonSeqFull","nonSeqPartial","seqNoFeedback","seqFeedback"],"classroomPairings":[["A","B"],["C","D"]],"coinWeights":[0.2,0.5,0.8],"subjectId":"A13WTEQ06V3B6D","assignmentId":"33JKGHPFYDGB21GPOQTEY1S0ZYGMN1","hitId":"3SD15I2WD2G0NA4TSPXGB81L5S7630","url":"https://gershmanlab.com/experiments/alicia/teaching/experiment/?hitId=3SD15I2WD2G0NA4TSPXGB81L5S7630&workerId=A13WTEQ06V3B6D&assignmentId=33JKGHPFYDGB21GPOQTEY1S0ZYGMN1&a=FGJ39&tp_a=FGJ39&b=33JKGHPFYDGB21GPOQTEY1S0ZYGMN1&tp_b=33JKGHPFYDGB21GPOQTEY1S0ZYGMN1&c=365799&tp_c=365799","heads":8,"tails":2,"studentIndex":18,"studentTrueHypers":{"a":8,"b":2},"studentGuess":0.8,"delta":0,"totalExamples":10,"bonus":0.4,"bonusSoFar":2.85},{"rt":2867,"response":{"heads":"8","tails":"2"},"type":"response","condition":"seqNoFeedback","trueTheta":0.8,"classrooms":["A","B"],"studentTrueClassroom":"A","exampleSet":"first","trial_type":"survey-html-form","trial_index":153,"time_elapsed":888190,"internal_node_id":"0.0-149.0-0.0","params":{"nStudents":24,"maxFlips":30,"completionMinutes":45,"basePay":8,"maxBonus":9,"perTrialBonus":0.5,"perTrialBonusThreshold":0.05,"exampleCost":0.01},"classroomParams":{"A":{"a":1,"b":4},"B":{"a":4,"b":1},"C":{"a":2,"b":8},"D":{"a":8,"b":2}},"conditions":["nonSeqFull","nonSeqPartial","seqNoFeedback","seqFeedback"],"classroomPairings":[["A","B"],["C","D"]],"coinWeights":[0.2,0.5,0.8],"subjectId":"A13WTEQ06V3B6D","assignmentId":"33JKGHPFYDGB21GPOQTEY1S0ZYGMN1","hitId":"3SD15I2WD2G0NA4TSPXGB81L5S7630","url":"https://gershmanlab.com/experiments/alicia/teaching/experiment/?hitId=3SD15I2WD2G0NA4TSPXGB81L5S7630&workerId=A13WTEQ06V3B6D&assignmentId=33JKGHPFYDGB21GPOQTEY1S0ZYGMN1&a=FGJ39&tp_a=FGJ39&b=33JKGHPFYDGB21GPOQTEY1S0ZYGMN1&tp_b=33JKGHPFYDGB21GPOQTEY1S0ZYGMN1&c=365799&tp_c=365799","heads":8,"tails":2,"studentIndex":19,"studentTrueHypers":{"a":1,"b":4},"studentGuess":0.6,"delta":0.20000000000000007,"totalExamples":10,"bonusSoFar":2.85},{"rt":4134,"response":{"heads":"8","tails":"2"},"type":"response","condition":"seqNoFeedback","trueTheta":0.8,"classrooms":["A","B"],"studentTrueClassroom":"A","exampleSet":"second","trial_type":"survey-html-form","trial_index":156,"time_elapsed":899338,"internal_node_id":"0.0-152.0-0.0","params":{"nStudents":24,"maxFlips":30,"completionMinutes":45,"basePay":8,"maxBonus":9,"perTrialBonus":0.5,"perTrialBonusThreshold":0.05,"exampleCost":0.01},"classroomParams":{"A":{"a":1,"b":4},"B":{"a":4,"b":1},"C":{"a":2,"b":8},"D":{"a":8,"b":2}},"conditions":["nonSeqFull","nonSeqPartial","seqNoFeedback","seqFeedback"],"classroomPairings":[["A","B"],["C","D"]],"coinWeights":[0.2,0.5,0.8],"subjectId":"A13WTEQ06V3B6D","assignmentId":"33JKGHPFYDGB21GPOQTEY1S0ZYGMN1","hitId":"3SD15I2WD2G0NA4TSPXGB81L5S7630","url":"https://gershmanlab.com/experiments/alicia/teaching/experiment/?hitId=3SD15I2WD2G0NA4TSPXGB81L5S7630&workerId=A13WTEQ06V3B6D&assignmentId=33JKGHPFYDGB21GPOQTEY1S0ZYGMN1&a=FGJ39&tp_a=FGJ39&b=33JKGHPFYDGB21GPOQTEY1S0ZYGMN1&tp_b=33JKGHPFYDGB21GPOQTEY1S0ZYGMN1&c=365799&tp_c=365799","firstResponseHeads":8,"firstResponseTails":2,"secondResponseHeads":8,"secondResponseTails":2,"totalHeads":16,"totalTails":4,"studentIndex":19,"studentTrueHypers":{"a":1,"b":4},"studentGuess":0.68,"delta":0.12,"bonus":0,"bonusSoFar":2.85,"totalExamples":20},{"rt":3780,"response":{"heads":"10","tails":"10"},"type":"response","condition":"seqNoFeedback","trueTheta":0.5,"classrooms":["A","B"],"studentTrueClassroom":"B","exampleSet":"first","trial_type":"survey-html-form","trial_index":162,"time_elapsed":918243,"internal_node_id":"0.0-158.0-0.0","params":{"nStudents":24,"maxFlips":30,"completionMinutes":45,"basePay":8,"maxBonus":9,"perTrialBonus":0.5,"perTrialBonusThreshold":0.05,"exampleCost":0.01},"classroomParams":{"A":{"a":1,"b":4},"B":{"a":4,"b":1},"C":{"a":2,"b":8},"D":{"a":8,"b":2}},"conditions":["nonSeqFull","nonSeqPartial","seqNoFeedback","seqFeedback"],"classroomPairings":[["A","B"],["C","D"]],"coinWeights":[0.2,0.5,0.8],"subjectId":"A13WTEQ06V3B6D","assignmentId":"33JKGHPFYDGB21GPOQTEY1S0ZYGMN1","hitId":"3SD15I2WD2G0NA4TSPXGB81L5S7630","url":"https://gershmanlab.com/experiments/alicia/teaching/experiment/?hitId=3SD15I2WD2G0NA4TSPXGB81L5S7630&workerId=A13WTEQ06V3B6D&assignmentId=33JKGHPFYDGB21GPOQTEY1S0ZYGMN1&a=FGJ39&tp_a=FGJ39&b=33JKGHPFYDGB21GPOQTEY1S0ZYGMN1&tp_b=33JKGHPFYDGB21GPOQTEY1S0ZYGMN1&c=365799&tp_c=365799","heads":10,"tails":10,"studentIndex":20,"studentTrueHypers":{"a":4,"b":1},"studentGuess":0.56,"delta":0.06000000000000005,"totalExamples":20,"bonusSoFar":2.85},{"rt":8850,"response":{"heads":"10","tails":"10"},"type":"response","condition":"seqNoFeedback","trueTheta":0.5,"classrooms":["A","B"],"studentTrueClassroom":"B","exampleSet":"second","trial_type":"survey-html-form","trial_index":165,"time_elapsed":933856,"internal_node_id":"0.0-161.0-0.0","params":{"nStudents":24,"maxFlips":30,"completionMinutes":45,"basePay":8,"maxBonus":9,"perTrialBonus":0.5,"perTrialBonusThreshold":0.05,"exampleCost":0.01},"classroomParams":{"A":{"a":1,"b":4},"B":{"a":4,"b":1},"C":{"a":2,"b":8},"D":{"a":8,"b":2}},"conditions":["nonSeqFull","nonSeqPartial","seqNoFeedback","seqFeedback"],"classroomPairings":[["A","B"],["C","D"]],"coinWeights":[0.2,0.5,0.8],"subjectId":"A13WTEQ06V3B6D","assignmentId":"33JKGHPFYDGB21GPOQTEY1S0ZYGMN1","hitId":"3SD15I2WD2G0NA4TSPXGB81L5S7630","url":"https://gershmanlab.com/experiments/alicia/teaching/experiment/?hitId=3SD15I2WD2G0NA4TSPXGB81L5S7630&workerId=A13WTEQ06V3B6D&assignmentId=33JKGHPFYDGB21GPOQTEY1S0ZYGMN1&a=FGJ39&tp_a=FGJ39&b=33JKGHPFYDGB21GPOQTEY1S0ZYGMN1&tp_b=33JKGHPFYDGB21GPOQTEY1S0ZYGMN1&c=365799&tp_c=365799","firstResponseHeads":10,"firstResponseTails":10,"secondResponseHeads":10,"secondResponseTails":10,"totalHeads":20,"totalTails":20,"studentIndex":20,"studentTrueHypers":{"a":4,"b":1},"studentGuess":0.5333333333333333,"delta":0.033333333333333326,"bonus":0.1,"bonusSoFar":2.95,"totalExamples":40},{"rt":2787,"response":{"heads":"8","tails":"2"},"type":"response","condition":"seqNoFeedback","trueTheta":0.8,"classrooms":["C","D"],"studentTrueClassroom":"C","exampleSet":"first","trial_type":"survey-html-form","trial_index":171,"time_elapsed":954592,"internal_node_id":"0.0-167.0-0.0","params":{"nStudents":24,"maxFlips":30,"completionMinutes":45,"basePay":8,"maxBonus":9,"perTrialBonus":0.5,"perTrialBonusThreshold":0.05,"exampleCost":0.01},"classroomParams":{"A":{"a":1,"b":4},"B":{"a":4,"b":1},"C":{"a":2,"b":8},"D":{"a":8,"b":2}},"conditions":["nonSeqFull","nonSeqPartial","seqNoFeedback","seqFeedback"],"classroomPairings":[["A","B"],["C","D"]],"coinWeights":[0.2,0.5,0.8],"subjectId":"A13WTEQ06V3B6D","assignmentId":"33JKGHPFYDGB21GPOQTEY1S0ZYGMN1","hitId":"3SD15I2WD2G0NA4TSPXGB81L5S7630","url":"https://gershmanlab.com/experiments/alicia/teaching/experiment/?hitId=3SD15I2WD2G0NA4TSPXGB81L5S7630&workerId=A13WTEQ06V3B6D&assignmentId=33JKGHPFYDGB21GPOQTEY1S0ZYGMN1&a=FGJ39&tp_a=FGJ39&b=33JKGHPFYDGB21GPOQTEY1S0ZYGMN1&tp_b=33JKGHPFYDGB21GPOQTEY1S0ZYGMN1&c=365799&tp_c=365799","heads":8,"tails":2,"studentIndex":21,"studentTrueHypers":{"a":2,"b":8},"studentGuess":0.5,"delta":0.30000000000000004,"totalExamples":10,"bonusSoFar":2.95},{"rt":7135,"response":{"heads":"8","tails":"2"},"type":"response","condition":"seqNoFeedback","trueTheta":0.8,"classrooms":["C","D"],"studentTrueClassroom":"C","exampleSet":"second","trial_type":"survey-html-form","trial_index":174,"time_elapsed":968252,"internal_node_id":"0.0-170.0-0.0","params":{"nStudents":24,"maxFlips":30,"completionMinutes":45,"basePay":8,"maxBonus":9,"perTrialBonus":0.5,"perTrialBonusThreshold":0.05,"exampleCost":0.01},"classroomParams":{"A":{"a":1,"b":4},"B":{"a":4,"b":1},"C":{"a":2,"b":8},"D":{"a":8,"b":2}},"conditions":["nonSeqFull","nonSeqPartial","seqNoFeedback","seqFeedback"],"classroomPairings":[["A","B"],["C","D"]],"coinWeights":[0.2,0.5,0.8],"subjectId":"A13WTEQ06V3B6D","assignmentId":"33JKGHPFYDGB21GPOQTEY1S0ZYGMN1","hitId":"3SD15I2WD2G0NA4TSPXGB81L5S7630","url":"https://gershmanlab.com/experiments/alicia/teaching/experiment/?hitId=3SD15I2WD2G0NA4TSPXGB81L5S7630&workerId=A13WTEQ06V3B6D&assignmentId=33JKGHPFYDGB21GPOQTEY1S0ZYGMN1&a=FGJ39&tp_a=FGJ39&b=33JKGHPFYDGB21GPOQTEY1S0ZYGMN1&tp_b=33JKGHPFYDGB21GPOQTEY1S0ZYGMN1&c=365799&tp_c=365799","firstResponseHeads":8,"firstResponseTails":2,"secondResponseHeads":8,"secondResponseTails":2,"totalHeads":16,"totalTails":4,"studentIndex":21,"studentTrueHypers":{"a":2,"b":8},"studentGuess":0.6,"delta":0.20000000000000007,"bonus":0,"bonusSoFar":2.95,"totalExamples":20},{"rt":3300,"response":{"heads":"1","tails":"4"},"type":"response","condition":"seqFeedback","trueTheta":0.2,"classrooms":["A","B"],"studentTrueClassroom":"A","exampleSet":"first","trial_type":"survey-html-form","trial_index":180,"time_elapsed":990040,"internal_node_id":"0.0-176.0-0.0","params":{"nStudents":24,"maxFlips":30,"completionMinutes":45,"basePay":8,"maxBonus":9,"perTrialBonus":0.5,"perTrialBonusThreshold":0.05,"exampleCost":0.01},"classroomParams":{"A":{"a":1,"b":4},"B":{"a":4,"b":1},"C":{"a":2,"b":8},"D":{"a":8,"b":2}},"conditions":["nonSeqFull","nonSeqPartial","seqNoFeedback","seqFeedback"],"classroomPairings":[["A","B"],["C","D"]],"coinWeights":[0.2,0.5,0.8],"subjectId":"A13WTEQ06V3B6D","assignmentId":"33JKGHPFYDGB21GPOQTEY1S0ZYGMN1","hitId":"3SD15I2WD2G0NA4TSPXGB81L5S7630","url":"https://gershmanlab.com/experiments/alicia/teaching/experiment/?hitId=3SD15I2WD2G0NA4TSPXGB81L5S7630&workerId=A13WTEQ06V3B6D&assignmentId=33JKGHPFYDGB21GPOQTEY1S0ZYGMN1&a=FGJ39&tp_a=FGJ39&b=33JKGHPFYDGB21GPOQTEY1S0ZYGMN1&tp_b=33JKGHPFYDGB21GPOQTEY1S0ZYGMN1&c=365799&tp_c=365799","heads":1,"tails":4,"studentIndex":22,"studentTrueHypers":{"a":1,"b":4},"studentGuess":0.2,"delta":0,"totalExamples":5,"bonusSoFar":2.95},{"rt":2546,"response":{"heads":"1","tails":"4"},"type":"response","condition":"seqFeedback","trueTheta":0.2,"classrooms":["A","B"],"studentTrueClassroom":"A","exampleSet":"second","trial_type":"survey-html-form","trial_index":184,"time_elapsed":1001474,"internal_node_id":"0.0-180.0-0.0","params":{"nStudents":24,"maxFlips":30,"completionMinutes":45,"basePay":8,"maxBonus":9,"perTrialBonus":0.5,"perTrialBonusThreshold":0.05,"exampleCost":0.01},"classroomParams":{"A":{"a":1,"b":4},"B":{"a":4,"b":1},"C":{"a":2,"b":8},"D":{"a":8,"b":2}},"conditions":["nonSeqFull","nonSeqPartial","seqNoFeedback","seqFeedback"],"classroomPairings":[["A","B"],["C","D"]],"coinWeights":[0.2,0.5,0.8],"subjectId":"A13WTEQ06V3B6D","assignmentId":"33JKGHPFYDGB21GPOQTEY1S0ZYGMN1","hitId":"3SD15I2WD2G0NA4TSPXGB81L5S7630","url":"https://gershmanlab.com/experiments/alicia/teaching/experiment/?hitId=3SD15I2WD2G0NA4TSPXGB81L5S7630&workerId=A13WTEQ06V3B6D&assignmentId=33JKGHPFYDGB21GPOQTEY1S0ZYGMN1&a=FGJ39&tp_a=FGJ39&b=33JKGHPFYDGB21GPOQTEY1S0ZYGMN1&tp_b=33JKGHPFYDGB21GPOQTEY1S0ZYGMN1&c=365799&tp_c=365799","firstResponseHeads":1,"firstResponseTails":4,"secondResponseHeads":1,"secondResponseTails":4,"totalHeads":2,"totalTails":8,"studentIndex":22,"studentTrueHypers":{"a":1,"b":4},"studentGuess":0.2,"delta":0,"bonus":0.4,"bonusSoFar":3.35,"totalExamples":10},{"rt":2141,"response":{"heads":"1","tails":"4"},"type":"response","condition":"nonSeqPartial","trueTheta":0.2,"classrooms":["A","B"],"studentTrueClassroom":"A","exampleSet":"first","trial_type":"survey-html-form","trial_index":190,"time_elapsed":1017389,"internal_node_id":"0.0-186.0-0.0","params":{"nStudents":24,"maxFlips":30,"completionMinutes":45,"basePay":8,"maxBonus":9,"perTrialBonus":0.5,"perTrialBonusThreshold":0.05,"exampleCost":0.01},"classroomParams":{"A":{"a":1,"b":4},"B":{"a":4,"b":1},"C":{"a":2,"b":8},"D":{"a":8,"b":2}},"conditions":["nonSeqFull","nonSeqPartial","seqNoFeedback","seqFeedback"],"classroomPairings":[["A","B"],["C","D"]],"coinWeights":[0.2,0.5,0.8],"subjectId":"A13WTEQ06V3B6D","assignmentId":"33JKGHPFYDGB21GPOQTEY1S0ZYGMN1","hitId":"3SD15I2WD2G0NA4TSPXGB81L5S7630","url":"https://gershmanlab.com/experiments/alicia/teaching/experiment/?hitId=3SD15I2WD2G0NA4TSPXGB81L5S7630&workerId=A13WTEQ06V3B6D&assignmentId=33JKGHPFYDGB21GPOQTEY1S0ZYGMN1&a=FGJ39&tp_a=FGJ39&b=33JKGHPFYDGB21GPOQTEY1S0ZYGMN1&tp_b=33JKGHPFYDGB21GPOQTEY1S0ZYGMN1&c=365799&tp_c=365799","heads":1,"tails":4,"studentIndex":23,"studentTrueHypers":{"a":1,"b":4},"studentGuess":0.2,"delta":0,"totalExamples":5,"bonus":0.45,"bonusSoFar":3.8},{"rt":33071,"response":{"gender":"male","age":"30","understood":"yes","comments":"I had fun and wished that the experiment was longer in order to get a higher bonus."},"type":"response","trial_type":"survey-html-form","trial_index":194,"time_elapsed":1059506,"internal_node_id":"0.0-191.0","params":{"nStudents":24,"maxFlips":30,"completionMinutes":45,"basePay":8,"maxBonus":9,"perTrialBonus":0.5,"perTrialBonusThreshold":0.05,"exampleCost":0.01},"classroomParams":{"A":{"a":1,"b":4},"B":{"a":4,"b":1},"C":{"a":2,"b":8},"D":{"a":8,"b":2}},"conditions":["nonSeqFull","nonSeqPartial","seqNoFeedback","seqFeedback"],"classroomPairings":[["A","B"],["C","D"]],"coinWeights":[0.2,0.5,0.8],"subjectId":"A13WTEQ06V3B6D","assignmentId":"33JKGHPFYDGB21GPOQTEY1S0ZYGMN1","hitId":"3SD15I2WD2G0NA4TSPXGB81L5S7630","url":"https://gershmanlab.com/experiments/alicia/teaching/experiment/?hitId=3SD15I2WD2G0NA4TSPXGB81L5S7630&workerId=A13WTEQ06V3B6D&assignmentId=33JKGHPFYDGB21GPOQTEY1S0ZYGMN1&a=FGJ39&tp_a=FGJ39&b=33JKGHPFYDGB21GPOQTEY1S0ZYGMN1&tp_b=33JKGHPFYDGB21GPOQTEY1S0ZYGMN1&c=365799&tp_c=365799","totalBonus":3.8}]