[{"rt":34649,"response":{"heads":"2","tails":"8"},"type":"response","condition":"nonSeqPartial","trueTheta":0.2,"classrooms":["C","D"],"studentTrueClassroom":"C","exampleSet":"first","trial_type":"survey-html-form","trial_index":10,"time_elapsed":448798,"internal_node_id":"0.0-6.0-0.0","params":{"nStudents":24,"maxFlips":30,"completionMinutes":45,"basePay":8,"maxBonus":9,"perTrialBonus":0.5,"perTrialBonusThreshold":0.05,"exampleCost":0.01},"classroomParams":{"A":{"a":1,"b":4},"B":{"a":4,"b":1},"C":{"a":2,"b":8},"D":{"a":8,"b":2}},"conditions":["nonSeqFull","nonSeqPartial","seqNoFeedback","seqFeedback"],"classroomPairings":[["A","B"],["C","D"]],"coinWeights":[0.2,0.5,0.8],"subjectId":"A16335MOISDG1F","assignmentId":"3YZ8UPK3VU8BO5O782BM90FIDG5CU1","hitId":"3E9VAUV7BW02QFDK7N7IH7ZKACRYAN","url":"https://gershmanlab.com/experiments/alicia/teaching/experiment/?hitId=3E9VAUV7BW02QFDK7N7IH7ZKACRYAN&workerId=A16335MOISDG1F&assignmentId=3YZ8UPK3VU8BO5O782BM90FIDG5CU1&a=3UZY9&tp_a=3UZY9&b=3YZ8UPK3VU8BO5O782BM90FIDG5CU1&tp_b=3YZ8UPK3VU8BO5O782BM90FIDG5CU1&c=365799&tp_c=365799","heads":2,"tails":8,"studentIndex":0,"studentTrueHypers":{"a":2,"b":8},"studentGuess":0.2,"delta":0,"totalExamples":10,"bonus":0.4,"bonusSoFar":0.4},{"rt":7656,"response":{"heads":"8","tails":"2"},"type":"response","condition":"seqNoFeedback","trueTheta":0.8,"classrooms":["C","D"],"studentTrueClassroom":"C","exampleSet":"first","trial_type":"survey-html-form","trial_index":16,"time_elapsed":473716,"internal_node_id":"0.0-12.0-0.0","params":{"nStudents":24,"maxFlips":30,"completionMinutes":45,"basePay":8,"maxBonus":9,"perTrialBonus":0.5,"perTrialBonusThreshold":0.05,"exampleCost":0.01},"classroomParams":{"A":{"a":1,"b":4},"B":{"a":4,"b":1},"C":{"a":2,"b":8},"D":{"a":8,"b":2}},"conditions":["nonSeqFull","nonSeqPartial","seqNoFeedback","seqFeedback"],"classroomPairings":[["A","B"],["C","D"]],"coinWeights":[0.2,0.5,0.8],"subjectId":"A16335MOISDG1F","assignmentId":"3YZ8UPK3VU8BO5O782BM90FIDG5CU1","hitId":"3E9VAUV7BW02QFDK7N7IH7ZKACRYAN","url":"https://gershmanlab.com/experiments/alicia/teaching/experiment/?hitId=3E9VAUV7BW02QFDK7N7IH7ZKACRYAN&workerId=A16335MOISDG1F&assignmentId=3YZ8UPK3VU8BO5O782BM90FIDG5CU1&a=3UZY9&tp_a=3UZY9&b=3YZ8UPK3VU8BO5O782BM90FIDG5CU1&tp_b=3YZ8UPK3VU8BO5O782BM90FIDG5CU1&c=365799&tp_c=365799","heads":8,"tails":2,"studentIndex":1,"studentTrueHypers":{"a":2,"b":8},"studentGuess":0.5,"delta":0.30000000000000004,"totalExamples":10,"bonusSoFar":0.4},{"rt":12978,"response":{"heads":"8","tails":"2"},"type":"response","condition":"seqNoFeedback","trueTheta":0.8,"classrooms":["C","D"],"studentTrueClassroom":"C","exampleSet":"second","trial_type":"survey-html-form","trial_index":19,"time_elapsed":492709,"internal_node_id":"0.0-15.0-0.0","params":{"nStudents":24,"maxFlips":30,"completionMinutes":45,"basePay":8,"maxBonus":9,"perTrialBonus":0.5,"perTrialBonusThreshold":0.05,"exampleCost":0.01},"classroomParams":{"A":{"a":1,"b":4},"B":{"a":4,"b":1},"C":{"a":2,"b":8},"D":{"a":8,"b":2}},"conditions":["nonSeqFull","nonSeqPartial","seqNoFeedback","seqFeedback"],"classroomPairings":[["A","B"],["C","D"]],"coinWeights":[0.2,0.5,0.8],"subjectId":"A16335MOISDG1F","assignmentId":"3YZ8UPK3VU8BO5O782BM90FIDG5CU1","hitId":"3E9VAUV7BW02QFDK7N7IH7ZKACRYAN","url":"https://gershmanlab.com/experiments/alicia/teaching/experiment/?hitId=3E9VAUV7BW02QFDK7N7IH7ZKACRYAN&workerId=A16335MOISDG1F&assignmentId=3YZ8UPK3VU8BO5O782BM90FIDG5CU1&a=3UZY9&tp_a=3UZY9&b=3YZ8UPK3VU8BO5O782BM90FIDG5CU1&tp_b=3YZ8UPK3VU8BO5O782BM90FIDG5CU1&c=365799&tp_c=365799","firstResponseHeads":8,"firstResponseTails":2,"secondResponseHeads":8,"secondResponseTails":2,"totalHeads":16,"totalTails":4,"studentIndex":1,"studentTrueHypers":{"a":2,"b":8},"studentGuess":0.6,"delta":0.20000000000000007,"bonus":0,"bonusSoFar":0.4,"totalExamples":20},{"rt":7935,"response":{"heads":"2","tails":"8"},"type":"response","condition":"seqNoFeedback","trueTheta":0.2,"classrooms":["A","B"],"studentTrueClassroom":"B","exampleSet":"first","trial_type":"survey-html-form","trial_index":25,"time_elapsed":517049,"internal_node_id":"0.0-21.0-0.0","params":{"nStudents":24,"maxFlips":30,"completionMinutes":45,"basePay":8,"maxBonus":9,"perTrialBonus":0.5,"perTrialBonusThreshold":0.05,"exampleCost":0.01},"classroomParams":{"A":{"a":1,"b":4},"B":{"a":4,"b":1},"C":{"a":2,"b":8},"D":{"a":8,"b":2}},"conditions":["nonSeqFull","nonSeqPartial","seqNoFeedback","seqFeedback"],"classroomPairings":[["A","B"],["C","D"]],"coinWeights":[0.2,0.5,0.8],"subjectId":"A16335MOISDG1F","assignmentId":"3YZ8UPK3VU8BO5O782BM90FIDG5CU1","hitId":"3E9VAUV7BW02QFDK7N7IH7ZKACRYAN","url":"https://gershmanlab.com/experiments/alicia/teaching/experiment/?hitId=3E9VAUV7BW02QFDK7N7IH7ZKACRYAN&workerId=A16335MOISDG1F&assignmentId=3YZ8UPK3VU8BO5O782BM90FIDG5CU1&a=3UZY9&tp_a=3UZY9&b=3YZ8UPK3VU8BO5O782BM90FIDG5CU1&tp_b=3YZ8UPK3VU8BO5O782BM90FIDG5CU1&c=365799&tp_c=365799","heads":2,"tails":8,"studentIndex":2,"studentTrueHypers":{"a":4,"b":1},"studentGuess":0.4,"delta":0.2,"totalExamples":10,"bonusSoFar":0.4},{"rt":8389,"response":{"heads":"2","tails":"8"},"type":"response","condition":"seqNoFeedback","trueTheta":0.2,"classrooms":["A","B"],"studentTrueClassroom":"B","exampleSet":"second","trial_type":"survey-html-form","trial_index":28,"time_elapsed":532195,"internal_node_id":"0.0-24.0-0.0","params":{"nStudents":24,"maxFlips":30,"completionMinutes":45,"basePay":8,"maxBonus":9,"perTrialBonus":0.5,"perTrialBonusThreshold":0.05,"exampleCost":0.01},"classroomParams":{"A":{"a":1,"b":4},"B":{"a":4,"b":1},"C":{"a":2,"b":8},"D":{"a":8,"b":2}},"conditions":["nonSeqFull","nonSeqPartial","seqNoFeedback","seqFeedback"],"classroomPairings":[["A","B"],["C","D"]],"coinWeights":[0.2,0.5,0.8],"subjectId":"A16335MOISDG1F","assignmentId":"3YZ8UPK3VU8BO5O782BM90FIDG5CU1","hitId":"3E9VAUV7BW02QFDK7N7IH7ZKACRYAN","url":"https://gershmanlab.com/experiments/alicia/teaching/experiment/?hitId=3E9VAUV7BW02QFDK7N7IH7ZKACRYAN&workerId=A16335MOISDG1F&assignmentId=3YZ8UPK3VU8BO5O782BM90FIDG5CU1&a=3UZY9&tp_a=3UZY9&b=3YZ8UPK3VU8BO5O782BM90FIDG5CU1&tp_b=3YZ8UPK3VU8BO5O782BM90FIDG5CU1&c=365799&tp_c=365799","firstResponseHeads":2,"firstResponseTails":8,"secondResponseHeads":2,"secondResponseTails":8,"totalHeads":4,"totalTails":16,"studentIndex":2,"studentTrueHypers":{"a":4,"b":1},"studentGuess":0.32,"delta":0.12,"bonus":0,"bonusSoFar":0.4,"totalExamples":20},{"rt":7769,"response":{"heads":"9","tails":"1"},"type":"response","condition":"seqNoFeedback","trueTheta":0.8,"classrooms":["A","B"],"studentTrueClassroom":"B","exampleSet":"first","trial_type":"survey-html-form","trial_index":34,"time_elapsed":558521,"internal_node_id":"0.0-30.0-0.0","params":{"nStudents":24,"maxFlips":30,"completionMinutes":45,"basePay":8,"maxBonus":9,"perTrialBonus":0.5,"perTrialBonusThreshold":0.05,"exampleCost":0.01},"classroomParams":{"A":{"a":1,"b":4},"B":{"a":4,"b":1},"C":{"a":2,"b":8},"D":{"a":8,"b":2}},"conditions":["nonSeqFull","nonSeqPartial","seqNoFeedback","seqFeedback"],"classroomPairings":[["A","B"],["C","D"]],"coinWeights":[0.2,0.5,0.8],"subjectId":"A16335MOISDG1F","assignmentId":"3YZ8UPK3VU8BO5O782BM90FIDG5CU1","hitId":"3E9VAUV7BW02QFDK7N7IH7ZKACRYAN","url":"https://gershmanlab.com/experiments/alicia/teaching/experiment/?hitId=3E9VAUV7BW02QFDK7N7IH7ZKACRYAN&workerId=A16335MOISDG1F&assignmentId=3YZ8UPK3VU8BO5O782BM90FIDG5CU1&a=3UZY9&tp_a=3UZY9&b=3YZ8UPK3VU8BO5O782BM90FIDG5CU1&tp_b=3YZ8UPK3VU8BO5O782BM90FIDG5CU1&c=365799&tp_c=365799","heads":9,"tails":1,"studentIndex":3,"studentTrueHypers":{"a":4,"b":1},"studentGuess":0.8666666666666667,"delta":0.06666666666666665,"totalExamples":10,"bonusSoFar":0.4},{"rt":7457,"response":{"heads":"9","tails":"1"},"type":"response","condition":"seqNoFeedback","trueTheta":0.8,"classrooms":["A","B"],"studentTrueClassroom":"B","exampleSet":"second","trial_type":"survey-html-form","trial_index":37,"time_elapsed":571984,"internal_node_id":"0.0-33.0-0.0","params":{"nStudents":24,"maxFlips":30,"completionMinutes":45,"basePay":8,"maxBonus":9,"perTrialBonus":0.5,"perTrialBonusThreshold":0.05,"exampleCost":0.01},"classroomParams":{"A":{"a":1,"b":4},"B":{"a":4,"b":1},"C":{"a":2,"b":8},"D":{"a":8,"b":2}},"conditions":["nonSeqFull","nonSeqPartial","seqNoFeedback","seqFeedback"],"classroomPairings":[["A","B"],["C","D"]],"coinWeights":[0.2,0.5,0.8],"subjectId":"A16335MOISDG1F","assignmentId":"3YZ8UPK3VU8BO5O782BM90FIDG5CU1","hitId":"3E9VAUV7BW02QFDK7N7IH7ZKACRYAN","url":"https://gershmanlab.com/experiments/alicia/teaching/experiment/?hitId=3E9VAUV7BW02QFDK7N7IH7ZKACRYAN&workerId=A16335MOISDG1F&assignmentId=3YZ8UPK3VU8BO5O782BM90FIDG5CU1&a=3UZY9&tp_a=3UZY9&b=3YZ8UPK3VU8BO5O782BM90FIDG5CU1&tp_b=3YZ8UPK3VU8BO5O782BM90FIDG5CU1&c=365799&tp_c=365799","firstResponseHeads":9,"firstResponseTails":1,"secondResponseHeads":9,"secondResponseTails":1,"totalHeads":18,"totalTails":2,"studentIndex":3,"studentTrueHypers":{"a":4,"b":1},"studentGuess":0.88,"delta":0.07999999999999996,"bonus":0,"bonusSoFar":0.4,"totalExamples":20},{"rt":6232,"response":{"heads":"5","tails":"5"},"type":"response","condition":"nonSeqPartial","trueTheta":0.5,"classrooms":["C","D"],"studentTrueClassroom":"D","exampleSet":"first","trial_type":"survey-html-form","trial_index":43,"time_elapsed":597095,"internal_node_id":"0.0-39.0-0.0","params":{"nStudents":24,"maxFlips":30,"completionMinutes":45,"basePay":8,"maxBonus":9,"perTrialBonus":0.5,"perTrialBonusThreshold":0.05,"exampleCost":0.01},"classroomParams":{"A":{"a":1,"b":4},"B":{"a":4,"b":1},"C":{"a":2,"b":8},"D":{"a":8,"b":2}},"conditions":["nonSeqFull","nonSeqPartial","seqNoFeedback","seqFeedback"],"classroomPairings":[["A","B"],["C","D"]],"coinWeights":[0.2,0.5,0.8],"subjectId":"A16335MOISDG1F","assignmentId":"3YZ8UPK3VU8BO5O782BM90FIDG5CU1","hitId":"3E9VAUV7BW02QFDK7N7IH7ZKACRYAN","url":"https://gershmanlab.com/experiments/alicia/teaching/experiment/?hitId=3E9VAUV7BW02QFDK7N7IH7ZKACRYAN&workerId=A16335MOISDG1F&assignmentId=3YZ8UPK3VU8BO5O782BM90FIDG5CU1&a=3UZY9&tp_a=3UZY9&b=3YZ8UPK3VU8BO5O782BM90FIDG5CU1&tp_b=3YZ8UPK3VU8BO5O782BM90FIDG5CU1&c=365799&tp_c=365799","heads":5,"tails":5,"studentIndex":4,"studentTrueHypers":{"a":8,"b":2},"studentGuess":0.65,"delta":0.15000000000000002,"totalExamples":10,"bonus":0,"bonusSoFar":0.4},{"rt":10320,"response":{"heads":"2","tails":"8"},"type":"response","condition":"nonSeqFull","trueTheta":0.2,"classrooms":["C","D"],"studentTrueClassroom":"D","exampleSet":"first","trial_type":"survey-html-form","trial_index":49,"time_elapsed":619486,"internal_node_id":"0.0-45.0-0.0","params":{"nStudents":24,"maxFlips":30,"completionMinutes":45,"basePay":8,"maxBonus":9,"perTrialBonus":0.5,"perTrialBonusThreshold":0.05,"exampleCost":0.01},"classroomParams":{"A":{"a":1,"b":4},"B":{"a":4,"b":1},"C":{"a":2,"b":8},"D":{"a":8,"b":2}},"conditions":["nonSeqFull","nonSeqPartial","seqNoFeedback","seqFeedback"],"classroomPairings":[["A","B"],["C","D"]],"coinWeights":[0.2,0.5,0.8],"subjectId":"A16335MOISDG1F","assignmentId":"3YZ8UPK3VU8BO5O782BM90FIDG5CU1","hitId":"3E9VAUV7BW02QFDK7N7IH7ZKACRYAN","url":"https://gershmanlab.com/experiments/alicia/teaching/experiment/?hitId=3E9VAUV7BW02QFDK7N7IH7ZKACRYAN&workerId=A16335MOISDG1F&assignmentId=3YZ8UPK3VU8BO5O782BM90FIDG5CU1&a=3UZY9&tp_a=3UZY9&b=3YZ8UPK3VU8BO5O782BM90FIDG5CU1&tp_b=3YZ8UPK3VU8BO5O782BM90FIDG5CU1&c=365799&tp_c=365799","heads":2,"tails":8,"studentIndex":5,"studentTrueHypers":{"a":8,"b":2},"studentGuess":0.5,"delta":0.3,"totalExamples":10,"bonus":0,"bonusSoFar":0.4},{"rt":43379,"response":{"heads":"8","tails":"2"},"type":"response","condition":"seqFeedback","trueTheta":0.8,"classrooms":["C","D"],"studentTrueClassroom":"D","exampleSet":"first","trial_type":"survey-html-form","trial_index":55,"time_elapsed":692164,"internal_node_id":"0.0-51.0-0.0","params":{"nStudents":24,"maxFlips":30,"completionMinutes":45,"basePay":8,"maxBonus":9,"perTrialBonus":0.5,"perTrialBonusThreshold":0.05,"exampleCost":0.01},"classroomParams":{"A":{"a":1,"b":4},"B":{"a":4,"b":1},"C":{"a":2,"b":8},"D":{"a":8,"b":2}},"conditions":["nonSeqFull","nonSeqPartial","seqNoFeedback","seqFeedback"],"classroomPairings":[["A","B"],["C","D"]],"coinWeights":[0.2,0.5,0.8],"subjectId":"A16335MOISDG1F","assignmentId":"3YZ8UPK3VU8BO5O782BM90FIDG5CU1","hitId":"3E9VAUV7BW02QFDK7N7IH7ZKACRYAN","url":"https://gershmanlab.com/experiments/alicia/teaching/experiment/?hitId=3E9VAUV7BW02QFDK7N7IH7ZKACRYAN&workerId=A16335MOISDG1F&assignmentId=3YZ8UPK3VU8BO5O782BM90FIDG5CU1&a=3UZY9&tp_a=3UZY9&b=3YZ8UPK3VU8BO5O782BM90FIDG5CU1&tp_b=3YZ8UPK3VU8BO5O782BM90FIDG5CU1&c=365799&tp_c=365799","heads":8,"tails":2,"studentIndex":6,"studentTrueHypers":{"a":8,"b":2},"studentGuess":0.8,"delta":0,"totalExamples":10,"bonusSoFar":0.4},{"rt":5134,"response":{"heads":"8","tails":"2"},"type":"response","condition":"seqFeedback","trueTheta":0.8,"classrooms":["C","D"],"studentTrueClassroom":"D","exampleSet":"second","trial_type":"survey-html-form","trial_index":59,"time_elapsed":708623,"internal_node_id":"0.0-55.0-0.0","params":{"nStudents":24,"maxFlips":30,"completionMinutes":45,"basePay":8,"maxBonus":9,"perTrialBonus":0.5,"perTrialBonusThreshold":0.05,"exampleCost":0.01},"classroomParams":{"A":{"a":1,"b":4},"B":{"a":4,"b":1},"C":{"a":2,"b":8},"D":{"a":8,"b":2}},"conditions":["nonSeqFull","nonSeqPartial","seqNoFeedback","seqFeedback"],"classroomPairings":[["A","B"],["C","D"]],"coinWeights":[0.2,0.5,0.8],"subjectId":"A16335MOISDG1F","assignmentId":"3YZ8UPK3VU8BO5O782BM90FIDG5CU1","hitId":"3E9VAUV7BW02QFDK7N7IH7ZKACRYAN","url":"https://gershmanlab.com/experiments/alicia/teaching/experiment/?hitId=3E9VAUV7BW02QFDK7N7IH7ZKACRYAN&workerId=A16335MOISDG1F&assignmentId=3YZ8UPK3VU8BO5O782BM90FIDG5CU1&a=3UZY9&tp_a=3UZY9&b=3YZ8UPK3VU8BO5O782BM90FIDG5CU1&tp_b=3YZ8UPK3VU8BO5O782BM90FIDG5CU1&c=365799&tp_c=365799","firstResponseHeads":8,"firstResponseTails":2,"secondResponseHeads":8,"secondResponseTails":2,"totalHeads":16,"totalTails":4,"studentIndex":6,"studentTrueHypers":{"a":8,"b":2},"studentGuess":0.8,"delta":0,"bonus":0.3,"bonusSoFar":0.7,"totalExamples":20},{"rt":9848,"response":{"heads":"1","tails":"4"},"type":"response","condition":"seqFeedback","trueTheta":0.2,"classrooms":["A","B"],"studentTrueClassroom":"B","exampleSet":"first","trial_type":"survey-html-form","trial_index":65,"time_elapsed":731484,"internal_node_id":"0.0-61.0-0.0","params":{"nStudents":24,"maxFlips":30,"completionMinutes":45,"basePay":8,"maxBonus":9,"perTrialBonus":0.5,"perTrialBonusThreshold":0.05,"exampleCost":0.01},"classroomParams":{"A":{"a":1,"b":4},"B":{"a":4,"b":1},"C":{"a":2,"b":8},"D":{"a":8,"b":2}},"conditions":["nonSeqFull","nonSeqPartial","seqNoFeedback","seqFeedback"],"classroomPairings":[["A","B"],["C","D"]],"coinWeights":[0.2,0.5,0.8],"subjectId":"A16335MOISDG1F","assignmentId":"3YZ8UPK3VU8BO5O782BM90FIDG5CU1","hitId":"3E9VAUV7BW02QFDK7N7IH7ZKACRYAN","url":"https://gershmanlab.com/experiments/alicia/teaching/experiment/?hitId=3E9VAUV7BW02QFDK7N7IH7ZKACRYAN&workerId=A16335MOISDG1F&assignmentId=3YZ8UPK3VU8BO5O782BM90FIDG5CU1&a=3UZY9&tp_a=3UZY9&b=3YZ8UPK3VU8BO5O782BM90FIDG5CU1&tp_b=3YZ8UPK3VU8BO5O782BM90FIDG5CU1&c=365799&tp_c=365799","heads":1,"tails":4,"studentIndex":7,"studentTrueHypers":{"a":4,"b":1},"studentGuess":0.5,"delta":0.3,"totalExamples":5,"bonusSoFar":0.7},{"rt":18957,"response":{"heads":"1","tails":"4"},"type":"response","condition":"seqFeedback","trueTheta":0.2,"classrooms":["A","B"],"studentTrueClassroom":"B","exampleSet":"second","trial_type":"survey-html-form","trial_index":69,"time_elapsed":761135,"internal_node_id":"0.0-65.0-0.0","params":{"nStudents":24,"maxFlips":30,"completionMinutes":45,"basePay":8,"maxBonus":9,"perTrialBonus":0.5,"perTrialBonusThreshold":0.05,"exampleCost":0.01},"classroomParams":{"A":{"a":1,"b":4},"B":{"a":4,"b":1},"C":{"a":2,"b":8},"D":{"a":8,"b":2}},"conditions":["nonSeqFull","nonSeqPartial","seqNoFeedback","seqFeedback"],"classroomPairings":[["A","B"],["C","D"]],"coinWeights":[0.2,0.5,0.8],"subjectId":"A16335MOISDG1F","assignmentId":"3YZ8UPK3VU8BO5O782BM90FIDG5CU1","hitId":"3E9VAUV7BW02QFDK7N7IH7ZKACRYAN","url":"https://gershmanlab.com/experiments/alicia/teaching/experiment/?hitId=3E9VAUV7BW02QFDK7N7IH7ZKACRYAN&workerId=A16335MOISDG1F&assignmentId=3YZ8UPK3VU8BO5O782BM90FIDG5CU1&a=3UZY9&tp_a=3UZY9&b=3YZ8UPK3VU8BO5O782BM90FIDG5CU1&tp_b=3YZ8UPK3VU8BO5O782BM90FIDG5CU1&c=365799&tp_c=365799","firstResponseHeads":1,"firstResponseTails":4,"secondResponseHeads":1,"secondResponseTails":4,"totalHeads":2,"totalTails":8,"studentIndex":7,"studentTrueHypers":{"a":4,"b":1},"studentGuess":0.4,"delta":0.2,"bonus":0,"bonusSoFar":0.7,"totalExamples":10},{"rt":8444,"response":{"heads":"4","tails":"1"},"type":"response","condition":"seqFeedback","trueTheta":0.8,"classrooms":["A","B"],"studentTrueClassroom":"B","exampleSet":"first","trial_type":"survey-html-form","trial_index":75,"time_elapsed":785125,"internal_node_id":"0.0-71.0-0.0","params":{"nStudents":24,"maxFlips":30,"completionMinutes":45,"basePay":8,"maxBonus":9,"perTrialBonus":0.5,"perTrialBonusThreshold":0.05,"exampleCost":0.01},"classroomParams":{"A":{"a":1,"b":4},"B":{"a":4,"b":1},"C":{"a":2,"b":8},"D":{"a":8,"b":2}},"conditions":["nonSeqFull","nonSeqPartial","seqNoFeedback","seqFeedback"],"classroomPairings":[["A","B"],["C","D"]],"coinWeights":[0.2,0.5,0.8],"subjectId":"A16335MOISDG1F","assignmentId":"3YZ8UPK3VU8BO5O782BM90FIDG5CU1","hitId":"3E9VAUV7BW02QFDK7N7IH7ZKACRYAN","url":"https://gershmanlab.com/experiments/alicia/teaching/experiment/?hitId=3E9VAUV7BW02QFDK7N7IH7ZKACRYAN&workerId=A16335MOISDG1F&assignmentId=3YZ8UPK3VU8BO5O782BM90FIDG5CU1&a=3UZY9&tp_a=3UZY9&b=3YZ8UPK3VU8BO5O782BM90FIDG5CU1&tp_b=3YZ8UPK3VU8BO5O782BM90FIDG5CU1&c=365799&tp_c=365799","heads":4,"tails":1,"studentIndex":8,"studentTrueHypers":{"a":4,"b":1},"studentGuess":0.8,"delta":0,"totalExamples":5,"bonusSoFar":0.7},{"rt":3629,"response":{"heads":"4","tails":"1"},"type":"response","condition":"seqFeedback","trueTheta":0.8,"classrooms":["A","B"],"studentTrueClassroom":"B","exampleSet":"second","trial_type":"survey-html-form","trial_index":79,"time_elapsed":796791,"internal_node_id":"0.0-75.0-0.0","params":{"nStudents":24,"maxFlips":30,"completionMinutes":45,"basePay":8,"maxBonus":9,"perTrialBonus":0.5,"perTrialBonusThreshold":0.05,"exampleCost":0.01},"classroomParams":{"A":{"a":1,"b":4},"B":{"a":4,"b":1},"C":{"a":2,"b":8},"D":{"a":8,"b":2}},"conditions":["nonSeqFull","nonSeqPartial","seqNoFeedback","seqFeedback"],"classroomPairings":[["A","B"],["C","D"]],"coinWeights":[0.2,0.5,0.8],"subjectId":"A16335MOISDG1F","assignmentId":"3YZ8UPK3VU8BO5O782BM90FIDG5CU1","hitId":"3E9VAUV7BW02QFDK7N7IH7ZKACRYAN","url":"https://gershmanlab.com/experiments/alicia/teaching/experiment/?hitId=3E9VAUV7BW02QFDK7N7IH7ZKACRYAN&workerId=A16335MOISDG1F&assignmentId=3YZ8UPK3VU8BO5O782BM90FIDG5CU1&a=3UZY9&tp_a=3UZY9&b=3YZ8UPK3VU8BO5O782BM90FIDG5CU1&tp_b=3YZ8UPK3VU8BO5O782BM90FIDG5CU1&c=365799&tp_c=365799","firstResponseHeads":4,"firstResponseTails":1,"secondResponseHeads":4,"secondResponseTails":1,"totalHeads":8,"totalTails":2,"studentIndex":8,"studentTrueHypers":{"a":4,"b":1},"studentGuess":0.8,"delta":0,"bonus":0.4,"bonusSoFar":1.1,"totalExamples":10},{"rt":6714,"response":{"heads":"1","tails":"1"},"type":"response","condition":"seqFeedback","trueTheta":0.5,"classrooms":["C","D"],"studentTrueClassroom":"D","exampleSet":"first","trial_type":"survey-html-form","trial_index":85,"time_elapsed":815036,"internal_node_id":"0.0-81.0-0.0","params":{"nStudents":24,"maxFlips":30,"completionMinutes":45,"basePay":8,"maxBonus":9,"perTrialBonus":0.5,"perTrialBonusThreshold":0.05,"exampleCost":0.01},"classroomParams":{"A":{"a":1,"b":4},"B":{"a":4,"b":1},"C":{"a":2,"b":8},"D":{"a":8,"b":2}},"conditions":["nonSeqFull","nonSeqPartial","seqNoFeedback","seqFeedback"],"classroomPairings":[["A","B"],["C","D"]],"coinWeights":[0.2,0.5,0.8],"subjectId":"A16335MOISDG1F","assignmentId":"3YZ8UPK3VU8BO5O782BM90FIDG5CU1","hitId":"3E9VAUV7BW02QFDK7N7IH7ZKACRYAN","url":"https://gershmanlab.com/experiments/alicia/teaching/experiment/?hitId=3E9VAUV7BW02QFDK7N7IH7ZKACRYAN&workerId=A16335MOISDG1F&assignmentId=3YZ8UPK3VU8BO5O782BM90FIDG5CU1&a=3UZY9&tp_a=3UZY9&b=3YZ8UPK3VU8BO5O782BM90FIDG5CU1&tp_b=3YZ8UPK3VU8BO5O782BM90FIDG5CU1&c=365799&tp_c=365799","heads":1,"tails":1,"studentIndex":9,"studentTrueHypers":{"a":8,"b":2},"studentGuess":0.75,"delta":0.25,"totalExamples":2,"bonusSoFar":1.1},{"rt":2369,"response":{"heads":"1","tails":"1"},"type":"response","condition":"seqFeedback","trueTheta":0.5,"classrooms":["C","D"],"studentTrueClassroom":"D","exampleSet":"second","trial_type":"survey-html-form","trial_index":89,"time_elapsed":826808,"internal_node_id":"0.0-85.0-0.0","params":{"nStudents":24,"maxFlips":30,"completionMinutes":45,"basePay":8,"maxBonus":9,"perTrialBonus":0.5,"perTrialBonusThreshold":0.05,"exampleCost":0.01},"classroomParams":{"A":{"a":1,"b":4},"B":{"a":4,"b":1},"C":{"a":2,"b":8},"D":{"a":8,"b":2}},"conditions":["nonSeqFull","nonSeqPartial","seqNoFeedback","seqFeedback"],"classroomPairings":[["A","B"],["C","D"]],"coinWeights":[0.2,0.5,0.8],"subjectId":"A16335MOISDG1F","assignmentId":"3YZ8UPK3VU8BO5O782BM90FIDG5CU1","hitId":"3E9VAUV7BW02QFDK7N7IH7ZKACRYAN","url":"https://gershmanlab.com/experiments/alicia/teaching/experiment/?hitId=3E9VAUV7BW02QFDK7N7IH7ZKACRYAN&workerId=A16335MOISDG1F&assignmentId=3YZ8UPK3VU8BO5O782BM90FIDG5CU1&a=3UZY9&tp_a=3UZY9&b=3YZ8UPK3VU8BO5O782BM90FIDG5CU1&tp_b=3YZ8UPK3VU8BO5O782BM90FIDG5CU1&c=365799&tp_c=365799","firstResponseHeads":1,"firstResponseTails":1,"secondResponseHeads":1,"secondResponseTails":1,"totalHeads":2,"totalTails":2,"studentIndex":9,"studentTrueHypers":{"a":8,"b":2},"studentGuess":0.7142857142857143,"delta":0.2142857142857143,"bonus":0,"bonusSoFar":1.1,"totalExamples":4},{"rt":4353,"response":{"heads":"1","tails":"1"},"type":"response","condition":"seqFeedback","trueTheta":0.5,"classrooms":["A","B"],"studentTrueClassroom":"A","exampleSet":"first","trial_type":"survey-html-form","trial_index":95,"time_elapsed":842715,"internal_node_id":"0.0-91.0-0.0","params":{"nStudents":24,"maxFlips":30,"completionMinutes":45,"basePay":8,"maxBonus":9,"perTrialBonus":0.5,"perTrialBonusThreshold":0.05,"exampleCost":0.01},"classroomParams":{"A":{"a":1,"b":4},"B":{"a":4,"b":1},"C":{"a":2,"b":8},"D":{"a":8,"b":2}},"conditions":["nonSeqFull","nonSeqPartial","seqNoFeedback","seqFeedback"],"classroomPairings":[["A","B"],["C","D"]],"coinWeights":[0.2,0.5,0.8],"subjectId":"A16335MOISDG1F","assignmentId":"3YZ8UPK3VU8BO5O782BM90FIDG5CU1","hitId":"3E9VAUV7BW02QFDK7N7IH7ZKACRYAN","url":"https://gershmanlab.com/experiments/alicia/teaching/experiment/?hitId=3E9VAUV7BW02QFDK7N7IH7ZKACRYAN&workerId=A16335MOISDG1F&assignmentId=3YZ8UPK3VU8BO5O782BM90FIDG5CU1&a=3UZY9&tp_a=3UZY9&b=3YZ8UPK3VU8BO5O782BM90FIDG5CU1&tp_b=3YZ8UPK3VU8BO5O782BM90FIDG5CU1&c=365799&tp_c=365799","heads":1,"tails":1,"studentIndex":10,"studentTrueHypers":{"a":1,"b":4},"studentGuess":0.2857142857142857,"delta":0.2142857142857143,"totalExamples":2,"bonusSoFar":1.1},{"rt":6175,"response":{"heads":"1","tails":"1"},"type":"response","condition":"seqFeedback","trueTheta":0.5,"classrooms":["A","B"],"studentTrueClassroom":"A","exampleSet":"second","trial_type":"survey-html-form","trial_index":99,"time_elapsed":857116,"internal_node_id":"0.0-95.0-0.0","params":{"nStudents":24,"maxFlips":30,"completionMinutes":45,"basePay":8,"maxBonus":9,"perTrialBonus":0.5,"perTrialBonusThreshold":0.05,"exampleCost":0.01},"classroomParams":{"A":{"a":1,"b":4},"B":{"a":4,"b":1},"C":{"a":2,"b":8},"D":{"a":8,"b":2}},"conditions":["nonSeqFull","nonSeqPartial","seqNoFeedback","seqFeedback"],"classroomPairings":[["A","B"],["C","D"]],"coinWeights":[0.2,0.5,0.8],"subjectId":"A16335MOISDG1F","assignmentId":"3YZ8UPK3VU8BO5O782BM90FIDG5CU1","hitId":"3E9VAUV7BW02QFDK7N7IH7ZKACRYAN","url":"https://gershmanlab.com/experiments/alicia/teaching/experiment/?hitId=3E9VAUV7BW02QFDK7N7IH7ZKACRYAN&workerId=A16335MOISDG1F&assignmentId=3YZ8UPK3VU8BO5O782BM90FIDG5CU1&a=3UZY9&tp_a=3UZY9&b=3YZ8UPK3VU8BO5O782BM90FIDG5CU1&tp_b=3YZ8UPK3VU8BO5O782BM90FIDG5CU1&c=365799&tp_c=365799","firstResponseHeads":1,"firstResponseTails":1,"secondResponseHeads":1,"secondResponseTails":1,"totalHeads":2,"totalTails":2,"studentIndex":10,"studentTrueHypers":{"a":1,"b":4},"studentGuess":0.3333333333333333,"delta":0.16666666666666669,"bonus":0,"bonusSoFar":1.1,"totalExamples":4},{"rt":5608,"response":{"heads":"1","tails":"1"},"type":"response","condition":"seqNoFeedback","trueTheta":0.5,"classrooms":["C","D"],"studentTrueClassroom":"C","exampleSet":"first","trial_type":"survey-html-form","trial_index":105,"time_elapsed":874593,"internal_node_id":"0.0-101.0-0.0","params":{"nStudents":24,"maxFlips":30,"completionMinutes":45,"basePay":8,"maxBonus":9,"perTrialBonus":0.5,"perTrialBonusThreshold":0.05,"exampleCost":0.01},"classroomParams":{"A":{"a":1,"b":4},"B":{"a":4,"b":1},"C":{"a":2,"b":8},"D":{"a":8,"b":2}},"conditions":["nonSeqFull","nonSeqPartial","seqNoFeedback","seqFeedback"],"classroomPairings":[["A","B"],["C","D"]],"coinWeights":[0.2,0.5,0.8],"subjectId":"A16335MOISDG1F","assignmentId":"3YZ8UPK3VU8BO5O782BM90FIDG5CU1","hitId":"3E9VAUV7BW02QFDK7N7IH7ZKACRYAN","url":"https://gershmanlab.com/experiments/alicia/teaching/experiment/?hitId=3E9VAUV7BW02QFDK7N7IH7ZKACRYAN&workerId=A16335MOISDG1F&assignmentId=3YZ8UPK3VU8BO5O782BM90FIDG5CU1&a=3UZY9&tp_a=3UZY9&b=3YZ8UPK3VU8BO5O782BM90FIDG5CU1&tp_b=3YZ8UPK3VU8BO5O782BM90FIDG5CU1&c=365799&tp_c=365799","heads":1,"tails":1,"studentIndex":11,"studentTrueHypers":{"a":2,"b":8},"studentGuess":0.25,"delta":0.25,"totalExamples":2,"bonusSoFar":1.1},{"rt":11683,"response":{"heads":"2","tails":"2"},"type":"response","condition":"seqNoFeedback","trueTheta":0.5,"classrooms":["C","D"],"studentTrueClassroom":"C","exampleSet":"second","trial_type":"survey-html-form","trial_index":108,"time_elapsed":892532,"internal_node_id":"0.0-104.0-0.0","params":{"nStudents":24,"maxFlips":30,"completionMinutes":45,"basePay":8,"maxBonus":9,"perTrialBonus":0.5,"perTrialBonusThreshold":0.05,"exampleCost":0.01},"classroomParams":{"A":{"a":1,"b":4},"B":{"a":4,"b":1},"C":{"a":2,"b":8},"D":{"a":8,"b":2}},"conditions":["nonSeqFull","nonSeqPartial","seqNoFeedback","seqFeedback"],"classroomPairings":[["A","B"],["C","D"]],"coinWeights":[0.2,0.5,0.8],"subjectId":"A16335MOISDG1F","assignmentId":"3YZ8UPK3VU8BO5O782BM90FIDG5CU1","hitId":"3E9VAUV7BW02QFDK7N7IH7ZKACRYAN","url":"https://gershmanlab.com/experiments/alicia/teaching/experiment/?hitId=3E9VAUV7BW02QFDK7N7IH7ZKACRYAN&workerId=A16335MOISDG1F&assignmentId=3YZ8UPK3VU8BO5O782BM90FIDG5CU1&a=3UZY9&tp_a=3UZY9&b=3YZ8UPK3VU8BO5O782BM90FIDG5CU1&tp_b=3YZ8UPK3VU8BO5O782BM90FIDG5CU1&c=365799&tp_c=365799","firstResponseHeads":1,"firstResponseTails":1,"secondResponseHeads":2,"secondResponseTails":2,"totalHeads":3,"totalTails":3,"studentIndex":11,"studentTrueHypers":{"a":2,"b":8},"studentGuess":0.3125,"delta":0.1875,"bonus":0,"bonusSoFar":1.1,"totalExamples":6},{"rt":18651,"response":{"heads":"1","tails":"4"},"type":"response","condition":"nonSeqFull","trueTheta":0.2,"classrooms":["A","B"],"studentTrueClassroom":"B","exampleSet":"first","trial_type":"survey-html-form","trial_index":114,"time_elapsed":924134,"internal_node_id":"0.0-110.0-0.0","params":{"nStudents":24,"maxFlips":30,"completionMinutes":45,"basePay":8,"maxBonus":9,"perTrialBonus":0.5,"perTrialBonusThreshold":0.05,"exampleCost":0.01},"classroomParams":{"A":{"a":1,"b":4},"B":{"a":4,"b":1},"C":{"a":2,"b":8},"D":{"a":8,"b":2}},"conditions":["nonSeqFull","nonSeqPartial","seqNoFeedback","seqFeedback"],"classroomPairings":[["A","B"],["C","D"]],"coinWeights":[0.2,0.5,0.8],"subjectId":"A16335MOISDG1F","assignmentId":"3YZ8UPK3VU8BO5O782BM90FIDG5CU1","hitId":"3E9VAUV7BW02QFDK7N7IH7ZKACRYAN","url":"https://gershmanlab.com/experiments/alicia/teaching/experiment/?hitId=3E9VAUV7BW02QFDK7N7IH7ZKACRYAN&workerId=A16335MOISDG1F&assignmentId=3YZ8UPK3VU8BO5O782BM90FIDG5CU1&a=3UZY9&tp_a=3UZY9&b=3YZ8UPK3VU8BO5O782BM90FIDG5CU1&tp_b=3YZ8UPK3VU8BO5O782BM90FIDG5CU1&c=365799&tp_c=365799","heads":1,"tails":4,"studentIndex":12,"studentTrueHypers":{"a":4,"b":1},"studentGuess":0.5,"delta":0.3,"totalExamples":5,"bonus":0,"bonusSoFar":1.1},{"rt":13788,"response":{"heads":"1","tails":"8"},"type":"response","condition":"seqNoFeedback","trueTheta":0.2,"classrooms":["C","D"],"studentTrueClassroom":"D","exampleSet":"first","trial_type":"survey-html-form","trial_index":120,"time_elapsed":949858,"internal_node_id":"0.0-116.0-0.0","params":{"nStudents":24,"maxFlips":30,"completionMinutes":45,"basePay":8,"maxBonus":9,"perTrialBonus":0.5,"perTrialBonusThreshold":0.05,"exampleCost":0.01},"classroomParams":{"A":{"a":1,"b":4},"B":{"a":4,"b":1},"C":{"a":2,"b":8},"D":{"a":8,"b":2}},"conditions":["nonSeqFull","nonSeqPartial","seqNoFeedback","seqFeedback"],"classroomPairings":[["A","B"],["C","D"]],"coinWeights":[0.2,0.5,0.8],"subjectId":"A16335MOISDG1F","assignmentId":"3YZ8UPK3VU8BO5O782BM90FIDG5CU1","hitId":"3E9VAUV7BW02QFDK7N7IH7ZKACRYAN","url":"https://gershmanlab.com/experiments/alicia/teaching/experiment/?hitId=3E9VAUV7BW02QFDK7N7IH7ZKACRYAN&workerId=A16335MOISDG1F&assignmentId=3YZ8UPK3VU8BO5O782BM90FIDG5CU1&a=3UZY9&tp_a=3UZY9&b=3YZ8UPK3VU8BO5O782BM90FIDG5CU1&tp_b=3YZ8UPK3VU8BO5O782BM90FIDG5CU1&c=365799&tp_c=365799","heads":1,"tails":8,"studentIndex":13,"studentTrueHypers":{"a":8,"b":2},"studentGuess":0.47368421052631576,"delta":0.27368421052631575,"totalExamples":9,"bonusSoFar":1.1},{"rt":9083,"response":{"heads":"1","tails":"8"},"type":"response","condition":"seqNoFeedback","trueTheta":0.2,"classrooms":["C","D"],"studentTrueClassroom":"D","exampleSet":"second","trial_type":"survey-html-form","trial_index":123,"time_elapsed":965197,"internal_node_id":"0.0-119.0-0.0","params":{"nStudents":24,"maxFlips":30,"completionMinutes":45,"basePay":8,"maxBonus":9,"perTrialBonus":0.5,"perTrialBonusThreshold":0.05,"exampleCost":0.01},"classroomParams":{"A":{"a":1,"b":4},"B":{"a":4,"b":1},"C":{"a":2,"b":8},"D":{"a":8,"b":2}},"conditions":["nonSeqFull","nonSeqPartial","seqNoFeedback","seqFeedback"],"classroomPairings":[["A","B"],["C","D"]],"coinWeights":[0.2,0.5,0.8],"subjectId":"A16335MOISDG1F","assignmentId":"3YZ8UPK3VU8BO5O782BM90FIDG5CU1","hitId":"3E9VAUV7BW02QFDK7N7IH7ZKACRYAN","url":"https://gershmanlab.com/experiments/alicia/teaching/experiment/?hitId=3E9VAUV7BW02QFDK7N7IH7ZKACRYAN&workerId=A16335MOISDG1F&assignmentId=3YZ8UPK3VU8BO5O782BM90FIDG5CU1&a=3UZY9&tp_a=3UZY9&b=3YZ8UPK3VU8BO5O782BM90FIDG5CU1&tp_b=3YZ8UPK3VU8BO5O782BM90FIDG5CU1&c=365799&tp_c=365799","firstResponseHeads":1,"firstResponseTails":8,"secondResponseHeads":1,"secondResponseTails":8,"totalHeads":2,"totalTails":16,"studentIndex":13,"studentTrueHypers":{"a":8,"b":2},"studentGuess":0.35714285714285715,"delta":0.15714285714285714,"bonus":0,"bonusSoFar":1.1,"totalExamples":18},{"rt":7472,"response":{"heads":"2","tails":"10"},"type":"response","condition":"nonSeqPartial","trueTheta":0.2,"classrooms":["A","B"],"studentTrueClassroom":"B","exampleSet":"first","trial_type":"survey-html-form","trial_index":129,"time_elapsed":1005200,"internal_node_id":"0.0-125.0-0.0","params":{"nStudents":24,"maxFlips":30,"completionMinutes":45,"basePay":8,"maxBonus":9,"perTrialBonus":0.5,"perTrialBonusThreshold":0.05,"exampleCost":0.01},"classroomParams":{"A":{"a":1,"b":4},"B":{"a":4,"b":1},"C":{"a":2,"b":8},"D":{"a":8,"b":2}},"conditions":["nonSeqFull","nonSeqPartial","seqNoFeedback","seqFeedback"],"classroomPairings":[["A","B"],["C","D"]],"coinWeights":[0.2,0.5,0.8],"subjectId":"A16335MOISDG1F","assignmentId":"3YZ8UPK3VU8BO5O782BM90FIDG5CU1","hitId":"3E9VAUV7BW02QFDK7N7IH7ZKACRYAN","url":"https://gershmanlab.com/experiments/alicia/teaching/experiment/?hitId=3E9VAUV7BW02QFDK7N7IH7ZKACRYAN&workerId=A16335MOISDG1F&assignmentId=3YZ8UPK3VU8BO5O782BM90FIDG5CU1&a=3UZY9&tp_a=3UZY9&b=3YZ8UPK3VU8BO5O782BM90FIDG5CU1&tp_b=3YZ8UPK3VU8BO5O782BM90FIDG5CU1&c=365799&tp_c=365799","heads":2,"tails":10,"studentIndex":14,"studentTrueHypers":{"a":4,"b":1},"studentGuess":0.35294117647058826,"delta":0.15294117647058825,"totalExamples":12,"bonus":0,"bonusSoFar":1.1},{"rt":9609,"response":{"heads":"2","tails":"8"},"type":"response","condition":"seqFeedback","trueTheta":0.2,"classrooms":["C","D"],"studentTrueClassroom":"C","exampleSet":"first","trial_type":"survey-html-form","trial_index":135,"time_elapsed":1049872,"internal_node_id":"0.0-131.0-0.0","params":{"nStudents":24,"maxFlips":30,"completionMinutes":45,"basePay":8,"maxBonus":9,"perTrialBonus":0.5,"perTrialBonusThreshold":0.05,"exampleCost":0.01},"classroomParams":{"A":{"a":1,"b":4},"B":{"a":4,"b":1},"C":{"a":2,"b":8},"D":{"a":8,"b":2}},"conditions":["nonSeqFull","nonSeqPartial","seqNoFeedback","seqFeedback"],"classroomPairings":[["A","B"],["C","D"]],"coinWeights":[0.2,0.5,0.8],"subjectId":"A16335MOISDG1F","assignmentId":"3YZ8UPK3VU8BO5O782BM90FIDG5CU1","hitId":"3E9VAUV7BW02QFDK7N7IH7ZKACRYAN","url":"https://gershmanlab.com/experiments/alicia/teaching/experiment/?hitId=3E9VAUV7BW02QFDK7N7IH7ZKACRYAN&workerId=A16335MOISDG1F&assignmentId=3YZ8UPK3VU8BO5O782BM90FIDG5CU1&a=3UZY9&tp_a=3UZY9&b=3YZ8UPK3VU8BO5O782BM90FIDG5CU1&tp_b=3YZ8UPK3VU8BO5O782BM90FIDG5CU1&c=365799&tp_c=365799","heads":2,"tails":8,"studentIndex":15,"studentTrueHypers":{"a":2,"b":8},"studentGuess":0.2,"delta":0,"totalExamples":10,"bonusSoFar":1.1},{"rt":2898,"response":{"heads":"2","tails":"8"},"type":"response","condition":"seqFeedback","trueTheta":0.2,"classrooms":["C","D"],"studentTrueClassroom":"C","exampleSet":"second","trial_type":"survey-html-form","trial_index":139,"time_elapsed":1064693,"internal_node_id":"0.0-135.0-0.0","params":{"nStudents":24,"maxFlips":30,"completionMinutes":45,"basePay":8,"maxBonus":9,"perTrialBonus":0.5,"perTrialBonusThreshold":0.05,"exampleCost":0.01},"classroomParams":{"A":{"a":1,"b":4},"B":{"a":4,"b":1},"C":{"a":2,"b":8},"D":{"a":8,"b":2}},"conditions":["nonSeqFull","nonSeqPartial","seqNoFeedback","seqFeedback"],"classroomPairings":[["A","B"],["C","D"]],"coinWeights":[0.2,0.5,0.8],"subjectId":"A16335MOISDG1F","assignmentId":"3YZ8UPK3VU8BO5O782BM90FIDG5CU1","hitId":"3E9VAUV7BW02QFDK7N7IH7ZKACRYAN","url":"https://gershmanlab.com/experiments/alicia/teaching/experiment/?hitId=3E9VAUV7BW02QFDK7N7IH7ZKACRYAN&workerId=A16335MOISDG1F&assignmentId=3YZ8UPK3VU8BO5O782BM90FIDG5CU1&a=3UZY9&tp_a=3UZY9&b=3YZ8UPK3VU8BO5O782BM90FIDG5CU1&tp_b=3YZ8UPK3VU8BO5O782BM90FIDG5CU1&c=365799&tp_c=365799","firstResponseHeads":2,"firstResponseTails":8,"secondResponseHeads":2,"secondResponseTails":8,"totalHeads":4,"totalTails":16,"studentIndex":15,"studentTrueHypers":{"a":2,"b":8},"studentGuess":0.2,"delta":0,"bonus":0.3,"bonusSoFar":1.4,"totalExamples":20},{"rt":8075,"response":{"heads":"5","tails":"5"},"type":"response","condition":"nonSeqFull","trueTheta":0.5,"classrooms":["C","D"],"studentTrueClassroom":"C","exampleSet":"first","trial_type":"survey-html-form","trial_index":145,"time_elapsed":1093299,"internal_node_id":"0.0-141.0-0.0","params":{"nStudents":24,"maxFlips":30,"completionMinutes":45,"basePay":8,"maxBonus":9,"perTrialBonus":0.5,"perTrialBonusThreshold":0.05,"exampleCost":0.01},"classroomParams":{"A":{"a":1,"b":4},"B":{"a":4,"b":1},"C":{"a":2,"b":8},"D":{"a":8,"b":2}},"conditions":["nonSeqFull","nonSeqPartial","seqNoFeedback","seqFeedback"],"classroomPairings":[["A","B"],["C","D"]],"coinWeights":[0.2,0.5,0.8],"subjectId":"A16335MOISDG1F","assignmentId":"3YZ8UPK3VU8BO5O782BM90FIDG5CU1","hitId":"3E9VAUV7BW02QFDK7N7IH7ZKACRYAN","url":"https://gershmanlab.com/experiments/alicia/teaching/experiment/?hitId=3E9VAUV7BW02QFDK7N7IH7ZKACRYAN&workerId=A16335MOISDG1F&assignmentId=3YZ8UPK3VU8BO5O782BM90FIDG5CU1&a=3UZY9&tp_a=3UZY9&b=3YZ8UPK3VU8BO5O782BM90FIDG5CU1&tp_b=3YZ8UPK3VU8BO5O782BM90FIDG5CU1&c=365799&tp_c=365799","heads":5,"tails":5,"studentIndex":16,"studentTrueHypers":{"a":2,"b":8},"studentGuess":0.35,"delta":0.15000000000000002,"totalExamples":10,"bonus":0,"bonusSoFar":1.4},{"rt":3912,"response":{"heads":"8","tails":"2"},"type":"response","condition":"nonSeqPartial","trueTheta":0.8,"classrooms":["C","D"],"studentTrueClassroom":"D","exampleSet":"first","trial_type":"survey-html-form","trial_index":151,"time_elapsed":1113293,"internal_node_id":"0.0-147.0-0.0","params":{"nStudents":24,"maxFlips":30,"completionMinutes":45,"basePay":8,"maxBonus":9,"perTrialBonus":0.5,"perTrialBonusThreshold":0.05,"exampleCost":0.01},"classroomParams":{"A":{"a":1,"b":4},"B":{"a":4,"b":1},"C":{"a":2,"b":8},"D":{"a":8,"b":2}},"conditions":["nonSeqFull","nonSeqPartial","seqNoFeedback","seqFeedback"],"classroomPairings":[["A","B"],["C","D"]],"coinWeights":[0.2,0.5,0.8],"subjectId":"A16335MOISDG1F","assignmentId":"3YZ8UPK3VU8BO5O782BM90FIDG5CU1","hitId":"3E9VAUV7BW02QFDK7N7IH7ZKACRYAN","url":"https://gershmanlab.com/experiments/alicia/teaching/experiment/?hitId=3E9VAUV7BW02QFDK7N7IH7ZKACRYAN&workerId=A16335MOISDG1F&assignmentId=3YZ8UPK3VU8BO5O782BM90FIDG5CU1&a=3UZY9&tp_a=3UZY9&b=3YZ8UPK3VU8BO5O782BM90FIDG5CU1&tp_b=3YZ8UPK3VU8BO5O782BM90FIDG5CU1&c=365799&tp_c=365799","heads":8,"tails":2,"studentIndex":17,"studentTrueHypers":{"a":8,"b":2},"studentGuess":0.8,"delta":0,"totalExamples":10,"bonus":0.4,"bonusSoFar":1.8},{"rt":13788,"response":{"heads":"2","tails":"1"},"type":"response","condition":"nonSeqFull","trueTheta":0.5,"classrooms":["A","B"],"studentTrueClassroom":"A","exampleSet":"first","trial_type":"survey-html-form","trial_index":157,"time_elapsed":1148934,"internal_node_id":"0.0-153.0-0.0","params":{"nStudents":24,"maxFlips":30,"completionMinutes":45,"basePay":8,"maxBonus":9,"perTrialBonus":0.5,"perTrialBonusThreshold":0.05,"exampleCost":0.01},"classroomParams":{"A":{"a":1,"b":4},"B":{"a":4,"b":1},"C":{"a":2,"b":8},"D":{"a":8,"b":2}},"conditions":["nonSeqFull","nonSeqPartial","seqNoFeedback","seqFeedback"],"classroomPairings":[["A","B"],["C","D"]],"coinWeights":[0.2,0.5,0.8],"subjectId":"A16335MOISDG1F","assignmentId":"3YZ8UPK3VU8BO5O782BM90FIDG5CU1","hitId":"3E9VAUV7BW02QFDK7N7IH7ZKACRYAN","url":"https://gershmanlab.com/experiments/alicia/teaching/experiment/?hitId=3E9VAUV7BW02QFDK7N7IH7ZKACRYAN&workerId=A16335MOISDG1F&assignmentId=3YZ8UPK3VU8BO5O782BM90FIDG5CU1&a=3UZY9&tp_a=3UZY9&b=3YZ8UPK3VU8BO5O782BM90FIDG5CU1&tp_b=3YZ8UPK3VU8BO5O782BM90FIDG5CU1&c=365799&tp_c=365799","heads":2,"tails":1,"studentIndex":18,"studentTrueHypers":{"a":1,"b":4},"studentGuess":0.375,"delta":0.125,"totalExamples":3,"bonus":0,"bonusSoFar":1.8},{"rt":7468,"response":{"heads":"4","tails":"4"},"type":"response","condition":"seqNoFeedback","trueTheta":0.5,"classrooms":["A","B"],"studentTrueClassroom":"B","exampleSet":"first","trial_type":"survey-html-form","trial_index":163,"time_elapsed":1166866,"internal_node_id":"0.0-159.0-0.0","params":{"nStudents":24,"maxFlips":30,"completionMinutes":45,"basePay":8,"maxBonus":9,"perTrialBonus":0.5,"perTrialBonusThreshold":0.05,"exampleCost":0.01},"classroomParams":{"A":{"a":1,"b":4},"B":{"a":4,"b":1},"C":{"a":2,"b":8},"D":{"a":8,"b":2}},"conditions":["nonSeqFull","nonSeqPartial","seqNoFeedback","seqFeedback"],"classroomPairings":[["A","B"],["C","D"]],"coinWeights":[0.2,0.5,0.8],"subjectId":"A16335MOISDG1F","assignmentId":"3YZ8UPK3VU8BO5O782BM90FIDG5CU1","hitId":"3E9VAUV7BW02QFDK7N7IH7ZKACRYAN","url":"https://gershmanlab.com/experiments/alicia/teaching/experiment/?hitId=3E9VAUV7BW02QFDK7N7IH7ZKACRYAN&workerId=A16335MOISDG1F&assignmentId=3YZ8UPK3VU8BO5O782BM90FIDG5CU1&a=3UZY9&tp_a=3UZY9&b=3YZ8UPK3VU8BO5O782BM90FIDG5CU1&tp_b=3YZ8UPK3VU8BO5O782BM90FIDG5CU1&c=365799&tp_c=365799","heads":4,"tails":4,"studentIndex":19,"studentTrueHypers":{"a":4,"b":1},"studentGuess":0.6153846153846154,"delta":0.11538461538461542,"totalExamples":8,"bonusSoFar":1.8},{"rt":7479,"response":{"heads":"4","tails":"4"},"type":"response","condition":"seqNoFeedback","trueTheta":0.5,"classrooms":["A","B"],"studentTrueClassroom":"B","exampleSet":"second","trial_type":"survey-html-form","trial_index":166,"time_elapsed":1179851,"internal_node_id":"0.0-162.0-0.0","params":{"nStudents":24,"maxFlips":30,"completionMinutes":45,"basePay":8,"maxBonus":9,"perTrialBonus":0.5,"perTrialBonusThreshold":0.05,"exampleCost":0.01},"classroomParams":{"A":{"a":1,"b":4},"B":{"a":4,"b":1},"C":{"a":2,"b":8},"D":{"a":8,"b":2}},"conditions":["nonSeqFull","nonSeqPartial","seqNoFeedback","seqFeedback"],"classroomPairings":[["A","B"],["C","D"]],"coinWeights":[0.2,0.5,0.8],"subjectId":"A16335MOISDG1F","assignmentId":"3YZ8UPK3VU8BO5O782BM90FIDG5CU1","hitId":"3E9VAUV7BW02QFDK7N7IH7ZKACRYAN","url":"https://gershmanlab.com/experiments/alicia/teaching/experiment/?hitId=3E9VAUV7BW02QFDK7N7IH7ZKACRYAN&workerId=A16335MOISDG1F&assignmentId=3YZ8UPK3VU8BO5O782BM90FIDG5CU1&a=3UZY9&tp_a=3UZY9&b=3YZ8UPK3VU8BO5O782BM90FIDG5CU1&tp_b=3YZ8UPK3VU8BO5O782BM90FIDG5CU1&c=365799&tp_c=365799","firstResponseHeads":4,"firstResponseTails":4,"secondResponseHeads":4,"secondResponseTails":4,"totalHeads":8,"totalTails":8,"studentIndex":19,"studentTrueHypers":{"a":4,"b":1},"studentGuess":0.5714285714285714,"delta":0.0714285714285714,"bonus":0,"bonusSoFar":1.8,"totalExamples":16},{"rt":7270,"response":{"heads":"5","tails":"5"},"type":"response","condition":"nonSeqPartial","trueTheta":0.5,"classrooms":["A","B"],"studentTrueClassroom":"B","exampleSet":"first","trial_type":"survey-html-form","trial_index":172,"time_elapsed":1203346,"internal_node_id":"0.0-168.0-0.0","params":{"nStudents":24,"maxFlips":30,"completionMinutes":45,"basePay":8,"maxBonus":9,"perTrialBonus":0.5,"perTrialBonusThreshold":0.05,"exampleCost":0.01},"classroomParams":{"A":{"a":1,"b":4},"B":{"a":4,"b":1},"C":{"a":2,"b":8},"D":{"a":8,"b":2}},"conditions":["nonSeqFull","nonSeqPartial","seqNoFeedback","seqFeedback"],"classroomPairings":[["A","B"],["C","D"]],"coinWeights":[0.2,0.5,0.8],"subjectId":"A16335MOISDG1F","assignmentId":"3YZ8UPK3VU8BO5O782BM90FIDG5CU1","hitId":"3E9VAUV7BW02QFDK7N7IH7ZKACRYAN","url":"https://gershmanlab.com/experiments/alicia/teaching/experiment/?hitId=3E9VAUV7BW02QFDK7N7IH7ZKACRYAN&workerId=A16335MOISDG1F&assignmentId=3YZ8UPK3VU8BO5O782BM90FIDG5CU1&a=3UZY9&tp_a=3UZY9&b=3YZ8UPK3VU8BO5O782BM90FIDG5CU1&tp_b=3YZ8UPK3VU8BO5O782BM90FIDG5CU1&c=365799&tp_c=365799","heads":5,"tails":5,"studentIndex":20,"studentTrueHypers":{"a":4,"b":1},"studentGuess":0.6,"delta":0.09999999999999998,"totalExamples":10,"bonus":0,"bonusSoFar":1.8},{"rt":6181,"response":{"heads":"8","tails":"2"},"type":"response","condition":"nonSeqFull","trueTheta":0.8,"classrooms":["C","D"],"studentTrueClassroom":"C","exampleSet":"first","trial_type":"survey-html-form","trial_index":178,"time_elapsed":1221065,"internal_node_id":"0.0-174.0-0.0","params":{"nStudents":24,"maxFlips":30,"completionMinutes":45,"basePay":8,"maxBonus":9,"perTrialBonus":0.5,"perTrialBonusThreshold":0.05,"exampleCost":0.01},"classroomParams":{"A":{"a":1,"b":4},"B":{"a":4,"b":1},"C":{"a":2,"b":8},"D":{"a":8,"b":2}},"conditions":["nonSeqFull","nonSeqPartial","seqNoFeedback","seqFeedback"],"classroomPairings":[["A","B"],["C","D"]],"coinWeights":[0.2,0.5,0.8],"subjectId":"A16335MOISDG1F","assignmentId":"3YZ8UPK3VU8BO5O782BM90FIDG5CU1","hitId":"3E9VAUV7BW02QFDK7N7IH7ZKACRYAN","url":"https://gershmanlab.com/experiments/alicia/teaching/experiment/?hitId=3E9VAUV7BW02QFDK7N7IH7ZKACRYAN&workerId=A16335MOISDG1F&assignmentId=3YZ8UPK3VU8BO5O782BM90FIDG5CU1&a=3UZY9&tp_a=3UZY9&b=3YZ8UPK3VU8BO5O782BM90FIDG5CU1&tp_b=3YZ8UPK3VU8BO5O782BM90FIDG5CU1&c=365799&tp_c=365799","heads":8,"tails":2,"studentIndex":21,"studentTrueHypers":{"a":2,"b":8},"studentGuess":0.5,"delta":0.30000000000000004,"totalExamples":10,"bonus":0,"bonusSoFar":1.8},{"rt":5575,"response":{"heads":"8","tails":"2"},"type":"response","condition":"nonSeqFull","trueTheta":0.8,"classrooms":["A","B"],"studentTrueClassroom":"A","exampleSet":"first","trial_type":"survey-html-form","trial_index":184,"time_elapsed":1238610,"internal_node_id":"0.0-180.0-0.0","params":{"nStudents":24,"maxFlips":30,"completionMinutes":45,"basePay":8,"maxBonus":9,"perTrialBonus":0.5,"perTrialBonusThreshold":0.05,"exampleCost":0.01},"classroomParams":{"A":{"a":1,"b":4},"B":{"a":4,"b":1},"C":{"a":2,"b":8},"D":{"a":8,"b":2}},"conditions":["nonSeqFull","nonSeqPartial","seqNoFeedback","seqFeedback"],"classroomPairings":[["A","B"],["C","D"]],"coinWeights":[0.2,0.5,0.8],"subjectId":"A16335MOISDG1F","assignmentId":"3YZ8UPK3VU8BO5O782BM90FIDG5CU1","hitId":"3E9VAUV7BW02QFDK7N7IH7ZKACRYAN","url":"https://gershmanlab.com/experiments/alicia/teaching/experiment/?hitId=3E9VAUV7BW02QFDK7N7IH7ZKACRYAN&workerId=A16335MOISDG1F&assignmentId=3YZ8UPK3VU8BO5O782BM90FIDG5CU1&a=3UZY9&tp_a=3UZY9&b=3YZ8UPK3VU8BO5O782BM90FIDG5CU1&tp_b=3YZ8UPK3VU8BO5O782BM90FIDG5CU1&c=365799&tp_c=365799","heads":8,"tails":2,"studentIndex":22,"studentTrueHypers":{"a":1,"b":4},"studentGuess":0.6,"delta":0.20000000000000007,"totalExamples":10,"bonus":0,"bonusSoFar":1.8},{"rt":6431,"response":{"heads":"9","tails":"1"},"type":"response","condition":"nonSeqPartial","trueTheta":0.8,"classrooms":["A","B"],"studentTrueClassroom":"A","exampleSet":"first","trial_type":"survey-html-form","trial_index":190,"time_elapsed":1255672,"internal_node_id":"0.0-186.0-0.0","params":{"nStudents":24,"maxFlips":30,"completionMinutes":45,"basePay":8,"maxBonus":9,"perTrialBonus":0.5,"perTrialBonusThreshold":0.05,"exampleCost":0.01},"classroomParams":{"A":{"a":1,"b":4},"B":{"a":4,"b":1},"C":{"a":2,"b":8},"D":{"a":8,"b":2}},"conditions":["nonSeqFull","nonSeqPartial","seqNoFeedback","seqFeedback"],"classroomPairings":[["A","B"],["C","D"]],"coinWeights":[0.2,0.5,0.8],"subjectId":"A16335MOISDG1F","assignmentId":"3YZ8UPK3VU8BO5O782BM90FIDG5CU1","hitId":"3E9VAUV7BW02QFDK7N7IH7ZKACRYAN","url":"https://gershmanlab.com/experiments/alicia/teaching/experiment/?hitId=3E9VAUV7BW02QFDK7N7IH7ZKACRYAN&workerId=A16335MOISDG1F&assignmentId=3YZ8UPK3VU8BO5O782BM90FIDG5CU1&a=3UZY9&tp_a=3UZY9&b=3YZ8UPK3VU8BO5O782BM90FIDG5CU1&tp_b=3YZ8UPK3VU8BO5O782BM90FIDG5CU1&c=365799&tp_c=365799","heads":9,"tails":1,"studentIndex":23,"studentTrueHypers":{"a":1,"b":4},"studentGuess":0.6666666666666666,"delta":0.13333333333333341,"totalExamples":10,"bonus":0,"bonusSoFar":1.8},{"rt":14682,"response":{"gender":"male","age":"38","understood":"yes","comments":"none"},"type":"response","trial_type":"survey-html-form","trial_index":194,"time_elapsed":1279557,"internal_node_id":"0.0-191.0","params":{"nStudents":24,"maxFlips":30,"completionMinutes":45,"basePay":8,"maxBonus":9,"perTrialBonus":0.5,"perTrialBonusThreshold":0.05,"exampleCost":0.01},"classroomParams":{"A":{"a":1,"b":4},"B":{"a":4,"b":1},"C":{"a":2,"b":8},"D":{"a":8,"b":2}},"conditions":["nonSeqFull","nonSeqPartial","seqNoFeedback","seqFeedback"],"classroomPairings":[["A","B"],["C","D"]],"coinWeights":[0.2,0.5,0.8],"subjectId":"A16335MOISDG1F","assignmentId":"3YZ8UPK3VU8BO5O782BM90FIDG5CU1","hitId":"3E9VAUV7BW02QFDK7N7IH7ZKACRYAN","url":"https://gershmanlab.com/experiments/alicia/teaching/experiment/?hitId=3E9VAUV7BW02QFDK7N7IH7ZKACRYAN&workerId=A16335MOISDG1F&assignmentId=3YZ8UPK3VU8BO5O782BM90FIDG5CU1&a=3UZY9&tp_a=3UZY9&b=3YZ8UPK3VU8BO5O782BM90FIDG5CU1&tp_b=3YZ8UPK3VU8BO5O782BM90FIDG5CU1&c=365799&tp_c=365799","totalBonus":1.8}]