[{"rt":38936,"response":{"heads":"2","tails":"2"},"type":"response","condition":"nonSeqPartial","trueTheta":0.5,"classrooms":["C","D"],"studentTrueClassroom":"C","exampleSet":"first","trial_type":"survey-html-form","trial_index":16,"time_elapsed":1435202,"internal_node_id":"0.0-6.0-0.0","params":{"nStudents":24,"maxFlips":30,"completionMinutes":45,"basePay":8,"maxBonus":9,"perTrialBonus":0.5,"perTrialBonusThreshold":0.05,"exampleCost":0.01},"classroomParams":{"A":{"a":1,"b":4},"B":{"a":4,"b":1},"C":{"a":2,"b":8},"D":{"a":8,"b":2}},"conditions":["nonSeqFull","nonSeqPartial","seqNoFeedback","seqFeedback"],"classroomPairings":[["A","B"],["C","D"]],"coinWeights":[0.2,0.5,0.8],"subjectId":"A16G6PPH1INQL8","assignmentId":"3IQ1VMJRYU6PBY36QDK4792G0SAA96","hitId":"32TZXEA1OL6QYKM0MXQIQH2ABHN14I","url":"https://gershmanlab.com/experiments/alicia/teaching/experiment/?hitId=32TZXEA1OL6QYKM0MXQIQH2ABHN14I&workerId=A16G6PPH1INQL8&assignmentId=3IQ1VMJRYU6PBY36QDK4792G0SAA96&a=RVQI9&tp_a=RVQI9&b=3IQ1VMJRYU6PBY36QDK4792G0SAA96&tp_b=3IQ1VMJRYU6PBY36QDK4792G0SAA96&c=365799&tp_c=365799","heads":2,"tails":2,"studentIndex":0,"studentTrueHypers":{"a":2,"b":8},"studentGuess":0.2857142857142857,"delta":0.2142857142857143,"totalExamples":4,"bonus":0,"bonusSoFar":0},{"rt":23023,"response":{"heads":"5","tails":"0"},"type":"response","condition":"nonSeqPartial","trueTheta":0.8,"classrooms":["C","D"],"studentTrueClassroom":"D","exampleSet":"first","trial_type":"survey-html-form","trial_index":22,"time_elapsed":1473719,"internal_node_id":"0.0-12.0-0.0","params":{"nStudents":24,"maxFlips":30,"completionMinutes":45,"basePay":8,"maxBonus":9,"perTrialBonus":0.5,"perTrialBonusThreshold":0.05,"exampleCost":0.01},"classroomParams":{"A":{"a":1,"b":4},"B":{"a":4,"b":1},"C":{"a":2,"b":8},"D":{"a":8,"b":2}},"conditions":["nonSeqFull","nonSeqPartial","seqNoFeedback","seqFeedback"],"classroomPairings":[["A","B"],["C","D"]],"coinWeights":[0.2,0.5,0.8],"subjectId":"A16G6PPH1INQL8","assignmentId":"3IQ1VMJRYU6PBY36QDK4792G0SAA96","hitId":"32TZXEA1OL6QYKM0MXQIQH2ABHN14I","url":"https://gershmanlab.com/experiments/alicia/teaching/experiment/?hitId=32TZXEA1OL6QYKM0MXQIQH2ABHN14I&workerId=A16G6PPH1INQL8&assignmentId=3IQ1VMJRYU6PBY36QDK4792G0SAA96&a=RVQI9&tp_a=RVQI9&b=3IQ1VMJRYU6PBY36QDK4792G0SAA96&tp_b=3IQ1VMJRYU6PBY36QDK4792G0SAA96&c=365799&tp_c=365799","heads":5,"tails":0,"studentIndex":1,"studentTrueHypers":{"a":8,"b":2},"studentGuess":0.8666666666666667,"delta":0.06666666666666665,"totalExamples":5,"bonus":0,"bonusSoFar":0},{"rt":16113,"response":{"heads":"1","tails":"5"},"type":"response","condition":"nonSeqPartial","trueTheta":0.5,"classrooms":["A","B"],"studentTrueClassroom":"A","exampleSet":"first","trial_type":"survey-html-form","trial_index":28,"time_elapsed":1504285,"internal_node_id":"0.0-18.0-0.0","params":{"nStudents":24,"maxFlips":30,"completionMinutes":45,"basePay":8,"maxBonus":9,"perTrialBonus":0.5,"perTrialBonusThreshold":0.05,"exampleCost":0.01},"classroomParams":{"A":{"a":1,"b":4},"B":{"a":4,"b":1},"C":{"a":2,"b":8},"D":{"a":8,"b":2}},"conditions":["nonSeqFull","nonSeqPartial","seqNoFeedback","seqFeedback"],"classroomPairings":[["A","B"],["C","D"]],"coinWeights":[0.2,0.5,0.8],"subjectId":"A16G6PPH1INQL8","assignmentId":"3IQ1VMJRYU6PBY36QDK4792G0SAA96","hitId":"32TZXEA1OL6QYKM0MXQIQH2ABHN14I","url":"https://gershmanlab.com/experiments/alicia/teaching/experiment/?hitId=32TZXEA1OL6QYKM0MXQIQH2ABHN14I&workerId=A16G6PPH1INQL8&assignmentId=3IQ1VMJRYU6PBY36QDK4792G0SAA96&a=RVQI9&tp_a=RVQI9&b=3IQ1VMJRYU6PBY36QDK4792G0SAA96&tp_b=3IQ1VMJRYU6PBY36QDK4792G0SAA96&c=365799&tp_c=365799","heads":1,"tails":5,"studentIndex":2,"studentTrueHypers":{"a":1,"b":4},"studentGuess":0.18181818181818182,"delta":0.3181818181818182,"totalExamples":6,"bonus":0,"bonusSoFar":0},{"rt":13927,"response":{"heads":"15","tails":"15"},"type":"response","condition":"nonSeqFull","trueTheta":0.5,"classrooms":["C","D"],"studentTrueClassroom":"D","exampleSet":"first","trial_type":"survey-html-form","trial_index":34,"time_elapsed":1530597,"internal_node_id":"0.0-24.0-0.0","params":{"nStudents":24,"maxFlips":30,"completionMinutes":45,"basePay":8,"maxBonus":9,"perTrialBonus":0.5,"perTrialBonusThreshold":0.05,"exampleCost":0.01},"classroomParams":{"A":{"a":1,"b":4},"B":{"a":4,"b":1},"C":{"a":2,"b":8},"D":{"a":8,"b":2}},"conditions":["nonSeqFull","nonSeqPartial","seqNoFeedback","seqFeedback"],"classroomPairings":[["A","B"],["C","D"]],"coinWeights":[0.2,0.5,0.8],"subjectId":"A16G6PPH1INQL8","assignmentId":"3IQ1VMJRYU6PBY36QDK4792G0SAA96","hitId":"32TZXEA1OL6QYKM0MXQIQH2ABHN14I","url":"https://gershmanlab.com/experiments/alicia/teaching/experiment/?hitId=32TZXEA1OL6QYKM0MXQIQH2ABHN14I&workerId=A16G6PPH1INQL8&assignmentId=3IQ1VMJRYU6PBY36QDK4792G0SAA96&a=RVQI9&tp_a=RVQI9&b=3IQ1VMJRYU6PBY36QDK4792G0SAA96&tp_b=3IQ1VMJRYU6PBY36QDK4792G0SAA96&c=365799&tp_c=365799","heads":15,"tails":15,"studentIndex":3,"studentTrueHypers":{"a":8,"b":2},"studentGuess":0.575,"delta":0.07499999999999996,"totalExamples":30,"bonus":0,"bonusSoFar":0},{"rt":16729,"response":{"heads":"5","tails":"10"},"type":"response","condition":"nonSeqPartial","trueTheta":0.8,"classrooms":["A","B"],"studentTrueClassroom":"A","exampleSet":"first","trial_type":"survey-html-form","trial_index":40,"time_elapsed":1562419,"internal_node_id":"0.0-30.0-0.0","params":{"nStudents":24,"maxFlips":30,"completionMinutes":45,"basePay":8,"maxBonus":9,"perTrialBonus":0.5,"perTrialBonusThreshold":0.05,"exampleCost":0.01},"classroomParams":{"A":{"a":1,"b":4},"B":{"a":4,"b":1},"C":{"a":2,"b":8},"D":{"a":8,"b":2}},"conditions":["nonSeqFull","nonSeqPartial","seqNoFeedback","seqFeedback"],"classroomPairings":[["A","B"],["C","D"]],"coinWeights":[0.2,0.5,0.8],"subjectId":"A16G6PPH1INQL8","assignmentId":"3IQ1VMJRYU6PBY36QDK4792G0SAA96","hitId":"32TZXEA1OL6QYKM0MXQIQH2ABHN14I","url":"https://gershmanlab.com/experiments/alicia/teaching/experiment/?hitId=32TZXEA1OL6QYKM0MXQIQH2ABHN14I&workerId=A16G6PPH1INQL8&assignmentId=3IQ1VMJRYU6PBY36QDK4792G0SAA96&a=RVQI9&tp_a=RVQI9&b=3IQ1VMJRYU6PBY36QDK4792G0SAA96&tp_b=3IQ1VMJRYU6PBY36QDK4792G0SAA96&c=365799&tp_c=365799","heads":5,"tails":10,"studentIndex":4,"studentTrueHypers":{"a":1,"b":4},"studentGuess":0.3,"delta":0.5,"totalExamples":15,"bonus":0,"bonusSoFar":0},{"rt":9229,"response":{"heads":"1","tails":"10"},"type":"response","condition":"nonSeqFull","trueTheta":0.2,"classrooms":["A","B"],"studentTrueClassroom":"B","exampleSet":"first","trial_type":"survey-html-form","trial_index":46,"time_elapsed":1584611,"internal_node_id":"0.0-36.0-0.0","params":{"nStudents":24,"maxFlips":30,"completionMinutes":45,"basePay":8,"maxBonus":9,"perTrialBonus":0.5,"perTrialBonusThreshold":0.05,"exampleCost":0.01},"classroomParams":{"A":{"a":1,"b":4},"B":{"a":4,"b":1},"C":{"a":2,"b":8},"D":{"a":8,"b":2}},"conditions":["nonSeqFull","nonSeqPartial","seqNoFeedback","seqFeedback"],"classroomPairings":[["A","B"],["C","D"]],"coinWeights":[0.2,0.5,0.8],"subjectId":"A16G6PPH1INQL8","assignmentId":"3IQ1VMJRYU6PBY36QDK4792G0SAA96","hitId":"32TZXEA1OL6QYKM0MXQIQH2ABHN14I","url":"https://gershmanlab.com/experiments/alicia/teaching/experiment/?hitId=32TZXEA1OL6QYKM0MXQIQH2ABHN14I&workerId=A16G6PPH1INQL8&assignmentId=3IQ1VMJRYU6PBY36QDK4792G0SAA96&a=RVQI9&tp_a=RVQI9&b=3IQ1VMJRYU6PBY36QDK4792G0SAA96&tp_b=3IQ1VMJRYU6PBY36QDK4792G0SAA96&c=365799&tp_c=365799","heads":1,"tails":10,"studentIndex":5,"studentTrueHypers":{"a":4,"b":1},"studentGuess":0.3125,"delta":0.11249999999999999,"totalExamples":11,"bonus":0,"bonusSoFar":0},{"rt":44563,"response":{"heads":"2","tails":"10"},"type":"response","condition":"nonSeqPartial","trueTheta":0.2,"classrooms":["C","D"],"studentTrueClassroom":"D","exampleSet":"first","trial_type":"survey-html-form","trial_index":52,"time_elapsed":1643491,"internal_node_id":"0.0-42.0-0.0","params":{"nStudents":24,"maxFlips":30,"completionMinutes":45,"basePay":8,"maxBonus":9,"perTrialBonus":0.5,"perTrialBonusThreshold":0.05,"exampleCost":0.01},"classroomParams":{"A":{"a":1,"b":4},"B":{"a":4,"b":1},"C":{"a":2,"b":8},"D":{"a":8,"b":2}},"conditions":["nonSeqFull","nonSeqPartial","seqNoFeedback","seqFeedback"],"classroomPairings":[["A","B"],["C","D"]],"coinWeights":[0.2,0.5,0.8],"subjectId":"A16G6PPH1INQL8","assignmentId":"3IQ1VMJRYU6PBY36QDK4792G0SAA96","hitId":"32TZXEA1OL6QYKM0MXQIQH2ABHN14I","url":"https://gershmanlab.com/experiments/alicia/teaching/experiment/?hitId=32TZXEA1OL6QYKM0MXQIQH2ABHN14I&workerId=A16G6PPH1INQL8&assignmentId=3IQ1VMJRYU6PBY36QDK4792G0SAA96&a=RVQI9&tp_a=RVQI9&b=3IQ1VMJRYU6PBY36QDK4792G0SAA96&tp_b=3IQ1VMJRYU6PBY36QDK4792G0SAA96&c=365799&tp_c=365799","heads":2,"tails":10,"studentIndex":6,"studentTrueHypers":{"a":8,"b":2},"studentGuess":0.45454545454545453,"delta":0.2545454545454545,"totalExamples":12,"bonus":0,"bonusSoFar":0},{"rt":17497,"response":{"heads":"8","tails":"0"},"type":"response","condition":"nonSeqFull","trueTheta":0.8,"classrooms":["C","D"],"studentTrueClassroom":"C","exampleSet":"first","trial_type":"survey-html-form","trial_index":58,"time_elapsed":1673941,"internal_node_id":"0.0-48.0-0.0","params":{"nStudents":24,"maxFlips":30,"completionMinutes":45,"basePay":8,"maxBonus":9,"perTrialBonus":0.5,"perTrialBonusThreshold":0.05,"exampleCost":0.01},"classroomParams":{"A":{"a":1,"b":4},"B":{"a":4,"b":1},"C":{"a":2,"b":8},"D":{"a":8,"b":2}},"conditions":["nonSeqFull","nonSeqPartial","seqNoFeedback","seqFeedback"],"classroomPairings":[["A","B"],["C","D"]],"coinWeights":[0.2,0.5,0.8],"subjectId":"A16G6PPH1INQL8","assignmentId":"3IQ1VMJRYU6PBY36QDK4792G0SAA96","hitId":"32TZXEA1OL6QYKM0MXQIQH2ABHN14I","url":"https://gershmanlab.com/experiments/alicia/teaching/experiment/?hitId=32TZXEA1OL6QYKM0MXQIQH2ABHN14I&workerId=A16G6PPH1INQL8&assignmentId=3IQ1VMJRYU6PBY36QDK4792G0SAA96&a=RVQI9&tp_a=RVQI9&b=3IQ1VMJRYU6PBY36QDK4792G0SAA96&tp_b=3IQ1VMJRYU6PBY36QDK4792G0SAA96&c=365799&tp_c=365799","heads":8,"tails":0,"studentIndex":7,"studentTrueHypers":{"a":2,"b":8},"studentGuess":0.5555555555555556,"delta":0.24444444444444446,"totalExamples":8,"bonus":0,"bonusSoFar":0},{"rt":65477,"response":{"heads":"1","tails":"10"},"type":"response","condition":"seqFeedback","trueTheta":0.2,"classrooms":["C","D"],"studentTrueClassroom":"C","exampleSet":"first","trial_type":"survey-html-form","trial_index":64,"time_elapsed":1761565,"internal_node_id":"0.0-54.0-0.0","params":{"nStudents":24,"maxFlips":30,"completionMinutes":45,"basePay":8,"maxBonus":9,"perTrialBonus":0.5,"perTrialBonusThreshold":0.05,"exampleCost":0.01},"classroomParams":{"A":{"a":1,"b":4},"B":{"a":4,"b":1},"C":{"a":2,"b":8},"D":{"a":8,"b":2}},"conditions":["nonSeqFull","nonSeqPartial","seqNoFeedback","seqFeedback"],"classroomPairings":[["A","B"],["C","D"]],"coinWeights":[0.2,0.5,0.8],"subjectId":"A16G6PPH1INQL8","assignmentId":"3IQ1VMJRYU6PBY36QDK4792G0SAA96","hitId":"32TZXEA1OL6QYKM0MXQIQH2ABHN14I","url":"https://gershmanlab.com/experiments/alicia/teaching/experiment/?hitId=32TZXEA1OL6QYKM0MXQIQH2ABHN14I&workerId=A16G6PPH1INQL8&assignmentId=3IQ1VMJRYU6PBY36QDK4792G0SAA96&a=RVQI9&tp_a=RVQI9&b=3IQ1VMJRYU6PBY36QDK4792G0SAA96&tp_b=3IQ1VMJRYU6PBY36QDK4792G0SAA96&c=365799&tp_c=365799","heads":1,"tails":10,"studentIndex":8,"studentTrueHypers":{"a":2,"b":8},"studentGuess":0.14285714285714285,"delta":0.05714285714285716,"totalExamples":11,"bonusSoFar":0},{"rt":13217,"response":{"heads":"1","tails":"20"},"type":"response","condition":"seqFeedback","trueTheta":0.2,"classrooms":["C","D"],"studentTrueClassroom":"C","exampleSet":"second","trial_type":"survey-html-form","trial_index":68,"time_elapsed":1790597,"internal_node_id":"0.0-58.0-0.0","params":{"nStudents":24,"maxFlips":30,"completionMinutes":45,"basePay":8,"maxBonus":9,"perTrialBonus":0.5,"perTrialBonusThreshold":0.05,"exampleCost":0.01},"classroomParams":{"A":{"a":1,"b":4},"B":{"a":4,"b":1},"C":{"a":2,"b":8},"D":{"a":8,"b":2}},"conditions":["nonSeqFull","nonSeqPartial","seqNoFeedback","seqFeedback"],"classroomPairings":[["A","B"],["C","D"]],"coinWeights":[0.2,0.5,0.8],"subjectId":"A16G6PPH1INQL8","assignmentId":"3IQ1VMJRYU6PBY36QDK4792G0SAA96","hitId":"32TZXEA1OL6QYKM0MXQIQH2ABHN14I","url":"https://gershmanlab.com/experiments/alicia/teaching/experiment/?hitId=32TZXEA1OL6QYKM0MXQIQH2ABHN14I&workerId=A16G6PPH1INQL8&assignmentId=3IQ1VMJRYU6PBY36QDK4792G0SAA96&a=RVQI9&tp_a=RVQI9&b=3IQ1VMJRYU6PBY36QDK4792G0SAA96&tp_b=3IQ1VMJRYU6PBY36QDK4792G0SAA96&c=365799&tp_c=365799","firstResponseHeads":1,"firstResponseTails":10,"secondResponseHeads":1,"secondResponseTails":20,"totalHeads":2,"totalTails":30,"studentIndex":8,"studentTrueHypers":{"a":2,"b":8},"studentGuess":0.09523809523809523,"delta":0.10476190476190478,"bonus":0,"bonusSoFar":0,"totalExamples":32},{"rt":23279,"response":{"heads":"0","tails":"30"},"type":"response","condition":"nonSeqFull","trueTheta":0.2,"classrooms":["C","D"],"studentTrueClassroom":"D","exampleSet":"first","trial_type":"survey-html-form","trial_index":74,"time_elapsed":1829772,"internal_node_id":"0.0-64.0-0.0","params":{"nStudents":24,"maxFlips":30,"completionMinutes":45,"basePay":8,"maxBonus":9,"perTrialBonus":0.5,"perTrialBonusThreshold":0.05,"exampleCost":0.01},"classroomParams":{"A":{"a":1,"b":4},"B":{"a":4,"b":1},"C":{"a":2,"b":8},"D":{"a":8,"b":2}},"conditions":["nonSeqFull","nonSeqPartial","seqNoFeedback","seqFeedback"],"classroomPairings":[["A","B"],["C","D"]],"coinWeights":[0.2,0.5,0.8],"subjectId":"A16G6PPH1INQL8","assignmentId":"3IQ1VMJRYU6PBY36QDK4792G0SAA96","hitId":"32TZXEA1OL6QYKM0MXQIQH2ABHN14I","url":"https://gershmanlab.com/experiments/alicia/teaching/experiment/?hitId=32TZXEA1OL6QYKM0MXQIQH2ABHN14I&workerId=A16G6PPH1INQL8&assignmentId=3IQ1VMJRYU6PBY36QDK4792G0SAA96&a=RVQI9&tp_a=RVQI9&b=3IQ1VMJRYU6PBY36QDK4792G0SAA96&tp_b=3IQ1VMJRYU6PBY36QDK4792G0SAA96&c=365799&tp_c=365799","heads":0,"tails":30,"studentIndex":9,"studentTrueHypers":{"a":8,"b":2},"studentGuess":0.2,"delta":0,"totalExamples":30,"bonus":0.2,"bonusSoFar":0.2},{"rt":7811,"response":{"heads":"30","tails":"0"},"type":"response","condition":"nonSeqFull","trueTheta":0.8,"classrooms":["A","B"],"studentTrueClassroom":"B","exampleSet":"first","trial_type":"survey-html-form","trial_index":80,"time_elapsed":1852413,"internal_node_id":"0.0-70.0-0.0","params":{"nStudents":24,"maxFlips":30,"completionMinutes":45,"basePay":8,"maxBonus":9,"perTrialBonus":0.5,"perTrialBonusThreshold":0.05,"exampleCost":0.01},"classroomParams":{"A":{"a":1,"b":4},"B":{"a":4,"b":1},"C":{"a":2,"b":8},"D":{"a":8,"b":2}},"conditions":["nonSeqFull","nonSeqPartial","seqNoFeedback","seqFeedback"],"classroomPairings":[["A","B"],["C","D"]],"coinWeights":[0.2,0.5,0.8],"subjectId":"A16G6PPH1INQL8","assignmentId":"3IQ1VMJRYU6PBY36QDK4792G0SAA96","hitId":"32TZXEA1OL6QYKM0MXQIQH2ABHN14I","url":"https://gershmanlab.com/experiments/alicia/teaching/experiment/?hitId=32TZXEA1OL6QYKM0MXQIQH2ABHN14I&workerId=A16G6PPH1INQL8&assignmentId=3IQ1VMJRYU6PBY36QDK4792G0SAA96&a=RVQI9&tp_a=RVQI9&b=3IQ1VMJRYU6PBY36QDK4792G0SAA96&tp_b=3IQ1VMJRYU6PBY36QDK4792G0SAA96&c=365799&tp_c=365799","heads":30,"tails":0,"studentIndex":10,"studentTrueHypers":{"a":4,"b":1},"studentGuess":0.9714285714285714,"delta":0.17142857142857137,"totalExamples":30,"bonus":0,"bonusSoFar":0.2},{"rt":19573,"response":{"heads":"15","tails":"15"},"type":"response","condition":"seqFeedback","trueTheta":0.5,"classrooms":["C","D"],"studentTrueClassroom":"D","exampleSet":"first","trial_type":"survey-html-form","trial_index":86,"time_elapsed":1886961,"internal_node_id":"0.0-76.0-0.0","params":{"nStudents":24,"maxFlips":30,"completionMinutes":45,"basePay":8,"maxBonus":9,"perTrialBonus":0.5,"perTrialBonusThreshold":0.05,"exampleCost":0.01},"classroomParams":{"A":{"a":1,"b":4},"B":{"a":4,"b":1},"C":{"a":2,"b":8},"D":{"a":8,"b":2}},"conditions":["nonSeqFull","nonSeqPartial","seqNoFeedback","seqFeedback"],"classroomPairings":[["A","B"],["C","D"]],"coinWeights":[0.2,0.5,0.8],"subjectId":"A16G6PPH1INQL8","assignmentId":"3IQ1VMJRYU6PBY36QDK4792G0SAA96","hitId":"32TZXEA1OL6QYKM0MXQIQH2ABHN14I","url":"https://gershmanlab.com/experiments/alicia/teaching/experiment/?hitId=32TZXEA1OL6QYKM0MXQIQH2ABHN14I&workerId=A16G6PPH1INQL8&assignmentId=3IQ1VMJRYU6PBY36QDK4792G0SAA96&a=RVQI9&tp_a=RVQI9&b=3IQ1VMJRYU6PBY36QDK4792G0SAA96&tp_b=3IQ1VMJRYU6PBY36QDK4792G0SAA96&c=365799&tp_c=365799","heads":15,"tails":15,"studentIndex":11,"studentTrueHypers":{"a":8,"b":2},"studentGuess":0.575,"delta":0.07499999999999996,"totalExamples":30,"bonusSoFar":0.2},{"rt":31100,"response":{"heads":"17","tails":"13"},"type":"response","condition":"seqFeedback","trueTheta":0.5,"classrooms":["C","D"],"studentTrueClassroom":"D","exampleSet":"second","trial_type":"survey-html-form","trial_index":90,"time_elapsed":1927405,"internal_node_id":"0.0-80.0-0.0","params":{"nStudents":24,"maxFlips":30,"completionMinutes":45,"basePay":8,"maxBonus":9,"perTrialBonus":0.5,"perTrialBonusThreshold":0.05,"exampleCost":0.01},"classroomParams":{"A":{"a":1,"b":4},"B":{"a":4,"b":1},"C":{"a":2,"b":8},"D":{"a":8,"b":2}},"conditions":["nonSeqFull","nonSeqPartial","seqNoFeedback","seqFeedback"],"classroomPairings":[["A","B"],["C","D"]],"coinWeights":[0.2,0.5,0.8],"subjectId":"A16G6PPH1INQL8","assignmentId":"3IQ1VMJRYU6PBY36QDK4792G0SAA96","hitId":"32TZXEA1OL6QYKM0MXQIQH2ABHN14I","url":"https://gershmanlab.com/experiments/alicia/teaching/experiment/?hitId=32TZXEA1OL6QYKM0MXQIQH2ABHN14I&workerId=A16G6PPH1INQL8&assignmentId=3IQ1VMJRYU6PBY36QDK4792G0SAA96&a=RVQI9&tp_a=RVQI9&b=3IQ1VMJRYU6PBY36QDK4792G0SAA96&tp_b=3IQ1VMJRYU6PBY36QDK4792G0SAA96&c=365799&tp_c=365799","firstResponseHeads":15,"firstResponseTails":15,"secondResponseHeads":17,"secondResponseTails":13,"totalHeads":32,"totalTails":28,"studentIndex":11,"studentTrueHypers":{"a":8,"b":2},"studentGuess":0.5714285714285714,"delta":0.0714285714285714,"bonus":0,"bonusSoFar":0.2,"totalExamples":60},{"rt":11813,"response":{"heads":"5","tails":"5"},"type":"response","condition":"seqFeedback","trueTheta":0.5,"classrooms":["A","B"],"studentTrueClassroom":"B","exampleSet":"first","trial_type":"survey-html-form","trial_index":96,"time_elapsed":1958415,"internal_node_id":"0.0-86.0-0.0","params":{"nStudents":24,"maxFlips":30,"completionMinutes":45,"basePay":8,"maxBonus":9,"perTrialBonus":0.5,"perTrialBonusThreshold":0.05,"exampleCost":0.01},"classroomParams":{"A":{"a":1,"b":4},"B":{"a":4,"b":1},"C":{"a":2,"b":8},"D":{"a":8,"b":2}},"conditions":["nonSeqFull","nonSeqPartial","seqNoFeedback","seqFeedback"],"classroomPairings":[["A","B"],["C","D"]],"coinWeights":[0.2,0.5,0.8],"subjectId":"A16G6PPH1INQL8","assignmentId":"3IQ1VMJRYU6PBY36QDK4792G0SAA96","hitId":"32TZXEA1OL6QYKM0MXQIQH2ABHN14I","url":"https://gershmanlab.com/experiments/alicia/teaching/experiment/?hitId=32TZXEA1OL6QYKM0MXQIQH2ABHN14I&workerId=A16G6PPH1INQL8&assignmentId=3IQ1VMJRYU6PBY36QDK4792G0SAA96&a=RVQI9&tp_a=RVQI9&b=3IQ1VMJRYU6PBY36QDK4792G0SAA96&tp_b=3IQ1VMJRYU6PBY36QDK4792G0SAA96&c=365799&tp_c=365799","heads":5,"tails":5,"studentIndex":12,"studentTrueHypers":{"a":4,"b":1},"studentGuess":0.6,"delta":0.09999999999999998,"totalExamples":10,"bonusSoFar":0.2},{"rt":16919,"response":{"heads":"15","tails":"15"},"type":"response","condition":"seqFeedback","trueTheta":0.5,"classrooms":["A","B"],"studentTrueClassroom":"B","exampleSet":"second","trial_type":"survey-html-form","trial_index":100,"time_elapsed":1996379,"internal_node_id":"0.0-90.0-0.0","params":{"nStudents":24,"maxFlips":30,"completionMinutes":45,"basePay":8,"maxBonus":9,"perTrialBonus":0.5,"perTrialBonusThreshold":0.05,"exampleCost":0.01},"classroomParams":{"A":{"a":1,"b":4},"B":{"a":4,"b":1},"C":{"a":2,"b":8},"D":{"a":8,"b":2}},"conditions":["nonSeqFull","nonSeqPartial","seqNoFeedback","seqFeedback"],"classroomPairings":[["A","B"],["C","D"]],"coinWeights":[0.2,0.5,0.8],"subjectId":"A16G6PPH1INQL8","assignmentId":"3IQ1VMJRYU6PBY36QDK4792G0SAA96","hitId":"32TZXEA1OL6QYKM0MXQIQH2ABHN14I","url":"https://gershmanlab.com/experiments/alicia/teaching/experiment/?hitId=32TZXEA1OL6QYKM0MXQIQH2ABHN14I&workerId=A16G6PPH1INQL8&assignmentId=3IQ1VMJRYU6PBY36QDK4792G0SAA96&a=RVQI9&tp_a=RVQI9&b=3IQ1VMJRYU6PBY36QDK4792G0SAA96&tp_b=3IQ1VMJRYU6PBY36QDK4792G0SAA96&c=365799&tp_c=365799","firstResponseHeads":5,"firstResponseTails":5,"secondResponseHeads":15,"secondResponseTails":15,"totalHeads":20,"totalTails":20,"studentIndex":12,"studentTrueHypers":{"a":4,"b":1},"studentGuess":0.5333333333333333,"delta":0.033333333333333326,"bonus":0.1,"bonusSoFar":0.3,"totalExamples":40},{"rt":14073,"response":{"heads":"1","tails":"4"},"type":"response","condition":"nonSeqFull","trueTheta":0.5,"classrooms":["A","B"],"studentTrueClassroom":"B","exampleSet":"first","trial_type":"survey-html-form","trial_index":106,"time_elapsed":2036662,"internal_node_id":"0.0-96.0-0.0","params":{"nStudents":24,"maxFlips":30,"completionMinutes":45,"basePay":8,"maxBonus":9,"perTrialBonus":0.5,"perTrialBonusThreshold":0.05,"exampleCost":0.01},"classroomParams":{"A":{"a":1,"b":4},"B":{"a":4,"b":1},"C":{"a":2,"b":8},"D":{"a":8,"b":2}},"conditions":["nonSeqFull","nonSeqPartial","seqNoFeedback","seqFeedback"],"classroomPairings":[["A","B"],["C","D"]],"coinWeights":[0.2,0.5,0.8],"subjectId":"A16G6PPH1INQL8","assignmentId":"3IQ1VMJRYU6PBY36QDK4792G0SAA96","hitId":"32TZXEA1OL6QYKM0MXQIQH2ABHN14I","url":"https://gershmanlab.com/experiments/alicia/teaching/experiment/?hitId=32TZXEA1OL6QYKM0MXQIQH2ABHN14I&workerId=A16G6PPH1INQL8&assignmentId=3IQ1VMJRYU6PBY36QDK4792G0SAA96&a=RVQI9&tp_a=RVQI9&b=3IQ1VMJRYU6PBY36QDK4792G0SAA96&tp_b=3IQ1VMJRYU6PBY36QDK4792G0SAA96&c=365799&tp_c=365799","heads":1,"tails":4,"studentIndex":13,"studentTrueHypers":{"a":4,"b":1},"studentGuess":0.5,"delta":0,"totalExamples":5,"bonus":0.45,"bonusSoFar":0.75},{"rt":21935,"response":{"heads":"0","tails":"5"},"type":"response","condition":"nonSeqPartial","trueTheta":0.2,"classrooms":["A","B"],"studentTrueClassroom":"B","exampleSet":"first","trial_type":"survey-html-form","trial_index":112,"time_elapsed":2074547,"internal_node_id":"0.0-102.0-0.0","params":{"nStudents":24,"maxFlips":30,"completionMinutes":45,"basePay":8,"maxBonus":9,"perTrialBonus":0.5,"perTrialBonusThreshold":0.05,"exampleCost":0.01},"classroomParams":{"A":{"a":1,"b":4},"B":{"a":4,"b":1},"C":{"a":2,"b":8},"D":{"a":8,"b":2}},"conditions":["nonSeqFull","nonSeqPartial","seqNoFeedback","seqFeedback"],"classroomPairings":[["A","B"],["C","D"]],"coinWeights":[0.2,0.5,0.8],"subjectId":"A16G6PPH1INQL8","assignmentId":"3IQ1VMJRYU6PBY36QDK4792G0SAA96","hitId":"32TZXEA1OL6QYKM0MXQIQH2ABHN14I","url":"https://gershmanlab.com/experiments/alicia/teaching/experiment/?hitId=32TZXEA1OL6QYKM0MXQIQH2ABHN14I&workerId=A16G6PPH1INQL8&assignmentId=3IQ1VMJRYU6PBY36QDK4792G0SAA96&a=RVQI9&tp_a=RVQI9&b=3IQ1VMJRYU6PBY36QDK4792G0SAA96&tp_b=3IQ1VMJRYU6PBY36QDK4792G0SAA96&c=365799&tp_c=365799","heads":0,"tails":5,"studentIndex":14,"studentTrueHypers":{"a":4,"b":1},"studentGuess":0.4,"delta":0.2,"totalExamples":5,"bonus":0,"bonusSoFar":0.75},{"rt":10711,"response":{"heads":"0","tails":"30"},"type":"response","condition":"seqFeedback","trueTheta":0.2,"classrooms":["A","B"],"studentTrueClassroom":"B","exampleSet":"first","trial_type":"survey-html-form","trial_index":118,"time_elapsed":2099903,"internal_node_id":"0.0-108.0-0.0","params":{"nStudents":24,"maxFlips":30,"completionMinutes":45,"basePay":8,"maxBonus":9,"perTrialBonus":0.5,"perTrialBonusThreshold":0.05,"exampleCost":0.01},"classroomParams":{"A":{"a":1,"b":4},"B":{"a":4,"b":1},"C":{"a":2,"b":8},"D":{"a":8,"b":2}},"conditions":["nonSeqFull","nonSeqPartial","seqNoFeedback","seqFeedback"],"classroomPairings":[["A","B"],["C","D"]],"coinWeights":[0.2,0.5,0.8],"subjectId":"A16G6PPH1INQL8","assignmentId":"3IQ1VMJRYU6PBY36QDK4792G0SAA96","hitId":"32TZXEA1OL6QYKM0MXQIQH2ABHN14I","url":"https://gershmanlab.com/experiments/alicia/teaching/experiment/?hitId=32TZXEA1OL6QYKM0MXQIQH2ABHN14I&workerId=A16G6PPH1INQL8&assignmentId=3IQ1VMJRYU6PBY36QDK4792G0SAA96&a=RVQI9&tp_a=RVQI9&b=3IQ1VMJRYU6PBY36QDK4792G0SAA96&tp_b=3IQ1VMJRYU6PBY36QDK4792G0SAA96&c=365799&tp_c=365799","heads":0,"tails":30,"studentIndex":15,"studentTrueHypers":{"a":4,"b":1},"studentGuess":0.11428571428571428,"delta":0.08571428571428573,"totalExamples":30,"bonusSoFar":0.75},{"rt":15760,"response":{"heads":"9","tails":"10"},"type":"response","condition":"seqFeedback","trueTheta":0.2,"classrooms":["A","B"],"studentTrueClassroom":"B","exampleSet":"second","trial_type":"survey-html-form","trial_index":122,"time_elapsed":2136031,"internal_node_id":"0.0-112.0-0.0","params":{"nStudents":24,"maxFlips":30,"completionMinutes":45,"basePay":8,"maxBonus":9,"perTrialBonus":0.5,"perTrialBonusThreshold":0.05,"exampleCost":0.01},"classroomParams":{"A":{"a":1,"b":4},"B":{"a":4,"b":1},"C":{"a":2,"b":8},"D":{"a":8,"b":2}},"conditions":["nonSeqFull","nonSeqPartial","seqNoFeedback","seqFeedback"],"classroomPairings":[["A","B"],["C","D"]],"coinWeights":[0.2,0.5,0.8],"subjectId":"A16G6PPH1INQL8","assignmentId":"3IQ1VMJRYU6PBY36QDK4792G0SAA96","hitId":"32TZXEA1OL6QYKM0MXQIQH2ABHN14I","url":"https://gershmanlab.com/experiments/alicia/teaching/experiment/?hitId=32TZXEA1OL6QYKM0MXQIQH2ABHN14I&workerId=A16G6PPH1INQL8&assignmentId=3IQ1VMJRYU6PBY36QDK4792G0SAA96&a=RVQI9&tp_a=RVQI9&b=3IQ1VMJRYU6PBY36QDK4792G0SAA96&tp_b=3IQ1VMJRYU6PBY36QDK4792G0SAA96&c=365799&tp_c=365799","firstResponseHeads":0,"firstResponseTails":30,"secondResponseHeads":9,"secondResponseTails":10,"totalHeads":9,"totalTails":40,"studentIndex":15,"studentTrueHypers":{"a":4,"b":1},"studentGuess":0.24074074074074073,"delta":0.040740740740740716,"bonus":0.01,"bonusSoFar":0.76,"totalExamples":49},{"rt":13979,"response":{"heads":"2","tails":"10"},"type":"response","condition":"seqNoFeedback","trueTheta":0.2,"classrooms":["C","D"],"studentTrueClassroom":"D","exampleSet":"first","trial_type":"survey-html-form","trial_index":128,"time_elapsed":2169775,"internal_node_id":"0.0-118.0-0.0","params":{"nStudents":24,"maxFlips":30,"completionMinutes":45,"basePay":8,"maxBonus":9,"perTrialBonus":0.5,"perTrialBonusThreshold":0.05,"exampleCost":0.01},"classroomParams":{"A":{"a":1,"b":4},"B":{"a":4,"b":1},"C":{"a":2,"b":8},"D":{"a":8,"b":2}},"conditions":["nonSeqFull","nonSeqPartial","seqNoFeedback","seqFeedback"],"classroomPairings":[["A","B"],["C","D"]],"coinWeights":[0.2,0.5,0.8],"subjectId":"A16G6PPH1INQL8","assignmentId":"3IQ1VMJRYU6PBY36QDK4792G0SAA96","hitId":"32TZXEA1OL6QYKM0MXQIQH2ABHN14I","url":"https://gershmanlab.com/experiments/alicia/teaching/experiment/?hitId=32TZXEA1OL6QYKM0MXQIQH2ABHN14I&workerId=A16G6PPH1INQL8&assignmentId=3IQ1VMJRYU6PBY36QDK4792G0SAA96&a=RVQI9&tp_a=RVQI9&b=3IQ1VMJRYU6PBY36QDK4792G0SAA96&tp_b=3IQ1VMJRYU6PBY36QDK4792G0SAA96&c=365799&tp_c=365799","heads":2,"tails":10,"studentIndex":16,"studentTrueHypers":{"a":8,"b":2},"studentGuess":0.45454545454545453,"delta":0.2545454545454545,"totalExamples":12,"bonusSoFar":0.76},{"rt":16484,"response":{"heads":"2","tails":"10"},"type":"response","condition":"seqNoFeedback","trueTheta":0.2,"classrooms":["C","D"],"studentTrueClassroom":"D","exampleSet":"second","trial_type":"survey-html-form","trial_index":131,"time_elapsed":2193773,"internal_node_id":"0.0-121.0-0.0","params":{"nStudents":24,"maxFlips":30,"completionMinutes":45,"basePay":8,"maxBonus":9,"perTrialBonus":0.5,"perTrialBonusThreshold":0.05,"exampleCost":0.01},"classroomParams":{"A":{"a":1,"b":4},"B":{"a":4,"b":1},"C":{"a":2,"b":8},"D":{"a":8,"b":2}},"conditions":["nonSeqFull","nonSeqPartial","seqNoFeedback","seqFeedback"],"classroomPairings":[["A","B"],["C","D"]],"coinWeights":[0.2,0.5,0.8],"subjectId":"A16G6PPH1INQL8","assignmentId":"3IQ1VMJRYU6PBY36QDK4792G0SAA96","hitId":"32TZXEA1OL6QYKM0MXQIQH2ABHN14I","url":"https://gershmanlab.com/experiments/alicia/teaching/experiment/?hitId=32TZXEA1OL6QYKM0MXQIQH2ABHN14I&workerId=A16G6PPH1INQL8&assignmentId=3IQ1VMJRYU6PBY36QDK4792G0SAA96&a=RVQI9&tp_a=RVQI9&b=3IQ1VMJRYU6PBY36QDK4792G0SAA96&tp_b=3IQ1VMJRYU6PBY36QDK4792G0SAA96&c=365799&tp_c=365799","firstResponseHeads":2,"firstResponseTails":10,"secondResponseHeads":2,"secondResponseTails":10,"totalHeads":4,"totalTails":20,"studentIndex":16,"studentTrueHypers":{"a":8,"b":2},"studentGuess":0.35294117647058826,"delta":0.15294117647058825,"bonus":0,"bonusSoFar":0.76,"totalExamples":24},{"rt":8811,"response":{"heads":"10","tails":"10"},"type":"response","condition":"seqNoFeedback","trueTheta":0.5,"classrooms":["C","D"],"studentTrueClassroom":"D","exampleSet":"first","trial_type":"survey-html-form","trial_index":137,"time_elapsed":2218017,"internal_node_id":"0.0-127.0-0.0","params":{"nStudents":24,"maxFlips":30,"completionMinutes":45,"basePay":8,"maxBonus":9,"perTrialBonus":0.5,"perTrialBonusThreshold":0.05,"exampleCost":0.01},"classroomParams":{"A":{"a":1,"b":4},"B":{"a":4,"b":1},"C":{"a":2,"b":8},"D":{"a":8,"b":2}},"conditions":["nonSeqFull","nonSeqPartial","seqNoFeedback","seqFeedback"],"classroomPairings":[["A","B"],["C","D"]],"coinWeights":[0.2,0.5,0.8],"subjectId":"A16G6PPH1INQL8","assignmentId":"3IQ1VMJRYU6PBY36QDK4792G0SAA96","hitId":"32TZXEA1OL6QYKM0MXQIQH2ABHN14I","url":"https://gershmanlab.com/experiments/alicia/teaching/experiment/?hitId=32TZXEA1OL6QYKM0MXQIQH2ABHN14I&workerId=A16G6PPH1INQL8&assignmentId=3IQ1VMJRYU6PBY36QDK4792G0SAA96&a=RVQI9&tp_a=RVQI9&b=3IQ1VMJRYU6PBY36QDK4792G0SAA96&tp_b=3IQ1VMJRYU6PBY36QDK4792G0SAA96&c=365799&tp_c=365799","heads":10,"tails":10,"studentIndex":17,"studentTrueHypers":{"a":8,"b":2},"studentGuess":0.6,"delta":0.09999999999999998,"totalExamples":20,"bonusSoFar":0.76},{"rt":9912,"response":{"heads":"15","tails":"15"},"type":"response","condition":"seqNoFeedback","trueTheta":0.5,"classrooms":["C","D"],"studentTrueClassroom":"D","exampleSet":"second","trial_type":"survey-html-form","trial_index":140,"time_elapsed":2233953,"internal_node_id":"0.0-130.0-0.0","params":{"nStudents":24,"maxFlips":30,"completionMinutes":45,"basePay":8,"maxBonus":9,"perTrialBonus":0.5,"perTrialBonusThreshold":0.05,"exampleCost":0.01},"classroomParams":{"A":{"a":1,"b":4},"B":{"a":4,"b":1},"C":{"a":2,"b":8},"D":{"a":8,"b":2}},"conditions":["nonSeqFull","nonSeqPartial","seqNoFeedback","seqFeedback"],"classroomPairings":[["A","B"],["C","D"]],"coinWeights":[0.2,0.5,0.8],"subjectId":"A16G6PPH1INQL8","assignmentId":"3IQ1VMJRYU6PBY36QDK4792G0SAA96","hitId":"32TZXEA1OL6QYKM0MXQIQH2ABHN14I","url":"https://gershmanlab.com/experiments/alicia/teaching/experiment/?hitId=32TZXEA1OL6QYKM0MXQIQH2ABHN14I&workerId=A16G6PPH1INQL8&assignmentId=3IQ1VMJRYU6PBY36QDK4792G0SAA96&a=RVQI9&tp_a=RVQI9&b=3IQ1VMJRYU6PBY36QDK4792G0SAA96&tp_b=3IQ1VMJRYU6PBY36QDK4792G0SAA96&c=365799&tp_c=365799","firstResponseHeads":10,"firstResponseTails":10,"secondResponseHeads":15,"secondResponseTails":15,"totalHeads":25,"totalTails":25,"studentIndex":17,"studentTrueHypers":{"a":8,"b":2},"studentGuess":0.55,"delta":0.050000000000000044,"bonus":0,"bonusSoFar":0.76,"totalExamples":50},{"rt":14695,"response":{"heads":"5","tails":"5"},"type":"response","condition":"seqNoFeedback","trueTheta":0.5,"classrooms":["A","B"],"studentTrueClassroom":"A","exampleSet":"first","trial_type":"survey-html-form","trial_index":146,"time_elapsed":2263813,"internal_node_id":"0.0-136.0-0.0","params":{"nStudents":24,"maxFlips":30,"completionMinutes":45,"basePay":8,"maxBonus":9,"perTrialBonus":0.5,"perTrialBonusThreshold":0.05,"exampleCost":0.01},"classroomParams":{"A":{"a":1,"b":4},"B":{"a":4,"b":1},"C":{"a":2,"b":8},"D":{"a":8,"b":2}},"conditions":["nonSeqFull","nonSeqPartial","seqNoFeedback","seqFeedback"],"classroomPairings":[["A","B"],["C","D"]],"coinWeights":[0.2,0.5,0.8],"subjectId":"A16G6PPH1INQL8","assignmentId":"3IQ1VMJRYU6PBY36QDK4792G0SAA96","hitId":"32TZXEA1OL6QYKM0MXQIQH2ABHN14I","url":"https://gershmanlab.com/experiments/alicia/teaching/experiment/?hitId=32TZXEA1OL6QYKM0MXQIQH2ABHN14I&workerId=A16G6PPH1INQL8&assignmentId=3IQ1VMJRYU6PBY36QDK4792G0SAA96&a=RVQI9&tp_a=RVQI9&b=3IQ1VMJRYU6PBY36QDK4792G0SAA96&tp_b=3IQ1VMJRYU6PBY36QDK4792G0SAA96&c=365799&tp_c=365799","heads":5,"tails":5,"studentIndex":18,"studentTrueHypers":{"a":1,"b":4},"studentGuess":0.4,"delta":0.09999999999999998,"totalExamples":10,"bonusSoFar":0.76},{"rt":8665,"response":{"heads":"5","tails":"5"},"type":"response","condition":"seqNoFeedback","trueTheta":0.5,"classrooms":["A","B"],"studentTrueClassroom":"A","exampleSet":"second","trial_type":"survey-html-form","trial_index":149,"time_elapsed":2279003,"internal_node_id":"0.0-139.0-0.0","params":{"nStudents":24,"maxFlips":30,"completionMinutes":45,"basePay":8,"maxBonus":9,"perTrialBonus":0.5,"perTrialBonusThreshold":0.05,"exampleCost":0.01},"classroomParams":{"A":{"a":1,"b":4},"B":{"a":4,"b":1},"C":{"a":2,"b":8},"D":{"a":8,"b":2}},"conditions":["nonSeqFull","nonSeqPartial","seqNoFeedback","seqFeedback"],"classroomPairings":[["A","B"],["C","D"]],"coinWeights":[0.2,0.5,0.8],"subjectId":"A16G6PPH1INQL8","assignmentId":"3IQ1VMJRYU6PBY36QDK4792G0SAA96","hitId":"32TZXEA1OL6QYKM0MXQIQH2ABHN14I","url":"https://gershmanlab.com/experiments/alicia/teaching/experiment/?hitId=32TZXEA1OL6QYKM0MXQIQH2ABHN14I&workerId=A16G6PPH1INQL8&assignmentId=3IQ1VMJRYU6PBY36QDK4792G0SAA96&a=RVQI9&tp_a=RVQI9&b=3IQ1VMJRYU6PBY36QDK4792G0SAA96&tp_b=3IQ1VMJRYU6PBY36QDK4792G0SAA96&c=365799&tp_c=365799","firstResponseHeads":5,"firstResponseTails":5,"secondResponseHeads":5,"secondResponseTails":5,"totalHeads":10,"totalTails":10,"studentIndex":18,"studentTrueHypers":{"a":1,"b":4},"studentGuess":0.44,"delta":0.06,"bonus":0,"bonusSoFar":0.76,"totalExamples":20},{"rt":11489,"response":{"heads":"8","tails":"0"},"type":"response","condition":"seqNoFeedback","trueTheta":0.8,"classrooms":["C","D"],"studentTrueClassroom":"C","exampleSet":"first","trial_type":"survey-html-form","trial_index":155,"time_elapsed":2326429,"internal_node_id":"0.0-145.0-0.0","params":{"nStudents":24,"maxFlips":30,"completionMinutes":45,"basePay":8,"maxBonus":9,"perTrialBonus":0.5,"perTrialBonusThreshold":0.05,"exampleCost":0.01},"classroomParams":{"A":{"a":1,"b":4},"B":{"a":4,"b":1},"C":{"a":2,"b":8},"D":{"a":8,"b":2}},"conditions":["nonSeqFull","nonSeqPartial","seqNoFeedback","seqFeedback"],"classroomPairings":[["A","B"],["C","D"]],"coinWeights":[0.2,0.5,0.8],"subjectId":"A16G6PPH1INQL8","assignmentId":"3IQ1VMJRYU6PBY36QDK4792G0SAA96","hitId":"32TZXEA1OL6QYKM0MXQIQH2ABHN14I","url":"https://gershmanlab.com/experiments/alicia/teaching/experiment/?hitId=32TZXEA1OL6QYKM0MXQIQH2ABHN14I&workerId=A16G6PPH1INQL8&assignmentId=3IQ1VMJRYU6PBY36QDK4792G0SAA96&a=RVQI9&tp_a=RVQI9&b=3IQ1VMJRYU6PBY36QDK4792G0SAA96&tp_b=3IQ1VMJRYU6PBY36QDK4792G0SAA96&c=365799&tp_c=365799","heads":8,"tails":0,"studentIndex":19,"studentTrueHypers":{"a":2,"b":8},"studentGuess":0.5555555555555556,"delta":0.24444444444444446,"totalExamples":8,"bonusSoFar":0.76},{"rt":6486,"response":{"heads":"8","tails":"0"},"type":"response","condition":"seqNoFeedback","trueTheta":0.8,"classrooms":["C","D"],"studentTrueClassroom":"C","exampleSet":"second","trial_type":"survey-html-form","trial_index":158,"time_elapsed":2338441,"internal_node_id":"0.0-148.0-0.0","params":{"nStudents":24,"maxFlips":30,"completionMinutes":45,"basePay":8,"maxBonus":9,"perTrialBonus":0.5,"perTrialBonusThreshold":0.05,"exampleCost":0.01},"classroomParams":{"A":{"a":1,"b":4},"B":{"a":4,"b":1},"C":{"a":2,"b":8},"D":{"a":8,"b":2}},"conditions":["nonSeqFull","nonSeqPartial","seqNoFeedback","seqFeedback"],"classroomPairings":[["A","B"],["C","D"]],"coinWeights":[0.2,0.5,0.8],"subjectId":"A16G6PPH1INQL8","assignmentId":"3IQ1VMJRYU6PBY36QDK4792G0SAA96","hitId":"32TZXEA1OL6QYKM0MXQIQH2ABHN14I","url":"https://gershmanlab.com/experiments/alicia/teaching/experiment/?hitId=32TZXEA1OL6QYKM0MXQIQH2ABHN14I&workerId=A16G6PPH1INQL8&assignmentId=3IQ1VMJRYU6PBY36QDK4792G0SAA96&a=RVQI9&tp_a=RVQI9&b=3IQ1VMJRYU6PBY36QDK4792G0SAA96&tp_b=3IQ1VMJRYU6PBY36QDK4792G0SAA96&c=365799&tp_c=365799","firstResponseHeads":8,"firstResponseTails":0,"secondResponseHeads":8,"secondResponseTails":0,"totalHeads":16,"totalTails":0,"studentIndex":19,"studentTrueHypers":{"a":2,"b":8},"studentGuess":0.6923076923076923,"delta":0.10769230769230775,"bonus":0,"bonusSoFar":0.76,"totalExamples":16},{"rt":121315,"response":{"heads":"8","tails":"0"},"type":"response","condition":"seqNoFeedback","trueTheta":0.8,"classrooms":["A","B"],"studentTrueClassroom":"B","exampleSet":"first","trial_type":"survey-html-form","trial_index":164,"time_elapsed":2473768,"internal_node_id":"0.0-154.0-0.0","params":{"nStudents":24,"maxFlips":30,"completionMinutes":45,"basePay":8,"maxBonus":9,"perTrialBonus":0.5,"perTrialBonusThreshold":0.05,"exampleCost":0.01},"classroomParams":{"A":{"a":1,"b":4},"B":{"a":4,"b":1},"C":{"a":2,"b":8},"D":{"a":8,"b":2}},"conditions":["nonSeqFull","nonSeqPartial","seqNoFeedback","seqFeedback"],"classroomPairings":[["A","B"],["C","D"]],"coinWeights":[0.2,0.5,0.8],"subjectId":"A16G6PPH1INQL8","assignmentId":"3IQ1VMJRYU6PBY36QDK4792G0SAA96","hitId":"32TZXEA1OL6QYKM0MXQIQH2ABHN14I","url":"https://gershmanlab.com/experiments/alicia/teaching/experiment/?hitId=32TZXEA1OL6QYKM0MXQIQH2ABHN14I&workerId=A16G6PPH1INQL8&assignmentId=3IQ1VMJRYU6PBY36QDK4792G0SAA96&a=RVQI9&tp_a=RVQI9&b=3IQ1VMJRYU6PBY36QDK4792G0SAA96&tp_b=3IQ1VMJRYU6PBY36QDK4792G0SAA96&c=365799&tp_c=365799","heads":8,"tails":0,"studentIndex":20,"studentTrueHypers":{"a":4,"b":1},"studentGuess":0.9230769230769231,"delta":0.12307692307692308,"totalExamples":8,"bonusSoFar":0.76},{"rt":5559,"response":{"heads":"8","tails":"0"},"type":"response","condition":"seqNoFeedback","trueTheta":0.8,"classrooms":["A","B"],"studentTrueClassroom":"B","exampleSet":"second","trial_type":"survey-html-form","trial_index":167,"time_elapsed":2486341,"internal_node_id":"0.0-157.0-0.0","params":{"nStudents":24,"maxFlips":30,"completionMinutes":45,"basePay":8,"maxBonus":9,"perTrialBonus":0.5,"perTrialBonusThreshold":0.05,"exampleCost":0.01},"classroomParams":{"A":{"a":1,"b":4},"B":{"a":4,"b":1},"C":{"a":2,"b":8},"D":{"a":8,"b":2}},"conditions":["nonSeqFull","nonSeqPartial","seqNoFeedback","seqFeedback"],"classroomPairings":[["A","B"],["C","D"]],"coinWeights":[0.2,0.5,0.8],"subjectId":"A16G6PPH1INQL8","assignmentId":"3IQ1VMJRYU6PBY36QDK4792G0SAA96","hitId":"32TZXEA1OL6QYKM0MXQIQH2ABHN14I","url":"https://gershmanlab.com/experiments/alicia/teaching/experiment/?hitId=32TZXEA1OL6QYKM0MXQIQH2ABHN14I&workerId=A16G6PPH1INQL8&assignmentId=3IQ1VMJRYU6PBY36QDK4792G0SAA96&a=RVQI9&tp_a=RVQI9&b=3IQ1VMJRYU6PBY36QDK4792G0SAA96&tp_b=3IQ1VMJRYU6PBY36QDK4792G0SAA96&c=365799&tp_c=365799","firstResponseHeads":8,"firstResponseTails":0,"secondResponseHeads":8,"secondResponseTails":0,"totalHeads":16,"totalTails":0,"studentIndex":20,"studentTrueHypers":{"a":4,"b":1},"studentGuess":0.9523809523809523,"delta":0.15238095238095228,"bonus":0,"bonusSoFar":0.76,"totalExamples":16},{"rt":18425,"response":{"heads":"8","tails":"2"},"type":"response","condition":"seqFeedback","trueTheta":0.8,"classrooms":["C","D"],"studentTrueClassroom":"C","exampleSet":"first","trial_type":"survey-html-form","trial_index":173,"time_elapsed":2523557,"internal_node_id":"0.0-163.0-0.0","params":{"nStudents":24,"maxFlips":30,"completionMinutes":45,"basePay":8,"maxBonus":9,"perTrialBonus":0.5,"perTrialBonusThreshold":0.05,"exampleCost":0.01},"classroomParams":{"A":{"a":1,"b":4},"B":{"a":4,"b":1},"C":{"a":2,"b":8},"D":{"a":8,"b":2}},"conditions":["nonSeqFull","nonSeqPartial","seqNoFeedback","seqFeedback"],"classroomPairings":[["A","B"],["C","D"]],"coinWeights":[0.2,0.5,0.8],"subjectId":"A16G6PPH1INQL8","assignmentId":"3IQ1VMJRYU6PBY36QDK4792G0SAA96","hitId":"32TZXEA1OL6QYKM0MXQIQH2ABHN14I","url":"https://gershmanlab.com/experiments/alicia/teaching/experiment/?hitId=32TZXEA1OL6QYKM0MXQIQH2ABHN14I&workerId=A16G6PPH1INQL8&assignmentId=3IQ1VMJRYU6PBY36QDK4792G0SAA96&a=RVQI9&tp_a=RVQI9&b=3IQ1VMJRYU6PBY36QDK4792G0SAA96&tp_b=3IQ1VMJRYU6PBY36QDK4792G0SAA96&c=365799&tp_c=365799","heads":8,"tails":2,"studentIndex":21,"studentTrueHypers":{"a":2,"b":8},"studentGuess":0.5,"delta":0.30000000000000004,"totalExamples":10,"bonusSoFar":0.76},{"rt":12545,"response":{"heads":"8","tails":"3"},"type":"response","condition":"seqFeedback","trueTheta":0.8,"classrooms":["C","D"],"studentTrueClassroom":"C","exampleSet":"second","trial_type":"survey-html-form","trial_index":177,"time_elapsed":2545761,"internal_node_id":"0.0-167.0-0.0","params":{"nStudents":24,"maxFlips":30,"completionMinutes":45,"basePay":8,"maxBonus":9,"perTrialBonus":0.5,"perTrialBonusThreshold":0.05,"exampleCost":0.01},"classroomParams":{"A":{"a":1,"b":4},"B":{"a":4,"b":1},"C":{"a":2,"b":8},"D":{"a":8,"b":2}},"conditions":["nonSeqFull","nonSeqPartial","seqNoFeedback","seqFeedback"],"classroomPairings":[["A","B"],["C","D"]],"coinWeights":[0.2,0.5,0.8],"subjectId":"A16G6PPH1INQL8","assignmentId":"3IQ1VMJRYU6PBY36QDK4792G0SAA96","hitId":"32TZXEA1OL6QYKM0MXQIQH2ABHN14I","url":"https://gershmanlab.com/experiments/alicia/teaching/experiment/?hitId=32TZXEA1OL6QYKM0MXQIQH2ABHN14I&workerId=A16G6PPH1INQL8&assignmentId=3IQ1VMJRYU6PBY36QDK4792G0SAA96&a=RVQI9&tp_a=RVQI9&b=3IQ1VMJRYU6PBY36QDK4792G0SAA96&tp_b=3IQ1VMJRYU6PBY36QDK4792G0SAA96&c=365799&tp_c=365799","firstResponseHeads":8,"firstResponseTails":2,"secondResponseHeads":8,"secondResponseTails":3,"totalHeads":16,"totalTails":5,"studentIndex":21,"studentTrueHypers":{"a":2,"b":8},"studentGuess":0.5806451612903226,"delta":0.21935483870967742,"bonus":0,"bonusSoFar":0.76,"totalExamples":21},{"rt":33247,"response":{"heads":"2","tails":"10"},"type":"response","condition":"seqNoFeedback","trueTheta":0.2,"classrooms":["A","B"],"studentTrueClassroom":"A","exampleSet":"first","trial_type":"survey-html-form","trial_index":183,"time_elapsed":2594221,"internal_node_id":"0.0-173.0-0.0","params":{"nStudents":24,"maxFlips":30,"completionMinutes":45,"basePay":8,"maxBonus":9,"perTrialBonus":0.5,"perTrialBonusThreshold":0.05,"exampleCost":0.01},"classroomParams":{"A":{"a":1,"b":4},"B":{"a":4,"b":1},"C":{"a":2,"b":8},"D":{"a":8,"b":2}},"conditions":["nonSeqFull","nonSeqPartial","seqNoFeedback","seqFeedback"],"classroomPairings":[["A","B"],["C","D"]],"coinWeights":[0.2,0.5,0.8],"subjectId":"A16G6PPH1INQL8","assignmentId":"3IQ1VMJRYU6PBY36QDK4792G0SAA96","hitId":"32TZXEA1OL6QYKM0MXQIQH2ABHN14I","url":"https://gershmanlab.com/experiments/alicia/teaching/experiment/?hitId=32TZXEA1OL6QYKM0MXQIQH2ABHN14I&workerId=A16G6PPH1INQL8&assignmentId=3IQ1VMJRYU6PBY36QDK4792G0SAA96&a=RVQI9&tp_a=RVQI9&b=3IQ1VMJRYU6PBY36QDK4792G0SAA96&tp_b=3IQ1VMJRYU6PBY36QDK4792G0SAA96&c=365799&tp_c=365799","heads":2,"tails":10,"studentIndex":22,"studentTrueHypers":{"a":1,"b":4},"studentGuess":0.17647058823529413,"delta":0.023529411764705882,"totalExamples":12,"bonusSoFar":0.76},{"rt":12179,"response":{"heads":"2","tails":"10"},"type":"response","condition":"seqNoFeedback","trueTheta":0.2,"classrooms":["A","B"],"studentTrueClassroom":"A","exampleSet":"second","trial_type":"survey-html-form","trial_index":186,"time_elapsed":2612427,"internal_node_id":"0.0-176.0-0.0","params":{"nStudents":24,"maxFlips":30,"completionMinutes":45,"basePay":8,"maxBonus":9,"perTrialBonus":0.5,"perTrialBonusThreshold":0.05,"exampleCost":0.01},"classroomParams":{"A":{"a":1,"b":4},"B":{"a":4,"b":1},"C":{"a":2,"b":8},"D":{"a":8,"b":2}},"conditions":["nonSeqFull","nonSeqPartial","seqNoFeedback","seqFeedback"],"classroomPairings":[["A","B"],["C","D"]],"coinWeights":[0.2,0.5,0.8],"subjectId":"A16G6PPH1INQL8","assignmentId":"3IQ1VMJRYU6PBY36QDK4792G0SAA96","hitId":"32TZXEA1OL6QYKM0MXQIQH2ABHN14I","url":"https://gershmanlab.com/experiments/alicia/teaching/experiment/?hitId=32TZXEA1OL6QYKM0MXQIQH2ABHN14I&workerId=A16G6PPH1INQL8&assignmentId=3IQ1VMJRYU6PBY36QDK4792G0SAA96&a=RVQI9&tp_a=RVQI9&b=3IQ1VMJRYU6PBY36QDK4792G0SAA96&tp_b=3IQ1VMJRYU6PBY36QDK4792G0SAA96&c=365799&tp_c=365799","firstResponseHeads":2,"firstResponseTails":10,"secondResponseHeads":2,"secondResponseTails":10,"totalHeads":4,"totalTails":20,"studentIndex":22,"studentTrueHypers":{"a":1,"b":4},"studentGuess":0.1724137931034483,"delta":0.027586206896551724,"bonus":0.26,"bonusSoFar":1.02,"totalExamples":24},{"rt":12041,"response":{"heads":"8","tails":"1"},"type":"response","condition":"seqFeedback","trueTheta":0.8,"classrooms":["A","B"],"studentTrueClassroom":"B","exampleSet":"first","trial_type":"survey-html-form","trial_index":192,"time_elapsed":2643641,"internal_node_id":"0.0-182.0-0.0","params":{"nStudents":24,"maxFlips":30,"completionMinutes":45,"basePay":8,"maxBonus":9,"perTrialBonus":0.5,"perTrialBonusThreshold":0.05,"exampleCost":0.01},"classroomParams":{"A":{"a":1,"b":4},"B":{"a":4,"b":1},"C":{"a":2,"b":8},"D":{"a":8,"b":2}},"conditions":["nonSeqFull","nonSeqPartial","seqNoFeedback","seqFeedback"],"classroomPairings":[["A","B"],["C","D"]],"coinWeights":[0.2,0.5,0.8],"subjectId":"A16G6PPH1INQL8","assignmentId":"3IQ1VMJRYU6PBY36QDK4792G0SAA96","hitId":"32TZXEA1OL6QYKM0MXQIQH2ABHN14I","url":"https://gershmanlab.com/experiments/alicia/teaching/experiment/?hitId=32TZXEA1OL6QYKM0MXQIQH2ABHN14I&workerId=A16G6PPH1INQL8&assignmentId=3IQ1VMJRYU6PBY36QDK4792G0SAA96&a=RVQI9&tp_a=RVQI9&b=3IQ1VMJRYU6PBY36QDK4792G0SAA96&tp_b=3IQ1VMJRYU6PBY36QDK4792G0SAA96&c=365799&tp_c=365799","heads":8,"tails":1,"studentIndex":23,"studentTrueHypers":{"a":4,"b":1},"studentGuess":0.8571428571428571,"delta":0.05714285714285705,"totalExamples":9,"bonusSoFar":1.02},{"rt":8278,"response":{"heads":"8","tails":"1"},"type":"response","condition":"seqFeedback","trueTheta":0.8,"classrooms":["A","B"],"studentTrueClassroom":"B","exampleSet":"second","trial_type":"survey-html-form","trial_index":196,"time_elapsed":2663083,"internal_node_id":"0.0-186.0-0.0","params":{"nStudents":24,"maxFlips":30,"completionMinutes":45,"basePay":8,"maxBonus":9,"perTrialBonus":0.5,"perTrialBonusThreshold":0.05,"exampleCost":0.01},"classroomParams":{"A":{"a":1,"b":4},"B":{"a":4,"b":1},"C":{"a":2,"b":8},"D":{"a":8,"b":2}},"conditions":["nonSeqFull","nonSeqPartial","seqNoFeedback","seqFeedback"],"classroomPairings":[["A","B"],["C","D"]],"coinWeights":[0.2,0.5,0.8],"subjectId":"A16G6PPH1INQL8","assignmentId":"3IQ1VMJRYU6PBY36QDK4792G0SAA96","hitId":"32TZXEA1OL6QYKM0MXQIQH2ABHN14I","url":"https://gershmanlab.com/experiments/alicia/teaching/experiment/?hitId=32TZXEA1OL6QYKM0MXQIQH2ABHN14I&workerId=A16G6PPH1INQL8&assignmentId=3IQ1VMJRYU6PBY36QDK4792G0SAA96&a=RVQI9&tp_a=RVQI9&b=3IQ1VMJRYU6PBY36QDK4792G0SAA96&tp_b=3IQ1VMJRYU6PBY36QDK4792G0SAA96&c=365799&tp_c=365799","firstResponseHeads":8,"firstResponseTails":1,"secondResponseHeads":8,"secondResponseTails":1,"totalHeads":16,"totalTails":2,"studentIndex":23,"studentTrueHypers":{"a":4,"b":1},"studentGuess":0.8695652173913043,"delta":0.06956521739130428,"bonus":0,"bonusSoFar":1.02,"totalExamples":18},{"rt":289861,"response":{"gender":"female","age":"54","understood":"yes","comments":"I felt like I understood the instructions, but when it came to giving examples, I really struggled understanding what would help the students.  Maybe if we say some example rounds with numbers showing how they influenced the students, it might help a little.  Thank you!"},"type":"response","trial_type":"survey-html-form","trial_index":200,"time_elapsed":2967261,"internal_node_id":"0.0-191.0","params":{"nStudents":24,"maxFlips":30,"completionMinutes":45,"basePay":8,"maxBonus":9,"perTrialBonus":0.5,"perTrialBonusThreshold":0.05,"exampleCost":0.01},"classroomParams":{"A":{"a":1,"b":4},"B":{"a":4,"b":1},"C":{"a":2,"b":8},"D":{"a":8,"b":2}},"conditions":["nonSeqFull","nonSeqPartial","seqNoFeedback","seqFeedback"],"classroomPairings":[["A","B"],["C","D"]],"coinWeights":[0.2,0.5,0.8],"subjectId":"A16G6PPH1INQL8","assignmentId":"3IQ1VMJRYU6PBY36QDK4792G0SAA96","hitId":"32TZXEA1OL6QYKM0MXQIQH2ABHN14I","url":"https://gershmanlab.com/experiments/alicia/teaching/experiment/?hitId=32TZXEA1OL6QYKM0MXQIQH2ABHN14I&workerId=A16G6PPH1INQL8&assignmentId=3IQ1VMJRYU6PBY36QDK4792G0SAA96&a=RVQI9&tp_a=RVQI9&b=3IQ1VMJRYU6PBY36QDK4792G0SAA96&tp_b=3IQ1VMJRYU6PBY36QDK4792G0SAA96&c=365799&tp_c=365799","totalBonus":1.02}]