[{"rt":110735,"response":{"heads":"15","tails":"15"},"type":"response","condition":"nonSeqFull","trueTheta":0.5,"classrooms":["C","D"],"studentTrueClassroom":"C","exampleSet":"first","trial_type":"survey-html-form","trial_index":10,"time_elapsed":1726947,"internal_node_id":"0.0-6.0-0.0","params":{"nStudents":24,"maxFlips":30,"completionMinutes":45,"basePay":8,"maxBonus":9,"perTrialBonus":0.5,"perTrialBonusThreshold":0.05,"exampleCost":0.01},"classroomParams":{"A":{"a":1,"b":4},"B":{"a":4,"b":1},"C":{"a":2,"b":8},"D":{"a":8,"b":2}},"conditions":["nonSeqFull","nonSeqPartial","seqNoFeedback","seqFeedback"],"classroomPairings":[["A","B"],["C","D"]],"coinWeights":[0.2,0.5,0.8],"subjectId":"A1969Q0R4Y0E3J","assignmentId":"3TEM0PF1Q6J5DBI5ARSD4Z9TIRDD0Z","hitId":"3AQN9REUTF20OMGWRXYK787QVFOYDP","url":"https://gershmanlab.com/experiments/alicia/teaching/experiment/?hitId=3AQN9REUTF20OMGWRXYK787QVFOYDP&workerId=A1969Q0R4Y0E3J&assignmentId=3TEM0PF1Q6J5DBI5ARSD4Z9TIRDD0Z&a=10ET9&tp_a=10ET9&b=3TEM0PF1Q6J5DBI5ARSD4Z9TIRDD0Z&tp_b=3TEM0PF1Q6J5DBI5ARSD4Z9TIRDD0Z&c=365799&tp_c=365799","heads":15,"tails":15,"studentIndex":0,"studentTrueHypers":{"a":2,"b":8},"studentGuess":0.425,"delta":0.07500000000000001,"totalExamples":30,"bonus":0,"bonusSoFar":0},{"rt":24160,"response":{"heads":"15","tails":"15"},"type":"response","condition":"seqFeedback","trueTheta":0.5,"classrooms":["A","B"],"studentTrueClassroom":"A","exampleSet":"first","trial_type":"survey-html-form","trial_index":16,"time_elapsed":1784338,"internal_node_id":"0.0-12.0-0.0","params":{"nStudents":24,"maxFlips":30,"completionMinutes":45,"basePay":8,"maxBonus":9,"perTrialBonus":0.5,"perTrialBonusThreshold":0.05,"exampleCost":0.01},"classroomParams":{"A":{"a":1,"b":4},"B":{"a":4,"b":1},"C":{"a":2,"b":8},"D":{"a":8,"b":2}},"conditions":["nonSeqFull","nonSeqPartial","seqNoFeedback","seqFeedback"],"classroomPairings":[["A","B"],["C","D"]],"coinWeights":[0.2,0.5,0.8],"subjectId":"A1969Q0R4Y0E3J","assignmentId":"3TEM0PF1Q6J5DBI5ARSD4Z9TIRDD0Z","hitId":"3AQN9REUTF20OMGWRXYK787QVFOYDP","url":"https://gershmanlab.com/experiments/alicia/teaching/experiment/?hitId=3AQN9REUTF20OMGWRXYK787QVFOYDP&workerId=A1969Q0R4Y0E3J&assignmentId=3TEM0PF1Q6J5DBI5ARSD4Z9TIRDD0Z&a=10ET9&tp_a=10ET9&b=3TEM0PF1Q6J5DBI5ARSD4Z9TIRDD0Z&tp_b=3TEM0PF1Q6J5DBI5ARSD4Z9TIRDD0Z&c=365799&tp_c=365799","heads":15,"tails":15,"studentIndex":1,"studentTrueHypers":{"a":1,"b":4},"studentGuess":0.45714285714285713,"delta":0.04285714285714287,"totalExamples":30,"bonusSoFar":0},{"rt":27696,"response":{"heads":"18","tails":"12"},"type":"response","condition":"seqFeedback","trueTheta":0.5,"classrooms":["A","B"],"studentTrueClassroom":"A","exampleSet":"second","trial_type":"survey-html-form","trial_index":20,"time_elapsed":1825401,"internal_node_id":"0.0-16.0-0.0","params":{"nStudents":24,"maxFlips":30,"completionMinutes":45,"basePay":8,"maxBonus":9,"perTrialBonus":0.5,"perTrialBonusThreshold":0.05,"exampleCost":0.01},"classroomParams":{"A":{"a":1,"b":4},"B":{"a":4,"b":1},"C":{"a":2,"b":8},"D":{"a":8,"b":2}},"conditions":["nonSeqFull","nonSeqPartial","seqNoFeedback","seqFeedback"],"classroomPairings":[["A","B"],["C","D"]],"coinWeights":[0.2,0.5,0.8],"subjectId":"A1969Q0R4Y0E3J","assignmentId":"3TEM0PF1Q6J5DBI5ARSD4Z9TIRDD0Z","hitId":"3AQN9REUTF20OMGWRXYK787QVFOYDP","url":"https://gershmanlab.com/experiments/alicia/teaching/experiment/?hitId=3AQN9REUTF20OMGWRXYK787QVFOYDP&workerId=A1969Q0R4Y0E3J&assignmentId=3TEM0PF1Q6J5DBI5ARSD4Z9TIRDD0Z&a=10ET9&tp_a=10ET9&b=3TEM0PF1Q6J5DBI5ARSD4Z9TIRDD0Z&tp_b=3TEM0PF1Q6J5DBI5ARSD4Z9TIRDD0Z&c=365799&tp_c=365799","firstResponseHeads":15,"firstResponseTails":15,"secondResponseHeads":18,"secondResponseTails":12,"totalHeads":33,"totalTails":27,"studentIndex":1,"studentTrueHypers":{"a":1,"b":4},"studentGuess":0.5230769230769231,"delta":0.023076923076923106,"bonus":0,"bonusSoFar":0,"totalExamples":60},{"rt":10737,"response":{"heads":"15","tails":"15"},"type":"response","condition":"nonSeqPartial","trueTheta":0.5,"classrooms":["C","D"],"studentTrueClassroom":"C","exampleSet":"first","trial_type":"survey-html-form","trial_index":26,"time_elapsed":1855976,"internal_node_id":"0.0-22.0-0.0","params":{"nStudents":24,"maxFlips":30,"completionMinutes":45,"basePay":8,"maxBonus":9,"perTrialBonus":0.5,"perTrialBonusThreshold":0.05,"exampleCost":0.01},"classroomParams":{"A":{"a":1,"b":4},"B":{"a":4,"b":1},"C":{"a":2,"b":8},"D":{"a":8,"b":2}},"conditions":["nonSeqFull","nonSeqPartial","seqNoFeedback","seqFeedback"],"classroomPairings":[["A","B"],["C","D"]],"coinWeights":[0.2,0.5,0.8],"subjectId":"A1969Q0R4Y0E3J","assignmentId":"3TEM0PF1Q6J5DBI5ARSD4Z9TIRDD0Z","hitId":"3AQN9REUTF20OMGWRXYK787QVFOYDP","url":"https://gershmanlab.com/experiments/alicia/teaching/experiment/?hitId=3AQN9REUTF20OMGWRXYK787QVFOYDP&workerId=A1969Q0R4Y0E3J&assignmentId=3TEM0PF1Q6J5DBI5ARSD4Z9TIRDD0Z&a=10ET9&tp_a=10ET9&b=3TEM0PF1Q6J5DBI5ARSD4Z9TIRDD0Z&tp_b=3TEM0PF1Q6J5DBI5ARSD4Z9TIRDD0Z&c=365799&tp_c=365799","heads":15,"tails":15,"studentIndex":2,"studentTrueHypers":{"a":2,"b":8},"studentGuess":0.425,"delta":0.07500000000000001,"totalExamples":30,"bonus":0,"bonusSoFar":0},{"rt":12138,"response":{"heads":"8","tails":"22"},"type":"response","condition":"seqFeedback","trueTheta":0.2,"classrooms":["C","D"],"studentTrueClassroom":"C","exampleSet":"first","trial_type":"survey-html-form","trial_index":32,"time_elapsed":1892173,"internal_node_id":"0.0-28.0-0.0","params":{"nStudents":24,"maxFlips":30,"completionMinutes":45,"basePay":8,"maxBonus":9,"perTrialBonus":0.5,"perTrialBonusThreshold":0.05,"exampleCost":0.01},"classroomParams":{"A":{"a":1,"b":4},"B":{"a":4,"b":1},"C":{"a":2,"b":8},"D":{"a":8,"b":2}},"conditions":["nonSeqFull","nonSeqPartial","seqNoFeedback","seqFeedback"],"classroomPairings":[["A","B"],["C","D"]],"coinWeights":[0.2,0.5,0.8],"subjectId":"A1969Q0R4Y0E3J","assignmentId":"3TEM0PF1Q6J5DBI5ARSD4Z9TIRDD0Z","hitId":"3AQN9REUTF20OMGWRXYK787QVFOYDP","url":"https://gershmanlab.com/experiments/alicia/teaching/experiment/?hitId=3AQN9REUTF20OMGWRXYK787QVFOYDP&workerId=A1969Q0R4Y0E3J&assignmentId=3TEM0PF1Q6J5DBI5ARSD4Z9TIRDD0Z&a=10ET9&tp_a=10ET9&b=3TEM0PF1Q6J5DBI5ARSD4Z9TIRDD0Z&tp_b=3TEM0PF1Q6J5DBI5ARSD4Z9TIRDD0Z&c=365799&tp_c=365799","heads":8,"tails":22,"studentIndex":3,"studentTrueHypers":{"a":2,"b":8},"studentGuess":0.25,"delta":0.04999999999999999,"totalExamples":30,"bonusSoFar":0},{"rt":11336,"response":{"heads":"6","tails":"24"},"type":"response","condition":"seqFeedback","trueTheta":0.2,"classrooms":["C","D"],"studentTrueClassroom":"C","exampleSet":"second","trial_type":"survey-html-form","trial_index":36,"time_elapsed":1915459,"internal_node_id":"0.0-32.0-0.0","params":{"nStudents":24,"maxFlips":30,"completionMinutes":45,"basePay":8,"maxBonus":9,"perTrialBonus":0.5,"perTrialBonusThreshold":0.05,"exampleCost":0.01},"classroomParams":{"A":{"a":1,"b":4},"B":{"a":4,"b":1},"C":{"a":2,"b":8},"D":{"a":8,"b":2}},"conditions":["nonSeqFull","nonSeqPartial","seqNoFeedback","seqFeedback"],"classroomPairings":[["A","B"],["C","D"]],"coinWeights":[0.2,0.5,0.8],"subjectId":"A1969Q0R4Y0E3J","assignmentId":"3TEM0PF1Q6J5DBI5ARSD4Z9TIRDD0Z","hitId":"3AQN9REUTF20OMGWRXYK787QVFOYDP","url":"https://gershmanlab.com/experiments/alicia/teaching/experiment/?hitId=3AQN9REUTF20OMGWRXYK787QVFOYDP&workerId=A1969Q0R4Y0E3J&assignmentId=3TEM0PF1Q6J5DBI5ARSD4Z9TIRDD0Z&a=10ET9&tp_a=10ET9&b=3TEM0PF1Q6J5DBI5ARSD4Z9TIRDD0Z&tp_b=3TEM0PF1Q6J5DBI5ARSD4Z9TIRDD0Z&c=365799&tp_c=365799","firstResponseHeads":8,"firstResponseTails":22,"secondResponseHeads":6,"secondResponseTails":24,"totalHeads":14,"totalTails":46,"studentIndex":3,"studentTrueHypers":{"a":2,"b":8},"studentGuess":0.22857142857142856,"delta":0.028571428571428553,"bonus":0,"bonusSoFar":0,"totalExamples":60},{"rt":16047,"response":{"heads":"14","tails":"16"},"type":"response","condition":"seqNoFeedback","trueTheta":0.5,"classrooms":["C","D"],"studentTrueClassroom":"C","exampleSet":"first","trial_type":"survey-html-form","trial_index":42,"time_elapsed":1947110,"internal_node_id":"0.0-38.0-0.0","params":{"nStudents":24,"maxFlips":30,"completionMinutes":45,"basePay":8,"maxBonus":9,"perTrialBonus":0.5,"perTrialBonusThreshold":0.05,"exampleCost":0.01},"classroomParams":{"A":{"a":1,"b":4},"B":{"a":4,"b":1},"C":{"a":2,"b":8},"D":{"a":8,"b":2}},"conditions":["nonSeqFull","nonSeqPartial","seqNoFeedback","seqFeedback"],"classroomPairings":[["A","B"],["C","D"]],"coinWeights":[0.2,0.5,0.8],"subjectId":"A1969Q0R4Y0E3J","assignmentId":"3TEM0PF1Q6J5DBI5ARSD4Z9TIRDD0Z","hitId":"3AQN9REUTF20OMGWRXYK787QVFOYDP","url":"https://gershmanlab.com/experiments/alicia/teaching/experiment/?hitId=3AQN9REUTF20OMGWRXYK787QVFOYDP&workerId=A1969Q0R4Y0E3J&assignmentId=3TEM0PF1Q6J5DBI5ARSD4Z9TIRDD0Z&a=10ET9&tp_a=10ET9&b=3TEM0PF1Q6J5DBI5ARSD4Z9TIRDD0Z&tp_b=3TEM0PF1Q6J5DBI5ARSD4Z9TIRDD0Z&c=365799&tp_c=365799","heads":14,"tails":16,"studentIndex":4,"studentTrueHypers":{"a":2,"b":8},"studentGuess":0.4,"delta":0.09999999999999998,"totalExamples":30,"bonusSoFar":0},{"rt":39802,"response":{"heads":"2","tails":"2"},"type":"response","condition":"seqNoFeedback","trueTheta":0.5,"classrooms":["C","D"],"studentTrueClassroom":"C","exampleSet":"second","trial_type":"survey-html-form","trial_index":45,"time_elapsed":1993689,"internal_node_id":"0.0-41.0-0.0","params":{"nStudents":24,"maxFlips":30,"completionMinutes":45,"basePay":8,"maxBonus":9,"perTrialBonus":0.5,"perTrialBonusThreshold":0.05,"exampleCost":0.01},"classroomParams":{"A":{"a":1,"b":4},"B":{"a":4,"b":1},"C":{"a":2,"b":8},"D":{"a":8,"b":2}},"conditions":["nonSeqFull","nonSeqPartial","seqNoFeedback","seqFeedback"],"classroomPairings":[["A","B"],["C","D"]],"coinWeights":[0.2,0.5,0.8],"subjectId":"A1969Q0R4Y0E3J","assignmentId":"3TEM0PF1Q6J5DBI5ARSD4Z9TIRDD0Z","hitId":"3AQN9REUTF20OMGWRXYK787QVFOYDP","url":"https://gershmanlab.com/experiments/alicia/teaching/experiment/?hitId=3AQN9REUTF20OMGWRXYK787QVFOYDP&workerId=A1969Q0R4Y0E3J&assignmentId=3TEM0PF1Q6J5DBI5ARSD4Z9TIRDD0Z&a=10ET9&tp_a=10ET9&b=3TEM0PF1Q6J5DBI5ARSD4Z9TIRDD0Z&tp_b=3TEM0PF1Q6J5DBI5ARSD4Z9TIRDD0Z&c=365799&tp_c=365799","firstResponseHeads":14,"firstResponseTails":16,"secondResponseHeads":2,"secondResponseTails":2,"totalHeads":16,"totalTails":18,"studentIndex":4,"studentTrueHypers":{"a":2,"b":8},"studentGuess":0.4090909090909091,"delta":0.09090909090909088,"bonus":0,"bonusSoFar":0,"totalExamples":34},{"rt":18186,"response":{"heads":"1","tails":"3"},"type":"response","condition":"seqFeedback","trueTheta":0.2,"classrooms":["A","B"],"studentTrueClassroom":"A","exampleSet":"first","trial_type":"survey-html-form","trial_index":51,"time_elapsed":2026333,"internal_node_id":"0.0-47.0-0.0","params":{"nStudents":24,"maxFlips":30,"completionMinutes":45,"basePay":8,"maxBonus":9,"perTrialBonus":0.5,"perTrialBonusThreshold":0.05,"exampleCost":0.01},"classroomParams":{"A":{"a":1,"b":4},"B":{"a":4,"b":1},"C":{"a":2,"b":8},"D":{"a":8,"b":2}},"conditions":["nonSeqFull","nonSeqPartial","seqNoFeedback","seqFeedback"],"classroomPairings":[["A","B"],["C","D"]],"coinWeights":[0.2,0.5,0.8],"subjectId":"A1969Q0R4Y0E3J","assignmentId":"3TEM0PF1Q6J5DBI5ARSD4Z9TIRDD0Z","hitId":"3AQN9REUTF20OMGWRXYK787QVFOYDP","url":"https://gershmanlab.com/experiments/alicia/teaching/experiment/?hitId=3AQN9REUTF20OMGWRXYK787QVFOYDP&workerId=A1969Q0R4Y0E3J&assignmentId=3TEM0PF1Q6J5DBI5ARSD4Z9TIRDD0Z&a=10ET9&tp_a=10ET9&b=3TEM0PF1Q6J5DBI5ARSD4Z9TIRDD0Z&tp_b=3TEM0PF1Q6J5DBI5ARSD4Z9TIRDD0Z&c=365799&tp_c=365799","heads":1,"tails":3,"studentIndex":5,"studentTrueHypers":{"a":1,"b":4},"studentGuess":0.2222222222222222,"delta":0.0222222222222222,"totalExamples":4,"bonusSoFar":0},{"rt":13808,"response":{"heads":"1","tails":"2"},"type":"response","condition":"seqFeedback","trueTheta":0.2,"classrooms":["A","B"],"studentTrueClassroom":"A","exampleSet":"second","trial_type":"survey-html-form","trial_index":55,"time_elapsed":2050822,"internal_node_id":"0.0-51.0-0.0","params":{"nStudents":24,"maxFlips":30,"completionMinutes":45,"basePay":8,"maxBonus":9,"perTrialBonus":0.5,"perTrialBonusThreshold":0.05,"exampleCost":0.01},"classroomParams":{"A":{"a":1,"b":4},"B":{"a":4,"b":1},"C":{"a":2,"b":8},"D":{"a":8,"b":2}},"conditions":["nonSeqFull","nonSeqPartial","seqNoFeedback","seqFeedback"],"classroomPairings":[["A","B"],["C","D"]],"coinWeights":[0.2,0.5,0.8],"subjectId":"A1969Q0R4Y0E3J","assignmentId":"3TEM0PF1Q6J5DBI5ARSD4Z9TIRDD0Z","hitId":"3AQN9REUTF20OMGWRXYK787QVFOYDP","url":"https://gershmanlab.com/experiments/alicia/teaching/experiment/?hitId=3AQN9REUTF20OMGWRXYK787QVFOYDP&workerId=A1969Q0R4Y0E3J&assignmentId=3TEM0PF1Q6J5DBI5ARSD4Z9TIRDD0Z&a=10ET9&tp_a=10ET9&b=3TEM0PF1Q6J5DBI5ARSD4Z9TIRDD0Z&tp_b=3TEM0PF1Q6J5DBI5ARSD4Z9TIRDD0Z&c=365799&tp_c=365799","firstResponseHeads":1,"firstResponseTails":3,"secondResponseHeads":1,"secondResponseTails":2,"totalHeads":2,"totalTails":5,"studentIndex":5,"studentTrueHypers":{"a":1,"b":4},"studentGuess":0.25,"delta":0.04999999999999999,"bonus":0.43,"bonusSoFar":0.43,"totalExamples":7},{"rt":12348,"response":{"heads":"8","tails":"2"},"type":"response","condition":"nonSeqPartial","trueTheta":0.8,"classrooms":["C","D"],"studentTrueClassroom":"D","exampleSet":"first","trial_type":"survey-html-form","trial_index":61,"time_elapsed":2139291,"internal_node_id":"0.0-57.0-0.0","params":{"nStudents":24,"maxFlips":30,"completionMinutes":45,"basePay":8,"maxBonus":9,"perTrialBonus":0.5,"perTrialBonusThreshold":0.05,"exampleCost":0.01},"classroomParams":{"A":{"a":1,"b":4},"B":{"a":4,"b":1},"C":{"a":2,"b":8},"D":{"a":8,"b":2}},"conditions":["nonSeqFull","nonSeqPartial","seqNoFeedback","seqFeedback"],"classroomPairings":[["A","B"],["C","D"]],"coinWeights":[0.2,0.5,0.8],"subjectId":"A1969Q0R4Y0E3J","assignmentId":"3TEM0PF1Q6J5DBI5ARSD4Z9TIRDD0Z","hitId":"3AQN9REUTF20OMGWRXYK787QVFOYDP","url":"https://gershmanlab.com/experiments/alicia/teaching/experiment/?hitId=3AQN9REUTF20OMGWRXYK787QVFOYDP&workerId=A1969Q0R4Y0E3J&assignmentId=3TEM0PF1Q6J5DBI5ARSD4Z9TIRDD0Z&a=10ET9&tp_a=10ET9&b=3TEM0PF1Q6J5DBI5ARSD4Z9TIRDD0Z&tp_b=3TEM0PF1Q6J5DBI5ARSD4Z9TIRDD0Z&c=365799&tp_c=365799","heads":8,"tails":2,"studentIndex":6,"studentTrueHypers":{"a":8,"b":2},"studentGuess":0.8,"delta":0,"totalExamples":10,"bonus":0.4,"bonusSoFar":0.83},{"rt":21193,"response":{"heads":"4","tails":"1"},"type":"response","condition":"seqFeedback","trueTheta":0.8,"classrooms":["A","B"],"studentTrueClassroom":"B","exampleSet":"first","trial_type":"survey-html-form","trial_index":67,"time_elapsed":2373434,"internal_node_id":"0.0-63.0-0.0","params":{"nStudents":24,"maxFlips":30,"completionMinutes":45,"basePay":8,"maxBonus":9,"perTrialBonus":0.5,"perTrialBonusThreshold":0.05,"exampleCost":0.01},"classroomParams":{"A":{"a":1,"b":4},"B":{"a":4,"b":1},"C":{"a":2,"b":8},"D":{"a":8,"b":2}},"conditions":["nonSeqFull","nonSeqPartial","seqNoFeedback","seqFeedback"],"classroomPairings":[["A","B"],["C","D"]],"coinWeights":[0.2,0.5,0.8],"subjectId":"A1969Q0R4Y0E3J","assignmentId":"3TEM0PF1Q6J5DBI5ARSD4Z9TIRDD0Z","hitId":"3AQN9REUTF20OMGWRXYK787QVFOYDP","url":"https://gershmanlab.com/experiments/alicia/teaching/experiment/?hitId=3AQN9REUTF20OMGWRXYK787QVFOYDP&workerId=A1969Q0R4Y0E3J&assignmentId=3TEM0PF1Q6J5DBI5ARSD4Z9TIRDD0Z&a=10ET9&tp_a=10ET9&b=3TEM0PF1Q6J5DBI5ARSD4Z9TIRDD0Z&tp_b=3TEM0PF1Q6J5DBI5ARSD4Z9TIRDD0Z&c=365799&tp_c=365799","heads":4,"tails":1,"studentIndex":7,"studentTrueHypers":{"a":4,"b":1},"studentGuess":0.8,"delta":0,"totalExamples":5,"bonusSoFar":0.83},{"rt":16677,"response":{"heads":"4","tails":"1"},"type":"response","condition":"seqFeedback","trueTheta":0.8,"classrooms":["A","B"],"studentTrueClassroom":"B","exampleSet":"second","trial_type":"survey-html-form","trial_index":71,"time_elapsed":2399063,"internal_node_id":"0.0-67.0-0.0","params":{"nStudents":24,"maxFlips":30,"completionMinutes":45,"basePay":8,"maxBonus":9,"perTrialBonus":0.5,"perTrialBonusThreshold":0.05,"exampleCost":0.01},"classroomParams":{"A":{"a":1,"b":4},"B":{"a":4,"b":1},"C":{"a":2,"b":8},"D":{"a":8,"b":2}},"conditions":["nonSeqFull","nonSeqPartial","seqNoFeedback","seqFeedback"],"classroomPairings":[["A","B"],["C","D"]],"coinWeights":[0.2,0.5,0.8],"subjectId":"A1969Q0R4Y0E3J","assignmentId":"3TEM0PF1Q6J5DBI5ARSD4Z9TIRDD0Z","hitId":"3AQN9REUTF20OMGWRXYK787QVFOYDP","url":"https://gershmanlab.com/experiments/alicia/teaching/experiment/?hitId=3AQN9REUTF20OMGWRXYK787QVFOYDP&workerId=A1969Q0R4Y0E3J&assignmentId=3TEM0PF1Q6J5DBI5ARSD4Z9TIRDD0Z&a=10ET9&tp_a=10ET9&b=3TEM0PF1Q6J5DBI5ARSD4Z9TIRDD0Z&tp_b=3TEM0PF1Q6J5DBI5ARSD4Z9TIRDD0Z&c=365799&tp_c=365799","firstResponseHeads":4,"firstResponseTails":1,"secondResponseHeads":4,"secondResponseTails":1,"totalHeads":8,"totalTails":2,"studentIndex":7,"studentTrueHypers":{"a":4,"b":1},"studentGuess":0.8,"delta":0,"bonus":0.4,"bonusSoFar":1.23,"totalExamples":10},{"rt":6518,"response":{"heads":"2","tails":"2"},"type":"response","condition":"seqNoFeedback","trueTheta":0.5,"classrooms":["A","B"],"studentTrueClassroom":"B","exampleSet":"first","trial_type":"survey-html-form","trial_index":77,"time_elapsed":2421885,"internal_node_id":"0.0-73.0-0.0","params":{"nStudents":24,"maxFlips":30,"completionMinutes":45,"basePay":8,"maxBonus":9,"perTrialBonus":0.5,"perTrialBonusThreshold":0.05,"exampleCost":0.01},"classroomParams":{"A":{"a":1,"b":4},"B":{"a":4,"b":1},"C":{"a":2,"b":8},"D":{"a":8,"b":2}},"conditions":["nonSeqFull","nonSeqPartial","seqNoFeedback","seqFeedback"],"classroomPairings":[["A","B"],["C","D"]],"coinWeights":[0.2,0.5,0.8],"subjectId":"A1969Q0R4Y0E3J","assignmentId":"3TEM0PF1Q6J5DBI5ARSD4Z9TIRDD0Z","hitId":"3AQN9REUTF20OMGWRXYK787QVFOYDP","url":"https://gershmanlab.com/experiments/alicia/teaching/experiment/?hitId=3AQN9REUTF20OMGWRXYK787QVFOYDP&workerId=A1969Q0R4Y0E3J&assignmentId=3TEM0PF1Q6J5DBI5ARSD4Z9TIRDD0Z&a=10ET9&tp_a=10ET9&b=3TEM0PF1Q6J5DBI5ARSD4Z9TIRDD0Z&tp_b=3TEM0PF1Q6J5DBI5ARSD4Z9TIRDD0Z&c=365799&tp_c=365799","heads":2,"tails":2,"studentIndex":8,"studentTrueHypers":{"a":4,"b":1},"studentGuess":0.6666666666666666,"delta":0.16666666666666663,"totalExamples":4,"bonusSoFar":1.23},{"rt":4777,"response":{"heads":"2","tails":"2"},"type":"response","condition":"seqNoFeedback","trueTheta":0.5,"classrooms":["A","B"],"studentTrueClassroom":"B","exampleSet":"second","trial_type":"survey-html-form","trial_index":80,"time_elapsed":2432927,"internal_node_id":"0.0-76.0-0.0","params":{"nStudents":24,"maxFlips":30,"completionMinutes":45,"basePay":8,"maxBonus":9,"perTrialBonus":0.5,"perTrialBonusThreshold":0.05,"exampleCost":0.01},"classroomParams":{"A":{"a":1,"b":4},"B":{"a":4,"b":1},"C":{"a":2,"b":8},"D":{"a":8,"b":2}},"conditions":["nonSeqFull","nonSeqPartial","seqNoFeedback","seqFeedback"],"classroomPairings":[["A","B"],["C","D"]],"coinWeights":[0.2,0.5,0.8],"subjectId":"A1969Q0R4Y0E3J","assignmentId":"3TEM0PF1Q6J5DBI5ARSD4Z9TIRDD0Z","hitId":"3AQN9REUTF20OMGWRXYK787QVFOYDP","url":"https://gershmanlab.com/experiments/alicia/teaching/experiment/?hitId=3AQN9REUTF20OMGWRXYK787QVFOYDP&workerId=A1969Q0R4Y0E3J&assignmentId=3TEM0PF1Q6J5DBI5ARSD4Z9TIRDD0Z&a=10ET9&tp_a=10ET9&b=3TEM0PF1Q6J5DBI5ARSD4Z9TIRDD0Z&tp_b=3TEM0PF1Q6J5DBI5ARSD4Z9TIRDD0Z&c=365799&tp_c=365799","firstResponseHeads":2,"firstResponseTails":2,"secondResponseHeads":2,"secondResponseTails":2,"totalHeads":4,"totalTails":4,"studentIndex":8,"studentTrueHypers":{"a":4,"b":1},"studentGuess":0.6153846153846154,"delta":0.11538461538461542,"bonus":0,"bonusSoFar":1.23,"totalExamples":8},{"rt":13850,"response":{"heads":"1","tails":"1"},"type":"response","condition":"nonSeqPartial","trueTheta":0.5,"classrooms":["A","B"],"studentTrueClassroom":"A","exampleSet":"first","trial_type":"survey-html-form","trial_index":86,"time_elapsed":2461233,"internal_node_id":"0.0-82.0-0.0","params":{"nStudents":24,"maxFlips":30,"completionMinutes":45,"basePay":8,"maxBonus":9,"perTrialBonus":0.5,"perTrialBonusThreshold":0.05,"exampleCost":0.01},"classroomParams":{"A":{"a":1,"b":4},"B":{"a":4,"b":1},"C":{"a":2,"b":8},"D":{"a":8,"b":2}},"conditions":["nonSeqFull","nonSeqPartial","seqNoFeedback","seqFeedback"],"classroomPairings":[["A","B"],["C","D"]],"coinWeights":[0.2,0.5,0.8],"subjectId":"A1969Q0R4Y0E3J","assignmentId":"3TEM0PF1Q6J5DBI5ARSD4Z9TIRDD0Z","hitId":"3AQN9REUTF20OMGWRXYK787QVFOYDP","url":"https://gershmanlab.com/experiments/alicia/teaching/experiment/?hitId=3AQN9REUTF20OMGWRXYK787QVFOYDP&workerId=A1969Q0R4Y0E3J&assignmentId=3TEM0PF1Q6J5DBI5ARSD4Z9TIRDD0Z&a=10ET9&tp_a=10ET9&b=3TEM0PF1Q6J5DBI5ARSD4Z9TIRDD0Z&tp_b=3TEM0PF1Q6J5DBI5ARSD4Z9TIRDD0Z&c=365799&tp_c=365799","heads":1,"tails":1,"studentIndex":9,"studentTrueHypers":{"a":1,"b":4},"studentGuess":0.2857142857142857,"delta":0.2142857142857143,"totalExamples":2,"bonus":0,"bonusSoFar":1.23},{"rt":13948,"response":{"heads":"2","tails":"2"},"type":"response","condition":"nonSeqFull","trueTheta":0.5,"classrooms":["A","B"],"studentTrueClassroom":"A","exampleSet":"first","trial_type":"survey-html-form","trial_index":92,"time_elapsed":2490367,"internal_node_id":"0.0-88.0-0.0","params":{"nStudents":24,"maxFlips":30,"completionMinutes":45,"basePay":8,"maxBonus":9,"perTrialBonus":0.5,"perTrialBonusThreshold":0.05,"exampleCost":0.01},"classroomParams":{"A":{"a":1,"b":4},"B":{"a":4,"b":1},"C":{"a":2,"b":8},"D":{"a":8,"b":2}},"conditions":["nonSeqFull","nonSeqPartial","seqNoFeedback","seqFeedback"],"classroomPairings":[["A","B"],["C","D"]],"coinWeights":[0.2,0.5,0.8],"subjectId":"A1969Q0R4Y0E3J","assignmentId":"3TEM0PF1Q6J5DBI5ARSD4Z9TIRDD0Z","hitId":"3AQN9REUTF20OMGWRXYK787QVFOYDP","url":"https://gershmanlab.com/experiments/alicia/teaching/experiment/?hitId=3AQN9REUTF20OMGWRXYK787QVFOYDP&workerId=A1969Q0R4Y0E3J&assignmentId=3TEM0PF1Q6J5DBI5ARSD4Z9TIRDD0Z&a=10ET9&tp_a=10ET9&b=3TEM0PF1Q6J5DBI5ARSD4Z9TIRDD0Z&tp_b=3TEM0PF1Q6J5DBI5ARSD4Z9TIRDD0Z&c=365799&tp_c=365799","heads":2,"tails":2,"studentIndex":10,"studentTrueHypers":{"a":1,"b":4},"studentGuess":0.3333333333333333,"delta":0.16666666666666669,"totalExamples":4,"bonus":0,"bonusSoFar":1.23},{"rt":14958,"response":{"heads":"2","tails":"8"},"type":"response","condition":"nonSeqPartial","trueTheta":0.2,"classrooms":["C","D"],"studentTrueClassroom":"D","exampleSet":"first","trial_type":"survey-html-form","trial_index":98,"time_elapsed":2518233,"internal_node_id":"0.0-94.0-0.0","params":{"nStudents":24,"maxFlips":30,"completionMinutes":45,"basePay":8,"maxBonus":9,"perTrialBonus":0.5,"perTrialBonusThreshold":0.05,"exampleCost":0.01},"classroomParams":{"A":{"a":1,"b":4},"B":{"a":4,"b":1},"C":{"a":2,"b":8},"D":{"a":8,"b":2}},"conditions":["nonSeqFull","nonSeqPartial","seqNoFeedback","seqFeedback"],"classroomPairings":[["A","B"],["C","D"]],"coinWeights":[0.2,0.5,0.8],"subjectId":"A1969Q0R4Y0E3J","assignmentId":"3TEM0PF1Q6J5DBI5ARSD4Z9TIRDD0Z","hitId":"3AQN9REUTF20OMGWRXYK787QVFOYDP","url":"https://gershmanlab.com/experiments/alicia/teaching/experiment/?hitId=3AQN9REUTF20OMGWRXYK787QVFOYDP&workerId=A1969Q0R4Y0E3J&assignmentId=3TEM0PF1Q6J5DBI5ARSD4Z9TIRDD0Z&a=10ET9&tp_a=10ET9&b=3TEM0PF1Q6J5DBI5ARSD4Z9TIRDD0Z&tp_b=3TEM0PF1Q6J5DBI5ARSD4Z9TIRDD0Z&c=365799&tp_c=365799","heads":2,"tails":8,"studentIndex":11,"studentTrueHypers":{"a":8,"b":2},"studentGuess":0.5,"delta":0.3,"totalExamples":10,"bonus":0,"bonusSoFar":1.23},{"rt":9041,"response":{"heads":"2","tails":"2"},"type":"response","condition":"seqFeedback","trueTheta":0.5,"classrooms":["C","D"],"studentTrueClassroom":"D","exampleSet":"first","trial_type":"survey-html-form","trial_index":104,"time_elapsed":2541899,"internal_node_id":"0.0-100.0-0.0","params":{"nStudents":24,"maxFlips":30,"completionMinutes":45,"basePay":8,"maxBonus":9,"perTrialBonus":0.5,"perTrialBonusThreshold":0.05,"exampleCost":0.01},"classroomParams":{"A":{"a":1,"b":4},"B":{"a":4,"b":1},"C":{"a":2,"b":8},"D":{"a":8,"b":2}},"conditions":["nonSeqFull","nonSeqPartial","seqNoFeedback","seqFeedback"],"classroomPairings":[["A","B"],["C","D"]],"coinWeights":[0.2,0.5,0.8],"subjectId":"A1969Q0R4Y0E3J","assignmentId":"3TEM0PF1Q6J5DBI5ARSD4Z9TIRDD0Z","hitId":"3AQN9REUTF20OMGWRXYK787QVFOYDP","url":"https://gershmanlab.com/experiments/alicia/teaching/experiment/?hitId=3AQN9REUTF20OMGWRXYK787QVFOYDP&workerId=A1969Q0R4Y0E3J&assignmentId=3TEM0PF1Q6J5DBI5ARSD4Z9TIRDD0Z&a=10ET9&tp_a=10ET9&b=3TEM0PF1Q6J5DBI5ARSD4Z9TIRDD0Z&tp_b=3TEM0PF1Q6J5DBI5ARSD4Z9TIRDD0Z&c=365799&tp_c=365799","heads":2,"tails":2,"studentIndex":12,"studentTrueHypers":{"a":8,"b":2},"studentGuess":0.7142857142857143,"delta":0.2142857142857143,"totalExamples":4,"bonusSoFar":1.23},{"rt":10743,"response":{"heads":"5","tails":"5"},"type":"response","condition":"seqFeedback","trueTheta":0.5,"classrooms":["C","D"],"studentTrueClassroom":"D","exampleSet":"second","trial_type":"survey-html-form","trial_index":108,"time_elapsed":2561129,"internal_node_id":"0.0-104.0-0.0","params":{"nStudents":24,"maxFlips":30,"completionMinutes":45,"basePay":8,"maxBonus":9,"perTrialBonus":0.5,"perTrialBonusThreshold":0.05,"exampleCost":0.01},"classroomParams":{"A":{"a":1,"b":4},"B":{"a":4,"b":1},"C":{"a":2,"b":8},"D":{"a":8,"b":2}},"conditions":["nonSeqFull","nonSeqPartial","seqNoFeedback","seqFeedback"],"classroomPairings":[["A","B"],["C","D"]],"coinWeights":[0.2,0.5,0.8],"subjectId":"A1969Q0R4Y0E3J","assignmentId":"3TEM0PF1Q6J5DBI5ARSD4Z9TIRDD0Z","hitId":"3AQN9REUTF20OMGWRXYK787QVFOYDP","url":"https://gershmanlab.com/experiments/alicia/teaching/experiment/?hitId=3AQN9REUTF20OMGWRXYK787QVFOYDP&workerId=A1969Q0R4Y0E3J&assignmentId=3TEM0PF1Q6J5DBI5ARSD4Z9TIRDD0Z&a=10ET9&tp_a=10ET9&b=3TEM0PF1Q6J5DBI5ARSD4Z9TIRDD0Z&tp_b=3TEM0PF1Q6J5DBI5ARSD4Z9TIRDD0Z&c=365799&tp_c=365799","firstResponseHeads":2,"firstResponseTails":2,"secondResponseHeads":5,"secondResponseTails":5,"totalHeads":7,"totalTails":7,"studentIndex":12,"studentTrueHypers":{"a":8,"b":2},"studentGuess":0.625,"delta":0.125,"bonus":0,"bonusSoFar":1.23,"totalExamples":14},{"rt":7150,"response":{"heads":"8","tails":"2"},"type":"response","condition":"seqFeedback","trueTheta":0.8,"classrooms":["C","D"],"studentTrueClassroom":"D","exampleSet":"first","trial_type":"survey-html-form","trial_index":114,"time_elapsed":2581899,"internal_node_id":"0.0-110.0-0.0","params":{"nStudents":24,"maxFlips":30,"completionMinutes":45,"basePay":8,"maxBonus":9,"perTrialBonus":0.5,"perTrialBonusThreshold":0.05,"exampleCost":0.01},"classroomParams":{"A":{"a":1,"b":4},"B":{"a":4,"b":1},"C":{"a":2,"b":8},"D":{"a":8,"b":2}},"conditions":["nonSeqFull","nonSeqPartial","seqNoFeedback","seqFeedback"],"classroomPairings":[["A","B"],["C","D"]],"coinWeights":[0.2,0.5,0.8],"subjectId":"A1969Q0R4Y0E3J","assignmentId":"3TEM0PF1Q6J5DBI5ARSD4Z9TIRDD0Z","hitId":"3AQN9REUTF20OMGWRXYK787QVFOYDP","url":"https://gershmanlab.com/experiments/alicia/teaching/experiment/?hitId=3AQN9REUTF20OMGWRXYK787QVFOYDP&workerId=A1969Q0R4Y0E3J&assignmentId=3TEM0PF1Q6J5DBI5ARSD4Z9TIRDD0Z&a=10ET9&tp_a=10ET9&b=3TEM0PF1Q6J5DBI5ARSD4Z9TIRDD0Z&tp_b=3TEM0PF1Q6J5DBI5ARSD4Z9TIRDD0Z&c=365799&tp_c=365799","heads":8,"tails":2,"studentIndex":13,"studentTrueHypers":{"a":8,"b":2},"studentGuess":0.8,"delta":0,"totalExamples":10,"bonusSoFar":1.23},{"rt":13175,"response":{"heads":"8","tails":"2"},"type":"response","condition":"seqFeedback","trueTheta":0.8,"classrooms":["C","D"],"studentTrueClassroom":"D","exampleSet":"second","trial_type":"survey-html-form","trial_index":118,"time_elapsed":2604858,"internal_node_id":"0.0-114.0-0.0","params":{"nStudents":24,"maxFlips":30,"completionMinutes":45,"basePay":8,"maxBonus":9,"perTrialBonus":0.5,"perTrialBonusThreshold":0.05,"exampleCost":0.01},"classroomParams":{"A":{"a":1,"b":4},"B":{"a":4,"b":1},"C":{"a":2,"b":8},"D":{"a":8,"b":2}},"conditions":["nonSeqFull","nonSeqPartial","seqNoFeedback","seqFeedback"],"classroomPairings":[["A","B"],["C","D"]],"coinWeights":[0.2,0.5,0.8],"subjectId":"A1969Q0R4Y0E3J","assignmentId":"3TEM0PF1Q6J5DBI5ARSD4Z9TIRDD0Z","hitId":"3AQN9REUTF20OMGWRXYK787QVFOYDP","url":"https://gershmanlab.com/experiments/alicia/teaching/experiment/?hitId=3AQN9REUTF20OMGWRXYK787QVFOYDP&workerId=A1969Q0R4Y0E3J&assignmentId=3TEM0PF1Q6J5DBI5ARSD4Z9TIRDD0Z&a=10ET9&tp_a=10ET9&b=3TEM0PF1Q6J5DBI5ARSD4Z9TIRDD0Z&tp_b=3TEM0PF1Q6J5DBI5ARSD4Z9TIRDD0Z&c=365799&tp_c=365799","firstResponseHeads":8,"firstResponseTails":2,"secondResponseHeads":8,"secondResponseTails":2,"totalHeads":16,"totalTails":4,"studentIndex":13,"studentTrueHypers":{"a":8,"b":2},"studentGuess":0.8,"delta":0,"bonus":0.3,"bonusSoFar":1.53,"totalExamples":20},{"rt":30458,"response":{"heads":"1","tails":"4"},"type":"response","condition":"seqNoFeedback","trueTheta":0.2,"classrooms":["A","B"],"studentTrueClassroom":"A","exampleSet":"first","trial_type":"survey-html-form","trial_index":124,"time_elapsed":2650821,"internal_node_id":"0.0-120.0-0.0","params":{"nStudents":24,"maxFlips":30,"completionMinutes":45,"basePay":8,"maxBonus":9,"perTrialBonus":0.5,"perTrialBonusThreshold":0.05,"exampleCost":0.01},"classroomParams":{"A":{"a":1,"b":4},"B":{"a":4,"b":1},"C":{"a":2,"b":8},"D":{"a":8,"b":2}},"conditions":["nonSeqFull","nonSeqPartial","seqNoFeedback","seqFeedback"],"classroomPairings":[["A","B"],["C","D"]],"coinWeights":[0.2,0.5,0.8],"subjectId":"A1969Q0R4Y0E3J","assignmentId":"3TEM0PF1Q6J5DBI5ARSD4Z9TIRDD0Z","hitId":"3AQN9REUTF20OMGWRXYK787QVFOYDP","url":"https://gershmanlab.com/experiments/alicia/teaching/experiment/?hitId=3AQN9REUTF20OMGWRXYK787QVFOYDP&workerId=A1969Q0R4Y0E3J&assignmentId=3TEM0PF1Q6J5DBI5ARSD4Z9TIRDD0Z&a=10ET9&tp_a=10ET9&b=3TEM0PF1Q6J5DBI5ARSD4Z9TIRDD0Z&tp_b=3TEM0PF1Q6J5DBI5ARSD4Z9TIRDD0Z&c=365799&tp_c=365799","heads":1,"tails":4,"studentIndex":14,"studentTrueHypers":{"a":1,"b":4},"studentGuess":0.2,"delta":0,"totalExamples":5,"bonusSoFar":1.53},{"rt":38421,"response":{"heads":"1","tails":"4"},"type":"response","condition":"seqNoFeedback","trueTheta":0.2,"classrooms":["A","B"],"studentTrueClassroom":"A","exampleSet":"second","trial_type":"survey-html-form","trial_index":127,"time_elapsed":2696028,"internal_node_id":"0.0-123.0-0.0","params":{"nStudents":24,"maxFlips":30,"completionMinutes":45,"basePay":8,"maxBonus":9,"perTrialBonus":0.5,"perTrialBonusThreshold":0.05,"exampleCost":0.01},"classroomParams":{"A":{"a":1,"b":4},"B":{"a":4,"b":1},"C":{"a":2,"b":8},"D":{"a":8,"b":2}},"conditions":["nonSeqFull","nonSeqPartial","seqNoFeedback","seqFeedback"],"classroomPairings":[["A","B"],["C","D"]],"coinWeights":[0.2,0.5,0.8],"subjectId":"A1969Q0R4Y0E3J","assignmentId":"3TEM0PF1Q6J5DBI5ARSD4Z9TIRDD0Z","hitId":"3AQN9REUTF20OMGWRXYK787QVFOYDP","url":"https://gershmanlab.com/experiments/alicia/teaching/experiment/?hitId=3AQN9REUTF20OMGWRXYK787QVFOYDP&workerId=A1969Q0R4Y0E3J&assignmentId=3TEM0PF1Q6J5DBI5ARSD4Z9TIRDD0Z&a=10ET9&tp_a=10ET9&b=3TEM0PF1Q6J5DBI5ARSD4Z9TIRDD0Z&tp_b=3TEM0PF1Q6J5DBI5ARSD4Z9TIRDD0Z&c=365799&tp_c=365799","firstResponseHeads":1,"firstResponseTails":4,"secondResponseHeads":1,"secondResponseTails":4,"totalHeads":2,"totalTails":8,"studentIndex":14,"studentTrueHypers":{"a":1,"b":4},"studentGuess":0.2,"delta":0,"bonus":0.4,"bonusSoFar":1.93,"totalExamples":10},{"rt":4697,"response":{"heads":"8","tails":"2"},"type":"response","condition":"nonSeqFull","trueTheta":0.8,"classrooms":["C","D"],"studentTrueClassroom":"C","exampleSet":"first","trial_type":"survey-html-form","trial_index":133,"time_elapsed":2800164,"internal_node_id":"0.0-129.0-0.0","params":{"nStudents":24,"maxFlips":30,"completionMinutes":45,"basePay":8,"maxBonus":9,"perTrialBonus":0.5,"perTrialBonusThreshold":0.05,"exampleCost":0.01},"classroomParams":{"A":{"a":1,"b":4},"B":{"a":4,"b":1},"C":{"a":2,"b":8},"D":{"a":8,"b":2}},"conditions":["nonSeqFull","nonSeqPartial","seqNoFeedback","seqFeedback"],"classroomPairings":[["A","B"],["C","D"]],"coinWeights":[0.2,0.5,0.8],"subjectId":"A1969Q0R4Y0E3J","assignmentId":"3TEM0PF1Q6J5DBI5ARSD4Z9TIRDD0Z","hitId":"3AQN9REUTF20OMGWRXYK787QVFOYDP","url":"https://gershmanlab.com/experiments/alicia/teaching/experiment/?hitId=3AQN9REUTF20OMGWRXYK787QVFOYDP&workerId=A1969Q0R4Y0E3J&assignmentId=3TEM0PF1Q6J5DBI5ARSD4Z9TIRDD0Z&a=10ET9&tp_a=10ET9&b=3TEM0PF1Q6J5DBI5ARSD4Z9TIRDD0Z&tp_b=3TEM0PF1Q6J5DBI5ARSD4Z9TIRDD0Z&c=365799&tp_c=365799","heads":8,"tails":2,"studentIndex":15,"studentTrueHypers":{"a":2,"b":8},"studentGuess":0.5,"delta":0.30000000000000004,"totalExamples":10,"bonus":0,"bonusSoFar":1.93},{"rt":7387,"response":{"heads":"2","tails":"8"},"type":"response","condition":"seqNoFeedback","trueTheta":0.2,"classrooms":["C","D"],"studentTrueClassroom":"D","exampleSet":"first","trial_type":"survey-html-form","trial_index":139,"time_elapsed":2838354,"internal_node_id":"0.0-135.0-0.0","params":{"nStudents":24,"maxFlips":30,"completionMinutes":45,"basePay":8,"maxBonus":9,"perTrialBonus":0.5,"perTrialBonusThreshold":0.05,"exampleCost":0.01},"classroomParams":{"A":{"a":1,"b":4},"B":{"a":4,"b":1},"C":{"a":2,"b":8},"D":{"a":8,"b":2}},"conditions":["nonSeqFull","nonSeqPartial","seqNoFeedback","seqFeedback"],"classroomPairings":[["A","B"],["C","D"]],"coinWeights":[0.2,0.5,0.8],"subjectId":"A1969Q0R4Y0E3J","assignmentId":"3TEM0PF1Q6J5DBI5ARSD4Z9TIRDD0Z","hitId":"3AQN9REUTF20OMGWRXYK787QVFOYDP","url":"https://gershmanlab.com/experiments/alicia/teaching/experiment/?hitId=3AQN9REUTF20OMGWRXYK787QVFOYDP&workerId=A1969Q0R4Y0E3J&assignmentId=3TEM0PF1Q6J5DBI5ARSD4Z9TIRDD0Z&a=10ET9&tp_a=10ET9&b=3TEM0PF1Q6J5DBI5ARSD4Z9TIRDD0Z&tp_b=3TEM0PF1Q6J5DBI5ARSD4Z9TIRDD0Z&c=365799&tp_c=365799","heads":2,"tails":8,"studentIndex":16,"studentTrueHypers":{"a":8,"b":2},"studentGuess":0.5,"delta":0.3,"totalExamples":10,"bonusSoFar":1.93},{"rt":6389,"response":{"heads":"2","tails":"8"},"type":"response","condition":"seqNoFeedback","trueTheta":0.2,"classrooms":["C","D"],"studentTrueClassroom":"D","exampleSet":"second","trial_type":"survey-html-form","trial_index":142,"time_elapsed":2851902,"internal_node_id":"0.0-138.0-0.0","params":{"nStudents":24,"maxFlips":30,"completionMinutes":45,"basePay":8,"maxBonus":9,"perTrialBonus":0.5,"perTrialBonusThreshold":0.05,"exampleCost":0.01},"classroomParams":{"A":{"a":1,"b":4},"B":{"a":4,"b":1},"C":{"a":2,"b":8},"D":{"a":8,"b":2}},"conditions":["nonSeqFull","nonSeqPartial","seqNoFeedback","seqFeedback"],"classroomPairings":[["A","B"],["C","D"]],"coinWeights":[0.2,0.5,0.8],"subjectId":"A1969Q0R4Y0E3J","assignmentId":"3TEM0PF1Q6J5DBI5ARSD4Z9TIRDD0Z","hitId":"3AQN9REUTF20OMGWRXYK787QVFOYDP","url":"https://gershmanlab.com/experiments/alicia/teaching/experiment/?hitId=3AQN9REUTF20OMGWRXYK787QVFOYDP&workerId=A1969Q0R4Y0E3J&assignmentId=3TEM0PF1Q6J5DBI5ARSD4Z9TIRDD0Z&a=10ET9&tp_a=10ET9&b=3TEM0PF1Q6J5DBI5ARSD4Z9TIRDD0Z&tp_b=3TEM0PF1Q6J5DBI5ARSD4Z9TIRDD0Z&c=365799&tp_c=365799","firstResponseHeads":2,"firstResponseTails":8,"secondResponseHeads":2,"secondResponseTails":8,"totalHeads":4,"totalTails":16,"studentIndex":16,"studentTrueHypers":{"a":8,"b":2},"studentGuess":0.4,"delta":0.2,"bonus":0,"bonusSoFar":1.93,"totalExamples":20},{"rt":65010,"response":{"heads":"5","tails":"2"},"type":"response","condition":"nonSeqFull","trueTheta":0.8,"classrooms":["A","B"],"studentTrueClassroom":"A","exampleSet":"first","trial_type":"survey-html-form","trial_index":148,"time_elapsed":2954328,"internal_node_id":"0.0-144.0-0.0","params":{"nStudents":24,"maxFlips":30,"completionMinutes":45,"basePay":8,"maxBonus":9,"perTrialBonus":0.5,"perTrialBonusThreshold":0.05,"exampleCost":0.01},"classroomParams":{"A":{"a":1,"b":4},"B":{"a":4,"b":1},"C":{"a":2,"b":8},"D":{"a":8,"b":2}},"conditions":["nonSeqFull","nonSeqPartial","seqNoFeedback","seqFeedback"],"classroomPairings":[["A","B"],["C","D"]],"coinWeights":[0.2,0.5,0.8],"subjectId":"A1969Q0R4Y0E3J","assignmentId":"3TEM0PF1Q6J5DBI5ARSD4Z9TIRDD0Z","hitId":"3AQN9REUTF20OMGWRXYK787QVFOYDP","url":"https://gershmanlab.com/experiments/alicia/teaching/experiment/?hitId=3AQN9REUTF20OMGWRXYK787QVFOYDP&workerId=A1969Q0R4Y0E3J&assignmentId=3TEM0PF1Q6J5DBI5ARSD4Z9TIRDD0Z&a=10ET9&tp_a=10ET9&b=3TEM0PF1Q6J5DBI5ARSD4Z9TIRDD0Z&tp_b=3TEM0PF1Q6J5DBI5ARSD4Z9TIRDD0Z&c=365799&tp_c=365799","heads":5,"tails":2,"studentIndex":17,"studentTrueHypers":{"a":1,"b":4},"studentGuess":0.5,"delta":0.30000000000000004,"totalExamples":7,"bonus":0,"bonusSoFar":1.93},{"rt":8146,"response":{"heads":"8","tails":"2"},"type":"response","condition":"seqNoFeedback","trueTheta":0.8,"classrooms":["C","D"],"studentTrueClassroom":"C","exampleSet":"first","trial_type":"survey-html-form","trial_index":154,"time_elapsed":2985069,"internal_node_id":"0.0-150.0-0.0","params":{"nStudents":24,"maxFlips":30,"completionMinutes":45,"basePay":8,"maxBonus":9,"perTrialBonus":0.5,"perTrialBonusThreshold":0.05,"exampleCost":0.01},"classroomParams":{"A":{"a":1,"b":4},"B":{"a":4,"b":1},"C":{"a":2,"b":8},"D":{"a":8,"b":2}},"conditions":["nonSeqFull","nonSeqPartial","seqNoFeedback","seqFeedback"],"classroomPairings":[["A","B"],["C","D"]],"coinWeights":[0.2,0.5,0.8],"subjectId":"A1969Q0R4Y0E3J","assignmentId":"3TEM0PF1Q6J5DBI5ARSD4Z9TIRDD0Z","hitId":"3AQN9REUTF20OMGWRXYK787QVFOYDP","url":"https://gershmanlab.com/experiments/alicia/teaching/experiment/?hitId=3AQN9REUTF20OMGWRXYK787QVFOYDP&workerId=A1969Q0R4Y0E3J&assignmentId=3TEM0PF1Q6J5DBI5ARSD4Z9TIRDD0Z&a=10ET9&tp_a=10ET9&b=3TEM0PF1Q6J5DBI5ARSD4Z9TIRDD0Z&tp_b=3TEM0PF1Q6J5DBI5ARSD4Z9TIRDD0Z&c=365799&tp_c=365799","heads":8,"tails":2,"studentIndex":18,"studentTrueHypers":{"a":2,"b":8},"studentGuess":0.5,"delta":0.30000000000000004,"totalExamples":10,"bonusSoFar":1.93},{"rt":5551,"response":{"heads":"8","tails":"2"},"type":"response","condition":"seqNoFeedback","trueTheta":0.8,"classrooms":["C","D"],"studentTrueClassroom":"C","exampleSet":"second","trial_type":"survey-html-form","trial_index":157,"time_elapsed":2998391,"internal_node_id":"0.0-153.0-0.0","params":{"nStudents":24,"maxFlips":30,"completionMinutes":45,"basePay":8,"maxBonus":9,"perTrialBonus":0.5,"perTrialBonusThreshold":0.05,"exampleCost":0.01},"classroomParams":{"A":{"a":1,"b":4},"B":{"a":4,"b":1},"C":{"a":2,"b":8},"D":{"a":8,"b":2}},"conditions":["nonSeqFull","nonSeqPartial","seqNoFeedback","seqFeedback"],"classroomPairings":[["A","B"],["C","D"]],"coinWeights":[0.2,0.5,0.8],"subjectId":"A1969Q0R4Y0E3J","assignmentId":"3TEM0PF1Q6J5DBI5ARSD4Z9TIRDD0Z","hitId":"3AQN9REUTF20OMGWRXYK787QVFOYDP","url":"https://gershmanlab.com/experiments/alicia/teaching/experiment/?hitId=3AQN9REUTF20OMGWRXYK787QVFOYDP&workerId=A1969Q0R4Y0E3J&assignmentId=3TEM0PF1Q6J5DBI5ARSD4Z9TIRDD0Z&a=10ET9&tp_a=10ET9&b=3TEM0PF1Q6J5DBI5ARSD4Z9TIRDD0Z&tp_b=3TEM0PF1Q6J5DBI5ARSD4Z9TIRDD0Z&c=365799&tp_c=365799","firstResponseHeads":8,"firstResponseTails":2,"secondResponseHeads":8,"secondResponseTails":2,"totalHeads":16,"totalTails":4,"studentIndex":18,"studentTrueHypers":{"a":2,"b":8},"studentGuess":0.6,"delta":0.20000000000000007,"bonus":0,"bonusSoFar":1.93,"totalExamples":20},{"rt":6006,"response":{"heads":"4","tails":"1"},"type":"response","condition":"nonSeqPartial","trueTheta":0.8,"classrooms":["A","B"],"studentTrueClassroom":"A","exampleSet":"first","trial_type":"survey-html-form","trial_index":163,"time_elapsed":3019396,"internal_node_id":"0.0-159.0-0.0","params":{"nStudents":24,"maxFlips":30,"completionMinutes":45,"basePay":8,"maxBonus":9,"perTrialBonus":0.5,"perTrialBonusThreshold":0.05,"exampleCost":0.01},"classroomParams":{"A":{"a":1,"b":4},"B":{"a":4,"b":1},"C":{"a":2,"b":8},"D":{"a":8,"b":2}},"conditions":["nonSeqFull","nonSeqPartial","seqNoFeedback","seqFeedback"],"classroomPairings":[["A","B"],["C","D"]],"coinWeights":[0.2,0.5,0.8],"subjectId":"A1969Q0R4Y0E3J","assignmentId":"3TEM0PF1Q6J5DBI5ARSD4Z9TIRDD0Z","hitId":"3AQN9REUTF20OMGWRXYK787QVFOYDP","url":"https://gershmanlab.com/experiments/alicia/teaching/experiment/?hitId=3AQN9REUTF20OMGWRXYK787QVFOYDP&workerId=A1969Q0R4Y0E3J&assignmentId=3TEM0PF1Q6J5DBI5ARSD4Z9TIRDD0Z&a=10ET9&tp_a=10ET9&b=3TEM0PF1Q6J5DBI5ARSD4Z9TIRDD0Z&tp_b=3TEM0PF1Q6J5DBI5ARSD4Z9TIRDD0Z&c=365799&tp_c=365799","heads":4,"tails":1,"studentIndex":19,"studentTrueHypers":{"a":1,"b":4},"studentGuess":0.5,"delta":0.30000000000000004,"totalExamples":5,"bonus":0,"bonusSoFar":1.93},{"rt":13064,"response":{"heads":"2","tails":"8"},"type":"response","condition":"nonSeqFull","trueTheta":0.2,"classrooms":["C","D"],"studentTrueClassroom":"C","exampleSet":"first","trial_type":"survey-html-form","trial_index":169,"time_elapsed":3050751,"internal_node_id":"0.0-165.0-0.0","params":{"nStudents":24,"maxFlips":30,"completionMinutes":45,"basePay":8,"maxBonus":9,"perTrialBonus":0.5,"perTrialBonusThreshold":0.05,"exampleCost":0.01},"classroomParams":{"A":{"a":1,"b":4},"B":{"a":4,"b":1},"C":{"a":2,"b":8},"D":{"a":8,"b":2}},"conditions":["nonSeqFull","nonSeqPartial","seqNoFeedback","seqFeedback"],"classroomPairings":[["A","B"],["C","D"]],"coinWeights":[0.2,0.5,0.8],"subjectId":"A1969Q0R4Y0E3J","assignmentId":"3TEM0PF1Q6J5DBI5ARSD4Z9TIRDD0Z","hitId":"3AQN9REUTF20OMGWRXYK787QVFOYDP","url":"https://gershmanlab.com/experiments/alicia/teaching/experiment/?hitId=3AQN9REUTF20OMGWRXYK787QVFOYDP&workerId=A1969Q0R4Y0E3J&assignmentId=3TEM0PF1Q6J5DBI5ARSD4Z9TIRDD0Z&a=10ET9&tp_a=10ET9&b=3TEM0PF1Q6J5DBI5ARSD4Z9TIRDD0Z&tp_b=3TEM0PF1Q6J5DBI5ARSD4Z9TIRDD0Z&c=365799&tp_c=365799","heads":2,"tails":8,"studentIndex":20,"studentTrueHypers":{"a":2,"b":8},"studentGuess":0.2,"delta":0,"totalExamples":10,"bonus":0.4,"bonusSoFar":2.33},{"rt":37687,"response":{"heads":"2","tails":"8"},"type":"response","condition":"nonSeqPartial","trueTheta":0.2,"classrooms":["A","B"],"studentTrueClassroom":"A","exampleSet":"first","trial_type":"survey-html-form","trial_index":175,"time_elapsed":3100647,"internal_node_id":"0.0-171.0-0.0","params":{"nStudents":24,"maxFlips":30,"completionMinutes":45,"basePay":8,"maxBonus":9,"perTrialBonus":0.5,"perTrialBonusThreshold":0.05,"exampleCost":0.01},"classroomParams":{"A":{"a":1,"b":4},"B":{"a":4,"b":1},"C":{"a":2,"b":8},"D":{"a":8,"b":2}},"conditions":["nonSeqFull","nonSeqPartial","seqNoFeedback","seqFeedback"],"classroomPairings":[["A","B"],["C","D"]],"coinWeights":[0.2,0.5,0.8],"subjectId":"A1969Q0R4Y0E3J","assignmentId":"3TEM0PF1Q6J5DBI5ARSD4Z9TIRDD0Z","hitId":"3AQN9REUTF20OMGWRXYK787QVFOYDP","url":"https://gershmanlab.com/experiments/alicia/teaching/experiment/?hitId=3AQN9REUTF20OMGWRXYK787QVFOYDP&workerId=A1969Q0R4Y0E3J&assignmentId=3TEM0PF1Q6J5DBI5ARSD4Z9TIRDD0Z&a=10ET9&tp_a=10ET9&b=3TEM0PF1Q6J5DBI5ARSD4Z9TIRDD0Z&tp_b=3TEM0PF1Q6J5DBI5ARSD4Z9TIRDD0Z&c=365799&tp_c=365799","heads":2,"tails":8,"studentIndex":21,"studentTrueHypers":{"a":1,"b":4},"studentGuess":0.2,"delta":0,"totalExamples":10,"bonus":0.4,"bonusSoFar":2.73},{"rt":4606,"response":{"heads":"8","tails":"2"},"type":"response","condition":"seqNoFeedback","trueTheta":0.8,"classrooms":["A","B"],"studentTrueClassroom":"B","exampleSet":"first","trial_type":"survey-html-form","trial_index":181,"time_elapsed":3123474,"internal_node_id":"0.0-177.0-0.0","params":{"nStudents":24,"maxFlips":30,"completionMinutes":45,"basePay":8,"maxBonus":9,"perTrialBonus":0.5,"perTrialBonusThreshold":0.05,"exampleCost":0.01},"classroomParams":{"A":{"a":1,"b":4},"B":{"a":4,"b":1},"C":{"a":2,"b":8},"D":{"a":8,"b":2}},"conditions":["nonSeqFull","nonSeqPartial","seqNoFeedback","seqFeedback"],"classroomPairings":[["A","B"],["C","D"]],"coinWeights":[0.2,0.5,0.8],"subjectId":"A1969Q0R4Y0E3J","assignmentId":"3TEM0PF1Q6J5DBI5ARSD4Z9TIRDD0Z","hitId":"3AQN9REUTF20OMGWRXYK787QVFOYDP","url":"https://gershmanlab.com/experiments/alicia/teaching/experiment/?hitId=3AQN9REUTF20OMGWRXYK787QVFOYDP&workerId=A1969Q0R4Y0E3J&assignmentId=3TEM0PF1Q6J5DBI5ARSD4Z9TIRDD0Z&a=10ET9&tp_a=10ET9&b=3TEM0PF1Q6J5DBI5ARSD4Z9TIRDD0Z&tp_b=3TEM0PF1Q6J5DBI5ARSD4Z9TIRDD0Z&c=365799&tp_c=365799","heads":8,"tails":2,"studentIndex":22,"studentTrueHypers":{"a":4,"b":1},"studentGuess":0.8,"delta":0,"totalExamples":10,"bonusSoFar":2.73},{"rt":7697,"response":{"heads":"8","tails":"2"},"type":"response","condition":"seqNoFeedback","trueTheta":0.8,"classrooms":["A","B"],"studentTrueClassroom":"B","exampleSet":"second","trial_type":"survey-html-form","trial_index":184,"time_elapsed":3137947,"internal_node_id":"0.0-180.0-0.0","params":{"nStudents":24,"maxFlips":30,"completionMinutes":45,"basePay":8,"maxBonus":9,"perTrialBonus":0.5,"perTrialBonusThreshold":0.05,"exampleCost":0.01},"classroomParams":{"A":{"a":1,"b":4},"B":{"a":4,"b":1},"C":{"a":2,"b":8},"D":{"a":8,"b":2}},"conditions":["nonSeqFull","nonSeqPartial","seqNoFeedback","seqFeedback"],"classroomPairings":[["A","B"],["C","D"]],"coinWeights":[0.2,0.5,0.8],"subjectId":"A1969Q0R4Y0E3J","assignmentId":"3TEM0PF1Q6J5DBI5ARSD4Z9TIRDD0Z","hitId":"3AQN9REUTF20OMGWRXYK787QVFOYDP","url":"https://gershmanlab.com/experiments/alicia/teaching/experiment/?hitId=3AQN9REUTF20OMGWRXYK787QVFOYDP&workerId=A1969Q0R4Y0E3J&assignmentId=3TEM0PF1Q6J5DBI5ARSD4Z9TIRDD0Z&a=10ET9&tp_a=10ET9&b=3TEM0PF1Q6J5DBI5ARSD4Z9TIRDD0Z&tp_b=3TEM0PF1Q6J5DBI5ARSD4Z9TIRDD0Z&c=365799&tp_c=365799","firstResponseHeads":8,"firstResponseTails":2,"secondResponseHeads":8,"secondResponseTails":2,"totalHeads":16,"totalTails":4,"studentIndex":22,"studentTrueHypers":{"a":4,"b":1},"studentGuess":0.8,"delta":0,"bonus":0.3,"bonusSoFar":3.03,"totalExamples":20},{"rt":11977,"response":{"heads":"2","tails":"8"},"type":"response","condition":"nonSeqFull","trueTheta":0.2,"classrooms":["A","B"],"studentTrueClassroom":"A","exampleSet":"first","trial_type":"survey-html-form","trial_index":190,"time_elapsed":3166247,"internal_node_id":"0.0-186.0-0.0","params":{"nStudents":24,"maxFlips":30,"completionMinutes":45,"basePay":8,"maxBonus":9,"perTrialBonus":0.5,"perTrialBonusThreshold":0.05,"exampleCost":0.01},"classroomParams":{"A":{"a":1,"b":4},"B":{"a":4,"b":1},"C":{"a":2,"b":8},"D":{"a":8,"b":2}},"conditions":["nonSeqFull","nonSeqPartial","seqNoFeedback","seqFeedback"],"classroomPairings":[["A","B"],["C","D"]],"coinWeights":[0.2,0.5,0.8],"subjectId":"A1969Q0R4Y0E3J","assignmentId":"3TEM0PF1Q6J5DBI5ARSD4Z9TIRDD0Z","hitId":"3AQN9REUTF20OMGWRXYK787QVFOYDP","url":"https://gershmanlab.com/experiments/alicia/teaching/experiment/?hitId=3AQN9REUTF20OMGWRXYK787QVFOYDP&workerId=A1969Q0R4Y0E3J&assignmentId=3TEM0PF1Q6J5DBI5ARSD4Z9TIRDD0Z&a=10ET9&tp_a=10ET9&b=3TEM0PF1Q6J5DBI5ARSD4Z9TIRDD0Z&tp_b=3TEM0PF1Q6J5DBI5ARSD4Z9TIRDD0Z&c=365799&tp_c=365799","heads":2,"tails":8,"studentIndex":23,"studentTrueHypers":{"a":1,"b":4},"studentGuess":0.2,"delta":0,"totalExamples":10,"bonus":0.4,"bonusSoFar":3.43},{"rt":13366,"response":{"gender":"female","age":"25","understood":"yes","comments":"no"},"type":"response","trial_type":"survey-html-form","trial_index":194,"time_elapsed":3190247,"internal_node_id":"0.0-191.0","params":{"nStudents":24,"maxFlips":30,"completionMinutes":45,"basePay":8,"maxBonus":9,"perTrialBonus":0.5,"perTrialBonusThreshold":0.05,"exampleCost":0.01},"classroomParams":{"A":{"a":1,"b":4},"B":{"a":4,"b":1},"C":{"a":2,"b":8},"D":{"a":8,"b":2}},"conditions":["nonSeqFull","nonSeqPartial","seqNoFeedback","seqFeedback"],"classroomPairings":[["A","B"],["C","D"]],"coinWeights":[0.2,0.5,0.8],"subjectId":"A1969Q0R4Y0E3J","assignmentId":"3TEM0PF1Q6J5DBI5ARSD4Z9TIRDD0Z","hitId":"3AQN9REUTF20OMGWRXYK787QVFOYDP","url":"https://gershmanlab.com/experiments/alicia/teaching/experiment/?hitId=3AQN9REUTF20OMGWRXYK787QVFOYDP&workerId=A1969Q0R4Y0E3J&assignmentId=3TEM0PF1Q6J5DBI5ARSD4Z9TIRDD0Z&a=10ET9&tp_a=10ET9&b=3TEM0PF1Q6J5DBI5ARSD4Z9TIRDD0Z&tp_b=3TEM0PF1Q6J5DBI5ARSD4Z9TIRDD0Z&c=365799&tp_c=365799","totalBonus":3.43}]