[{"rt":22181,"response":{"heads":"2","tails":"2"},"type":"response","condition":"seqFeedback","trueTheta":0.2,"classrooms":["A","B"],"studentTrueClassroom":"B","exampleSet":"first","trial_type":"survey-html-form","trial_index":13,"time_elapsed":329243,"internal_node_id":"0.0-6.0-0.0","params":{"nStudents":24,"maxFlips":30,"completionMinutes":45,"basePay":8,"maxBonus":9,"perTrialBonus":0.5,"perTrialBonusThreshold":0.05,"exampleCost":0.01},"classroomParams":{"A":{"a":1,"b":4},"B":{"a":4,"b":1},"C":{"a":2,"b":8},"D":{"a":8,"b":2}},"conditions":["nonSeqFull","nonSeqPartial","seqNoFeedback","seqFeedback"],"classroomPairings":[["A","B"],["C","D"]],"coinWeights":[0.2,0.5,0.8],"subjectId":"A19ZWBQT8A3LIR","assignmentId":"3TVSS0C0E2M52QFNPOLDGY0JMIHWT4","hitId":"3SD15I2WD2G0NA4TSPXGB81L5S7630","url":"https://gershmanlab.com/experiments/alicia/teaching/experiment/?hitId=3SD15I2WD2G0NA4TSPXGB81L5S7630&workerId=A19ZWBQT8A3LIR&assignmentId=3TVSS0C0E2M52QFNPOLDGY0JMIHWT4&a=0SVT9&tp_a=0SVT9&b=3TVSS0C0E2M52QFNPOLDGY0JMIHWT4&tp_b=3TVSS0C0E2M52QFNPOLDGY0JMIHWT4&c=365799&tp_c=365799","heads":2,"tails":2,"studentIndex":0,"studentTrueHypers":{"a":4,"b":1},"studentGuess":0.6666666666666666,"delta":0.4666666666666666,"totalExamples":4,"bonusSoFar":0},{"rt":12730,"response":{"heads":"1","tails":"1"},"type":"response","condition":"seqFeedback","trueTheta":0.2,"classrooms":["A","B"],"studentTrueClassroom":"B","exampleSet":"second","trial_type":"survey-html-form","trial_index":17,"time_elapsed":352492,"internal_node_id":"0.0-10.0-0.0","params":{"nStudents":24,"maxFlips":30,"completionMinutes":45,"basePay":8,"maxBonus":9,"perTrialBonus":0.5,"perTrialBonusThreshold":0.05,"exampleCost":0.01},"classroomParams":{"A":{"a":1,"b":4},"B":{"a":4,"b":1},"C":{"a":2,"b":8},"D":{"a":8,"b":2}},"conditions":["nonSeqFull","nonSeqPartial","seqNoFeedback","seqFeedback"],"classroomPairings":[["A","B"],["C","D"]],"coinWeights":[0.2,0.5,0.8],"subjectId":"A19ZWBQT8A3LIR","assignmentId":"3TVSS0C0E2M52QFNPOLDGY0JMIHWT4","hitId":"3SD15I2WD2G0NA4TSPXGB81L5S7630","url":"https://gershmanlab.com/experiments/alicia/teaching/experiment/?hitId=3SD15I2WD2G0NA4TSPXGB81L5S7630&workerId=A19ZWBQT8A3LIR&assignmentId=3TVSS0C0E2M52QFNPOLDGY0JMIHWT4&a=0SVT9&tp_a=0SVT9&b=3TVSS0C0E2M52QFNPOLDGY0JMIHWT4&tp_b=3TVSS0C0E2M52QFNPOLDGY0JMIHWT4&c=365799&tp_c=365799","firstResponseHeads":2,"firstResponseTails":2,"secondResponseHeads":1,"secondResponseTails":1,"totalHeads":3,"totalTails":3,"studentIndex":0,"studentTrueHypers":{"a":4,"b":1},"studentGuess":0.6363636363636364,"delta":0.43636363636363634,"bonus":0,"bonusSoFar":0,"totalExamples":6},{"rt":16559,"response":{"heads":"1","tails":"1"},"type":"response","condition":"nonSeqPartial","trueTheta":0.2,"classrooms":["C","D"],"studentTrueClassroom":"C","exampleSet":"first","trial_type":"survey-html-form","trial_index":23,"time_elapsed":390532,"internal_node_id":"0.0-16.0-0.0","params":{"nStudents":24,"maxFlips":30,"completionMinutes":45,"basePay":8,"maxBonus":9,"perTrialBonus":0.5,"perTrialBonusThreshold":0.05,"exampleCost":0.01},"classroomParams":{"A":{"a":1,"b":4},"B":{"a":4,"b":1},"C":{"a":2,"b":8},"D":{"a":8,"b":2}},"conditions":["nonSeqFull","nonSeqPartial","seqNoFeedback","seqFeedback"],"classroomPairings":[["A","B"],["C","D"]],"coinWeights":[0.2,0.5,0.8],"subjectId":"A19ZWBQT8A3LIR","assignmentId":"3TVSS0C0E2M52QFNPOLDGY0JMIHWT4","hitId":"3SD15I2WD2G0NA4TSPXGB81L5S7630","url":"https://gershmanlab.com/experiments/alicia/teaching/experiment/?hitId=3SD15I2WD2G0NA4TSPXGB81L5S7630&workerId=A19ZWBQT8A3LIR&assignmentId=3TVSS0C0E2M52QFNPOLDGY0JMIHWT4&a=0SVT9&tp_a=0SVT9&b=3TVSS0C0E2M52QFNPOLDGY0JMIHWT4&tp_b=3TVSS0C0E2M52QFNPOLDGY0JMIHWT4&c=365799&tp_c=365799","heads":1,"tails":1,"studentIndex":1,"studentTrueHypers":{"a":2,"b":8},"studentGuess":0.25,"delta":0.04999999999999999,"totalExamples":2,"bonus":0.48,"bonusSoFar":0.48},{"rt":8144,"response":{"heads":"1","tails":"1"},"type":"response","condition":"seqNoFeedback","trueTheta":0.8,"classrooms":["A","B"],"studentTrueClassroom":"A","exampleSet":"first","trial_type":"survey-html-form","trial_index":29,"time_elapsed":414532,"internal_node_id":"0.0-22.0-0.0","params":{"nStudents":24,"maxFlips":30,"completionMinutes":45,"basePay":8,"maxBonus":9,"perTrialBonus":0.5,"perTrialBonusThreshold":0.05,"exampleCost":0.01},"classroomParams":{"A":{"a":1,"b":4},"B":{"a":4,"b":1},"C":{"a":2,"b":8},"D":{"a":8,"b":2}},"conditions":["nonSeqFull","nonSeqPartial","seqNoFeedback","seqFeedback"],"classroomPairings":[["A","B"],["C","D"]],"coinWeights":[0.2,0.5,0.8],"subjectId":"A19ZWBQT8A3LIR","assignmentId":"3TVSS0C0E2M52QFNPOLDGY0JMIHWT4","hitId":"3SD15I2WD2G0NA4TSPXGB81L5S7630","url":"https://gershmanlab.com/experiments/alicia/teaching/experiment/?hitId=3SD15I2WD2G0NA4TSPXGB81L5S7630&workerId=A19ZWBQT8A3LIR&assignmentId=3TVSS0C0E2M52QFNPOLDGY0JMIHWT4&a=0SVT9&tp_a=0SVT9&b=3TVSS0C0E2M52QFNPOLDGY0JMIHWT4&tp_b=3TVSS0C0E2M52QFNPOLDGY0JMIHWT4&c=365799&tp_c=365799","heads":1,"tails":1,"studentIndex":2,"studentTrueHypers":{"a":1,"b":4},"studentGuess":0.2857142857142857,"delta":0.5142857142857143,"totalExamples":2,"bonusSoFar":0.48},{"rt":8040,"response":{"heads":"1","tails":"1"},"type":"response","condition":"seqNoFeedback","trueTheta":0.8,"classrooms":["A","B"],"studentTrueClassroom":"A","exampleSet":"second","trial_type":"survey-html-form","trial_index":32,"time_elapsed":429576,"internal_node_id":"0.0-25.0-0.0","params":{"nStudents":24,"maxFlips":30,"completionMinutes":45,"basePay":8,"maxBonus":9,"perTrialBonus":0.5,"perTrialBonusThreshold":0.05,"exampleCost":0.01},"classroomParams":{"A":{"a":1,"b":4},"B":{"a":4,"b":1},"C":{"a":2,"b":8},"D":{"a":8,"b":2}},"conditions":["nonSeqFull","nonSeqPartial","seqNoFeedback","seqFeedback"],"classroomPairings":[["A","B"],["C","D"]],"coinWeights":[0.2,0.5,0.8],"subjectId":"A19ZWBQT8A3LIR","assignmentId":"3TVSS0C0E2M52QFNPOLDGY0JMIHWT4","hitId":"3SD15I2WD2G0NA4TSPXGB81L5S7630","url":"https://gershmanlab.com/experiments/alicia/teaching/experiment/?hitId=3SD15I2WD2G0NA4TSPXGB81L5S7630&workerId=A19ZWBQT8A3LIR&assignmentId=3TVSS0C0E2M52QFNPOLDGY0JMIHWT4&a=0SVT9&tp_a=0SVT9&b=3TVSS0C0E2M52QFNPOLDGY0JMIHWT4&tp_b=3TVSS0C0E2M52QFNPOLDGY0JMIHWT4&c=365799&tp_c=365799","firstResponseHeads":1,"firstResponseTails":1,"secondResponseHeads":1,"secondResponseTails":1,"totalHeads":2,"totalTails":2,"studentIndex":2,"studentTrueHypers":{"a":1,"b":4},"studentGuess":0.3333333333333333,"delta":0.46666666666666673,"bonus":0,"bonusSoFar":0.48,"totalExamples":4},{"rt":10844,"response":{"heads":"2","tails":"2"},"type":"response","condition":"seqFeedback","trueTheta":0.2,"classrooms":["C","D"],"studentTrueClassroom":"D","exampleSet":"first","trial_type":"survey-html-form","trial_index":38,"time_elapsed":457431,"internal_node_id":"0.0-31.0-0.0","params":{"nStudents":24,"maxFlips":30,"completionMinutes":45,"basePay":8,"maxBonus":9,"perTrialBonus":0.5,"perTrialBonusThreshold":0.05,"exampleCost":0.01},"classroomParams":{"A":{"a":1,"b":4},"B":{"a":4,"b":1},"C":{"a":2,"b":8},"D":{"a":8,"b":2}},"conditions":["nonSeqFull","nonSeqPartial","seqNoFeedback","seqFeedback"],"classroomPairings":[["A","B"],["C","D"]],"coinWeights":[0.2,0.5,0.8],"subjectId":"A19ZWBQT8A3LIR","assignmentId":"3TVSS0C0E2M52QFNPOLDGY0JMIHWT4","hitId":"3SD15I2WD2G0NA4TSPXGB81L5S7630","url":"https://gershmanlab.com/experiments/alicia/teaching/experiment/?hitId=3SD15I2WD2G0NA4TSPXGB81L5S7630&workerId=A19ZWBQT8A3LIR&assignmentId=3TVSS0C0E2M52QFNPOLDGY0JMIHWT4&a=0SVT9&tp_a=0SVT9&b=3TVSS0C0E2M52QFNPOLDGY0JMIHWT4&tp_b=3TVSS0C0E2M52QFNPOLDGY0JMIHWT4&c=365799&tp_c=365799","heads":2,"tails":2,"studentIndex":3,"studentTrueHypers":{"a":8,"b":2},"studentGuess":0.7142857142857143,"delta":0.5142857142857142,"totalExamples":4,"bonusSoFar":0.48},{"rt":9306,"response":{"heads":"1","tails":"1"},"type":"response","condition":"seqFeedback","trueTheta":0.2,"classrooms":["C","D"],"studentTrueClassroom":"D","exampleSet":"second","trial_type":"survey-html-form","trial_index":42,"time_elapsed":480406,"internal_node_id":"0.0-35.0-0.0","params":{"nStudents":24,"maxFlips":30,"completionMinutes":45,"basePay":8,"maxBonus":9,"perTrialBonus":0.5,"perTrialBonusThreshold":0.05,"exampleCost":0.01},"classroomParams":{"A":{"a":1,"b":4},"B":{"a":4,"b":1},"C":{"a":2,"b":8},"D":{"a":8,"b":2}},"conditions":["nonSeqFull","nonSeqPartial","seqNoFeedback","seqFeedback"],"classroomPairings":[["A","B"],["C","D"]],"coinWeights":[0.2,0.5,0.8],"subjectId":"A19ZWBQT8A3LIR","assignmentId":"3TVSS0C0E2M52QFNPOLDGY0JMIHWT4","hitId":"3SD15I2WD2G0NA4TSPXGB81L5S7630","url":"https://gershmanlab.com/experiments/alicia/teaching/experiment/?hitId=3SD15I2WD2G0NA4TSPXGB81L5S7630&workerId=A19ZWBQT8A3LIR&assignmentId=3TVSS0C0E2M52QFNPOLDGY0JMIHWT4&a=0SVT9&tp_a=0SVT9&b=3TVSS0C0E2M52QFNPOLDGY0JMIHWT4&tp_b=3TVSS0C0E2M52QFNPOLDGY0JMIHWT4&c=365799&tp_c=365799","firstResponseHeads":2,"firstResponseTails":2,"secondResponseHeads":1,"secondResponseTails":1,"totalHeads":3,"totalTails":3,"studentIndex":3,"studentTrueHypers":{"a":8,"b":2},"studentGuess":0.6875,"delta":0.4875,"bonus":0,"bonusSoFar":0.48,"totalExamples":6},{"rt":7004,"response":{"heads":"3","tails":"3"},"type":"response","condition":"seqFeedback","trueTheta":0.8,"classrooms":["C","D"],"studentTrueClassroom":"C","exampleSet":"first","trial_type":"survey-html-form","trial_index":48,"time_elapsed":503657,"internal_node_id":"0.0-41.0-0.0","params":{"nStudents":24,"maxFlips":30,"completionMinutes":45,"basePay":8,"maxBonus":9,"perTrialBonus":0.5,"perTrialBonusThreshold":0.05,"exampleCost":0.01},"classroomParams":{"A":{"a":1,"b":4},"B":{"a":4,"b":1},"C":{"a":2,"b":8},"D":{"a":8,"b":2}},"conditions":["nonSeqFull","nonSeqPartial","seqNoFeedback","seqFeedback"],"classroomPairings":[["A","B"],["C","D"]],"coinWeights":[0.2,0.5,0.8],"subjectId":"A19ZWBQT8A3LIR","assignmentId":"3TVSS0C0E2M52QFNPOLDGY0JMIHWT4","hitId":"3SD15I2WD2G0NA4TSPXGB81L5S7630","url":"https://gershmanlab.com/experiments/alicia/teaching/experiment/?hitId=3SD15I2WD2G0NA4TSPXGB81L5S7630&workerId=A19ZWBQT8A3LIR&assignmentId=3TVSS0C0E2M52QFNPOLDGY0JMIHWT4&a=0SVT9&tp_a=0SVT9&b=3TVSS0C0E2M52QFNPOLDGY0JMIHWT4&tp_b=3TVSS0C0E2M52QFNPOLDGY0JMIHWT4&c=365799&tp_c=365799","heads":3,"tails":3,"studentIndex":4,"studentTrueHypers":{"a":2,"b":8},"studentGuess":0.3125,"delta":0.48750000000000004,"totalExamples":6,"bonusSoFar":0.48},{"rt":5206,"response":{"heads":"3","tails":"3"},"type":"response","condition":"seqFeedback","trueTheta":0.8,"classrooms":["C","D"],"studentTrueClassroom":"C","exampleSet":"second","trial_type":"survey-html-form","trial_index":52,"time_elapsed":516722,"internal_node_id":"0.0-45.0-0.0","params":{"nStudents":24,"maxFlips":30,"completionMinutes":45,"basePay":8,"maxBonus":9,"perTrialBonus":0.5,"perTrialBonusThreshold":0.05,"exampleCost":0.01},"classroomParams":{"A":{"a":1,"b":4},"B":{"a":4,"b":1},"C":{"a":2,"b":8},"D":{"a":8,"b":2}},"conditions":["nonSeqFull","nonSeqPartial","seqNoFeedback","seqFeedback"],"classroomPairings":[["A","B"],["C","D"]],"coinWeights":[0.2,0.5,0.8],"subjectId":"A19ZWBQT8A3LIR","assignmentId":"3TVSS0C0E2M52QFNPOLDGY0JMIHWT4","hitId":"3SD15I2WD2G0NA4TSPXGB81L5S7630","url":"https://gershmanlab.com/experiments/alicia/teaching/experiment/?hitId=3SD15I2WD2G0NA4TSPXGB81L5S7630&workerId=A19ZWBQT8A3LIR&assignmentId=3TVSS0C0E2M52QFNPOLDGY0JMIHWT4&a=0SVT9&tp_a=0SVT9&b=3TVSS0C0E2M52QFNPOLDGY0JMIHWT4&tp_b=3TVSS0C0E2M52QFNPOLDGY0JMIHWT4&c=365799&tp_c=365799","firstResponseHeads":3,"firstResponseTails":3,"secondResponseHeads":3,"secondResponseTails":3,"totalHeads":6,"totalTails":6,"studentIndex":4,"studentTrueHypers":{"a":2,"b":8},"studentGuess":0.36363636363636365,"delta":0.4363636363636364,"bonus":0,"bonusSoFar":0.48,"totalExamples":12},{"rt":7737,"response":{"heads":"5","tails":"5"},"type":"response","condition":"nonSeqPartial","trueTheta":0.2,"classrooms":["A","B"],"studentTrueClassroom":"A","exampleSet":"first","trial_type":"survey-html-form","trial_index":58,"time_elapsed":538323,"internal_node_id":"0.0-51.0-0.0","params":{"nStudents":24,"maxFlips":30,"completionMinutes":45,"basePay":8,"maxBonus":9,"perTrialBonus":0.5,"perTrialBonusThreshold":0.05,"exampleCost":0.01},"classroomParams":{"A":{"a":1,"b":4},"B":{"a":4,"b":1},"C":{"a":2,"b":8},"D":{"a":8,"b":2}},"conditions":["nonSeqFull","nonSeqPartial","seqNoFeedback","seqFeedback"],"classroomPairings":[["A","B"],["C","D"]],"coinWeights":[0.2,0.5,0.8],"subjectId":"A19ZWBQT8A3LIR","assignmentId":"3TVSS0C0E2M52QFNPOLDGY0JMIHWT4","hitId":"3SD15I2WD2G0NA4TSPXGB81L5S7630","url":"https://gershmanlab.com/experiments/alicia/teaching/experiment/?hitId=3SD15I2WD2G0NA4TSPXGB81L5S7630&workerId=A19ZWBQT8A3LIR&assignmentId=3TVSS0C0E2M52QFNPOLDGY0JMIHWT4&a=0SVT9&tp_a=0SVT9&b=3TVSS0C0E2M52QFNPOLDGY0JMIHWT4&tp_b=3TVSS0C0E2M52QFNPOLDGY0JMIHWT4&c=365799&tp_c=365799","heads":5,"tails":5,"studentIndex":5,"studentTrueHypers":{"a":1,"b":4},"studentGuess":0.4,"delta":0.2,"totalExamples":10,"bonus":0,"bonusSoFar":0.48},{"rt":5596,"response":{"heads":"6","tails":"6"},"type":"response","condition":"seqNoFeedback","trueTheta":0.5,"classrooms":["A","B"],"studentTrueClassroom":"B","exampleSet":"first","trial_type":"survey-html-form","trial_index":64,"time_elapsed":558738,"internal_node_id":"0.0-57.0-0.0","params":{"nStudents":24,"maxFlips":30,"completionMinutes":45,"basePay":8,"maxBonus":9,"perTrialBonus":0.5,"perTrialBonusThreshold":0.05,"exampleCost":0.01},"classroomParams":{"A":{"a":1,"b":4},"B":{"a":4,"b":1},"C":{"a":2,"b":8},"D":{"a":8,"b":2}},"conditions":["nonSeqFull","nonSeqPartial","seqNoFeedback","seqFeedback"],"classroomPairings":[["A","B"],["C","D"]],"coinWeights":[0.2,0.5,0.8],"subjectId":"A19ZWBQT8A3LIR","assignmentId":"3TVSS0C0E2M52QFNPOLDGY0JMIHWT4","hitId":"3SD15I2WD2G0NA4TSPXGB81L5S7630","url":"https://gershmanlab.com/experiments/alicia/teaching/experiment/?hitId=3SD15I2WD2G0NA4TSPXGB81L5S7630&workerId=A19ZWBQT8A3LIR&assignmentId=3TVSS0C0E2M52QFNPOLDGY0JMIHWT4&a=0SVT9&tp_a=0SVT9&b=3TVSS0C0E2M52QFNPOLDGY0JMIHWT4&tp_b=3TVSS0C0E2M52QFNPOLDGY0JMIHWT4&c=365799&tp_c=365799","heads":6,"tails":6,"studentIndex":6,"studentTrueHypers":{"a":4,"b":1},"studentGuess":0.5882352941176471,"delta":0.08823529411764708,"totalExamples":12,"bonusSoFar":0.48},{"rt":5532,"response":{"heads":"6","tails":"6"},"type":"response","condition":"seqNoFeedback","trueTheta":0.5,"classrooms":["A","B"],"studentTrueClassroom":"B","exampleSet":"second","trial_type":"survey-html-form","trial_index":67,"time_elapsed":571278,"internal_node_id":"0.0-60.0-0.0","params":{"nStudents":24,"maxFlips":30,"completionMinutes":45,"basePay":8,"maxBonus":9,"perTrialBonus":0.5,"perTrialBonusThreshold":0.05,"exampleCost":0.01},"classroomParams":{"A":{"a":1,"b":4},"B":{"a":4,"b":1},"C":{"a":2,"b":8},"D":{"a":8,"b":2}},"conditions":["nonSeqFull","nonSeqPartial","seqNoFeedback","seqFeedback"],"classroomPairings":[["A","B"],["C","D"]],"coinWeights":[0.2,0.5,0.8],"subjectId":"A19ZWBQT8A3LIR","assignmentId":"3TVSS0C0E2M52QFNPOLDGY0JMIHWT4","hitId":"3SD15I2WD2G0NA4TSPXGB81L5S7630","url":"https://gershmanlab.com/experiments/alicia/teaching/experiment/?hitId=3SD15I2WD2G0NA4TSPXGB81L5S7630&workerId=A19ZWBQT8A3LIR&assignmentId=3TVSS0C0E2M52QFNPOLDGY0JMIHWT4&a=0SVT9&tp_a=0SVT9&b=3TVSS0C0E2M52QFNPOLDGY0JMIHWT4&tp_b=3TVSS0C0E2M52QFNPOLDGY0JMIHWT4&c=365799&tp_c=365799","firstResponseHeads":6,"firstResponseTails":6,"secondResponseHeads":6,"secondResponseTails":6,"totalHeads":12,"totalTails":12,"studentIndex":6,"studentTrueHypers":{"a":4,"b":1},"studentGuess":0.5517241379310345,"delta":0.051724137931034475,"bonus":0,"bonusSoFar":0.48,"totalExamples":24},{"rt":6178,"response":{"heads":"7","tails":"7"},"type":"response","condition":"nonSeqPartial","trueTheta":0.5,"classrooms":["A","B"],"studentTrueClassroom":"B","exampleSet":"first","trial_type":"survey-html-form","trial_index":73,"time_elapsed":589429,"internal_node_id":"0.0-66.0-0.0","params":{"nStudents":24,"maxFlips":30,"completionMinutes":45,"basePay":8,"maxBonus":9,"perTrialBonus":0.5,"perTrialBonusThreshold":0.05,"exampleCost":0.01},"classroomParams":{"A":{"a":1,"b":4},"B":{"a":4,"b":1},"C":{"a":2,"b":8},"D":{"a":8,"b":2}},"conditions":["nonSeqFull","nonSeqPartial","seqNoFeedback","seqFeedback"],"classroomPairings":[["A","B"],["C","D"]],"coinWeights":[0.2,0.5,0.8],"subjectId":"A19ZWBQT8A3LIR","assignmentId":"3TVSS0C0E2M52QFNPOLDGY0JMIHWT4","hitId":"3SD15I2WD2G0NA4TSPXGB81L5S7630","url":"https://gershmanlab.com/experiments/alicia/teaching/experiment/?hitId=3SD15I2WD2G0NA4TSPXGB81L5S7630&workerId=A19ZWBQT8A3LIR&assignmentId=3TVSS0C0E2M52QFNPOLDGY0JMIHWT4&a=0SVT9&tp_a=0SVT9&b=3TVSS0C0E2M52QFNPOLDGY0JMIHWT4&tp_b=3TVSS0C0E2M52QFNPOLDGY0JMIHWT4&c=365799&tp_c=365799","heads":7,"tails":7,"studentIndex":7,"studentTrueHypers":{"a":4,"b":1},"studentGuess":0.5789473684210527,"delta":0.07894736842105265,"totalExamples":14,"bonus":0,"bonusSoFar":0.48},{"rt":5773,"response":{"heads":"8","tails":"8"},"type":"response","condition":"nonSeqPartial","trueTheta":0.5,"classrooms":["C","D"],"studentTrueClassroom":"C","exampleSet":"first","trial_type":"survey-html-form","trial_index":79,"time_elapsed":608073,"internal_node_id":"0.0-72.0-0.0","params":{"nStudents":24,"maxFlips":30,"completionMinutes":45,"basePay":8,"maxBonus":9,"perTrialBonus":0.5,"perTrialBonusThreshold":0.05,"exampleCost":0.01},"classroomParams":{"A":{"a":1,"b":4},"B":{"a":4,"b":1},"C":{"a":2,"b":8},"D":{"a":8,"b":2}},"conditions":["nonSeqFull","nonSeqPartial","seqNoFeedback","seqFeedback"],"classroomPairings":[["A","B"],["C","D"]],"coinWeights":[0.2,0.5,0.8],"subjectId":"A19ZWBQT8A3LIR","assignmentId":"3TVSS0C0E2M52QFNPOLDGY0JMIHWT4","hitId":"3SD15I2WD2G0NA4TSPXGB81L5S7630","url":"https://gershmanlab.com/experiments/alicia/teaching/experiment/?hitId=3SD15I2WD2G0NA4TSPXGB81L5S7630&workerId=A19ZWBQT8A3LIR&assignmentId=3TVSS0C0E2M52QFNPOLDGY0JMIHWT4&a=0SVT9&tp_a=0SVT9&b=3TVSS0C0E2M52QFNPOLDGY0JMIHWT4&tp_b=3TVSS0C0E2M52QFNPOLDGY0JMIHWT4&c=365799&tp_c=365799","heads":8,"tails":8,"studentIndex":8,"studentTrueHypers":{"a":2,"b":8},"studentGuess":0.38461538461538464,"delta":0.11538461538461536,"totalExamples":16,"bonus":0,"bonusSoFar":0.48},{"rt":6869,"response":{"heads":"10","tails":"10"},"type":"response","condition":"nonSeqPartial","trueTheta":0.8,"classrooms":["A","B"],"studentTrueClassroom":"A","exampleSet":"first","trial_type":"survey-html-form","trial_index":85,"time_elapsed":628444,"internal_node_id":"0.0-78.0-0.0","params":{"nStudents":24,"maxFlips":30,"completionMinutes":45,"basePay":8,"maxBonus":9,"perTrialBonus":0.5,"perTrialBonusThreshold":0.05,"exampleCost":0.01},"classroomParams":{"A":{"a":1,"b":4},"B":{"a":4,"b":1},"C":{"a":2,"b":8},"D":{"a":8,"b":2}},"conditions":["nonSeqFull","nonSeqPartial","seqNoFeedback","seqFeedback"],"classroomPairings":[["A","B"],["C","D"]],"coinWeights":[0.2,0.5,0.8],"subjectId":"A19ZWBQT8A3LIR","assignmentId":"3TVSS0C0E2M52QFNPOLDGY0JMIHWT4","hitId":"3SD15I2WD2G0NA4TSPXGB81L5S7630","url":"https://gershmanlab.com/experiments/alicia/teaching/experiment/?hitId=3SD15I2WD2G0NA4TSPXGB81L5S7630&workerId=A19ZWBQT8A3LIR&assignmentId=3TVSS0C0E2M52QFNPOLDGY0JMIHWT4&a=0SVT9&tp_a=0SVT9&b=3TVSS0C0E2M52QFNPOLDGY0JMIHWT4&tp_b=3TVSS0C0E2M52QFNPOLDGY0JMIHWT4&c=365799&tp_c=365799","heads":10,"tails":10,"studentIndex":9,"studentTrueHypers":{"a":1,"b":4},"studentGuess":0.44,"delta":0.36000000000000004,"totalExamples":20,"bonus":0,"bonusSoFar":0.48},{"rt":7678,"response":{"heads":"11","tails":"11"},"type":"response","condition":"nonSeqFull","trueTheta":0.8,"classrooms":["A","B"],"studentTrueClassroom":"B","exampleSet":"first","trial_type":"survey-html-form","trial_index":91,"time_elapsed":650959,"internal_node_id":"0.0-84.0-0.0","params":{"nStudents":24,"maxFlips":30,"completionMinutes":45,"basePay":8,"maxBonus":9,"perTrialBonus":0.5,"perTrialBonusThreshold":0.05,"exampleCost":0.01},"classroomParams":{"A":{"a":1,"b":4},"B":{"a":4,"b":1},"C":{"a":2,"b":8},"D":{"a":8,"b":2}},"conditions":["nonSeqFull","nonSeqPartial","seqNoFeedback","seqFeedback"],"classroomPairings":[["A","B"],["C","D"]],"coinWeights":[0.2,0.5,0.8],"subjectId":"A19ZWBQT8A3LIR","assignmentId":"3TVSS0C0E2M52QFNPOLDGY0JMIHWT4","hitId":"3SD15I2WD2G0NA4TSPXGB81L5S7630","url":"https://gershmanlab.com/experiments/alicia/teaching/experiment/?hitId=3SD15I2WD2G0NA4TSPXGB81L5S7630&workerId=A19ZWBQT8A3LIR&assignmentId=3TVSS0C0E2M52QFNPOLDGY0JMIHWT4&a=0SVT9&tp_a=0SVT9&b=3TVSS0C0E2M52QFNPOLDGY0JMIHWT4&tp_b=3TVSS0C0E2M52QFNPOLDGY0JMIHWT4&c=365799&tp_c=365799","heads":11,"tails":11,"studentIndex":10,"studentTrueHypers":{"a":4,"b":1},"studentGuess":0.5555555555555556,"delta":0.24444444444444446,"totalExamples":22,"bonus":0,"bonusSoFar":0.48},{"rt":5611,"response":{"heads":"15","tails":"15"},"type":"response","condition":"nonSeqFull","trueTheta":0.5,"classrooms":["C","D"],"studentTrueClassroom":"C","exampleSet":"first","trial_type":"survey-html-form","trial_index":97,"time_elapsed":669995,"internal_node_id":"0.0-90.0-0.0","params":{"nStudents":24,"maxFlips":30,"completionMinutes":45,"basePay":8,"maxBonus":9,"perTrialBonus":0.5,"perTrialBonusThreshold":0.05,"exampleCost":0.01},"classroomParams":{"A":{"a":1,"b":4},"B":{"a":4,"b":1},"C":{"a":2,"b":8},"D":{"a":8,"b":2}},"conditions":["nonSeqFull","nonSeqPartial","seqNoFeedback","seqFeedback"],"classroomPairings":[["A","B"],["C","D"]],"coinWeights":[0.2,0.5,0.8],"subjectId":"A19ZWBQT8A3LIR","assignmentId":"3TVSS0C0E2M52QFNPOLDGY0JMIHWT4","hitId":"3SD15I2WD2G0NA4TSPXGB81L5S7630","url":"https://gershmanlab.com/experiments/alicia/teaching/experiment/?hitId=3SD15I2WD2G0NA4TSPXGB81L5S7630&workerId=A19ZWBQT8A3LIR&assignmentId=3TVSS0C0E2M52QFNPOLDGY0JMIHWT4&a=0SVT9&tp_a=0SVT9&b=3TVSS0C0E2M52QFNPOLDGY0JMIHWT4&tp_b=3TVSS0C0E2M52QFNPOLDGY0JMIHWT4&c=365799&tp_c=365799","heads":15,"tails":15,"studentIndex":11,"studentTrueHypers":{"a":2,"b":8},"studentGuess":0.425,"delta":0.07500000000000001,"totalExamples":30,"bonus":0,"bonusSoFar":0.48},{"rt":24689,"response":{"heads":"0","tails":"30"},"type":"response","condition":"nonSeqFull","trueTheta":0.2,"classrooms":["C","D"],"studentTrueClassroom":"C","exampleSet":"first","trial_type":"survey-html-form","trial_index":103,"time_elapsed":707241,"internal_node_id":"0.0-96.0-0.0","params":{"nStudents":24,"maxFlips":30,"completionMinutes":45,"basePay":8,"maxBonus":9,"perTrialBonus":0.5,"perTrialBonusThreshold":0.05,"exampleCost":0.01},"classroomParams":{"A":{"a":1,"b":4},"B":{"a":4,"b":1},"C":{"a":2,"b":8},"D":{"a":8,"b":2}},"conditions":["nonSeqFull","nonSeqPartial","seqNoFeedback","seqFeedback"],"classroomPairings":[["A","B"],["C","D"]],"coinWeights":[0.2,0.5,0.8],"subjectId":"A19ZWBQT8A3LIR","assignmentId":"3TVSS0C0E2M52QFNPOLDGY0JMIHWT4","hitId":"3SD15I2WD2G0NA4TSPXGB81L5S7630","url":"https://gershmanlab.com/experiments/alicia/teaching/experiment/?hitId=3SD15I2WD2G0NA4TSPXGB81L5S7630&workerId=A19ZWBQT8A3LIR&assignmentId=3TVSS0C0E2M52QFNPOLDGY0JMIHWT4&a=0SVT9&tp_a=0SVT9&b=3TVSS0C0E2M52QFNPOLDGY0JMIHWT4&tp_b=3TVSS0C0E2M52QFNPOLDGY0JMIHWT4&c=365799&tp_c=365799","heads":0,"tails":30,"studentIndex":12,"studentTrueHypers":{"a":2,"b":8},"studentGuess":0.05,"delta":0.15000000000000002,"totalExamples":30,"bonus":0,"bonusSoFar":0.48},{"rt":4303,"response":{"heads":"30","tails":"0"},"type":"response","condition":"nonSeqFull","trueTheta":0.8,"classrooms":["C","D"],"studentTrueClassroom":"C","exampleSet":"first","trial_type":"survey-html-form","trial_index":109,"time_elapsed":724370,"internal_node_id":"0.0-102.0-0.0","params":{"nStudents":24,"maxFlips":30,"completionMinutes":45,"basePay":8,"maxBonus":9,"perTrialBonus":0.5,"perTrialBonusThreshold":0.05,"exampleCost":0.01},"classroomParams":{"A":{"a":1,"b":4},"B":{"a":4,"b":1},"C":{"a":2,"b":8},"D":{"a":8,"b":2}},"conditions":["nonSeqFull","nonSeqPartial","seqNoFeedback","seqFeedback"],"classroomPairings":[["A","B"],["C","D"]],"coinWeights":[0.2,0.5,0.8],"subjectId":"A19ZWBQT8A3LIR","assignmentId":"3TVSS0C0E2M52QFNPOLDGY0JMIHWT4","hitId":"3SD15I2WD2G0NA4TSPXGB81L5S7630","url":"https://gershmanlab.com/experiments/alicia/teaching/experiment/?hitId=3SD15I2WD2G0NA4TSPXGB81L5S7630&workerId=A19ZWBQT8A3LIR&assignmentId=3TVSS0C0E2M52QFNPOLDGY0JMIHWT4&a=0SVT9&tp_a=0SVT9&b=3TVSS0C0E2M52QFNPOLDGY0JMIHWT4&tp_b=3TVSS0C0E2M52QFNPOLDGY0JMIHWT4&c=365799&tp_c=365799","heads":30,"tails":0,"studentIndex":13,"studentTrueHypers":{"a":2,"b":8},"studentGuess":0.8,"delta":0,"totalExamples":30,"bonus":0.2,"bonusSoFar":0.68},{"rt":5549,"response":{"heads":"15","tails":"15"},"type":"response","condition":"nonSeqFull","trueTheta":0.5,"classrooms":["A","B"],"studentTrueClassroom":"B","exampleSet":"first","trial_type":"survey-html-form","trial_index":115,"time_elapsed":747905,"internal_node_id":"0.0-108.0-0.0","params":{"nStudents":24,"maxFlips":30,"completionMinutes":45,"basePay":8,"maxBonus":9,"perTrialBonus":0.5,"perTrialBonusThreshold":0.05,"exampleCost":0.01},"classroomParams":{"A":{"a":1,"b":4},"B":{"a":4,"b":1},"C":{"a":2,"b":8},"D":{"a":8,"b":2}},"conditions":["nonSeqFull","nonSeqPartial","seqNoFeedback","seqFeedback"],"classroomPairings":[["A","B"],["C","D"]],"coinWeights":[0.2,0.5,0.8],"subjectId":"A19ZWBQT8A3LIR","assignmentId":"3TVSS0C0E2M52QFNPOLDGY0JMIHWT4","hitId":"3SD15I2WD2G0NA4TSPXGB81L5S7630","url":"https://gershmanlab.com/experiments/alicia/teaching/experiment/?hitId=3SD15I2WD2G0NA4TSPXGB81L5S7630&workerId=A19ZWBQT8A3LIR&assignmentId=3TVSS0C0E2M52QFNPOLDGY0JMIHWT4&a=0SVT9&tp_a=0SVT9&b=3TVSS0C0E2M52QFNPOLDGY0JMIHWT4&tp_b=3TVSS0C0E2M52QFNPOLDGY0JMIHWT4&c=365799&tp_c=365799","heads":15,"tails":15,"studentIndex":14,"studentTrueHypers":{"a":4,"b":1},"studentGuess":0.5428571428571428,"delta":0.042857142857142816,"totalExamples":30,"bonus":0.2,"bonusSoFar":0.88},{"rt":9044,"response":{"heads":"15","tails":"15"},"type":"response","condition":"seqFeedback","trueTheta":0.5,"classrooms":["C","D"],"studentTrueClassroom":"C","exampleSet":"first","trial_type":"survey-html-form","trial_index":121,"time_elapsed":769311,"internal_node_id":"0.0-114.0-0.0","params":{"nStudents":24,"maxFlips":30,"completionMinutes":45,"basePay":8,"maxBonus":9,"perTrialBonus":0.5,"perTrialBonusThreshold":0.05,"exampleCost":0.01},"classroomParams":{"A":{"a":1,"b":4},"B":{"a":4,"b":1},"C":{"a":2,"b":8},"D":{"a":8,"b":2}},"conditions":["nonSeqFull","nonSeqPartial","seqNoFeedback","seqFeedback"],"classroomPairings":[["A","B"],["C","D"]],"coinWeights":[0.2,0.5,0.8],"subjectId":"A19ZWBQT8A3LIR","assignmentId":"3TVSS0C0E2M52QFNPOLDGY0JMIHWT4","hitId":"3SD15I2WD2G0NA4TSPXGB81L5S7630","url":"https://gershmanlab.com/experiments/alicia/teaching/experiment/?hitId=3SD15I2WD2G0NA4TSPXGB81L5S7630&workerId=A19ZWBQT8A3LIR&assignmentId=3TVSS0C0E2M52QFNPOLDGY0JMIHWT4&a=0SVT9&tp_a=0SVT9&b=3TVSS0C0E2M52QFNPOLDGY0JMIHWT4&tp_b=3TVSS0C0E2M52QFNPOLDGY0JMIHWT4&c=365799&tp_c=365799","heads":15,"tails":15,"studentIndex":15,"studentTrueHypers":{"a":2,"b":8},"studentGuess":0.425,"delta":0.07500000000000001,"totalExamples":30,"bonusSoFar":0.88},{"rt":9102,"response":{"heads":"14","tails":"14"},"type":"response","condition":"seqFeedback","trueTheta":0.5,"classrooms":["C","D"],"studentTrueClassroom":"C","exampleSet":"second","trial_type":"survey-html-form","trial_index":125,"time_elapsed":789037,"internal_node_id":"0.0-118.0-0.0","params":{"nStudents":24,"maxFlips":30,"completionMinutes":45,"basePay":8,"maxBonus":9,"perTrialBonus":0.5,"perTrialBonusThreshold":0.05,"exampleCost":0.01},"classroomParams":{"A":{"a":1,"b":4},"B":{"a":4,"b":1},"C":{"a":2,"b":8},"D":{"a":8,"b":2}},"conditions":["nonSeqFull","nonSeqPartial","seqNoFeedback","seqFeedback"],"classroomPairings":[["A","B"],["C","D"]],"coinWeights":[0.2,0.5,0.8],"subjectId":"A19ZWBQT8A3LIR","assignmentId":"3TVSS0C0E2M52QFNPOLDGY0JMIHWT4","hitId":"3SD15I2WD2G0NA4TSPXGB81L5S7630","url":"https://gershmanlab.com/experiments/alicia/teaching/experiment/?hitId=3SD15I2WD2G0NA4TSPXGB81L5S7630&workerId=A19ZWBQT8A3LIR&assignmentId=3TVSS0C0E2M52QFNPOLDGY0JMIHWT4&a=0SVT9&tp_a=0SVT9&b=3TVSS0C0E2M52QFNPOLDGY0JMIHWT4&tp_b=3TVSS0C0E2M52QFNPOLDGY0JMIHWT4&c=365799&tp_c=365799","firstResponseHeads":15,"firstResponseTails":15,"secondResponseHeads":14,"secondResponseTails":14,"totalHeads":29,"totalTails":29,"studentIndex":15,"studentTrueHypers":{"a":2,"b":8},"studentGuess":0.45588235294117646,"delta":0.04411764705882354,"bonus":0,"bonusSoFar":0.88,"totalExamples":58},{"rt":6329,"response":{"heads":"15","tails":"15"},"type":"response","condition":"seqNoFeedback","trueTheta":0.5,"classrooms":["C","D"],"studentTrueClassroom":"C","exampleSet":"first","trial_type":"survey-html-form","trial_index":131,"time_elapsed":808011,"internal_node_id":"0.0-124.0-0.0","params":{"nStudents":24,"maxFlips":30,"completionMinutes":45,"basePay":8,"maxBonus":9,"perTrialBonus":0.5,"perTrialBonusThreshold":0.05,"exampleCost":0.01},"classroomParams":{"A":{"a":1,"b":4},"B":{"a":4,"b":1},"C":{"a":2,"b":8},"D":{"a":8,"b":2}},"conditions":["nonSeqFull","nonSeqPartial","seqNoFeedback","seqFeedback"],"classroomPairings":[["A","B"],["C","D"]],"coinWeights":[0.2,0.5,0.8],"subjectId":"A19ZWBQT8A3LIR","assignmentId":"3TVSS0C0E2M52QFNPOLDGY0JMIHWT4","hitId":"3SD15I2WD2G0NA4TSPXGB81L5S7630","url":"https://gershmanlab.com/experiments/alicia/teaching/experiment/?hitId=3SD15I2WD2G0NA4TSPXGB81L5S7630&workerId=A19ZWBQT8A3LIR&assignmentId=3TVSS0C0E2M52QFNPOLDGY0JMIHWT4&a=0SVT9&tp_a=0SVT9&b=3TVSS0C0E2M52QFNPOLDGY0JMIHWT4&tp_b=3TVSS0C0E2M52QFNPOLDGY0JMIHWT4&c=365799&tp_c=365799","heads":15,"tails":15,"studentIndex":16,"studentTrueHypers":{"a":2,"b":8},"studentGuess":0.425,"delta":0.07500000000000001,"totalExamples":30,"bonusSoFar":0.88},{"rt":8931,"response":{"heads":"15","tails":"15"},"type":"response","condition":"seqNoFeedback","trueTheta":0.5,"classrooms":["C","D"],"studentTrueClassroom":"C","exampleSet":"second","trial_type":"survey-html-form","trial_index":134,"time_elapsed":822201,"internal_node_id":"0.0-127.0-0.0","params":{"nStudents":24,"maxFlips":30,"completionMinutes":45,"basePay":8,"maxBonus":9,"perTrialBonus":0.5,"perTrialBonusThreshold":0.05,"exampleCost":0.01},"classroomParams":{"A":{"a":1,"b":4},"B":{"a":4,"b":1},"C":{"a":2,"b":8},"D":{"a":8,"b":2}},"conditions":["nonSeqFull","nonSeqPartial","seqNoFeedback","seqFeedback"],"classroomPairings":[["A","B"],["C","D"]],"coinWeights":[0.2,0.5,0.8],"subjectId":"A19ZWBQT8A3LIR","assignmentId":"3TVSS0C0E2M52QFNPOLDGY0JMIHWT4","hitId":"3SD15I2WD2G0NA4TSPXGB81L5S7630","url":"https://gershmanlab.com/experiments/alicia/teaching/experiment/?hitId=3SD15I2WD2G0NA4TSPXGB81L5S7630&workerId=A19ZWBQT8A3LIR&assignmentId=3TVSS0C0E2M52QFNPOLDGY0JMIHWT4&a=0SVT9&tp_a=0SVT9&b=3TVSS0C0E2M52QFNPOLDGY0JMIHWT4&tp_b=3TVSS0C0E2M52QFNPOLDGY0JMIHWT4&c=365799&tp_c=365799","firstResponseHeads":15,"firstResponseTails":15,"secondResponseHeads":15,"secondResponseTails":15,"totalHeads":30,"totalTails":30,"studentIndex":16,"studentTrueHypers":{"a":2,"b":8},"studentGuess":0.45714285714285713,"delta":0.04285714285714287,"bonus":0,"bonusSoFar":0.88,"totalExamples":60},{"rt":5309,"response":{"heads":"15","tails":"15"},"type":"response","condition":"nonSeqFull","trueTheta":0.2,"classrooms":["A","B"],"studentTrueClassroom":"B","exampleSet":"first","trial_type":"survey-html-form","trial_index":140,"time_elapsed":844985,"internal_node_id":"0.0-133.0-0.0","params":{"nStudents":24,"maxFlips":30,"completionMinutes":45,"basePay":8,"maxBonus":9,"perTrialBonus":0.5,"perTrialBonusThreshold":0.05,"exampleCost":0.01},"classroomParams":{"A":{"a":1,"b":4},"B":{"a":4,"b":1},"C":{"a":2,"b":8},"D":{"a":8,"b":2}},"conditions":["nonSeqFull","nonSeqPartial","seqNoFeedback","seqFeedback"],"classroomPairings":[["A","B"],["C","D"]],"coinWeights":[0.2,0.5,0.8],"subjectId":"A19ZWBQT8A3LIR","assignmentId":"3TVSS0C0E2M52QFNPOLDGY0JMIHWT4","hitId":"3SD15I2WD2G0NA4TSPXGB81L5S7630","url":"https://gershmanlab.com/experiments/alicia/teaching/experiment/?hitId=3SD15I2WD2G0NA4TSPXGB81L5S7630&workerId=A19ZWBQT8A3LIR&assignmentId=3TVSS0C0E2M52QFNPOLDGY0JMIHWT4&a=0SVT9&tp_a=0SVT9&b=3TVSS0C0E2M52QFNPOLDGY0JMIHWT4&tp_b=3TVSS0C0E2M52QFNPOLDGY0JMIHWT4&c=365799&tp_c=365799","heads":15,"tails":15,"studentIndex":17,"studentTrueHypers":{"a":4,"b":1},"studentGuess":0.5428571428571428,"delta":0.3428571428571428,"totalExamples":30,"bonus":0,"bonusSoFar":0.88},{"rt":10977,"response":{"heads":"29","tails":"1"},"type":"response","condition":"nonSeqPartial","trueTheta":0.8,"classrooms":["C","D"],"studentTrueClassroom":"C","exampleSet":"first","trial_type":"survey-html-form","trial_index":146,"time_elapsed":869360,"internal_node_id":"0.0-139.0-0.0","params":{"nStudents":24,"maxFlips":30,"completionMinutes":45,"basePay":8,"maxBonus":9,"perTrialBonus":0.5,"perTrialBonusThreshold":0.05,"exampleCost":0.01},"classroomParams":{"A":{"a":1,"b":4},"B":{"a":4,"b":1},"C":{"a":2,"b":8},"D":{"a":8,"b":2}},"conditions":["nonSeqFull","nonSeqPartial","seqNoFeedback","seqFeedback"],"classroomPairings":[["A","B"],["C","D"]],"coinWeights":[0.2,0.5,0.8],"subjectId":"A19ZWBQT8A3LIR","assignmentId":"3TVSS0C0E2M52QFNPOLDGY0JMIHWT4","hitId":"3SD15I2WD2G0NA4TSPXGB81L5S7630","url":"https://gershmanlab.com/experiments/alicia/teaching/experiment/?hitId=3SD15I2WD2G0NA4TSPXGB81L5S7630&workerId=A19ZWBQT8A3LIR&assignmentId=3TVSS0C0E2M52QFNPOLDGY0JMIHWT4&a=0SVT9&tp_a=0SVT9&b=3TVSS0C0E2M52QFNPOLDGY0JMIHWT4&tp_b=3TVSS0C0E2M52QFNPOLDGY0JMIHWT4&c=365799&tp_c=365799","heads":29,"tails":1,"studentIndex":18,"studentTrueHypers":{"a":2,"b":8},"studentGuess":0.775,"delta":0.025000000000000022,"totalExamples":30,"bonus":0.2,"bonusSoFar":1.08},{"rt":5489,"response":{"heads":"30","tails":"0"},"type":"response","condition":"seqFeedback","trueTheta":0.8,"classrooms":["A","B"],"studentTrueClassroom":"A","exampleSet":"first","trial_type":"survey-html-form","trial_index":152,"time_elapsed":901717,"internal_node_id":"0.0-145.0-0.0","params":{"nStudents":24,"maxFlips":30,"completionMinutes":45,"basePay":8,"maxBonus":9,"perTrialBonus":0.5,"perTrialBonusThreshold":0.05,"exampleCost":0.01},"classroomParams":{"A":{"a":1,"b":4},"B":{"a":4,"b":1},"C":{"a":2,"b":8},"D":{"a":8,"b":2}},"conditions":["nonSeqFull","nonSeqPartial","seqNoFeedback","seqFeedback"],"classroomPairings":[["A","B"],["C","D"]],"coinWeights":[0.2,0.5,0.8],"subjectId":"A19ZWBQT8A3LIR","assignmentId":"3TVSS0C0E2M52QFNPOLDGY0JMIHWT4","hitId":"3SD15I2WD2G0NA4TSPXGB81L5S7630","url":"https://gershmanlab.com/experiments/alicia/teaching/experiment/?hitId=3SD15I2WD2G0NA4TSPXGB81L5S7630&workerId=A19ZWBQT8A3LIR&assignmentId=3TVSS0C0E2M52QFNPOLDGY0JMIHWT4&a=0SVT9&tp_a=0SVT9&b=3TVSS0C0E2M52QFNPOLDGY0JMIHWT4&tp_b=3TVSS0C0E2M52QFNPOLDGY0JMIHWT4&c=365799&tp_c=365799","heads":30,"tails":0,"studentIndex":19,"studentTrueHypers":{"a":1,"b":4},"studentGuess":0.8857142857142857,"delta":0.08571428571428563,"totalExamples":30,"bonusSoFar":1.08},{"rt":19168,"response":{"heads":"20","tails":"10"},"type":"response","condition":"seqFeedback","trueTheta":0.8,"classrooms":["A","B"],"studentTrueClassroom":"A","exampleSet":"second","trial_type":"survey-html-form","trial_index":156,"time_elapsed":930997,"internal_node_id":"0.0-149.0-0.0","params":{"nStudents":24,"maxFlips":30,"completionMinutes":45,"basePay":8,"maxBonus":9,"perTrialBonus":0.5,"perTrialBonusThreshold":0.05,"exampleCost":0.01},"classroomParams":{"A":{"a":1,"b":4},"B":{"a":4,"b":1},"C":{"a":2,"b":8},"D":{"a":8,"b":2}},"conditions":["nonSeqFull","nonSeqPartial","seqNoFeedback","seqFeedback"],"classroomPairings":[["A","B"],["C","D"]],"coinWeights":[0.2,0.5,0.8],"subjectId":"A19ZWBQT8A3LIR","assignmentId":"3TVSS0C0E2M52QFNPOLDGY0JMIHWT4","hitId":"3SD15I2WD2G0NA4TSPXGB81L5S7630","url":"https://gershmanlab.com/experiments/alicia/teaching/experiment/?hitId=3SD15I2WD2G0NA4TSPXGB81L5S7630&workerId=A19ZWBQT8A3LIR&assignmentId=3TVSS0C0E2M52QFNPOLDGY0JMIHWT4&a=0SVT9&tp_a=0SVT9&b=3TVSS0C0E2M52QFNPOLDGY0JMIHWT4&tp_b=3TVSS0C0E2M52QFNPOLDGY0JMIHWT4&c=365799&tp_c=365799","firstResponseHeads":30,"firstResponseTails":0,"secondResponseHeads":20,"secondResponseTails":10,"totalHeads":50,"totalTails":10,"studentIndex":19,"studentTrueHypers":{"a":1,"b":4},"studentGuess":0.7846153846153846,"delta":0.015384615384615441,"bonus":0,"bonusSoFar":1.08,"totalExamples":60},{"rt":5817,"response":{"heads":"0","tails":"30"},"type":"response","condition":"seqNoFeedback","trueTheta":0.2,"classrooms":["C","D"],"studentTrueClassroom":"D","exampleSet":"first","trial_type":"survey-html-form","trial_index":162,"time_elapsed":952163,"internal_node_id":"0.0-155.0-0.0","params":{"nStudents":24,"maxFlips":30,"completionMinutes":45,"basePay":8,"maxBonus":9,"perTrialBonus":0.5,"perTrialBonusThreshold":0.05,"exampleCost":0.01},"classroomParams":{"A":{"a":1,"b":4},"B":{"a":4,"b":1},"C":{"a":2,"b":8},"D":{"a":8,"b":2}},"conditions":["nonSeqFull","nonSeqPartial","seqNoFeedback","seqFeedback"],"classroomPairings":[["A","B"],["C","D"]],"coinWeights":[0.2,0.5,0.8],"subjectId":"A19ZWBQT8A3LIR","assignmentId":"3TVSS0C0E2M52QFNPOLDGY0JMIHWT4","hitId":"3SD15I2WD2G0NA4TSPXGB81L5S7630","url":"https://gershmanlab.com/experiments/alicia/teaching/experiment/?hitId=3SD15I2WD2G0NA4TSPXGB81L5S7630&workerId=A19ZWBQT8A3LIR&assignmentId=3TVSS0C0E2M52QFNPOLDGY0JMIHWT4&a=0SVT9&tp_a=0SVT9&b=3TVSS0C0E2M52QFNPOLDGY0JMIHWT4&tp_b=3TVSS0C0E2M52QFNPOLDGY0JMIHWT4&c=365799&tp_c=365799","heads":0,"tails":30,"studentIndex":20,"studentTrueHypers":{"a":8,"b":2},"studentGuess":0.2,"delta":0,"totalExamples":30,"bonusSoFar":1.08},{"rt":4928,"response":{"heads":"0","tails":"30"},"type":"response","condition":"seqNoFeedback","trueTheta":0.2,"classrooms":["C","D"],"studentTrueClassroom":"D","exampleSet":"second","trial_type":"survey-html-form","trial_index":165,"time_elapsed":963848,"internal_node_id":"0.0-158.0-0.0","params":{"nStudents":24,"maxFlips":30,"completionMinutes":45,"basePay":8,"maxBonus":9,"perTrialBonus":0.5,"perTrialBonusThreshold":0.05,"exampleCost":0.01},"classroomParams":{"A":{"a":1,"b":4},"B":{"a":4,"b":1},"C":{"a":2,"b":8},"D":{"a":8,"b":2}},"conditions":["nonSeqFull","nonSeqPartial","seqNoFeedback","seqFeedback"],"classroomPairings":[["A","B"],["C","D"]],"coinWeights":[0.2,0.5,0.8],"subjectId":"A19ZWBQT8A3LIR","assignmentId":"3TVSS0C0E2M52QFNPOLDGY0JMIHWT4","hitId":"3SD15I2WD2G0NA4TSPXGB81L5S7630","url":"https://gershmanlab.com/experiments/alicia/teaching/experiment/?hitId=3SD15I2WD2G0NA4TSPXGB81L5S7630&workerId=A19ZWBQT8A3LIR&assignmentId=3TVSS0C0E2M52QFNPOLDGY0JMIHWT4&a=0SVT9&tp_a=0SVT9&b=3TVSS0C0E2M52QFNPOLDGY0JMIHWT4&tp_b=3TVSS0C0E2M52QFNPOLDGY0JMIHWT4&c=365799&tp_c=365799","firstResponseHeads":0,"firstResponseTails":30,"secondResponseHeads":0,"secondResponseTails":30,"totalHeads":0,"totalTails":60,"studentIndex":20,"studentTrueHypers":{"a":8,"b":2},"studentGuess":0.11428571428571428,"delta":0.08571428571428573,"bonus":0,"bonusSoFar":1.08,"totalExamples":60},{"rt":4378,"response":{"heads":"15","tails":"15"},"type":"response","condition":"seqFeedback","trueTheta":0.5,"classrooms":["A","B"],"studentTrueClassroom":"B","exampleSet":"first","trial_type":"survey-html-form","trial_index":171,"time_elapsed":983063,"internal_node_id":"0.0-164.0-0.0","params":{"nStudents":24,"maxFlips":30,"completionMinutes":45,"basePay":8,"maxBonus":9,"perTrialBonus":0.5,"perTrialBonusThreshold":0.05,"exampleCost":0.01},"classroomParams":{"A":{"a":1,"b":4},"B":{"a":4,"b":1},"C":{"a":2,"b":8},"D":{"a":8,"b":2}},"conditions":["nonSeqFull","nonSeqPartial","seqNoFeedback","seqFeedback"],"classroomPairings":[["A","B"],["C","D"]],"coinWeights":[0.2,0.5,0.8],"subjectId":"A19ZWBQT8A3LIR","assignmentId":"3TVSS0C0E2M52QFNPOLDGY0JMIHWT4","hitId":"3SD15I2WD2G0NA4TSPXGB81L5S7630","url":"https://gershmanlab.com/experiments/alicia/teaching/experiment/?hitId=3SD15I2WD2G0NA4TSPXGB81L5S7630&workerId=A19ZWBQT8A3LIR&assignmentId=3TVSS0C0E2M52QFNPOLDGY0JMIHWT4&a=0SVT9&tp_a=0SVT9&b=3TVSS0C0E2M52QFNPOLDGY0JMIHWT4&tp_b=3TVSS0C0E2M52QFNPOLDGY0JMIHWT4&c=365799&tp_c=365799","heads":15,"tails":15,"studentIndex":21,"studentTrueHypers":{"a":4,"b":1},"studentGuess":0.5428571428571428,"delta":0.042857142857142816,"totalExamples":30,"bonusSoFar":1.08},{"rt":7892,"response":{"heads":"15","tails":"15"},"type":"response","condition":"seqFeedback","trueTheta":0.5,"classrooms":["A","B"],"studentTrueClassroom":"B","exampleSet":"second","trial_type":"survey-html-form","trial_index":175,"time_elapsed":1004978,"internal_node_id":"0.0-168.0-0.0","params":{"nStudents":24,"maxFlips":30,"completionMinutes":45,"basePay":8,"maxBonus":9,"perTrialBonus":0.5,"perTrialBonusThreshold":0.05,"exampleCost":0.01},"classroomParams":{"A":{"a":1,"b":4},"B":{"a":4,"b":1},"C":{"a":2,"b":8},"D":{"a":8,"b":2}},"conditions":["nonSeqFull","nonSeqPartial","seqNoFeedback","seqFeedback"],"classroomPairings":[["A","B"],["C","D"]],"coinWeights":[0.2,0.5,0.8],"subjectId":"A19ZWBQT8A3LIR","assignmentId":"3TVSS0C0E2M52QFNPOLDGY0JMIHWT4","hitId":"3SD15I2WD2G0NA4TSPXGB81L5S7630","url":"https://gershmanlab.com/experiments/alicia/teaching/experiment/?hitId=3SD15I2WD2G0NA4TSPXGB81L5S7630&workerId=A19ZWBQT8A3LIR&assignmentId=3TVSS0C0E2M52QFNPOLDGY0JMIHWT4&a=0SVT9&tp_a=0SVT9&b=3TVSS0C0E2M52QFNPOLDGY0JMIHWT4&tp_b=3TVSS0C0E2M52QFNPOLDGY0JMIHWT4&c=365799&tp_c=365799","firstResponseHeads":15,"firstResponseTails":15,"secondResponseHeads":15,"secondResponseTails":15,"totalHeads":30,"totalTails":30,"studentIndex":21,"studentTrueHypers":{"a":4,"b":1},"studentGuess":0.5230769230769231,"delta":0.023076923076923106,"bonus":0,"bonusSoFar":1.08,"totalExamples":60},{"rt":4575,"response":{"heads":"0","tails":"30"},"type":"response","condition":"seqNoFeedback","trueTheta":0.2,"classrooms":["A","B"],"studentTrueClassroom":"A","exampleSet":"first","trial_type":"survey-html-form","trial_index":181,"time_elapsed":1025064,"internal_node_id":"0.0-174.0-0.0","params":{"nStudents":24,"maxFlips":30,"completionMinutes":45,"basePay":8,"maxBonus":9,"perTrialBonus":0.5,"perTrialBonusThreshold":0.05,"exampleCost":0.01},"classroomParams":{"A":{"a":1,"b":4},"B":{"a":4,"b":1},"C":{"a":2,"b":8},"D":{"a":8,"b":2}},"conditions":["nonSeqFull","nonSeqPartial","seqNoFeedback","seqFeedback"],"classroomPairings":[["A","B"],["C","D"]],"coinWeights":[0.2,0.5,0.8],"subjectId":"A19ZWBQT8A3LIR","assignmentId":"3TVSS0C0E2M52QFNPOLDGY0JMIHWT4","hitId":"3SD15I2WD2G0NA4TSPXGB81L5S7630","url":"https://gershmanlab.com/experiments/alicia/teaching/experiment/?hitId=3SD15I2WD2G0NA4TSPXGB81L5S7630&workerId=A19ZWBQT8A3LIR&assignmentId=3TVSS0C0E2M52QFNPOLDGY0JMIHWT4&a=0SVT9&tp_a=0SVT9&b=3TVSS0C0E2M52QFNPOLDGY0JMIHWT4&tp_b=3TVSS0C0E2M52QFNPOLDGY0JMIHWT4&c=365799&tp_c=365799","heads":0,"tails":30,"studentIndex":22,"studentTrueHypers":{"a":1,"b":4},"studentGuess":0.02857142857142857,"delta":0.17142857142857143,"totalExamples":30,"bonusSoFar":1.08},{"rt":11449,"response":{"heads":"0","tails":"30"},"type":"response","condition":"seqNoFeedback","trueTheta":0.2,"classrooms":["A","B"],"studentTrueClassroom":"A","exampleSet":"second","trial_type":"survey-html-form","trial_index":184,"time_elapsed":1043769,"internal_node_id":"0.0-177.0-0.0","params":{"nStudents":24,"maxFlips":30,"completionMinutes":45,"basePay":8,"maxBonus":9,"perTrialBonus":0.5,"perTrialBonusThreshold":0.05,"exampleCost":0.01},"classroomParams":{"A":{"a":1,"b":4},"B":{"a":4,"b":1},"C":{"a":2,"b":8},"D":{"a":8,"b":2}},"conditions":["nonSeqFull","nonSeqPartial","seqNoFeedback","seqFeedback"],"classroomPairings":[["A","B"],["C","D"]],"coinWeights":[0.2,0.5,0.8],"subjectId":"A19ZWBQT8A3LIR","assignmentId":"3TVSS0C0E2M52QFNPOLDGY0JMIHWT4","hitId":"3SD15I2WD2G0NA4TSPXGB81L5S7630","url":"https://gershmanlab.com/experiments/alicia/teaching/experiment/?hitId=3SD15I2WD2G0NA4TSPXGB81L5S7630&workerId=A19ZWBQT8A3LIR&assignmentId=3TVSS0C0E2M52QFNPOLDGY0JMIHWT4&a=0SVT9&tp_a=0SVT9&b=3TVSS0C0E2M52QFNPOLDGY0JMIHWT4&tp_b=3TVSS0C0E2M52QFNPOLDGY0JMIHWT4&c=365799&tp_c=365799","firstResponseHeads":0,"firstResponseTails":30,"secondResponseHeads":0,"secondResponseTails":30,"totalHeads":0,"totalTails":60,"studentIndex":22,"studentTrueHypers":{"a":1,"b":4},"studentGuess":0.015384615384615385,"delta":0.18461538461538463,"bonus":0,"bonusSoFar":1.08,"totalExamples":60},{"rt":7003,"response":{"heads":"30","tails":"0"},"type":"response","condition":"seqNoFeedback","trueTheta":0.8,"classrooms":["C","D"],"studentTrueClassroom":"D","exampleSet":"first","trial_type":"survey-html-form","trial_index":190,"time_elapsed":1064768,"internal_node_id":"0.0-183.0-0.0","params":{"nStudents":24,"maxFlips":30,"completionMinutes":45,"basePay":8,"maxBonus":9,"perTrialBonus":0.5,"perTrialBonusThreshold":0.05,"exampleCost":0.01},"classroomParams":{"A":{"a":1,"b":4},"B":{"a":4,"b":1},"C":{"a":2,"b":8},"D":{"a":8,"b":2}},"conditions":["nonSeqFull","nonSeqPartial","seqNoFeedback","seqFeedback"],"classroomPairings":[["A","B"],["C","D"]],"coinWeights":[0.2,0.5,0.8],"subjectId":"A19ZWBQT8A3LIR","assignmentId":"3TVSS0C0E2M52QFNPOLDGY0JMIHWT4","hitId":"3SD15I2WD2G0NA4TSPXGB81L5S7630","url":"https://gershmanlab.com/experiments/alicia/teaching/experiment/?hitId=3SD15I2WD2G0NA4TSPXGB81L5S7630&workerId=A19ZWBQT8A3LIR&assignmentId=3TVSS0C0E2M52QFNPOLDGY0JMIHWT4&a=0SVT9&tp_a=0SVT9&b=3TVSS0C0E2M52QFNPOLDGY0JMIHWT4&tp_b=3TVSS0C0E2M52QFNPOLDGY0JMIHWT4&c=365799&tp_c=365799","heads":30,"tails":0,"studentIndex":23,"studentTrueHypers":{"a":8,"b":2},"studentGuess":0.95,"delta":0.1499999999999999,"totalExamples":30,"bonusSoFar":1.08},{"rt":8282,"response":{"heads":"29","tails":"1"},"type":"response","condition":"seqNoFeedback","trueTheta":0.8,"classrooms":["C","D"],"studentTrueClassroom":"D","exampleSet":"second","trial_type":"survey-html-form","trial_index":193,"time_elapsed":1080309,"internal_node_id":"0.0-186.0-0.0","params":{"nStudents":24,"maxFlips":30,"completionMinutes":45,"basePay":8,"maxBonus":9,"perTrialBonus":0.5,"perTrialBonusThreshold":0.05,"exampleCost":0.01},"classroomParams":{"A":{"a":1,"b":4},"B":{"a":4,"b":1},"C":{"a":2,"b":8},"D":{"a":8,"b":2}},"conditions":["nonSeqFull","nonSeqPartial","seqNoFeedback","seqFeedback"],"classroomPairings":[["A","B"],["C","D"]],"coinWeights":[0.2,0.5,0.8],"subjectId":"A19ZWBQT8A3LIR","assignmentId":"3TVSS0C0E2M52QFNPOLDGY0JMIHWT4","hitId":"3SD15I2WD2G0NA4TSPXGB81L5S7630","url":"https://gershmanlab.com/experiments/alicia/teaching/experiment/?hitId=3SD15I2WD2G0NA4TSPXGB81L5S7630&workerId=A19ZWBQT8A3LIR&assignmentId=3TVSS0C0E2M52QFNPOLDGY0JMIHWT4&a=0SVT9&tp_a=0SVT9&b=3TVSS0C0E2M52QFNPOLDGY0JMIHWT4&tp_b=3TVSS0C0E2M52QFNPOLDGY0JMIHWT4&c=365799&tp_c=365799","firstResponseHeads":30,"firstResponseTails":0,"secondResponseHeads":29,"secondResponseTails":1,"totalHeads":59,"totalTails":1,"studentIndex":23,"studentTrueHypers":{"a":8,"b":2},"studentGuess":0.9571428571428572,"delta":0.15714285714285714,"bonus":0,"bonusSoFar":1.08,"totalExamples":60},{"rt":5116,"response":{"gender":"male","age":"33","understood":"yes","comments":""},"type":"response","trial_type":"survey-html-form","trial_index":197,"time_elapsed":1102209,"internal_node_id":"0.0-191.0","params":{"nStudents":24,"maxFlips":30,"completionMinutes":45,"basePay":8,"maxBonus":9,"perTrialBonus":0.5,"perTrialBonusThreshold":0.05,"exampleCost":0.01},"classroomParams":{"A":{"a":1,"b":4},"B":{"a":4,"b":1},"C":{"a":2,"b":8},"D":{"a":8,"b":2}},"conditions":["nonSeqFull","nonSeqPartial","seqNoFeedback","seqFeedback"],"classroomPairings":[["A","B"],["C","D"]],"coinWeights":[0.2,0.5,0.8],"subjectId":"A19ZWBQT8A3LIR","assignmentId":"3TVSS0C0E2M52QFNPOLDGY0JMIHWT4","hitId":"3SD15I2WD2G0NA4TSPXGB81L5S7630","url":"https://gershmanlab.com/experiments/alicia/teaching/experiment/?hitId=3SD15I2WD2G0NA4TSPXGB81L5S7630&workerId=A19ZWBQT8A3LIR&assignmentId=3TVSS0C0E2M52QFNPOLDGY0JMIHWT4&a=0SVT9&tp_a=0SVT9&b=3TVSS0C0E2M52QFNPOLDGY0JMIHWT4&tp_b=3TVSS0C0E2M52QFNPOLDGY0JMIHWT4&c=365799&tp_c=365799","totalBonus":1.08}]