[{"rt":20422,"response":{"heads":"4","tails":"1"},"type":"response","condition":"nonSeqFull","trueTheta":0.8,"classrooms":["C","D"],"studentTrueClassroom":"D","exampleSet":"first","trial_type":"survey-html-form","trial_index":7,"time_elapsed":235378,"internal_node_id":"0.0-6.0-0.0","params":{"nStudents":24,"maxFlips":30,"completionMinutes":45,"basePay":8,"maxBonus":9,"perTrialBonus":0.5,"perTrialBonusThreshold":0.05,"exampleCost":0.01},"classroomParams":{"A":{"a":1,"b":4},"B":{"a":4,"b":1},"C":{"a":2,"b":8},"D":{"a":8,"b":2}},"conditions":["nonSeqFull","nonSeqPartial","seqNoFeedback","seqFeedback"],"classroomPairings":[["A","B"],["C","D"]],"coinWeights":[0.2,0.5,0.8],"subjectId":"A1AKL5YH9NLD2V","assignmentId":"3TUI152ZZC9Z997SBW2XI3Z26Y91QW","hitId":"3UDTAB6HH6LRO17U79I9TKUGSHV90J","url":"https://gershmanlab.com/experiments/alicia/teaching/experiment/?hitId=3UDTAB6HH6LRO17U79I9TKUGSHV90J&workerId=A1AKL5YH9NLD2V&assignmentId=3TUI152ZZC9Z997SBW2XI3Z26Y91QW&a=Z1UT9&tp_a=Z1UT9&b=3TUI152ZZC9Z997SBW2XI3Z26Y91QW&tp_b=3TUI152ZZC9Z997SBW2XI3Z26Y91QW&c=365799&tp_c=365799","heads":4,"tails":1,"studentIndex":0,"studentTrueHypers":{"a":8,"b":2},"studentGuess":0.8,"delta":0,"totalExamples":5,"bonus":0.45,"bonusSoFar":0.45},{"rt":22062,"response":{"heads":"3","tails":"3"},"type":"response","condition":"seqFeedback","trueTheta":0.5,"classrooms":["A","B"],"studentTrueClassroom":"B","exampleSet":"first","trial_type":"survey-html-form","trial_index":13,"time_elapsed":279329,"internal_node_id":"0.0-12.0-0.0","params":{"nStudents":24,"maxFlips":30,"completionMinutes":45,"basePay":8,"maxBonus":9,"perTrialBonus":0.5,"perTrialBonusThreshold":0.05,"exampleCost":0.01},"classroomParams":{"A":{"a":1,"b":4},"B":{"a":4,"b":1},"C":{"a":2,"b":8},"D":{"a":8,"b":2}},"conditions":["nonSeqFull","nonSeqPartial","seqNoFeedback","seqFeedback"],"classroomPairings":[["A","B"],["C","D"]],"coinWeights":[0.2,0.5,0.8],"subjectId":"A1AKL5YH9NLD2V","assignmentId":"3TUI152ZZC9Z997SBW2XI3Z26Y91QW","hitId":"3UDTAB6HH6LRO17U79I9TKUGSHV90J","url":"https://gershmanlab.com/experiments/alicia/teaching/experiment/?hitId=3UDTAB6HH6LRO17U79I9TKUGSHV90J&workerId=A1AKL5YH9NLD2V&assignmentId=3TUI152ZZC9Z997SBW2XI3Z26Y91QW&a=Z1UT9&tp_a=Z1UT9&b=3TUI152ZZC9Z997SBW2XI3Z26Y91QW&tp_b=3TUI152ZZC9Z997SBW2XI3Z26Y91QW&c=365799&tp_c=365799","heads":3,"tails":3,"studentIndex":1,"studentTrueHypers":{"a":4,"b":1},"studentGuess":0.6363636363636364,"delta":0.13636363636363635,"totalExamples":6,"bonusSoFar":0.45},{"rt":9074,"response":{"heads":"5","tails":"5"},"type":"response","condition":"seqFeedback","trueTheta":0.5,"classrooms":["A","B"],"studentTrueClassroom":"B","exampleSet":"second","trial_type":"survey-html-form","trial_index":17,"time_elapsed":303089,"internal_node_id":"0.0-16.0-0.0","params":{"nStudents":24,"maxFlips":30,"completionMinutes":45,"basePay":8,"maxBonus":9,"perTrialBonus":0.5,"perTrialBonusThreshold":0.05,"exampleCost":0.01},"classroomParams":{"A":{"a":1,"b":4},"B":{"a":4,"b":1},"C":{"a":2,"b":8},"D":{"a":8,"b":2}},"conditions":["nonSeqFull","nonSeqPartial","seqNoFeedback","seqFeedback"],"classroomPairings":[["A","B"],["C","D"]],"coinWeights":[0.2,0.5,0.8],"subjectId":"A1AKL5YH9NLD2V","assignmentId":"3TUI152ZZC9Z997SBW2XI3Z26Y91QW","hitId":"3UDTAB6HH6LRO17U79I9TKUGSHV90J","url":"https://gershmanlab.com/experiments/alicia/teaching/experiment/?hitId=3UDTAB6HH6LRO17U79I9TKUGSHV90J&workerId=A1AKL5YH9NLD2V&assignmentId=3TUI152ZZC9Z997SBW2XI3Z26Y91QW&a=Z1UT9&tp_a=Z1UT9&b=3TUI152ZZC9Z997SBW2XI3Z26Y91QW&tp_b=3TUI152ZZC9Z997SBW2XI3Z26Y91QW&c=365799&tp_c=365799","firstResponseHeads":3,"firstResponseTails":3,"secondResponseHeads":5,"secondResponseTails":5,"totalHeads":8,"totalTails":8,"studentIndex":1,"studentTrueHypers":{"a":4,"b":1},"studentGuess":0.5714285714285714,"delta":0.0714285714285714,"bonus":0,"bonusSoFar":0.45,"totalExamples":16},{"rt":3904,"response":{"heads":"4","tails":"1"},"type":"response","condition":"seqNoFeedback","trueTheta":0.8,"classrooms":["A","B"],"studentTrueClassroom":"B","exampleSet":"first","trial_type":"survey-html-form","trial_index":23,"time_elapsed":324737,"internal_node_id":"0.0-22.0-0.0","params":{"nStudents":24,"maxFlips":30,"completionMinutes":45,"basePay":8,"maxBonus":9,"perTrialBonus":0.5,"perTrialBonusThreshold":0.05,"exampleCost":0.01},"classroomParams":{"A":{"a":1,"b":4},"B":{"a":4,"b":1},"C":{"a":2,"b":8},"D":{"a":8,"b":2}},"conditions":["nonSeqFull","nonSeqPartial","seqNoFeedback","seqFeedback"],"classroomPairings":[["A","B"],["C","D"]],"coinWeights":[0.2,0.5,0.8],"subjectId":"A1AKL5YH9NLD2V","assignmentId":"3TUI152ZZC9Z997SBW2XI3Z26Y91QW","hitId":"3UDTAB6HH6LRO17U79I9TKUGSHV90J","url":"https://gershmanlab.com/experiments/alicia/teaching/experiment/?hitId=3UDTAB6HH6LRO17U79I9TKUGSHV90J&workerId=A1AKL5YH9NLD2V&assignmentId=3TUI152ZZC9Z997SBW2XI3Z26Y91QW&a=Z1UT9&tp_a=Z1UT9&b=3TUI152ZZC9Z997SBW2XI3Z26Y91QW&tp_b=3TUI152ZZC9Z997SBW2XI3Z26Y91QW&c=365799&tp_c=365799","heads":4,"tails":1,"studentIndex":2,"studentTrueHypers":{"a":4,"b":1},"studentGuess":0.8,"delta":0,"totalExamples":5,"bonusSoFar":0.45},{"rt":10620,"response":{"heads":"4","tails":"1"},"type":"response","condition":"seqNoFeedback","trueTheta":0.8,"classrooms":["A","B"],"studentTrueClassroom":"B","exampleSet":"second","trial_type":"survey-html-form","trial_index":26,"time_elapsed":342615,"internal_node_id":"0.0-25.0-0.0","params":{"nStudents":24,"maxFlips":30,"completionMinutes":45,"basePay":8,"maxBonus":9,"perTrialBonus":0.5,"perTrialBonusThreshold":0.05,"exampleCost":0.01},"classroomParams":{"A":{"a":1,"b":4},"B":{"a":4,"b":1},"C":{"a":2,"b":8},"D":{"a":8,"b":2}},"conditions":["nonSeqFull","nonSeqPartial","seqNoFeedback","seqFeedback"],"classroomPairings":[["A","B"],["C","D"]],"coinWeights":[0.2,0.5,0.8],"subjectId":"A1AKL5YH9NLD2V","assignmentId":"3TUI152ZZC9Z997SBW2XI3Z26Y91QW","hitId":"3UDTAB6HH6LRO17U79I9TKUGSHV90J","url":"https://gershmanlab.com/experiments/alicia/teaching/experiment/?hitId=3UDTAB6HH6LRO17U79I9TKUGSHV90J&workerId=A1AKL5YH9NLD2V&assignmentId=3TUI152ZZC9Z997SBW2XI3Z26Y91QW&a=Z1UT9&tp_a=Z1UT9&b=3TUI152ZZC9Z997SBW2XI3Z26Y91QW&tp_b=3TUI152ZZC9Z997SBW2XI3Z26Y91QW&c=365799&tp_c=365799","firstResponseHeads":4,"firstResponseTails":1,"secondResponseHeads":4,"secondResponseTails":1,"totalHeads":8,"totalTails":2,"studentIndex":2,"studentTrueHypers":{"a":4,"b":1},"studentGuess":0.8,"delta":0,"bonus":0.4,"bonusSoFar":0.85,"totalExamples":10},{"rt":5951,"response":{"heads":"8","tails":"8"},"type":"response","condition":"seqNoFeedback","trueTheta":0.5,"classrooms":["A","B"],"studentTrueClassroom":"B","exampleSet":"first","trial_type":"survey-html-form","trial_index":32,"time_elapsed":361214,"internal_node_id":"0.0-31.0-0.0","params":{"nStudents":24,"maxFlips":30,"completionMinutes":45,"basePay":8,"maxBonus":9,"perTrialBonus":0.5,"perTrialBonusThreshold":0.05,"exampleCost":0.01},"classroomParams":{"A":{"a":1,"b":4},"B":{"a":4,"b":1},"C":{"a":2,"b":8},"D":{"a":8,"b":2}},"conditions":["nonSeqFull","nonSeqPartial","seqNoFeedback","seqFeedback"],"classroomPairings":[["A","B"],["C","D"]],"coinWeights":[0.2,0.5,0.8],"subjectId":"A1AKL5YH9NLD2V","assignmentId":"3TUI152ZZC9Z997SBW2XI3Z26Y91QW","hitId":"3UDTAB6HH6LRO17U79I9TKUGSHV90J","url":"https://gershmanlab.com/experiments/alicia/teaching/experiment/?hitId=3UDTAB6HH6LRO17U79I9TKUGSHV90J&workerId=A1AKL5YH9NLD2V&assignmentId=3TUI152ZZC9Z997SBW2XI3Z26Y91QW&a=Z1UT9&tp_a=Z1UT9&b=3TUI152ZZC9Z997SBW2XI3Z26Y91QW&tp_b=3TUI152ZZC9Z997SBW2XI3Z26Y91QW&c=365799&tp_c=365799","heads":8,"tails":8,"studentIndex":3,"studentTrueHypers":{"a":4,"b":1},"studentGuess":0.5714285714285714,"delta":0.0714285714285714,"totalExamples":16,"bonusSoFar":0.85},{"rt":10942,"response":{"heads":"8","tails":"8"},"type":"response","condition":"seqNoFeedback","trueTheta":0.5,"classrooms":["A","B"],"studentTrueClassroom":"B","exampleSet":"second","trial_type":"survey-html-form","trial_index":35,"time_elapsed":379421,"internal_node_id":"0.0-34.0-0.0","params":{"nStudents":24,"maxFlips":30,"completionMinutes":45,"basePay":8,"maxBonus":9,"perTrialBonus":0.5,"perTrialBonusThreshold":0.05,"exampleCost":0.01},"classroomParams":{"A":{"a":1,"b":4},"B":{"a":4,"b":1},"C":{"a":2,"b":8},"D":{"a":8,"b":2}},"conditions":["nonSeqFull","nonSeqPartial","seqNoFeedback","seqFeedback"],"classroomPairings":[["A","B"],["C","D"]],"coinWeights":[0.2,0.5,0.8],"subjectId":"A1AKL5YH9NLD2V","assignmentId":"3TUI152ZZC9Z997SBW2XI3Z26Y91QW","hitId":"3UDTAB6HH6LRO17U79I9TKUGSHV90J","url":"https://gershmanlab.com/experiments/alicia/teaching/experiment/?hitId=3UDTAB6HH6LRO17U79I9TKUGSHV90J&workerId=A1AKL5YH9NLD2V&assignmentId=3TUI152ZZC9Z997SBW2XI3Z26Y91QW&a=Z1UT9&tp_a=Z1UT9&b=3TUI152ZZC9Z997SBW2XI3Z26Y91QW&tp_b=3TUI152ZZC9Z997SBW2XI3Z26Y91QW&c=365799&tp_c=365799","firstResponseHeads":8,"firstResponseTails":8,"secondResponseHeads":8,"secondResponseTails":8,"totalHeads":16,"totalTails":16,"studentIndex":3,"studentTrueHypers":{"a":4,"b":1},"studentGuess":0.5405405405405406,"delta":0.04054054054054057,"bonus":0.18,"bonusSoFar":1.03,"totalExamples":32},{"rt":5830,"response":{"heads":"1","tails":"4"},"type":"response","condition":"seqFeedback","trueTheta":0.2,"classrooms":["A","B"],"studentTrueClassroom":"A","exampleSet":"first","trial_type":"survey-html-form","trial_index":41,"time_elapsed":401956,"internal_node_id":"0.0-40.0-0.0","params":{"nStudents":24,"maxFlips":30,"completionMinutes":45,"basePay":8,"maxBonus":9,"perTrialBonus":0.5,"perTrialBonusThreshold":0.05,"exampleCost":0.01},"classroomParams":{"A":{"a":1,"b":4},"B":{"a":4,"b":1},"C":{"a":2,"b":8},"D":{"a":8,"b":2}},"conditions":["nonSeqFull","nonSeqPartial","seqNoFeedback","seqFeedback"],"classroomPairings":[["A","B"],["C","D"]],"coinWeights":[0.2,0.5,0.8],"subjectId":"A1AKL5YH9NLD2V","assignmentId":"3TUI152ZZC9Z997SBW2XI3Z26Y91QW","hitId":"3UDTAB6HH6LRO17U79I9TKUGSHV90J","url":"https://gershmanlab.com/experiments/alicia/teaching/experiment/?hitId=3UDTAB6HH6LRO17U79I9TKUGSHV90J&workerId=A1AKL5YH9NLD2V&assignmentId=3TUI152ZZC9Z997SBW2XI3Z26Y91QW&a=Z1UT9&tp_a=Z1UT9&b=3TUI152ZZC9Z997SBW2XI3Z26Y91QW&tp_b=3TUI152ZZC9Z997SBW2XI3Z26Y91QW&c=365799&tp_c=365799","heads":1,"tails":4,"studentIndex":4,"studentTrueHypers":{"a":1,"b":4},"studentGuess":0.2,"delta":0,"totalExamples":5,"bonusSoFar":1.03},{"rt":2810,"response":{"heads":"1","tails":"4"},"type":"response","condition":"seqFeedback","trueTheta":0.2,"classrooms":["A","B"],"studentTrueClassroom":"A","exampleSet":"second","trial_type":"survey-html-form","trial_index":45,"time_elapsed":414388,"internal_node_id":"0.0-44.0-0.0","params":{"nStudents":24,"maxFlips":30,"completionMinutes":45,"basePay":8,"maxBonus":9,"perTrialBonus":0.5,"perTrialBonusThreshold":0.05,"exampleCost":0.01},"classroomParams":{"A":{"a":1,"b":4},"B":{"a":4,"b":1},"C":{"a":2,"b":8},"D":{"a":8,"b":2}},"conditions":["nonSeqFull","nonSeqPartial","seqNoFeedback","seqFeedback"],"classroomPairings":[["A","B"],["C","D"]],"coinWeights":[0.2,0.5,0.8],"subjectId":"A1AKL5YH9NLD2V","assignmentId":"3TUI152ZZC9Z997SBW2XI3Z26Y91QW","hitId":"3UDTAB6HH6LRO17U79I9TKUGSHV90J","url":"https://gershmanlab.com/experiments/alicia/teaching/experiment/?hitId=3UDTAB6HH6LRO17U79I9TKUGSHV90J&workerId=A1AKL5YH9NLD2V&assignmentId=3TUI152ZZC9Z997SBW2XI3Z26Y91QW&a=Z1UT9&tp_a=Z1UT9&b=3TUI152ZZC9Z997SBW2XI3Z26Y91QW&tp_b=3TUI152ZZC9Z997SBW2XI3Z26Y91QW&c=365799&tp_c=365799","firstResponseHeads":1,"firstResponseTails":4,"secondResponseHeads":1,"secondResponseTails":4,"totalHeads":2,"totalTails":8,"studentIndex":4,"studentTrueHypers":{"a":1,"b":4},"studentGuess":0.2,"delta":0,"bonus":0.4,"bonusSoFar":1.43,"totalExamples":10},{"rt":1863,"response":{"heads":"4","tails":"1"},"type":"response","condition":"seqFeedback","trueTheta":0.8,"classrooms":["A","B"],"studentTrueClassroom":"B","exampleSet":"first","trial_type":"survey-html-form","trial_index":51,"time_elapsed":435743,"internal_node_id":"0.0-50.0-0.0","params":{"nStudents":24,"maxFlips":30,"completionMinutes":45,"basePay":8,"maxBonus":9,"perTrialBonus":0.5,"perTrialBonusThreshold":0.05,"exampleCost":0.01},"classroomParams":{"A":{"a":1,"b":4},"B":{"a":4,"b":1},"C":{"a":2,"b":8},"D":{"a":8,"b":2}},"conditions":["nonSeqFull","nonSeqPartial","seqNoFeedback","seqFeedback"],"classroomPairings":[["A","B"],["C","D"]],"coinWeights":[0.2,0.5,0.8],"subjectId":"A1AKL5YH9NLD2V","assignmentId":"3TUI152ZZC9Z997SBW2XI3Z26Y91QW","hitId":"3UDTAB6HH6LRO17U79I9TKUGSHV90J","url":"https://gershmanlab.com/experiments/alicia/teaching/experiment/?hitId=3UDTAB6HH6LRO17U79I9TKUGSHV90J&workerId=A1AKL5YH9NLD2V&assignmentId=3TUI152ZZC9Z997SBW2XI3Z26Y91QW&a=Z1UT9&tp_a=Z1UT9&b=3TUI152ZZC9Z997SBW2XI3Z26Y91QW&tp_b=3TUI152ZZC9Z997SBW2XI3Z26Y91QW&c=365799&tp_c=365799","heads":4,"tails":1,"studentIndex":5,"studentTrueHypers":{"a":4,"b":1},"studentGuess":0.8,"delta":0,"totalExamples":5,"bonusSoFar":1.43},{"rt":10722,"response":{"heads":"4","tails":"1"},"type":"response","condition":"seqFeedback","trueTheta":0.8,"classrooms":["A","B"],"studentTrueClassroom":"B","exampleSet":"second","trial_type":"survey-html-form","trial_index":55,"time_elapsed":458342,"internal_node_id":"0.0-54.0-0.0","params":{"nStudents":24,"maxFlips":30,"completionMinutes":45,"basePay":8,"maxBonus":9,"perTrialBonus":0.5,"perTrialBonusThreshold":0.05,"exampleCost":0.01},"classroomParams":{"A":{"a":1,"b":4},"B":{"a":4,"b":1},"C":{"a":2,"b":8},"D":{"a":8,"b":2}},"conditions":["nonSeqFull","nonSeqPartial","seqNoFeedback","seqFeedback"],"classroomPairings":[["A","B"],["C","D"]],"coinWeights":[0.2,0.5,0.8],"subjectId":"A1AKL5YH9NLD2V","assignmentId":"3TUI152ZZC9Z997SBW2XI3Z26Y91QW","hitId":"3UDTAB6HH6LRO17U79I9TKUGSHV90J","url":"https://gershmanlab.com/experiments/alicia/teaching/experiment/?hitId=3UDTAB6HH6LRO17U79I9TKUGSHV90J&workerId=A1AKL5YH9NLD2V&assignmentId=3TUI152ZZC9Z997SBW2XI3Z26Y91QW&a=Z1UT9&tp_a=Z1UT9&b=3TUI152ZZC9Z997SBW2XI3Z26Y91QW&tp_b=3TUI152ZZC9Z997SBW2XI3Z26Y91QW&c=365799&tp_c=365799","firstResponseHeads":4,"firstResponseTails":1,"secondResponseHeads":4,"secondResponseTails":1,"totalHeads":8,"totalTails":2,"studentIndex":5,"studentTrueHypers":{"a":4,"b":1},"studentGuess":0.8,"delta":0,"bonus":0.4,"bonusSoFar":1.83,"totalExamples":10},{"rt":2926,"response":{"heads":"6","tails":"6"},"type":"response","condition":"nonSeqFull","trueTheta":0.5,"classrooms":["A","B"],"studentTrueClassroom":"B","exampleSet":"first","trial_type":"survey-html-form","trial_index":61,"time_elapsed":473773,"internal_node_id":"0.0-60.0-0.0","params":{"nStudents":24,"maxFlips":30,"completionMinutes":45,"basePay":8,"maxBonus":9,"perTrialBonus":0.5,"perTrialBonusThreshold":0.05,"exampleCost":0.01},"classroomParams":{"A":{"a":1,"b":4},"B":{"a":4,"b":1},"C":{"a":2,"b":8},"D":{"a":8,"b":2}},"conditions":["nonSeqFull","nonSeqPartial","seqNoFeedback","seqFeedback"],"classroomPairings":[["A","B"],["C","D"]],"coinWeights":[0.2,0.5,0.8],"subjectId":"A1AKL5YH9NLD2V","assignmentId":"3TUI152ZZC9Z997SBW2XI3Z26Y91QW","hitId":"3UDTAB6HH6LRO17U79I9TKUGSHV90J","url":"https://gershmanlab.com/experiments/alicia/teaching/experiment/?hitId=3UDTAB6HH6LRO17U79I9TKUGSHV90J&workerId=A1AKL5YH9NLD2V&assignmentId=3TUI152ZZC9Z997SBW2XI3Z26Y91QW&a=Z1UT9&tp_a=Z1UT9&b=3TUI152ZZC9Z997SBW2XI3Z26Y91QW&tp_b=3TUI152ZZC9Z997SBW2XI3Z26Y91QW&c=365799&tp_c=365799","heads":6,"tails":6,"studentIndex":6,"studentTrueHypers":{"a":4,"b":1},"studentGuess":0.5882352941176471,"delta":0.08823529411764708,"totalExamples":12,"bonus":0,"bonusSoFar":1.83},{"rt":4839,"response":{"heads":"8","tails":"8"},"type":"response","condition":"nonSeqPartial","trueTheta":0.5,"classrooms":["C","D"],"studentTrueClassroom":"D","exampleSet":"first","trial_type":"survey-html-form","trial_index":67,"time_elapsed":494147,"internal_node_id":"0.0-66.0-0.0","params":{"nStudents":24,"maxFlips":30,"completionMinutes":45,"basePay":8,"maxBonus":9,"perTrialBonus":0.5,"perTrialBonusThreshold":0.05,"exampleCost":0.01},"classroomParams":{"A":{"a":1,"b":4},"B":{"a":4,"b":1},"C":{"a":2,"b":8},"D":{"a":8,"b":2}},"conditions":["nonSeqFull","nonSeqPartial","seqNoFeedback","seqFeedback"],"classroomPairings":[["A","B"],["C","D"]],"coinWeights":[0.2,0.5,0.8],"subjectId":"A1AKL5YH9NLD2V","assignmentId":"3TUI152ZZC9Z997SBW2XI3Z26Y91QW","hitId":"3UDTAB6HH6LRO17U79I9TKUGSHV90J","url":"https://gershmanlab.com/experiments/alicia/teaching/experiment/?hitId=3UDTAB6HH6LRO17U79I9TKUGSHV90J&workerId=A1AKL5YH9NLD2V&assignmentId=3TUI152ZZC9Z997SBW2XI3Z26Y91QW&a=Z1UT9&tp_a=Z1UT9&b=3TUI152ZZC9Z997SBW2XI3Z26Y91QW&tp_b=3TUI152ZZC9Z997SBW2XI3Z26Y91QW&c=365799&tp_c=365799","heads":8,"tails":8,"studentIndex":7,"studentTrueHypers":{"a":8,"b":2},"studentGuess":0.6153846153846154,"delta":0.11538461538461542,"totalExamples":16,"bonus":0,"bonusSoFar":1.83},{"rt":4031,"response":{"heads":"7","tails":"7"},"type":"response","condition":"seqNoFeedback","trueTheta":0.5,"classrooms":["C","D"],"studentTrueClassroom":"C","exampleSet":"first","trial_type":"survey-html-form","trial_index":73,"time_elapsed":512378,"internal_node_id":"0.0-72.0-0.0","params":{"nStudents":24,"maxFlips":30,"completionMinutes":45,"basePay":8,"maxBonus":9,"perTrialBonus":0.5,"perTrialBonusThreshold":0.05,"exampleCost":0.01},"classroomParams":{"A":{"a":1,"b":4},"B":{"a":4,"b":1},"C":{"a":2,"b":8},"D":{"a":8,"b":2}},"conditions":["nonSeqFull","nonSeqPartial","seqNoFeedback","seqFeedback"],"classroomPairings":[["A","B"],["C","D"]],"coinWeights":[0.2,0.5,0.8],"subjectId":"A1AKL5YH9NLD2V","assignmentId":"3TUI152ZZC9Z997SBW2XI3Z26Y91QW","hitId":"3UDTAB6HH6LRO17U79I9TKUGSHV90J","url":"https://gershmanlab.com/experiments/alicia/teaching/experiment/?hitId=3UDTAB6HH6LRO17U79I9TKUGSHV90J&workerId=A1AKL5YH9NLD2V&assignmentId=3TUI152ZZC9Z997SBW2XI3Z26Y91QW&a=Z1UT9&tp_a=Z1UT9&b=3TUI152ZZC9Z997SBW2XI3Z26Y91QW&tp_b=3TUI152ZZC9Z997SBW2XI3Z26Y91QW&c=365799&tp_c=365799","heads":7,"tails":7,"studentIndex":8,"studentTrueHypers":{"a":2,"b":8},"studentGuess":0.375,"delta":0.125,"totalExamples":14,"bonusSoFar":1.83},{"rt":6313,"response":{"heads":"7","tails":"7"},"type":"response","condition":"seqNoFeedback","trueTheta":0.5,"classrooms":["C","D"],"studentTrueClassroom":"C","exampleSet":"second","trial_type":"survey-html-form","trial_index":76,"time_elapsed":525698,"internal_node_id":"0.0-75.0-0.0","params":{"nStudents":24,"maxFlips":30,"completionMinutes":45,"basePay":8,"maxBonus":9,"perTrialBonus":0.5,"perTrialBonusThreshold":0.05,"exampleCost":0.01},"classroomParams":{"A":{"a":1,"b":4},"B":{"a":4,"b":1},"C":{"a":2,"b":8},"D":{"a":8,"b":2}},"conditions":["nonSeqFull","nonSeqPartial","seqNoFeedback","seqFeedback"],"classroomPairings":[["A","B"],["C","D"]],"coinWeights":[0.2,0.5,0.8],"subjectId":"A1AKL5YH9NLD2V","assignmentId":"3TUI152ZZC9Z997SBW2XI3Z26Y91QW","hitId":"3UDTAB6HH6LRO17U79I9TKUGSHV90J","url":"https://gershmanlab.com/experiments/alicia/teaching/experiment/?hitId=3UDTAB6HH6LRO17U79I9TKUGSHV90J&workerId=A1AKL5YH9NLD2V&assignmentId=3TUI152ZZC9Z997SBW2XI3Z26Y91QW&a=Z1UT9&tp_a=Z1UT9&b=3TUI152ZZC9Z997SBW2XI3Z26Y91QW&tp_b=3TUI152ZZC9Z997SBW2XI3Z26Y91QW&c=365799&tp_c=365799","firstResponseHeads":7,"firstResponseTails":7,"secondResponseHeads":7,"secondResponseTails":7,"totalHeads":14,"totalTails":14,"studentIndex":8,"studentTrueHypers":{"a":2,"b":8},"studentGuess":0.42105263157894735,"delta":0.07894736842105265,"bonus":0,"bonusSoFar":1.83,"totalExamples":28},{"rt":3711,"response":{"heads":"10","tails":"10"},"type":"response","condition":"nonSeqPartial","trueTheta":0.5,"classrooms":["A","B"],"studentTrueClassroom":"A","exampleSet":"first","trial_type":"survey-html-form","trial_index":82,"time_elapsed":545288,"internal_node_id":"0.0-81.0-0.0","params":{"nStudents":24,"maxFlips":30,"completionMinutes":45,"basePay":8,"maxBonus":9,"perTrialBonus":0.5,"perTrialBonusThreshold":0.05,"exampleCost":0.01},"classroomParams":{"A":{"a":1,"b":4},"B":{"a":4,"b":1},"C":{"a":2,"b":8},"D":{"a":8,"b":2}},"conditions":["nonSeqFull","nonSeqPartial","seqNoFeedback","seqFeedback"],"classroomPairings":[["A","B"],["C","D"]],"coinWeights":[0.2,0.5,0.8],"subjectId":"A1AKL5YH9NLD2V","assignmentId":"3TUI152ZZC9Z997SBW2XI3Z26Y91QW","hitId":"3UDTAB6HH6LRO17U79I9TKUGSHV90J","url":"https://gershmanlab.com/experiments/alicia/teaching/experiment/?hitId=3UDTAB6HH6LRO17U79I9TKUGSHV90J&workerId=A1AKL5YH9NLD2V&assignmentId=3TUI152ZZC9Z997SBW2XI3Z26Y91QW&a=Z1UT9&tp_a=Z1UT9&b=3TUI152ZZC9Z997SBW2XI3Z26Y91QW&tp_b=3TUI152ZZC9Z997SBW2XI3Z26Y91QW&c=365799&tp_c=365799","heads":10,"tails":10,"studentIndex":9,"studentTrueHypers":{"a":1,"b":4},"studentGuess":0.44,"delta":0.06,"totalExamples":20,"bonus":0,"bonusSoFar":1.83},{"rt":2719,"response":{"heads":"4","tails":"1"},"type":"response","condition":"nonSeqFull","trueTheta":0.8,"classrooms":["A","B"],"studentTrueClassroom":"A","exampleSet":"first","trial_type":"survey-html-form","trial_index":88,"time_elapsed":562351,"internal_node_id":"0.0-87.0-0.0","params":{"nStudents":24,"maxFlips":30,"completionMinutes":45,"basePay":8,"maxBonus":9,"perTrialBonus":0.5,"perTrialBonusThreshold":0.05,"exampleCost":0.01},"classroomParams":{"A":{"a":1,"b":4},"B":{"a":4,"b":1},"C":{"a":2,"b":8},"D":{"a":8,"b":2}},"conditions":["nonSeqFull","nonSeqPartial","seqNoFeedback","seqFeedback"],"classroomPairings":[["A","B"],["C","D"]],"coinWeights":[0.2,0.5,0.8],"subjectId":"A1AKL5YH9NLD2V","assignmentId":"3TUI152ZZC9Z997SBW2XI3Z26Y91QW","hitId":"3UDTAB6HH6LRO17U79I9TKUGSHV90J","url":"https://gershmanlab.com/experiments/alicia/teaching/experiment/?hitId=3UDTAB6HH6LRO17U79I9TKUGSHV90J&workerId=A1AKL5YH9NLD2V&assignmentId=3TUI152ZZC9Z997SBW2XI3Z26Y91QW&a=Z1UT9&tp_a=Z1UT9&b=3TUI152ZZC9Z997SBW2XI3Z26Y91QW&tp_b=3TUI152ZZC9Z997SBW2XI3Z26Y91QW&c=365799&tp_c=365799","heads":4,"tails":1,"studentIndex":10,"studentTrueHypers":{"a":1,"b":4},"studentGuess":0.5,"delta":0.30000000000000004,"totalExamples":5,"bonus":0,"bonusSoFar":1.83},{"rt":5199,"response":{"heads":"1","tails":"4"},"type":"response","condition":"seqFeedback","trueTheta":0.2,"classrooms":["C","D"],"studentTrueClassroom":"D","exampleSet":"first","trial_type":"survey-html-form","trial_index":94,"time_elapsed":587015,"internal_node_id":"0.0-93.0-0.0","params":{"nStudents":24,"maxFlips":30,"completionMinutes":45,"basePay":8,"maxBonus":9,"perTrialBonus":0.5,"perTrialBonusThreshold":0.05,"exampleCost":0.01},"classroomParams":{"A":{"a":1,"b":4},"B":{"a":4,"b":1},"C":{"a":2,"b":8},"D":{"a":8,"b":2}},"conditions":["nonSeqFull","nonSeqPartial","seqNoFeedback","seqFeedback"],"classroomPairings":[["A","B"],["C","D"]],"coinWeights":[0.2,0.5,0.8],"subjectId":"A1AKL5YH9NLD2V","assignmentId":"3TUI152ZZC9Z997SBW2XI3Z26Y91QW","hitId":"3UDTAB6HH6LRO17U79I9TKUGSHV90J","url":"https://gershmanlab.com/experiments/alicia/teaching/experiment/?hitId=3UDTAB6HH6LRO17U79I9TKUGSHV90J&workerId=A1AKL5YH9NLD2V&assignmentId=3TUI152ZZC9Z997SBW2XI3Z26Y91QW&a=Z1UT9&tp_a=Z1UT9&b=3TUI152ZZC9Z997SBW2XI3Z26Y91QW&tp_b=3TUI152ZZC9Z997SBW2XI3Z26Y91QW&c=365799&tp_c=365799","heads":1,"tails":4,"studentIndex":11,"studentTrueHypers":{"a":8,"b":2},"studentGuess":0.6,"delta":0.39999999999999997,"totalExamples":5,"bonusSoFar":1.83},{"rt":19105,"response":{"heads":"3","tails":"12"},"type":"response","condition":"seqFeedback","trueTheta":0.2,"classrooms":["C","D"],"studentTrueClassroom":"D","exampleSet":"second","trial_type":"survey-html-form","trial_index":98,"time_elapsed":617898,"internal_node_id":"0.0-97.0-0.0","params":{"nStudents":24,"maxFlips":30,"completionMinutes":45,"basePay":8,"maxBonus":9,"perTrialBonus":0.5,"perTrialBonusThreshold":0.05,"exampleCost":0.01},"classroomParams":{"A":{"a":1,"b":4},"B":{"a":4,"b":1},"C":{"a":2,"b":8},"D":{"a":8,"b":2}},"conditions":["nonSeqFull","nonSeqPartial","seqNoFeedback","seqFeedback"],"classroomPairings":[["A","B"],["C","D"]],"coinWeights":[0.2,0.5,0.8],"subjectId":"A1AKL5YH9NLD2V","assignmentId":"3TUI152ZZC9Z997SBW2XI3Z26Y91QW","hitId":"3UDTAB6HH6LRO17U79I9TKUGSHV90J","url":"https://gershmanlab.com/experiments/alicia/teaching/experiment/?hitId=3UDTAB6HH6LRO17U79I9TKUGSHV90J&workerId=A1AKL5YH9NLD2V&assignmentId=3TUI152ZZC9Z997SBW2XI3Z26Y91QW&a=Z1UT9&tp_a=Z1UT9&b=3TUI152ZZC9Z997SBW2XI3Z26Y91QW&tp_b=3TUI152ZZC9Z997SBW2XI3Z26Y91QW&c=365799&tp_c=365799","firstResponseHeads":1,"firstResponseTails":4,"secondResponseHeads":3,"secondResponseTails":12,"totalHeads":4,"totalTails":16,"studentIndex":11,"studentTrueHypers":{"a":8,"b":2},"studentGuess":0.4,"delta":0.2,"bonus":0,"bonusSoFar":1.83,"totalExamples":20},{"rt":5471,"response":{"heads":"7","tails":"7"},"type":"response","condition":"seqFeedback","trueTheta":0.5,"classrooms":["C","D"],"studentTrueClassroom":"D","exampleSet":"first","trial_type":"survey-html-form","trial_index":104,"time_elapsed":640056,"internal_node_id":"0.0-103.0-0.0","params":{"nStudents":24,"maxFlips":30,"completionMinutes":45,"basePay":8,"maxBonus":9,"perTrialBonus":0.5,"perTrialBonusThreshold":0.05,"exampleCost":0.01},"classroomParams":{"A":{"a":1,"b":4},"B":{"a":4,"b":1},"C":{"a":2,"b":8},"D":{"a":8,"b":2}},"conditions":["nonSeqFull","nonSeqPartial","seqNoFeedback","seqFeedback"],"classroomPairings":[["A","B"],["C","D"]],"coinWeights":[0.2,0.5,0.8],"subjectId":"A1AKL5YH9NLD2V","assignmentId":"3TUI152ZZC9Z997SBW2XI3Z26Y91QW","hitId":"3UDTAB6HH6LRO17U79I9TKUGSHV90J","url":"https://gershmanlab.com/experiments/alicia/teaching/experiment/?hitId=3UDTAB6HH6LRO17U79I9TKUGSHV90J&workerId=A1AKL5YH9NLD2V&assignmentId=3TUI152ZZC9Z997SBW2XI3Z26Y91QW&a=Z1UT9&tp_a=Z1UT9&b=3TUI152ZZC9Z997SBW2XI3Z26Y91QW&tp_b=3TUI152ZZC9Z997SBW2XI3Z26Y91QW&c=365799&tp_c=365799","heads":7,"tails":7,"studentIndex":12,"studentTrueHypers":{"a":8,"b":2},"studentGuess":0.625,"delta":0.125,"totalExamples":14,"bonusSoFar":1.83},{"rt":2930,"response":{"heads":"15","tails":"15"},"type":"response","condition":"seqFeedback","trueTheta":0.5,"classrooms":["C","D"],"studentTrueClassroom":"D","exampleSet":"second","trial_type":"survey-html-form","trial_index":108,"time_elapsed":652296,"internal_node_id":"0.0-107.0-0.0","params":{"nStudents":24,"maxFlips":30,"completionMinutes":45,"basePay":8,"maxBonus":9,"perTrialBonus":0.5,"perTrialBonusThreshold":0.05,"exampleCost":0.01},"classroomParams":{"A":{"a":1,"b":4},"B":{"a":4,"b":1},"C":{"a":2,"b":8},"D":{"a":8,"b":2}},"conditions":["nonSeqFull","nonSeqPartial","seqNoFeedback","seqFeedback"],"classroomPairings":[["A","B"],["C","D"]],"coinWeights":[0.2,0.5,0.8],"subjectId":"A1AKL5YH9NLD2V","assignmentId":"3TUI152ZZC9Z997SBW2XI3Z26Y91QW","hitId":"3UDTAB6HH6LRO17U79I9TKUGSHV90J","url":"https://gershmanlab.com/experiments/alicia/teaching/experiment/?hitId=3UDTAB6HH6LRO17U79I9TKUGSHV90J&workerId=A1AKL5YH9NLD2V&assignmentId=3TUI152ZZC9Z997SBW2XI3Z26Y91QW&a=Z1UT9&tp_a=Z1UT9&b=3TUI152ZZC9Z997SBW2XI3Z26Y91QW&tp_b=3TUI152ZZC9Z997SBW2XI3Z26Y91QW&c=365799&tp_c=365799","firstResponseHeads":7,"firstResponseTails":7,"secondResponseHeads":15,"secondResponseTails":15,"totalHeads":22,"totalTails":22,"studentIndex":12,"studentTrueHypers":{"a":8,"b":2},"studentGuess":0.5555555555555556,"delta":0.05555555555555558,"bonus":0,"bonusSoFar":1.83,"totalExamples":44},{"rt":7027,"response":{"heads":"1","tails":"4"},"type":"response","condition":"nonSeqFull","trueTheta":0.2,"classrooms":["C","D"],"studentTrueClassroom":"C","exampleSet":"first","trial_type":"survey-html-form","trial_index":114,"time_elapsed":674174,"internal_node_id":"0.0-113.0-0.0","params":{"nStudents":24,"maxFlips":30,"completionMinutes":45,"basePay":8,"maxBonus":9,"perTrialBonus":0.5,"perTrialBonusThreshold":0.05,"exampleCost":0.01},"classroomParams":{"A":{"a":1,"b":4},"B":{"a":4,"b":1},"C":{"a":2,"b":8},"D":{"a":8,"b":2}},"conditions":["nonSeqFull","nonSeqPartial","seqNoFeedback","seqFeedback"],"classroomPairings":[["A","B"],["C","D"]],"coinWeights":[0.2,0.5,0.8],"subjectId":"A1AKL5YH9NLD2V","assignmentId":"3TUI152ZZC9Z997SBW2XI3Z26Y91QW","hitId":"3UDTAB6HH6LRO17U79I9TKUGSHV90J","url":"https://gershmanlab.com/experiments/alicia/teaching/experiment/?hitId=3UDTAB6HH6LRO17U79I9TKUGSHV90J&workerId=A1AKL5YH9NLD2V&assignmentId=3TUI152ZZC9Z997SBW2XI3Z26Y91QW&a=Z1UT9&tp_a=Z1UT9&b=3TUI152ZZC9Z997SBW2XI3Z26Y91QW&tp_b=3TUI152ZZC9Z997SBW2XI3Z26Y91QW&c=365799&tp_c=365799","heads":1,"tails":4,"studentIndex":13,"studentTrueHypers":{"a":2,"b":8},"studentGuess":0.2,"delta":0,"totalExamples":5,"bonus":0.45,"bonusSoFar":2.28},{"rt":2591,"response":{"heads":"4","tails":"1"},"type":"response","condition":"nonSeqPartial","trueTheta":0.8,"classrooms":["C","D"],"studentTrueClassroom":"D","exampleSet":"first","trial_type":"survey-html-form","trial_index":120,"time_elapsed":690441,"internal_node_id":"0.0-119.0-0.0","params":{"nStudents":24,"maxFlips":30,"completionMinutes":45,"basePay":8,"maxBonus":9,"perTrialBonus":0.5,"perTrialBonusThreshold":0.05,"exampleCost":0.01},"classroomParams":{"A":{"a":1,"b":4},"B":{"a":4,"b":1},"C":{"a":2,"b":8},"D":{"a":8,"b":2}},"conditions":["nonSeqFull","nonSeqPartial","seqNoFeedback","seqFeedback"],"classroomPairings":[["A","B"],["C","D"]],"coinWeights":[0.2,0.5,0.8],"subjectId":"A1AKL5YH9NLD2V","assignmentId":"3TUI152ZZC9Z997SBW2XI3Z26Y91QW","hitId":"3UDTAB6HH6LRO17U79I9TKUGSHV90J","url":"https://gershmanlab.com/experiments/alicia/teaching/experiment/?hitId=3UDTAB6HH6LRO17U79I9TKUGSHV90J&workerId=A1AKL5YH9NLD2V&assignmentId=3TUI152ZZC9Z997SBW2XI3Z26Y91QW&a=Z1UT9&tp_a=Z1UT9&b=3TUI152ZZC9Z997SBW2XI3Z26Y91QW&tp_b=3TUI152ZZC9Z997SBW2XI3Z26Y91QW&c=365799&tp_c=365799","heads":4,"tails":1,"studentIndex":14,"studentTrueHypers":{"a":8,"b":2},"studentGuess":0.8,"delta":0,"totalExamples":5,"bonus":0.45,"bonusSoFar":2.73},{"rt":3071,"response":{"heads":"4","tails":"1"},"type":"response","condition":"seqNoFeedback","trueTheta":0.8,"classrooms":["C","D"],"studentTrueClassroom":"D","exampleSet":"first","trial_type":"survey-html-form","trial_index":126,"time_elapsed":708904,"internal_node_id":"0.0-125.0-0.0","params":{"nStudents":24,"maxFlips":30,"completionMinutes":45,"basePay":8,"maxBonus":9,"perTrialBonus":0.5,"perTrialBonusThreshold":0.05,"exampleCost":0.01},"classroomParams":{"A":{"a":1,"b":4},"B":{"a":4,"b":1},"C":{"a":2,"b":8},"D":{"a":8,"b":2}},"conditions":["nonSeqFull","nonSeqPartial","seqNoFeedback","seqFeedback"],"classroomPairings":[["A","B"],["C","D"]],"coinWeights":[0.2,0.5,0.8],"subjectId":"A1AKL5YH9NLD2V","assignmentId":"3TUI152ZZC9Z997SBW2XI3Z26Y91QW","hitId":"3UDTAB6HH6LRO17U79I9TKUGSHV90J","url":"https://gershmanlab.com/experiments/alicia/teaching/experiment/?hitId=3UDTAB6HH6LRO17U79I9TKUGSHV90J&workerId=A1AKL5YH9NLD2V&assignmentId=3TUI152ZZC9Z997SBW2XI3Z26Y91QW&a=Z1UT9&tp_a=Z1UT9&b=3TUI152ZZC9Z997SBW2XI3Z26Y91QW&tp_b=3TUI152ZZC9Z997SBW2XI3Z26Y91QW&c=365799&tp_c=365799","heads":4,"tails":1,"studentIndex":15,"studentTrueHypers":{"a":8,"b":2},"studentGuess":0.8,"delta":0,"totalExamples":5,"bonusSoFar":2.73},{"rt":4713,"response":{"heads":"4","tails":"1"},"type":"response","condition":"seqNoFeedback","trueTheta":0.8,"classrooms":["C","D"],"studentTrueClassroom":"D","exampleSet":"second","trial_type":"survey-html-form","trial_index":129,"time_elapsed":720624,"internal_node_id":"0.0-128.0-0.0","params":{"nStudents":24,"maxFlips":30,"completionMinutes":45,"basePay":8,"maxBonus":9,"perTrialBonus":0.5,"perTrialBonusThreshold":0.05,"exampleCost":0.01},"classroomParams":{"A":{"a":1,"b":4},"B":{"a":4,"b":1},"C":{"a":2,"b":8},"D":{"a":8,"b":2}},"conditions":["nonSeqFull","nonSeqPartial","seqNoFeedback","seqFeedback"],"classroomPairings":[["A","B"],["C","D"]],"coinWeights":[0.2,0.5,0.8],"subjectId":"A1AKL5YH9NLD2V","assignmentId":"3TUI152ZZC9Z997SBW2XI3Z26Y91QW","hitId":"3UDTAB6HH6LRO17U79I9TKUGSHV90J","url":"https://gershmanlab.com/experiments/alicia/teaching/experiment/?hitId=3UDTAB6HH6LRO17U79I9TKUGSHV90J&workerId=A1AKL5YH9NLD2V&assignmentId=3TUI152ZZC9Z997SBW2XI3Z26Y91QW&a=Z1UT9&tp_a=Z1UT9&b=3TUI152ZZC9Z997SBW2XI3Z26Y91QW&tp_b=3TUI152ZZC9Z997SBW2XI3Z26Y91QW&c=365799&tp_c=365799","firstResponseHeads":4,"firstResponseTails":1,"secondResponseHeads":4,"secondResponseTails":1,"totalHeads":8,"totalTails":2,"studentIndex":15,"studentTrueHypers":{"a":8,"b":2},"studentGuess":0.8,"delta":0,"bonus":0.4,"bonusSoFar":3.13,"totalExamples":10},{"rt":2207,"response":{"heads":"1","tails":"4"},"type":"response","condition":"nonSeqPartial","trueTheta":0.2,"classrooms":["C","D"],"studentTrueClassroom":"D","exampleSet":"first","trial_type":"survey-html-form","trial_index":135,"time_elapsed":739625,"internal_node_id":"0.0-134.0-0.0","params":{"nStudents":24,"maxFlips":30,"completionMinutes":45,"basePay":8,"maxBonus":9,"perTrialBonus":0.5,"perTrialBonusThreshold":0.05,"exampleCost":0.01},"classroomParams":{"A":{"a":1,"b":4},"B":{"a":4,"b":1},"C":{"a":2,"b":8},"D":{"a":8,"b":2}},"conditions":["nonSeqFull","nonSeqPartial","seqNoFeedback","seqFeedback"],"classroomPairings":[["A","B"],["C","D"]],"coinWeights":[0.2,0.5,0.8],"subjectId":"A1AKL5YH9NLD2V","assignmentId":"3TUI152ZZC9Z997SBW2XI3Z26Y91QW","hitId":"3UDTAB6HH6LRO17U79I9TKUGSHV90J","url":"https://gershmanlab.com/experiments/alicia/teaching/experiment/?hitId=3UDTAB6HH6LRO17U79I9TKUGSHV90J&workerId=A1AKL5YH9NLD2V&assignmentId=3TUI152ZZC9Z997SBW2XI3Z26Y91QW&a=Z1UT9&tp_a=Z1UT9&b=3TUI152ZZC9Z997SBW2XI3Z26Y91QW&tp_b=3TUI152ZZC9Z997SBW2XI3Z26Y91QW&c=365799&tp_c=365799","heads":1,"tails":4,"studentIndex":16,"studentTrueHypers":{"a":8,"b":2},"studentGuess":0.6,"delta":0.39999999999999997,"totalExamples":5,"bonus":0,"bonusSoFar":3.13},{"rt":5367,"response":{"heads":"1","tails":"4"},"type":"response","condition":"nonSeqFull","trueTheta":0.2,"classrooms":["A","B"],"studentTrueClassroom":"B","exampleSet":"first","trial_type":"survey-html-form","trial_index":141,"time_elapsed":757521,"internal_node_id":"0.0-140.0-0.0","params":{"nStudents":24,"maxFlips":30,"completionMinutes":45,"basePay":8,"maxBonus":9,"perTrialBonus":0.5,"perTrialBonusThreshold":0.05,"exampleCost":0.01},"classroomParams":{"A":{"a":1,"b":4},"B":{"a":4,"b":1},"C":{"a":2,"b":8},"D":{"a":8,"b":2}},"conditions":["nonSeqFull","nonSeqPartial","seqNoFeedback","seqFeedback"],"classroomPairings":[["A","B"],["C","D"]],"coinWeights":[0.2,0.5,0.8],"subjectId":"A1AKL5YH9NLD2V","assignmentId":"3TUI152ZZC9Z997SBW2XI3Z26Y91QW","hitId":"3UDTAB6HH6LRO17U79I9TKUGSHV90J","url":"https://gershmanlab.com/experiments/alicia/teaching/experiment/?hitId=3UDTAB6HH6LRO17U79I9TKUGSHV90J&workerId=A1AKL5YH9NLD2V&assignmentId=3TUI152ZZC9Z997SBW2XI3Z26Y91QW&a=Z1UT9&tp_a=Z1UT9&b=3TUI152ZZC9Z997SBW2XI3Z26Y91QW&tp_b=3TUI152ZZC9Z997SBW2XI3Z26Y91QW&c=365799&tp_c=365799","heads":1,"tails":4,"studentIndex":17,"studentTrueHypers":{"a":4,"b":1},"studentGuess":0.5,"delta":0.3,"totalExamples":5,"bonus":0,"bonusSoFar":3.13},{"rt":17806,"response":{"heads":"15","tails":"15"},"type":"response","condition":"nonSeqFull","trueTheta":0.5,"classrooms":["C","D"],"studentTrueClassroom":"C","exampleSet":"first","trial_type":"survey-html-form","trial_index":147,"time_elapsed":788583,"internal_node_id":"0.0-146.0-0.0","params":{"nStudents":24,"maxFlips":30,"completionMinutes":45,"basePay":8,"maxBonus":9,"perTrialBonus":0.5,"perTrialBonusThreshold":0.05,"exampleCost":0.01},"classroomParams":{"A":{"a":1,"b":4},"B":{"a":4,"b":1},"C":{"a":2,"b":8},"D":{"a":8,"b":2}},"conditions":["nonSeqFull","nonSeqPartial","seqNoFeedback","seqFeedback"],"classroomPairings":[["A","B"],["C","D"]],"coinWeights":[0.2,0.5,0.8],"subjectId":"A1AKL5YH9NLD2V","assignmentId":"3TUI152ZZC9Z997SBW2XI3Z26Y91QW","hitId":"3UDTAB6HH6LRO17U79I9TKUGSHV90J","url":"https://gershmanlab.com/experiments/alicia/teaching/experiment/?hitId=3UDTAB6HH6LRO17U79I9TKUGSHV90J&workerId=A1AKL5YH9NLD2V&assignmentId=3TUI152ZZC9Z997SBW2XI3Z26Y91QW&a=Z1UT9&tp_a=Z1UT9&b=3TUI152ZZC9Z997SBW2XI3Z26Y91QW&tp_b=3TUI152ZZC9Z997SBW2XI3Z26Y91QW&c=365799&tp_c=365799","heads":15,"tails":15,"studentIndex":18,"studentTrueHypers":{"a":2,"b":8},"studentGuess":0.425,"delta":0.07500000000000001,"totalExamples":30,"bonus":0,"bonusSoFar":3.13},{"rt":4863,"response":{"heads":"1","tails":"4"},"type":"response","condition":"seqNoFeedback","trueTheta":0.2,"classrooms":["C","D"],"studentTrueClassroom":"D","exampleSet":"first","trial_type":"survey-html-form","trial_index":153,"time_elapsed":806742,"internal_node_id":"0.0-152.0-0.0","params":{"nStudents":24,"maxFlips":30,"completionMinutes":45,"basePay":8,"maxBonus":9,"perTrialBonus":0.5,"perTrialBonusThreshold":0.05,"exampleCost":0.01},"classroomParams":{"A":{"a":1,"b":4},"B":{"a":4,"b":1},"C":{"a":2,"b":8},"D":{"a":8,"b":2}},"conditions":["nonSeqFull","nonSeqPartial","seqNoFeedback","seqFeedback"],"classroomPairings":[["A","B"],["C","D"]],"coinWeights":[0.2,0.5,0.8],"subjectId":"A1AKL5YH9NLD2V","assignmentId":"3TUI152ZZC9Z997SBW2XI3Z26Y91QW","hitId":"3UDTAB6HH6LRO17U79I9TKUGSHV90J","url":"https://gershmanlab.com/experiments/alicia/teaching/experiment/?hitId=3UDTAB6HH6LRO17U79I9TKUGSHV90J&workerId=A1AKL5YH9NLD2V&assignmentId=3TUI152ZZC9Z997SBW2XI3Z26Y91QW&a=Z1UT9&tp_a=Z1UT9&b=3TUI152ZZC9Z997SBW2XI3Z26Y91QW&tp_b=3TUI152ZZC9Z997SBW2XI3Z26Y91QW&c=365799&tp_c=365799","heads":1,"tails":4,"studentIndex":19,"studentTrueHypers":{"a":8,"b":2},"studentGuess":0.6,"delta":0.39999999999999997,"totalExamples":5,"bonusSoFar":3.13},{"rt":4874,"response":{"heads":"1","tails":"4"},"type":"response","condition":"seqNoFeedback","trueTheta":0.2,"classrooms":["C","D"],"studentTrueClassroom":"D","exampleSet":"second","trial_type":"survey-html-form","trial_index":156,"time_elapsed":817398,"internal_node_id":"0.0-155.0-0.0","params":{"nStudents":24,"maxFlips":30,"completionMinutes":45,"basePay":8,"maxBonus":9,"perTrialBonus":0.5,"perTrialBonusThreshold":0.05,"exampleCost":0.01},"classroomParams":{"A":{"a":1,"b":4},"B":{"a":4,"b":1},"C":{"a":2,"b":8},"D":{"a":8,"b":2}},"conditions":["nonSeqFull","nonSeqPartial","seqNoFeedback","seqFeedback"],"classroomPairings":[["A","B"],["C","D"]],"coinWeights":[0.2,0.5,0.8],"subjectId":"A1AKL5YH9NLD2V","assignmentId":"3TUI152ZZC9Z997SBW2XI3Z26Y91QW","hitId":"3UDTAB6HH6LRO17U79I9TKUGSHV90J","url":"https://gershmanlab.com/experiments/alicia/teaching/experiment/?hitId=3UDTAB6HH6LRO17U79I9TKUGSHV90J&workerId=A1AKL5YH9NLD2V&assignmentId=3TUI152ZZC9Z997SBW2XI3Z26Y91QW&a=Z1UT9&tp_a=Z1UT9&b=3TUI152ZZC9Z997SBW2XI3Z26Y91QW&tp_b=3TUI152ZZC9Z997SBW2XI3Z26Y91QW&c=365799&tp_c=365799","firstResponseHeads":1,"firstResponseTails":4,"secondResponseHeads":1,"secondResponseTails":4,"totalHeads":2,"totalTails":8,"studentIndex":19,"studentTrueHypers":{"a":8,"b":2},"studentGuess":0.5,"delta":0.3,"bonus":0,"bonusSoFar":3.13,"totalExamples":10},{"rt":2111,"response":{"heads":"1","tails":"4"},"type":"response","condition":"nonSeqPartial","trueTheta":0.2,"classrooms":["A","B"],"studentTrueClassroom":"A","exampleSet":"first","trial_type":"survey-html-form","trial_index":162,"time_elapsed":834254,"internal_node_id":"0.0-161.0-0.0","params":{"nStudents":24,"maxFlips":30,"completionMinutes":45,"basePay":8,"maxBonus":9,"perTrialBonus":0.5,"perTrialBonusThreshold":0.05,"exampleCost":0.01},"classroomParams":{"A":{"a":1,"b":4},"B":{"a":4,"b":1},"C":{"a":2,"b":8},"D":{"a":8,"b":2}},"conditions":["nonSeqFull","nonSeqPartial","seqNoFeedback","seqFeedback"],"classroomPairings":[["A","B"],["C","D"]],"coinWeights":[0.2,0.5,0.8],"subjectId":"A1AKL5YH9NLD2V","assignmentId":"3TUI152ZZC9Z997SBW2XI3Z26Y91QW","hitId":"3UDTAB6HH6LRO17U79I9TKUGSHV90J","url":"https://gershmanlab.com/experiments/alicia/teaching/experiment/?hitId=3UDTAB6HH6LRO17U79I9TKUGSHV90J&workerId=A1AKL5YH9NLD2V&assignmentId=3TUI152ZZC9Z997SBW2XI3Z26Y91QW&a=Z1UT9&tp_a=Z1UT9&b=3TUI152ZZC9Z997SBW2XI3Z26Y91QW&tp_b=3TUI152ZZC9Z997SBW2XI3Z26Y91QW&c=365799&tp_c=365799","heads":1,"tails":4,"studentIndex":20,"studentTrueHypers":{"a":1,"b":4},"studentGuess":0.2,"delta":0,"totalExamples":5,"bonus":0.45,"bonusSoFar":3.58},{"rt":1847,"response":{"heads":"4","tails":"1"},"type":"response","condition":"seqFeedback","trueTheta":0.8,"classrooms":["C","D"],"studentTrueClassroom":"C","exampleSet":"first","trial_type":"survey-html-form","trial_index":168,"time_elapsed":850326,"internal_node_id":"0.0-167.0-0.0","params":{"nStudents":24,"maxFlips":30,"completionMinutes":45,"basePay":8,"maxBonus":9,"perTrialBonus":0.5,"perTrialBonusThreshold":0.05,"exampleCost":0.01},"classroomParams":{"A":{"a":1,"b":4},"B":{"a":4,"b":1},"C":{"a":2,"b":8},"D":{"a":8,"b":2}},"conditions":["nonSeqFull","nonSeqPartial","seqNoFeedback","seqFeedback"],"classroomPairings":[["A","B"],["C","D"]],"coinWeights":[0.2,0.5,0.8],"subjectId":"A1AKL5YH9NLD2V","assignmentId":"3TUI152ZZC9Z997SBW2XI3Z26Y91QW","hitId":"3UDTAB6HH6LRO17U79I9TKUGSHV90J","url":"https://gershmanlab.com/experiments/alicia/teaching/experiment/?hitId=3UDTAB6HH6LRO17U79I9TKUGSHV90J&workerId=A1AKL5YH9NLD2V&assignmentId=3TUI152ZZC9Z997SBW2XI3Z26Y91QW&a=Z1UT9&tp_a=Z1UT9&b=3TUI152ZZC9Z997SBW2XI3Z26Y91QW&tp_b=3TUI152ZZC9Z997SBW2XI3Z26Y91QW&c=365799&tp_c=365799","heads":4,"tails":1,"studentIndex":21,"studentTrueHypers":{"a":2,"b":8},"studentGuess":0.4,"delta":0.4,"totalExamples":5,"bonusSoFar":3.58},{"rt":6969,"response":{"heads":"12","tails":"3"},"type":"response","condition":"seqFeedback","trueTheta":0.8,"classrooms":["C","D"],"studentTrueClassroom":"C","exampleSet":"second","trial_type":"survey-html-form","trial_index":172,"time_elapsed":866550,"internal_node_id":"0.0-171.0-0.0","params":{"nStudents":24,"maxFlips":30,"completionMinutes":45,"basePay":8,"maxBonus":9,"perTrialBonus":0.5,"perTrialBonusThreshold":0.05,"exampleCost":0.01},"classroomParams":{"A":{"a":1,"b":4},"B":{"a":4,"b":1},"C":{"a":2,"b":8},"D":{"a":8,"b":2}},"conditions":["nonSeqFull","nonSeqPartial","seqNoFeedback","seqFeedback"],"classroomPairings":[["A","B"],["C","D"]],"coinWeights":[0.2,0.5,0.8],"subjectId":"A1AKL5YH9NLD2V","assignmentId":"3TUI152ZZC9Z997SBW2XI3Z26Y91QW","hitId":"3UDTAB6HH6LRO17U79I9TKUGSHV90J","url":"https://gershmanlab.com/experiments/alicia/teaching/experiment/?hitId=3UDTAB6HH6LRO17U79I9TKUGSHV90J&workerId=A1AKL5YH9NLD2V&assignmentId=3TUI152ZZC9Z997SBW2XI3Z26Y91QW&a=Z1UT9&tp_a=Z1UT9&b=3TUI152ZZC9Z997SBW2XI3Z26Y91QW&tp_b=3TUI152ZZC9Z997SBW2XI3Z26Y91QW&c=365799&tp_c=365799","firstResponseHeads":4,"firstResponseTails":1,"secondResponseHeads":12,"secondResponseTails":3,"totalHeads":16,"totalTails":4,"studentIndex":21,"studentTrueHypers":{"a":2,"b":8},"studentGuess":0.6,"delta":0.20000000000000007,"bonus":0,"bonusSoFar":3.58,"totalExamples":20},{"rt":3031,"response":{"heads":"4","tails":"1"},"type":"response","condition":"nonSeqPartial","trueTheta":0.8,"classrooms":["A","B"],"studentTrueClassroom":"B","exampleSet":"first","trial_type":"survey-html-form","trial_index":178,"time_elapsed":883477,"internal_node_id":"0.0-177.0-0.0","params":{"nStudents":24,"maxFlips":30,"completionMinutes":45,"basePay":8,"maxBonus":9,"perTrialBonus":0.5,"perTrialBonusThreshold":0.05,"exampleCost":0.01},"classroomParams":{"A":{"a":1,"b":4},"B":{"a":4,"b":1},"C":{"a":2,"b":8},"D":{"a":8,"b":2}},"conditions":["nonSeqFull","nonSeqPartial","seqNoFeedback","seqFeedback"],"classroomPairings":[["A","B"],["C","D"]],"coinWeights":[0.2,0.5,0.8],"subjectId":"A1AKL5YH9NLD2V","assignmentId":"3TUI152ZZC9Z997SBW2XI3Z26Y91QW","hitId":"3UDTAB6HH6LRO17U79I9TKUGSHV90J","url":"https://gershmanlab.com/experiments/alicia/teaching/experiment/?hitId=3UDTAB6HH6LRO17U79I9TKUGSHV90J&workerId=A1AKL5YH9NLD2V&assignmentId=3TUI152ZZC9Z997SBW2XI3Z26Y91QW&a=Z1UT9&tp_a=Z1UT9&b=3TUI152ZZC9Z997SBW2XI3Z26Y91QW&tp_b=3TUI152ZZC9Z997SBW2XI3Z26Y91QW&c=365799&tp_c=365799","heads":4,"tails":1,"studentIndex":22,"studentTrueHypers":{"a":4,"b":1},"studentGuess":0.8,"delta":0,"totalExamples":5,"bonus":0.45,"bonusSoFar":4.03},{"rt":2175,"response":{"heads":"1","tails":"4"},"type":"response","condition":"seqNoFeedback","trueTheta":0.2,"classrooms":["A","B"],"studentTrueClassroom":"A","exampleSet":"first","trial_type":"survey-html-form","trial_index":184,"time_elapsed":898333,"internal_node_id":"0.0-183.0-0.0","params":{"nStudents":24,"maxFlips":30,"completionMinutes":45,"basePay":8,"maxBonus":9,"perTrialBonus":0.5,"perTrialBonusThreshold":0.05,"exampleCost":0.01},"classroomParams":{"A":{"a":1,"b":4},"B":{"a":4,"b":1},"C":{"a":2,"b":8},"D":{"a":8,"b":2}},"conditions":["nonSeqFull","nonSeqPartial","seqNoFeedback","seqFeedback"],"classroomPairings":[["A","B"],["C","D"]],"coinWeights":[0.2,0.5,0.8],"subjectId":"A1AKL5YH9NLD2V","assignmentId":"3TUI152ZZC9Z997SBW2XI3Z26Y91QW","hitId":"3UDTAB6HH6LRO17U79I9TKUGSHV90J","url":"https://gershmanlab.com/experiments/alicia/teaching/experiment/?hitId=3UDTAB6HH6LRO17U79I9TKUGSHV90J&workerId=A1AKL5YH9NLD2V&assignmentId=3TUI152ZZC9Z997SBW2XI3Z26Y91QW&a=Z1UT9&tp_a=Z1UT9&b=3TUI152ZZC9Z997SBW2XI3Z26Y91QW&tp_b=3TUI152ZZC9Z997SBW2XI3Z26Y91QW&c=365799&tp_c=365799","heads":1,"tails":4,"studentIndex":23,"studentTrueHypers":{"a":1,"b":4},"studentGuess":0.2,"delta":0,"totalExamples":5,"bonusSoFar":4.03},{"rt":3812,"response":{"heads":"1","tails":"4"},"type":"response","condition":"seqNoFeedback","trueTheta":0.2,"classrooms":["A","B"],"studentTrueClassroom":"A","exampleSet":"second","trial_type":"survey-html-form","trial_index":187,"time_elapsed":909886,"internal_node_id":"0.0-186.0-0.0","params":{"nStudents":24,"maxFlips":30,"completionMinutes":45,"basePay":8,"maxBonus":9,"perTrialBonus":0.5,"perTrialBonusThreshold":0.05,"exampleCost":0.01},"classroomParams":{"A":{"a":1,"b":4},"B":{"a":4,"b":1},"C":{"a":2,"b":8},"D":{"a":8,"b":2}},"conditions":["nonSeqFull","nonSeqPartial","seqNoFeedback","seqFeedback"],"classroomPairings":[["A","B"],["C","D"]],"coinWeights":[0.2,0.5,0.8],"subjectId":"A1AKL5YH9NLD2V","assignmentId":"3TUI152ZZC9Z997SBW2XI3Z26Y91QW","hitId":"3UDTAB6HH6LRO17U79I9TKUGSHV90J","url":"https://gershmanlab.com/experiments/alicia/teaching/experiment/?hitId=3UDTAB6HH6LRO17U79I9TKUGSHV90J&workerId=A1AKL5YH9NLD2V&assignmentId=3TUI152ZZC9Z997SBW2XI3Z26Y91QW&a=Z1UT9&tp_a=Z1UT9&b=3TUI152ZZC9Z997SBW2XI3Z26Y91QW&tp_b=3TUI152ZZC9Z997SBW2XI3Z26Y91QW&c=365799&tp_c=365799","firstResponseHeads":1,"firstResponseTails":4,"secondResponseHeads":1,"secondResponseTails":4,"totalHeads":2,"totalTails":8,"studentIndex":23,"studentTrueHypers":{"a":1,"b":4},"studentGuess":0.2,"delta":0,"bonus":0.4,"bonusSoFar":4.43,"totalExamples":10},{"rt":15649,"response":{"gender":"male","age":"33","understood":"yes","comments":"No comments."},"type":"response","trial_type":"survey-html-form","trial_index":191,"time_elapsed":932981,"internal_node_id":"0.0-191.0","params":{"nStudents":24,"maxFlips":30,"completionMinutes":45,"basePay":8,"maxBonus":9,"perTrialBonus":0.5,"perTrialBonusThreshold":0.05,"exampleCost":0.01},"classroomParams":{"A":{"a":1,"b":4},"B":{"a":4,"b":1},"C":{"a":2,"b":8},"D":{"a":8,"b":2}},"conditions":["nonSeqFull","nonSeqPartial","seqNoFeedback","seqFeedback"],"classroomPairings":[["A","B"],["C","D"]],"coinWeights":[0.2,0.5,0.8],"subjectId":"A1AKL5YH9NLD2V","assignmentId":"3TUI152ZZC9Z997SBW2XI3Z26Y91QW","hitId":"3UDTAB6HH6LRO17U79I9TKUGSHV90J","url":"https://gershmanlab.com/experiments/alicia/teaching/experiment/?hitId=3UDTAB6HH6LRO17U79I9TKUGSHV90J&workerId=A1AKL5YH9NLD2V&assignmentId=3TUI152ZZC9Z997SBW2XI3Z26Y91QW&a=Z1UT9&tp_a=Z1UT9&b=3TUI152ZZC9Z997SBW2XI3Z26Y91QW&tp_b=3TUI152ZZC9Z997SBW2XI3Z26Y91QW&c=365799&tp_c=365799","totalBonus":4.43}]