[{"rt":27535,"response":{"heads":"25","tails":"5"},"type":"response","condition":"nonSeqPartial","trueTheta":0.8,"classrooms":["C","D"],"studentTrueClassroom":"C","exampleSet":"first","trial_type":"survey-html-form","trial_index":13,"time_elapsed":352161,"internal_node_id":"0.0-6.0-0.0","params":{"nStudents":24,"maxFlips":30,"completionMinutes":45,"basePay":8,"maxBonus":9,"perTrialBonus":0.5,"perTrialBonusThreshold":0.05,"exampleCost":0.01},"classroomParams":{"A":{"a":1,"b":4},"B":{"a":4,"b":1},"C":{"a":2,"b":8},"D":{"a":8,"b":2}},"conditions":["nonSeqFull","nonSeqPartial","seqNoFeedback","seqFeedback"],"classroomPairings":[["A","B"],["C","D"]],"coinWeights":[0.2,0.5,0.8],"subjectId":"A1BE5NGDU9B9JG","assignmentId":"3SB5N7Y3O4Q8PVSWCHTLAKCQVI9G0Q","hitId":"34XASH8KLQ89J2U8D314D7180O4PMV","url":"https://gershmanlab.com/experiments/alicia/teaching/experiment/?hitId=34XASH8KLQ89J2U8D314D7180O4PMV&workerId=A1BE5NGDU9B9JG&assignmentId=3SB5N7Y3O4Q8PVSWCHTLAKCQVI9G0Q&a=3NBS7&tp_a=3NBS7&b=3SB5N7Y3O4Q8PVSWCHTLAKCQVI9G0Q&tp_b=3SB5N7Y3O4Q8PVSWCHTLAKCQVI9G0Q&c=365717&tp_c=365717","heads":25,"tails":5,"studentIndex":0,"studentTrueHypers":{"a":2,"b":8},"studentGuess":0.675,"delta":0.125,"totalExamples":30,"bonus":0,"bonusSoFar":0},{"rt":16718,"response":{"heads":"3","tails":"27"},"type":"response","condition":"nonSeqPartial","trueTheta":0.2,"classrooms":["C","D"],"studentTrueClassroom":"D","exampleSet":"first","trial_type":"survey-html-form","trial_index":19,"time_elapsed":386533,"internal_node_id":"0.0-12.0-0.0","params":{"nStudents":24,"maxFlips":30,"completionMinutes":45,"basePay":8,"maxBonus":9,"perTrialBonus":0.5,"perTrialBonusThreshold":0.05,"exampleCost":0.01},"classroomParams":{"A":{"a":1,"b":4},"B":{"a":4,"b":1},"C":{"a":2,"b":8},"D":{"a":8,"b":2}},"conditions":["nonSeqFull","nonSeqPartial","seqNoFeedback","seqFeedback"],"classroomPairings":[["A","B"],["C","D"]],"coinWeights":[0.2,0.5,0.8],"subjectId":"A1BE5NGDU9B9JG","assignmentId":"3SB5N7Y3O4Q8PVSWCHTLAKCQVI9G0Q","hitId":"34XASH8KLQ89J2U8D314D7180O4PMV","url":"https://gershmanlab.com/experiments/alicia/teaching/experiment/?hitId=34XASH8KLQ89J2U8D314D7180O4PMV&workerId=A1BE5NGDU9B9JG&assignmentId=3SB5N7Y3O4Q8PVSWCHTLAKCQVI9G0Q&a=3NBS7&tp_a=3NBS7&b=3SB5N7Y3O4Q8PVSWCHTLAKCQVI9G0Q&tp_b=3SB5N7Y3O4Q8PVSWCHTLAKCQVI9G0Q&c=365717&tp_c=365717","heads":3,"tails":27,"studentIndex":1,"studentTrueHypers":{"a":8,"b":2},"studentGuess":0.275,"delta":0.07500000000000001,"totalExamples":30,"bonus":0,"bonusSoFar":0},{"rt":3025,"response":{"heads":"15","tails":"15"},"type":"response","condition":"nonSeqFull","trueTheta":0.5,"classrooms":["A","B"],"studentTrueClassroom":"B","exampleSet":"first","trial_type":"survey-html-form","trial_index":25,"time_elapsed":410136,"internal_node_id":"0.0-18.0-0.0","params":{"nStudents":24,"maxFlips":30,"completionMinutes":45,"basePay":8,"maxBonus":9,"perTrialBonus":0.5,"perTrialBonusThreshold":0.05,"exampleCost":0.01},"classroomParams":{"A":{"a":1,"b":4},"B":{"a":4,"b":1},"C":{"a":2,"b":8},"D":{"a":8,"b":2}},"conditions":["nonSeqFull","nonSeqPartial","seqNoFeedback","seqFeedback"],"classroomPairings":[["A","B"],["C","D"]],"coinWeights":[0.2,0.5,0.8],"subjectId":"A1BE5NGDU9B9JG","assignmentId":"3SB5N7Y3O4Q8PVSWCHTLAKCQVI9G0Q","hitId":"34XASH8KLQ89J2U8D314D7180O4PMV","url":"https://gershmanlab.com/experiments/alicia/teaching/experiment/?hitId=34XASH8KLQ89J2U8D314D7180O4PMV&workerId=A1BE5NGDU9B9JG&assignmentId=3SB5N7Y3O4Q8PVSWCHTLAKCQVI9G0Q&a=3NBS7&tp_a=3NBS7&b=3SB5N7Y3O4Q8PVSWCHTLAKCQVI9G0Q&tp_b=3SB5N7Y3O4Q8PVSWCHTLAKCQVI9G0Q&c=365717&tp_c=365717","heads":15,"tails":15,"studentIndex":2,"studentTrueHypers":{"a":4,"b":1},"studentGuess":0.5428571428571428,"delta":0.042857142857142816,"totalExamples":30,"bonus":0.2,"bonusSoFar":0.2},{"rt":13344,"response":{"heads":"10","tails":"2"},"type":"response","condition":"nonSeqFull","trueTheta":0.2,"classrooms":["C","D"],"studentTrueClassroom":"D","exampleSet":"first","trial_type":"survey-html-form","trial_index":31,"time_elapsed":438538,"internal_node_id":"0.0-24.0-0.0","params":{"nStudents":24,"maxFlips":30,"completionMinutes":45,"basePay":8,"maxBonus":9,"perTrialBonus":0.5,"perTrialBonusThreshold":0.05,"exampleCost":0.01},"classroomParams":{"A":{"a":1,"b":4},"B":{"a":4,"b":1},"C":{"a":2,"b":8},"D":{"a":8,"b":2}},"conditions":["nonSeqFull","nonSeqPartial","seqNoFeedback","seqFeedback"],"classroomPairings":[["A","B"],["C","D"]],"coinWeights":[0.2,0.5,0.8],"subjectId":"A1BE5NGDU9B9JG","assignmentId":"3SB5N7Y3O4Q8PVSWCHTLAKCQVI9G0Q","hitId":"34XASH8KLQ89J2U8D314D7180O4PMV","url":"https://gershmanlab.com/experiments/alicia/teaching/experiment/?hitId=34XASH8KLQ89J2U8D314D7180O4PMV&workerId=A1BE5NGDU9B9JG&assignmentId=3SB5N7Y3O4Q8PVSWCHTLAKCQVI9G0Q&a=3NBS7&tp_a=3NBS7&b=3SB5N7Y3O4Q8PVSWCHTLAKCQVI9G0Q&tp_b=3SB5N7Y3O4Q8PVSWCHTLAKCQVI9G0Q&c=365717&tp_c=365717","heads":10,"tails":2,"studentIndex":3,"studentTrueHypers":{"a":8,"b":2},"studentGuess":0.8181818181818182,"delta":0.6181818181818182,"totalExamples":12,"bonus":0,"bonusSoFar":0.2},{"rt":7743,"response":{"heads":"10","tails":"2"},"type":"response","condition":"seqNoFeedback","trueTheta":0.8,"classrooms":["C","D"],"studentTrueClassroom":"D","exampleSet":"first","trial_type":"survey-html-form","trial_index":37,"time_elapsed":466073,"internal_node_id":"0.0-30.0-0.0","params":{"nStudents":24,"maxFlips":30,"completionMinutes":45,"basePay":8,"maxBonus":9,"perTrialBonus":0.5,"perTrialBonusThreshold":0.05,"exampleCost":0.01},"classroomParams":{"A":{"a":1,"b":4},"B":{"a":4,"b":1},"C":{"a":2,"b":8},"D":{"a":8,"b":2}},"conditions":["nonSeqFull","nonSeqPartial","seqNoFeedback","seqFeedback"],"classroomPairings":[["A","B"],["C","D"]],"coinWeights":[0.2,0.5,0.8],"subjectId":"A1BE5NGDU9B9JG","assignmentId":"3SB5N7Y3O4Q8PVSWCHTLAKCQVI9G0Q","hitId":"34XASH8KLQ89J2U8D314D7180O4PMV","url":"https://gershmanlab.com/experiments/alicia/teaching/experiment/?hitId=34XASH8KLQ89J2U8D314D7180O4PMV&workerId=A1BE5NGDU9B9JG&assignmentId=3SB5N7Y3O4Q8PVSWCHTLAKCQVI9G0Q&a=3NBS7&tp_a=3NBS7&b=3SB5N7Y3O4Q8PVSWCHTLAKCQVI9G0Q&tp_b=3SB5N7Y3O4Q8PVSWCHTLAKCQVI9G0Q&c=365717&tp_c=365717","heads":10,"tails":2,"studentIndex":4,"studentTrueHypers":{"a":8,"b":2},"studentGuess":0.8181818181818182,"delta":0.018181818181818188,"totalExamples":12,"bonusSoFar":0.2},{"rt":14720,"response":{"heads":"12","tails":"2"},"type":"response","condition":"seqNoFeedback","trueTheta":0.8,"classrooms":["C","D"],"studentTrueClassroom":"D","exampleSet":"second","trial_type":"survey-html-form","trial_index":40,"time_elapsed":487806,"internal_node_id":"0.0-33.0-0.0","params":{"nStudents":24,"maxFlips":30,"completionMinutes":45,"basePay":8,"maxBonus":9,"perTrialBonus":0.5,"perTrialBonusThreshold":0.05,"exampleCost":0.01},"classroomParams":{"A":{"a":1,"b":4},"B":{"a":4,"b":1},"C":{"a":2,"b":8},"D":{"a":8,"b":2}},"conditions":["nonSeqFull","nonSeqPartial","seqNoFeedback","seqFeedback"],"classroomPairings":[["A","B"],["C","D"]],"coinWeights":[0.2,0.5,0.8],"subjectId":"A1BE5NGDU9B9JG","assignmentId":"3SB5N7Y3O4Q8PVSWCHTLAKCQVI9G0Q","hitId":"34XASH8KLQ89J2U8D314D7180O4PMV","url":"https://gershmanlab.com/experiments/alicia/teaching/experiment/?hitId=34XASH8KLQ89J2U8D314D7180O4PMV&workerId=A1BE5NGDU9B9JG&assignmentId=3SB5N7Y3O4Q8PVSWCHTLAKCQVI9G0Q&a=3NBS7&tp_a=3NBS7&b=3SB5N7Y3O4Q8PVSWCHTLAKCQVI9G0Q&tp_b=3SB5N7Y3O4Q8PVSWCHTLAKCQVI9G0Q&c=365717&tp_c=365717","firstResponseHeads":10,"firstResponseTails":2,"secondResponseHeads":12,"secondResponseTails":2,"totalHeads":22,"totalTails":4,"studentIndex":4,"studentTrueHypers":{"a":8,"b":2},"studentGuess":0.8333333333333334,"delta":0.033333333333333326,"bonus":0.24,"bonusSoFar":0.44,"totalExamples":26},{"rt":9004,"response":{"heads":"4","tails":"4"},"type":"response","condition":"nonSeqPartial","trueTheta":0.5,"classrooms":["A","B"],"studentTrueClassroom":"A","exampleSet":"first","trial_type":"survey-html-form","trial_index":46,"time_elapsed":520662,"internal_node_id":"0.0-39.0-0.0","params":{"nStudents":24,"maxFlips":30,"completionMinutes":45,"basePay":8,"maxBonus":9,"perTrialBonus":0.5,"perTrialBonusThreshold":0.05,"exampleCost":0.01},"classroomParams":{"A":{"a":1,"b":4},"B":{"a":4,"b":1},"C":{"a":2,"b":8},"D":{"a":8,"b":2}},"conditions":["nonSeqFull","nonSeqPartial","seqNoFeedback","seqFeedback"],"classroomPairings":[["A","B"],["C","D"]],"coinWeights":[0.2,0.5,0.8],"subjectId":"A1BE5NGDU9B9JG","assignmentId":"3SB5N7Y3O4Q8PVSWCHTLAKCQVI9G0Q","hitId":"34XASH8KLQ89J2U8D314D7180O4PMV","url":"https://gershmanlab.com/experiments/alicia/teaching/experiment/?hitId=34XASH8KLQ89J2U8D314D7180O4PMV&workerId=A1BE5NGDU9B9JG&assignmentId=3SB5N7Y3O4Q8PVSWCHTLAKCQVI9G0Q&a=3NBS7&tp_a=3NBS7&b=3SB5N7Y3O4Q8PVSWCHTLAKCQVI9G0Q&tp_b=3SB5N7Y3O4Q8PVSWCHTLAKCQVI9G0Q&c=365717&tp_c=365717","heads":4,"tails":4,"studentIndex":5,"studentTrueHypers":{"a":1,"b":4},"studentGuess":0.38461538461538464,"delta":0.11538461538461536,"totalExamples":8,"bonus":0,"bonusSoFar":0.44},{"rt":9968,"response":{"heads":"9","tails":"2"},"type":"response","condition":"nonSeqPartial","trueTheta":0.2,"classrooms":["A","B"],"studentTrueClassroom":"A","exampleSet":"first","trial_type":"survey-html-form","trial_index":52,"time_elapsed":547923,"internal_node_id":"0.0-45.0-0.0","params":{"nStudents":24,"maxFlips":30,"completionMinutes":45,"basePay":8,"maxBonus":9,"perTrialBonus":0.5,"perTrialBonusThreshold":0.05,"exampleCost":0.01},"classroomParams":{"A":{"a":1,"b":4},"B":{"a":4,"b":1},"C":{"a":2,"b":8},"D":{"a":8,"b":2}},"conditions":["nonSeqFull","nonSeqPartial","seqNoFeedback","seqFeedback"],"classroomPairings":[["A","B"],["C","D"]],"coinWeights":[0.2,0.5,0.8],"subjectId":"A1BE5NGDU9B9JG","assignmentId":"3SB5N7Y3O4Q8PVSWCHTLAKCQVI9G0Q","hitId":"34XASH8KLQ89J2U8D314D7180O4PMV","url":"https://gershmanlab.com/experiments/alicia/teaching/experiment/?hitId=34XASH8KLQ89J2U8D314D7180O4PMV&workerId=A1BE5NGDU9B9JG&assignmentId=3SB5N7Y3O4Q8PVSWCHTLAKCQVI9G0Q&a=3NBS7&tp_a=3NBS7&b=3SB5N7Y3O4Q8PVSWCHTLAKCQVI9G0Q&tp_b=3SB5N7Y3O4Q8PVSWCHTLAKCQVI9G0Q&c=365717&tp_c=365717","heads":9,"tails":2,"studentIndex":6,"studentTrueHypers":{"a":1,"b":4},"studentGuess":0.625,"delta":0.425,"totalExamples":11,"bonus":0,"bonusSoFar":0.44},{"rt":15264,"response":{"heads":"4","tails":"4"},"type":"response","condition":"seqFeedback","trueTheta":0.5,"classrooms":["A","B"],"studentTrueClassroom":"B","exampleSet":"first","trial_type":"survey-html-form","trial_index":58,"time_elapsed":589091,"internal_node_id":"0.0-51.0-0.0","params":{"nStudents":24,"maxFlips":30,"completionMinutes":45,"basePay":8,"maxBonus":9,"perTrialBonus":0.5,"perTrialBonusThreshold":0.05,"exampleCost":0.01},"classroomParams":{"A":{"a":1,"b":4},"B":{"a":4,"b":1},"C":{"a":2,"b":8},"D":{"a":8,"b":2}},"conditions":["nonSeqFull","nonSeqPartial","seqNoFeedback","seqFeedback"],"classroomPairings":[["A","B"],["C","D"]],"coinWeights":[0.2,0.5,0.8],"subjectId":"A1BE5NGDU9B9JG","assignmentId":"3SB5N7Y3O4Q8PVSWCHTLAKCQVI9G0Q","hitId":"34XASH8KLQ89J2U8D314D7180O4PMV","url":"https://gershmanlab.com/experiments/alicia/teaching/experiment/?hitId=34XASH8KLQ89J2U8D314D7180O4PMV&workerId=A1BE5NGDU9B9JG&assignmentId=3SB5N7Y3O4Q8PVSWCHTLAKCQVI9G0Q&a=3NBS7&tp_a=3NBS7&b=3SB5N7Y3O4Q8PVSWCHTLAKCQVI9G0Q&tp_b=3SB5N7Y3O4Q8PVSWCHTLAKCQVI9G0Q&c=365717&tp_c=365717","heads":4,"tails":4,"studentIndex":7,"studentTrueHypers":{"a":4,"b":1},"studentGuess":0.6153846153846154,"delta":0.11538461538461542,"totalExamples":8,"bonusSoFar":0.44},{"rt":11464,"response":{"heads":"4","tails":"6"},"type":"response","condition":"seqFeedback","trueTheta":0.5,"classrooms":["A","B"],"studentTrueClassroom":"B","exampleSet":"second","trial_type":"survey-html-form","trial_index":62,"time_elapsed":616041,"internal_node_id":"0.0-55.0-0.0","params":{"nStudents":24,"maxFlips":30,"completionMinutes":45,"basePay":8,"maxBonus":9,"perTrialBonus":0.5,"perTrialBonusThreshold":0.05,"exampleCost":0.01},"classroomParams":{"A":{"a":1,"b":4},"B":{"a":4,"b":1},"C":{"a":2,"b":8},"D":{"a":8,"b":2}},"conditions":["nonSeqFull","nonSeqPartial","seqNoFeedback","seqFeedback"],"classroomPairings":[["A","B"],["C","D"]],"coinWeights":[0.2,0.5,0.8],"subjectId":"A1BE5NGDU9B9JG","assignmentId":"3SB5N7Y3O4Q8PVSWCHTLAKCQVI9G0Q","hitId":"34XASH8KLQ89J2U8D314D7180O4PMV","url":"https://gershmanlab.com/experiments/alicia/teaching/experiment/?hitId=34XASH8KLQ89J2U8D314D7180O4PMV&workerId=A1BE5NGDU9B9JG&assignmentId=3SB5N7Y3O4Q8PVSWCHTLAKCQVI9G0Q&a=3NBS7&tp_a=3NBS7&b=3SB5N7Y3O4Q8PVSWCHTLAKCQVI9G0Q&tp_b=3SB5N7Y3O4Q8PVSWCHTLAKCQVI9G0Q&c=365717&tp_c=365717","firstResponseHeads":4,"firstResponseTails":4,"secondResponseHeads":4,"secondResponseTails":6,"totalHeads":8,"totalTails":10,"studentIndex":7,"studentTrueHypers":{"a":4,"b":1},"studentGuess":0.5217391304347826,"delta":0.021739130434782594,"bonus":0.32,"bonusSoFar":0.76,"totalExamples":18},{"rt":22018,"response":{"heads":"8","tails":"2"},"type":"response","condition":"nonSeqFull","trueTheta":0.8,"classrooms":["A","B"],"studentTrueClassroom":"B","exampleSet":"first","trial_type":"survey-html-form","trial_index":68,"time_elapsed":652946,"internal_node_id":"0.0-61.0-0.0","params":{"nStudents":24,"maxFlips":30,"completionMinutes":45,"basePay":8,"maxBonus":9,"perTrialBonus":0.5,"perTrialBonusThreshold":0.05,"exampleCost":0.01},"classroomParams":{"A":{"a":1,"b":4},"B":{"a":4,"b":1},"C":{"a":2,"b":8},"D":{"a":8,"b":2}},"conditions":["nonSeqFull","nonSeqPartial","seqNoFeedback","seqFeedback"],"classroomPairings":[["A","B"],["C","D"]],"coinWeights":[0.2,0.5,0.8],"subjectId":"A1BE5NGDU9B9JG","assignmentId":"3SB5N7Y3O4Q8PVSWCHTLAKCQVI9G0Q","hitId":"34XASH8KLQ89J2U8D314D7180O4PMV","url":"https://gershmanlab.com/experiments/alicia/teaching/experiment/?hitId=34XASH8KLQ89J2U8D314D7180O4PMV&workerId=A1BE5NGDU9B9JG&assignmentId=3SB5N7Y3O4Q8PVSWCHTLAKCQVI9G0Q&a=3NBS7&tp_a=3NBS7&b=3SB5N7Y3O4Q8PVSWCHTLAKCQVI9G0Q&tp_b=3SB5N7Y3O4Q8PVSWCHTLAKCQVI9G0Q&c=365717&tp_c=365717","heads":8,"tails":2,"studentIndex":8,"studentTrueHypers":{"a":4,"b":1},"studentGuess":0.8,"delta":0,"totalExamples":10,"bonus":0.4,"bonusSoFar":1.16},{"rt":10872,"response":{"heads":"9","tails":"2"},"type":"response","condition":"seqFeedback","trueTheta":0.8,"classrooms":["A","B"],"studentTrueClassroom":"A","exampleSet":"first","trial_type":"survey-html-form","trial_index":74,"time_elapsed":681661,"internal_node_id":"0.0-67.0-0.0","params":{"nStudents":24,"maxFlips":30,"completionMinutes":45,"basePay":8,"maxBonus":9,"perTrialBonus":0.5,"perTrialBonusThreshold":0.05,"exampleCost":0.01},"classroomParams":{"A":{"a":1,"b":4},"B":{"a":4,"b":1},"C":{"a":2,"b":8},"D":{"a":8,"b":2}},"conditions":["nonSeqFull","nonSeqPartial","seqNoFeedback","seqFeedback"],"classroomPairings":[["A","B"],["C","D"]],"coinWeights":[0.2,0.5,0.8],"subjectId":"A1BE5NGDU9B9JG","assignmentId":"3SB5N7Y3O4Q8PVSWCHTLAKCQVI9G0Q","hitId":"34XASH8KLQ89J2U8D314D7180O4PMV","url":"https://gershmanlab.com/experiments/alicia/teaching/experiment/?hitId=34XASH8KLQ89J2U8D314D7180O4PMV&workerId=A1BE5NGDU9B9JG&assignmentId=3SB5N7Y3O4Q8PVSWCHTLAKCQVI9G0Q&a=3NBS7&tp_a=3NBS7&b=3SB5N7Y3O4Q8PVSWCHTLAKCQVI9G0Q&tp_b=3SB5N7Y3O4Q8PVSWCHTLAKCQVI9G0Q&c=365717&tp_c=365717","heads":9,"tails":2,"studentIndex":9,"studentTrueHypers":{"a":1,"b":4},"studentGuess":0.625,"delta":0.17500000000000004,"totalExamples":11,"bonusSoFar":1.16},{"rt":15532,"response":{"heads":"12","tails":"3"},"type":"response","condition":"seqFeedback","trueTheta":0.8,"classrooms":["A","B"],"studentTrueClassroom":"A","exampleSet":"second","trial_type":"survey-html-form","trial_index":78,"time_elapsed":706925,"internal_node_id":"0.0-71.0-0.0","params":{"nStudents":24,"maxFlips":30,"completionMinutes":45,"basePay":8,"maxBonus":9,"perTrialBonus":0.5,"perTrialBonusThreshold":0.05,"exampleCost":0.01},"classroomParams":{"A":{"a":1,"b":4},"B":{"a":4,"b":1},"C":{"a":2,"b":8},"D":{"a":8,"b":2}},"conditions":["nonSeqFull","nonSeqPartial","seqNoFeedback","seqFeedback"],"classroomPairings":[["A","B"],["C","D"]],"coinWeights":[0.2,0.5,0.8],"subjectId":"A1BE5NGDU9B9JG","assignmentId":"3SB5N7Y3O4Q8PVSWCHTLAKCQVI9G0Q","hitId":"34XASH8KLQ89J2U8D314D7180O4PMV","url":"https://gershmanlab.com/experiments/alicia/teaching/experiment/?hitId=34XASH8KLQ89J2U8D314D7180O4PMV&workerId=A1BE5NGDU9B9JG&assignmentId=3SB5N7Y3O4Q8PVSWCHTLAKCQVI9G0Q&a=3NBS7&tp_a=3NBS7&b=3SB5N7Y3O4Q8PVSWCHTLAKCQVI9G0Q&tp_b=3SB5N7Y3O4Q8PVSWCHTLAKCQVI9G0Q&c=365717&tp_c=365717","firstResponseHeads":9,"firstResponseTails":2,"secondResponseHeads":12,"secondResponseTails":3,"totalHeads":21,"totalTails":5,"studentIndex":9,"studentTrueHypers":{"a":1,"b":4},"studentGuess":0.7096774193548387,"delta":0.0903225806451613,"bonus":0,"bonusSoFar":1.16,"totalExamples":26},{"rt":21581,"response":{"heads":"12","tails":"6"},"type":"response","condition":"nonSeqPartial","trueTheta":0.5,"classrooms":["C","D"],"studentTrueClassroom":"D","exampleSet":"first","trial_type":"survey-html-form","trial_index":84,"time_elapsed":743328,"internal_node_id":"0.0-77.0-0.0","params":{"nStudents":24,"maxFlips":30,"completionMinutes":45,"basePay":8,"maxBonus":9,"perTrialBonus":0.5,"perTrialBonusThreshold":0.05,"exampleCost":0.01},"classroomParams":{"A":{"a":1,"b":4},"B":{"a":4,"b":1},"C":{"a":2,"b":8},"D":{"a":8,"b":2}},"conditions":["nonSeqFull","nonSeqPartial","seqNoFeedback","seqFeedback"],"classroomPairings":[["A","B"],["C","D"]],"coinWeights":[0.2,0.5,0.8],"subjectId":"A1BE5NGDU9B9JG","assignmentId":"3SB5N7Y3O4Q8PVSWCHTLAKCQVI9G0Q","hitId":"34XASH8KLQ89J2U8D314D7180O4PMV","url":"https://gershmanlab.com/experiments/alicia/teaching/experiment/?hitId=34XASH8KLQ89J2U8D314D7180O4PMV&workerId=A1BE5NGDU9B9JG&assignmentId=3SB5N7Y3O4Q8PVSWCHTLAKCQVI9G0Q&a=3NBS7&tp_a=3NBS7&b=3SB5N7Y3O4Q8PVSWCHTLAKCQVI9G0Q&tp_b=3SB5N7Y3O4Q8PVSWCHTLAKCQVI9G0Q&c=365717&tp_c=365717","heads":12,"tails":6,"studentIndex":10,"studentTrueHypers":{"a":8,"b":2},"studentGuess":0.7142857142857143,"delta":0.2142857142857143,"totalExamples":18,"bonus":0,"bonusSoFar":1.16},{"rt":13413,"response":{"heads":"14","tails":"6"},"type":"response","condition":"nonSeqPartial","trueTheta":0.8,"classrooms":["A","B"],"studentTrueClassroom":"A","exampleSet":"first","trial_type":"survey-html-form","trial_index":90,"time_elapsed":771966,"internal_node_id":"0.0-83.0-0.0","params":{"nStudents":24,"maxFlips":30,"completionMinutes":45,"basePay":8,"maxBonus":9,"perTrialBonus":0.5,"perTrialBonusThreshold":0.05,"exampleCost":0.01},"classroomParams":{"A":{"a":1,"b":4},"B":{"a":4,"b":1},"C":{"a":2,"b":8},"D":{"a":8,"b":2}},"conditions":["nonSeqFull","nonSeqPartial","seqNoFeedback","seqFeedback"],"classroomPairings":[["A","B"],["C","D"]],"coinWeights":[0.2,0.5,0.8],"subjectId":"A1BE5NGDU9B9JG","assignmentId":"3SB5N7Y3O4Q8PVSWCHTLAKCQVI9G0Q","hitId":"34XASH8KLQ89J2U8D314D7180O4PMV","url":"https://gershmanlab.com/experiments/alicia/teaching/experiment/?hitId=34XASH8KLQ89J2U8D314D7180O4PMV&workerId=A1BE5NGDU9B9JG&assignmentId=3SB5N7Y3O4Q8PVSWCHTLAKCQVI9G0Q&a=3NBS7&tp_a=3NBS7&b=3SB5N7Y3O4Q8PVSWCHTLAKCQVI9G0Q&tp_b=3SB5N7Y3O4Q8PVSWCHTLAKCQVI9G0Q&c=365717&tp_c=365717","heads":14,"tails":6,"studentIndex":11,"studentTrueHypers":{"a":1,"b":4},"studentGuess":0.6,"delta":0.20000000000000007,"totalExamples":20,"bonus":0,"bonusSoFar":1.16},{"rt":6286,"response":{"heads":"14","tails":"6"},"type":"response","condition":"nonSeqFull","trueTheta":0.8,"classrooms":["C","D"],"studentTrueClassroom":"D","exampleSet":"first","trial_type":"survey-html-form","trial_index":96,"time_elapsed":792824,"internal_node_id":"0.0-89.0-0.0","params":{"nStudents":24,"maxFlips":30,"completionMinutes":45,"basePay":8,"maxBonus":9,"perTrialBonus":0.5,"perTrialBonusThreshold":0.05,"exampleCost":0.01},"classroomParams":{"A":{"a":1,"b":4},"B":{"a":4,"b":1},"C":{"a":2,"b":8},"D":{"a":8,"b":2}},"conditions":["nonSeqFull","nonSeqPartial","seqNoFeedback","seqFeedback"],"classroomPairings":[["A","B"],["C","D"]],"coinWeights":[0.2,0.5,0.8],"subjectId":"A1BE5NGDU9B9JG","assignmentId":"3SB5N7Y3O4Q8PVSWCHTLAKCQVI9G0Q","hitId":"34XASH8KLQ89J2U8D314D7180O4PMV","url":"https://gershmanlab.com/experiments/alicia/teaching/experiment/?hitId=34XASH8KLQ89J2U8D314D7180O4PMV&workerId=A1BE5NGDU9B9JG&assignmentId=3SB5N7Y3O4Q8PVSWCHTLAKCQVI9G0Q&a=3NBS7&tp_a=3NBS7&b=3SB5N7Y3O4Q8PVSWCHTLAKCQVI9G0Q&tp_b=3SB5N7Y3O4Q8PVSWCHTLAKCQVI9G0Q&c=365717&tp_c=365717","heads":14,"tails":6,"studentIndex":12,"studentTrueHypers":{"a":8,"b":2},"studentGuess":0.7333333333333333,"delta":0.06666666666666676,"totalExamples":20,"bonus":0,"bonusSoFar":1.16},{"rt":12215,"response":{"heads":"8","tails":"2"},"type":"response","condition":"seqNoFeedback","trueTheta":0.5,"classrooms":["A","B"],"studentTrueClassroom":"A","exampleSet":"first","trial_type":"survey-html-form","trial_index":102,"time_elapsed":819282,"internal_node_id":"0.0-95.0-0.0","params":{"nStudents":24,"maxFlips":30,"completionMinutes":45,"basePay":8,"maxBonus":9,"perTrialBonus":0.5,"perTrialBonusThreshold":0.05,"exampleCost":0.01},"classroomParams":{"A":{"a":1,"b":4},"B":{"a":4,"b":1},"C":{"a":2,"b":8},"D":{"a":8,"b":2}},"conditions":["nonSeqFull","nonSeqPartial","seqNoFeedback","seqFeedback"],"classroomPairings":[["A","B"],["C","D"]],"coinWeights":[0.2,0.5,0.8],"subjectId":"A1BE5NGDU9B9JG","assignmentId":"3SB5N7Y3O4Q8PVSWCHTLAKCQVI9G0Q","hitId":"34XASH8KLQ89J2U8D314D7180O4PMV","url":"https://gershmanlab.com/experiments/alicia/teaching/experiment/?hitId=34XASH8KLQ89J2U8D314D7180O4PMV&workerId=A1BE5NGDU9B9JG&assignmentId=3SB5N7Y3O4Q8PVSWCHTLAKCQVI9G0Q&a=3NBS7&tp_a=3NBS7&b=3SB5N7Y3O4Q8PVSWCHTLAKCQVI9G0Q&tp_b=3SB5N7Y3O4Q8PVSWCHTLAKCQVI9G0Q&c=365717&tp_c=365717","heads":8,"tails":2,"studentIndex":13,"studentTrueHypers":{"a":1,"b":4},"studentGuess":0.6,"delta":0.09999999999999998,"totalExamples":10,"bonusSoFar":1.16},{"rt":11351,"response":{"heads":"4","tails":"4"},"type":"response","condition":"seqNoFeedback","trueTheta":0.5,"classrooms":["A","B"],"studentTrueClassroom":"A","exampleSet":"second","trial_type":"survey-html-form","trial_index":105,"time_elapsed":836398,"internal_node_id":"0.0-98.0-0.0","params":{"nStudents":24,"maxFlips":30,"completionMinutes":45,"basePay":8,"maxBonus":9,"perTrialBonus":0.5,"perTrialBonusThreshold":0.05,"exampleCost":0.01},"classroomParams":{"A":{"a":1,"b":4},"B":{"a":4,"b":1},"C":{"a":2,"b":8},"D":{"a":8,"b":2}},"conditions":["nonSeqFull","nonSeqPartial","seqNoFeedback","seqFeedback"],"classroomPairings":[["A","B"],["C","D"]],"coinWeights":[0.2,0.5,0.8],"subjectId":"A1BE5NGDU9B9JG","assignmentId":"3SB5N7Y3O4Q8PVSWCHTLAKCQVI9G0Q","hitId":"34XASH8KLQ89J2U8D314D7180O4PMV","url":"https://gershmanlab.com/experiments/alicia/teaching/experiment/?hitId=34XASH8KLQ89J2U8D314D7180O4PMV&workerId=A1BE5NGDU9B9JG&assignmentId=3SB5N7Y3O4Q8PVSWCHTLAKCQVI9G0Q&a=3NBS7&tp_a=3NBS7&b=3SB5N7Y3O4Q8PVSWCHTLAKCQVI9G0Q&tp_b=3SB5N7Y3O4Q8PVSWCHTLAKCQVI9G0Q&c=365717&tp_c=365717","firstResponseHeads":8,"firstResponseTails":2,"secondResponseHeads":4,"secondResponseTails":4,"totalHeads":12,"totalTails":6,"studentIndex":13,"studentTrueHypers":{"a":1,"b":4},"studentGuess":0.5652173913043478,"delta":0.06521739130434778,"bonus":0,"bonusSoFar":1.16,"totalExamples":18},{"rt":7911,"response":{"heads":"5","tails":"25"},"type":"response","condition":"seqFeedback","trueTheta":0.2,"classrooms":["A","B"],"studentTrueClassroom":"B","exampleSet":"first","trial_type":"survey-html-form","trial_index":111,"time_elapsed":858463,"internal_node_id":"0.0-104.0-0.0","params":{"nStudents":24,"maxFlips":30,"completionMinutes":45,"basePay":8,"maxBonus":9,"perTrialBonus":0.5,"perTrialBonusThreshold":0.05,"exampleCost":0.01},"classroomParams":{"A":{"a":1,"b":4},"B":{"a":4,"b":1},"C":{"a":2,"b":8},"D":{"a":8,"b":2}},"conditions":["nonSeqFull","nonSeqPartial","seqNoFeedback","seqFeedback"],"classroomPairings":[["A","B"],["C","D"]],"coinWeights":[0.2,0.5,0.8],"subjectId":"A1BE5NGDU9B9JG","assignmentId":"3SB5N7Y3O4Q8PVSWCHTLAKCQVI9G0Q","hitId":"34XASH8KLQ89J2U8D314D7180O4PMV","url":"https://gershmanlab.com/experiments/alicia/teaching/experiment/?hitId=34XASH8KLQ89J2U8D314D7180O4PMV&workerId=A1BE5NGDU9B9JG&assignmentId=3SB5N7Y3O4Q8PVSWCHTLAKCQVI9G0Q&a=3NBS7&tp_a=3NBS7&b=3SB5N7Y3O4Q8PVSWCHTLAKCQVI9G0Q&tp_b=3SB5N7Y3O4Q8PVSWCHTLAKCQVI9G0Q&c=365717&tp_c=365717","heads":5,"tails":25,"studentIndex":14,"studentTrueHypers":{"a":4,"b":1},"studentGuess":0.2571428571428571,"delta":0.057142857142857106,"totalExamples":30,"bonusSoFar":1.16},{"rt":5674,"response":{"heads":"3","tails":"27"},"type":"response","condition":"seqFeedback","trueTheta":0.2,"classrooms":["A","B"],"studentTrueClassroom":"B","exampleSet":"second","trial_type":"survey-html-form","trial_index":115,"time_elapsed":874844,"internal_node_id":"0.0-108.0-0.0","params":{"nStudents":24,"maxFlips":30,"completionMinutes":45,"basePay":8,"maxBonus":9,"perTrialBonus":0.5,"perTrialBonusThreshold":0.05,"exampleCost":0.01},"classroomParams":{"A":{"a":1,"b":4},"B":{"a":4,"b":1},"C":{"a":2,"b":8},"D":{"a":8,"b":2}},"conditions":["nonSeqFull","nonSeqPartial","seqNoFeedback","seqFeedback"],"classroomPairings":[["A","B"],["C","D"]],"coinWeights":[0.2,0.5,0.8],"subjectId":"A1BE5NGDU9B9JG","assignmentId":"3SB5N7Y3O4Q8PVSWCHTLAKCQVI9G0Q","hitId":"34XASH8KLQ89J2U8D314D7180O4PMV","url":"https://gershmanlab.com/experiments/alicia/teaching/experiment/?hitId=34XASH8KLQ89J2U8D314D7180O4PMV&workerId=A1BE5NGDU9B9JG&assignmentId=3SB5N7Y3O4Q8PVSWCHTLAKCQVI9G0Q&a=3NBS7&tp_a=3NBS7&b=3SB5N7Y3O4Q8PVSWCHTLAKCQVI9G0Q&tp_b=3SB5N7Y3O4Q8PVSWCHTLAKCQVI9G0Q&c=365717&tp_c=365717","firstResponseHeads":5,"firstResponseTails":25,"secondResponseHeads":3,"secondResponseTails":27,"totalHeads":8,"totalTails":52,"studentIndex":14,"studentTrueHypers":{"a":4,"b":1},"studentGuess":0.18461538461538463,"delta":0.015384615384615385,"bonus":0,"bonusSoFar":1.16,"totalExamples":60},{"rt":20944,"response":{"heads":"2","tails":"20"},"type":"response","condition":"seqNoFeedback","trueTheta":0.2,"classrooms":["A","B"],"studentTrueClassroom":"A","exampleSet":"first","trial_type":"survey-html-form","trial_index":121,"time_elapsed":917218,"internal_node_id":"0.0-114.0-0.0","params":{"nStudents":24,"maxFlips":30,"completionMinutes":45,"basePay":8,"maxBonus":9,"perTrialBonus":0.5,"perTrialBonusThreshold":0.05,"exampleCost":0.01},"classroomParams":{"A":{"a":1,"b":4},"B":{"a":4,"b":1},"C":{"a":2,"b":8},"D":{"a":8,"b":2}},"conditions":["nonSeqFull","nonSeqPartial","seqNoFeedback","seqFeedback"],"classroomPairings":[["A","B"],["C","D"]],"coinWeights":[0.2,0.5,0.8],"subjectId":"A1BE5NGDU9B9JG","assignmentId":"3SB5N7Y3O4Q8PVSWCHTLAKCQVI9G0Q","hitId":"34XASH8KLQ89J2U8D314D7180O4PMV","url":"https://gershmanlab.com/experiments/alicia/teaching/experiment/?hitId=34XASH8KLQ89J2U8D314D7180O4PMV&workerId=A1BE5NGDU9B9JG&assignmentId=3SB5N7Y3O4Q8PVSWCHTLAKCQVI9G0Q&a=3NBS7&tp_a=3NBS7&b=3SB5N7Y3O4Q8PVSWCHTLAKCQVI9G0Q&tp_b=3SB5N7Y3O4Q8PVSWCHTLAKCQVI9G0Q&c=365717&tp_c=365717","heads":2,"tails":20,"studentIndex":15,"studentTrueHypers":{"a":1,"b":4},"studentGuess":0.1111111111111111,"delta":0.0888888888888889,"totalExamples":22,"bonusSoFar":1.16},{"rt":11939,"response":{"heads":"4","tails":"22"},"type":"response","condition":"seqNoFeedback","trueTheta":0.2,"classrooms":["A","B"],"studentTrueClassroom":"A","exampleSet":"second","trial_type":"survey-html-form","trial_index":124,"time_elapsed":936423,"internal_node_id":"0.0-117.0-0.0","params":{"nStudents":24,"maxFlips":30,"completionMinutes":45,"basePay":8,"maxBonus":9,"perTrialBonus":0.5,"perTrialBonusThreshold":0.05,"exampleCost":0.01},"classroomParams":{"A":{"a":1,"b":4},"B":{"a":4,"b":1},"C":{"a":2,"b":8},"D":{"a":8,"b":2}},"conditions":["nonSeqFull","nonSeqPartial","seqNoFeedback","seqFeedback"],"classroomPairings":[["A","B"],["C","D"]],"coinWeights":[0.2,0.5,0.8],"subjectId":"A1BE5NGDU9B9JG","assignmentId":"3SB5N7Y3O4Q8PVSWCHTLAKCQVI9G0Q","hitId":"34XASH8KLQ89J2U8D314D7180O4PMV","url":"https://gershmanlab.com/experiments/alicia/teaching/experiment/?hitId=34XASH8KLQ89J2U8D314D7180O4PMV&workerId=A1BE5NGDU9B9JG&assignmentId=3SB5N7Y3O4Q8PVSWCHTLAKCQVI9G0Q&a=3NBS7&tp_a=3NBS7&b=3SB5N7Y3O4Q8PVSWCHTLAKCQVI9G0Q&tp_b=3SB5N7Y3O4Q8PVSWCHTLAKCQVI9G0Q&c=365717&tp_c=365717","firstResponseHeads":2,"firstResponseTails":20,"secondResponseHeads":4,"secondResponseTails":22,"totalHeads":6,"totalTails":42,"studentIndex":15,"studentTrueHypers":{"a":1,"b":4},"studentGuess":0.1320754716981132,"delta":0.0679245283018868,"bonus":0,"bonusSoFar":1.16,"totalExamples":48},{"rt":13096,"response":{"heads":"12","tails":"12"},"type":"response","condition":"seqFeedback","trueTheta":0.5,"classrooms":["C","D"],"studentTrueClassroom":"D","exampleSet":"first","trial_type":"survey-html-form","trial_index":130,"time_elapsed":965497,"internal_node_id":"0.0-123.0-0.0","params":{"nStudents":24,"maxFlips":30,"completionMinutes":45,"basePay":8,"maxBonus":9,"perTrialBonus":0.5,"perTrialBonusThreshold":0.05,"exampleCost":0.01},"classroomParams":{"A":{"a":1,"b":4},"B":{"a":4,"b":1},"C":{"a":2,"b":8},"D":{"a":8,"b":2}},"conditions":["nonSeqFull","nonSeqPartial","seqNoFeedback","seqFeedback"],"classroomPairings":[["A","B"],["C","D"]],"coinWeights":[0.2,0.5,0.8],"subjectId":"A1BE5NGDU9B9JG","assignmentId":"3SB5N7Y3O4Q8PVSWCHTLAKCQVI9G0Q","hitId":"34XASH8KLQ89J2U8D314D7180O4PMV","url":"https://gershmanlab.com/experiments/alicia/teaching/experiment/?hitId=34XASH8KLQ89J2U8D314D7180O4PMV&workerId=A1BE5NGDU9B9JG&assignmentId=3SB5N7Y3O4Q8PVSWCHTLAKCQVI9G0Q&a=3NBS7&tp_a=3NBS7&b=3SB5N7Y3O4Q8PVSWCHTLAKCQVI9G0Q&tp_b=3SB5N7Y3O4Q8PVSWCHTLAKCQVI9G0Q&c=365717&tp_c=365717","heads":12,"tails":12,"studentIndex":16,"studentTrueHypers":{"a":8,"b":2},"studentGuess":0.5882352941176471,"delta":0.08823529411764708,"totalExamples":24,"bonusSoFar":1.16},{"rt":10728,"response":{"heads":"10","tails":"14"},"type":"response","condition":"seqFeedback","trueTheta":0.5,"classrooms":["C","D"],"studentTrueClassroom":"D","exampleSet":"second","trial_type":"survey-html-form","trial_index":134,"time_elapsed":989320,"internal_node_id":"0.0-127.0-0.0","params":{"nStudents":24,"maxFlips":30,"completionMinutes":45,"basePay":8,"maxBonus":9,"perTrialBonus":0.5,"perTrialBonusThreshold":0.05,"exampleCost":0.01},"classroomParams":{"A":{"a":1,"b":4},"B":{"a":4,"b":1},"C":{"a":2,"b":8},"D":{"a":8,"b":2}},"conditions":["nonSeqFull","nonSeqPartial","seqNoFeedback","seqFeedback"],"classroomPairings":[["A","B"],["C","D"]],"coinWeights":[0.2,0.5,0.8],"subjectId":"A1BE5NGDU9B9JG","assignmentId":"3SB5N7Y3O4Q8PVSWCHTLAKCQVI9G0Q","hitId":"34XASH8KLQ89J2U8D314D7180O4PMV","url":"https://gershmanlab.com/experiments/alicia/teaching/experiment/?hitId=34XASH8KLQ89J2U8D314D7180O4PMV&workerId=A1BE5NGDU9B9JG&assignmentId=3SB5N7Y3O4Q8PVSWCHTLAKCQVI9G0Q&a=3NBS7&tp_a=3NBS7&b=3SB5N7Y3O4Q8PVSWCHTLAKCQVI9G0Q&tp_b=3SB5N7Y3O4Q8PVSWCHTLAKCQVI9G0Q&c=365717&tp_c=365717","firstResponseHeads":12,"firstResponseTails":12,"secondResponseHeads":10,"secondResponseTails":14,"totalHeads":22,"totalTails":26,"studentIndex":16,"studentTrueHypers":{"a":8,"b":2},"studentGuess":0.5172413793103449,"delta":0.017241379310344862,"bonus":0.02,"bonusSoFar":1.18,"totalExamples":48},{"rt":11381,"response":{"heads":"1","tails":"01"},"type":"response","condition":"seqNoFeedback","trueTheta":0.5,"classrooms":["C","D"],"studentTrueClassroom":"C","exampleSet":"first","trial_type":"survey-html-form","trial_index":140,"time_elapsed":1020118,"internal_node_id":"0.0-133.0-0.0","params":{"nStudents":24,"maxFlips":30,"completionMinutes":45,"basePay":8,"maxBonus":9,"perTrialBonus":0.5,"perTrialBonusThreshold":0.05,"exampleCost":0.01},"classroomParams":{"A":{"a":1,"b":4},"B":{"a":4,"b":1},"C":{"a":2,"b":8},"D":{"a":8,"b":2}},"conditions":["nonSeqFull","nonSeqPartial","seqNoFeedback","seqFeedback"],"classroomPairings":[["A","B"],["C","D"]],"coinWeights":[0.2,0.5,0.8],"subjectId":"A1BE5NGDU9B9JG","assignmentId":"3SB5N7Y3O4Q8PVSWCHTLAKCQVI9G0Q","hitId":"34XASH8KLQ89J2U8D314D7180O4PMV","url":"https://gershmanlab.com/experiments/alicia/teaching/experiment/?hitId=34XASH8KLQ89J2U8D314D7180O4PMV&workerId=A1BE5NGDU9B9JG&assignmentId=3SB5N7Y3O4Q8PVSWCHTLAKCQVI9G0Q&a=3NBS7&tp_a=3NBS7&b=3SB5N7Y3O4Q8PVSWCHTLAKCQVI9G0Q&tp_b=3SB5N7Y3O4Q8PVSWCHTLAKCQVI9G0Q&c=365717&tp_c=365717","heads":1,"tails":1,"studentIndex":17,"studentTrueHypers":{"a":2,"b":8},"studentGuess":0.25,"delta":0.25,"totalExamples":2,"bonusSoFar":1.18},{"rt":11942,"response":{"heads":"1","tails":"1"},"type":"response","condition":"seqNoFeedback","trueTheta":0.5,"classrooms":["C","D"],"studentTrueClassroom":"C","exampleSet":"second","trial_type":"survey-html-form","trial_index":143,"time_elapsed":1038842,"internal_node_id":"0.0-136.0-0.0","params":{"nStudents":24,"maxFlips":30,"completionMinutes":45,"basePay":8,"maxBonus":9,"perTrialBonus":0.5,"perTrialBonusThreshold":0.05,"exampleCost":0.01},"classroomParams":{"A":{"a":1,"b":4},"B":{"a":4,"b":1},"C":{"a":2,"b":8},"D":{"a":8,"b":2}},"conditions":["nonSeqFull","nonSeqPartial","seqNoFeedback","seqFeedback"],"classroomPairings":[["A","B"],["C","D"]],"coinWeights":[0.2,0.5,0.8],"subjectId":"A1BE5NGDU9B9JG","assignmentId":"3SB5N7Y3O4Q8PVSWCHTLAKCQVI9G0Q","hitId":"34XASH8KLQ89J2U8D314D7180O4PMV","url":"https://gershmanlab.com/experiments/alicia/teaching/experiment/?hitId=34XASH8KLQ89J2U8D314D7180O4PMV&workerId=A1BE5NGDU9B9JG&assignmentId=3SB5N7Y3O4Q8PVSWCHTLAKCQVI9G0Q&a=3NBS7&tp_a=3NBS7&b=3SB5N7Y3O4Q8PVSWCHTLAKCQVI9G0Q&tp_b=3SB5N7Y3O4Q8PVSWCHTLAKCQVI9G0Q&c=365717&tp_c=365717","firstResponseHeads":1,"firstResponseTails":1,"secondResponseHeads":1,"secondResponseTails":1,"totalHeads":2,"totalTails":2,"studentIndex":17,"studentTrueHypers":{"a":2,"b":8},"studentGuess":0.2857142857142857,"delta":0.2142857142857143,"bonus":0,"bonusSoFar":1.18,"totalExamples":4},{"rt":8770,"response":{"heads":"20","tails":"10"},"type":"response","condition":"seqNoFeedback","trueTheta":0.8,"classrooms":["A","B"],"studentTrueClassroom":"B","exampleSet":"first","trial_type":"survey-html-form","trial_index":149,"time_elapsed":1065675,"internal_node_id":"0.0-142.0-0.0","params":{"nStudents":24,"maxFlips":30,"completionMinutes":45,"basePay":8,"maxBonus":9,"perTrialBonus":0.5,"perTrialBonusThreshold":0.05,"exampleCost":0.01},"classroomParams":{"A":{"a":1,"b":4},"B":{"a":4,"b":1},"C":{"a":2,"b":8},"D":{"a":8,"b":2}},"conditions":["nonSeqFull","nonSeqPartial","seqNoFeedback","seqFeedback"],"classroomPairings":[["A","B"],["C","D"]],"coinWeights":[0.2,0.5,0.8],"subjectId":"A1BE5NGDU9B9JG","assignmentId":"3SB5N7Y3O4Q8PVSWCHTLAKCQVI9G0Q","hitId":"34XASH8KLQ89J2U8D314D7180O4PMV","url":"https://gershmanlab.com/experiments/alicia/teaching/experiment/?hitId=34XASH8KLQ89J2U8D314D7180O4PMV&workerId=A1BE5NGDU9B9JG&assignmentId=3SB5N7Y3O4Q8PVSWCHTLAKCQVI9G0Q&a=3NBS7&tp_a=3NBS7&b=3SB5N7Y3O4Q8PVSWCHTLAKCQVI9G0Q&tp_b=3SB5N7Y3O4Q8PVSWCHTLAKCQVI9G0Q&c=365717&tp_c=365717","heads":20,"tails":10,"studentIndex":18,"studentTrueHypers":{"a":4,"b":1},"studentGuess":0.6857142857142857,"delta":0.11428571428571432,"totalExamples":30,"bonusSoFar":1.18},{"rt":4883,"response":{"heads":"10","tails":"20"},"type":"response","condition":"seqNoFeedback","trueTheta":0.8,"classrooms":["A","B"],"studentTrueClassroom":"B","exampleSet":"second","trial_type":"survey-html-form","trial_index":152,"time_elapsed":1076066,"internal_node_id":"0.0-145.0-0.0","params":{"nStudents":24,"maxFlips":30,"completionMinutes":45,"basePay":8,"maxBonus":9,"perTrialBonus":0.5,"perTrialBonusThreshold":0.05,"exampleCost":0.01},"classroomParams":{"A":{"a":1,"b":4},"B":{"a":4,"b":1},"C":{"a":2,"b":8},"D":{"a":8,"b":2}},"conditions":["nonSeqFull","nonSeqPartial","seqNoFeedback","seqFeedback"],"classroomPairings":[["A","B"],["C","D"]],"coinWeights":[0.2,0.5,0.8],"subjectId":"A1BE5NGDU9B9JG","assignmentId":"3SB5N7Y3O4Q8PVSWCHTLAKCQVI9G0Q","hitId":"34XASH8KLQ89J2U8D314D7180O4PMV","url":"https://gershmanlab.com/experiments/alicia/teaching/experiment/?hitId=34XASH8KLQ89J2U8D314D7180O4PMV&workerId=A1BE5NGDU9B9JG&assignmentId=3SB5N7Y3O4Q8PVSWCHTLAKCQVI9G0Q&a=3NBS7&tp_a=3NBS7&b=3SB5N7Y3O4Q8PVSWCHTLAKCQVI9G0Q&tp_b=3SB5N7Y3O4Q8PVSWCHTLAKCQVI9G0Q&c=365717&tp_c=365717","firstResponseHeads":20,"firstResponseTails":10,"secondResponseHeads":10,"secondResponseTails":20,"totalHeads":30,"totalTails":30,"studentIndex":18,"studentTrueHypers":{"a":4,"b":1},"studentGuess":0.5230769230769231,"delta":0.27692307692307694,"bonus":0,"bonusSoFar":1.18,"totalExamples":60},{"rt":5558,"response":{"heads":"5","tails":"5"},"type":"response","condition":"nonSeqFull","trueTheta":0.5,"classrooms":["C","D"],"studentTrueClassroom":"C","exampleSet":"first","trial_type":"survey-html-form","trial_index":158,"time_elapsed":1093573,"internal_node_id":"0.0-151.0-0.0","params":{"nStudents":24,"maxFlips":30,"completionMinutes":45,"basePay":8,"maxBonus":9,"perTrialBonus":0.5,"perTrialBonusThreshold":0.05,"exampleCost":0.01},"classroomParams":{"A":{"a":1,"b":4},"B":{"a":4,"b":1},"C":{"a":2,"b":8},"D":{"a":8,"b":2}},"conditions":["nonSeqFull","nonSeqPartial","seqNoFeedback","seqFeedback"],"classroomPairings":[["A","B"],["C","D"]],"coinWeights":[0.2,0.5,0.8],"subjectId":"A1BE5NGDU9B9JG","assignmentId":"3SB5N7Y3O4Q8PVSWCHTLAKCQVI9G0Q","hitId":"34XASH8KLQ89J2U8D314D7180O4PMV","url":"https://gershmanlab.com/experiments/alicia/teaching/experiment/?hitId=34XASH8KLQ89J2U8D314D7180O4PMV&workerId=A1BE5NGDU9B9JG&assignmentId=3SB5N7Y3O4Q8PVSWCHTLAKCQVI9G0Q&a=3NBS7&tp_a=3NBS7&b=3SB5N7Y3O4Q8PVSWCHTLAKCQVI9G0Q&tp_b=3SB5N7Y3O4Q8PVSWCHTLAKCQVI9G0Q&c=365717&tp_c=365717","heads":5,"tails":5,"studentIndex":19,"studentTrueHypers":{"a":2,"b":8},"studentGuess":0.35,"delta":0.15000000000000002,"totalExamples":10,"bonus":0,"bonusSoFar":1.18},{"rt":10182,"response":{"heads":"23","tails":"7"},"type":"response","condition":"seqFeedback","trueTheta":0.8,"classrooms":["C","D"],"studentTrueClassroom":"D","exampleSet":"first","trial_type":"survey-html-form","trial_index":164,"time_elapsed":1115182,"internal_node_id":"0.0-157.0-0.0","params":{"nStudents":24,"maxFlips":30,"completionMinutes":45,"basePay":8,"maxBonus":9,"perTrialBonus":0.5,"perTrialBonusThreshold":0.05,"exampleCost":0.01},"classroomParams":{"A":{"a":1,"b":4},"B":{"a":4,"b":1},"C":{"a":2,"b":8},"D":{"a":8,"b":2}},"conditions":["nonSeqFull","nonSeqPartial","seqNoFeedback","seqFeedback"],"classroomPairings":[["A","B"],["C","D"]],"coinWeights":[0.2,0.5,0.8],"subjectId":"A1BE5NGDU9B9JG","assignmentId":"3SB5N7Y3O4Q8PVSWCHTLAKCQVI9G0Q","hitId":"34XASH8KLQ89J2U8D314D7180O4PMV","url":"https://gershmanlab.com/experiments/alicia/teaching/experiment/?hitId=34XASH8KLQ89J2U8D314D7180O4PMV&workerId=A1BE5NGDU9B9JG&assignmentId=3SB5N7Y3O4Q8PVSWCHTLAKCQVI9G0Q&a=3NBS7&tp_a=3NBS7&b=3SB5N7Y3O4Q8PVSWCHTLAKCQVI9G0Q&tp_b=3SB5N7Y3O4Q8PVSWCHTLAKCQVI9G0Q&c=365717&tp_c=365717","heads":23,"tails":7,"studentIndex":20,"studentTrueHypers":{"a":8,"b":2},"studentGuess":0.775,"delta":0.025000000000000022,"totalExamples":30,"bonusSoFar":1.18},{"rt":6742,"response":{"heads":"24","tails":"6"},"type":"response","condition":"seqFeedback","trueTheta":0.8,"classrooms":["C","D"],"studentTrueClassroom":"D","exampleSet":"second","trial_type":"survey-html-form","trial_index":168,"time_elapsed":1131530,"internal_node_id":"0.0-161.0-0.0","params":{"nStudents":24,"maxFlips":30,"completionMinutes":45,"basePay":8,"maxBonus":9,"perTrialBonus":0.5,"perTrialBonusThreshold":0.05,"exampleCost":0.01},"classroomParams":{"A":{"a":1,"b":4},"B":{"a":4,"b":1},"C":{"a":2,"b":8},"D":{"a":8,"b":2}},"conditions":["nonSeqFull","nonSeqPartial","seqNoFeedback","seqFeedback"],"classroomPairings":[["A","B"],["C","D"]],"coinWeights":[0.2,0.5,0.8],"subjectId":"A1BE5NGDU9B9JG","assignmentId":"3SB5N7Y3O4Q8PVSWCHTLAKCQVI9G0Q","hitId":"34XASH8KLQ89J2U8D314D7180O4PMV","url":"https://gershmanlab.com/experiments/alicia/teaching/experiment/?hitId=34XASH8KLQ89J2U8D314D7180O4PMV&workerId=A1BE5NGDU9B9JG&assignmentId=3SB5N7Y3O4Q8PVSWCHTLAKCQVI9G0Q&a=3NBS7&tp_a=3NBS7&b=3SB5N7Y3O4Q8PVSWCHTLAKCQVI9G0Q&tp_b=3SB5N7Y3O4Q8PVSWCHTLAKCQVI9G0Q&c=365717&tp_c=365717","firstResponseHeads":23,"firstResponseTails":7,"secondResponseHeads":24,"secondResponseTails":6,"totalHeads":47,"totalTails":13,"studentIndex":20,"studentTrueHypers":{"a":8,"b":2},"studentGuess":0.7857142857142857,"delta":0.014285714285714346,"bonus":0,"bonusSoFar":1.18,"totalExamples":60},{"rt":13882,"response":{"heads":"28","tails":"2"},"type":"response","condition":"seqFeedback","trueTheta":0.2,"classrooms":["C","D"],"studentTrueClassroom":"D","exampleSet":"first","trial_type":"survey-html-form","trial_index":174,"time_elapsed":1168578,"internal_node_id":"0.0-167.0-0.0","params":{"nStudents":24,"maxFlips":30,"completionMinutes":45,"basePay":8,"maxBonus":9,"perTrialBonus":0.5,"perTrialBonusThreshold":0.05,"exampleCost":0.01},"classroomParams":{"A":{"a":1,"b":4},"B":{"a":4,"b":1},"C":{"a":2,"b":8},"D":{"a":8,"b":2}},"conditions":["nonSeqFull","nonSeqPartial","seqNoFeedback","seqFeedback"],"classroomPairings":[["A","B"],["C","D"]],"coinWeights":[0.2,0.5,0.8],"subjectId":"A1BE5NGDU9B9JG","assignmentId":"3SB5N7Y3O4Q8PVSWCHTLAKCQVI9G0Q","hitId":"34XASH8KLQ89J2U8D314D7180O4PMV","url":"https://gershmanlab.com/experiments/alicia/teaching/experiment/?hitId=34XASH8KLQ89J2U8D314D7180O4PMV&workerId=A1BE5NGDU9B9JG&assignmentId=3SB5N7Y3O4Q8PVSWCHTLAKCQVI9G0Q&a=3NBS7&tp_a=3NBS7&b=3SB5N7Y3O4Q8PVSWCHTLAKCQVI9G0Q&tp_b=3SB5N7Y3O4Q8PVSWCHTLAKCQVI9G0Q&c=365717&tp_c=365717","heads":28,"tails":2,"studentIndex":21,"studentTrueHypers":{"a":8,"b":2},"studentGuess":0.9,"delta":0.7,"totalExamples":30,"bonusSoFar":1.18},{"rt":15776,"response":{"heads":"4","tails":"26"},"type":"response","condition":"seqFeedback","trueTheta":0.2,"classrooms":["C","D"],"studentTrueClassroom":"D","exampleSet":"second","trial_type":"survey-html-form","trial_index":178,"time_elapsed":1196728,"internal_node_id":"0.0-171.0-0.0","params":{"nStudents":24,"maxFlips":30,"completionMinutes":45,"basePay":8,"maxBonus":9,"perTrialBonus":0.5,"perTrialBonusThreshold":0.05,"exampleCost":0.01},"classroomParams":{"A":{"a":1,"b":4},"B":{"a":4,"b":1},"C":{"a":2,"b":8},"D":{"a":8,"b":2}},"conditions":["nonSeqFull","nonSeqPartial","seqNoFeedback","seqFeedback"],"classroomPairings":[["A","B"],["C","D"]],"coinWeights":[0.2,0.5,0.8],"subjectId":"A1BE5NGDU9B9JG","assignmentId":"3SB5N7Y3O4Q8PVSWCHTLAKCQVI9G0Q","hitId":"34XASH8KLQ89J2U8D314D7180O4PMV","url":"https://gershmanlab.com/experiments/alicia/teaching/experiment/?hitId=34XASH8KLQ89J2U8D314D7180O4PMV&workerId=A1BE5NGDU9B9JG&assignmentId=3SB5N7Y3O4Q8PVSWCHTLAKCQVI9G0Q&a=3NBS7&tp_a=3NBS7&b=3SB5N7Y3O4Q8PVSWCHTLAKCQVI9G0Q&tp_b=3SB5N7Y3O4Q8PVSWCHTLAKCQVI9G0Q&c=365717&tp_c=365717","firstResponseHeads":28,"firstResponseTails":2,"secondResponseHeads":4,"secondResponseTails":26,"totalHeads":32,"totalTails":28,"studentIndex":21,"studentTrueHypers":{"a":8,"b":2},"studentGuess":0.5714285714285714,"delta":0.3714285714285714,"bonus":0,"bonusSoFar":1.18,"totalExamples":60},{"rt":10436,"response":{"heads":"2","tails":"28"},"type":"response","condition":"seqNoFeedback","trueTheta":0.2,"classrooms":["C","D"],"studentTrueClassroom":"D","exampleSet":"first","trial_type":"survey-html-form","trial_index":184,"time_elapsed":1219989,"internal_node_id":"0.0-177.0-0.0","params":{"nStudents":24,"maxFlips":30,"completionMinutes":45,"basePay":8,"maxBonus":9,"perTrialBonus":0.5,"perTrialBonusThreshold":0.05,"exampleCost":0.01},"classroomParams":{"A":{"a":1,"b":4},"B":{"a":4,"b":1},"C":{"a":2,"b":8},"D":{"a":8,"b":2}},"conditions":["nonSeqFull","nonSeqPartial","seqNoFeedback","seqFeedback"],"classroomPairings":[["A","B"],["C","D"]],"coinWeights":[0.2,0.5,0.8],"subjectId":"A1BE5NGDU9B9JG","assignmentId":"3SB5N7Y3O4Q8PVSWCHTLAKCQVI9G0Q","hitId":"34XASH8KLQ89J2U8D314D7180O4PMV","url":"https://gershmanlab.com/experiments/alicia/teaching/experiment/?hitId=34XASH8KLQ89J2U8D314D7180O4PMV&workerId=A1BE5NGDU9B9JG&assignmentId=3SB5N7Y3O4Q8PVSWCHTLAKCQVI9G0Q&a=3NBS7&tp_a=3NBS7&b=3SB5N7Y3O4Q8PVSWCHTLAKCQVI9G0Q&tp_b=3SB5N7Y3O4Q8PVSWCHTLAKCQVI9G0Q&c=365717&tp_c=365717","heads":2,"tails":28,"studentIndex":22,"studentTrueHypers":{"a":8,"b":2},"studentGuess":0.25,"delta":0.04999999999999999,"totalExamples":30,"bonusSoFar":1.18},{"rt":14241,"response":{"heads":"5","tails":"25"},"type":"response","condition":"seqNoFeedback","trueTheta":0.2,"classrooms":["C","D"],"studentTrueClassroom":"D","exampleSet":"second","trial_type":"survey-html-form","trial_index":187,"time_elapsed":1240499,"internal_node_id":"0.0-180.0-0.0","params":{"nStudents":24,"maxFlips":30,"completionMinutes":45,"basePay":8,"maxBonus":9,"perTrialBonus":0.5,"perTrialBonusThreshold":0.05,"exampleCost":0.01},"classroomParams":{"A":{"a":1,"b":4},"B":{"a":4,"b":1},"C":{"a":2,"b":8},"D":{"a":8,"b":2}},"conditions":["nonSeqFull","nonSeqPartial","seqNoFeedback","seqFeedback"],"classroomPairings":[["A","B"],["C","D"]],"coinWeights":[0.2,0.5,0.8],"subjectId":"A1BE5NGDU9B9JG","assignmentId":"3SB5N7Y3O4Q8PVSWCHTLAKCQVI9G0Q","hitId":"34XASH8KLQ89J2U8D314D7180O4PMV","url":"https://gershmanlab.com/experiments/alicia/teaching/experiment/?hitId=34XASH8KLQ89J2U8D314D7180O4PMV&workerId=A1BE5NGDU9B9JG&assignmentId=3SB5N7Y3O4Q8PVSWCHTLAKCQVI9G0Q&a=3NBS7&tp_a=3NBS7&b=3SB5N7Y3O4Q8PVSWCHTLAKCQVI9G0Q&tp_b=3SB5N7Y3O4Q8PVSWCHTLAKCQVI9G0Q&c=365717&tp_c=365717","firstResponseHeads":2,"firstResponseTails":28,"secondResponseHeads":5,"secondResponseTails":25,"totalHeads":7,"totalTails":53,"studentIndex":22,"studentTrueHypers":{"a":8,"b":2},"studentGuess":0.21428571428571427,"delta":0.014285714285714263,"bonus":0,"bonusSoFar":1.18,"totalExamples":60},{"rt":20012,"response":{"heads":"4","tails":"16"},"type":"response","condition":"nonSeqFull","trueTheta":0.2,"classrooms":["A","B"],"studentTrueClassroom":"B","exampleSet":"first","trial_type":"survey-html-form","trial_index":193,"time_elapsed":1276972,"internal_node_id":"0.0-186.0-0.0","params":{"nStudents":24,"maxFlips":30,"completionMinutes":45,"basePay":8,"maxBonus":9,"perTrialBonus":0.5,"perTrialBonusThreshold":0.05,"exampleCost":0.01},"classroomParams":{"A":{"a":1,"b":4},"B":{"a":4,"b":1},"C":{"a":2,"b":8},"D":{"a":8,"b":2}},"conditions":["nonSeqFull","nonSeqPartial","seqNoFeedback","seqFeedback"],"classroomPairings":[["A","B"],["C","D"]],"coinWeights":[0.2,0.5,0.8],"subjectId":"A1BE5NGDU9B9JG","assignmentId":"3SB5N7Y3O4Q8PVSWCHTLAKCQVI9G0Q","hitId":"34XASH8KLQ89J2U8D314D7180O4PMV","url":"https://gershmanlab.com/experiments/alicia/teaching/experiment/?hitId=34XASH8KLQ89J2U8D314D7180O4PMV&workerId=A1BE5NGDU9B9JG&assignmentId=3SB5N7Y3O4Q8PVSWCHTLAKCQVI9G0Q&a=3NBS7&tp_a=3NBS7&b=3SB5N7Y3O4Q8PVSWCHTLAKCQVI9G0Q&tp_b=3SB5N7Y3O4Q8PVSWCHTLAKCQVI9G0Q&c=365717&tp_c=365717","heads":4,"tails":16,"studentIndex":23,"studentTrueHypers":{"a":4,"b":1},"studentGuess":0.32,"delta":0.12,"totalExamples":20,"bonus":0,"bonusSoFar":1.18},{"rt":11364,"response":{"gender":"male","age":"38","understood":"yes","comments":""},"type":"response","trial_type":"survey-html-form","trial_index":197,"time_elapsed":1296570,"internal_node_id":"0.0-191.0","params":{"nStudents":24,"maxFlips":30,"completionMinutes":45,"basePay":8,"maxBonus":9,"perTrialBonus":0.5,"perTrialBonusThreshold":0.05,"exampleCost":0.01},"classroomParams":{"A":{"a":1,"b":4},"B":{"a":4,"b":1},"C":{"a":2,"b":8},"D":{"a":8,"b":2}},"conditions":["nonSeqFull","nonSeqPartial","seqNoFeedback","seqFeedback"],"classroomPairings":[["A","B"],["C","D"]],"coinWeights":[0.2,0.5,0.8],"subjectId":"A1BE5NGDU9B9JG","assignmentId":"3SB5N7Y3O4Q8PVSWCHTLAKCQVI9G0Q","hitId":"34XASH8KLQ89J2U8D314D7180O4PMV","url":"https://gershmanlab.com/experiments/alicia/teaching/experiment/?hitId=34XASH8KLQ89J2U8D314D7180O4PMV&workerId=A1BE5NGDU9B9JG&assignmentId=3SB5N7Y3O4Q8PVSWCHTLAKCQVI9G0Q&a=3NBS7&tp_a=3NBS7&b=3SB5N7Y3O4Q8PVSWCHTLAKCQVI9G0Q&tp_b=3SB5N7Y3O4Q8PVSWCHTLAKCQVI9G0Q&c=365717&tp_c=365717","totalBonus":1.18}]