[{"rt":14814,"response":{"heads":"10","tails":"1"},"type":"response","condition":"nonSeqPartial","trueTheta":0.8,"classrooms":["A","B"],"studentTrueClassroom":"B","exampleSet":"first","trial_type":"survey-html-form","trial_index":13,"time_elapsed":2111453,"internal_node_id":"0.0-6.0-0.0","params":{"nStudents":24,"maxFlips":30,"completionMinutes":45,"basePay":8,"maxBonus":9,"perTrialBonus":0.5,"perTrialBonusThreshold":0.05,"exampleCost":0.01},"classroomParams":{"A":{"a":1,"b":4},"B":{"a":4,"b":1},"C":{"a":2,"b":8},"D":{"a":8,"b":2}},"conditions":["nonSeqFull","nonSeqPartial","seqNoFeedback","seqFeedback"],"classroomPairings":[["A","B"],["C","D"]],"coinWeights":[0.2,0.5,0.8],"subjectId":"A1DMXEJGJY02E1","assignmentId":"3PZDLQMM0U724TF5PI1G3HKQUPMC2J","hitId":"3Z3R5YC0P3915KVY8X6BNRIWSQNFTT","url":"https://gershmanlab.com/experiments/alicia/teaching/experiment/?hitId=3Z3R5YC0P3915KVY8X6BNRIWSQNFTT&workerId=A1DMXEJGJY02E1&assignmentId=3PZDLQMM0U724TF5PI1G3HKQUPMC2J&a=MLZP9&tp_a=MLZP9&b=3PZDLQMM0U724TF5PI1G3HKQUPMC2J&tp_b=3PZDLQMM0U724TF5PI1G3HKQUPMC2J&c=365799&tp_c=365799","heads":10,"tails":1,"studentIndex":0,"studentTrueHypers":{"a":4,"b":1},"studentGuess":0.875,"delta":0.07499999999999996,"totalExamples":11,"bonus":0,"bonusSoFar":0},{"rt":6602,"response":{"heads":"4","tails":"4"},"type":"response","condition":"nonSeqPartial","trueTheta":0.5,"classrooms":["A","B"],"studentTrueClassroom":"A","exampleSet":"first","trial_type":"survey-html-form","trial_index":19,"time_elapsed":2132753,"internal_node_id":"0.0-12.0-0.0","params":{"nStudents":24,"maxFlips":30,"completionMinutes":45,"basePay":8,"maxBonus":9,"perTrialBonus":0.5,"perTrialBonusThreshold":0.05,"exampleCost":0.01},"classroomParams":{"A":{"a":1,"b":4},"B":{"a":4,"b":1},"C":{"a":2,"b":8},"D":{"a":8,"b":2}},"conditions":["nonSeqFull","nonSeqPartial","seqNoFeedback","seqFeedback"],"classroomPairings":[["A","B"],["C","D"]],"coinWeights":[0.2,0.5,0.8],"subjectId":"A1DMXEJGJY02E1","assignmentId":"3PZDLQMM0U724TF5PI1G3HKQUPMC2J","hitId":"3Z3R5YC0P3915KVY8X6BNRIWSQNFTT","url":"https://gershmanlab.com/experiments/alicia/teaching/experiment/?hitId=3Z3R5YC0P3915KVY8X6BNRIWSQNFTT&workerId=A1DMXEJGJY02E1&assignmentId=3PZDLQMM0U724TF5PI1G3HKQUPMC2J&a=MLZP9&tp_a=MLZP9&b=3PZDLQMM0U724TF5PI1G3HKQUPMC2J&tp_b=3PZDLQMM0U724TF5PI1G3HKQUPMC2J&c=365799&tp_c=365799","heads":4,"tails":4,"studentIndex":1,"studentTrueHypers":{"a":1,"b":4},"studentGuess":0.38461538461538464,"delta":0.11538461538461536,"totalExamples":8,"bonus":0,"bonusSoFar":0},{"rt":6292,"response":{"heads":"3","tails":"3"},"type":"response","condition":"seqFeedback","trueTheta":0.8,"classrooms":["A","B"],"studentTrueClassroom":"B","exampleSet":"first","trial_type":"survey-html-form","trial_index":25,"time_elapsed":2155089,"internal_node_id":"0.0-18.0-0.0","params":{"nStudents":24,"maxFlips":30,"completionMinutes":45,"basePay":8,"maxBonus":9,"perTrialBonus":0.5,"perTrialBonusThreshold":0.05,"exampleCost":0.01},"classroomParams":{"A":{"a":1,"b":4},"B":{"a":4,"b":1},"C":{"a":2,"b":8},"D":{"a":8,"b":2}},"conditions":["nonSeqFull","nonSeqPartial","seqNoFeedback","seqFeedback"],"classroomPairings":[["A","B"],["C","D"]],"coinWeights":[0.2,0.5,0.8],"subjectId":"A1DMXEJGJY02E1","assignmentId":"3PZDLQMM0U724TF5PI1G3HKQUPMC2J","hitId":"3Z3R5YC0P3915KVY8X6BNRIWSQNFTT","url":"https://gershmanlab.com/experiments/alicia/teaching/experiment/?hitId=3Z3R5YC0P3915KVY8X6BNRIWSQNFTT&workerId=A1DMXEJGJY02E1&assignmentId=3PZDLQMM0U724TF5PI1G3HKQUPMC2J&a=MLZP9&tp_a=MLZP9&b=3PZDLQMM0U724TF5PI1G3HKQUPMC2J&tp_b=3PZDLQMM0U724TF5PI1G3HKQUPMC2J&c=365799&tp_c=365799","heads":3,"tails":3,"studentIndex":2,"studentTrueHypers":{"a":4,"b":1},"studentGuess":0.6363636363636364,"delta":0.1636363636363637,"totalExamples":6,"bonusSoFar":0},{"rt":12594,"response":{"heads":"4","tails":"0"},"type":"response","condition":"seqFeedback","trueTheta":0.8,"classrooms":["A","B"],"studentTrueClassroom":"B","exampleSet":"second","trial_type":"survey-html-form","trial_index":29,"time_elapsed":2177338,"internal_node_id":"0.0-22.0-0.0","params":{"nStudents":24,"maxFlips":30,"completionMinutes":45,"basePay":8,"maxBonus":9,"perTrialBonus":0.5,"perTrialBonusThreshold":0.05,"exampleCost":0.01},"classroomParams":{"A":{"a":1,"b":4},"B":{"a":4,"b":1},"C":{"a":2,"b":8},"D":{"a":8,"b":2}},"conditions":["nonSeqFull","nonSeqPartial","seqNoFeedback","seqFeedback"],"classroomPairings":[["A","B"],["C","D"]],"coinWeights":[0.2,0.5,0.8],"subjectId":"A1DMXEJGJY02E1","assignmentId":"3PZDLQMM0U724TF5PI1G3HKQUPMC2J","hitId":"3Z3R5YC0P3915KVY8X6BNRIWSQNFTT","url":"https://gershmanlab.com/experiments/alicia/teaching/experiment/?hitId=3Z3R5YC0P3915KVY8X6BNRIWSQNFTT&workerId=A1DMXEJGJY02E1&assignmentId=3PZDLQMM0U724TF5PI1G3HKQUPMC2J&a=MLZP9&tp_a=MLZP9&b=3PZDLQMM0U724TF5PI1G3HKQUPMC2J&tp_b=3PZDLQMM0U724TF5PI1G3HKQUPMC2J&c=365799&tp_c=365799","firstResponseHeads":3,"firstResponseTails":3,"secondResponseHeads":4,"secondResponseTails":0,"totalHeads":7,"totalTails":3,"studentIndex":2,"studentTrueHypers":{"a":4,"b":1},"studentGuess":0.7333333333333333,"delta":0.06666666666666676,"bonus":0,"bonusSoFar":0,"totalExamples":10},{"rt":6751,"response":{"heads":"0","tails":"0"},"type":"response","condition":"seqNoFeedback","trueTheta":0.5,"classrooms":["A","B"],"studentTrueClassroom":"B","exampleSet":"first","trial_type":"survey-html-form","trial_index":35,"time_elapsed":2198368,"internal_node_id":"0.0-28.0-0.0","params":{"nStudents":24,"maxFlips":30,"completionMinutes":45,"basePay":8,"maxBonus":9,"perTrialBonus":0.5,"perTrialBonusThreshold":0.05,"exampleCost":0.01},"classroomParams":{"A":{"a":1,"b":4},"B":{"a":4,"b":1},"C":{"a":2,"b":8},"D":{"a":8,"b":2}},"conditions":["nonSeqFull","nonSeqPartial","seqNoFeedback","seqFeedback"],"classroomPairings":[["A","B"],["C","D"]],"coinWeights":[0.2,0.5,0.8],"subjectId":"A1DMXEJGJY02E1","assignmentId":"3PZDLQMM0U724TF5PI1G3HKQUPMC2J","hitId":"3Z3R5YC0P3915KVY8X6BNRIWSQNFTT","url":"https://gershmanlab.com/experiments/alicia/teaching/experiment/?hitId=3Z3R5YC0P3915KVY8X6BNRIWSQNFTT&workerId=A1DMXEJGJY02E1&assignmentId=3PZDLQMM0U724TF5PI1G3HKQUPMC2J&a=MLZP9&tp_a=MLZP9&b=3PZDLQMM0U724TF5PI1G3HKQUPMC2J&tp_b=3PZDLQMM0U724TF5PI1G3HKQUPMC2J&c=365799&tp_c=365799","heads":0,"tails":0,"studentIndex":3,"studentTrueHypers":{"a":4,"b":1},"studentGuess":0.8,"delta":0.30000000000000004,"totalExamples":0,"bonusSoFar":0},{"rt":5820,"response":{"heads":"0","tails":"0"},"type":"response","condition":"seqNoFeedback","trueTheta":0.5,"classrooms":["A","B"],"studentTrueClassroom":"B","exampleSet":"first","trial_type":"survey-html-form","trial_index":36,"time_elapsed":2204189,"internal_node_id":"0.0-28.1-0.1","params":{"nStudents":24,"maxFlips":30,"completionMinutes":45,"basePay":8,"maxBonus":9,"perTrialBonus":0.5,"perTrialBonusThreshold":0.05,"exampleCost":0.01},"classroomParams":{"A":{"a":1,"b":4},"B":{"a":4,"b":1},"C":{"a":2,"b":8},"D":{"a":8,"b":2}},"conditions":["nonSeqFull","nonSeqPartial","seqNoFeedback","seqFeedback"],"classroomPairings":[["A","B"],["C","D"]],"coinWeights":[0.2,0.5,0.8],"subjectId":"A1DMXEJGJY02E1","assignmentId":"3PZDLQMM0U724TF5PI1G3HKQUPMC2J","hitId":"3Z3R5YC0P3915KVY8X6BNRIWSQNFTT","url":"https://gershmanlab.com/experiments/alicia/teaching/experiment/?hitId=3Z3R5YC0P3915KVY8X6BNRIWSQNFTT&workerId=A1DMXEJGJY02E1&assignmentId=3PZDLQMM0U724TF5PI1G3HKQUPMC2J&a=MLZP9&tp_a=MLZP9&b=3PZDLQMM0U724TF5PI1G3HKQUPMC2J&tp_b=3PZDLQMM0U724TF5PI1G3HKQUPMC2J&c=365799&tp_c=365799","heads":0,"tails":0,"studentIndex":3,"studentTrueHypers":{"a":4,"b":1},"studentGuess":0.8,"delta":0.30000000000000004,"totalExamples":0,"bonusSoFar":0},{"rt":3035,"response":{"heads":"1","tails":"1"},"type":"response","condition":"seqNoFeedback","trueTheta":0.5,"classrooms":["A","B"],"studentTrueClassroom":"B","exampleSet":"first","trial_type":"survey-html-form","trial_index":37,"time_elapsed":2207226,"internal_node_id":"0.0-28.2-0.2","params":{"nStudents":24,"maxFlips":30,"completionMinutes":45,"basePay":8,"maxBonus":9,"perTrialBonus":0.5,"perTrialBonusThreshold":0.05,"exampleCost":0.01},"classroomParams":{"A":{"a":1,"b":4},"B":{"a":4,"b":1},"C":{"a":2,"b":8},"D":{"a":8,"b":2}},"conditions":["nonSeqFull","nonSeqPartial","seqNoFeedback","seqFeedback"],"classroomPairings":[["A","B"],["C","D"]],"coinWeights":[0.2,0.5,0.8],"subjectId":"A1DMXEJGJY02E1","assignmentId":"3PZDLQMM0U724TF5PI1G3HKQUPMC2J","hitId":"3Z3R5YC0P3915KVY8X6BNRIWSQNFTT","url":"https://gershmanlab.com/experiments/alicia/teaching/experiment/?hitId=3Z3R5YC0P3915KVY8X6BNRIWSQNFTT&workerId=A1DMXEJGJY02E1&assignmentId=3PZDLQMM0U724TF5PI1G3HKQUPMC2J&a=MLZP9&tp_a=MLZP9&b=3PZDLQMM0U724TF5PI1G3HKQUPMC2J&tp_b=3PZDLQMM0U724TF5PI1G3HKQUPMC2J&c=365799&tp_c=365799","heads":1,"tails":1,"studentIndex":3,"studentTrueHypers":{"a":4,"b":1},"studentGuess":0.7142857142857143,"delta":0.2142857142857143,"totalExamples":2,"bonusSoFar":0},{"rt":5007,"response":{"heads":"1","tails":"1"},"type":"response","condition":"seqNoFeedback","trueTheta":0.5,"classrooms":["A","B"],"studentTrueClassroom":"B","exampleSet":"second","trial_type":"survey-html-form","trial_index":40,"time_elapsed":2219009,"internal_node_id":"0.0-31.0-0.0","params":{"nStudents":24,"maxFlips":30,"completionMinutes":45,"basePay":8,"maxBonus":9,"perTrialBonus":0.5,"perTrialBonusThreshold":0.05,"exampleCost":0.01},"classroomParams":{"A":{"a":1,"b":4},"B":{"a":4,"b":1},"C":{"a":2,"b":8},"D":{"a":8,"b":2}},"conditions":["nonSeqFull","nonSeqPartial","seqNoFeedback","seqFeedback"],"classroomPairings":[["A","B"],["C","D"]],"coinWeights":[0.2,0.5,0.8],"subjectId":"A1DMXEJGJY02E1","assignmentId":"3PZDLQMM0U724TF5PI1G3HKQUPMC2J","hitId":"3Z3R5YC0P3915KVY8X6BNRIWSQNFTT","url":"https://gershmanlab.com/experiments/alicia/teaching/experiment/?hitId=3Z3R5YC0P3915KVY8X6BNRIWSQNFTT&workerId=A1DMXEJGJY02E1&assignmentId=3PZDLQMM0U724TF5PI1G3HKQUPMC2J&a=MLZP9&tp_a=MLZP9&b=3PZDLQMM0U724TF5PI1G3HKQUPMC2J&tp_b=3PZDLQMM0U724TF5PI1G3HKQUPMC2J&c=365799&tp_c=365799","firstResponseHeads":0,"firstResponseTails":0,"secondResponseHeads":1,"secondResponseTails":1,"totalHeads":1,"totalTails":1,"studentIndex":3,"studentTrueHypers":{"a":4,"b":1},"studentGuess":0.7142857142857143,"delta":0.2142857142857143,"bonus":0,"bonusSoFar":0,"totalExamples":2},{"rt":8494,"response":{"heads":"6","tails":"0"},"type":"response","condition":"nonSeqFull","trueTheta":0.5,"classrooms":["C","D"],"studentTrueClassroom":"D","exampleSet":"first","trial_type":"survey-html-form","trial_index":46,"time_elapsed":2247358,"internal_node_id":"0.0-37.0-0.0","params":{"nStudents":24,"maxFlips":30,"completionMinutes":45,"basePay":8,"maxBonus":9,"perTrialBonus":0.5,"perTrialBonusThreshold":0.05,"exampleCost":0.01},"classroomParams":{"A":{"a":1,"b":4},"B":{"a":4,"b":1},"C":{"a":2,"b":8},"D":{"a":8,"b":2}},"conditions":["nonSeqFull","nonSeqPartial","seqNoFeedback","seqFeedback"],"classroomPairings":[["A","B"],["C","D"]],"coinWeights":[0.2,0.5,0.8],"subjectId":"A1DMXEJGJY02E1","assignmentId":"3PZDLQMM0U724TF5PI1G3HKQUPMC2J","hitId":"3Z3R5YC0P3915KVY8X6BNRIWSQNFTT","url":"https://gershmanlab.com/experiments/alicia/teaching/experiment/?hitId=3Z3R5YC0P3915KVY8X6BNRIWSQNFTT&workerId=A1DMXEJGJY02E1&assignmentId=3PZDLQMM0U724TF5PI1G3HKQUPMC2J&a=MLZP9&tp_a=MLZP9&b=3PZDLQMM0U724TF5PI1G3HKQUPMC2J&tp_b=3PZDLQMM0U724TF5PI1G3HKQUPMC2J&c=365799&tp_c=365799","heads":6,"tails":0,"studentIndex":4,"studentTrueHypers":{"a":8,"b":2},"studentGuess":0.875,"delta":0.375,"totalExamples":6,"bonus":0,"bonusSoFar":0},{"rt":8695,"response":{"heads":"1","tails":"0"},"type":"response","condition":"seqNoFeedback","trueTheta":0.8,"classrooms":["A","B"],"studentTrueClassroom":"B","exampleSet":"first","trial_type":"survey-html-form","trial_index":52,"time_elapsed":2271829,"internal_node_id":"0.0-43.0-0.0","params":{"nStudents":24,"maxFlips":30,"completionMinutes":45,"basePay":8,"maxBonus":9,"perTrialBonus":0.5,"perTrialBonusThreshold":0.05,"exampleCost":0.01},"classroomParams":{"A":{"a":1,"b":4},"B":{"a":4,"b":1},"C":{"a":2,"b":8},"D":{"a":8,"b":2}},"conditions":["nonSeqFull","nonSeqPartial","seqNoFeedback","seqFeedback"],"classroomPairings":[["A","B"],["C","D"]],"coinWeights":[0.2,0.5,0.8],"subjectId":"A1DMXEJGJY02E1","assignmentId":"3PZDLQMM0U724TF5PI1G3HKQUPMC2J","hitId":"3Z3R5YC0P3915KVY8X6BNRIWSQNFTT","url":"https://gershmanlab.com/experiments/alicia/teaching/experiment/?hitId=3Z3R5YC0P3915KVY8X6BNRIWSQNFTT&workerId=A1DMXEJGJY02E1&assignmentId=3PZDLQMM0U724TF5PI1G3HKQUPMC2J&a=MLZP9&tp_a=MLZP9&b=3PZDLQMM0U724TF5PI1G3HKQUPMC2J&tp_b=3PZDLQMM0U724TF5PI1G3HKQUPMC2J&c=365799&tp_c=365799","heads":1,"tails":0,"studentIndex":5,"studentTrueHypers":{"a":4,"b":1},"studentGuess":0.8333333333333334,"delta":0.033333333333333326,"totalExamples":1,"bonusSoFar":0},{"rt":2950,"response":{"heads":"2","tails":"0"},"type":"response","condition":"seqNoFeedback","trueTheta":0.8,"classrooms":["A","B"],"studentTrueClassroom":"B","exampleSet":"second","trial_type":"survey-html-form","trial_index":55,"time_elapsed":2280044,"internal_node_id":"0.0-46.0-0.0","params":{"nStudents":24,"maxFlips":30,"completionMinutes":45,"basePay":8,"maxBonus":9,"perTrialBonus":0.5,"perTrialBonusThreshold":0.05,"exampleCost":0.01},"classroomParams":{"A":{"a":1,"b":4},"B":{"a":4,"b":1},"C":{"a":2,"b":8},"D":{"a":8,"b":2}},"conditions":["nonSeqFull","nonSeqPartial","seqNoFeedback","seqFeedback"],"classroomPairings":[["A","B"],["C","D"]],"coinWeights":[0.2,0.5,0.8],"subjectId":"A1DMXEJGJY02E1","assignmentId":"3PZDLQMM0U724TF5PI1G3HKQUPMC2J","hitId":"3Z3R5YC0P3915KVY8X6BNRIWSQNFTT","url":"https://gershmanlab.com/experiments/alicia/teaching/experiment/?hitId=3Z3R5YC0P3915KVY8X6BNRIWSQNFTT&workerId=A1DMXEJGJY02E1&assignmentId=3PZDLQMM0U724TF5PI1G3HKQUPMC2J&a=MLZP9&tp_a=MLZP9&b=3PZDLQMM0U724TF5PI1G3HKQUPMC2J&tp_b=3PZDLQMM0U724TF5PI1G3HKQUPMC2J&c=365799&tp_c=365799","firstResponseHeads":1,"firstResponseTails":0,"secondResponseHeads":2,"secondResponseTails":0,"totalHeads":3,"totalTails":0,"studentIndex":5,"studentTrueHypers":{"a":4,"b":1},"studentGuess":0.875,"delta":0.07499999999999996,"bonus":0,"bonusSoFar":0,"totalExamples":3},{"rt":4495,"response":{"heads":"0","tails":"8"},"type":"response","condition":"seqFeedback","trueTheta":0.2,"classrooms":["C","D"],"studentTrueClassroom":"D","exampleSet":"first","trial_type":"survey-html-form","trial_index":61,"time_elapsed":2303574,"internal_node_id":"0.0-52.0-0.0","params":{"nStudents":24,"maxFlips":30,"completionMinutes":45,"basePay":8,"maxBonus":9,"perTrialBonus":0.5,"perTrialBonusThreshold":0.05,"exampleCost":0.01},"classroomParams":{"A":{"a":1,"b":4},"B":{"a":4,"b":1},"C":{"a":2,"b":8},"D":{"a":8,"b":2}},"conditions":["nonSeqFull","nonSeqPartial","seqNoFeedback","seqFeedback"],"classroomPairings":[["A","B"],["C","D"]],"coinWeights":[0.2,0.5,0.8],"subjectId":"A1DMXEJGJY02E1","assignmentId":"3PZDLQMM0U724TF5PI1G3HKQUPMC2J","hitId":"3Z3R5YC0P3915KVY8X6BNRIWSQNFTT","url":"https://gershmanlab.com/experiments/alicia/teaching/experiment/?hitId=3Z3R5YC0P3915KVY8X6BNRIWSQNFTT&workerId=A1DMXEJGJY02E1&assignmentId=3PZDLQMM0U724TF5PI1G3HKQUPMC2J&a=MLZP9&tp_a=MLZP9&b=3PZDLQMM0U724TF5PI1G3HKQUPMC2J&tp_b=3PZDLQMM0U724TF5PI1G3HKQUPMC2J&c=365799&tp_c=365799","heads":0,"tails":8,"studentIndex":6,"studentTrueHypers":{"a":8,"b":2},"studentGuess":0.4444444444444444,"delta":0.2444444444444444,"totalExamples":8,"bonusSoFar":0},{"rt":5488,"response":{"heads":"1","tails":"2"},"type":"response","condition":"seqFeedback","trueTheta":0.2,"classrooms":["C","D"],"studentTrueClassroom":"D","exampleSet":"second","trial_type":"survey-html-form","trial_index":65,"time_elapsed":2322172,"internal_node_id":"0.0-56.0-0.0","params":{"nStudents":24,"maxFlips":30,"completionMinutes":45,"basePay":8,"maxBonus":9,"perTrialBonus":0.5,"perTrialBonusThreshold":0.05,"exampleCost":0.01},"classroomParams":{"A":{"a":1,"b":4},"B":{"a":4,"b":1},"C":{"a":2,"b":8},"D":{"a":8,"b":2}},"conditions":["nonSeqFull","nonSeqPartial","seqNoFeedback","seqFeedback"],"classroomPairings":[["A","B"],["C","D"]],"coinWeights":[0.2,0.5,0.8],"subjectId":"A1DMXEJGJY02E1","assignmentId":"3PZDLQMM0U724TF5PI1G3HKQUPMC2J","hitId":"3Z3R5YC0P3915KVY8X6BNRIWSQNFTT","url":"https://gershmanlab.com/experiments/alicia/teaching/experiment/?hitId=3Z3R5YC0P3915KVY8X6BNRIWSQNFTT&workerId=A1DMXEJGJY02E1&assignmentId=3PZDLQMM0U724TF5PI1G3HKQUPMC2J&a=MLZP9&tp_a=MLZP9&b=3PZDLQMM0U724TF5PI1G3HKQUPMC2J&tp_b=3PZDLQMM0U724TF5PI1G3HKQUPMC2J&c=365799&tp_c=365799","firstResponseHeads":0,"firstResponseTails":8,"secondResponseHeads":1,"secondResponseTails":2,"totalHeads":1,"totalTails":10,"studentIndex":6,"studentTrueHypers":{"a":8,"b":2},"studentGuess":0.42857142857142855,"delta":0.22857142857142854,"bonus":0,"bonusSoFar":0,"totalExamples":11},{"rt":7047,"response":{"heads":"3","tails":"3"},"type":"response","condition":"seqNoFeedback","trueTheta":0.5,"classrooms":["C","D"],"studentTrueClassroom":"C","exampleSet":"first","trial_type":"survey-html-form","trial_index":71,"time_elapsed":2343973,"internal_node_id":"0.0-62.0-0.0","params":{"nStudents":24,"maxFlips":30,"completionMinutes":45,"basePay":8,"maxBonus":9,"perTrialBonus":0.5,"perTrialBonusThreshold":0.05,"exampleCost":0.01},"classroomParams":{"A":{"a":1,"b":4},"B":{"a":4,"b":1},"C":{"a":2,"b":8},"D":{"a":8,"b":2}},"conditions":["nonSeqFull","nonSeqPartial","seqNoFeedback","seqFeedback"],"classroomPairings":[["A","B"],["C","D"]],"coinWeights":[0.2,0.5,0.8],"subjectId":"A1DMXEJGJY02E1","assignmentId":"3PZDLQMM0U724TF5PI1G3HKQUPMC2J","hitId":"3Z3R5YC0P3915KVY8X6BNRIWSQNFTT","url":"https://gershmanlab.com/experiments/alicia/teaching/experiment/?hitId=3Z3R5YC0P3915KVY8X6BNRIWSQNFTT&workerId=A1DMXEJGJY02E1&assignmentId=3PZDLQMM0U724TF5PI1G3HKQUPMC2J&a=MLZP9&tp_a=MLZP9&b=3PZDLQMM0U724TF5PI1G3HKQUPMC2J&tp_b=3PZDLQMM0U724TF5PI1G3HKQUPMC2J&c=365799&tp_c=365799","heads":3,"tails":3,"studentIndex":7,"studentTrueHypers":{"a":2,"b":8},"studentGuess":0.3125,"delta":0.1875,"totalExamples":6,"bonusSoFar":0},{"rt":1743,"response":{"heads":"3","tails":"3"},"type":"response","condition":"seqNoFeedback","trueTheta":0.5,"classrooms":["C","D"],"studentTrueClassroom":"C","exampleSet":"second","trial_type":"survey-html-form","trial_index":74,"time_elapsed":2351730,"internal_node_id":"0.0-65.0-0.0","params":{"nStudents":24,"maxFlips":30,"completionMinutes":45,"basePay":8,"maxBonus":9,"perTrialBonus":0.5,"perTrialBonusThreshold":0.05,"exampleCost":0.01},"classroomParams":{"A":{"a":1,"b":4},"B":{"a":4,"b":1},"C":{"a":2,"b":8},"D":{"a":8,"b":2}},"conditions":["nonSeqFull","nonSeqPartial","seqNoFeedback","seqFeedback"],"classroomPairings":[["A","B"],["C","D"]],"coinWeights":[0.2,0.5,0.8],"subjectId":"A1DMXEJGJY02E1","assignmentId":"3PZDLQMM0U724TF5PI1G3HKQUPMC2J","hitId":"3Z3R5YC0P3915KVY8X6BNRIWSQNFTT","url":"https://gershmanlab.com/experiments/alicia/teaching/experiment/?hitId=3Z3R5YC0P3915KVY8X6BNRIWSQNFTT&workerId=A1DMXEJGJY02E1&assignmentId=3PZDLQMM0U724TF5PI1G3HKQUPMC2J&a=MLZP9&tp_a=MLZP9&b=3PZDLQMM0U724TF5PI1G3HKQUPMC2J&tp_b=3PZDLQMM0U724TF5PI1G3HKQUPMC2J&c=365799&tp_c=365799","firstResponseHeads":3,"firstResponseTails":3,"secondResponseHeads":3,"secondResponseTails":3,"totalHeads":6,"totalTails":6,"studentIndex":7,"studentTrueHypers":{"a":2,"b":8},"studentGuess":0.36363636363636365,"delta":0.13636363636363635,"bonus":0,"bonusSoFar":0,"totalExamples":12},{"rt":4725,"response":{"heads":"4","tails":"1"},"type":"response","condition":"nonSeqFull","trueTheta":0.8,"classrooms":["A","B"],"studentTrueClassroom":"B","exampleSet":"first","trial_type":"survey-html-form","trial_index":80,"time_elapsed":2370493,"internal_node_id":"0.0-71.0-0.0","params":{"nStudents":24,"maxFlips":30,"completionMinutes":45,"basePay":8,"maxBonus":9,"perTrialBonus":0.5,"perTrialBonusThreshold":0.05,"exampleCost":0.01},"classroomParams":{"A":{"a":1,"b":4},"B":{"a":4,"b":1},"C":{"a":2,"b":8},"D":{"a":8,"b":2}},"conditions":["nonSeqFull","nonSeqPartial","seqNoFeedback","seqFeedback"],"classroomPairings":[["A","B"],["C","D"]],"coinWeights":[0.2,0.5,0.8],"subjectId":"A1DMXEJGJY02E1","assignmentId":"3PZDLQMM0U724TF5PI1G3HKQUPMC2J","hitId":"3Z3R5YC0P3915KVY8X6BNRIWSQNFTT","url":"https://gershmanlab.com/experiments/alicia/teaching/experiment/?hitId=3Z3R5YC0P3915KVY8X6BNRIWSQNFTT&workerId=A1DMXEJGJY02E1&assignmentId=3PZDLQMM0U724TF5PI1G3HKQUPMC2J&a=MLZP9&tp_a=MLZP9&b=3PZDLQMM0U724TF5PI1G3HKQUPMC2J&tp_b=3PZDLQMM0U724TF5PI1G3HKQUPMC2J&c=365799&tp_c=365799","heads":4,"tails":1,"studentIndex":8,"studentTrueHypers":{"a":4,"b":1},"studentGuess":0.8,"delta":0,"totalExamples":5,"bonus":0.45,"bonusSoFar":0.45},{"rt":10750,"response":{"heads":"0","tails":"3"},"type":"response","condition":"nonSeqFull","trueTheta":0.2,"classrooms":["C","D"],"studentTrueClassroom":"C","exampleSet":"first","trial_type":"survey-html-form","trial_index":86,"time_elapsed":2394885,"internal_node_id":"0.0-77.0-0.0","params":{"nStudents":24,"maxFlips":30,"completionMinutes":45,"basePay":8,"maxBonus":9,"perTrialBonus":0.5,"perTrialBonusThreshold":0.05,"exampleCost":0.01},"classroomParams":{"A":{"a":1,"b":4},"B":{"a":4,"b":1},"C":{"a":2,"b":8},"D":{"a":8,"b":2}},"conditions":["nonSeqFull","nonSeqPartial","seqNoFeedback","seqFeedback"],"classroomPairings":[["A","B"],["C","D"]],"coinWeights":[0.2,0.5,0.8],"subjectId":"A1DMXEJGJY02E1","assignmentId":"3PZDLQMM0U724TF5PI1G3HKQUPMC2J","hitId":"3Z3R5YC0P3915KVY8X6BNRIWSQNFTT","url":"https://gershmanlab.com/experiments/alicia/teaching/experiment/?hitId=3Z3R5YC0P3915KVY8X6BNRIWSQNFTT&workerId=A1DMXEJGJY02E1&assignmentId=3PZDLQMM0U724TF5PI1G3HKQUPMC2J&a=MLZP9&tp_a=MLZP9&b=3PZDLQMM0U724TF5PI1G3HKQUPMC2J&tp_b=3PZDLQMM0U724TF5PI1G3HKQUPMC2J&c=365799&tp_c=365799","heads":0,"tails":3,"studentIndex":9,"studentTrueHypers":{"a":2,"b":8},"studentGuess":0.15384615384615385,"delta":0.046153846153846156,"totalExamples":3,"bonus":0.47,"bonusSoFar":0.92},{"rt":4435,"response":{"heads":"0","tails":"2"},"type":"response","condition":"nonSeqFull","trueTheta":0.2,"classrooms":["A","B"],"studentTrueClassroom":"A","exampleSet":"first","trial_type":"survey-html-form","trial_index":92,"time_elapsed":2412992,"internal_node_id":"0.0-83.0-0.0","params":{"nStudents":24,"maxFlips":30,"completionMinutes":45,"basePay":8,"maxBonus":9,"perTrialBonus":0.5,"perTrialBonusThreshold":0.05,"exampleCost":0.01},"classroomParams":{"A":{"a":1,"b":4},"B":{"a":4,"b":1},"C":{"a":2,"b":8},"D":{"a":8,"b":2}},"conditions":["nonSeqFull","nonSeqPartial","seqNoFeedback","seqFeedback"],"classroomPairings":[["A","B"],["C","D"]],"coinWeights":[0.2,0.5,0.8],"subjectId":"A1DMXEJGJY02E1","assignmentId":"3PZDLQMM0U724TF5PI1G3HKQUPMC2J","hitId":"3Z3R5YC0P3915KVY8X6BNRIWSQNFTT","url":"https://gershmanlab.com/experiments/alicia/teaching/experiment/?hitId=3Z3R5YC0P3915KVY8X6BNRIWSQNFTT&workerId=A1DMXEJGJY02E1&assignmentId=3PZDLQMM0U724TF5PI1G3HKQUPMC2J&a=MLZP9&tp_a=MLZP9&b=3PZDLQMM0U724TF5PI1G3HKQUPMC2J&tp_b=3PZDLQMM0U724TF5PI1G3HKQUPMC2J&c=365799&tp_c=365799","heads":0,"tails":2,"studentIndex":10,"studentTrueHypers":{"a":1,"b":4},"studentGuess":0.14285714285714285,"delta":0.05714285714285716,"totalExamples":2,"bonus":0,"bonusSoFar":0.92},{"rt":5395,"response":{"heads":"2","tails":"2"},"type":"response","condition":"seqFeedback","trueTheta":0.5,"classrooms":["A","B"],"studentTrueClassroom":"A","exampleSet":"first","trial_type":"survey-html-form","trial_index":98,"time_elapsed":2431002,"internal_node_id":"0.0-89.0-0.0","params":{"nStudents":24,"maxFlips":30,"completionMinutes":45,"basePay":8,"maxBonus":9,"perTrialBonus":0.5,"perTrialBonusThreshold":0.05,"exampleCost":0.01},"classroomParams":{"A":{"a":1,"b":4},"B":{"a":4,"b":1},"C":{"a":2,"b":8},"D":{"a":8,"b":2}},"conditions":["nonSeqFull","nonSeqPartial","seqNoFeedback","seqFeedback"],"classroomPairings":[["A","B"],["C","D"]],"coinWeights":[0.2,0.5,0.8],"subjectId":"A1DMXEJGJY02E1","assignmentId":"3PZDLQMM0U724TF5PI1G3HKQUPMC2J","hitId":"3Z3R5YC0P3915KVY8X6BNRIWSQNFTT","url":"https://gershmanlab.com/experiments/alicia/teaching/experiment/?hitId=3Z3R5YC0P3915KVY8X6BNRIWSQNFTT&workerId=A1DMXEJGJY02E1&assignmentId=3PZDLQMM0U724TF5PI1G3HKQUPMC2J&a=MLZP9&tp_a=MLZP9&b=3PZDLQMM0U724TF5PI1G3HKQUPMC2J&tp_b=3PZDLQMM0U724TF5PI1G3HKQUPMC2J&c=365799&tp_c=365799","heads":2,"tails":2,"studentIndex":11,"studentTrueHypers":{"a":1,"b":4},"studentGuess":0.3333333333333333,"delta":0.16666666666666669,"totalExamples":4,"bonusSoFar":0.92},{"rt":8029,"response":{"heads":"3","tails":"1"},"type":"response","condition":"seqFeedback","trueTheta":0.5,"classrooms":["A","B"],"studentTrueClassroom":"A","exampleSet":"second","trial_type":"survey-html-form","trial_index":102,"time_elapsed":2446596,"internal_node_id":"0.0-93.0-0.0","params":{"nStudents":24,"maxFlips":30,"completionMinutes":45,"basePay":8,"maxBonus":9,"perTrialBonus":0.5,"perTrialBonusThreshold":0.05,"exampleCost":0.01},"classroomParams":{"A":{"a":1,"b":4},"B":{"a":4,"b":1},"C":{"a":2,"b":8},"D":{"a":8,"b":2}},"conditions":["nonSeqFull","nonSeqPartial","seqNoFeedback","seqFeedback"],"classroomPairings":[["A","B"],["C","D"]],"coinWeights":[0.2,0.5,0.8],"subjectId":"A1DMXEJGJY02E1","assignmentId":"3PZDLQMM0U724TF5PI1G3HKQUPMC2J","hitId":"3Z3R5YC0P3915KVY8X6BNRIWSQNFTT","url":"https://gershmanlab.com/experiments/alicia/teaching/experiment/?hitId=3Z3R5YC0P3915KVY8X6BNRIWSQNFTT&workerId=A1DMXEJGJY02E1&assignmentId=3PZDLQMM0U724TF5PI1G3HKQUPMC2J&a=MLZP9&tp_a=MLZP9&b=3PZDLQMM0U724TF5PI1G3HKQUPMC2J&tp_b=3PZDLQMM0U724TF5PI1G3HKQUPMC2J&c=365799&tp_c=365799","firstResponseHeads":2,"firstResponseTails":2,"secondResponseHeads":3,"secondResponseTails":1,"totalHeads":5,"totalTails":3,"studentIndex":11,"studentTrueHypers":{"a":1,"b":4},"studentGuess":0.46153846153846156,"delta":0.038461538461538436,"bonus":0.42,"bonusSoFar":1.34,"totalExamples":8},{"rt":4740,"response":{"heads":"10","tails":"0"},"type":"response","condition":"nonSeqFull","trueTheta":0.8,"classrooms":["C","D"],"studentTrueClassroom":"C","exampleSet":"first","trial_type":"survey-html-form","trial_index":108,"time_elapsed":2463368,"internal_node_id":"0.0-99.0-0.0","params":{"nStudents":24,"maxFlips":30,"completionMinutes":45,"basePay":8,"maxBonus":9,"perTrialBonus":0.5,"perTrialBonusThreshold":0.05,"exampleCost":0.01},"classroomParams":{"A":{"a":1,"b":4},"B":{"a":4,"b":1},"C":{"a":2,"b":8},"D":{"a":8,"b":2}},"conditions":["nonSeqFull","nonSeqPartial","seqNoFeedback","seqFeedback"],"classroomPairings":[["A","B"],["C","D"]],"coinWeights":[0.2,0.5,0.8],"subjectId":"A1DMXEJGJY02E1","assignmentId":"3PZDLQMM0U724TF5PI1G3HKQUPMC2J","hitId":"3Z3R5YC0P3915KVY8X6BNRIWSQNFTT","url":"https://gershmanlab.com/experiments/alicia/teaching/experiment/?hitId=3Z3R5YC0P3915KVY8X6BNRIWSQNFTT&workerId=A1DMXEJGJY02E1&assignmentId=3PZDLQMM0U724TF5PI1G3HKQUPMC2J&a=MLZP9&tp_a=MLZP9&b=3PZDLQMM0U724TF5PI1G3HKQUPMC2J&tp_b=3PZDLQMM0U724TF5PI1G3HKQUPMC2J&c=365799&tp_c=365799","heads":10,"tails":0,"studentIndex":12,"studentTrueHypers":{"a":2,"b":8},"studentGuess":0.6,"delta":0.20000000000000007,"totalExamples":10,"bonus":0,"bonusSoFar":1.34},{"rt":5225,"response":{"heads":"1","tails":"4"},"type":"response","condition":"seqFeedback","trueTheta":0.2,"classrooms":["A","B"],"studentTrueClassroom":"A","exampleSet":"first","trial_type":"survey-html-form","trial_index":114,"time_elapsed":2483096,"internal_node_id":"0.0-105.0-0.0","params":{"nStudents":24,"maxFlips":30,"completionMinutes":45,"basePay":8,"maxBonus":9,"perTrialBonus":0.5,"perTrialBonusThreshold":0.05,"exampleCost":0.01},"classroomParams":{"A":{"a":1,"b":4},"B":{"a":4,"b":1},"C":{"a":2,"b":8},"D":{"a":8,"b":2}},"conditions":["nonSeqFull","nonSeqPartial","seqNoFeedback","seqFeedback"],"classroomPairings":[["A","B"],["C","D"]],"coinWeights":[0.2,0.5,0.8],"subjectId":"A1DMXEJGJY02E1","assignmentId":"3PZDLQMM0U724TF5PI1G3HKQUPMC2J","hitId":"3Z3R5YC0P3915KVY8X6BNRIWSQNFTT","url":"https://gershmanlab.com/experiments/alicia/teaching/experiment/?hitId=3Z3R5YC0P3915KVY8X6BNRIWSQNFTT&workerId=A1DMXEJGJY02E1&assignmentId=3PZDLQMM0U724TF5PI1G3HKQUPMC2J&a=MLZP9&tp_a=MLZP9&b=3PZDLQMM0U724TF5PI1G3HKQUPMC2J&tp_b=3PZDLQMM0U724TF5PI1G3HKQUPMC2J&c=365799&tp_c=365799","heads":1,"tails":4,"studentIndex":13,"studentTrueHypers":{"a":1,"b":4},"studentGuess":0.2,"delta":0,"totalExamples":5,"bonusSoFar":1.34},{"rt":1913,"response":{"heads":"1","tails":"4"},"type":"response","condition":"seqFeedback","trueTheta":0.2,"classrooms":["A","B"],"studentTrueClassroom":"A","exampleSet":"second","trial_type":"survey-html-form","trial_index":118,"time_elapsed":2493265,"internal_node_id":"0.0-109.0-0.0","params":{"nStudents":24,"maxFlips":30,"completionMinutes":45,"basePay":8,"maxBonus":9,"perTrialBonus":0.5,"perTrialBonusThreshold":0.05,"exampleCost":0.01},"classroomParams":{"A":{"a":1,"b":4},"B":{"a":4,"b":1},"C":{"a":2,"b":8},"D":{"a":8,"b":2}},"conditions":["nonSeqFull","nonSeqPartial","seqNoFeedback","seqFeedback"],"classroomPairings":[["A","B"],["C","D"]],"coinWeights":[0.2,0.5,0.8],"subjectId":"A1DMXEJGJY02E1","assignmentId":"3PZDLQMM0U724TF5PI1G3HKQUPMC2J","hitId":"3Z3R5YC0P3915KVY8X6BNRIWSQNFTT","url":"https://gershmanlab.com/experiments/alicia/teaching/experiment/?hitId=3Z3R5YC0P3915KVY8X6BNRIWSQNFTT&workerId=A1DMXEJGJY02E1&assignmentId=3PZDLQMM0U724TF5PI1G3HKQUPMC2J&a=MLZP9&tp_a=MLZP9&b=3PZDLQMM0U724TF5PI1G3HKQUPMC2J&tp_b=3PZDLQMM0U724TF5PI1G3HKQUPMC2J&c=365799&tp_c=365799","firstResponseHeads":1,"firstResponseTails":4,"secondResponseHeads":1,"secondResponseTails":4,"totalHeads":2,"totalTails":8,"studentIndex":13,"studentTrueHypers":{"a":1,"b":4},"studentGuess":0.2,"delta":0,"bonus":0.4,"bonusSoFar":1.74,"totalExamples":10},{"rt":5427,"response":{"heads":"4","tails":"0"},"type":"response","condition":"nonSeqPartial","trueTheta":0.8,"classrooms":["C","D"],"studentTrueClassroom":"C","exampleSet":"first","trial_type":"survey-html-form","trial_index":124,"time_elapsed":2514965,"internal_node_id":"0.0-115.0-0.0","params":{"nStudents":24,"maxFlips":30,"completionMinutes":45,"basePay":8,"maxBonus":9,"perTrialBonus":0.5,"perTrialBonusThreshold":0.05,"exampleCost":0.01},"classroomParams":{"A":{"a":1,"b":4},"B":{"a":4,"b":1},"C":{"a":2,"b":8},"D":{"a":8,"b":2}},"conditions":["nonSeqFull","nonSeqPartial","seqNoFeedback","seqFeedback"],"classroomPairings":[["A","B"],["C","D"]],"coinWeights":[0.2,0.5,0.8],"subjectId":"A1DMXEJGJY02E1","assignmentId":"3PZDLQMM0U724TF5PI1G3HKQUPMC2J","hitId":"3Z3R5YC0P3915KVY8X6BNRIWSQNFTT","url":"https://gershmanlab.com/experiments/alicia/teaching/experiment/?hitId=3Z3R5YC0P3915KVY8X6BNRIWSQNFTT&workerId=A1DMXEJGJY02E1&assignmentId=3PZDLQMM0U724TF5PI1G3HKQUPMC2J&a=MLZP9&tp_a=MLZP9&b=3PZDLQMM0U724TF5PI1G3HKQUPMC2J&tp_b=3PZDLQMM0U724TF5PI1G3HKQUPMC2J&c=365799&tp_c=365799","heads":4,"tails":0,"studentIndex":14,"studentTrueHypers":{"a":2,"b":8},"studentGuess":0.42857142857142855,"delta":0.3714285714285715,"totalExamples":4,"bonus":0,"bonusSoFar":1.74},{"rt":2299,"response":{"heads":"1","tails":"1"},"type":"response","condition":"seqFeedback","trueTheta":0.5,"classrooms":["C","D"],"studentTrueClassroom":"D","exampleSet":"first","trial_type":"survey-html-form","trial_index":130,"time_elapsed":2531242,"internal_node_id":"0.0-121.0-0.0","params":{"nStudents":24,"maxFlips":30,"completionMinutes":45,"basePay":8,"maxBonus":9,"perTrialBonus":0.5,"perTrialBonusThreshold":0.05,"exampleCost":0.01},"classroomParams":{"A":{"a":1,"b":4},"B":{"a":4,"b":1},"C":{"a":2,"b":8},"D":{"a":8,"b":2}},"conditions":["nonSeqFull","nonSeqPartial","seqNoFeedback","seqFeedback"],"classroomPairings":[["A","B"],["C","D"]],"coinWeights":[0.2,0.5,0.8],"subjectId":"A1DMXEJGJY02E1","assignmentId":"3PZDLQMM0U724TF5PI1G3HKQUPMC2J","hitId":"3Z3R5YC0P3915KVY8X6BNRIWSQNFTT","url":"https://gershmanlab.com/experiments/alicia/teaching/experiment/?hitId=3Z3R5YC0P3915KVY8X6BNRIWSQNFTT&workerId=A1DMXEJGJY02E1&assignmentId=3PZDLQMM0U724TF5PI1G3HKQUPMC2J&a=MLZP9&tp_a=MLZP9&b=3PZDLQMM0U724TF5PI1G3HKQUPMC2J&tp_b=3PZDLQMM0U724TF5PI1G3HKQUPMC2J&c=365799&tp_c=365799","heads":1,"tails":1,"studentIndex":15,"studentTrueHypers":{"a":8,"b":2},"studentGuess":0.75,"delta":0.25,"totalExamples":2,"bonusSoFar":1.74},{"rt":2057,"response":{"heads":"0","tails":"2"},"type":"response","condition":"seqFeedback","trueTheta":0.5,"classrooms":["C","D"],"studentTrueClassroom":"D","exampleSet":"second","trial_type":"survey-html-form","trial_index":134,"time_elapsed":2542316,"internal_node_id":"0.0-125.0-0.0","params":{"nStudents":24,"maxFlips":30,"completionMinutes":45,"basePay":8,"maxBonus":9,"perTrialBonus":0.5,"perTrialBonusThreshold":0.05,"exampleCost":0.01},"classroomParams":{"A":{"a":1,"b":4},"B":{"a":4,"b":1},"C":{"a":2,"b":8},"D":{"a":8,"b":2}},"conditions":["nonSeqFull","nonSeqPartial","seqNoFeedback","seqFeedback"],"classroomPairings":[["A","B"],["C","D"]],"coinWeights":[0.2,0.5,0.8],"subjectId":"A1DMXEJGJY02E1","assignmentId":"3PZDLQMM0U724TF5PI1G3HKQUPMC2J","hitId":"3Z3R5YC0P3915KVY8X6BNRIWSQNFTT","url":"https://gershmanlab.com/experiments/alicia/teaching/experiment/?hitId=3Z3R5YC0P3915KVY8X6BNRIWSQNFTT&workerId=A1DMXEJGJY02E1&assignmentId=3PZDLQMM0U724TF5PI1G3HKQUPMC2J&a=MLZP9&tp_a=MLZP9&b=3PZDLQMM0U724TF5PI1G3HKQUPMC2J&tp_b=3PZDLQMM0U724TF5PI1G3HKQUPMC2J&c=365799&tp_c=365799","firstResponseHeads":1,"firstResponseTails":1,"secondResponseHeads":0,"secondResponseTails":2,"totalHeads":1,"totalTails":3,"studentIndex":15,"studentTrueHypers":{"a":8,"b":2},"studentGuess":0.6428571428571429,"delta":0.1428571428571429,"bonus":0,"bonusSoFar":1.74,"totalExamples":4},{"rt":4824,"response":{"heads":"0","tails":"4"},"type":"response","condition":"nonSeqPartial","trueTheta":0.2,"classrooms":["A","B"],"studentTrueClassroom":"B","exampleSet":"first","trial_type":"survey-html-form","trial_index":140,"time_elapsed":2559384,"internal_node_id":"0.0-131.0-0.0","params":{"nStudents":24,"maxFlips":30,"completionMinutes":45,"basePay":8,"maxBonus":9,"perTrialBonus":0.5,"perTrialBonusThreshold":0.05,"exampleCost":0.01},"classroomParams":{"A":{"a":1,"b":4},"B":{"a":4,"b":1},"C":{"a":2,"b":8},"D":{"a":8,"b":2}},"conditions":["nonSeqFull","nonSeqPartial","seqNoFeedback","seqFeedback"],"classroomPairings":[["A","B"],["C","D"]],"coinWeights":[0.2,0.5,0.8],"subjectId":"A1DMXEJGJY02E1","assignmentId":"3PZDLQMM0U724TF5PI1G3HKQUPMC2J","hitId":"3Z3R5YC0P3915KVY8X6BNRIWSQNFTT","url":"https://gershmanlab.com/experiments/alicia/teaching/experiment/?hitId=3Z3R5YC0P3915KVY8X6BNRIWSQNFTT&workerId=A1DMXEJGJY02E1&assignmentId=3PZDLQMM0U724TF5PI1G3HKQUPMC2J&a=MLZP9&tp_a=MLZP9&b=3PZDLQMM0U724TF5PI1G3HKQUPMC2J&tp_b=3PZDLQMM0U724TF5PI1G3HKQUPMC2J&c=365799&tp_c=365799","heads":0,"tails":4,"studentIndex":16,"studentTrueHypers":{"a":4,"b":1},"studentGuess":0.4444444444444444,"delta":0.2444444444444444,"totalExamples":4,"bonus":0,"bonusSoFar":1.74},{"rt":4547,"response":{"heads":"6","tails":"0"},"type":"response","condition":"seqFeedback","trueTheta":0.8,"classrooms":["C","D"],"studentTrueClassroom":"D","exampleSet":"first","trial_type":"survey-html-form","trial_index":146,"time_elapsed":2578076,"internal_node_id":"0.0-137.0-0.0","params":{"nStudents":24,"maxFlips":30,"completionMinutes":45,"basePay":8,"maxBonus":9,"perTrialBonus":0.5,"perTrialBonusThreshold":0.05,"exampleCost":0.01},"classroomParams":{"A":{"a":1,"b":4},"B":{"a":4,"b":1},"C":{"a":2,"b":8},"D":{"a":8,"b":2}},"conditions":["nonSeqFull","nonSeqPartial","seqNoFeedback","seqFeedback"],"classroomPairings":[["A","B"],["C","D"]],"coinWeights":[0.2,0.5,0.8],"subjectId":"A1DMXEJGJY02E1","assignmentId":"3PZDLQMM0U724TF5PI1G3HKQUPMC2J","hitId":"3Z3R5YC0P3915KVY8X6BNRIWSQNFTT","url":"https://gershmanlab.com/experiments/alicia/teaching/experiment/?hitId=3Z3R5YC0P3915KVY8X6BNRIWSQNFTT&workerId=A1DMXEJGJY02E1&assignmentId=3PZDLQMM0U724TF5PI1G3HKQUPMC2J&a=MLZP9&tp_a=MLZP9&b=3PZDLQMM0U724TF5PI1G3HKQUPMC2J&tp_b=3PZDLQMM0U724TF5PI1G3HKQUPMC2J&c=365799&tp_c=365799","heads":6,"tails":0,"studentIndex":17,"studentTrueHypers":{"a":8,"b":2},"studentGuess":0.875,"delta":0.07499999999999996,"totalExamples":6,"bonusSoFar":1.74},{"rt":3452,"response":{"heads":"4","tails":"1"},"type":"response","condition":"seqFeedback","trueTheta":0.8,"classrooms":["C","D"],"studentTrueClassroom":"D","exampleSet":"second","trial_type":"survey-html-form","trial_index":150,"time_elapsed":2592176,"internal_node_id":"0.0-141.0-0.0","params":{"nStudents":24,"maxFlips":30,"completionMinutes":45,"basePay":8,"maxBonus":9,"perTrialBonus":0.5,"perTrialBonusThreshold":0.05,"exampleCost":0.01},"classroomParams":{"A":{"a":1,"b":4},"B":{"a":4,"b":1},"C":{"a":2,"b":8},"D":{"a":8,"b":2}},"conditions":["nonSeqFull","nonSeqPartial","seqNoFeedback","seqFeedback"],"classroomPairings":[["A","B"],["C","D"]],"coinWeights":[0.2,0.5,0.8],"subjectId":"A1DMXEJGJY02E1","assignmentId":"3PZDLQMM0U724TF5PI1G3HKQUPMC2J","hitId":"3Z3R5YC0P3915KVY8X6BNRIWSQNFTT","url":"https://gershmanlab.com/experiments/alicia/teaching/experiment/?hitId=3Z3R5YC0P3915KVY8X6BNRIWSQNFTT&workerId=A1DMXEJGJY02E1&assignmentId=3PZDLQMM0U724TF5PI1G3HKQUPMC2J&a=MLZP9&tp_a=MLZP9&b=3PZDLQMM0U724TF5PI1G3HKQUPMC2J&tp_b=3PZDLQMM0U724TF5PI1G3HKQUPMC2J&c=365799&tp_c=365799","firstResponseHeads":6,"firstResponseTails":0,"secondResponseHeads":4,"secondResponseTails":1,"totalHeads":10,"totalTails":1,"studentIndex":17,"studentTrueHypers":{"a":8,"b":2},"studentGuess":0.8571428571428571,"delta":0.05714285714285705,"bonus":0,"bonusSoFar":1.74,"totalExamples":11},{"rt":4195,"response":{"heads":"0","tails":"3"},"type":"response","condition":"seqNoFeedback","trueTheta":0.2,"classrooms":["C","D"],"studentTrueClassroom":"C","exampleSet":"first","trial_type":"survey-html-form","trial_index":156,"time_elapsed":2609068,"internal_node_id":"0.0-147.0-0.0","params":{"nStudents":24,"maxFlips":30,"completionMinutes":45,"basePay":8,"maxBonus":9,"perTrialBonus":0.5,"perTrialBonusThreshold":0.05,"exampleCost":0.01},"classroomParams":{"A":{"a":1,"b":4},"B":{"a":4,"b":1},"C":{"a":2,"b":8},"D":{"a":8,"b":2}},"conditions":["nonSeqFull","nonSeqPartial","seqNoFeedback","seqFeedback"],"classroomPairings":[["A","B"],["C","D"]],"coinWeights":[0.2,0.5,0.8],"subjectId":"A1DMXEJGJY02E1","assignmentId":"3PZDLQMM0U724TF5PI1G3HKQUPMC2J","hitId":"3Z3R5YC0P3915KVY8X6BNRIWSQNFTT","url":"https://gershmanlab.com/experiments/alicia/teaching/experiment/?hitId=3Z3R5YC0P3915KVY8X6BNRIWSQNFTT&workerId=A1DMXEJGJY02E1&assignmentId=3PZDLQMM0U724TF5PI1G3HKQUPMC2J&a=MLZP9&tp_a=MLZP9&b=3PZDLQMM0U724TF5PI1G3HKQUPMC2J&tp_b=3PZDLQMM0U724TF5PI1G3HKQUPMC2J&c=365799&tp_c=365799","heads":0,"tails":3,"studentIndex":18,"studentTrueHypers":{"a":2,"b":8},"studentGuess":0.15384615384615385,"delta":0.046153846153846156,"totalExamples":3,"bonusSoFar":1.74},{"rt":5052,"response":{"heads":"0","tails":"2"},"type":"response","condition":"seqNoFeedback","trueTheta":0.2,"classrooms":["C","D"],"studentTrueClassroom":"C","exampleSet":"second","trial_type":"survey-html-form","trial_index":159,"time_elapsed":2620129,"internal_node_id":"0.0-150.0-0.0","params":{"nStudents":24,"maxFlips":30,"completionMinutes":45,"basePay":8,"maxBonus":9,"perTrialBonus":0.5,"perTrialBonusThreshold":0.05,"exampleCost":0.01},"classroomParams":{"A":{"a":1,"b":4},"B":{"a":4,"b":1},"C":{"a":2,"b":8},"D":{"a":8,"b":2}},"conditions":["nonSeqFull","nonSeqPartial","seqNoFeedback","seqFeedback"],"classroomPairings":[["A","B"],["C","D"]],"coinWeights":[0.2,0.5,0.8],"subjectId":"A1DMXEJGJY02E1","assignmentId":"3PZDLQMM0U724TF5PI1G3HKQUPMC2J","hitId":"3Z3R5YC0P3915KVY8X6BNRIWSQNFTT","url":"https://gershmanlab.com/experiments/alicia/teaching/experiment/?hitId=3Z3R5YC0P3915KVY8X6BNRIWSQNFTT&workerId=A1DMXEJGJY02E1&assignmentId=3PZDLQMM0U724TF5PI1G3HKQUPMC2J&a=MLZP9&tp_a=MLZP9&b=3PZDLQMM0U724TF5PI1G3HKQUPMC2J&tp_b=3PZDLQMM0U724TF5PI1G3HKQUPMC2J&c=365799&tp_c=365799","firstResponseHeads":0,"firstResponseTails":3,"secondResponseHeads":0,"secondResponseTails":2,"totalHeads":0,"totalTails":5,"studentIndex":18,"studentTrueHypers":{"a":2,"b":8},"studentGuess":0.13333333333333333,"delta":0.06666666666666668,"bonus":0,"bonusSoFar":1.74,"totalExamples":5},{"rt":10939,"response":{"heads":"10","tails":"20"},"type":"response","condition":"seqNoFeedback","trueTheta":0.2,"classrooms":["A","B"],"studentTrueClassroom":"A","exampleSet":"first","trial_type":"survey-html-form","trial_index":165,"time_elapsed":2646917,"internal_node_id":"0.0-156.0-0.0","params":{"nStudents":24,"maxFlips":30,"completionMinutes":45,"basePay":8,"maxBonus":9,"perTrialBonus":0.5,"perTrialBonusThreshold":0.05,"exampleCost":0.01},"classroomParams":{"A":{"a":1,"b":4},"B":{"a":4,"b":1},"C":{"a":2,"b":8},"D":{"a":8,"b":2}},"conditions":["nonSeqFull","nonSeqPartial","seqNoFeedback","seqFeedback"],"classroomPairings":[["A","B"],["C","D"]],"coinWeights":[0.2,0.5,0.8],"subjectId":"A1DMXEJGJY02E1","assignmentId":"3PZDLQMM0U724TF5PI1G3HKQUPMC2J","hitId":"3Z3R5YC0P3915KVY8X6BNRIWSQNFTT","url":"https://gershmanlab.com/experiments/alicia/teaching/experiment/?hitId=3Z3R5YC0P3915KVY8X6BNRIWSQNFTT&workerId=A1DMXEJGJY02E1&assignmentId=3PZDLQMM0U724TF5PI1G3HKQUPMC2J&a=MLZP9&tp_a=MLZP9&b=3PZDLQMM0U724TF5PI1G3HKQUPMC2J&tp_b=3PZDLQMM0U724TF5PI1G3HKQUPMC2J&c=365799&tp_c=365799","heads":10,"tails":20,"studentIndex":19,"studentTrueHypers":{"a":1,"b":4},"studentGuess":0.3142857142857143,"delta":0.11428571428571427,"totalExamples":30,"bonusSoFar":1.74},{"rt":2343,"response":{"heads":"0","tails":"20"},"type":"response","condition":"seqNoFeedback","trueTheta":0.2,"classrooms":["A","B"],"studentTrueClassroom":"A","exampleSet":"second","trial_type":"survey-html-form","trial_index":168,"time_elapsed":2657266,"internal_node_id":"0.0-159.0-0.0","params":{"nStudents":24,"maxFlips":30,"completionMinutes":45,"basePay":8,"maxBonus":9,"perTrialBonus":0.5,"perTrialBonusThreshold":0.05,"exampleCost":0.01},"classroomParams":{"A":{"a":1,"b":4},"B":{"a":4,"b":1},"C":{"a":2,"b":8},"D":{"a":8,"b":2}},"conditions":["nonSeqFull","nonSeqPartial","seqNoFeedback","seqFeedback"],"classroomPairings":[["A","B"],["C","D"]],"coinWeights":[0.2,0.5,0.8],"subjectId":"A1DMXEJGJY02E1","assignmentId":"3PZDLQMM0U724TF5PI1G3HKQUPMC2J","hitId":"3Z3R5YC0P3915KVY8X6BNRIWSQNFTT","url":"https://gershmanlab.com/experiments/alicia/teaching/experiment/?hitId=3Z3R5YC0P3915KVY8X6BNRIWSQNFTT&workerId=A1DMXEJGJY02E1&assignmentId=3PZDLQMM0U724TF5PI1G3HKQUPMC2J&a=MLZP9&tp_a=MLZP9&b=3PZDLQMM0U724TF5PI1G3HKQUPMC2J&tp_b=3PZDLQMM0U724TF5PI1G3HKQUPMC2J&c=365799&tp_c=365799","firstResponseHeads":10,"firstResponseTails":20,"secondResponseHeads":0,"secondResponseTails":20,"totalHeads":10,"totalTails":40,"studentIndex":19,"studentTrueHypers":{"a":1,"b":4},"studentGuess":0.2,"delta":0,"bonus":0,"bonusSoFar":1.74,"totalExamples":50},{"rt":5508,"response":{"heads":"5","tails":"20"},"type":"response","condition":"nonSeqPartial","trueTheta":0.2,"classrooms":["C","D"],"studentTrueClassroom":"C","exampleSet":"first","trial_type":"survey-html-form","trial_index":174,"time_elapsed":2677578,"internal_node_id":"0.0-165.0-0.0","params":{"nStudents":24,"maxFlips":30,"completionMinutes":45,"basePay":8,"maxBonus":9,"perTrialBonus":0.5,"perTrialBonusThreshold":0.05,"exampleCost":0.01},"classroomParams":{"A":{"a":1,"b":4},"B":{"a":4,"b":1},"C":{"a":2,"b":8},"D":{"a":8,"b":2}},"conditions":["nonSeqFull","nonSeqPartial","seqNoFeedback","seqFeedback"],"classroomPairings":[["A","B"],["C","D"]],"coinWeights":[0.2,0.5,0.8],"subjectId":"A1DMXEJGJY02E1","assignmentId":"3PZDLQMM0U724TF5PI1G3HKQUPMC2J","hitId":"3Z3R5YC0P3915KVY8X6BNRIWSQNFTT","url":"https://gershmanlab.com/experiments/alicia/teaching/experiment/?hitId=3Z3R5YC0P3915KVY8X6BNRIWSQNFTT&workerId=A1DMXEJGJY02E1&assignmentId=3PZDLQMM0U724TF5PI1G3HKQUPMC2J&a=MLZP9&tp_a=MLZP9&b=3PZDLQMM0U724TF5PI1G3HKQUPMC2J&tp_b=3PZDLQMM0U724TF5PI1G3HKQUPMC2J&c=365799&tp_c=365799","heads":5,"tails":20,"studentIndex":20,"studentTrueHypers":{"a":2,"b":8},"studentGuess":0.2,"delta":0,"totalExamples":25,"bonus":0.25,"bonusSoFar":1.99},{"rt":2015,"response":{"heads":"10","tails":"10"},"type":"response","condition":"nonSeqFull","trueTheta":0.5,"classrooms":["A","B"],"studentTrueClassroom":"B","exampleSet":"first","trial_type":"survey-html-form","trial_index":180,"time_elapsed":2691633,"internal_node_id":"0.0-171.0-0.0","params":{"nStudents":24,"maxFlips":30,"completionMinutes":45,"basePay":8,"maxBonus":9,"perTrialBonus":0.5,"perTrialBonusThreshold":0.05,"exampleCost":0.01},"classroomParams":{"A":{"a":1,"b":4},"B":{"a":4,"b":1},"C":{"a":2,"b":8},"D":{"a":8,"b":2}},"conditions":["nonSeqFull","nonSeqPartial","seqNoFeedback","seqFeedback"],"classroomPairings":[["A","B"],["C","D"]],"coinWeights":[0.2,0.5,0.8],"subjectId":"A1DMXEJGJY02E1","assignmentId":"3PZDLQMM0U724TF5PI1G3HKQUPMC2J","hitId":"3Z3R5YC0P3915KVY8X6BNRIWSQNFTT","url":"https://gershmanlab.com/experiments/alicia/teaching/experiment/?hitId=3Z3R5YC0P3915KVY8X6BNRIWSQNFTT&workerId=A1DMXEJGJY02E1&assignmentId=3PZDLQMM0U724TF5PI1G3HKQUPMC2J&a=MLZP9&tp_a=MLZP9&b=3PZDLQMM0U724TF5PI1G3HKQUPMC2J&tp_b=3PZDLQMM0U724TF5PI1G3HKQUPMC2J&c=365799&tp_c=365799","heads":10,"tails":10,"studentIndex":21,"studentTrueHypers":{"a":4,"b":1},"studentGuess":0.56,"delta":0.06000000000000005,"totalExamples":20,"bonus":0,"bonusSoFar":1.99},{"rt":1791,"response":{"heads":"15","tails":"15"},"type":"response","condition":"nonSeqPartial","trueTheta":0.5,"classrooms":["C","D"],"studentTrueClassroom":"D","exampleSet":"first","trial_type":"survey-html-form","trial_index":186,"time_elapsed":2704266,"internal_node_id":"0.0-177.0-0.0","params":{"nStudents":24,"maxFlips":30,"completionMinutes":45,"basePay":8,"maxBonus":9,"perTrialBonus":0.5,"perTrialBonusThreshold":0.05,"exampleCost":0.01},"classroomParams":{"A":{"a":1,"b":4},"B":{"a":4,"b":1},"C":{"a":2,"b":8},"D":{"a":8,"b":2}},"conditions":["nonSeqFull","nonSeqPartial","seqNoFeedback","seqFeedback"],"classroomPairings":[["A","B"],["C","D"]],"coinWeights":[0.2,0.5,0.8],"subjectId":"A1DMXEJGJY02E1","assignmentId":"3PZDLQMM0U724TF5PI1G3HKQUPMC2J","hitId":"3Z3R5YC0P3915KVY8X6BNRIWSQNFTT","url":"https://gershmanlab.com/experiments/alicia/teaching/experiment/?hitId=3Z3R5YC0P3915KVY8X6BNRIWSQNFTT&workerId=A1DMXEJGJY02E1&assignmentId=3PZDLQMM0U724TF5PI1G3HKQUPMC2J&a=MLZP9&tp_a=MLZP9&b=3PZDLQMM0U724TF5PI1G3HKQUPMC2J&tp_b=3PZDLQMM0U724TF5PI1G3HKQUPMC2J&c=365799&tp_c=365799","heads":15,"tails":15,"studentIndex":22,"studentTrueHypers":{"a":8,"b":2},"studentGuess":0.575,"delta":0.07499999999999996,"totalExamples":30,"bonus":0,"bonusSoFar":1.99},{"rt":2245,"response":{"heads":"10","tails":"2"},"type":"response","condition":"seqNoFeedback","trueTheta":0.8,"classrooms":["C","D"],"studentTrueClassroom":"D","exampleSet":"first","trial_type":"survey-html-form","trial_index":192,"time_elapsed":2719279,"internal_node_id":"0.0-183.0-0.0","params":{"nStudents":24,"maxFlips":30,"completionMinutes":45,"basePay":8,"maxBonus":9,"perTrialBonus":0.5,"perTrialBonusThreshold":0.05,"exampleCost":0.01},"classroomParams":{"A":{"a":1,"b":4},"B":{"a":4,"b":1},"C":{"a":2,"b":8},"D":{"a":8,"b":2}},"conditions":["nonSeqFull","nonSeqPartial","seqNoFeedback","seqFeedback"],"classroomPairings":[["A","B"],["C","D"]],"coinWeights":[0.2,0.5,0.8],"subjectId":"A1DMXEJGJY02E1","assignmentId":"3PZDLQMM0U724TF5PI1G3HKQUPMC2J","hitId":"3Z3R5YC0P3915KVY8X6BNRIWSQNFTT","url":"https://gershmanlab.com/experiments/alicia/teaching/experiment/?hitId=3Z3R5YC0P3915KVY8X6BNRIWSQNFTT&workerId=A1DMXEJGJY02E1&assignmentId=3PZDLQMM0U724TF5PI1G3HKQUPMC2J&a=MLZP9&tp_a=MLZP9&b=3PZDLQMM0U724TF5PI1G3HKQUPMC2J&tp_b=3PZDLQMM0U724TF5PI1G3HKQUPMC2J&c=365799&tp_c=365799","heads":10,"tails":2,"studentIndex":23,"studentTrueHypers":{"a":8,"b":2},"studentGuess":0.8181818181818182,"delta":0.018181818181818188,"totalExamples":12,"bonusSoFar":1.99},{"rt":2304,"response":{"heads":"10","tails":"2"},"type":"response","condition":"seqNoFeedback","trueTheta":0.8,"classrooms":["C","D"],"studentTrueClassroom":"D","exampleSet":"second","trial_type":"survey-html-form","trial_index":195,"time_elapsed":2728343,"internal_node_id":"0.0-186.0-0.0","params":{"nStudents":24,"maxFlips":30,"completionMinutes":45,"basePay":8,"maxBonus":9,"perTrialBonus":0.5,"perTrialBonusThreshold":0.05,"exampleCost":0.01},"classroomParams":{"A":{"a":1,"b":4},"B":{"a":4,"b":1},"C":{"a":2,"b":8},"D":{"a":8,"b":2}},"conditions":["nonSeqFull","nonSeqPartial","seqNoFeedback","seqFeedback"],"classroomPairings":[["A","B"],["C","D"]],"coinWeights":[0.2,0.5,0.8],"subjectId":"A1DMXEJGJY02E1","assignmentId":"3PZDLQMM0U724TF5PI1G3HKQUPMC2J","hitId":"3Z3R5YC0P3915KVY8X6BNRIWSQNFTT","url":"https://gershmanlab.com/experiments/alicia/teaching/experiment/?hitId=3Z3R5YC0P3915KVY8X6BNRIWSQNFTT&workerId=A1DMXEJGJY02E1&assignmentId=3PZDLQMM0U724TF5PI1G3HKQUPMC2J&a=MLZP9&tp_a=MLZP9&b=3PZDLQMM0U724TF5PI1G3HKQUPMC2J&tp_b=3PZDLQMM0U724TF5PI1G3HKQUPMC2J&c=365799&tp_c=365799","firstResponseHeads":10,"firstResponseTails":2,"secondResponseHeads":10,"secondResponseTails":2,"totalHeads":20,"totalTails":4,"studentIndex":23,"studentTrueHypers":{"a":8,"b":2},"studentGuess":0.8235294117647058,"delta":0.0235294117647058,"bonus":0.26,"bonusSoFar":2.25,"totalExamples":24},{"rt":5750,"response":{"gender":"female","age":"34","understood":"yes","comments":""},"type":"response","trial_type":"survey-html-form","trial_index":199,"time_elapsed":2742925,"internal_node_id":"0.0-191.0","params":{"nStudents":24,"maxFlips":30,"completionMinutes":45,"basePay":8,"maxBonus":9,"perTrialBonus":0.5,"perTrialBonusThreshold":0.05,"exampleCost":0.01},"classroomParams":{"A":{"a":1,"b":4},"B":{"a":4,"b":1},"C":{"a":2,"b":8},"D":{"a":8,"b":2}},"conditions":["nonSeqFull","nonSeqPartial","seqNoFeedback","seqFeedback"],"classroomPairings":[["A","B"],["C","D"]],"coinWeights":[0.2,0.5,0.8],"subjectId":"A1DMXEJGJY02E1","assignmentId":"3PZDLQMM0U724TF5PI1G3HKQUPMC2J","hitId":"3Z3R5YC0P3915KVY8X6BNRIWSQNFTT","url":"https://gershmanlab.com/experiments/alicia/teaching/experiment/?hitId=3Z3R5YC0P3915KVY8X6BNRIWSQNFTT&workerId=A1DMXEJGJY02E1&assignmentId=3PZDLQMM0U724TF5PI1G3HKQUPMC2J&a=MLZP9&tp_a=MLZP9&b=3PZDLQMM0U724TF5PI1G3HKQUPMC2J&tp_b=3PZDLQMM0U724TF5PI1G3HKQUPMC2J&c=365799&tp_c=365799","totalBonus":2.25}]