[{"rt":38466,"response":{"heads":"1","tails":"0"},"type":"response","condition":"seqFeedback","trueTheta":0.5,"classrooms":["A","B"],"studentTrueClassroom":"A","exampleSet":"first","trial_type":"survey-html-form","trial_index":7,"time_elapsed":298038,"internal_node_id":"0.0-6.0-0.0","params":{"nStudents":24,"maxFlips":30,"completionMinutes":45,"basePay":8,"maxBonus":9,"perTrialBonus":0.5,"perTrialBonusThreshold":0.05,"exampleCost":0.01},"classroomParams":{"A":{"a":1,"b":4},"B":{"a":4,"b":1},"C":{"a":2,"b":8},"D":{"a":8,"b":2}},"conditions":["nonSeqFull","nonSeqPartial","seqNoFeedback","seqFeedback"],"classroomPairings":[["A","B"],["C","D"]],"coinWeights":[0.2,0.5,0.8],"subjectId":"A1DUPOUC9RNU4L","assignmentId":"3VZLGYJEYMWGD2TC5L6H45F7GFNXZQ","hitId":"34XASH8KLQ89J2U8D314D7180O4PMV","url":"https://gershmanlab.com/experiments/alicia/teaching/experiment/?hitId=34XASH8KLQ89J2U8D314D7180O4PMV&workerId=A1DUPOUC9RNU4L&assignmentId=3VZLGYJEYMWGD2TC5L6H45F7GFNXZQ&a=EGZV7&tp_a=EGZV7&b=3VZLGYJEYMWGD2TC5L6H45F7GFNXZQ&tp_b=3VZLGYJEYMWGD2TC5L6H45F7GFNXZQ&c=365717&tp_c=365717","heads":1,"tails":0,"studentIndex":0,"studentTrueHypers":{"a":1,"b":4},"studentGuess":0.3333333333333333,"delta":0.16666666666666669,"totalExamples":1,"bonusSoFar":0},{"rt":14208,"response":{"heads":"2","tails":"0"},"type":"response","condition":"seqFeedback","trueTheta":0.5,"classrooms":["A","B"],"studentTrueClassroom":"A","exampleSet":"second","trial_type":"survey-html-form","trial_index":11,"time_elapsed":328816,"internal_node_id":"0.0-10.0-0.0","params":{"nStudents":24,"maxFlips":30,"completionMinutes":45,"basePay":8,"maxBonus":9,"perTrialBonus":0.5,"perTrialBonusThreshold":0.05,"exampleCost":0.01},"classroomParams":{"A":{"a":1,"b":4},"B":{"a":4,"b":1},"C":{"a":2,"b":8},"D":{"a":8,"b":2}},"conditions":["nonSeqFull","nonSeqPartial","seqNoFeedback","seqFeedback"],"classroomPairings":[["A","B"],["C","D"]],"coinWeights":[0.2,0.5,0.8],"subjectId":"A1DUPOUC9RNU4L","assignmentId":"3VZLGYJEYMWGD2TC5L6H45F7GFNXZQ","hitId":"34XASH8KLQ89J2U8D314D7180O4PMV","url":"https://gershmanlab.com/experiments/alicia/teaching/experiment/?hitId=34XASH8KLQ89J2U8D314D7180O4PMV&workerId=A1DUPOUC9RNU4L&assignmentId=3VZLGYJEYMWGD2TC5L6H45F7GFNXZQ&a=EGZV7&tp_a=EGZV7&b=3VZLGYJEYMWGD2TC5L6H45F7GFNXZQ&tp_b=3VZLGYJEYMWGD2TC5L6H45F7GFNXZQ&c=365717&tp_c=365717","firstResponseHeads":1,"firstResponseTails":0,"secondResponseHeads":2,"secondResponseTails":0,"totalHeads":3,"totalTails":0,"studentIndex":0,"studentTrueHypers":{"a":1,"b":4},"studentGuess":0.5,"delta":0,"bonus":0.47,"bonusSoFar":0.47,"totalExamples":3},{"rt":20895,"response":{"heads":"7","tails":"0"},"type":"response","condition":"nonSeqFull","trueTheta":0.8,"classrooms":["C","D"],"studentTrueClassroom":"C","exampleSet":"first","trial_type":"survey-html-form","trial_index":17,"time_elapsed":371515,"internal_node_id":"0.0-16.0-0.0","params":{"nStudents":24,"maxFlips":30,"completionMinutes":45,"basePay":8,"maxBonus":9,"perTrialBonus":0.5,"perTrialBonusThreshold":0.05,"exampleCost":0.01},"classroomParams":{"A":{"a":1,"b":4},"B":{"a":4,"b":1},"C":{"a":2,"b":8},"D":{"a":8,"b":2}},"conditions":["nonSeqFull","nonSeqPartial","seqNoFeedback","seqFeedback"],"classroomPairings":[["A","B"],["C","D"]],"coinWeights":[0.2,0.5,0.8],"subjectId":"A1DUPOUC9RNU4L","assignmentId":"3VZLGYJEYMWGD2TC5L6H45F7GFNXZQ","hitId":"34XASH8KLQ89J2U8D314D7180O4PMV","url":"https://gershmanlab.com/experiments/alicia/teaching/experiment/?hitId=34XASH8KLQ89J2U8D314D7180O4PMV&workerId=A1DUPOUC9RNU4L&assignmentId=3VZLGYJEYMWGD2TC5L6H45F7GFNXZQ&a=EGZV7&tp_a=EGZV7&b=3VZLGYJEYMWGD2TC5L6H45F7GFNXZQ&tp_b=3VZLGYJEYMWGD2TC5L6H45F7GFNXZQ&c=365717&tp_c=365717","heads":7,"tails":0,"studentIndex":1,"studentTrueHypers":{"a":2,"b":8},"studentGuess":0.5294117647058824,"delta":0.2705882352941177,"totalExamples":7,"bonus":0,"bonusSoFar":0.47},{"rt":20765,"response":{"heads":"5","tails":"0"},"type":"response","condition":"nonSeqPartial","trueTheta":0.8,"classrooms":["A","B"],"studentTrueClassroom":"B","exampleSet":"first","trial_type":"survey-html-form","trial_index":23,"time_elapsed":406333,"internal_node_id":"0.0-22.0-0.0","params":{"nStudents":24,"maxFlips":30,"completionMinutes":45,"basePay":8,"maxBonus":9,"perTrialBonus":0.5,"perTrialBonusThreshold":0.05,"exampleCost":0.01},"classroomParams":{"A":{"a":1,"b":4},"B":{"a":4,"b":1},"C":{"a":2,"b":8},"D":{"a":8,"b":2}},"conditions":["nonSeqFull","nonSeqPartial","seqNoFeedback","seqFeedback"],"classroomPairings":[["A","B"],["C","D"]],"coinWeights":[0.2,0.5,0.8],"subjectId":"A1DUPOUC9RNU4L","assignmentId":"3VZLGYJEYMWGD2TC5L6H45F7GFNXZQ","hitId":"34XASH8KLQ89J2U8D314D7180O4PMV","url":"https://gershmanlab.com/experiments/alicia/teaching/experiment/?hitId=34XASH8KLQ89J2U8D314D7180O4PMV&workerId=A1DUPOUC9RNU4L&assignmentId=3VZLGYJEYMWGD2TC5L6H45F7GFNXZQ&a=EGZV7&tp_a=EGZV7&b=3VZLGYJEYMWGD2TC5L6H45F7GFNXZQ&tp_b=3VZLGYJEYMWGD2TC5L6H45F7GFNXZQ&c=365717&tp_c=365717","heads":5,"tails":0,"studentIndex":2,"studentTrueHypers":{"a":4,"b":1},"studentGuess":0.9,"delta":0.09999999999999998,"totalExamples":5,"bonus":0,"bonusSoFar":0.47},{"rt":18287,"response":{"heads":"6","tails":"0"},"type":"response","condition":"seqFeedback","trueTheta":0.8,"classrooms":["A","B"],"studentTrueClassroom":"A","exampleSet":"first","trial_type":"survey-html-form","trial_index":29,"time_elapsed":446313,"internal_node_id":"0.0-28.0-0.0","params":{"nStudents":24,"maxFlips":30,"completionMinutes":45,"basePay":8,"maxBonus":9,"perTrialBonus":0.5,"perTrialBonusThreshold":0.05,"exampleCost":0.01},"classroomParams":{"A":{"a":1,"b":4},"B":{"a":4,"b":1},"C":{"a":2,"b":8},"D":{"a":8,"b":2}},"conditions":["nonSeqFull","nonSeqPartial","seqNoFeedback","seqFeedback"],"classroomPairings":[["A","B"],["C","D"]],"coinWeights":[0.2,0.5,0.8],"subjectId":"A1DUPOUC9RNU4L","assignmentId":"3VZLGYJEYMWGD2TC5L6H45F7GFNXZQ","hitId":"34XASH8KLQ89J2U8D314D7180O4PMV","url":"https://gershmanlab.com/experiments/alicia/teaching/experiment/?hitId=34XASH8KLQ89J2U8D314D7180O4PMV&workerId=A1DUPOUC9RNU4L&assignmentId=3VZLGYJEYMWGD2TC5L6H45F7GFNXZQ&a=EGZV7&tp_a=EGZV7&b=3VZLGYJEYMWGD2TC5L6H45F7GFNXZQ&tp_b=3VZLGYJEYMWGD2TC5L6H45F7GFNXZQ&c=365717&tp_c=365717","heads":6,"tails":0,"studentIndex":3,"studentTrueHypers":{"a":1,"b":4},"studentGuess":0.6363636363636364,"delta":0.1636363636363637,"totalExamples":6,"bonusSoFar":0.47},{"rt":4590,"response":{"heads":"7","tails":"0"},"type":"response","condition":"seqFeedback","trueTheta":0.8,"classrooms":["A","B"],"studentTrueClassroom":"A","exampleSet":"second","trial_type":"survey-html-form","trial_index":33,"time_elapsed":464301,"internal_node_id":"0.0-32.0-0.0","params":{"nStudents":24,"maxFlips":30,"completionMinutes":45,"basePay":8,"maxBonus":9,"perTrialBonus":0.5,"perTrialBonusThreshold":0.05,"exampleCost":0.01},"classroomParams":{"A":{"a":1,"b":4},"B":{"a":4,"b":1},"C":{"a":2,"b":8},"D":{"a":8,"b":2}},"conditions":["nonSeqFull","nonSeqPartial","seqNoFeedback","seqFeedback"],"classroomPairings":[["A","B"],["C","D"]],"coinWeights":[0.2,0.5,0.8],"subjectId":"A1DUPOUC9RNU4L","assignmentId":"3VZLGYJEYMWGD2TC5L6H45F7GFNXZQ","hitId":"34XASH8KLQ89J2U8D314D7180O4PMV","url":"https://gershmanlab.com/experiments/alicia/teaching/experiment/?hitId=34XASH8KLQ89J2U8D314D7180O4PMV&workerId=A1DUPOUC9RNU4L&assignmentId=3VZLGYJEYMWGD2TC5L6H45F7GFNXZQ&a=EGZV7&tp_a=EGZV7&b=3VZLGYJEYMWGD2TC5L6H45F7GFNXZQ&tp_b=3VZLGYJEYMWGD2TC5L6H45F7GFNXZQ&c=365717&tp_c=365717","firstResponseHeads":6,"firstResponseTails":0,"secondResponseHeads":7,"secondResponseTails":0,"totalHeads":13,"totalTails":0,"studentIndex":3,"studentTrueHypers":{"a":1,"b":4},"studentGuess":0.7777777777777778,"delta":0.022222222222222254,"bonus":0.37,"bonusSoFar":0.84,"totalExamples":13},{"rt":20223,"response":{"heads":"6","tails":"0"},"type":"response","condition":"nonSeqFull","trueTheta":0.5,"classrooms":["C","D"],"studentTrueClassroom":"C","exampleSet":"first","trial_type":"survey-html-form","trial_index":39,"time_elapsed":500315,"internal_node_id":"0.0-38.0-0.0","params":{"nStudents":24,"maxFlips":30,"completionMinutes":45,"basePay":8,"maxBonus":9,"perTrialBonus":0.5,"perTrialBonusThreshold":0.05,"exampleCost":0.01},"classroomParams":{"A":{"a":1,"b":4},"B":{"a":4,"b":1},"C":{"a":2,"b":8},"D":{"a":8,"b":2}},"conditions":["nonSeqFull","nonSeqPartial","seqNoFeedback","seqFeedback"],"classroomPairings":[["A","B"],["C","D"]],"coinWeights":[0.2,0.5,0.8],"subjectId":"A1DUPOUC9RNU4L","assignmentId":"3VZLGYJEYMWGD2TC5L6H45F7GFNXZQ","hitId":"34XASH8KLQ89J2U8D314D7180O4PMV","url":"https://gershmanlab.com/experiments/alicia/teaching/experiment/?hitId=34XASH8KLQ89J2U8D314D7180O4PMV&workerId=A1DUPOUC9RNU4L&assignmentId=3VZLGYJEYMWGD2TC5L6H45F7GFNXZQ&a=EGZV7&tp_a=EGZV7&b=3VZLGYJEYMWGD2TC5L6H45F7GFNXZQ&tp_b=3VZLGYJEYMWGD2TC5L6H45F7GFNXZQ&c=365717&tp_c=365717","heads":6,"tails":0,"studentIndex":4,"studentTrueHypers":{"a":2,"b":8},"studentGuess":0.5,"delta":0,"totalExamples":6,"bonus":0.44,"bonusSoFar":1.28},{"rt":19873,"response":{"heads":"0","tails":"5"},"type":"response","condition":"seqFeedback","trueTheta":0.2,"classrooms":["A","B"],"studentTrueClassroom":"A","exampleSet":"first","trial_type":"survey-html-form","trial_index":45,"time_elapsed":537637,"internal_node_id":"0.0-44.0-0.0","params":{"nStudents":24,"maxFlips":30,"completionMinutes":45,"basePay":8,"maxBonus":9,"perTrialBonus":0.5,"perTrialBonusThreshold":0.05,"exampleCost":0.01},"classroomParams":{"A":{"a":1,"b":4},"B":{"a":4,"b":1},"C":{"a":2,"b":8},"D":{"a":8,"b":2}},"conditions":["nonSeqFull","nonSeqPartial","seqNoFeedback","seqFeedback"],"classroomPairings":[["A","B"],["C","D"]],"coinWeights":[0.2,0.5,0.8],"subjectId":"A1DUPOUC9RNU4L","assignmentId":"3VZLGYJEYMWGD2TC5L6H45F7GFNXZQ","hitId":"34XASH8KLQ89J2U8D314D7180O4PMV","url":"https://gershmanlab.com/experiments/alicia/teaching/experiment/?hitId=34XASH8KLQ89J2U8D314D7180O4PMV&workerId=A1DUPOUC9RNU4L&assignmentId=3VZLGYJEYMWGD2TC5L6H45F7GFNXZQ&a=EGZV7&tp_a=EGZV7&b=3VZLGYJEYMWGD2TC5L6H45F7GFNXZQ&tp_b=3VZLGYJEYMWGD2TC5L6H45F7GFNXZQ&c=365717&tp_c=365717","heads":0,"tails":5,"studentIndex":5,"studentTrueHypers":{"a":1,"b":4},"studentGuess":0.1,"delta":0.1,"totalExamples":5,"bonusSoFar":1.28},{"rt":4014,"response":{"heads":"0","tails":"4"},"type":"response","condition":"seqFeedback","trueTheta":0.2,"classrooms":["A","B"],"studentTrueClassroom":"A","exampleSet":"second","trial_type":"survey-html-form","trial_index":49,"time_elapsed":552231,"internal_node_id":"0.0-48.0-0.0","params":{"nStudents":24,"maxFlips":30,"completionMinutes":45,"basePay":8,"maxBonus":9,"perTrialBonus":0.5,"perTrialBonusThreshold":0.05,"exampleCost":0.01},"classroomParams":{"A":{"a":1,"b":4},"B":{"a":4,"b":1},"C":{"a":2,"b":8},"D":{"a":8,"b":2}},"conditions":["nonSeqFull","nonSeqPartial","seqNoFeedback","seqFeedback"],"classroomPairings":[["A","B"],["C","D"]],"coinWeights":[0.2,0.5,0.8],"subjectId":"A1DUPOUC9RNU4L","assignmentId":"3VZLGYJEYMWGD2TC5L6H45F7GFNXZQ","hitId":"34XASH8KLQ89J2U8D314D7180O4PMV","url":"https://gershmanlab.com/experiments/alicia/teaching/experiment/?hitId=34XASH8KLQ89J2U8D314D7180O4PMV&workerId=A1DUPOUC9RNU4L&assignmentId=3VZLGYJEYMWGD2TC5L6H45F7GFNXZQ&a=EGZV7&tp_a=EGZV7&b=3VZLGYJEYMWGD2TC5L6H45F7GFNXZQ&tp_b=3VZLGYJEYMWGD2TC5L6H45F7GFNXZQ&c=365717&tp_c=365717","firstResponseHeads":0,"firstResponseTails":5,"secondResponseHeads":0,"secondResponseTails":4,"totalHeads":0,"totalTails":9,"studentIndex":5,"studentTrueHypers":{"a":1,"b":4},"studentGuess":0.07142857142857142,"delta":0.1285714285714286,"bonus":0,"bonusSoFar":1.28,"totalExamples":9},{"rt":20237,"response":{"heads":"7","tails":"0"},"type":"response","condition":"seqNoFeedback","trueTheta":0.8,"classrooms":["A","B"],"studentTrueClassroom":"B","exampleSet":"first","trial_type":"survey-html-form","trial_index":55,"time_elapsed":587627,"internal_node_id":"0.0-54.0-0.0","params":{"nStudents":24,"maxFlips":30,"completionMinutes":45,"basePay":8,"maxBonus":9,"perTrialBonus":0.5,"perTrialBonusThreshold":0.05,"exampleCost":0.01},"classroomParams":{"A":{"a":1,"b":4},"B":{"a":4,"b":1},"C":{"a":2,"b":8},"D":{"a":8,"b":2}},"conditions":["nonSeqFull","nonSeqPartial","seqNoFeedback","seqFeedback"],"classroomPairings":[["A","B"],["C","D"]],"coinWeights":[0.2,0.5,0.8],"subjectId":"A1DUPOUC9RNU4L","assignmentId":"3VZLGYJEYMWGD2TC5L6H45F7GFNXZQ","hitId":"34XASH8KLQ89J2U8D314D7180O4PMV","url":"https://gershmanlab.com/experiments/alicia/teaching/experiment/?hitId=34XASH8KLQ89J2U8D314D7180O4PMV&workerId=A1DUPOUC9RNU4L&assignmentId=3VZLGYJEYMWGD2TC5L6H45F7GFNXZQ&a=EGZV7&tp_a=EGZV7&b=3VZLGYJEYMWGD2TC5L6H45F7GFNXZQ&tp_b=3VZLGYJEYMWGD2TC5L6H45F7GFNXZQ&c=365717&tp_c=365717","heads":7,"tails":0,"studentIndex":6,"studentTrueHypers":{"a":4,"b":1},"studentGuess":0.9166666666666666,"delta":0.11666666666666659,"totalExamples":7,"bonusSoFar":1.28},{"rt":17241,"response":{"heads":"6","tails":"0"},"type":"response","condition":"seqNoFeedback","trueTheta":0.8,"classrooms":["A","B"],"studentTrueClassroom":"B","exampleSet":"second","trial_type":"survey-html-form","trial_index":58,"time_elapsed":611140,"internal_node_id":"0.0-57.0-0.0","params":{"nStudents":24,"maxFlips":30,"completionMinutes":45,"basePay":8,"maxBonus":9,"perTrialBonus":0.5,"perTrialBonusThreshold":0.05,"exampleCost":0.01},"classroomParams":{"A":{"a":1,"b":4},"B":{"a":4,"b":1},"C":{"a":2,"b":8},"D":{"a":8,"b":2}},"conditions":["nonSeqFull","nonSeqPartial","seqNoFeedback","seqFeedback"],"classroomPairings":[["A","B"],["C","D"]],"coinWeights":[0.2,0.5,0.8],"subjectId":"A1DUPOUC9RNU4L","assignmentId":"3VZLGYJEYMWGD2TC5L6H45F7GFNXZQ","hitId":"34XASH8KLQ89J2U8D314D7180O4PMV","url":"https://gershmanlab.com/experiments/alicia/teaching/experiment/?hitId=34XASH8KLQ89J2U8D314D7180O4PMV&workerId=A1DUPOUC9RNU4L&assignmentId=3VZLGYJEYMWGD2TC5L6H45F7GFNXZQ&a=EGZV7&tp_a=EGZV7&b=3VZLGYJEYMWGD2TC5L6H45F7GFNXZQ&tp_b=3VZLGYJEYMWGD2TC5L6H45F7GFNXZQ&c=365717&tp_c=365717","firstResponseHeads":7,"firstResponseTails":0,"secondResponseHeads":6,"secondResponseTails":0,"totalHeads":13,"totalTails":0,"studentIndex":6,"studentTrueHypers":{"a":4,"b":1},"studentGuess":0.9444444444444444,"delta":0.14444444444444438,"bonus":0,"bonusSoFar":1.28,"totalExamples":13},{"rt":41947,"response":{"heads":"6","tails":"6"},"type":"response","condition":"seqFeedback","trueTheta":0.5,"classrooms":["C","D"],"studentTrueClassroom":"D","exampleSet":"first","trial_type":"survey-html-form","trial_index":64,"time_elapsed":668138,"internal_node_id":"0.0-63.0-0.0","params":{"nStudents":24,"maxFlips":30,"completionMinutes":45,"basePay":8,"maxBonus":9,"perTrialBonus":0.5,"perTrialBonusThreshold":0.05,"exampleCost":0.01},"classroomParams":{"A":{"a":1,"b":4},"B":{"a":4,"b":1},"C":{"a":2,"b":8},"D":{"a":8,"b":2}},"conditions":["nonSeqFull","nonSeqPartial","seqNoFeedback","seqFeedback"],"classroomPairings":[["A","B"],["C","D"]],"coinWeights":[0.2,0.5,0.8],"subjectId":"A1DUPOUC9RNU4L","assignmentId":"3VZLGYJEYMWGD2TC5L6H45F7GFNXZQ","hitId":"34XASH8KLQ89J2U8D314D7180O4PMV","url":"https://gershmanlab.com/experiments/alicia/teaching/experiment/?hitId=34XASH8KLQ89J2U8D314D7180O4PMV&workerId=A1DUPOUC9RNU4L&assignmentId=3VZLGYJEYMWGD2TC5L6H45F7GFNXZQ&a=EGZV7&tp_a=EGZV7&b=3VZLGYJEYMWGD2TC5L6H45F7GFNXZQ&tp_b=3VZLGYJEYMWGD2TC5L6H45F7GFNXZQ&c=365717&tp_c=365717","heads":6,"tails":6,"studentIndex":7,"studentTrueHypers":{"a":8,"b":2},"studentGuess":0.6363636363636364,"delta":0.13636363636363635,"totalExamples":12,"bonusSoFar":1.28},{"rt":19305,"response":{"heads":"5","tails":"5"},"type":"response","condition":"seqFeedback","trueTheta":0.5,"classrooms":["C","D"],"studentTrueClassroom":"D","exampleSet":"second","trial_type":"survey-html-form","trial_index":68,"time_elapsed":698744,"internal_node_id":"0.0-67.0-0.0","params":{"nStudents":24,"maxFlips":30,"completionMinutes":45,"basePay":8,"maxBonus":9,"perTrialBonus":0.5,"perTrialBonusThreshold":0.05,"exampleCost":0.01},"classroomParams":{"A":{"a":1,"b":4},"B":{"a":4,"b":1},"C":{"a":2,"b":8},"D":{"a":8,"b":2}},"conditions":["nonSeqFull","nonSeqPartial","seqNoFeedback","seqFeedback"],"classroomPairings":[["A","B"],["C","D"]],"coinWeights":[0.2,0.5,0.8],"subjectId":"A1DUPOUC9RNU4L","assignmentId":"3VZLGYJEYMWGD2TC5L6H45F7GFNXZQ","hitId":"34XASH8KLQ89J2U8D314D7180O4PMV","url":"https://gershmanlab.com/experiments/alicia/teaching/experiment/?hitId=34XASH8KLQ89J2U8D314D7180O4PMV&workerId=A1DUPOUC9RNU4L&assignmentId=3VZLGYJEYMWGD2TC5L6H45F7GFNXZQ&a=EGZV7&tp_a=EGZV7&b=3VZLGYJEYMWGD2TC5L6H45F7GFNXZQ&tp_b=3VZLGYJEYMWGD2TC5L6H45F7GFNXZQ&c=365717&tp_c=365717","firstResponseHeads":6,"firstResponseTails":6,"secondResponseHeads":5,"secondResponseTails":5,"totalHeads":11,"totalTails":11,"studentIndex":7,"studentTrueHypers":{"a":8,"b":2},"studentGuess":0.59375,"delta":0.09375,"bonus":0,"bonusSoFar":1.28,"totalExamples":22},{"rt":23111,"response":{"heads":"3","tails":"0"},"type":"response","condition":"nonSeqFull","trueTheta":0.5,"classrooms":["A","B"],"studentTrueClassroom":"A","exampleSet":"first","trial_type":"survey-html-form","trial_index":74,"time_elapsed":733763,"internal_node_id":"0.0-73.0-0.0","params":{"nStudents":24,"maxFlips":30,"completionMinutes":45,"basePay":8,"maxBonus":9,"perTrialBonus":0.5,"perTrialBonusThreshold":0.05,"exampleCost":0.01},"classroomParams":{"A":{"a":1,"b":4},"B":{"a":4,"b":1},"C":{"a":2,"b":8},"D":{"a":8,"b":2}},"conditions":["nonSeqFull","nonSeqPartial","seqNoFeedback","seqFeedback"],"classroomPairings":[["A","B"],["C","D"]],"coinWeights":[0.2,0.5,0.8],"subjectId":"A1DUPOUC9RNU4L","assignmentId":"3VZLGYJEYMWGD2TC5L6H45F7GFNXZQ","hitId":"34XASH8KLQ89J2U8D314D7180O4PMV","url":"https://gershmanlab.com/experiments/alicia/teaching/experiment/?hitId=34XASH8KLQ89J2U8D314D7180O4PMV&workerId=A1DUPOUC9RNU4L&assignmentId=3VZLGYJEYMWGD2TC5L6H45F7GFNXZQ&a=EGZV7&tp_a=EGZV7&b=3VZLGYJEYMWGD2TC5L6H45F7GFNXZQ&tp_b=3VZLGYJEYMWGD2TC5L6H45F7GFNXZQ&c=365717&tp_c=365717","heads":3,"tails":0,"studentIndex":8,"studentTrueHypers":{"a":1,"b":4},"studentGuess":0.5,"delta":0,"totalExamples":3,"bonus":0.47,"bonusSoFar":1.75},{"rt":27819,"response":{"heads":"3","tails":"0"},"type":"response","condition":"nonSeqPartial","trueTheta":0.5,"classrooms":["A","B"],"studentTrueClassroom":"A","exampleSet":"first","trial_type":"survey-html-form","trial_index":80,"time_elapsed":776263,"internal_node_id":"0.0-79.0-0.0","params":{"nStudents":24,"maxFlips":30,"completionMinutes":45,"basePay":8,"maxBonus":9,"perTrialBonus":0.5,"perTrialBonusThreshold":0.05,"exampleCost":0.01},"classroomParams":{"A":{"a":1,"b":4},"B":{"a":4,"b":1},"C":{"a":2,"b":8},"D":{"a":8,"b":2}},"conditions":["nonSeqFull","nonSeqPartial","seqNoFeedback","seqFeedback"],"classroomPairings":[["A","B"],["C","D"]],"coinWeights":[0.2,0.5,0.8],"subjectId":"A1DUPOUC9RNU4L","assignmentId":"3VZLGYJEYMWGD2TC5L6H45F7GFNXZQ","hitId":"34XASH8KLQ89J2U8D314D7180O4PMV","url":"https://gershmanlab.com/experiments/alicia/teaching/experiment/?hitId=34XASH8KLQ89J2U8D314D7180O4PMV&workerId=A1DUPOUC9RNU4L&assignmentId=3VZLGYJEYMWGD2TC5L6H45F7GFNXZQ&a=EGZV7&tp_a=EGZV7&b=3VZLGYJEYMWGD2TC5L6H45F7GFNXZQ&tp_b=3VZLGYJEYMWGD2TC5L6H45F7GFNXZQ&c=365717&tp_c=365717","heads":3,"tails":0,"studentIndex":9,"studentTrueHypers":{"a":1,"b":4},"studentGuess":0.5,"delta":0,"totalExamples":3,"bonus":0.47,"bonusSoFar":2.22},{"rt":33375,"response":{"heads":"6","tails":"0"},"type":"response","condition":"nonSeqFull","trueTheta":0.8,"classrooms":["A","B"],"studentTrueClassroom":"A","exampleSet":"first","trial_type":"survey-html-form","trial_index":86,"time_elapsed":825349,"internal_node_id":"0.0-85.0-0.0","params":{"nStudents":24,"maxFlips":30,"completionMinutes":45,"basePay":8,"maxBonus":9,"perTrialBonus":0.5,"perTrialBonusThreshold":0.05,"exampleCost":0.01},"classroomParams":{"A":{"a":1,"b":4},"B":{"a":4,"b":1},"C":{"a":2,"b":8},"D":{"a":8,"b":2}},"conditions":["nonSeqFull","nonSeqPartial","seqNoFeedback","seqFeedback"],"classroomPairings":[["A","B"],["C","D"]],"coinWeights":[0.2,0.5,0.8],"subjectId":"A1DUPOUC9RNU4L","assignmentId":"3VZLGYJEYMWGD2TC5L6H45F7GFNXZQ","hitId":"34XASH8KLQ89J2U8D314D7180O4PMV","url":"https://gershmanlab.com/experiments/alicia/teaching/experiment/?hitId=34XASH8KLQ89J2U8D314D7180O4PMV&workerId=A1DUPOUC9RNU4L&assignmentId=3VZLGYJEYMWGD2TC5L6H45F7GFNXZQ&a=EGZV7&tp_a=EGZV7&b=3VZLGYJEYMWGD2TC5L6H45F7GFNXZQ&tp_b=3VZLGYJEYMWGD2TC5L6H45F7GFNXZQ&c=365717&tp_c=365717","heads":6,"tails":0,"studentIndex":10,"studentTrueHypers":{"a":1,"b":4},"studentGuess":0.6363636363636364,"delta":0.1636363636363637,"totalExamples":6,"bonus":0,"bonusSoFar":2.22},{"rt":14039,"response":{"heads":"0","tails":"3"},"type":"response","condition":"nonSeqPartial","trueTheta":0.2,"classrooms":["C","D"],"studentTrueClassroom":"C","exampleSet":"first","trial_type":"survey-html-form","trial_index":92,"time_elapsed":853066,"internal_node_id":"0.0-91.0-0.0","params":{"nStudents":24,"maxFlips":30,"completionMinutes":45,"basePay":8,"maxBonus":9,"perTrialBonus":0.5,"perTrialBonusThreshold":0.05,"exampleCost":0.01},"classroomParams":{"A":{"a":1,"b":4},"B":{"a":4,"b":1},"C":{"a":2,"b":8},"D":{"a":8,"b":2}},"conditions":["nonSeqFull","nonSeqPartial","seqNoFeedback","seqFeedback"],"classroomPairings":[["A","B"],["C","D"]],"coinWeights":[0.2,0.5,0.8],"subjectId":"A1DUPOUC9RNU4L","assignmentId":"3VZLGYJEYMWGD2TC5L6H45F7GFNXZQ","hitId":"34XASH8KLQ89J2U8D314D7180O4PMV","url":"https://gershmanlab.com/experiments/alicia/teaching/experiment/?hitId=34XASH8KLQ89J2U8D314D7180O4PMV&workerId=A1DUPOUC9RNU4L&assignmentId=3VZLGYJEYMWGD2TC5L6H45F7GFNXZQ&a=EGZV7&tp_a=EGZV7&b=3VZLGYJEYMWGD2TC5L6H45F7GFNXZQ&tp_b=3VZLGYJEYMWGD2TC5L6H45F7GFNXZQ&c=365717&tp_c=365717","heads":0,"tails":3,"studentIndex":11,"studentTrueHypers":{"a":2,"b":8},"studentGuess":0.15384615384615385,"delta":0.046153846153846156,"totalExamples":3,"bonus":0.47,"bonusSoFar":2.69},{"rt":13370,"response":{"heads":"0","tails":"7"},"type":"response","condition":"nonSeqFull","trueTheta":0.2,"classrooms":["A","B"],"studentTrueClassroom":"B","exampleSet":"first","trial_type":"survey-html-form","trial_index":98,"time_elapsed":881382,"internal_node_id":"0.0-97.0-0.0","params":{"nStudents":24,"maxFlips":30,"completionMinutes":45,"basePay":8,"maxBonus":9,"perTrialBonus":0.5,"perTrialBonusThreshold":0.05,"exampleCost":0.01},"classroomParams":{"A":{"a":1,"b":4},"B":{"a":4,"b":1},"C":{"a":2,"b":8},"D":{"a":8,"b":2}},"conditions":["nonSeqFull","nonSeqPartial","seqNoFeedback","seqFeedback"],"classroomPairings":[["A","B"],["C","D"]],"coinWeights":[0.2,0.5,0.8],"subjectId":"A1DUPOUC9RNU4L","assignmentId":"3VZLGYJEYMWGD2TC5L6H45F7GFNXZQ","hitId":"34XASH8KLQ89J2U8D314D7180O4PMV","url":"https://gershmanlab.com/experiments/alicia/teaching/experiment/?hitId=34XASH8KLQ89J2U8D314D7180O4PMV&workerId=A1DUPOUC9RNU4L&assignmentId=3VZLGYJEYMWGD2TC5L6H45F7GFNXZQ&a=EGZV7&tp_a=EGZV7&b=3VZLGYJEYMWGD2TC5L6H45F7GFNXZQ&tp_b=3VZLGYJEYMWGD2TC5L6H45F7GFNXZQ&c=365717&tp_c=365717","heads":0,"tails":7,"studentIndex":12,"studentTrueHypers":{"a":4,"b":1},"studentGuess":0.3333333333333333,"delta":0.1333333333333333,"totalExamples":7,"bonus":0,"bonusSoFar":2.69},{"rt":28665,"response":{"heads":"0","tails":"0"},"type":"response","condition":"seqNoFeedback","trueTheta":0.8,"classrooms":["C","D"],"studentTrueClassroom":"D","exampleSet":"first","trial_type":"survey-html-form","trial_index":104,"time_elapsed":1088781,"internal_node_id":"0.0-103.0-0.0","params":{"nStudents":24,"maxFlips":30,"completionMinutes":45,"basePay":8,"maxBonus":9,"perTrialBonus":0.5,"perTrialBonusThreshold":0.05,"exampleCost":0.01},"classroomParams":{"A":{"a":1,"b":4},"B":{"a":4,"b":1},"C":{"a":2,"b":8},"D":{"a":8,"b":2}},"conditions":["nonSeqFull","nonSeqPartial","seqNoFeedback","seqFeedback"],"classroomPairings":[["A","B"],["C","D"]],"coinWeights":[0.2,0.5,0.8],"subjectId":"A1DUPOUC9RNU4L","assignmentId":"3VZLGYJEYMWGD2TC5L6H45F7GFNXZQ","hitId":"34XASH8KLQ89J2U8D314D7180O4PMV","url":"https://gershmanlab.com/experiments/alicia/teaching/experiment/?hitId=34XASH8KLQ89J2U8D314D7180O4PMV&workerId=A1DUPOUC9RNU4L&assignmentId=3VZLGYJEYMWGD2TC5L6H45F7GFNXZQ&a=EGZV7&tp_a=EGZV7&b=3VZLGYJEYMWGD2TC5L6H45F7GFNXZQ&tp_b=3VZLGYJEYMWGD2TC5L6H45F7GFNXZQ&c=365717&tp_c=365717","heads":0,"tails":0,"studentIndex":13,"studentTrueHypers":{"a":8,"b":2},"studentGuess":0.8,"delta":0,"totalExamples":0,"bonusSoFar":2.69},{"rt":11152,"response":{"heads":"0","tails":"0"},"type":"response","condition":"seqNoFeedback","trueTheta":0.8,"classrooms":["C","D"],"studentTrueClassroom":"D","exampleSet":"first","trial_type":"survey-html-form","trial_index":105,"time_elapsed":1099935,"internal_node_id":"0.0-103.1-0.1","params":{"nStudents":24,"maxFlips":30,"completionMinutes":45,"basePay":8,"maxBonus":9,"perTrialBonus":0.5,"perTrialBonusThreshold":0.05,"exampleCost":0.01},"classroomParams":{"A":{"a":1,"b":4},"B":{"a":4,"b":1},"C":{"a":2,"b":8},"D":{"a":8,"b":2}},"conditions":["nonSeqFull","nonSeqPartial","seqNoFeedback","seqFeedback"],"classroomPairings":[["A","B"],["C","D"]],"coinWeights":[0.2,0.5,0.8],"subjectId":"A1DUPOUC9RNU4L","assignmentId":"3VZLGYJEYMWGD2TC5L6H45F7GFNXZQ","hitId":"34XASH8KLQ89J2U8D314D7180O4PMV","url":"https://gershmanlab.com/experiments/alicia/teaching/experiment/?hitId=34XASH8KLQ89J2U8D314D7180O4PMV&workerId=A1DUPOUC9RNU4L&assignmentId=3VZLGYJEYMWGD2TC5L6H45F7GFNXZQ&a=EGZV7&tp_a=EGZV7&b=3VZLGYJEYMWGD2TC5L6H45F7GFNXZQ&tp_b=3VZLGYJEYMWGD2TC5L6H45F7GFNXZQ&c=365717&tp_c=365717","heads":0,"tails":0,"studentIndex":13,"studentTrueHypers":{"a":8,"b":2},"studentGuess":0.8,"delta":0,"totalExamples":0,"bonusSoFar":2.69},{"rt":13848,"response":{"heads":"6","tails":"0"},"type":"response","condition":"seqNoFeedback","trueTheta":0.8,"classrooms":["C","D"],"studentTrueClassroom":"D","exampleSet":"first","trial_type":"survey-html-form","trial_index":106,"time_elapsed":1113785,"internal_node_id":"0.0-103.2-0.2","params":{"nStudents":24,"maxFlips":30,"completionMinutes":45,"basePay":8,"maxBonus":9,"perTrialBonus":0.5,"perTrialBonusThreshold":0.05,"exampleCost":0.01},"classroomParams":{"A":{"a":1,"b":4},"B":{"a":4,"b":1},"C":{"a":2,"b":8},"D":{"a":8,"b":2}},"conditions":["nonSeqFull","nonSeqPartial","seqNoFeedback","seqFeedback"],"classroomPairings":[["A","B"],["C","D"]],"coinWeights":[0.2,0.5,0.8],"subjectId":"A1DUPOUC9RNU4L","assignmentId":"3VZLGYJEYMWGD2TC5L6H45F7GFNXZQ","hitId":"34XASH8KLQ89J2U8D314D7180O4PMV","url":"https://gershmanlab.com/experiments/alicia/teaching/experiment/?hitId=34XASH8KLQ89J2U8D314D7180O4PMV&workerId=A1DUPOUC9RNU4L&assignmentId=3VZLGYJEYMWGD2TC5L6H45F7GFNXZQ&a=EGZV7&tp_a=EGZV7&b=3VZLGYJEYMWGD2TC5L6H45F7GFNXZQ&tp_b=3VZLGYJEYMWGD2TC5L6H45F7GFNXZQ&c=365717&tp_c=365717","heads":6,"tails":0,"studentIndex":13,"studentTrueHypers":{"a":8,"b":2},"studentGuess":0.875,"delta":0.07499999999999996,"totalExamples":6,"bonusSoFar":2.69},{"rt":9209,"response":{"heads":"6","tails":"0"},"type":"response","condition":"seqNoFeedback","trueTheta":0.8,"classrooms":["C","D"],"studentTrueClassroom":"D","exampleSet":"second","trial_type":"survey-html-form","trial_index":109,"time_elapsed":1129021,"internal_node_id":"0.0-106.0-0.0","params":{"nStudents":24,"maxFlips":30,"completionMinutes":45,"basePay":8,"maxBonus":9,"perTrialBonus":0.5,"perTrialBonusThreshold":0.05,"exampleCost":0.01},"classroomParams":{"A":{"a":1,"b":4},"B":{"a":4,"b":1},"C":{"a":2,"b":8},"D":{"a":8,"b":2}},"conditions":["nonSeqFull","nonSeqPartial","seqNoFeedback","seqFeedback"],"classroomPairings":[["A","B"],["C","D"]],"coinWeights":[0.2,0.5,0.8],"subjectId":"A1DUPOUC9RNU4L","assignmentId":"3VZLGYJEYMWGD2TC5L6H45F7GFNXZQ","hitId":"34XASH8KLQ89J2U8D314D7180O4PMV","url":"https://gershmanlab.com/experiments/alicia/teaching/experiment/?hitId=34XASH8KLQ89J2U8D314D7180O4PMV&workerId=A1DUPOUC9RNU4L&assignmentId=3VZLGYJEYMWGD2TC5L6H45F7GFNXZQ&a=EGZV7&tp_a=EGZV7&b=3VZLGYJEYMWGD2TC5L6H45F7GFNXZQ&tp_b=3VZLGYJEYMWGD2TC5L6H45F7GFNXZQ&c=365717&tp_c=365717","firstResponseHeads":0,"firstResponseTails":0,"secondResponseHeads":6,"secondResponseTails":0,"totalHeads":6,"totalTails":0,"studentIndex":13,"studentTrueHypers":{"a":8,"b":2},"studentGuess":0.875,"delta":0.07499999999999996,"bonus":0,"bonusSoFar":2.69,"totalExamples":6},{"rt":10993,"response":{"heads":"0","tails":"6"},"type":"response","condition":"seqFeedback","trueTheta":0.2,"classrooms":["C","D"],"studentTrueClassroom":"C","exampleSet":"first","trial_type":"survey-html-form","trial_index":115,"time_elapsed":1156333,"internal_node_id":"0.0-112.0-0.0","params":{"nStudents":24,"maxFlips":30,"completionMinutes":45,"basePay":8,"maxBonus":9,"perTrialBonus":0.5,"perTrialBonusThreshold":0.05,"exampleCost":0.01},"classroomParams":{"A":{"a":1,"b":4},"B":{"a":4,"b":1},"C":{"a":2,"b":8},"D":{"a":8,"b":2}},"conditions":["nonSeqFull","nonSeqPartial","seqNoFeedback","seqFeedback"],"classroomPairings":[["A","B"],["C","D"]],"coinWeights":[0.2,0.5,0.8],"subjectId":"A1DUPOUC9RNU4L","assignmentId":"3VZLGYJEYMWGD2TC5L6H45F7GFNXZQ","hitId":"34XASH8KLQ89J2U8D314D7180O4PMV","url":"https://gershmanlab.com/experiments/alicia/teaching/experiment/?hitId=34XASH8KLQ89J2U8D314D7180O4PMV&workerId=A1DUPOUC9RNU4L&assignmentId=3VZLGYJEYMWGD2TC5L6H45F7GFNXZQ&a=EGZV7&tp_a=EGZV7&b=3VZLGYJEYMWGD2TC5L6H45F7GFNXZQ&tp_b=3VZLGYJEYMWGD2TC5L6H45F7GFNXZQ&c=365717&tp_c=365717","heads":0,"tails":6,"studentIndex":14,"studentTrueHypers":{"a":2,"b":8},"studentGuess":0.125,"delta":0.07500000000000001,"totalExamples":6,"bonusSoFar":2.69},{"rt":4681,"response":{"heads":"0","tails":"7"},"type":"response","condition":"seqFeedback","trueTheta":0.2,"classrooms":["C","D"],"studentTrueClassroom":"C","exampleSet":"second","trial_type":"survey-html-form","trial_index":119,"time_elapsed":1173333,"internal_node_id":"0.0-116.0-0.0","params":{"nStudents":24,"maxFlips":30,"completionMinutes":45,"basePay":8,"maxBonus":9,"perTrialBonus":0.5,"perTrialBonusThreshold":0.05,"exampleCost":0.01},"classroomParams":{"A":{"a":1,"b":4},"B":{"a":4,"b":1},"C":{"a":2,"b":8},"D":{"a":8,"b":2}},"conditions":["nonSeqFull","nonSeqPartial","seqNoFeedback","seqFeedback"],"classroomPairings":[["A","B"],["C","D"]],"coinWeights":[0.2,0.5,0.8],"subjectId":"A1DUPOUC9RNU4L","assignmentId":"3VZLGYJEYMWGD2TC5L6H45F7GFNXZQ","hitId":"34XASH8KLQ89J2U8D314D7180O4PMV","url":"https://gershmanlab.com/experiments/alicia/teaching/experiment/?hitId=34XASH8KLQ89J2U8D314D7180O4PMV&workerId=A1DUPOUC9RNU4L&assignmentId=3VZLGYJEYMWGD2TC5L6H45F7GFNXZQ&a=EGZV7&tp_a=EGZV7&b=3VZLGYJEYMWGD2TC5L6H45F7GFNXZQ&tp_b=3VZLGYJEYMWGD2TC5L6H45F7GFNXZQ&c=365717&tp_c=365717","firstResponseHeads":0,"firstResponseTails":6,"secondResponseHeads":0,"secondResponseTails":7,"totalHeads":0,"totalTails":13,"studentIndex":14,"studentTrueHypers":{"a":2,"b":8},"studentGuess":0.08695652173913043,"delta":0.11304347826086958,"bonus":0,"bonusSoFar":2.69,"totalExamples":13},{"rt":11083,"response":{"heads":"1","tails":"0"},"type":"response","condition":"nonSeqFull","trueTheta":0.2,"classrooms":["C","D"],"studentTrueClassroom":"C","exampleSet":"first","trial_type":"survey-html-form","trial_index":125,"time_elapsed":1197785,"internal_node_id":"0.0-122.0-0.0","params":{"nStudents":24,"maxFlips":30,"completionMinutes":45,"basePay":8,"maxBonus":9,"perTrialBonus":0.5,"perTrialBonusThreshold":0.05,"exampleCost":0.01},"classroomParams":{"A":{"a":1,"b":4},"B":{"a":4,"b":1},"C":{"a":2,"b":8},"D":{"a":8,"b":2}},"conditions":["nonSeqFull","nonSeqPartial","seqNoFeedback","seqFeedback"],"classroomPairings":[["A","B"],["C","D"]],"coinWeights":[0.2,0.5,0.8],"subjectId":"A1DUPOUC9RNU4L","assignmentId":"3VZLGYJEYMWGD2TC5L6H45F7GFNXZQ","hitId":"34XASH8KLQ89J2U8D314D7180O4PMV","url":"https://gershmanlab.com/experiments/alicia/teaching/experiment/?hitId=34XASH8KLQ89J2U8D314D7180O4PMV&workerId=A1DUPOUC9RNU4L&assignmentId=3VZLGYJEYMWGD2TC5L6H45F7GFNXZQ&a=EGZV7&tp_a=EGZV7&b=3VZLGYJEYMWGD2TC5L6H45F7GFNXZQ&tp_b=3VZLGYJEYMWGD2TC5L6H45F7GFNXZQ&c=365717&tp_c=365717","heads":1,"tails":0,"studentIndex":15,"studentTrueHypers":{"a":2,"b":8},"studentGuess":0.2727272727272727,"delta":0.0727272727272727,"totalExamples":1,"bonus":0,"bonusSoFar":2.69},{"rt":30797,"response":{"heads":"4","tails":"4"},"type":"response","condition":"nonSeqPartial","trueTheta":0.5,"classrooms":["C","D"],"studentTrueClassroom":"C","exampleSet":"first","trial_type":"survey-html-form","trial_index":131,"time_elapsed":1241392,"internal_node_id":"0.0-128.0-0.0","params":{"nStudents":24,"maxFlips":30,"completionMinutes":45,"basePay":8,"maxBonus":9,"perTrialBonus":0.5,"perTrialBonusThreshold":0.05,"exampleCost":0.01},"classroomParams":{"A":{"a":1,"b":4},"B":{"a":4,"b":1},"C":{"a":2,"b":8},"D":{"a":8,"b":2}},"conditions":["nonSeqFull","nonSeqPartial","seqNoFeedback","seqFeedback"],"classroomPairings":[["A","B"],["C","D"]],"coinWeights":[0.2,0.5,0.8],"subjectId":"A1DUPOUC9RNU4L","assignmentId":"3VZLGYJEYMWGD2TC5L6H45F7GFNXZQ","hitId":"34XASH8KLQ89J2U8D314D7180O4PMV","url":"https://gershmanlab.com/experiments/alicia/teaching/experiment/?hitId=34XASH8KLQ89J2U8D314D7180O4PMV&workerId=A1DUPOUC9RNU4L&assignmentId=3VZLGYJEYMWGD2TC5L6H45F7GFNXZQ&a=EGZV7&tp_a=EGZV7&b=3VZLGYJEYMWGD2TC5L6H45F7GFNXZQ&tp_b=3VZLGYJEYMWGD2TC5L6H45F7GFNXZQ&c=365717&tp_c=365717","heads":4,"tails":4,"studentIndex":16,"studentTrueHypers":{"a":2,"b":8},"studentGuess":0.3333333333333333,"delta":0.16666666666666669,"totalExamples":8,"bonus":0,"bonusSoFar":2.69},{"rt":15759,"response":{"heads":"6","tails":"0"},"type":"response","condition":"nonSeqPartial","trueTheta":0.8,"classrooms":["C","D"],"studentTrueClassroom":"D","exampleSet":"first","trial_type":"survey-html-form","trial_index":137,"time_elapsed":1270068,"internal_node_id":"0.0-134.0-0.0","params":{"nStudents":24,"maxFlips":30,"completionMinutes":45,"basePay":8,"maxBonus":9,"perTrialBonus":0.5,"perTrialBonusThreshold":0.05,"exampleCost":0.01},"classroomParams":{"A":{"a":1,"b":4},"B":{"a":4,"b":1},"C":{"a":2,"b":8},"D":{"a":8,"b":2}},"conditions":["nonSeqFull","nonSeqPartial","seqNoFeedback","seqFeedback"],"classroomPairings":[["A","B"],["C","D"]],"coinWeights":[0.2,0.5,0.8],"subjectId":"A1DUPOUC9RNU4L","assignmentId":"3VZLGYJEYMWGD2TC5L6H45F7GFNXZQ","hitId":"34XASH8KLQ89J2U8D314D7180O4PMV","url":"https://gershmanlab.com/experiments/alicia/teaching/experiment/?hitId=34XASH8KLQ89J2U8D314D7180O4PMV&workerId=A1DUPOUC9RNU4L&assignmentId=3VZLGYJEYMWGD2TC5L6H45F7GFNXZQ&a=EGZV7&tp_a=EGZV7&b=3VZLGYJEYMWGD2TC5L6H45F7GFNXZQ&tp_b=3VZLGYJEYMWGD2TC5L6H45F7GFNXZQ&c=365717&tp_c=365717","heads":6,"tails":0,"studentIndex":17,"studentTrueHypers":{"a":8,"b":2},"studentGuess":0.875,"delta":0.07499999999999996,"totalExamples":6,"bonus":0,"bonusSoFar":2.69},{"rt":6851,"response":{"heads":"0","tails":"1"},"type":"response","condition":"seqNoFeedback","trueTheta":0.2,"classrooms":["A","B"],"studentTrueClassroom":"B","exampleSet":"first","trial_type":"survey-html-form","trial_index":143,"time_elapsed":1289346,"internal_node_id":"0.0-140.0-0.0","params":{"nStudents":24,"maxFlips":30,"completionMinutes":45,"basePay":8,"maxBonus":9,"perTrialBonus":0.5,"perTrialBonusThreshold":0.05,"exampleCost":0.01},"classroomParams":{"A":{"a":1,"b":4},"B":{"a":4,"b":1},"C":{"a":2,"b":8},"D":{"a":8,"b":2}},"conditions":["nonSeqFull","nonSeqPartial","seqNoFeedback","seqFeedback"],"classroomPairings":[["A","B"],["C","D"]],"coinWeights":[0.2,0.5,0.8],"subjectId":"A1DUPOUC9RNU4L","assignmentId":"3VZLGYJEYMWGD2TC5L6H45F7GFNXZQ","hitId":"34XASH8KLQ89J2U8D314D7180O4PMV","url":"https://gershmanlab.com/experiments/alicia/teaching/experiment/?hitId=34XASH8KLQ89J2U8D314D7180O4PMV&workerId=A1DUPOUC9RNU4L&assignmentId=3VZLGYJEYMWGD2TC5L6H45F7GFNXZQ&a=EGZV7&tp_a=EGZV7&b=3VZLGYJEYMWGD2TC5L6H45F7GFNXZQ&tp_b=3VZLGYJEYMWGD2TC5L6H45F7GFNXZQ&c=365717&tp_c=365717","heads":0,"tails":1,"studentIndex":18,"studentTrueHypers":{"a":4,"b":1},"studentGuess":0.6666666666666666,"delta":0.4666666666666666,"totalExamples":1,"bonusSoFar":2.69},{"rt":3714,"response":{"heads":"0","tails":"1"},"type":"response","condition":"seqNoFeedback","trueTheta":0.2,"classrooms":["A","B"],"studentTrueClassroom":"B","exampleSet":"second","trial_type":"survey-html-form","trial_index":146,"time_elapsed":1299829,"internal_node_id":"0.0-143.0-0.0","params":{"nStudents":24,"maxFlips":30,"completionMinutes":45,"basePay":8,"maxBonus":9,"perTrialBonus":0.5,"perTrialBonusThreshold":0.05,"exampleCost":0.01},"classroomParams":{"A":{"a":1,"b":4},"B":{"a":4,"b":1},"C":{"a":2,"b":8},"D":{"a":8,"b":2}},"conditions":["nonSeqFull","nonSeqPartial","seqNoFeedback","seqFeedback"],"classroomPairings":[["A","B"],["C","D"]],"coinWeights":[0.2,0.5,0.8],"subjectId":"A1DUPOUC9RNU4L","assignmentId":"3VZLGYJEYMWGD2TC5L6H45F7GFNXZQ","hitId":"34XASH8KLQ89J2U8D314D7180O4PMV","url":"https://gershmanlab.com/experiments/alicia/teaching/experiment/?hitId=34XASH8KLQ89J2U8D314D7180O4PMV&workerId=A1DUPOUC9RNU4L&assignmentId=3VZLGYJEYMWGD2TC5L6H45F7GFNXZQ&a=EGZV7&tp_a=EGZV7&b=3VZLGYJEYMWGD2TC5L6H45F7GFNXZQ&tp_b=3VZLGYJEYMWGD2TC5L6H45F7GFNXZQ&c=365717&tp_c=365717","firstResponseHeads":0,"firstResponseTails":1,"secondResponseHeads":0,"secondResponseTails":1,"totalHeads":0,"totalTails":2,"studentIndex":18,"studentTrueHypers":{"a":4,"b":1},"studentGuess":0.5714285714285714,"delta":0.3714285714285714,"bonus":0,"bonusSoFar":2.69,"totalExamples":2},{"rt":21727,"response":{"heads":"0","tails":"1"},"type":"response","condition":"nonSeqPartial","trueTheta":0.2,"classrooms":["A","B"],"studentTrueClassroom":"B","exampleSet":"first","trial_type":"survey-html-form","trial_index":152,"time_elapsed":1332246,"internal_node_id":"0.0-149.0-0.0","params":{"nStudents":24,"maxFlips":30,"completionMinutes":45,"basePay":8,"maxBonus":9,"perTrialBonus":0.5,"perTrialBonusThreshold":0.05,"exampleCost":0.01},"classroomParams":{"A":{"a":1,"b":4},"B":{"a":4,"b":1},"C":{"a":2,"b":8},"D":{"a":8,"b":2}},"conditions":["nonSeqFull","nonSeqPartial","seqNoFeedback","seqFeedback"],"classroomPairings":[["A","B"],["C","D"]],"coinWeights":[0.2,0.5,0.8],"subjectId":"A1DUPOUC9RNU4L","assignmentId":"3VZLGYJEYMWGD2TC5L6H45F7GFNXZQ","hitId":"34XASH8KLQ89J2U8D314D7180O4PMV","url":"https://gershmanlab.com/experiments/alicia/teaching/experiment/?hitId=34XASH8KLQ89J2U8D314D7180O4PMV&workerId=A1DUPOUC9RNU4L&assignmentId=3VZLGYJEYMWGD2TC5L6H45F7GFNXZQ&a=EGZV7&tp_a=EGZV7&b=3VZLGYJEYMWGD2TC5L6H45F7GFNXZQ&tp_b=3VZLGYJEYMWGD2TC5L6H45F7GFNXZQ&c=365717&tp_c=365717","heads":0,"tails":1,"studentIndex":19,"studentTrueHypers":{"a":4,"b":1},"studentGuess":0.6666666666666666,"delta":0.4666666666666666,"totalExamples":1,"bonus":0,"bonusSoFar":2.69},{"rt":15151,"response":{"heads":"0","tails":"2"},"type":"response","condition":"seqNoFeedback","trueTheta":0.2,"classrooms":["C","D"],"studentTrueClassroom":"D","exampleSet":"first","trial_type":"survey-html-form","trial_index":158,"time_elapsed":1359870,"internal_node_id":"0.0-155.0-0.0","params":{"nStudents":24,"maxFlips":30,"completionMinutes":45,"basePay":8,"maxBonus":9,"perTrialBonus":0.5,"perTrialBonusThreshold":0.05,"exampleCost":0.01},"classroomParams":{"A":{"a":1,"b":4},"B":{"a":4,"b":1},"C":{"a":2,"b":8},"D":{"a":8,"b":2}},"conditions":["nonSeqFull","nonSeqPartial","seqNoFeedback","seqFeedback"],"classroomPairings":[["A","B"],["C","D"]],"coinWeights":[0.2,0.5,0.8],"subjectId":"A1DUPOUC9RNU4L","assignmentId":"3VZLGYJEYMWGD2TC5L6H45F7GFNXZQ","hitId":"34XASH8KLQ89J2U8D314D7180O4PMV","url":"https://gershmanlab.com/experiments/alicia/teaching/experiment/?hitId=34XASH8KLQ89J2U8D314D7180O4PMV&workerId=A1DUPOUC9RNU4L&assignmentId=3VZLGYJEYMWGD2TC5L6H45F7GFNXZQ&a=EGZV7&tp_a=EGZV7&b=3VZLGYJEYMWGD2TC5L6H45F7GFNXZQ&tp_b=3VZLGYJEYMWGD2TC5L6H45F7GFNXZQ&c=365717&tp_c=365717","heads":0,"tails":2,"studentIndex":20,"studentTrueHypers":{"a":8,"b":2},"studentGuess":0.6666666666666666,"delta":0.4666666666666666,"totalExamples":2,"bonusSoFar":2.69},{"rt":14396,"response":{"heads":"0","tails":"6"},"type":"response","condition":"seqNoFeedback","trueTheta":0.2,"classrooms":["C","D"],"studentTrueClassroom":"D","exampleSet":"second","trial_type":"survey-html-form","trial_index":161,"time_elapsed":1382295,"internal_node_id":"0.0-158.0-0.0","params":{"nStudents":24,"maxFlips":30,"completionMinutes":45,"basePay":8,"maxBonus":9,"perTrialBonus":0.5,"perTrialBonusThreshold":0.05,"exampleCost":0.01},"classroomParams":{"A":{"a":1,"b":4},"B":{"a":4,"b":1},"C":{"a":2,"b":8},"D":{"a":8,"b":2}},"conditions":["nonSeqFull","nonSeqPartial","seqNoFeedback","seqFeedback"],"classroomPairings":[["A","B"],["C","D"]],"coinWeights":[0.2,0.5,0.8],"subjectId":"A1DUPOUC9RNU4L","assignmentId":"3VZLGYJEYMWGD2TC5L6H45F7GFNXZQ","hitId":"34XASH8KLQ89J2U8D314D7180O4PMV","url":"https://gershmanlab.com/experiments/alicia/teaching/experiment/?hitId=34XASH8KLQ89J2U8D314D7180O4PMV&workerId=A1DUPOUC9RNU4L&assignmentId=3VZLGYJEYMWGD2TC5L6H45F7GFNXZQ&a=EGZV7&tp_a=EGZV7&b=3VZLGYJEYMWGD2TC5L6H45F7GFNXZQ&tp_b=3VZLGYJEYMWGD2TC5L6H45F7GFNXZQ&c=365717&tp_c=365717","firstResponseHeads":0,"firstResponseTails":2,"secondResponseHeads":0,"secondResponseTails":6,"totalHeads":0,"totalTails":8,"studentIndex":20,"studentTrueHypers":{"a":8,"b":2},"studentGuess":0.4444444444444444,"delta":0.2444444444444444,"bonus":0,"bonusSoFar":2.69,"totalExamples":8},{"rt":10635,"response":{"heads":"4","tails":"0"},"type":"response","condition":"seqNoFeedback","trueTheta":0.5,"classrooms":["A","B"],"studentTrueClassroom":"B","exampleSet":"first","trial_type":"survey-html-form","trial_index":167,"time_elapsed":1408629,"internal_node_id":"0.0-164.0-0.0","params":{"nStudents":24,"maxFlips":30,"completionMinutes":45,"basePay":8,"maxBonus":9,"perTrialBonus":0.5,"perTrialBonusThreshold":0.05,"exampleCost":0.01},"classroomParams":{"A":{"a":1,"b":4},"B":{"a":4,"b":1},"C":{"a":2,"b":8},"D":{"a":8,"b":2}},"conditions":["nonSeqFull","nonSeqPartial","seqNoFeedback","seqFeedback"],"classroomPairings":[["A","B"],["C","D"]],"coinWeights":[0.2,0.5,0.8],"subjectId":"A1DUPOUC9RNU4L","assignmentId":"3VZLGYJEYMWGD2TC5L6H45F7GFNXZQ","hitId":"34XASH8KLQ89J2U8D314D7180O4PMV","url":"https://gershmanlab.com/experiments/alicia/teaching/experiment/?hitId=34XASH8KLQ89J2U8D314D7180O4PMV&workerId=A1DUPOUC9RNU4L&assignmentId=3VZLGYJEYMWGD2TC5L6H45F7GFNXZQ&a=EGZV7&tp_a=EGZV7&b=3VZLGYJEYMWGD2TC5L6H45F7GFNXZQ&tp_b=3VZLGYJEYMWGD2TC5L6H45F7GFNXZQ&c=365717&tp_c=365717","heads":4,"tails":0,"studentIndex":21,"studentTrueHypers":{"a":4,"b":1},"studentGuess":0.8888888888888888,"delta":0.38888888888888884,"totalExamples":4,"bonusSoFar":2.69},{"rt":11060,"response":{"heads":"3","tails":"0"},"type":"response","condition":"seqNoFeedback","trueTheta":0.5,"classrooms":["A","B"],"studentTrueClassroom":"B","exampleSet":"second","trial_type":"survey-html-form","trial_index":170,"time_elapsed":1427211,"internal_node_id":"0.0-167.0-0.0","params":{"nStudents":24,"maxFlips":30,"completionMinutes":45,"basePay":8,"maxBonus":9,"perTrialBonus":0.5,"perTrialBonusThreshold":0.05,"exampleCost":0.01},"classroomParams":{"A":{"a":1,"b":4},"B":{"a":4,"b":1},"C":{"a":2,"b":8},"D":{"a":8,"b":2}},"conditions":["nonSeqFull","nonSeqPartial","seqNoFeedback","seqFeedback"],"classroomPairings":[["A","B"],["C","D"]],"coinWeights":[0.2,0.5,0.8],"subjectId":"A1DUPOUC9RNU4L","assignmentId":"3VZLGYJEYMWGD2TC5L6H45F7GFNXZQ","hitId":"34XASH8KLQ89J2U8D314D7180O4PMV","url":"https://gershmanlab.com/experiments/alicia/teaching/experiment/?hitId=34XASH8KLQ89J2U8D314D7180O4PMV&workerId=A1DUPOUC9RNU4L&assignmentId=3VZLGYJEYMWGD2TC5L6H45F7GFNXZQ&a=EGZV7&tp_a=EGZV7&b=3VZLGYJEYMWGD2TC5L6H45F7GFNXZQ&tp_b=3VZLGYJEYMWGD2TC5L6H45F7GFNXZQ&c=365717&tp_c=365717","firstResponseHeads":4,"firstResponseTails":0,"secondResponseHeads":3,"secondResponseTails":0,"totalHeads":7,"totalTails":0,"studentIndex":21,"studentTrueHypers":{"a":4,"b":1},"studentGuess":0.9166666666666666,"delta":0.41666666666666663,"bonus":0,"bonusSoFar":2.69,"totalExamples":7},{"rt":22033,"response":{"heads":"15","tails":"0"},"type":"response","condition":"seqFeedback","trueTheta":0.8,"classrooms":["C","D"],"studentTrueClassroom":"D","exampleSet":"first","trial_type":"survey-html-form","trial_index":176,"time_elapsed":1482303,"internal_node_id":"0.0-173.0-0.0","params":{"nStudents":24,"maxFlips":30,"completionMinutes":45,"basePay":8,"maxBonus":9,"perTrialBonus":0.5,"perTrialBonusThreshold":0.05,"exampleCost":0.01},"classroomParams":{"A":{"a":1,"b":4},"B":{"a":4,"b":1},"C":{"a":2,"b":8},"D":{"a":8,"b":2}},"conditions":["nonSeqFull","nonSeqPartial","seqNoFeedback","seqFeedback"],"classroomPairings":[["A","B"],["C","D"]],"coinWeights":[0.2,0.5,0.8],"subjectId":"A1DUPOUC9RNU4L","assignmentId":"3VZLGYJEYMWGD2TC5L6H45F7GFNXZQ","hitId":"34XASH8KLQ89J2U8D314D7180O4PMV","url":"https://gershmanlab.com/experiments/alicia/teaching/experiment/?hitId=34XASH8KLQ89J2U8D314D7180O4PMV&workerId=A1DUPOUC9RNU4L&assignmentId=3VZLGYJEYMWGD2TC5L6H45F7GFNXZQ&a=EGZV7&tp_a=EGZV7&b=3VZLGYJEYMWGD2TC5L6H45F7GFNXZQ&tp_b=3VZLGYJEYMWGD2TC5L6H45F7GFNXZQ&c=365717&tp_c=365717","heads":15,"tails":0,"studentIndex":22,"studentTrueHypers":{"a":8,"b":2},"studentGuess":0.92,"delta":0.12,"totalExamples":15,"bonusSoFar":2.69},{"rt":12942,"response":{"heads":"7","tails":"0"},"type":"response","condition":"seqFeedback","trueTheta":0.8,"classrooms":["C","D"],"studentTrueClassroom":"D","exampleSet":"second","trial_type":"survey-html-form","trial_index":180,"time_elapsed":1502582,"internal_node_id":"0.0-177.0-0.0","params":{"nStudents":24,"maxFlips":30,"completionMinutes":45,"basePay":8,"maxBonus":9,"perTrialBonus":0.5,"perTrialBonusThreshold":0.05,"exampleCost":0.01},"classroomParams":{"A":{"a":1,"b":4},"B":{"a":4,"b":1},"C":{"a":2,"b":8},"D":{"a":8,"b":2}},"conditions":["nonSeqFull","nonSeqPartial","seqNoFeedback","seqFeedback"],"classroomPairings":[["A","B"],["C","D"]],"coinWeights":[0.2,0.5,0.8],"subjectId":"A1DUPOUC9RNU4L","assignmentId":"3VZLGYJEYMWGD2TC5L6H45F7GFNXZQ","hitId":"34XASH8KLQ89J2U8D314D7180O4PMV","url":"https://gershmanlab.com/experiments/alicia/teaching/experiment/?hitId=34XASH8KLQ89J2U8D314D7180O4PMV&workerId=A1DUPOUC9RNU4L&assignmentId=3VZLGYJEYMWGD2TC5L6H45F7GFNXZQ&a=EGZV7&tp_a=EGZV7&b=3VZLGYJEYMWGD2TC5L6H45F7GFNXZQ&tp_b=3VZLGYJEYMWGD2TC5L6H45F7GFNXZQ&c=365717&tp_c=365717","firstResponseHeads":15,"firstResponseTails":0,"secondResponseHeads":7,"secondResponseTails":0,"totalHeads":22,"totalTails":0,"studentIndex":22,"studentTrueHypers":{"a":8,"b":2},"studentGuess":0.9375,"delta":0.13749999999999996,"bonus":0,"bonusSoFar":2.69,"totalExamples":22},{"rt":16406,"response":{"heads":"6","tails":"6"},"type":"response","condition":"seqNoFeedback","trueTheta":0.5,"classrooms":["C","D"],"studentTrueClassroom":"D","exampleSet":"first","trial_type":"survey-html-form","trial_index":186,"time_elapsed":1531848,"internal_node_id":"0.0-183.0-0.0","params":{"nStudents":24,"maxFlips":30,"completionMinutes":45,"basePay":8,"maxBonus":9,"perTrialBonus":0.5,"perTrialBonusThreshold":0.05,"exampleCost":0.01},"classroomParams":{"A":{"a":1,"b":4},"B":{"a":4,"b":1},"C":{"a":2,"b":8},"D":{"a":8,"b":2}},"conditions":["nonSeqFull","nonSeqPartial","seqNoFeedback","seqFeedback"],"classroomPairings":[["A","B"],["C","D"]],"coinWeights":[0.2,0.5,0.8],"subjectId":"A1DUPOUC9RNU4L","assignmentId":"3VZLGYJEYMWGD2TC5L6H45F7GFNXZQ","hitId":"34XASH8KLQ89J2U8D314D7180O4PMV","url":"https://gershmanlab.com/experiments/alicia/teaching/experiment/?hitId=34XASH8KLQ89J2U8D314D7180O4PMV&workerId=A1DUPOUC9RNU4L&assignmentId=3VZLGYJEYMWGD2TC5L6H45F7GFNXZQ&a=EGZV7&tp_a=EGZV7&b=3VZLGYJEYMWGD2TC5L6H45F7GFNXZQ&tp_b=3VZLGYJEYMWGD2TC5L6H45F7GFNXZQ&c=365717&tp_c=365717","heads":6,"tails":6,"studentIndex":23,"studentTrueHypers":{"a":8,"b":2},"studentGuess":0.6363636363636364,"delta":0.13636363636363635,"totalExamples":12,"bonusSoFar":2.69},{"rt":7284,"response":{"heads":"6","tails":"6"},"type":"response","condition":"seqNoFeedback","trueTheta":0.5,"classrooms":["C","D"],"studentTrueClassroom":"D","exampleSet":"second","trial_type":"survey-html-form","trial_index":189,"time_elapsed":1545647,"internal_node_id":"0.0-186.0-0.0","params":{"nStudents":24,"maxFlips":30,"completionMinutes":45,"basePay":8,"maxBonus":9,"perTrialBonus":0.5,"perTrialBonusThreshold":0.05,"exampleCost":0.01},"classroomParams":{"A":{"a":1,"b":4},"B":{"a":4,"b":1},"C":{"a":2,"b":8},"D":{"a":8,"b":2}},"conditions":["nonSeqFull","nonSeqPartial","seqNoFeedback","seqFeedback"],"classroomPairings":[["A","B"],["C","D"]],"coinWeights":[0.2,0.5,0.8],"subjectId":"A1DUPOUC9RNU4L","assignmentId":"3VZLGYJEYMWGD2TC5L6H45F7GFNXZQ","hitId":"34XASH8KLQ89J2U8D314D7180O4PMV","url":"https://gershmanlab.com/experiments/alicia/teaching/experiment/?hitId=34XASH8KLQ89J2U8D314D7180O4PMV&workerId=A1DUPOUC9RNU4L&assignmentId=3VZLGYJEYMWGD2TC5L6H45F7GFNXZQ&a=EGZV7&tp_a=EGZV7&b=3VZLGYJEYMWGD2TC5L6H45F7GFNXZQ&tp_b=3VZLGYJEYMWGD2TC5L6H45F7GFNXZQ&c=365717&tp_c=365717","firstResponseHeads":6,"firstResponseTails":6,"secondResponseHeads":6,"secondResponseTails":6,"totalHeads":12,"totalTails":12,"studentIndex":23,"studentTrueHypers":{"a":8,"b":2},"studentGuess":0.5882352941176471,"delta":0.08823529411764708,"bonus":0,"bonusSoFar":2.69,"totalExamples":24},{"rt":12846,"response":{"gender":"female","age":"61","understood":"yes","comments":""},"type":"response","trial_type":"survey-html-form","trial_index":193,"time_elapsed":1566911,"internal_node_id":"0.0-191.0","params":{"nStudents":24,"maxFlips":30,"completionMinutes":45,"basePay":8,"maxBonus":9,"perTrialBonus":0.5,"perTrialBonusThreshold":0.05,"exampleCost":0.01},"classroomParams":{"A":{"a":1,"b":4},"B":{"a":4,"b":1},"C":{"a":2,"b":8},"D":{"a":8,"b":2}},"conditions":["nonSeqFull","nonSeqPartial","seqNoFeedback","seqFeedback"],"classroomPairings":[["A","B"],["C","D"]],"coinWeights":[0.2,0.5,0.8],"subjectId":"A1DUPOUC9RNU4L","assignmentId":"3VZLGYJEYMWGD2TC5L6H45F7GFNXZQ","hitId":"34XASH8KLQ89J2U8D314D7180O4PMV","url":"https://gershmanlab.com/experiments/alicia/teaching/experiment/?hitId=34XASH8KLQ89J2U8D314D7180O4PMV&workerId=A1DUPOUC9RNU4L&assignmentId=3VZLGYJEYMWGD2TC5L6H45F7GFNXZQ&a=EGZV7&tp_a=EGZV7&b=3VZLGYJEYMWGD2TC5L6H45F7GFNXZQ&tp_b=3VZLGYJEYMWGD2TC5L6H45F7GFNXZQ&c=365717&tp_c=365717","totalBonus":2.69}]