[{"rt":38824,"response":{"heads":"9","tails":"2"},"type":"response","condition":"nonSeqPartial","trueTheta":0.8,"classrooms":["C","D"],"studentTrueClassroom":"C","exampleSet":"first","trial_type":"survey-html-form","trial_index":13,"time_elapsed":815515,"internal_node_id":"0.0-6.0-0.0","params":{"nStudents":24,"maxFlips":30,"completionMinutes":45,"basePay":8,"maxBonus":9,"perTrialBonus":0.5,"perTrialBonusThreshold":0.05,"exampleCost":0.01},"classroomParams":{"A":{"a":1,"b":4},"B":{"a":4,"b":1},"C":{"a":2,"b":8},"D":{"a":8,"b":2}},"conditions":["nonSeqFull","nonSeqPartial","seqNoFeedback","seqFeedback"],"classroomPairings":[["A","B"],["C","D"]],"coinWeights":[0.2,0.5,0.8],"subjectId":"A1F2APQMJSQVFK","assignmentId":"3Y5140Z9DY2P932BJQ8EAXQEI4XIPD","hitId":"3JGHED38EDDK7DFM0KVY7GXU94LY7W","url":"https://gershmanlab.com/experiments/alicia/teaching/experiment/?hitId=3JGHED38EDDK7DFM0KVY7GXU94LY7W&workerId=A1F2APQMJSQVFK&assignmentId=3Y5140Z9DY2P932BJQ8EAXQEI4XIPD&a=945Y9&tp_a=945Y9&b=3Y5140Z9DY2P932BJQ8EAXQEI4XIPD&tp_b=3Y5140Z9DY2P932BJQ8EAXQEI4XIPD&c=365799&tp_c=365799","heads":9,"tails":2,"studentIndex":0,"studentTrueHypers":{"a":2,"b":8},"studentGuess":0.5238095238095238,"delta":0.2761904761904762,"totalExamples":11,"bonus":0,"bonusSoFar":0},{"rt":30799,"response":{"heads":"5","tails":"0"},"type":"response","condition":"nonSeqPartial","trueTheta":0.5,"classrooms":["A","B"],"studentTrueClassroom":"A","exampleSet":"first","trial_type":"survey-html-form","trial_index":19,"time_elapsed":873321,"internal_node_id":"0.0-12.0-0.0","params":{"nStudents":24,"maxFlips":30,"completionMinutes":45,"basePay":8,"maxBonus":9,"perTrialBonus":0.5,"perTrialBonusThreshold":0.05,"exampleCost":0.01},"classroomParams":{"A":{"a":1,"b":4},"B":{"a":4,"b":1},"C":{"a":2,"b":8},"D":{"a":8,"b":2}},"conditions":["nonSeqFull","nonSeqPartial","seqNoFeedback","seqFeedback"],"classroomPairings":[["A","B"],["C","D"]],"coinWeights":[0.2,0.5,0.8],"subjectId":"A1F2APQMJSQVFK","assignmentId":"3Y5140Z9DY2P932BJQ8EAXQEI4XIPD","hitId":"3JGHED38EDDK7DFM0KVY7GXU94LY7W","url":"https://gershmanlab.com/experiments/alicia/teaching/experiment/?hitId=3JGHED38EDDK7DFM0KVY7GXU94LY7W&workerId=A1F2APQMJSQVFK&assignmentId=3Y5140Z9DY2P932BJQ8EAXQEI4XIPD&a=945Y9&tp_a=945Y9&b=3Y5140Z9DY2P932BJQ8EAXQEI4XIPD&tp_b=3Y5140Z9DY2P932BJQ8EAXQEI4XIPD&c=365799&tp_c=365799","heads":5,"tails":0,"studentIndex":1,"studentTrueHypers":{"a":1,"b":4},"studentGuess":0.6,"delta":0.09999999999999998,"totalExamples":5,"bonus":0,"bonusSoFar":0},{"rt":8173,"response":{"heads":"0","tails":"3"},"type":"response","condition":"nonSeqFull","trueTheta":0.2,"classrooms":["C","D"],"studentTrueClassroom":"D","exampleSet":"first","trial_type":"survey-html-form","trial_index":25,"time_elapsed":898706,"internal_node_id":"0.0-18.0-0.0","params":{"nStudents":24,"maxFlips":30,"completionMinutes":45,"basePay":8,"maxBonus":9,"perTrialBonus":0.5,"perTrialBonusThreshold":0.05,"exampleCost":0.01},"classroomParams":{"A":{"a":1,"b":4},"B":{"a":4,"b":1},"C":{"a":2,"b":8},"D":{"a":8,"b":2}},"conditions":["nonSeqFull","nonSeqPartial","seqNoFeedback","seqFeedback"],"classroomPairings":[["A","B"],["C","D"]],"coinWeights":[0.2,0.5,0.8],"subjectId":"A1F2APQMJSQVFK","assignmentId":"3Y5140Z9DY2P932BJQ8EAXQEI4XIPD","hitId":"3JGHED38EDDK7DFM0KVY7GXU94LY7W","url":"https://gershmanlab.com/experiments/alicia/teaching/experiment/?hitId=3JGHED38EDDK7DFM0KVY7GXU94LY7W&workerId=A1F2APQMJSQVFK&assignmentId=3Y5140Z9DY2P932BJQ8EAXQEI4XIPD&a=945Y9&tp_a=945Y9&b=3Y5140Z9DY2P932BJQ8EAXQEI4XIPD&tp_b=3Y5140Z9DY2P932BJQ8EAXQEI4XIPD&c=365799&tp_c=365799","heads":0,"tails":3,"studentIndex":2,"studentTrueHypers":{"a":8,"b":2},"studentGuess":0.6153846153846154,"delta":0.4153846153846154,"totalExamples":3,"bonus":0,"bonusSoFar":0},{"rt":12377,"response":{"heads":"02","tails":"08"},"type":"response","condition":"nonSeqPartial","trueTheta":0.2,"classrooms":["C","D"],"studentTrueClassroom":"D","exampleSet":"first","trial_type":"survey-html-form","trial_index":31,"time_elapsed":929646,"internal_node_id":"0.0-24.0-0.0","params":{"nStudents":24,"maxFlips":30,"completionMinutes":45,"basePay":8,"maxBonus":9,"perTrialBonus":0.5,"perTrialBonusThreshold":0.05,"exampleCost":0.01},"classroomParams":{"A":{"a":1,"b":4},"B":{"a":4,"b":1},"C":{"a":2,"b":8},"D":{"a":8,"b":2}},"conditions":["nonSeqFull","nonSeqPartial","seqNoFeedback","seqFeedback"],"classroomPairings":[["A","B"],["C","D"]],"coinWeights":[0.2,0.5,0.8],"subjectId":"A1F2APQMJSQVFK","assignmentId":"3Y5140Z9DY2P932BJQ8EAXQEI4XIPD","hitId":"3JGHED38EDDK7DFM0KVY7GXU94LY7W","url":"https://gershmanlab.com/experiments/alicia/teaching/experiment/?hitId=3JGHED38EDDK7DFM0KVY7GXU94LY7W&workerId=A1F2APQMJSQVFK&assignmentId=3Y5140Z9DY2P932BJQ8EAXQEI4XIPD&a=945Y9&tp_a=945Y9&b=3Y5140Z9DY2P932BJQ8EAXQEI4XIPD&tp_b=3Y5140Z9DY2P932BJQ8EAXQEI4XIPD&c=365799&tp_c=365799","heads":2,"tails":8,"studentIndex":3,"studentTrueHypers":{"a":8,"b":2},"studentGuess":0.5,"delta":0.3,"totalExamples":10,"bonus":0,"bonusSoFar":0},{"rt":11714,"response":{"heads":"05","tails":"03"},"type":"response","condition":"seqFeedback","trueTheta":0.5,"classrooms":["C","D"],"studentTrueClassroom":"C","exampleSet":"first","trial_type":"survey-html-form","trial_index":37,"time_elapsed":964852,"internal_node_id":"0.0-30.0-0.0","params":{"nStudents":24,"maxFlips":30,"completionMinutes":45,"basePay":8,"maxBonus":9,"perTrialBonus":0.5,"perTrialBonusThreshold":0.05,"exampleCost":0.01},"classroomParams":{"A":{"a":1,"b":4},"B":{"a":4,"b":1},"C":{"a":2,"b":8},"D":{"a":8,"b":2}},"conditions":["nonSeqFull","nonSeqPartial","seqNoFeedback","seqFeedback"],"classroomPairings":[["A","B"],["C","D"]],"coinWeights":[0.2,0.5,0.8],"subjectId":"A1F2APQMJSQVFK","assignmentId":"3Y5140Z9DY2P932BJQ8EAXQEI4XIPD","hitId":"3JGHED38EDDK7DFM0KVY7GXU94LY7W","url":"https://gershmanlab.com/experiments/alicia/teaching/experiment/?hitId=3JGHED38EDDK7DFM0KVY7GXU94LY7W&workerId=A1F2APQMJSQVFK&assignmentId=3Y5140Z9DY2P932BJQ8EAXQEI4XIPD&a=945Y9&tp_a=945Y9&b=3Y5140Z9DY2P932BJQ8EAXQEI4XIPD&tp_b=3Y5140Z9DY2P932BJQ8EAXQEI4XIPD&c=365799&tp_c=365799","heads":5,"tails":3,"studentIndex":4,"studentTrueHypers":{"a":2,"b":8},"studentGuess":0.3888888888888889,"delta":0.1111111111111111,"totalExamples":8,"bonusSoFar":0},{"rt":9630,"response":{"heads":"08","tails":"03"},"type":"response","condition":"seqFeedback","trueTheta":0.5,"classrooms":["C","D"],"studentTrueClassroom":"C","exampleSet":"second","trial_type":"survey-html-form","trial_index":41,"time_elapsed":988512,"internal_node_id":"0.0-34.0-0.0","params":{"nStudents":24,"maxFlips":30,"completionMinutes":45,"basePay":8,"maxBonus":9,"perTrialBonus":0.5,"perTrialBonusThreshold":0.05,"exampleCost":0.01},"classroomParams":{"A":{"a":1,"b":4},"B":{"a":4,"b":1},"C":{"a":2,"b":8},"D":{"a":8,"b":2}},"conditions":["nonSeqFull","nonSeqPartial","seqNoFeedback","seqFeedback"],"classroomPairings":[["A","B"],["C","D"]],"coinWeights":[0.2,0.5,0.8],"subjectId":"A1F2APQMJSQVFK","assignmentId":"3Y5140Z9DY2P932BJQ8EAXQEI4XIPD","hitId":"3JGHED38EDDK7DFM0KVY7GXU94LY7W","url":"https://gershmanlab.com/experiments/alicia/teaching/experiment/?hitId=3JGHED38EDDK7DFM0KVY7GXU94LY7W&workerId=A1F2APQMJSQVFK&assignmentId=3Y5140Z9DY2P932BJQ8EAXQEI4XIPD&a=945Y9&tp_a=945Y9&b=3Y5140Z9DY2P932BJQ8EAXQEI4XIPD&tp_b=3Y5140Z9DY2P932BJQ8EAXQEI4XIPD&c=365799&tp_c=365799","firstResponseHeads":5,"firstResponseTails":3,"secondResponseHeads":8,"secondResponseTails":3,"totalHeads":13,"totalTails":6,"studentIndex":4,"studentTrueHypers":{"a":2,"b":8},"studentGuess":0.5172413793103449,"delta":0.017241379310344862,"bonus":0.31,"bonusSoFar":0.31,"totalExamples":19},{"rt":16654,"response":{"heads":"02","tails":"06"},"type":"response","condition":"seqFeedback","trueTheta":0.2,"classrooms":["C","D"],"studentTrueClassroom":"C","exampleSet":"first","trial_type":"survey-html-form","trial_index":47,"time_elapsed":1025386,"internal_node_id":"0.0-40.0-0.0","params":{"nStudents":24,"maxFlips":30,"completionMinutes":45,"basePay":8,"maxBonus":9,"perTrialBonus":0.5,"perTrialBonusThreshold":0.05,"exampleCost":0.01},"classroomParams":{"A":{"a":1,"b":4},"B":{"a":4,"b":1},"C":{"a":2,"b":8},"D":{"a":8,"b":2}},"conditions":["nonSeqFull","nonSeqPartial","seqNoFeedback","seqFeedback"],"classroomPairings":[["A","B"],["C","D"]],"coinWeights":[0.2,0.5,0.8],"subjectId":"A1F2APQMJSQVFK","assignmentId":"3Y5140Z9DY2P932BJQ8EAXQEI4XIPD","hitId":"3JGHED38EDDK7DFM0KVY7GXU94LY7W","url":"https://gershmanlab.com/experiments/alicia/teaching/experiment/?hitId=3JGHED38EDDK7DFM0KVY7GXU94LY7W&workerId=A1F2APQMJSQVFK&assignmentId=3Y5140Z9DY2P932BJQ8EAXQEI4XIPD&a=945Y9&tp_a=945Y9&b=3Y5140Z9DY2P932BJQ8EAXQEI4XIPD&tp_b=3Y5140Z9DY2P932BJQ8EAXQEI4XIPD&c=365799&tp_c=365799","heads":2,"tails":6,"studentIndex":5,"studentTrueHypers":{"a":2,"b":8},"studentGuess":0.2222222222222222,"delta":0.0222222222222222,"totalExamples":8,"bonusSoFar":0.31},{"rt":7267,"response":{"heads":"02","tails":"06"},"type":"response","condition":"seqFeedback","trueTheta":0.2,"classrooms":["C","D"],"studentTrueClassroom":"C","exampleSet":"second","trial_type":"survey-html-form","trial_index":51,"time_elapsed":1044081,"internal_node_id":"0.0-44.0-0.0","params":{"nStudents":24,"maxFlips":30,"completionMinutes":45,"basePay":8,"maxBonus":9,"perTrialBonus":0.5,"perTrialBonusThreshold":0.05,"exampleCost":0.01},"classroomParams":{"A":{"a":1,"b":4},"B":{"a":4,"b":1},"C":{"a":2,"b":8},"D":{"a":8,"b":2}},"conditions":["nonSeqFull","nonSeqPartial","seqNoFeedback","seqFeedback"],"classroomPairings":[["A","B"],["C","D"]],"coinWeights":[0.2,0.5,0.8],"subjectId":"A1F2APQMJSQVFK","assignmentId":"3Y5140Z9DY2P932BJQ8EAXQEI4XIPD","hitId":"3JGHED38EDDK7DFM0KVY7GXU94LY7W","url":"https://gershmanlab.com/experiments/alicia/teaching/experiment/?hitId=3JGHED38EDDK7DFM0KVY7GXU94LY7W&workerId=A1F2APQMJSQVFK&assignmentId=3Y5140Z9DY2P932BJQ8EAXQEI4XIPD&a=945Y9&tp_a=945Y9&b=3Y5140Z9DY2P932BJQ8EAXQEI4XIPD&tp_b=3Y5140Z9DY2P932BJQ8EAXQEI4XIPD&c=365799&tp_c=365799","firstResponseHeads":2,"firstResponseTails":6,"secondResponseHeads":2,"secondResponseTails":6,"totalHeads":4,"totalTails":12,"studentIndex":5,"studentTrueHypers":{"a":2,"b":8},"studentGuess":0.23076923076923078,"delta":0.03076923076923077,"bonus":0.34,"bonusSoFar":0.65,"totalExamples":16},{"rt":9673,"response":{"heads":"12","tails":"3"},"type":"response","condition":"nonSeqPartial","trueTheta":0.8,"classrooms":["A","B"],"studentTrueClassroom":"A","exampleSet":"first","trial_type":"survey-html-form","trial_index":57,"time_elapsed":1072040,"internal_node_id":"0.0-50.0-0.0","params":{"nStudents":24,"maxFlips":30,"completionMinutes":45,"basePay":8,"maxBonus":9,"perTrialBonus":0.5,"perTrialBonusThreshold":0.05,"exampleCost":0.01},"classroomParams":{"A":{"a":1,"b":4},"B":{"a":4,"b":1},"C":{"a":2,"b":8},"D":{"a":8,"b":2}},"conditions":["nonSeqFull","nonSeqPartial","seqNoFeedback","seqFeedback"],"classroomPairings":[["A","B"],["C","D"]],"coinWeights":[0.2,0.5,0.8],"subjectId":"A1F2APQMJSQVFK","assignmentId":"3Y5140Z9DY2P932BJQ8EAXQEI4XIPD","hitId":"3JGHED38EDDK7DFM0KVY7GXU94LY7W","url":"https://gershmanlab.com/experiments/alicia/teaching/experiment/?hitId=3JGHED38EDDK7DFM0KVY7GXU94LY7W&workerId=A1F2APQMJSQVFK&assignmentId=3Y5140Z9DY2P932BJQ8EAXQEI4XIPD&a=945Y9&tp_a=945Y9&b=3Y5140Z9DY2P932BJQ8EAXQEI4XIPD&tp_b=3Y5140Z9DY2P932BJQ8EAXQEI4XIPD&c=365799&tp_c=365799","heads":12,"tails":3,"studentIndex":6,"studentTrueHypers":{"a":1,"b":4},"studentGuess":0.65,"delta":0.15000000000000002,"totalExamples":15,"bonus":0,"bonusSoFar":0.65},{"rt":13123,"response":{"heads":"08","tails":"01"},"type":"response","condition":"seqNoFeedback","trueTheta":0.8,"classrooms":["A","B"],"studentTrueClassroom":"B","exampleSet":"first","trial_type":"survey-html-form","trial_index":63,"time_elapsed":1102893,"internal_node_id":"0.0-56.0-0.0","params":{"nStudents":24,"maxFlips":30,"completionMinutes":45,"basePay":8,"maxBonus":9,"perTrialBonus":0.5,"perTrialBonusThreshold":0.05,"exampleCost":0.01},"classroomParams":{"A":{"a":1,"b":4},"B":{"a":4,"b":1},"C":{"a":2,"b":8},"D":{"a":8,"b":2}},"conditions":["nonSeqFull","nonSeqPartial","seqNoFeedback","seqFeedback"],"classroomPairings":[["A","B"],["C","D"]],"coinWeights":[0.2,0.5,0.8],"subjectId":"A1F2APQMJSQVFK","assignmentId":"3Y5140Z9DY2P932BJQ8EAXQEI4XIPD","hitId":"3JGHED38EDDK7DFM0KVY7GXU94LY7W","url":"https://gershmanlab.com/experiments/alicia/teaching/experiment/?hitId=3JGHED38EDDK7DFM0KVY7GXU94LY7W&workerId=A1F2APQMJSQVFK&assignmentId=3Y5140Z9DY2P932BJQ8EAXQEI4XIPD&a=945Y9&tp_a=945Y9&b=3Y5140Z9DY2P932BJQ8EAXQEI4XIPD&tp_b=3Y5140Z9DY2P932BJQ8EAXQEI4XIPD&c=365799&tp_c=365799","heads":8,"tails":1,"studentIndex":7,"studentTrueHypers":{"a":4,"b":1},"studentGuess":0.8571428571428571,"delta":0.05714285714285705,"totalExamples":9,"bonusSoFar":0.65},{"rt":14414,"response":{"heads":"09","tails":"01"},"type":"response","condition":"seqNoFeedback","trueTheta":0.8,"classrooms":["A","B"],"studentTrueClassroom":"B","exampleSet":"second","trial_type":"survey-html-form","trial_index":66,"time_elapsed":1123078,"internal_node_id":"0.0-59.0-0.0","params":{"nStudents":24,"maxFlips":30,"completionMinutes":45,"basePay":8,"maxBonus":9,"perTrialBonus":0.5,"perTrialBonusThreshold":0.05,"exampleCost":0.01},"classroomParams":{"A":{"a":1,"b":4},"B":{"a":4,"b":1},"C":{"a":2,"b":8},"D":{"a":8,"b":2}},"conditions":["nonSeqFull","nonSeqPartial","seqNoFeedback","seqFeedback"],"classroomPairings":[["A","B"],["C","D"]],"coinWeights":[0.2,0.5,0.8],"subjectId":"A1F2APQMJSQVFK","assignmentId":"3Y5140Z9DY2P932BJQ8EAXQEI4XIPD","hitId":"3JGHED38EDDK7DFM0KVY7GXU94LY7W","url":"https://gershmanlab.com/experiments/alicia/teaching/experiment/?hitId=3JGHED38EDDK7DFM0KVY7GXU94LY7W&workerId=A1F2APQMJSQVFK&assignmentId=3Y5140Z9DY2P932BJQ8EAXQEI4XIPD&a=945Y9&tp_a=945Y9&b=3Y5140Z9DY2P932BJQ8EAXQEI4XIPD&tp_b=3Y5140Z9DY2P932BJQ8EAXQEI4XIPD&c=365799&tp_c=365799","firstResponseHeads":8,"firstResponseTails":1,"secondResponseHeads":9,"secondResponseTails":1,"totalHeads":17,"totalTails":2,"studentIndex":7,"studentTrueHypers":{"a":4,"b":1},"studentGuess":0.875,"delta":0.07499999999999996,"bonus":0,"bonusSoFar":0.65,"totalExamples":19},{"rt":12997,"response":{"heads":"02","tails":"08"},"type":"response","condition":"seqNoFeedback","trueTheta":0.2,"classrooms":["A","B"],"studentTrueClassroom":"A","exampleSet":"first","trial_type":"survey-html-form","trial_index":72,"time_elapsed":1177779,"internal_node_id":"0.0-65.0-0.0","params":{"nStudents":24,"maxFlips":30,"completionMinutes":45,"basePay":8,"maxBonus":9,"perTrialBonus":0.5,"perTrialBonusThreshold":0.05,"exampleCost":0.01},"classroomParams":{"A":{"a":1,"b":4},"B":{"a":4,"b":1},"C":{"a":2,"b":8},"D":{"a":8,"b":2}},"conditions":["nonSeqFull","nonSeqPartial","seqNoFeedback","seqFeedback"],"classroomPairings":[["A","B"],["C","D"]],"coinWeights":[0.2,0.5,0.8],"subjectId":"A1F2APQMJSQVFK","assignmentId":"3Y5140Z9DY2P932BJQ8EAXQEI4XIPD","hitId":"3JGHED38EDDK7DFM0KVY7GXU94LY7W","url":"https://gershmanlab.com/experiments/alicia/teaching/experiment/?hitId=3JGHED38EDDK7DFM0KVY7GXU94LY7W&workerId=A1F2APQMJSQVFK&assignmentId=3Y5140Z9DY2P932BJQ8EAXQEI4XIPD&a=945Y9&tp_a=945Y9&b=3Y5140Z9DY2P932BJQ8EAXQEI4XIPD&tp_b=3Y5140Z9DY2P932BJQ8EAXQEI4XIPD&c=365799&tp_c=365799","heads":2,"tails":8,"studentIndex":8,"studentTrueHypers":{"a":1,"b":4},"studentGuess":0.2,"delta":0,"totalExamples":10,"bonusSoFar":0.65},{"rt":11845,"response":{"heads":"01","tails":"07"},"type":"response","condition":"seqNoFeedback","trueTheta":0.2,"classrooms":["A","B"],"studentTrueClassroom":"A","exampleSet":"second","trial_type":"survey-html-form","trial_index":75,"time_elapsed":1195406,"internal_node_id":"0.0-68.0-0.0","params":{"nStudents":24,"maxFlips":30,"completionMinutes":45,"basePay":8,"maxBonus":9,"perTrialBonus":0.5,"perTrialBonusThreshold":0.05,"exampleCost":0.01},"classroomParams":{"A":{"a":1,"b":4},"B":{"a":4,"b":1},"C":{"a":2,"b":8},"D":{"a":8,"b":2}},"conditions":["nonSeqFull","nonSeqPartial","seqNoFeedback","seqFeedback"],"classroomPairings":[["A","B"],["C","D"]],"coinWeights":[0.2,0.5,0.8],"subjectId":"A1F2APQMJSQVFK","assignmentId":"3Y5140Z9DY2P932BJQ8EAXQEI4XIPD","hitId":"3JGHED38EDDK7DFM0KVY7GXU94LY7W","url":"https://gershmanlab.com/experiments/alicia/teaching/experiment/?hitId=3JGHED38EDDK7DFM0KVY7GXU94LY7W&workerId=A1F2APQMJSQVFK&assignmentId=3Y5140Z9DY2P932BJQ8EAXQEI4XIPD&a=945Y9&tp_a=945Y9&b=3Y5140Z9DY2P932BJQ8EAXQEI4XIPD&tp_b=3Y5140Z9DY2P932BJQ8EAXQEI4XIPD&c=365799&tp_c=365799","firstResponseHeads":2,"firstResponseTails":8,"secondResponseHeads":1,"secondResponseTails":7,"totalHeads":3,"totalTails":15,"studentIndex":8,"studentTrueHypers":{"a":1,"b":4},"studentGuess":0.17391304347826086,"delta":0.026086956521739146,"bonus":0.32,"bonusSoFar":0.97,"totalExamples":18},{"rt":18079,"response":{"heads":"06","tails":"04"},"type":"response","condition":"nonSeqFull","trueTheta":0.5,"classrooms":["C","D"],"studentTrueClassroom":"D","exampleSet":"first","trial_type":"survey-html-form","trial_index":81,"time_elapsed":1240106,"internal_node_id":"0.0-74.0-0.0","params":{"nStudents":24,"maxFlips":30,"completionMinutes":45,"basePay":8,"maxBonus":9,"perTrialBonus":0.5,"perTrialBonusThreshold":0.05,"exampleCost":0.01},"classroomParams":{"A":{"a":1,"b":4},"B":{"a":4,"b":1},"C":{"a":2,"b":8},"D":{"a":8,"b":2}},"conditions":["nonSeqFull","nonSeqPartial","seqNoFeedback","seqFeedback"],"classroomPairings":[["A","B"],["C","D"]],"coinWeights":[0.2,0.5,0.8],"subjectId":"A1F2APQMJSQVFK","assignmentId":"3Y5140Z9DY2P932BJQ8EAXQEI4XIPD","hitId":"3JGHED38EDDK7DFM0KVY7GXU94LY7W","url":"https://gershmanlab.com/experiments/alicia/teaching/experiment/?hitId=3JGHED38EDDK7DFM0KVY7GXU94LY7W&workerId=A1F2APQMJSQVFK&assignmentId=3Y5140Z9DY2P932BJQ8EAXQEI4XIPD&a=945Y9&tp_a=945Y9&b=3Y5140Z9DY2P932BJQ8EAXQEI4XIPD&tp_b=3Y5140Z9DY2P932BJQ8EAXQEI4XIPD&c=365799&tp_c=365799","heads":6,"tails":4,"studentIndex":9,"studentTrueHypers":{"a":8,"b":2},"studentGuess":0.7,"delta":0.19999999999999996,"totalExamples":10,"bonus":0,"bonusSoFar":0.97},{"rt":8008,"response":{"heads":"06","tails":"02"},"type":"response","condition":"nonSeqPartial","trueTheta":0.5,"classrooms":["C","D"],"studentTrueClassroom":"C","exampleSet":"first","trial_type":"survey-html-form","trial_index":87,"time_elapsed":1273133,"internal_node_id":"0.0-80.0-0.0","params":{"nStudents":24,"maxFlips":30,"completionMinutes":45,"basePay":8,"maxBonus":9,"perTrialBonus":0.5,"perTrialBonusThreshold":0.05,"exampleCost":0.01},"classroomParams":{"A":{"a":1,"b":4},"B":{"a":4,"b":1},"C":{"a":2,"b":8},"D":{"a":8,"b":2}},"conditions":["nonSeqFull","nonSeqPartial","seqNoFeedback","seqFeedback"],"classroomPairings":[["A","B"],["C","D"]],"coinWeights":[0.2,0.5,0.8],"subjectId":"A1F2APQMJSQVFK","assignmentId":"3Y5140Z9DY2P932BJQ8EAXQEI4XIPD","hitId":"3JGHED38EDDK7DFM0KVY7GXU94LY7W","url":"https://gershmanlab.com/experiments/alicia/teaching/experiment/?hitId=3JGHED38EDDK7DFM0KVY7GXU94LY7W&workerId=A1F2APQMJSQVFK&assignmentId=3Y5140Z9DY2P932BJQ8EAXQEI4XIPD&a=945Y9&tp_a=945Y9&b=3Y5140Z9DY2P932BJQ8EAXQEI4XIPD&tp_b=3Y5140Z9DY2P932BJQ8EAXQEI4XIPD&c=365799&tp_c=365799","heads":6,"tails":2,"studentIndex":10,"studentTrueHypers":{"a":2,"b":8},"studentGuess":0.4444444444444444,"delta":0.05555555555555558,"totalExamples":8,"bonus":0,"bonusSoFar":0.97},{"rt":7854,"response":{"heads":"06","tails":"03"},"type":"response","condition":"seqNoFeedback","trueTheta":0.5,"classrooms":["C","D"],"studentTrueClassroom":"C","exampleSet":"first","trial_type":"survey-html-form","trial_index":93,"time_elapsed":1304555,"internal_node_id":"0.0-86.0-0.0","params":{"nStudents":24,"maxFlips":30,"completionMinutes":45,"basePay":8,"maxBonus":9,"perTrialBonus":0.5,"perTrialBonusThreshold":0.05,"exampleCost":0.01},"classroomParams":{"A":{"a":1,"b":4},"B":{"a":4,"b":1},"C":{"a":2,"b":8},"D":{"a":8,"b":2}},"conditions":["nonSeqFull","nonSeqPartial","seqNoFeedback","seqFeedback"],"classroomPairings":[["A","B"],["C","D"]],"coinWeights":[0.2,0.5,0.8],"subjectId":"A1F2APQMJSQVFK","assignmentId":"3Y5140Z9DY2P932BJQ8EAXQEI4XIPD","hitId":"3JGHED38EDDK7DFM0KVY7GXU94LY7W","url":"https://gershmanlab.com/experiments/alicia/teaching/experiment/?hitId=3JGHED38EDDK7DFM0KVY7GXU94LY7W&workerId=A1F2APQMJSQVFK&assignmentId=3Y5140Z9DY2P932BJQ8EAXQEI4XIPD&a=945Y9&tp_a=945Y9&b=3Y5140Z9DY2P932BJQ8EAXQEI4XIPD&tp_b=3Y5140Z9DY2P932BJQ8EAXQEI4XIPD&c=365799&tp_c=365799","heads":6,"tails":3,"studentIndex":11,"studentTrueHypers":{"a":2,"b":8},"studentGuess":0.42105263157894735,"delta":0.07894736842105265,"totalExamples":9,"bonusSoFar":0.97},{"rt":7850,"response":{"heads":"06","tails":"03"},"type":"response","condition":"seqNoFeedback","trueTheta":0.5,"classrooms":["C","D"],"studentTrueClassroom":"C","exampleSet":"second","trial_type":"survey-html-form","trial_index":96,"time_elapsed":1319923,"internal_node_id":"0.0-89.0-0.0","params":{"nStudents":24,"maxFlips":30,"completionMinutes":45,"basePay":8,"maxBonus":9,"perTrialBonus":0.5,"perTrialBonusThreshold":0.05,"exampleCost":0.01},"classroomParams":{"A":{"a":1,"b":4},"B":{"a":4,"b":1},"C":{"a":2,"b":8},"D":{"a":8,"b":2}},"conditions":["nonSeqFull","nonSeqPartial","seqNoFeedback","seqFeedback"],"classroomPairings":[["A","B"],["C","D"]],"coinWeights":[0.2,0.5,0.8],"subjectId":"A1F2APQMJSQVFK","assignmentId":"3Y5140Z9DY2P932BJQ8EAXQEI4XIPD","hitId":"3JGHED38EDDK7DFM0KVY7GXU94LY7W","url":"https://gershmanlab.com/experiments/alicia/teaching/experiment/?hitId=3JGHED38EDDK7DFM0KVY7GXU94LY7W&workerId=A1F2APQMJSQVFK&assignmentId=3Y5140Z9DY2P932BJQ8EAXQEI4XIPD&a=945Y9&tp_a=945Y9&b=3Y5140Z9DY2P932BJQ8EAXQEI4XIPD&tp_b=3Y5140Z9DY2P932BJQ8EAXQEI4XIPD&c=365799&tp_c=365799","firstResponseHeads":6,"firstResponseTails":3,"secondResponseHeads":6,"secondResponseTails":3,"totalHeads":12,"totalTails":6,"studentIndex":11,"studentTrueHypers":{"a":2,"b":8},"studentGuess":0.5,"delta":0,"bonus":0.32,"bonusSoFar":1.29,"totalExamples":18},{"rt":13892,"response":{"heads":"1","tails":"8"},"type":"response","condition":"nonSeqPartial","trueTheta":0.2,"classrooms":["A","B"],"studentTrueClassroom":"A","exampleSet":"first","trial_type":"survey-html-form","trial_index":102,"time_elapsed":1355952,"internal_node_id":"0.0-95.0-0.0","params":{"nStudents":24,"maxFlips":30,"completionMinutes":45,"basePay":8,"maxBonus":9,"perTrialBonus":0.5,"perTrialBonusThreshold":0.05,"exampleCost":0.01},"classroomParams":{"A":{"a":1,"b":4},"B":{"a":4,"b":1},"C":{"a":2,"b":8},"D":{"a":8,"b":2}},"conditions":["nonSeqFull","nonSeqPartial","seqNoFeedback","seqFeedback"],"classroomPairings":[["A","B"],["C","D"]],"coinWeights":[0.2,0.5,0.8],"subjectId":"A1F2APQMJSQVFK","assignmentId":"3Y5140Z9DY2P932BJQ8EAXQEI4XIPD","hitId":"3JGHED38EDDK7DFM0KVY7GXU94LY7W","url":"https://gershmanlab.com/experiments/alicia/teaching/experiment/?hitId=3JGHED38EDDK7DFM0KVY7GXU94LY7W&workerId=A1F2APQMJSQVFK&assignmentId=3Y5140Z9DY2P932BJQ8EAXQEI4XIPD&a=945Y9&tp_a=945Y9&b=3Y5140Z9DY2P932BJQ8EAXQEI4XIPD&tp_b=3Y5140Z9DY2P932BJQ8EAXQEI4XIPD&c=365799&tp_c=365799","heads":1,"tails":8,"studentIndex":12,"studentTrueHypers":{"a":1,"b":4},"studentGuess":0.14285714285714285,"delta":0.05714285714285716,"totalExamples":9,"bonus":0,"bonusSoFar":1.29},{"rt":15323,"response":{"heads":"6","tails":"3"},"type":"response","condition":"nonSeqFull","trueTheta":0.5,"classrooms":["A","B"],"studentTrueClassroom":"B","exampleSet":"first","trial_type":"survey-html-form","trial_index":108,"time_elapsed":1390655,"internal_node_id":"0.0-101.0-0.0","params":{"nStudents":24,"maxFlips":30,"completionMinutes":45,"basePay":8,"maxBonus":9,"perTrialBonus":0.5,"perTrialBonusThreshold":0.05,"exampleCost":0.01},"classroomParams":{"A":{"a":1,"b":4},"B":{"a":4,"b":1},"C":{"a":2,"b":8},"D":{"a":8,"b":2}},"conditions":["nonSeqFull","nonSeqPartial","seqNoFeedback","seqFeedback"],"classroomPairings":[["A","B"],["C","D"]],"coinWeights":[0.2,0.5,0.8],"subjectId":"A1F2APQMJSQVFK","assignmentId":"3Y5140Z9DY2P932BJQ8EAXQEI4XIPD","hitId":"3JGHED38EDDK7DFM0KVY7GXU94LY7W","url":"https://gershmanlab.com/experiments/alicia/teaching/experiment/?hitId=3JGHED38EDDK7DFM0KVY7GXU94LY7W&workerId=A1F2APQMJSQVFK&assignmentId=3Y5140Z9DY2P932BJQ8EAXQEI4XIPD&a=945Y9&tp_a=945Y9&b=3Y5140Z9DY2P932BJQ8EAXQEI4XIPD&tp_b=3Y5140Z9DY2P932BJQ8EAXQEI4XIPD&c=365799&tp_c=365799","heads":6,"tails":3,"studentIndex":13,"studentTrueHypers":{"a":4,"b":1},"studentGuess":0.7142857142857143,"delta":0.2142857142857143,"totalExamples":9,"bonus":0,"bonusSoFar":1.29},{"rt":12065,"response":{"heads":"06","tails":"01"},"type":"response","condition":"seqFeedback","trueTheta":0.8,"classrooms":["C","D"],"studentTrueClassroom":"D","exampleSet":"first","trial_type":"survey-html-form","trial_index":114,"time_elapsed":1432477,"internal_node_id":"0.0-107.0-0.0","params":{"nStudents":24,"maxFlips":30,"completionMinutes":45,"basePay":8,"maxBonus":9,"perTrialBonus":0.5,"perTrialBonusThreshold":0.05,"exampleCost":0.01},"classroomParams":{"A":{"a":1,"b":4},"B":{"a":4,"b":1},"C":{"a":2,"b":8},"D":{"a":8,"b":2}},"conditions":["nonSeqFull","nonSeqPartial","seqNoFeedback","seqFeedback"],"classroomPairings":[["A","B"],["C","D"]],"coinWeights":[0.2,0.5,0.8],"subjectId":"A1F2APQMJSQVFK","assignmentId":"3Y5140Z9DY2P932BJQ8EAXQEI4XIPD","hitId":"3JGHED38EDDK7DFM0KVY7GXU94LY7W","url":"https://gershmanlab.com/experiments/alicia/teaching/experiment/?hitId=3JGHED38EDDK7DFM0KVY7GXU94LY7W&workerId=A1F2APQMJSQVFK&assignmentId=3Y5140Z9DY2P932BJQ8EAXQEI4XIPD&a=945Y9&tp_a=945Y9&b=3Y5140Z9DY2P932BJQ8EAXQEI4XIPD&tp_b=3Y5140Z9DY2P932BJQ8EAXQEI4XIPD&c=365799&tp_c=365799","heads":6,"tails":1,"studentIndex":14,"studentTrueHypers":{"a":8,"b":2},"studentGuess":0.8235294117647058,"delta":0.0235294117647058,"totalExamples":7,"bonusSoFar":1.29},{"rt":5245,"response":{"heads":"06","tails":"01"},"type":"response","condition":"seqFeedback","trueTheta":0.8,"classrooms":["C","D"],"studentTrueClassroom":"D","exampleSet":"second","trial_type":"survey-html-form","trial_index":118,"time_elapsed":1453810,"internal_node_id":"0.0-111.0-0.0","params":{"nStudents":24,"maxFlips":30,"completionMinutes":45,"basePay":8,"maxBonus":9,"perTrialBonus":0.5,"perTrialBonusThreshold":0.05,"exampleCost":0.01},"classroomParams":{"A":{"a":1,"b":4},"B":{"a":4,"b":1},"C":{"a":2,"b":8},"D":{"a":8,"b":2}},"conditions":["nonSeqFull","nonSeqPartial","seqNoFeedback","seqFeedback"],"classroomPairings":[["A","B"],["C","D"]],"coinWeights":[0.2,0.5,0.8],"subjectId":"A1F2APQMJSQVFK","assignmentId":"3Y5140Z9DY2P932BJQ8EAXQEI4XIPD","hitId":"3JGHED38EDDK7DFM0KVY7GXU94LY7W","url":"https://gershmanlab.com/experiments/alicia/teaching/experiment/?hitId=3JGHED38EDDK7DFM0KVY7GXU94LY7W&workerId=A1F2APQMJSQVFK&assignmentId=3Y5140Z9DY2P932BJQ8EAXQEI4XIPD&a=945Y9&tp_a=945Y9&b=3Y5140Z9DY2P932BJQ8EAXQEI4XIPD&tp_b=3Y5140Z9DY2P932BJQ8EAXQEI4XIPD&c=365799&tp_c=365799","firstResponseHeads":6,"firstResponseTails":1,"secondResponseHeads":6,"secondResponseTails":1,"totalHeads":12,"totalTails":2,"studentIndex":14,"studentTrueHypers":{"a":8,"b":2},"studentGuess":0.8333333333333334,"delta":0.033333333333333326,"bonus":0.36,"bonusSoFar":1.65,"totalExamples":14},{"rt":9236,"response":{"heads":"07","tails":"01"},"type":"response","condition":"seqFeedback","trueTheta":0.8,"classrooms":["A","B"],"studentTrueClassroom":"A","exampleSet":"first","trial_type":"survey-html-form","trial_index":124,"time_elapsed":1479109,"internal_node_id":"0.0-117.0-0.0","params":{"nStudents":24,"maxFlips":30,"completionMinutes":45,"basePay":8,"maxBonus":9,"perTrialBonus":0.5,"perTrialBonusThreshold":0.05,"exampleCost":0.01},"classroomParams":{"A":{"a":1,"b":4},"B":{"a":4,"b":1},"C":{"a":2,"b":8},"D":{"a":8,"b":2}},"conditions":["nonSeqFull","nonSeqPartial","seqNoFeedback","seqFeedback"],"classroomPairings":[["A","B"],["C","D"]],"coinWeights":[0.2,0.5,0.8],"subjectId":"A1F2APQMJSQVFK","assignmentId":"3Y5140Z9DY2P932BJQ8EAXQEI4XIPD","hitId":"3JGHED38EDDK7DFM0KVY7GXU94LY7W","url":"https://gershmanlab.com/experiments/alicia/teaching/experiment/?hitId=3JGHED38EDDK7DFM0KVY7GXU94LY7W&workerId=A1F2APQMJSQVFK&assignmentId=3Y5140Z9DY2P932BJQ8EAXQEI4XIPD&a=945Y9&tp_a=945Y9&b=3Y5140Z9DY2P932BJQ8EAXQEI4XIPD&tp_b=3Y5140Z9DY2P932BJQ8EAXQEI4XIPD&c=365799&tp_c=365799","heads":7,"tails":1,"studentIndex":15,"studentTrueHypers":{"a":1,"b":4},"studentGuess":0.6153846153846154,"delta":0.18461538461538463,"totalExamples":8,"bonusSoFar":1.65},{"rt":7998,"response":{"heads":"09","tails":"01"},"type":"response","condition":"seqFeedback","trueTheta":0.8,"classrooms":["A","B"],"studentTrueClassroom":"A","exampleSet":"second","trial_type":"survey-html-form","trial_index":128,"time_elapsed":1506258,"internal_node_id":"0.0-121.0-0.0","params":{"nStudents":24,"maxFlips":30,"completionMinutes":45,"basePay":8,"maxBonus":9,"perTrialBonus":0.5,"perTrialBonusThreshold":0.05,"exampleCost":0.01},"classroomParams":{"A":{"a":1,"b":4},"B":{"a":4,"b":1},"C":{"a":2,"b":8},"D":{"a":8,"b":2}},"conditions":["nonSeqFull","nonSeqPartial","seqNoFeedback","seqFeedback"],"classroomPairings":[["A","B"],["C","D"]],"coinWeights":[0.2,0.5,0.8],"subjectId":"A1F2APQMJSQVFK","assignmentId":"3Y5140Z9DY2P932BJQ8EAXQEI4XIPD","hitId":"3JGHED38EDDK7DFM0KVY7GXU94LY7W","url":"https://gershmanlab.com/experiments/alicia/teaching/experiment/?hitId=3JGHED38EDDK7DFM0KVY7GXU94LY7W&workerId=A1F2APQMJSQVFK&assignmentId=3Y5140Z9DY2P932BJQ8EAXQEI4XIPD&a=945Y9&tp_a=945Y9&b=3Y5140Z9DY2P932BJQ8EAXQEI4XIPD&tp_b=3Y5140Z9DY2P932BJQ8EAXQEI4XIPD&c=365799&tp_c=365799","firstResponseHeads":7,"firstResponseTails":1,"secondResponseHeads":9,"secondResponseTails":1,"totalHeads":16,"totalTails":2,"studentIndex":15,"studentTrueHypers":{"a":1,"b":4},"studentGuess":0.7391304347826086,"delta":0.0608695652173914,"bonus":0,"bonusSoFar":1.65,"totalExamples":18},{"rt":8037,"response":{"heads":"01","tails":"07"},"type":"response","condition":"seqFeedback","trueTheta":0.2,"classrooms":["A","B"],"studentTrueClassroom":"A","exampleSet":"first","trial_type":"survey-html-form","trial_index":134,"time_elapsed":1541346,"internal_node_id":"0.0-127.0-0.0","params":{"nStudents":24,"maxFlips":30,"completionMinutes":45,"basePay":8,"maxBonus":9,"perTrialBonus":0.5,"perTrialBonusThreshold":0.05,"exampleCost":0.01},"classroomParams":{"A":{"a":1,"b":4},"B":{"a":4,"b":1},"C":{"a":2,"b":8},"D":{"a":8,"b":2}},"conditions":["nonSeqFull","nonSeqPartial","seqNoFeedback","seqFeedback"],"classroomPairings":[["A","B"],["C","D"]],"coinWeights":[0.2,0.5,0.8],"subjectId":"A1F2APQMJSQVFK","assignmentId":"3Y5140Z9DY2P932BJQ8EAXQEI4XIPD","hitId":"3JGHED38EDDK7DFM0KVY7GXU94LY7W","url":"https://gershmanlab.com/experiments/alicia/teaching/experiment/?hitId=3JGHED38EDDK7DFM0KVY7GXU94LY7W&workerId=A1F2APQMJSQVFK&assignmentId=3Y5140Z9DY2P932BJQ8EAXQEI4XIPD&a=945Y9&tp_a=945Y9&b=3Y5140Z9DY2P932BJQ8EAXQEI4XIPD&tp_b=3Y5140Z9DY2P932BJQ8EAXQEI4XIPD&c=365799&tp_c=365799","heads":1,"tails":7,"studentIndex":16,"studentTrueHypers":{"a":1,"b":4},"studentGuess":0.15384615384615385,"delta":0.046153846153846156,"totalExamples":8,"bonusSoFar":1.65},{"rt":11448,"response":{"heads":"01","tails":"08"},"type":"response","condition":"seqFeedback","trueTheta":0.2,"classrooms":["A","B"],"studentTrueClassroom":"A","exampleSet":"second","trial_type":"survey-html-form","trial_index":138,"time_elapsed":1564648,"internal_node_id":"0.0-131.0-0.0","params":{"nStudents":24,"maxFlips":30,"completionMinutes":45,"basePay":8,"maxBonus":9,"perTrialBonus":0.5,"perTrialBonusThreshold":0.05,"exampleCost":0.01},"classroomParams":{"A":{"a":1,"b":4},"B":{"a":4,"b":1},"C":{"a":2,"b":8},"D":{"a":8,"b":2}},"conditions":["nonSeqFull","nonSeqPartial","seqNoFeedback","seqFeedback"],"classroomPairings":[["A","B"],["C","D"]],"coinWeights":[0.2,0.5,0.8],"subjectId":"A1F2APQMJSQVFK","assignmentId":"3Y5140Z9DY2P932BJQ8EAXQEI4XIPD","hitId":"3JGHED38EDDK7DFM0KVY7GXU94LY7W","url":"https://gershmanlab.com/experiments/alicia/teaching/experiment/?hitId=3JGHED38EDDK7DFM0KVY7GXU94LY7W&workerId=A1F2APQMJSQVFK&assignmentId=3Y5140Z9DY2P932BJQ8EAXQEI4XIPD&a=945Y9&tp_a=945Y9&b=3Y5140Z9DY2P932BJQ8EAXQEI4XIPD&tp_b=3Y5140Z9DY2P932BJQ8EAXQEI4XIPD&c=365799&tp_c=365799","firstResponseHeads":1,"firstResponseTails":7,"secondResponseHeads":1,"secondResponseTails":8,"totalHeads":2,"totalTails":15,"studentIndex":16,"studentTrueHypers":{"a":1,"b":4},"studentGuess":0.13636363636363635,"delta":0.06363636363636366,"bonus":0,"bonusSoFar":1.65,"totalExamples":17},{"rt":9379,"response":{"heads":"06","tails":"04"},"type":"response","condition":"seqFeedback","trueTheta":0.5,"classrooms":["A","B"],"studentTrueClassroom":"B","exampleSet":"first","trial_type":"survey-html-form","trial_index":144,"time_elapsed":1592280,"internal_node_id":"0.0-137.0-0.0","params":{"nStudents":24,"maxFlips":30,"completionMinutes":45,"basePay":8,"maxBonus":9,"perTrialBonus":0.5,"perTrialBonusThreshold":0.05,"exampleCost":0.01},"classroomParams":{"A":{"a":1,"b":4},"B":{"a":4,"b":1},"C":{"a":2,"b":8},"D":{"a":8,"b":2}},"conditions":["nonSeqFull","nonSeqPartial","seqNoFeedback","seqFeedback"],"classroomPairings":[["A","B"],["C","D"]],"coinWeights":[0.2,0.5,0.8],"subjectId":"A1F2APQMJSQVFK","assignmentId":"3Y5140Z9DY2P932BJQ8EAXQEI4XIPD","hitId":"3JGHED38EDDK7DFM0KVY7GXU94LY7W","url":"https://gershmanlab.com/experiments/alicia/teaching/experiment/?hitId=3JGHED38EDDK7DFM0KVY7GXU94LY7W&workerId=A1F2APQMJSQVFK&assignmentId=3Y5140Z9DY2P932BJQ8EAXQEI4XIPD&a=945Y9&tp_a=945Y9&b=3Y5140Z9DY2P932BJQ8EAXQEI4XIPD&tp_b=3Y5140Z9DY2P932BJQ8EAXQEI4XIPD&c=365799&tp_c=365799","heads":6,"tails":4,"studentIndex":17,"studentTrueHypers":{"a":4,"b":1},"studentGuess":0.6666666666666666,"delta":0.16666666666666663,"totalExamples":10,"bonusSoFar":1.65},{"rt":6665,"response":{"heads":"06","tails":"06"},"type":"response","condition":"seqFeedback","trueTheta":0.5,"classrooms":["A","B"],"studentTrueClassroom":"B","exampleSet":"second","trial_type":"survey-html-form","trial_index":148,"time_elapsed":1616446,"internal_node_id":"0.0-141.0-0.0","params":{"nStudents":24,"maxFlips":30,"completionMinutes":45,"basePay":8,"maxBonus":9,"perTrialBonus":0.5,"perTrialBonusThreshold":0.05,"exampleCost":0.01},"classroomParams":{"A":{"a":1,"b":4},"B":{"a":4,"b":1},"C":{"a":2,"b":8},"D":{"a":8,"b":2}},"conditions":["nonSeqFull","nonSeqPartial","seqNoFeedback","seqFeedback"],"classroomPairings":[["A","B"],["C","D"]],"coinWeights":[0.2,0.5,0.8],"subjectId":"A1F2APQMJSQVFK","assignmentId":"3Y5140Z9DY2P932BJQ8EAXQEI4XIPD","hitId":"3JGHED38EDDK7DFM0KVY7GXU94LY7W","url":"https://gershmanlab.com/experiments/alicia/teaching/experiment/?hitId=3JGHED38EDDK7DFM0KVY7GXU94LY7W&workerId=A1F2APQMJSQVFK&assignmentId=3Y5140Z9DY2P932BJQ8EAXQEI4XIPD&a=945Y9&tp_a=945Y9&b=3Y5140Z9DY2P932BJQ8EAXQEI4XIPD&tp_b=3Y5140Z9DY2P932BJQ8EAXQEI4XIPD&c=365799&tp_c=365799","firstResponseHeads":6,"firstResponseTails":4,"secondResponseHeads":6,"secondResponseTails":6,"totalHeads":12,"totalTails":10,"studentIndex":17,"studentTrueHypers":{"a":4,"b":1},"studentGuess":0.5925925925925926,"delta":0.09259259259259256,"bonus":0,"bonusSoFar":1.65,"totalExamples":22},{"rt":9439,"response":{"heads":"01","tails":"07"},"type":"response","condition":"nonSeqFull","trueTheta":0.2,"classrooms":["A","B"],"studentTrueClassroom":"A","exampleSet":"first","trial_type":"survey-html-form","trial_index":154,"time_elapsed":1644717,"internal_node_id":"0.0-147.0-0.0","params":{"nStudents":24,"maxFlips":30,"completionMinutes":45,"basePay":8,"maxBonus":9,"perTrialBonus":0.5,"perTrialBonusThreshold":0.05,"exampleCost":0.01},"classroomParams":{"A":{"a":1,"b":4},"B":{"a":4,"b":1},"C":{"a":2,"b":8},"D":{"a":8,"b":2}},"conditions":["nonSeqFull","nonSeqPartial","seqNoFeedback","seqFeedback"],"classroomPairings":[["A","B"],["C","D"]],"coinWeights":[0.2,0.5,0.8],"subjectId":"A1F2APQMJSQVFK","assignmentId":"3Y5140Z9DY2P932BJQ8EAXQEI4XIPD","hitId":"3JGHED38EDDK7DFM0KVY7GXU94LY7W","url":"https://gershmanlab.com/experiments/alicia/teaching/experiment/?hitId=3JGHED38EDDK7DFM0KVY7GXU94LY7W&workerId=A1F2APQMJSQVFK&assignmentId=3Y5140Z9DY2P932BJQ8EAXQEI4XIPD&a=945Y9&tp_a=945Y9&b=3Y5140Z9DY2P932BJQ8EAXQEI4XIPD&tp_b=3Y5140Z9DY2P932BJQ8EAXQEI4XIPD&c=365799&tp_c=365799","heads":1,"tails":7,"studentIndex":18,"studentTrueHypers":{"a":1,"b":4},"studentGuess":0.15384615384615385,"delta":0.046153846153846156,"totalExamples":8,"bonus":0.42,"bonusSoFar":2.07},{"rt":15396,"response":{"heads":"02","tails":"09"},"type":"response","condition":"seqNoFeedback","trueTheta":0.2,"classrooms":["C","D"],"studentTrueClassroom":"C","exampleSet":"first","trial_type":"survey-html-form","trial_index":160,"time_elapsed":1676926,"internal_node_id":"0.0-153.0-0.0","params":{"nStudents":24,"maxFlips":30,"completionMinutes":45,"basePay":8,"maxBonus":9,"perTrialBonus":0.5,"perTrialBonusThreshold":0.05,"exampleCost":0.01},"classroomParams":{"A":{"a":1,"b":4},"B":{"a":4,"b":1},"C":{"a":2,"b":8},"D":{"a":8,"b":2}},"conditions":["nonSeqFull","nonSeqPartial","seqNoFeedback","seqFeedback"],"classroomPairings":[["A","B"],["C","D"]],"coinWeights":[0.2,0.5,0.8],"subjectId":"A1F2APQMJSQVFK","assignmentId":"3Y5140Z9DY2P932BJQ8EAXQEI4XIPD","hitId":"3JGHED38EDDK7DFM0KVY7GXU94LY7W","url":"https://gershmanlab.com/experiments/alicia/teaching/experiment/?hitId=3JGHED38EDDK7DFM0KVY7GXU94LY7W&workerId=A1F2APQMJSQVFK&assignmentId=3Y5140Z9DY2P932BJQ8EAXQEI4XIPD&a=945Y9&tp_a=945Y9&b=3Y5140Z9DY2P932BJQ8EAXQEI4XIPD&tp_b=3Y5140Z9DY2P932BJQ8EAXQEI4XIPD&c=365799&tp_c=365799","heads":2,"tails":9,"studentIndex":19,"studentTrueHypers":{"a":2,"b":8},"studentGuess":0.19047619047619047,"delta":0.009523809523809545,"totalExamples":11,"bonusSoFar":2.07},{"rt":22987,"response":{"heads":"02","tails":"09"},"type":"response","condition":"seqNoFeedback","trueTheta":0.2,"classrooms":["C","D"],"studentTrueClassroom":"C","exampleSet":"second","trial_type":"survey-html-form","trial_index":163,"time_elapsed":1706197,"internal_node_id":"0.0-156.0-0.0","params":{"nStudents":24,"maxFlips":30,"completionMinutes":45,"basePay":8,"maxBonus":9,"perTrialBonus":0.5,"perTrialBonusThreshold":0.05,"exampleCost":0.01},"classroomParams":{"A":{"a":1,"b":4},"B":{"a":4,"b":1},"C":{"a":2,"b":8},"D":{"a":8,"b":2}},"conditions":["nonSeqFull","nonSeqPartial","seqNoFeedback","seqFeedback"],"classroomPairings":[["A","B"],["C","D"]],"coinWeights":[0.2,0.5,0.8],"subjectId":"A1F2APQMJSQVFK","assignmentId":"3Y5140Z9DY2P932BJQ8EAXQEI4XIPD","hitId":"3JGHED38EDDK7DFM0KVY7GXU94LY7W","url":"https://gershmanlab.com/experiments/alicia/teaching/experiment/?hitId=3JGHED38EDDK7DFM0KVY7GXU94LY7W&workerId=A1F2APQMJSQVFK&assignmentId=3Y5140Z9DY2P932BJQ8EAXQEI4XIPD&a=945Y9&tp_a=945Y9&b=3Y5140Z9DY2P932BJQ8EAXQEI4XIPD&tp_b=3Y5140Z9DY2P932BJQ8EAXQEI4XIPD&c=365799&tp_c=365799","firstResponseHeads":2,"firstResponseTails":9,"secondResponseHeads":2,"secondResponseTails":9,"totalHeads":4,"totalTails":18,"studentIndex":19,"studentTrueHypers":{"a":2,"b":8},"studentGuess":0.1875,"delta":0.012500000000000011,"bonus":0.28,"bonusSoFar":2.35,"totalExamples":22},{"rt":11058,"response":{"heads":"07","tails":"01"},"type":"response","condition":"seqNoFeedback","trueTheta":0.8,"classrooms":["C","D"],"studentTrueClassroom":"D","exampleSet":"first","trial_type":"survey-html-form","trial_index":169,"time_elapsed":1752869,"internal_node_id":"0.0-162.0-0.0","params":{"nStudents":24,"maxFlips":30,"completionMinutes":45,"basePay":8,"maxBonus":9,"perTrialBonus":0.5,"perTrialBonusThreshold":0.05,"exampleCost":0.01},"classroomParams":{"A":{"a":1,"b":4},"B":{"a":4,"b":1},"C":{"a":2,"b":8},"D":{"a":8,"b":2}},"conditions":["nonSeqFull","nonSeqPartial","seqNoFeedback","seqFeedback"],"classroomPairings":[["A","B"],["C","D"]],"coinWeights":[0.2,0.5,0.8],"subjectId":"A1F2APQMJSQVFK","assignmentId":"3Y5140Z9DY2P932BJQ8EAXQEI4XIPD","hitId":"3JGHED38EDDK7DFM0KVY7GXU94LY7W","url":"https://gershmanlab.com/experiments/alicia/teaching/experiment/?hitId=3JGHED38EDDK7DFM0KVY7GXU94LY7W&workerId=A1F2APQMJSQVFK&assignmentId=3Y5140Z9DY2P932BJQ8EAXQEI4XIPD&a=945Y9&tp_a=945Y9&b=3Y5140Z9DY2P932BJQ8EAXQEI4XIPD&tp_b=3Y5140Z9DY2P932BJQ8EAXQEI4XIPD&c=365799&tp_c=365799","heads":7,"tails":1,"studentIndex":20,"studentTrueHypers":{"a":8,"b":2},"studentGuess":0.8333333333333334,"delta":0.033333333333333326,"totalExamples":8,"bonusSoFar":2.35},{"rt":8553,"response":{"heads":"07","tails":"01"},"type":"response","condition":"seqNoFeedback","trueTheta":0.8,"classrooms":["C","D"],"studentTrueClassroom":"D","exampleSet":"second","trial_type":"survey-html-form","trial_index":172,"time_elapsed":1767201,"internal_node_id":"0.0-165.0-0.0","params":{"nStudents":24,"maxFlips":30,"completionMinutes":45,"basePay":8,"maxBonus":9,"perTrialBonus":0.5,"perTrialBonusThreshold":0.05,"exampleCost":0.01},"classroomParams":{"A":{"a":1,"b":4},"B":{"a":4,"b":1},"C":{"a":2,"b":8},"D":{"a":8,"b":2}},"conditions":["nonSeqFull","nonSeqPartial","seqNoFeedback","seqFeedback"],"classroomPairings":[["A","B"],["C","D"]],"coinWeights":[0.2,0.5,0.8],"subjectId":"A1F2APQMJSQVFK","assignmentId":"3Y5140Z9DY2P932BJQ8EAXQEI4XIPD","hitId":"3JGHED38EDDK7DFM0KVY7GXU94LY7W","url":"https://gershmanlab.com/experiments/alicia/teaching/experiment/?hitId=3JGHED38EDDK7DFM0KVY7GXU94LY7W&workerId=A1F2APQMJSQVFK&assignmentId=3Y5140Z9DY2P932BJQ8EAXQEI4XIPD&a=945Y9&tp_a=945Y9&b=3Y5140Z9DY2P932BJQ8EAXQEI4XIPD&tp_b=3Y5140Z9DY2P932BJQ8EAXQEI4XIPD&c=365799&tp_c=365799","firstResponseHeads":7,"firstResponseTails":1,"secondResponseHeads":7,"secondResponseTails":1,"totalHeads":14,"totalTails":2,"studentIndex":20,"studentTrueHypers":{"a":8,"b":2},"studentGuess":0.8461538461538461,"delta":0.0461538461538461,"bonus":0.34,"bonusSoFar":2.69,"totalExamples":16},{"rt":17891,"response":{"heads":"06","tails":"04"},"type":"response","condition":"seqNoFeedback","trueTheta":0.5,"classrooms":["A","B"],"studentTrueClassroom":"A","exampleSet":"first","trial_type":"survey-html-form","trial_index":178,"time_elapsed":1802111,"internal_node_id":"0.0-171.0-0.0","params":{"nStudents":24,"maxFlips":30,"completionMinutes":45,"basePay":8,"maxBonus":9,"perTrialBonus":0.5,"perTrialBonusThreshold":0.05,"exampleCost":0.01},"classroomParams":{"A":{"a":1,"b":4},"B":{"a":4,"b":1},"C":{"a":2,"b":8},"D":{"a":8,"b":2}},"conditions":["nonSeqFull","nonSeqPartial","seqNoFeedback","seqFeedback"],"classroomPairings":[["A","B"],["C","D"]],"coinWeights":[0.2,0.5,0.8],"subjectId":"A1F2APQMJSQVFK","assignmentId":"3Y5140Z9DY2P932BJQ8EAXQEI4XIPD","hitId":"3JGHED38EDDK7DFM0KVY7GXU94LY7W","url":"https://gershmanlab.com/experiments/alicia/teaching/experiment/?hitId=3JGHED38EDDK7DFM0KVY7GXU94LY7W&workerId=A1F2APQMJSQVFK&assignmentId=3Y5140Z9DY2P932BJQ8EAXQEI4XIPD&a=945Y9&tp_a=945Y9&b=3Y5140Z9DY2P932BJQ8EAXQEI4XIPD&tp_b=3Y5140Z9DY2P932BJQ8EAXQEI4XIPD&c=365799&tp_c=365799","heads":6,"tails":4,"studentIndex":21,"studentTrueHypers":{"a":1,"b":4},"studentGuess":0.4666666666666667,"delta":0.033333333333333326,"totalExamples":10,"bonusSoFar":2.69},{"rt":7682,"response":{"heads":"06","tails":"04"},"type":"response","condition":"seqNoFeedback","trueTheta":0.5,"classrooms":["A","B"],"studentTrueClassroom":"A","exampleSet":"second","trial_type":"survey-html-form","trial_index":181,"time_elapsed":1815562,"internal_node_id":"0.0-174.0-0.0","params":{"nStudents":24,"maxFlips":30,"completionMinutes":45,"basePay":8,"maxBonus":9,"perTrialBonus":0.5,"perTrialBonusThreshold":0.05,"exampleCost":0.01},"classroomParams":{"A":{"a":1,"b":4},"B":{"a":4,"b":1},"C":{"a":2,"b":8},"D":{"a":8,"b":2}},"conditions":["nonSeqFull","nonSeqPartial","seqNoFeedback","seqFeedback"],"classroomPairings":[["A","B"],["C","D"]],"coinWeights":[0.2,0.5,0.8],"subjectId":"A1F2APQMJSQVFK","assignmentId":"3Y5140Z9DY2P932BJQ8EAXQEI4XIPD","hitId":"3JGHED38EDDK7DFM0KVY7GXU94LY7W","url":"https://gershmanlab.com/experiments/alicia/teaching/experiment/?hitId=3JGHED38EDDK7DFM0KVY7GXU94LY7W&workerId=A1F2APQMJSQVFK&assignmentId=3Y5140Z9DY2P932BJQ8EAXQEI4XIPD&a=945Y9&tp_a=945Y9&b=3Y5140Z9DY2P932BJQ8EAXQEI4XIPD&tp_b=3Y5140Z9DY2P932BJQ8EAXQEI4XIPD&c=365799&tp_c=365799","firstResponseHeads":6,"firstResponseTails":4,"secondResponseHeads":6,"secondResponseTails":4,"totalHeads":12,"totalTails":8,"studentIndex":21,"studentTrueHypers":{"a":1,"b":4},"studentGuess":0.52,"delta":0.020000000000000018,"bonus":0.3,"bonusSoFar":2.99,"totalExamples":20},{"rt":13311,"response":{"heads":"07","tails":"01"},"type":"response","condition":"nonSeqFull","trueTheta":0.8,"classrooms":["C","D"],"studentTrueClassroom":"C","exampleSet":"first","trial_type":"survey-html-form","trial_index":187,"time_elapsed":1842296,"internal_node_id":"0.0-180.0-0.0","params":{"nStudents":24,"maxFlips":30,"completionMinutes":45,"basePay":8,"maxBonus":9,"perTrialBonus":0.5,"perTrialBonusThreshold":0.05,"exampleCost":0.01},"classroomParams":{"A":{"a":1,"b":4},"B":{"a":4,"b":1},"C":{"a":2,"b":8},"D":{"a":8,"b":2}},"conditions":["nonSeqFull","nonSeqPartial","seqNoFeedback","seqFeedback"],"classroomPairings":[["A","B"],["C","D"]],"coinWeights":[0.2,0.5,0.8],"subjectId":"A1F2APQMJSQVFK","assignmentId":"3Y5140Z9DY2P932BJQ8EAXQEI4XIPD","hitId":"3JGHED38EDDK7DFM0KVY7GXU94LY7W","url":"https://gershmanlab.com/experiments/alicia/teaching/experiment/?hitId=3JGHED38EDDK7DFM0KVY7GXU94LY7W&workerId=A1F2APQMJSQVFK&assignmentId=3Y5140Z9DY2P932BJQ8EAXQEI4XIPD&a=945Y9&tp_a=945Y9&b=3Y5140Z9DY2P932BJQ8EAXQEI4XIPD&tp_b=3Y5140Z9DY2P932BJQ8EAXQEI4XIPD&c=365799&tp_c=365799","heads":7,"tails":1,"studentIndex":22,"studentTrueHypers":{"a":2,"b":8},"studentGuess":0.5,"delta":0.30000000000000004,"totalExamples":8,"bonus":0,"bonusSoFar":2.99},{"rt":13780,"response":{"heads":"07","tails":"01"},"type":"response","condition":"nonSeqFull","trueTheta":0.8,"classrooms":["A","B"],"studentTrueClassroom":"B","exampleSet":"first","trial_type":"survey-html-form","trial_index":193,"time_elapsed":1873413,"internal_node_id":"0.0-186.0-0.0","params":{"nStudents":24,"maxFlips":30,"completionMinutes":45,"basePay":8,"maxBonus":9,"perTrialBonus":0.5,"perTrialBonusThreshold":0.05,"exampleCost":0.01},"classroomParams":{"A":{"a":1,"b":4},"B":{"a":4,"b":1},"C":{"a":2,"b":8},"D":{"a":8,"b":2}},"conditions":["nonSeqFull","nonSeqPartial","seqNoFeedback","seqFeedback"],"classroomPairings":[["A","B"],["C","D"]],"coinWeights":[0.2,0.5,0.8],"subjectId":"A1F2APQMJSQVFK","assignmentId":"3Y5140Z9DY2P932BJQ8EAXQEI4XIPD","hitId":"3JGHED38EDDK7DFM0KVY7GXU94LY7W","url":"https://gershmanlab.com/experiments/alicia/teaching/experiment/?hitId=3JGHED38EDDK7DFM0KVY7GXU94LY7W&workerId=A1F2APQMJSQVFK&assignmentId=3Y5140Z9DY2P932BJQ8EAXQEI4XIPD&a=945Y9&tp_a=945Y9&b=3Y5140Z9DY2P932BJQ8EAXQEI4XIPD&tp_b=3Y5140Z9DY2P932BJQ8EAXQEI4XIPD&c=365799&tp_c=365799","heads":7,"tails":1,"studentIndex":23,"studentTrueHypers":{"a":4,"b":1},"studentGuess":0.8461538461538461,"delta":0.0461538461538461,"totalExamples":8,"bonus":0.42,"bonusSoFar":3.41},{"rt":13183,"response":{"gender":"female","age":"28","understood":"yes","comments":""},"type":"response","trial_type":"survey-html-form","trial_index":197,"time_elapsed":1898802,"internal_node_id":"0.0-191.0","params":{"nStudents":24,"maxFlips":30,"completionMinutes":45,"basePay":8,"maxBonus":9,"perTrialBonus":0.5,"perTrialBonusThreshold":0.05,"exampleCost":0.01},"classroomParams":{"A":{"a":1,"b":4},"B":{"a":4,"b":1},"C":{"a":2,"b":8},"D":{"a":8,"b":2}},"conditions":["nonSeqFull","nonSeqPartial","seqNoFeedback","seqFeedback"],"classroomPairings":[["A","B"],["C","D"]],"coinWeights":[0.2,0.5,0.8],"subjectId":"A1F2APQMJSQVFK","assignmentId":"3Y5140Z9DY2P932BJQ8EAXQEI4XIPD","hitId":"3JGHED38EDDK7DFM0KVY7GXU94LY7W","url":"https://gershmanlab.com/experiments/alicia/teaching/experiment/?hitId=3JGHED38EDDK7DFM0KVY7GXU94LY7W&workerId=A1F2APQMJSQVFK&assignmentId=3Y5140Z9DY2P932BJQ8EAXQEI4XIPD&a=945Y9&tp_a=945Y9&b=3Y5140Z9DY2P932BJQ8EAXQEI4XIPD&tp_b=3Y5140Z9DY2P932BJQ8EAXQEI4XIPD&c=365799&tp_c=365799","totalBonus":3.41}]