[{"rt":8663,"response":{"heads":"2","tails":"1"},"type":"response","condition":"nonSeqPartial","trueTheta":0.2,"classrooms":["A","B"],"studentTrueClassroom":"A","exampleSet":"first","trial_type":"survey-html-form","trial_index":31,"time_elapsed":1834111,"internal_node_id":"0.0-6.0-0.0","params":{"nStudents":24,"maxFlips":30,"completionMinutes":45,"basePay":8,"maxBonus":9,"perTrialBonus":0.5,"perTrialBonusThreshold":0.05,"exampleCost":0.01},"classroomParams":{"A":{"a":1,"b":4},"B":{"a":4,"b":1},"C":{"a":2,"b":8},"D":{"a":8,"b":2}},"conditions":["nonSeqFull","nonSeqPartial","seqNoFeedback","seqFeedback"],"classroomPairings":[["A","B"],["C","D"]],"coinWeights":[0.2,0.5,0.8],"subjectId":"A1FDFJCZ4B5N9S","assignmentId":"3YHH42UU5C1OBN6XN8Q1NCHYRZV0LG","hitId":"3FJ2RVH25ZSYKBA8MWMNC8NVPF629N","url":"https://gershmanlab.com/experiments/alicia/teaching/experiment/?hitId=3FJ2RVH25ZSYKBA8MWMNC8NVPF629N&workerId=A1FDFJCZ4B5N9S&assignmentId=3YHH42UU5C1OBN6XN8Q1NCHYRZV0LG&a=U4HY7&tp_a=U4HY7&b=3YHH42UU5C1OBN6XN8Q1NCHYRZV0LG&tp_b=3YHH42UU5C1OBN6XN8Q1NCHYRZV0LG&c=365717&tp_c=365717","heads":2,"tails":1,"studentIndex":0,"studentTrueHypers":{"a":1,"b":4},"studentGuess":0.375,"delta":0.175,"totalExamples":3,"bonus":0,"bonusSoFar":0},{"rt":9117,"response":{"heads":"2","tails":"2"},"type":"response","condition":"seqFeedback","trueTheta":0.2,"classrooms":["A","B"],"studentTrueClassroom":"B","exampleSet":"first","trial_type":"survey-html-form","trial_index":37,"time_elapsed":1857014,"internal_node_id":"0.0-12.0-0.0","params":{"nStudents":24,"maxFlips":30,"completionMinutes":45,"basePay":8,"maxBonus":9,"perTrialBonus":0.5,"perTrialBonusThreshold":0.05,"exampleCost":0.01},"classroomParams":{"A":{"a":1,"b":4},"B":{"a":4,"b":1},"C":{"a":2,"b":8},"D":{"a":8,"b":2}},"conditions":["nonSeqFull","nonSeqPartial","seqNoFeedback","seqFeedback"],"classroomPairings":[["A","B"],["C","D"]],"coinWeights":[0.2,0.5,0.8],"subjectId":"A1FDFJCZ4B5N9S","assignmentId":"3YHH42UU5C1OBN6XN8Q1NCHYRZV0LG","hitId":"3FJ2RVH25ZSYKBA8MWMNC8NVPF629N","url":"https://gershmanlab.com/experiments/alicia/teaching/experiment/?hitId=3FJ2RVH25ZSYKBA8MWMNC8NVPF629N&workerId=A1FDFJCZ4B5N9S&assignmentId=3YHH42UU5C1OBN6XN8Q1NCHYRZV0LG&a=U4HY7&tp_a=U4HY7&b=3YHH42UU5C1OBN6XN8Q1NCHYRZV0LG&tp_b=3YHH42UU5C1OBN6XN8Q1NCHYRZV0LG&c=365717&tp_c=365717","heads":2,"tails":2,"studentIndex":1,"studentTrueHypers":{"a":4,"b":1},"studentGuess":0.6666666666666666,"delta":0.4666666666666666,"totalExamples":4,"bonusSoFar":0},{"rt":7396,"response":{"heads":"2","tails":"2"},"type":"response","condition":"seqFeedback","trueTheta":0.2,"classrooms":["A","B"],"studentTrueClassroom":"B","exampleSet":"second","trial_type":"survey-html-form","trial_index":41,"time_elapsed":1873349,"internal_node_id":"0.0-16.0-0.0","params":{"nStudents":24,"maxFlips":30,"completionMinutes":45,"basePay":8,"maxBonus":9,"perTrialBonus":0.5,"perTrialBonusThreshold":0.05,"exampleCost":0.01},"classroomParams":{"A":{"a":1,"b":4},"B":{"a":4,"b":1},"C":{"a":2,"b":8},"D":{"a":8,"b":2}},"conditions":["nonSeqFull","nonSeqPartial","seqNoFeedback","seqFeedback"],"classroomPairings":[["A","B"],["C","D"]],"coinWeights":[0.2,0.5,0.8],"subjectId":"A1FDFJCZ4B5N9S","assignmentId":"3YHH42UU5C1OBN6XN8Q1NCHYRZV0LG","hitId":"3FJ2RVH25ZSYKBA8MWMNC8NVPF629N","url":"https://gershmanlab.com/experiments/alicia/teaching/experiment/?hitId=3FJ2RVH25ZSYKBA8MWMNC8NVPF629N&workerId=A1FDFJCZ4B5N9S&assignmentId=3YHH42UU5C1OBN6XN8Q1NCHYRZV0LG&a=U4HY7&tp_a=U4HY7&b=3YHH42UU5C1OBN6XN8Q1NCHYRZV0LG&tp_b=3YHH42UU5C1OBN6XN8Q1NCHYRZV0LG&c=365717&tp_c=365717","firstResponseHeads":2,"firstResponseTails":2,"secondResponseHeads":2,"secondResponseTails":2,"totalHeads":4,"totalTails":4,"studentIndex":1,"studentTrueHypers":{"a":4,"b":1},"studentGuess":0.6153846153846154,"delta":0.4153846153846154,"bonus":0,"bonusSoFar":0,"totalExamples":8},{"rt":12500,"response":{"heads":"6","tails":"2"},"type":"response","condition":"nonSeqFull","trueTheta":0.8,"classrooms":["A","B"],"studentTrueClassroom":"B","exampleSet":"first","trial_type":"survey-html-form","trial_index":47,"time_elapsed":1899171,"internal_node_id":"0.0-22.0-0.0","params":{"nStudents":24,"maxFlips":30,"completionMinutes":45,"basePay":8,"maxBonus":9,"perTrialBonus":0.5,"perTrialBonusThreshold":0.05,"exampleCost":0.01},"classroomParams":{"A":{"a":1,"b":4},"B":{"a":4,"b":1},"C":{"a":2,"b":8},"D":{"a":8,"b":2}},"conditions":["nonSeqFull","nonSeqPartial","seqNoFeedback","seqFeedback"],"classroomPairings":[["A","B"],["C","D"]],"coinWeights":[0.2,0.5,0.8],"subjectId":"A1FDFJCZ4B5N9S","assignmentId":"3YHH42UU5C1OBN6XN8Q1NCHYRZV0LG","hitId":"3FJ2RVH25ZSYKBA8MWMNC8NVPF629N","url":"https://gershmanlab.com/experiments/alicia/teaching/experiment/?hitId=3FJ2RVH25ZSYKBA8MWMNC8NVPF629N&workerId=A1FDFJCZ4B5N9S&assignmentId=3YHH42UU5C1OBN6XN8Q1NCHYRZV0LG&a=U4HY7&tp_a=U4HY7&b=3YHH42UU5C1OBN6XN8Q1NCHYRZV0LG&tp_b=3YHH42UU5C1OBN6XN8Q1NCHYRZV0LG&c=365717&tp_c=365717","heads":6,"tails":2,"studentIndex":2,"studentTrueHypers":{"a":4,"b":1},"studentGuess":0.7692307692307693,"delta":0.03076923076923077,"totalExamples":8,"bonus":0.42,"bonusSoFar":0.42},{"rt":7694,"response":{"heads":"7","tails":"1"},"type":"response","condition":"nonSeqFull","trueTheta":0.2,"classrooms":["C","D"],"studentTrueClassroom":"C","exampleSet":"first","trial_type":"survey-html-form","trial_index":53,"time_elapsed":1918310,"internal_node_id":"0.0-28.0-0.0","params":{"nStudents":24,"maxFlips":30,"completionMinutes":45,"basePay":8,"maxBonus":9,"perTrialBonus":0.5,"perTrialBonusThreshold":0.05,"exampleCost":0.01},"classroomParams":{"A":{"a":1,"b":4},"B":{"a":4,"b":1},"C":{"a":2,"b":8},"D":{"a":8,"b":2}},"conditions":["nonSeqFull","nonSeqPartial","seqNoFeedback","seqFeedback"],"classroomPairings":[["A","B"],["C","D"]],"coinWeights":[0.2,0.5,0.8],"subjectId":"A1FDFJCZ4B5N9S","assignmentId":"3YHH42UU5C1OBN6XN8Q1NCHYRZV0LG","hitId":"3FJ2RVH25ZSYKBA8MWMNC8NVPF629N","url":"https://gershmanlab.com/experiments/alicia/teaching/experiment/?hitId=3FJ2RVH25ZSYKBA8MWMNC8NVPF629N&workerId=A1FDFJCZ4B5N9S&assignmentId=3YHH42UU5C1OBN6XN8Q1NCHYRZV0LG&a=U4HY7&tp_a=U4HY7&b=3YHH42UU5C1OBN6XN8Q1NCHYRZV0LG&tp_b=3YHH42UU5C1OBN6XN8Q1NCHYRZV0LG&c=365717&tp_c=365717","heads":7,"tails":1,"studentIndex":3,"studentTrueHypers":{"a":2,"b":8},"studentGuess":0.5,"delta":0.3,"totalExamples":8,"bonus":0,"bonusSoFar":0.42},{"rt":4455,"response":{"heads":"2","tails":"6"},"type":"response","condition":"seqNoFeedback","trueTheta":0.2,"classrooms":["C","D"],"studentTrueClassroom":"D","exampleSet":"first","trial_type":"survey-html-form","trial_index":59,"time_elapsed":2015536,"internal_node_id":"0.0-34.0-0.0","params":{"nStudents":24,"maxFlips":30,"completionMinutes":45,"basePay":8,"maxBonus":9,"perTrialBonus":0.5,"perTrialBonusThreshold":0.05,"exampleCost":0.01},"classroomParams":{"A":{"a":1,"b":4},"B":{"a":4,"b":1},"C":{"a":2,"b":8},"D":{"a":8,"b":2}},"conditions":["nonSeqFull","nonSeqPartial","seqNoFeedback","seqFeedback"],"classroomPairings":[["A","B"],["C","D"]],"coinWeights":[0.2,0.5,0.8],"subjectId":"A1FDFJCZ4B5N9S","assignmentId":"3YHH42UU5C1OBN6XN8Q1NCHYRZV0LG","hitId":"3FJ2RVH25ZSYKBA8MWMNC8NVPF629N","url":"https://gershmanlab.com/experiments/alicia/teaching/experiment/?hitId=3FJ2RVH25ZSYKBA8MWMNC8NVPF629N&workerId=A1FDFJCZ4B5N9S&assignmentId=3YHH42UU5C1OBN6XN8Q1NCHYRZV0LG&a=U4HY7&tp_a=U4HY7&b=3YHH42UU5C1OBN6XN8Q1NCHYRZV0LG&tp_b=3YHH42UU5C1OBN6XN8Q1NCHYRZV0LG&c=365717&tp_c=365717","heads":2,"tails":6,"studentIndex":4,"studentTrueHypers":{"a":8,"b":2},"studentGuess":0.5555555555555556,"delta":0.35555555555555557,"totalExamples":8,"bonusSoFar":0.42},{"rt":5087,"response":{"heads":"5","tails":"3"},"type":"response","condition":"seqNoFeedback","trueTheta":0.2,"classrooms":["C","D"],"studentTrueClassroom":"D","exampleSet":"second","trial_type":"survey-html-form","trial_index":62,"time_elapsed":2026632,"internal_node_id":"0.0-37.0-0.0","params":{"nStudents":24,"maxFlips":30,"completionMinutes":45,"basePay":8,"maxBonus":9,"perTrialBonus":0.5,"perTrialBonusThreshold":0.05,"exampleCost":0.01},"classroomParams":{"A":{"a":1,"b":4},"B":{"a":4,"b":1},"C":{"a":2,"b":8},"D":{"a":8,"b":2}},"conditions":["nonSeqFull","nonSeqPartial","seqNoFeedback","seqFeedback"],"classroomPairings":[["A","B"],["C","D"]],"coinWeights":[0.2,0.5,0.8],"subjectId":"A1FDFJCZ4B5N9S","assignmentId":"3YHH42UU5C1OBN6XN8Q1NCHYRZV0LG","hitId":"3FJ2RVH25ZSYKBA8MWMNC8NVPF629N","url":"https://gershmanlab.com/experiments/alicia/teaching/experiment/?hitId=3FJ2RVH25ZSYKBA8MWMNC8NVPF629N&workerId=A1FDFJCZ4B5N9S&assignmentId=3YHH42UU5C1OBN6XN8Q1NCHYRZV0LG&a=U4HY7&tp_a=U4HY7&b=3YHH42UU5C1OBN6XN8Q1NCHYRZV0LG&tp_b=3YHH42UU5C1OBN6XN8Q1NCHYRZV0LG&c=365717&tp_c=365717","firstResponseHeads":2,"firstResponseTails":6,"secondResponseHeads":5,"secondResponseTails":3,"totalHeads":7,"totalTails":9,"studentIndex":4,"studentTrueHypers":{"a":8,"b":2},"studentGuess":0.5769230769230769,"delta":0.37692307692307686,"bonus":0,"bonusSoFar":0.42,"totalExamples":16},{"rt":4350,"response":{"heads":"4","tails":"2"},"type":"response","condition":"seqFeedback","trueTheta":0.2,"classrooms":["C","D"],"studentTrueClassroom":"C","exampleSet":"first","trial_type":"survey-html-form","trial_index":68,"time_elapsed":2041975,"internal_node_id":"0.0-43.0-0.0","params":{"nStudents":24,"maxFlips":30,"completionMinutes":45,"basePay":8,"maxBonus":9,"perTrialBonus":0.5,"perTrialBonusThreshold":0.05,"exampleCost":0.01},"classroomParams":{"A":{"a":1,"b":4},"B":{"a":4,"b":1},"C":{"a":2,"b":8},"D":{"a":8,"b":2}},"conditions":["nonSeqFull","nonSeqPartial","seqNoFeedback","seqFeedback"],"classroomPairings":[["A","B"],["C","D"]],"coinWeights":[0.2,0.5,0.8],"subjectId":"A1FDFJCZ4B5N9S","assignmentId":"3YHH42UU5C1OBN6XN8Q1NCHYRZV0LG","hitId":"3FJ2RVH25ZSYKBA8MWMNC8NVPF629N","url":"https://gershmanlab.com/experiments/alicia/teaching/experiment/?hitId=3FJ2RVH25ZSYKBA8MWMNC8NVPF629N&workerId=A1FDFJCZ4B5N9S&assignmentId=3YHH42UU5C1OBN6XN8Q1NCHYRZV0LG&a=U4HY7&tp_a=U4HY7&b=3YHH42UU5C1OBN6XN8Q1NCHYRZV0LG&tp_b=3YHH42UU5C1OBN6XN8Q1NCHYRZV0LG&c=365717&tp_c=365717","heads":4,"tails":2,"studentIndex":5,"studentTrueHypers":{"a":2,"b":8},"studentGuess":0.375,"delta":0.175,"totalExamples":6,"bonusSoFar":0.42},{"rt":6590,"response":{"heads":"4","tails":"2"},"type":"response","condition":"seqFeedback","trueTheta":0.2,"classrooms":["C","D"],"studentTrueClassroom":"C","exampleSet":"second","trial_type":"survey-html-form","trial_index":72,"time_elapsed":2056968,"internal_node_id":"0.0-47.0-0.0","params":{"nStudents":24,"maxFlips":30,"completionMinutes":45,"basePay":8,"maxBonus":9,"perTrialBonus":0.5,"perTrialBonusThreshold":0.05,"exampleCost":0.01},"classroomParams":{"A":{"a":1,"b":4},"B":{"a":4,"b":1},"C":{"a":2,"b":8},"D":{"a":8,"b":2}},"conditions":["nonSeqFull","nonSeqPartial","seqNoFeedback","seqFeedback"],"classroomPairings":[["A","B"],["C","D"]],"coinWeights":[0.2,0.5,0.8],"subjectId":"A1FDFJCZ4B5N9S","assignmentId":"3YHH42UU5C1OBN6XN8Q1NCHYRZV0LG","hitId":"3FJ2RVH25ZSYKBA8MWMNC8NVPF629N","url":"https://gershmanlab.com/experiments/alicia/teaching/experiment/?hitId=3FJ2RVH25ZSYKBA8MWMNC8NVPF629N&workerId=A1FDFJCZ4B5N9S&assignmentId=3YHH42UU5C1OBN6XN8Q1NCHYRZV0LG&a=U4HY7&tp_a=U4HY7&b=3YHH42UU5C1OBN6XN8Q1NCHYRZV0LG&tp_b=3YHH42UU5C1OBN6XN8Q1NCHYRZV0LG&c=365717&tp_c=365717","firstResponseHeads":4,"firstResponseTails":2,"secondResponseHeads":4,"secondResponseTails":2,"totalHeads":8,"totalTails":4,"studentIndex":5,"studentTrueHypers":{"a":2,"b":8},"studentGuess":0.45454545454545453,"delta":0.2545454545454545,"bonus":0,"bonusSoFar":0.42,"totalExamples":12},{"rt":5852,"response":{"heads":"4","tails":"2"},"type":"response","condition":"nonSeqFull","trueTheta":0.2,"classrooms":["A","B"],"studentTrueClassroom":"A","exampleSet":"first","trial_type":"survey-html-form","trial_index":78,"time_elapsed":2075607,"internal_node_id":"0.0-53.0-0.0","params":{"nStudents":24,"maxFlips":30,"completionMinutes":45,"basePay":8,"maxBonus":9,"perTrialBonus":0.5,"perTrialBonusThreshold":0.05,"exampleCost":0.01},"classroomParams":{"A":{"a":1,"b":4},"B":{"a":4,"b":1},"C":{"a":2,"b":8},"D":{"a":8,"b":2}},"conditions":["nonSeqFull","nonSeqPartial","seqNoFeedback","seqFeedback"],"classroomPairings":[["A","B"],["C","D"]],"coinWeights":[0.2,0.5,0.8],"subjectId":"A1FDFJCZ4B5N9S","assignmentId":"3YHH42UU5C1OBN6XN8Q1NCHYRZV0LG","hitId":"3FJ2RVH25ZSYKBA8MWMNC8NVPF629N","url":"https://gershmanlab.com/experiments/alicia/teaching/experiment/?hitId=3FJ2RVH25ZSYKBA8MWMNC8NVPF629N&workerId=A1FDFJCZ4B5N9S&assignmentId=3YHH42UU5C1OBN6XN8Q1NCHYRZV0LG&a=U4HY7&tp_a=U4HY7&b=3YHH42UU5C1OBN6XN8Q1NCHYRZV0LG&tp_b=3YHH42UU5C1OBN6XN8Q1NCHYRZV0LG&c=365717&tp_c=365717","heads":4,"tails":2,"studentIndex":6,"studentTrueHypers":{"a":1,"b":4},"studentGuess":0.45454545454545453,"delta":0.2545454545454545,"totalExamples":6,"bonus":0,"bonusSoFar":0.42},{"rt":5238,"response":{"heads":"4","tails":"4"},"type":"response","condition":"seqFeedback","trueTheta":0.8,"classrooms":["C","D"],"studentTrueClassroom":"D","exampleSet":"first","trial_type":"survey-html-form","trial_index":84,"time_elapsed":2090951,"internal_node_id":"0.0-59.0-0.0","params":{"nStudents":24,"maxFlips":30,"completionMinutes":45,"basePay":8,"maxBonus":9,"perTrialBonus":0.5,"perTrialBonusThreshold":0.05,"exampleCost":0.01},"classroomParams":{"A":{"a":1,"b":4},"B":{"a":4,"b":1},"C":{"a":2,"b":8},"D":{"a":8,"b":2}},"conditions":["nonSeqFull","nonSeqPartial","seqNoFeedback","seqFeedback"],"classroomPairings":[["A","B"],["C","D"]],"coinWeights":[0.2,0.5,0.8],"subjectId":"A1FDFJCZ4B5N9S","assignmentId":"3YHH42UU5C1OBN6XN8Q1NCHYRZV0LG","hitId":"3FJ2RVH25ZSYKBA8MWMNC8NVPF629N","url":"https://gershmanlab.com/experiments/alicia/teaching/experiment/?hitId=3FJ2RVH25ZSYKBA8MWMNC8NVPF629N&workerId=A1FDFJCZ4B5N9S&assignmentId=3YHH42UU5C1OBN6XN8Q1NCHYRZV0LG&a=U4HY7&tp_a=U4HY7&b=3YHH42UU5C1OBN6XN8Q1NCHYRZV0LG&tp_b=3YHH42UU5C1OBN6XN8Q1NCHYRZV0LG&c=365717&tp_c=365717","heads":4,"tails":4,"studentIndex":7,"studentTrueHypers":{"a":8,"b":2},"studentGuess":0.6666666666666666,"delta":0.13333333333333341,"totalExamples":8,"bonusSoFar":0.42},{"rt":6383,"response":{"heads":"6","tails":"2"},"type":"response","condition":"seqFeedback","trueTheta":0.8,"classrooms":["C","D"],"studentTrueClassroom":"D","exampleSet":"second","trial_type":"survey-html-form","trial_index":88,"time_elapsed":2106511,"internal_node_id":"0.0-63.0-0.0","params":{"nStudents":24,"maxFlips":30,"completionMinutes":45,"basePay":8,"maxBonus":9,"perTrialBonus":0.5,"perTrialBonusThreshold":0.05,"exampleCost":0.01},"classroomParams":{"A":{"a":1,"b":4},"B":{"a":4,"b":1},"C":{"a":2,"b":8},"D":{"a":8,"b":2}},"conditions":["nonSeqFull","nonSeqPartial","seqNoFeedback","seqFeedback"],"classroomPairings":[["A","B"],["C","D"]],"coinWeights":[0.2,0.5,0.8],"subjectId":"A1FDFJCZ4B5N9S","assignmentId":"3YHH42UU5C1OBN6XN8Q1NCHYRZV0LG","hitId":"3FJ2RVH25ZSYKBA8MWMNC8NVPF629N","url":"https://gershmanlab.com/experiments/alicia/teaching/experiment/?hitId=3FJ2RVH25ZSYKBA8MWMNC8NVPF629N&workerId=A1FDFJCZ4B5N9S&assignmentId=3YHH42UU5C1OBN6XN8Q1NCHYRZV0LG&a=U4HY7&tp_a=U4HY7&b=3YHH42UU5C1OBN6XN8Q1NCHYRZV0LG&tp_b=3YHH42UU5C1OBN6XN8Q1NCHYRZV0LG&c=365717&tp_c=365717","firstResponseHeads":4,"firstResponseTails":4,"secondResponseHeads":6,"secondResponseTails":2,"totalHeads":10,"totalTails":6,"studentIndex":7,"studentTrueHypers":{"a":8,"b":2},"studentGuess":0.6923076923076923,"delta":0.10769230769230775,"bonus":0,"bonusSoFar":0.42,"totalExamples":16},{"rt":3606,"response":{"heads":"4","tails":"4"},"type":"response","condition":"nonSeqFull","trueTheta":0.5,"classrooms":["C","D"],"studentTrueClassroom":"D","exampleSet":"first","trial_type":"survey-html-form","trial_index":94,"time_elapsed":2121456,"internal_node_id":"0.0-69.0-0.0","params":{"nStudents":24,"maxFlips":30,"completionMinutes":45,"basePay":8,"maxBonus":9,"perTrialBonus":0.5,"perTrialBonusThreshold":0.05,"exampleCost":0.01},"classroomParams":{"A":{"a":1,"b":4},"B":{"a":4,"b":1},"C":{"a":2,"b":8},"D":{"a":8,"b":2}},"conditions":["nonSeqFull","nonSeqPartial","seqNoFeedback","seqFeedback"],"classroomPairings":[["A","B"],["C","D"]],"coinWeights":[0.2,0.5,0.8],"subjectId":"A1FDFJCZ4B5N9S","assignmentId":"3YHH42UU5C1OBN6XN8Q1NCHYRZV0LG","hitId":"3FJ2RVH25ZSYKBA8MWMNC8NVPF629N","url":"https://gershmanlab.com/experiments/alicia/teaching/experiment/?hitId=3FJ2RVH25ZSYKBA8MWMNC8NVPF629N&workerId=A1FDFJCZ4B5N9S&assignmentId=3YHH42UU5C1OBN6XN8Q1NCHYRZV0LG&a=U4HY7&tp_a=U4HY7&b=3YHH42UU5C1OBN6XN8Q1NCHYRZV0LG&tp_b=3YHH42UU5C1OBN6XN8Q1NCHYRZV0LG&c=365717&tp_c=365717","heads":4,"tails":4,"studentIndex":8,"studentTrueHypers":{"a":8,"b":2},"studentGuess":0.6666666666666666,"delta":0.16666666666666663,"totalExamples":8,"bonus":0,"bonusSoFar":0.42},{"rt":7145,"response":{"heads":"4","tails":"4"},"type":"response","condition":"nonSeqPartial","trueTheta":0.5,"classrooms":["C","D"],"studentTrueClassroom":"D","exampleSet":"first","trial_type":"survey-html-form","trial_index":100,"time_elapsed":2140345,"internal_node_id":"0.0-75.0-0.0","params":{"nStudents":24,"maxFlips":30,"completionMinutes":45,"basePay":8,"maxBonus":9,"perTrialBonus":0.5,"perTrialBonusThreshold":0.05,"exampleCost":0.01},"classroomParams":{"A":{"a":1,"b":4},"B":{"a":4,"b":1},"C":{"a":2,"b":8},"D":{"a":8,"b":2}},"conditions":["nonSeqFull","nonSeqPartial","seqNoFeedback","seqFeedback"],"classroomPairings":[["A","B"],["C","D"]],"coinWeights":[0.2,0.5,0.8],"subjectId":"A1FDFJCZ4B5N9S","assignmentId":"3YHH42UU5C1OBN6XN8Q1NCHYRZV0LG","hitId":"3FJ2RVH25ZSYKBA8MWMNC8NVPF629N","url":"https://gershmanlab.com/experiments/alicia/teaching/experiment/?hitId=3FJ2RVH25ZSYKBA8MWMNC8NVPF629N&workerId=A1FDFJCZ4B5N9S&assignmentId=3YHH42UU5C1OBN6XN8Q1NCHYRZV0LG&a=U4HY7&tp_a=U4HY7&b=3YHH42UU5C1OBN6XN8Q1NCHYRZV0LG&tp_b=3YHH42UU5C1OBN6XN8Q1NCHYRZV0LG&c=365717&tp_c=365717","heads":4,"tails":4,"studentIndex":9,"studentTrueHypers":{"a":8,"b":2},"studentGuess":0.6666666666666666,"delta":0.16666666666666663,"totalExamples":8,"bonus":0,"bonusSoFar":0.42},{"rt":5965,"response":{"heads":"4","tails":"4"},"type":"response","condition":"seqNoFeedback","trueTheta":0.2,"classrooms":["A","B"],"studentTrueClassroom":"A","exampleSet":"first","trial_type":"survey-html-form","trial_index":106,"time_elapsed":2159032,"internal_node_id":"0.0-81.0-0.0","params":{"nStudents":24,"maxFlips":30,"completionMinutes":45,"basePay":8,"maxBonus":9,"perTrialBonus":0.5,"perTrialBonusThreshold":0.05,"exampleCost":0.01},"classroomParams":{"A":{"a":1,"b":4},"B":{"a":4,"b":1},"C":{"a":2,"b":8},"D":{"a":8,"b":2}},"conditions":["nonSeqFull","nonSeqPartial","seqNoFeedback","seqFeedback"],"classroomPairings":[["A","B"],["C","D"]],"coinWeights":[0.2,0.5,0.8],"subjectId":"A1FDFJCZ4B5N9S","assignmentId":"3YHH42UU5C1OBN6XN8Q1NCHYRZV0LG","hitId":"3FJ2RVH25ZSYKBA8MWMNC8NVPF629N","url":"https://gershmanlab.com/experiments/alicia/teaching/experiment/?hitId=3FJ2RVH25ZSYKBA8MWMNC8NVPF629N&workerId=A1FDFJCZ4B5N9S&assignmentId=3YHH42UU5C1OBN6XN8Q1NCHYRZV0LG&a=U4HY7&tp_a=U4HY7&b=3YHH42UU5C1OBN6XN8Q1NCHYRZV0LG&tp_b=3YHH42UU5C1OBN6XN8Q1NCHYRZV0LG&c=365717&tp_c=365717","heads":4,"tails":4,"studentIndex":10,"studentTrueHypers":{"a":1,"b":4},"studentGuess":0.38461538461538464,"delta":0.18461538461538463,"totalExamples":8,"bonusSoFar":0.42},{"rt":12705,"response":{"heads":"3","tails":"5"},"type":"response","condition":"seqNoFeedback","trueTheta":0.2,"classrooms":["A","B"],"studentTrueClassroom":"A","exampleSet":"second","trial_type":"survey-html-form","trial_index":109,"time_elapsed":2177256,"internal_node_id":"0.0-84.0-0.0","params":{"nStudents":24,"maxFlips":30,"completionMinutes":45,"basePay":8,"maxBonus":9,"perTrialBonus":0.5,"perTrialBonusThreshold":0.05,"exampleCost":0.01},"classroomParams":{"A":{"a":1,"b":4},"B":{"a":4,"b":1},"C":{"a":2,"b":8},"D":{"a":8,"b":2}},"conditions":["nonSeqFull","nonSeqPartial","seqNoFeedback","seqFeedback"],"classroomPairings":[["A","B"],["C","D"]],"coinWeights":[0.2,0.5,0.8],"subjectId":"A1FDFJCZ4B5N9S","assignmentId":"3YHH42UU5C1OBN6XN8Q1NCHYRZV0LG","hitId":"3FJ2RVH25ZSYKBA8MWMNC8NVPF629N","url":"https://gershmanlab.com/experiments/alicia/teaching/experiment/?hitId=3FJ2RVH25ZSYKBA8MWMNC8NVPF629N&workerId=A1FDFJCZ4B5N9S&assignmentId=3YHH42UU5C1OBN6XN8Q1NCHYRZV0LG&a=U4HY7&tp_a=U4HY7&b=3YHH42UU5C1OBN6XN8Q1NCHYRZV0LG&tp_b=3YHH42UU5C1OBN6XN8Q1NCHYRZV0LG&c=365717&tp_c=365717","firstResponseHeads":4,"firstResponseTails":4,"secondResponseHeads":3,"secondResponseTails":5,"totalHeads":7,"totalTails":9,"studentIndex":10,"studentTrueHypers":{"a":1,"b":4},"studentGuess":0.38095238095238093,"delta":0.18095238095238092,"bonus":0,"bonusSoFar":0.42,"totalExamples":16},{"rt":5181,"response":{"heads":"6","tails":"2"},"type":"response","condition":"nonSeqFull","trueTheta":0.8,"classrooms":["C","D"],"studentTrueClassroom":"C","exampleSet":"first","trial_type":"survey-html-form","trial_index":115,"time_elapsed":2222231,"internal_node_id":"0.0-90.0-0.0","params":{"nStudents":24,"maxFlips":30,"completionMinutes":45,"basePay":8,"maxBonus":9,"perTrialBonus":0.5,"perTrialBonusThreshold":0.05,"exampleCost":0.01},"classroomParams":{"A":{"a":1,"b":4},"B":{"a":4,"b":1},"C":{"a":2,"b":8},"D":{"a":8,"b":2}},"conditions":["nonSeqFull","nonSeqPartial","seqNoFeedback","seqFeedback"],"classroomPairings":[["A","B"],["C","D"]],"coinWeights":[0.2,0.5,0.8],"subjectId":"A1FDFJCZ4B5N9S","assignmentId":"3YHH42UU5C1OBN6XN8Q1NCHYRZV0LG","hitId":"3FJ2RVH25ZSYKBA8MWMNC8NVPF629N","url":"https://gershmanlab.com/experiments/alicia/teaching/experiment/?hitId=3FJ2RVH25ZSYKBA8MWMNC8NVPF629N&workerId=A1FDFJCZ4B5N9S&assignmentId=3YHH42UU5C1OBN6XN8Q1NCHYRZV0LG&a=U4HY7&tp_a=U4HY7&b=3YHH42UU5C1OBN6XN8Q1NCHYRZV0LG&tp_b=3YHH42UU5C1OBN6XN8Q1NCHYRZV0LG&c=365717&tp_c=365717","heads":6,"tails":2,"studentIndex":11,"studentTrueHypers":{"a":2,"b":8},"studentGuess":0.4444444444444444,"delta":0.3555555555555556,"totalExamples":8,"bonus":0,"bonusSoFar":0.42},{"rt":5414,"response":{"heads":"4","tails":"4"},"type":"response","condition":"seqNoFeedback","trueTheta":0.8,"classrooms":["A","B"],"studentTrueClassroom":"A","exampleSet":"first","trial_type":"survey-html-form","trial_index":121,"time_elapsed":2240863,"internal_node_id":"0.0-96.0-0.0","params":{"nStudents":24,"maxFlips":30,"completionMinutes":45,"basePay":8,"maxBonus":9,"perTrialBonus":0.5,"perTrialBonusThreshold":0.05,"exampleCost":0.01},"classroomParams":{"A":{"a":1,"b":4},"B":{"a":4,"b":1},"C":{"a":2,"b":8},"D":{"a":8,"b":2}},"conditions":["nonSeqFull","nonSeqPartial","seqNoFeedback","seqFeedback"],"classroomPairings":[["A","B"],["C","D"]],"coinWeights":[0.2,0.5,0.8],"subjectId":"A1FDFJCZ4B5N9S","assignmentId":"3YHH42UU5C1OBN6XN8Q1NCHYRZV0LG","hitId":"3FJ2RVH25ZSYKBA8MWMNC8NVPF629N","url":"https://gershmanlab.com/experiments/alicia/teaching/experiment/?hitId=3FJ2RVH25ZSYKBA8MWMNC8NVPF629N&workerId=A1FDFJCZ4B5N9S&assignmentId=3YHH42UU5C1OBN6XN8Q1NCHYRZV0LG&a=U4HY7&tp_a=U4HY7&b=3YHH42UU5C1OBN6XN8Q1NCHYRZV0LG&tp_b=3YHH42UU5C1OBN6XN8Q1NCHYRZV0LG&c=365717&tp_c=365717","heads":4,"tails":4,"studentIndex":12,"studentTrueHypers":{"a":1,"b":4},"studentGuess":0.38461538461538464,"delta":0.4153846153846154,"totalExamples":8,"bonusSoFar":0.42},{"rt":4802,"response":{"heads":"4","tails":"4"},"type":"response","condition":"seqNoFeedback","trueTheta":0.8,"classrooms":["A","B"],"studentTrueClassroom":"A","exampleSet":"second","trial_type":"survey-html-form","trial_index":124,"time_elapsed":2252431,"internal_node_id":"0.0-99.0-0.0","params":{"nStudents":24,"maxFlips":30,"completionMinutes":45,"basePay":8,"maxBonus":9,"perTrialBonus":0.5,"perTrialBonusThreshold":0.05,"exampleCost":0.01},"classroomParams":{"A":{"a":1,"b":4},"B":{"a":4,"b":1},"C":{"a":2,"b":8},"D":{"a":8,"b":2}},"conditions":["nonSeqFull","nonSeqPartial","seqNoFeedback","seqFeedback"],"classroomPairings":[["A","B"],["C","D"]],"coinWeights":[0.2,0.5,0.8],"subjectId":"A1FDFJCZ4B5N9S","assignmentId":"3YHH42UU5C1OBN6XN8Q1NCHYRZV0LG","hitId":"3FJ2RVH25ZSYKBA8MWMNC8NVPF629N","url":"https://gershmanlab.com/experiments/alicia/teaching/experiment/?hitId=3FJ2RVH25ZSYKBA8MWMNC8NVPF629N&workerId=A1FDFJCZ4B5N9S&assignmentId=3YHH42UU5C1OBN6XN8Q1NCHYRZV0LG&a=U4HY7&tp_a=U4HY7&b=3YHH42UU5C1OBN6XN8Q1NCHYRZV0LG&tp_b=3YHH42UU5C1OBN6XN8Q1NCHYRZV0LG&c=365717&tp_c=365717","firstResponseHeads":4,"firstResponseTails":4,"secondResponseHeads":4,"secondResponseTails":4,"totalHeads":8,"totalTails":8,"studentIndex":12,"studentTrueHypers":{"a":1,"b":4},"studentGuess":0.42857142857142855,"delta":0.3714285714285715,"bonus":0,"bonusSoFar":0.42,"totalExamples":16},{"rt":4544,"response":{"heads":"4","tails":"4"},"type":"response","condition":"nonSeqPartial","trueTheta":0.8,"classrooms":["A","B"],"studentTrueClassroom":"B","exampleSet":"first","trial_type":"survey-html-form","trial_index":130,"time_elapsed":2336297,"internal_node_id":"0.0-105.0-0.0","params":{"nStudents":24,"maxFlips":30,"completionMinutes":45,"basePay":8,"maxBonus":9,"perTrialBonus":0.5,"perTrialBonusThreshold":0.05,"exampleCost":0.01},"classroomParams":{"A":{"a":1,"b":4},"B":{"a":4,"b":1},"C":{"a":2,"b":8},"D":{"a":8,"b":2}},"conditions":["nonSeqFull","nonSeqPartial","seqNoFeedback","seqFeedback"],"classroomPairings":[["A","B"],["C","D"]],"coinWeights":[0.2,0.5,0.8],"subjectId":"A1FDFJCZ4B5N9S","assignmentId":"3YHH42UU5C1OBN6XN8Q1NCHYRZV0LG","hitId":"3FJ2RVH25ZSYKBA8MWMNC8NVPF629N","url":"https://gershmanlab.com/experiments/alicia/teaching/experiment/?hitId=3FJ2RVH25ZSYKBA8MWMNC8NVPF629N&workerId=A1FDFJCZ4B5N9S&assignmentId=3YHH42UU5C1OBN6XN8Q1NCHYRZV0LG&a=U4HY7&tp_a=U4HY7&b=3YHH42UU5C1OBN6XN8Q1NCHYRZV0LG&tp_b=3YHH42UU5C1OBN6XN8Q1NCHYRZV0LG&c=365717&tp_c=365717","heads":4,"tails":4,"studentIndex":13,"studentTrueHypers":{"a":4,"b":1},"studentGuess":0.6153846153846154,"delta":0.18461538461538463,"totalExamples":8,"bonus":0,"bonusSoFar":0.42},{"rt":5841,"response":{"heads":"2","tails":"4"},"type":"response","condition":"seqNoFeedback","trueTheta":0.5,"classrooms":["C","D"],"studentTrueClassroom":"D","exampleSet":"first","trial_type":"survey-html-form","trial_index":136,"time_elapsed":2355175,"internal_node_id":"0.0-111.0-0.0","params":{"nStudents":24,"maxFlips":30,"completionMinutes":45,"basePay":8,"maxBonus":9,"perTrialBonus":0.5,"perTrialBonusThreshold":0.05,"exampleCost":0.01},"classroomParams":{"A":{"a":1,"b":4},"B":{"a":4,"b":1},"C":{"a":2,"b":8},"D":{"a":8,"b":2}},"conditions":["nonSeqFull","nonSeqPartial","seqNoFeedback","seqFeedback"],"classroomPairings":[["A","B"],["C","D"]],"coinWeights":[0.2,0.5,0.8],"subjectId":"A1FDFJCZ4B5N9S","assignmentId":"3YHH42UU5C1OBN6XN8Q1NCHYRZV0LG","hitId":"3FJ2RVH25ZSYKBA8MWMNC8NVPF629N","url":"https://gershmanlab.com/experiments/alicia/teaching/experiment/?hitId=3FJ2RVH25ZSYKBA8MWMNC8NVPF629N&workerId=A1FDFJCZ4B5N9S&assignmentId=3YHH42UU5C1OBN6XN8Q1NCHYRZV0LG&a=U4HY7&tp_a=U4HY7&b=3YHH42UU5C1OBN6XN8Q1NCHYRZV0LG&tp_b=3YHH42UU5C1OBN6XN8Q1NCHYRZV0LG&c=365717&tp_c=365717","heads":2,"tails":4,"studentIndex":14,"studentTrueHypers":{"a":8,"b":2},"studentGuess":0.625,"delta":0.125,"totalExamples":6,"bonusSoFar":0.42},{"rt":6607,"response":{"heads":"3","tails":"5"},"type":"response","condition":"seqNoFeedback","trueTheta":0.5,"classrooms":["C","D"],"studentTrueClassroom":"D","exampleSet":"second","trial_type":"survey-html-form","trial_index":139,"time_elapsed":2367295,"internal_node_id":"0.0-114.0-0.0","params":{"nStudents":24,"maxFlips":30,"completionMinutes":45,"basePay":8,"maxBonus":9,"perTrialBonus":0.5,"perTrialBonusThreshold":0.05,"exampleCost":0.01},"classroomParams":{"A":{"a":1,"b":4},"B":{"a":4,"b":1},"C":{"a":2,"b":8},"D":{"a":8,"b":2}},"conditions":["nonSeqFull","nonSeqPartial","seqNoFeedback","seqFeedback"],"classroomPairings":[["A","B"],["C","D"]],"coinWeights":[0.2,0.5,0.8],"subjectId":"A1FDFJCZ4B5N9S","assignmentId":"3YHH42UU5C1OBN6XN8Q1NCHYRZV0LG","hitId":"3FJ2RVH25ZSYKBA8MWMNC8NVPF629N","url":"https://gershmanlab.com/experiments/alicia/teaching/experiment/?hitId=3FJ2RVH25ZSYKBA8MWMNC8NVPF629N&workerId=A1FDFJCZ4B5N9S&assignmentId=3YHH42UU5C1OBN6XN8Q1NCHYRZV0LG&a=U4HY7&tp_a=U4HY7&b=3YHH42UU5C1OBN6XN8Q1NCHYRZV0LG&tp_b=3YHH42UU5C1OBN6XN8Q1NCHYRZV0LG&c=365717&tp_c=365717","firstResponseHeads":2,"firstResponseTails":4,"secondResponseHeads":3,"secondResponseTails":5,"totalHeads":5,"totalTails":9,"studentIndex":14,"studentTrueHypers":{"a":8,"b":2},"studentGuess":0.5416666666666666,"delta":0.04166666666666663,"bonus":0.36,"bonusSoFar":0.78,"totalExamples":14},{"rt":3701,"response":{"heads":"4","tails":"4"},"type":"response","condition":"nonSeqPartial","trueTheta":0.2,"classrooms":["C","D"],"studentTrueClassroom":"C","exampleSet":"first","trial_type":"survey-html-form","trial_index":145,"time_elapsed":2385663,"internal_node_id":"0.0-120.0-0.0","params":{"nStudents":24,"maxFlips":30,"completionMinutes":45,"basePay":8,"maxBonus":9,"perTrialBonus":0.5,"perTrialBonusThreshold":0.05,"exampleCost":0.01},"classroomParams":{"A":{"a":1,"b":4},"B":{"a":4,"b":1},"C":{"a":2,"b":8},"D":{"a":8,"b":2}},"conditions":["nonSeqFull","nonSeqPartial","seqNoFeedback","seqFeedback"],"classroomPairings":[["A","B"],["C","D"]],"coinWeights":[0.2,0.5,0.8],"subjectId":"A1FDFJCZ4B5N9S","assignmentId":"3YHH42UU5C1OBN6XN8Q1NCHYRZV0LG","hitId":"3FJ2RVH25ZSYKBA8MWMNC8NVPF629N","url":"https://gershmanlab.com/experiments/alicia/teaching/experiment/?hitId=3FJ2RVH25ZSYKBA8MWMNC8NVPF629N&workerId=A1FDFJCZ4B5N9S&assignmentId=3YHH42UU5C1OBN6XN8Q1NCHYRZV0LG&a=U4HY7&tp_a=U4HY7&b=3YHH42UU5C1OBN6XN8Q1NCHYRZV0LG&tp_b=3YHH42UU5C1OBN6XN8Q1NCHYRZV0LG&c=365717&tp_c=365717","heads":4,"tails":4,"studentIndex":15,"studentTrueHypers":{"a":2,"b":8},"studentGuess":0.3333333333333333,"delta":0.1333333333333333,"totalExamples":8,"bonus":0,"bonusSoFar":0.78},{"rt":5158,"response":{"heads":"4","tails":"4"},"type":"response","condition":"seqNoFeedback","trueTheta":0.5,"classrooms":["A","B"],"studentTrueClassroom":"A","exampleSet":"first","trial_type":"survey-html-form","trial_index":151,"time_elapsed":2401944,"internal_node_id":"0.0-126.0-0.0","params":{"nStudents":24,"maxFlips":30,"completionMinutes":45,"basePay":8,"maxBonus":9,"perTrialBonus":0.5,"perTrialBonusThreshold":0.05,"exampleCost":0.01},"classroomParams":{"A":{"a":1,"b":4},"B":{"a":4,"b":1},"C":{"a":2,"b":8},"D":{"a":8,"b":2}},"conditions":["nonSeqFull","nonSeqPartial","seqNoFeedback","seqFeedback"],"classroomPairings":[["A","B"],["C","D"]],"coinWeights":[0.2,0.5,0.8],"subjectId":"A1FDFJCZ4B5N9S","assignmentId":"3YHH42UU5C1OBN6XN8Q1NCHYRZV0LG","hitId":"3FJ2RVH25ZSYKBA8MWMNC8NVPF629N","url":"https://gershmanlab.com/experiments/alicia/teaching/experiment/?hitId=3FJ2RVH25ZSYKBA8MWMNC8NVPF629N&workerId=A1FDFJCZ4B5N9S&assignmentId=3YHH42UU5C1OBN6XN8Q1NCHYRZV0LG&a=U4HY7&tp_a=U4HY7&b=3YHH42UU5C1OBN6XN8Q1NCHYRZV0LG&tp_b=3YHH42UU5C1OBN6XN8Q1NCHYRZV0LG&c=365717&tp_c=365717","heads":4,"tails":4,"studentIndex":16,"studentTrueHypers":{"a":1,"b":4},"studentGuess":0.38461538461538464,"delta":0.11538461538461536,"totalExamples":8,"bonusSoFar":0.78},{"rt":4023,"response":{"heads":"3","tails":"5"},"type":"response","condition":"seqNoFeedback","trueTheta":0.5,"classrooms":["A","B"],"studentTrueClassroom":"A","exampleSet":"second","trial_type":"survey-html-form","trial_index":154,"time_elapsed":2411495,"internal_node_id":"0.0-129.0-0.0","params":{"nStudents":24,"maxFlips":30,"completionMinutes":45,"basePay":8,"maxBonus":9,"perTrialBonus":0.5,"perTrialBonusThreshold":0.05,"exampleCost":0.01},"classroomParams":{"A":{"a":1,"b":4},"B":{"a":4,"b":1},"C":{"a":2,"b":8},"D":{"a":8,"b":2}},"conditions":["nonSeqFull","nonSeqPartial","seqNoFeedback","seqFeedback"],"classroomPairings":[["A","B"],["C","D"]],"coinWeights":[0.2,0.5,0.8],"subjectId":"A1FDFJCZ4B5N9S","assignmentId":"3YHH42UU5C1OBN6XN8Q1NCHYRZV0LG","hitId":"3FJ2RVH25ZSYKBA8MWMNC8NVPF629N","url":"https://gershmanlab.com/experiments/alicia/teaching/experiment/?hitId=3FJ2RVH25ZSYKBA8MWMNC8NVPF629N&workerId=A1FDFJCZ4B5N9S&assignmentId=3YHH42UU5C1OBN6XN8Q1NCHYRZV0LG&a=U4HY7&tp_a=U4HY7&b=3YHH42UU5C1OBN6XN8Q1NCHYRZV0LG&tp_b=3YHH42UU5C1OBN6XN8Q1NCHYRZV0LG&c=365717&tp_c=365717","firstResponseHeads":4,"firstResponseTails":4,"secondResponseHeads":3,"secondResponseTails":5,"totalHeads":7,"totalTails":9,"studentIndex":16,"studentTrueHypers":{"a":1,"b":4},"studentGuess":0.38095238095238093,"delta":0.11904761904761907,"bonus":0,"bonusSoFar":0.78,"totalExamples":16},{"rt":5390,"response":{"heads":"7","tails":"1"},"type":"response","condition":"seqNoFeedback","trueTheta":0.8,"classrooms":["C","D"],"studentTrueClassroom":"C","exampleSet":"first","trial_type":"survey-html-form","trial_index":160,"time_elapsed":2430087,"internal_node_id":"0.0-135.0-0.0","params":{"nStudents":24,"maxFlips":30,"completionMinutes":45,"basePay":8,"maxBonus":9,"perTrialBonus":0.5,"perTrialBonusThreshold":0.05,"exampleCost":0.01},"classroomParams":{"A":{"a":1,"b":4},"B":{"a":4,"b":1},"C":{"a":2,"b":8},"D":{"a":8,"b":2}},"conditions":["nonSeqFull","nonSeqPartial","seqNoFeedback","seqFeedback"],"classroomPairings":[["A","B"],["C","D"]],"coinWeights":[0.2,0.5,0.8],"subjectId":"A1FDFJCZ4B5N9S","assignmentId":"3YHH42UU5C1OBN6XN8Q1NCHYRZV0LG","hitId":"3FJ2RVH25ZSYKBA8MWMNC8NVPF629N","url":"https://gershmanlab.com/experiments/alicia/teaching/experiment/?hitId=3FJ2RVH25ZSYKBA8MWMNC8NVPF629N&workerId=A1FDFJCZ4B5N9S&assignmentId=3YHH42UU5C1OBN6XN8Q1NCHYRZV0LG&a=U4HY7&tp_a=U4HY7&b=3YHH42UU5C1OBN6XN8Q1NCHYRZV0LG&tp_b=3YHH42UU5C1OBN6XN8Q1NCHYRZV0LG&c=365717&tp_c=365717","heads":7,"tails":1,"studentIndex":17,"studentTrueHypers":{"a":2,"b":8},"studentGuess":0.5,"delta":0.30000000000000004,"totalExamples":8,"bonusSoFar":0.78},{"rt":4094,"response":{"heads":"8","tails":"0"},"type":"response","condition":"seqNoFeedback","trueTheta":0.8,"classrooms":["C","D"],"studentTrueClassroom":"C","exampleSet":"second","trial_type":"survey-html-form","trial_index":163,"time_elapsed":2440439,"internal_node_id":"0.0-138.0-0.0","params":{"nStudents":24,"maxFlips":30,"completionMinutes":45,"basePay":8,"maxBonus":9,"perTrialBonus":0.5,"perTrialBonusThreshold":0.05,"exampleCost":0.01},"classroomParams":{"A":{"a":1,"b":4},"B":{"a":4,"b":1},"C":{"a":2,"b":8},"D":{"a":8,"b":2}},"conditions":["nonSeqFull","nonSeqPartial","seqNoFeedback","seqFeedback"],"classroomPairings":[["A","B"],["C","D"]],"coinWeights":[0.2,0.5,0.8],"subjectId":"A1FDFJCZ4B5N9S","assignmentId":"3YHH42UU5C1OBN6XN8Q1NCHYRZV0LG","hitId":"3FJ2RVH25ZSYKBA8MWMNC8NVPF629N","url":"https://gershmanlab.com/experiments/alicia/teaching/experiment/?hitId=3FJ2RVH25ZSYKBA8MWMNC8NVPF629N&workerId=A1FDFJCZ4B5N9S&assignmentId=3YHH42UU5C1OBN6XN8Q1NCHYRZV0LG&a=U4HY7&tp_a=U4HY7&b=3YHH42UU5C1OBN6XN8Q1NCHYRZV0LG&tp_b=3YHH42UU5C1OBN6XN8Q1NCHYRZV0LG&c=365717&tp_c=365717","firstResponseHeads":7,"firstResponseTails":1,"secondResponseHeads":8,"secondResponseTails":0,"totalHeads":15,"totalTails":1,"studentIndex":17,"studentTrueHypers":{"a":2,"b":8},"studentGuess":0.6538461538461539,"delta":0.1461538461538462,"bonus":0,"bonusSoFar":0.78,"totalExamples":16},{"rt":2599,"response":{"heads":"8","tails":"0"},"type":"response","condition":"nonSeqPartial","trueTheta":0.8,"classrooms":["C","D"],"studentTrueClassroom":"C","exampleSet":"first","trial_type":"survey-html-form","trial_index":169,"time_elapsed":2454624,"internal_node_id":"0.0-144.0-0.0","params":{"nStudents":24,"maxFlips":30,"completionMinutes":45,"basePay":8,"maxBonus":9,"perTrialBonus":0.5,"perTrialBonusThreshold":0.05,"exampleCost":0.01},"classroomParams":{"A":{"a":1,"b":4},"B":{"a":4,"b":1},"C":{"a":2,"b":8},"D":{"a":8,"b":2}},"conditions":["nonSeqFull","nonSeqPartial","seqNoFeedback","seqFeedback"],"classroomPairings":[["A","B"],["C","D"]],"coinWeights":[0.2,0.5,0.8],"subjectId":"A1FDFJCZ4B5N9S","assignmentId":"3YHH42UU5C1OBN6XN8Q1NCHYRZV0LG","hitId":"3FJ2RVH25ZSYKBA8MWMNC8NVPF629N","url":"https://gershmanlab.com/experiments/alicia/teaching/experiment/?hitId=3FJ2RVH25ZSYKBA8MWMNC8NVPF629N&workerId=A1FDFJCZ4B5N9S&assignmentId=3YHH42UU5C1OBN6XN8Q1NCHYRZV0LG&a=U4HY7&tp_a=U4HY7&b=3YHH42UU5C1OBN6XN8Q1NCHYRZV0LG&tp_b=3YHH42UU5C1OBN6XN8Q1NCHYRZV0LG&c=365717&tp_c=365717","heads":8,"tails":0,"studentIndex":18,"studentTrueHypers":{"a":2,"b":8},"studentGuess":0.5555555555555556,"delta":0.24444444444444446,"totalExamples":8,"bonus":0,"bonusSoFar":0.78},{"rt":4911,"response":{"heads":"4","tails":"3"},"type":"response","condition":"nonSeqFull","trueTheta":0.5,"classrooms":["A","B"],"studentTrueClassroom":"B","exampleSet":"first","trial_type":"survey-html-form","trial_index":175,"time_elapsed":2472651,"internal_node_id":"0.0-150.0-0.0","params":{"nStudents":24,"maxFlips":30,"completionMinutes":45,"basePay":8,"maxBonus":9,"perTrialBonus":0.5,"perTrialBonusThreshold":0.05,"exampleCost":0.01},"classroomParams":{"A":{"a":1,"b":4},"B":{"a":4,"b":1},"C":{"a":2,"b":8},"D":{"a":8,"b":2}},"conditions":["nonSeqFull","nonSeqPartial","seqNoFeedback","seqFeedback"],"classroomPairings":[["A","B"],["C","D"]],"coinWeights":[0.2,0.5,0.8],"subjectId":"A1FDFJCZ4B5N9S","assignmentId":"3YHH42UU5C1OBN6XN8Q1NCHYRZV0LG","hitId":"3FJ2RVH25ZSYKBA8MWMNC8NVPF629N","url":"https://gershmanlab.com/experiments/alicia/teaching/experiment/?hitId=3FJ2RVH25ZSYKBA8MWMNC8NVPF629N&workerId=A1FDFJCZ4B5N9S&assignmentId=3YHH42UU5C1OBN6XN8Q1NCHYRZV0LG&a=U4HY7&tp_a=U4HY7&b=3YHH42UU5C1OBN6XN8Q1NCHYRZV0LG&tp_b=3YHH42UU5C1OBN6XN8Q1NCHYRZV0LG&c=365717&tp_c=365717","heads":4,"tails":3,"studentIndex":19,"studentTrueHypers":{"a":4,"b":1},"studentGuess":0.6666666666666666,"delta":0.16666666666666663,"totalExamples":7,"bonus":0,"bonusSoFar":0.78},{"rt":3115,"response":{"heads":"5","tails":"0"},"type":"response","condition":"seqFeedback","trueTheta":0.5,"classrooms":["C","D"],"studentTrueClassroom":"D","exampleSet":"first","trial_type":"survey-html-form","trial_index":181,"time_elapsed":2488740,"internal_node_id":"0.0-156.0-0.0","params":{"nStudents":24,"maxFlips":30,"completionMinutes":45,"basePay":8,"maxBonus":9,"perTrialBonus":0.5,"perTrialBonusThreshold":0.05,"exampleCost":0.01},"classroomParams":{"A":{"a":1,"b":4},"B":{"a":4,"b":1},"C":{"a":2,"b":8},"D":{"a":8,"b":2}},"conditions":["nonSeqFull","nonSeqPartial","seqNoFeedback","seqFeedback"],"classroomPairings":[["A","B"],["C","D"]],"coinWeights":[0.2,0.5,0.8],"subjectId":"A1FDFJCZ4B5N9S","assignmentId":"3YHH42UU5C1OBN6XN8Q1NCHYRZV0LG","hitId":"3FJ2RVH25ZSYKBA8MWMNC8NVPF629N","url":"https://gershmanlab.com/experiments/alicia/teaching/experiment/?hitId=3FJ2RVH25ZSYKBA8MWMNC8NVPF629N&workerId=A1FDFJCZ4B5N9S&assignmentId=3YHH42UU5C1OBN6XN8Q1NCHYRZV0LG&a=U4HY7&tp_a=U4HY7&b=3YHH42UU5C1OBN6XN8Q1NCHYRZV0LG&tp_b=3YHH42UU5C1OBN6XN8Q1NCHYRZV0LG&c=365717&tp_c=365717","heads":5,"tails":0,"studentIndex":20,"studentTrueHypers":{"a":8,"b":2},"studentGuess":0.8666666666666667,"delta":0.3666666666666667,"totalExamples":5,"bonusSoFar":0.78},{"rt":6397,"response":{"heads":"4","tails":"4"},"type":"response","condition":"seqFeedback","trueTheta":0.5,"classrooms":["C","D"],"studentTrueClassroom":"D","exampleSet":"second","trial_type":"survey-html-form","trial_index":185,"time_elapsed":2503655,"internal_node_id":"0.0-160.0-0.0","params":{"nStudents":24,"maxFlips":30,"completionMinutes":45,"basePay":8,"maxBonus":9,"perTrialBonus":0.5,"perTrialBonusThreshold":0.05,"exampleCost":0.01},"classroomParams":{"A":{"a":1,"b":4},"B":{"a":4,"b":1},"C":{"a":2,"b":8},"D":{"a":8,"b":2}},"conditions":["nonSeqFull","nonSeqPartial","seqNoFeedback","seqFeedback"],"classroomPairings":[["A","B"],["C","D"]],"coinWeights":[0.2,0.5,0.8],"subjectId":"A1FDFJCZ4B5N9S","assignmentId":"3YHH42UU5C1OBN6XN8Q1NCHYRZV0LG","hitId":"3FJ2RVH25ZSYKBA8MWMNC8NVPF629N","url":"https://gershmanlab.com/experiments/alicia/teaching/experiment/?hitId=3FJ2RVH25ZSYKBA8MWMNC8NVPF629N&workerId=A1FDFJCZ4B5N9S&assignmentId=3YHH42UU5C1OBN6XN8Q1NCHYRZV0LG&a=U4HY7&tp_a=U4HY7&b=3YHH42UU5C1OBN6XN8Q1NCHYRZV0LG&tp_b=3YHH42UU5C1OBN6XN8Q1NCHYRZV0LG&c=365717&tp_c=365717","firstResponseHeads":5,"firstResponseTails":0,"secondResponseHeads":4,"secondResponseTails":4,"totalHeads":9,"totalTails":4,"studentIndex":20,"studentTrueHypers":{"a":8,"b":2},"studentGuess":0.7391304347826086,"delta":0.23913043478260865,"bonus":0,"bonusSoFar":0.78,"totalExamples":13},{"rt":5272,"response":{"heads":"1","tails":"4"},"type":"response","condition":"seqFeedback","trueTheta":0.5,"classrooms":["A","B"],"studentTrueClassroom":"A","exampleSet":"first","trial_type":"survey-html-form","trial_index":191,"time_elapsed":2521673,"internal_node_id":"0.0-166.0-0.0","params":{"nStudents":24,"maxFlips":30,"completionMinutes":45,"basePay":8,"maxBonus":9,"perTrialBonus":0.5,"perTrialBonusThreshold":0.05,"exampleCost":0.01},"classroomParams":{"A":{"a":1,"b":4},"B":{"a":4,"b":1},"C":{"a":2,"b":8},"D":{"a":8,"b":2}},"conditions":["nonSeqFull","nonSeqPartial","seqNoFeedback","seqFeedback"],"classroomPairings":[["A","B"],["C","D"]],"coinWeights":[0.2,0.5,0.8],"subjectId":"A1FDFJCZ4B5N9S","assignmentId":"3YHH42UU5C1OBN6XN8Q1NCHYRZV0LG","hitId":"3FJ2RVH25ZSYKBA8MWMNC8NVPF629N","url":"https://gershmanlab.com/experiments/alicia/teaching/experiment/?hitId=3FJ2RVH25ZSYKBA8MWMNC8NVPF629N&workerId=A1FDFJCZ4B5N9S&assignmentId=3YHH42UU5C1OBN6XN8Q1NCHYRZV0LG&a=U4HY7&tp_a=U4HY7&b=3YHH42UU5C1OBN6XN8Q1NCHYRZV0LG&tp_b=3YHH42UU5C1OBN6XN8Q1NCHYRZV0LG&c=365717&tp_c=365717","heads":1,"tails":4,"studentIndex":21,"studentTrueHypers":{"a":1,"b":4},"studentGuess":0.2,"delta":0.3,"totalExamples":5,"bonusSoFar":0.78},{"rt":4156,"response":{"heads":"4","tails":"4"},"type":"response","condition":"seqFeedback","trueTheta":0.5,"classrooms":["A","B"],"studentTrueClassroom":"A","exampleSet":"second","trial_type":"survey-html-form","trial_index":195,"time_elapsed":2532769,"internal_node_id":"0.0-170.0-0.0","params":{"nStudents":24,"maxFlips":30,"completionMinutes":45,"basePay":8,"maxBonus":9,"perTrialBonus":0.5,"perTrialBonusThreshold":0.05,"exampleCost":0.01},"classroomParams":{"A":{"a":1,"b":4},"B":{"a":4,"b":1},"C":{"a":2,"b":8},"D":{"a":8,"b":2}},"conditions":["nonSeqFull","nonSeqPartial","seqNoFeedback","seqFeedback"],"classroomPairings":[["A","B"],["C","D"]],"coinWeights":[0.2,0.5,0.8],"subjectId":"A1FDFJCZ4B5N9S","assignmentId":"3YHH42UU5C1OBN6XN8Q1NCHYRZV0LG","hitId":"3FJ2RVH25ZSYKBA8MWMNC8NVPF629N","url":"https://gershmanlab.com/experiments/alicia/teaching/experiment/?hitId=3FJ2RVH25ZSYKBA8MWMNC8NVPF629N&workerId=A1FDFJCZ4B5N9S&assignmentId=3YHH42UU5C1OBN6XN8Q1NCHYRZV0LG&a=U4HY7&tp_a=U4HY7&b=3YHH42UU5C1OBN6XN8Q1NCHYRZV0LG&tp_b=3YHH42UU5C1OBN6XN8Q1NCHYRZV0LG&c=365717&tp_c=365717","firstResponseHeads":1,"firstResponseTails":4,"secondResponseHeads":4,"secondResponseTails":4,"totalHeads":5,"totalTails":8,"studentIndex":21,"studentTrueHypers":{"a":1,"b":4},"studentGuess":0.3333333333333333,"delta":0.16666666666666669,"bonus":0,"bonusSoFar":0.78,"totalExamples":13},{"rt":3768,"response":{"heads":"4","tails":"4"},"type":"response","condition":"nonSeqPartial","trueTheta":0.5,"classrooms":["A","B"],"studentTrueClassroom":"B","exampleSet":"first","trial_type":"survey-html-form","trial_index":201,"time_elapsed":2548223,"internal_node_id":"0.0-176.0-0.0","params":{"nStudents":24,"maxFlips":30,"completionMinutes":45,"basePay":8,"maxBonus":9,"perTrialBonus":0.5,"perTrialBonusThreshold":0.05,"exampleCost":0.01},"classroomParams":{"A":{"a":1,"b":4},"B":{"a":4,"b":1},"C":{"a":2,"b":8},"D":{"a":8,"b":2}},"conditions":["nonSeqFull","nonSeqPartial","seqNoFeedback","seqFeedback"],"classroomPairings":[["A","B"],["C","D"]],"coinWeights":[0.2,0.5,0.8],"subjectId":"A1FDFJCZ4B5N9S","assignmentId":"3YHH42UU5C1OBN6XN8Q1NCHYRZV0LG","hitId":"3FJ2RVH25ZSYKBA8MWMNC8NVPF629N","url":"https://gershmanlab.com/experiments/alicia/teaching/experiment/?hitId=3FJ2RVH25ZSYKBA8MWMNC8NVPF629N&workerId=A1FDFJCZ4B5N9S&assignmentId=3YHH42UU5C1OBN6XN8Q1NCHYRZV0LG&a=U4HY7&tp_a=U4HY7&b=3YHH42UU5C1OBN6XN8Q1NCHYRZV0LG&tp_b=3YHH42UU5C1OBN6XN8Q1NCHYRZV0LG&c=365717&tp_c=365717","heads":4,"tails":4,"studentIndex":22,"studentTrueHypers":{"a":4,"b":1},"studentGuess":0.6153846153846154,"delta":0.11538461538461542,"totalExamples":8,"bonus":0,"bonusSoFar":0.78},{"rt":3910,"response":{"heads":"4","tails":"4"},"type":"response","condition":"seqFeedback","trueTheta":0.8,"classrooms":["A","B"],"studentTrueClassroom":"A","exampleSet":"first","trial_type":"survey-html-form","trial_index":207,"time_elapsed":2562935,"internal_node_id":"0.0-182.0-0.0","params":{"nStudents":24,"maxFlips":30,"completionMinutes":45,"basePay":8,"maxBonus":9,"perTrialBonus":0.5,"perTrialBonusThreshold":0.05,"exampleCost":0.01},"classroomParams":{"A":{"a":1,"b":4},"B":{"a":4,"b":1},"C":{"a":2,"b":8},"D":{"a":8,"b":2}},"conditions":["nonSeqFull","nonSeqPartial","seqNoFeedback","seqFeedback"],"classroomPairings":[["A","B"],["C","D"]],"coinWeights":[0.2,0.5,0.8],"subjectId":"A1FDFJCZ4B5N9S","assignmentId":"3YHH42UU5C1OBN6XN8Q1NCHYRZV0LG","hitId":"3FJ2RVH25ZSYKBA8MWMNC8NVPF629N","url":"https://gershmanlab.com/experiments/alicia/teaching/experiment/?hitId=3FJ2RVH25ZSYKBA8MWMNC8NVPF629N&workerId=A1FDFJCZ4B5N9S&assignmentId=3YHH42UU5C1OBN6XN8Q1NCHYRZV0LG&a=U4HY7&tp_a=U4HY7&b=3YHH42UU5C1OBN6XN8Q1NCHYRZV0LG&tp_b=3YHH42UU5C1OBN6XN8Q1NCHYRZV0LG&c=365717&tp_c=365717","heads":4,"tails":4,"studentIndex":23,"studentTrueHypers":{"a":1,"b":4},"studentGuess":0.38461538461538464,"delta":0.4153846153846154,"totalExamples":8,"bonusSoFar":0.78},{"rt":3829,"response":{"heads":"8","tails":"0"},"type":"response","condition":"seqFeedback","trueTheta":0.8,"classrooms":["A","B"],"studentTrueClassroom":"A","exampleSet":"second","trial_type":"survey-html-form","trial_index":211,"time_elapsed":2573552,"internal_node_id":"0.0-186.0-0.0","params":{"nStudents":24,"maxFlips":30,"completionMinutes":45,"basePay":8,"maxBonus":9,"perTrialBonus":0.5,"perTrialBonusThreshold":0.05,"exampleCost":0.01},"classroomParams":{"A":{"a":1,"b":4},"B":{"a":4,"b":1},"C":{"a":2,"b":8},"D":{"a":8,"b":2}},"conditions":["nonSeqFull","nonSeqPartial","seqNoFeedback","seqFeedback"],"classroomPairings":[["A","B"],["C","D"]],"coinWeights":[0.2,0.5,0.8],"subjectId":"A1FDFJCZ4B5N9S","assignmentId":"3YHH42UU5C1OBN6XN8Q1NCHYRZV0LG","hitId":"3FJ2RVH25ZSYKBA8MWMNC8NVPF629N","url":"https://gershmanlab.com/experiments/alicia/teaching/experiment/?hitId=3FJ2RVH25ZSYKBA8MWMNC8NVPF629N&workerId=A1FDFJCZ4B5N9S&assignmentId=3YHH42UU5C1OBN6XN8Q1NCHYRZV0LG&a=U4HY7&tp_a=U4HY7&b=3YHH42UU5C1OBN6XN8Q1NCHYRZV0LG&tp_b=3YHH42UU5C1OBN6XN8Q1NCHYRZV0LG&c=365717&tp_c=365717","firstResponseHeads":4,"firstResponseTails":4,"secondResponseHeads":8,"secondResponseTails":0,"totalHeads":12,"totalTails":4,"studentIndex":23,"studentTrueHypers":{"a":1,"b":4},"studentGuess":0.6190476190476191,"delta":0.18095238095238098,"bonus":0,"bonusSoFar":0.78,"totalExamples":16},{"rt":15124,"response":{"gender":"male","age":"25","understood":"yes","comments":"None"},"type":"response","trial_type":"survey-html-form","trial_index":215,"time_elapsed":2594713,"internal_node_id":"0.0-191.0","params":{"nStudents":24,"maxFlips":30,"completionMinutes":45,"basePay":8,"maxBonus":9,"perTrialBonus":0.5,"perTrialBonusThreshold":0.05,"exampleCost":0.01},"classroomParams":{"A":{"a":1,"b":4},"B":{"a":4,"b":1},"C":{"a":2,"b":8},"D":{"a":8,"b":2}},"conditions":["nonSeqFull","nonSeqPartial","seqNoFeedback","seqFeedback"],"classroomPairings":[["A","B"],["C","D"]],"coinWeights":[0.2,0.5,0.8],"subjectId":"A1FDFJCZ4B5N9S","assignmentId":"3YHH42UU5C1OBN6XN8Q1NCHYRZV0LG","hitId":"3FJ2RVH25ZSYKBA8MWMNC8NVPF629N","url":"https://gershmanlab.com/experiments/alicia/teaching/experiment/?hitId=3FJ2RVH25ZSYKBA8MWMNC8NVPF629N&workerId=A1FDFJCZ4B5N9S&assignmentId=3YHH42UU5C1OBN6XN8Q1NCHYRZV0LG&a=U4HY7&tp_a=U4HY7&b=3YHH42UU5C1OBN6XN8Q1NCHYRZV0LG&tp_b=3YHH42UU5C1OBN6XN8Q1NCHYRZV0LG&c=365717&tp_c=365717","totalBonus":0.78}]