[{"rt":23663,"response":{"heads":"1","tails":"0"},"type":"response","condition":"nonSeqFull","trueTheta":0.8,"classrooms":["C","D"],"studentTrueClassroom":"C","exampleSet":"first","trial_type":"survey-html-form","trial_index":34,"time_elapsed":7390903,"internal_node_id":"0.0-6.0-0.0","params":{"nStudents":24,"maxFlips":30,"completionMinutes":45,"basePay":8,"maxBonus":9,"perTrialBonus":0.5,"perTrialBonusThreshold":0.05,"exampleCost":0.01},"classroomParams":{"A":{"a":1,"b":4},"B":{"a":4,"b":1},"C":{"a":2,"b":8},"D":{"a":8,"b":2}},"conditions":["nonSeqFull","nonSeqPartial","seqNoFeedback","seqFeedback"],"classroomPairings":[["A","B"],["C","D"]],"coinWeights":[0.2,0.5,0.8],"subjectId":"A1GKD3NG1NNHRP","assignmentId":"3IXQG4FA2UKUU88YWRK02KMMI9BB9G","hitId":"34KYK9TV2RUAD363EVFPUWVPB97SBP","url":"https://gershmanlab.com/experiments/alicia/teaching/experiment/?hitId=34KYK9TV2RUAD363EVFPUWVPB97SBP&workerId=A1GKD3NG1NNHRP&assignmentId=3IXQG4FA2UKUU88YWRK02KMMI9BB9G&a=AGXI7&tp_a=AGXI7&b=3IXQG4FA2UKUU88YWRK02KMMI9BB9G&tp_b=3IXQG4FA2UKUU88YWRK02KMMI9BB9G&c=365717&tp_c=365717","heads":1,"tails":0,"studentIndex":0,"studentTrueHypers":{"a":2,"b":8},"studentGuess":0.2727272727272727,"delta":0.5272727272727273,"totalExamples":1,"bonus":0,"bonusSoFar":0},{"rt":30268,"response":{"heads":"2","tails":"8"},"type":"response","condition":"seqNoFeedback","trueTheta":0.2,"classrooms":["C","D"],"studentTrueClassroom":"D","exampleSet":"first","trial_type":"survey-html-form","trial_index":40,"time_elapsed":7441614,"internal_node_id":"0.0-12.0-0.0","params":{"nStudents":24,"maxFlips":30,"completionMinutes":45,"basePay":8,"maxBonus":9,"perTrialBonus":0.5,"perTrialBonusThreshold":0.05,"exampleCost":0.01},"classroomParams":{"A":{"a":1,"b":4},"B":{"a":4,"b":1},"C":{"a":2,"b":8},"D":{"a":8,"b":2}},"conditions":["nonSeqFull","nonSeqPartial","seqNoFeedback","seqFeedback"],"classroomPairings":[["A","B"],["C","D"]],"coinWeights":[0.2,0.5,0.8],"subjectId":"A1GKD3NG1NNHRP","assignmentId":"3IXQG4FA2UKUU88YWRK02KMMI9BB9G","hitId":"34KYK9TV2RUAD363EVFPUWVPB97SBP","url":"https://gershmanlab.com/experiments/alicia/teaching/experiment/?hitId=34KYK9TV2RUAD363EVFPUWVPB97SBP&workerId=A1GKD3NG1NNHRP&assignmentId=3IXQG4FA2UKUU88YWRK02KMMI9BB9G&a=AGXI7&tp_a=AGXI7&b=3IXQG4FA2UKUU88YWRK02KMMI9BB9G&tp_b=3IXQG4FA2UKUU88YWRK02KMMI9BB9G&c=365717&tp_c=365717","heads":2,"tails":8,"studentIndex":1,"studentTrueHypers":{"a":8,"b":2},"studentGuess":0.5,"delta":0.3,"totalExamples":10,"bonusSoFar":0},{"rt":13190,"response":{"heads":"2","tails":"8"},"type":"response","condition":"seqNoFeedback","trueTheta":0.2,"classrooms":["C","D"],"studentTrueClassroom":"D","exampleSet":"second","trial_type":"survey-html-form","trial_index":43,"time_elapsed":7461309,"internal_node_id":"0.0-15.0-0.0","params":{"nStudents":24,"maxFlips":30,"completionMinutes":45,"basePay":8,"maxBonus":9,"perTrialBonus":0.5,"perTrialBonusThreshold":0.05,"exampleCost":0.01},"classroomParams":{"A":{"a":1,"b":4},"B":{"a":4,"b":1},"C":{"a":2,"b":8},"D":{"a":8,"b":2}},"conditions":["nonSeqFull","nonSeqPartial","seqNoFeedback","seqFeedback"],"classroomPairings":[["A","B"],["C","D"]],"coinWeights":[0.2,0.5,0.8],"subjectId":"A1GKD3NG1NNHRP","assignmentId":"3IXQG4FA2UKUU88YWRK02KMMI9BB9G","hitId":"34KYK9TV2RUAD363EVFPUWVPB97SBP","url":"https://gershmanlab.com/experiments/alicia/teaching/experiment/?hitId=34KYK9TV2RUAD363EVFPUWVPB97SBP&workerId=A1GKD3NG1NNHRP&assignmentId=3IXQG4FA2UKUU88YWRK02KMMI9BB9G&a=AGXI7&tp_a=AGXI7&b=3IXQG4FA2UKUU88YWRK02KMMI9BB9G&tp_b=3IXQG4FA2UKUU88YWRK02KMMI9BB9G&c=365717&tp_c=365717","firstResponseHeads":2,"firstResponseTails":8,"secondResponseHeads":2,"secondResponseTails":8,"totalHeads":4,"totalTails":16,"studentIndex":1,"studentTrueHypers":{"a":8,"b":2},"studentGuess":0.4,"delta":0.2,"bonus":0,"bonusSoFar":0,"totalExamples":20},{"rt":5881,"response":{"heads":"2","tails":"0"},"type":"response","condition":"seqFeedback","trueTheta":0.2,"classrooms":["C","D"],"studentTrueClassroom":"C","exampleSet":"first","trial_type":"survey-html-form","trial_index":49,"time_elapsed":7479489,"internal_node_id":"0.0-21.0-0.0","params":{"nStudents":24,"maxFlips":30,"completionMinutes":45,"basePay":8,"maxBonus":9,"perTrialBonus":0.5,"perTrialBonusThreshold":0.05,"exampleCost":0.01},"classroomParams":{"A":{"a":1,"b":4},"B":{"a":4,"b":1},"C":{"a":2,"b":8},"D":{"a":8,"b":2}},"conditions":["nonSeqFull","nonSeqPartial","seqNoFeedback","seqFeedback"],"classroomPairings":[["A","B"],["C","D"]],"coinWeights":[0.2,0.5,0.8],"subjectId":"A1GKD3NG1NNHRP","assignmentId":"3IXQG4FA2UKUU88YWRK02KMMI9BB9G","hitId":"34KYK9TV2RUAD363EVFPUWVPB97SBP","url":"https://gershmanlab.com/experiments/alicia/teaching/experiment/?hitId=34KYK9TV2RUAD363EVFPUWVPB97SBP&workerId=A1GKD3NG1NNHRP&assignmentId=3IXQG4FA2UKUU88YWRK02KMMI9BB9G&a=AGXI7&tp_a=AGXI7&b=3IXQG4FA2UKUU88YWRK02KMMI9BB9G&tp_b=3IXQG4FA2UKUU88YWRK02KMMI9BB9G&c=365717&tp_c=365717","heads":2,"tails":0,"studentIndex":2,"studentTrueHypers":{"a":2,"b":8},"studentGuess":0.3333333333333333,"delta":0.1333333333333333,"totalExamples":2,"bonusSoFar":0},{"rt":5831,"response":{"heads":"2","tails":"0"},"type":"response","condition":"seqFeedback","trueTheta":0.2,"classrooms":["C","D"],"studentTrueClassroom":"C","exampleSet":"second","trial_type":"survey-html-form","trial_index":53,"time_elapsed":7503151,"internal_node_id":"0.0-25.0-0.0","params":{"nStudents":24,"maxFlips":30,"completionMinutes":45,"basePay":8,"maxBonus":9,"perTrialBonus":0.5,"perTrialBonusThreshold":0.05,"exampleCost":0.01},"classroomParams":{"A":{"a":1,"b":4},"B":{"a":4,"b":1},"C":{"a":2,"b":8},"D":{"a":8,"b":2}},"conditions":["nonSeqFull","nonSeqPartial","seqNoFeedback","seqFeedback"],"classroomPairings":[["A","B"],["C","D"]],"coinWeights":[0.2,0.5,0.8],"subjectId":"A1GKD3NG1NNHRP","assignmentId":"3IXQG4FA2UKUU88YWRK02KMMI9BB9G","hitId":"34KYK9TV2RUAD363EVFPUWVPB97SBP","url":"https://gershmanlab.com/experiments/alicia/teaching/experiment/?hitId=34KYK9TV2RUAD363EVFPUWVPB97SBP&workerId=A1GKD3NG1NNHRP&assignmentId=3IXQG4FA2UKUU88YWRK02KMMI9BB9G&a=AGXI7&tp_a=AGXI7&b=3IXQG4FA2UKUU88YWRK02KMMI9BB9G&tp_b=3IXQG4FA2UKUU88YWRK02KMMI9BB9G&c=365717&tp_c=365717","firstResponseHeads":2,"firstResponseTails":0,"secondResponseHeads":2,"secondResponseTails":0,"totalHeads":4,"totalTails":0,"studentIndex":2,"studentTrueHypers":{"a":2,"b":8},"studentGuess":0.42857142857142855,"delta":0.22857142857142854,"bonus":0,"bonusSoFar":0,"totalExamples":4},{"rt":7015,"response":{"heads":"4","tails":"0"},"type":"response","condition":"nonSeqPartial","trueTheta":0.8,"classrooms":["C","D"],"studentTrueClassroom":"C","exampleSet":"first","trial_type":"survey-html-form","trial_index":59,"time_elapsed":7533718,"internal_node_id":"0.0-31.0-0.0","params":{"nStudents":24,"maxFlips":30,"completionMinutes":45,"basePay":8,"maxBonus":9,"perTrialBonus":0.5,"perTrialBonusThreshold":0.05,"exampleCost":0.01},"classroomParams":{"A":{"a":1,"b":4},"B":{"a":4,"b":1},"C":{"a":2,"b":8},"D":{"a":8,"b":2}},"conditions":["nonSeqFull","nonSeqPartial","seqNoFeedback","seqFeedback"],"classroomPairings":[["A","B"],["C","D"]],"coinWeights":[0.2,0.5,0.8],"subjectId":"A1GKD3NG1NNHRP","assignmentId":"3IXQG4FA2UKUU88YWRK02KMMI9BB9G","hitId":"34KYK9TV2RUAD363EVFPUWVPB97SBP","url":"https://gershmanlab.com/experiments/alicia/teaching/experiment/?hitId=34KYK9TV2RUAD363EVFPUWVPB97SBP&workerId=A1GKD3NG1NNHRP&assignmentId=3IXQG4FA2UKUU88YWRK02KMMI9BB9G&a=AGXI7&tp_a=AGXI7&b=3IXQG4FA2UKUU88YWRK02KMMI9BB9G&tp_b=3IXQG4FA2UKUU88YWRK02KMMI9BB9G&c=365717&tp_c=365717","heads":4,"tails":0,"studentIndex":3,"studentTrueHypers":{"a":2,"b":8},"studentGuess":0.42857142857142855,"delta":0.3714285714285715,"totalExamples":4,"bonus":0,"bonusSoFar":0},{"rt":4619,"response":{"heads":"0","tails":"2"},"type":"response","condition":"seqNoFeedback","trueTheta":0.2,"classrooms":["A","B"],"studentTrueClassroom":"B","exampleSet":"first","trial_type":"survey-html-form","trial_index":65,"time_elapsed":7553621,"internal_node_id":"0.0-37.0-0.0","params":{"nStudents":24,"maxFlips":30,"completionMinutes":45,"basePay":8,"maxBonus":9,"perTrialBonus":0.5,"perTrialBonusThreshold":0.05,"exampleCost":0.01},"classroomParams":{"A":{"a":1,"b":4},"B":{"a":4,"b":1},"C":{"a":2,"b":8},"D":{"a":8,"b":2}},"conditions":["nonSeqFull","nonSeqPartial","seqNoFeedback","seqFeedback"],"classroomPairings":[["A","B"],["C","D"]],"coinWeights":[0.2,0.5,0.8],"subjectId":"A1GKD3NG1NNHRP","assignmentId":"3IXQG4FA2UKUU88YWRK02KMMI9BB9G","hitId":"34KYK9TV2RUAD363EVFPUWVPB97SBP","url":"https://gershmanlab.com/experiments/alicia/teaching/experiment/?hitId=34KYK9TV2RUAD363EVFPUWVPB97SBP&workerId=A1GKD3NG1NNHRP&assignmentId=3IXQG4FA2UKUU88YWRK02KMMI9BB9G&a=AGXI7&tp_a=AGXI7&b=3IXQG4FA2UKUU88YWRK02KMMI9BB9G&tp_b=3IXQG4FA2UKUU88YWRK02KMMI9BB9G&c=365717&tp_c=365717","heads":0,"tails":2,"studentIndex":4,"studentTrueHypers":{"a":4,"b":1},"studentGuess":0.5714285714285714,"delta":0.3714285714285714,"totalExamples":2,"bonusSoFar":0},{"rt":347570,"response":{"heads":"3","tails":"0"},"type":"response","condition":"seqNoFeedback","trueTheta":0.2,"classrooms":["A","B"],"studentTrueClassroom":"B","exampleSet":"second","trial_type":"survey-html-form","trial_index":68,"time_elapsed":7907374,"internal_node_id":"0.0-40.0-0.0","params":{"nStudents":24,"maxFlips":30,"completionMinutes":45,"basePay":8,"maxBonus":9,"perTrialBonus":0.5,"perTrialBonusThreshold":0.05,"exampleCost":0.01},"classroomParams":{"A":{"a":1,"b":4},"B":{"a":4,"b":1},"C":{"a":2,"b":8},"D":{"a":8,"b":2}},"conditions":["nonSeqFull","nonSeqPartial","seqNoFeedback","seqFeedback"],"classroomPairings":[["A","B"],["C","D"]],"coinWeights":[0.2,0.5,0.8],"subjectId":"A1GKD3NG1NNHRP","assignmentId":"3IXQG4FA2UKUU88YWRK02KMMI9BB9G","hitId":"34KYK9TV2RUAD363EVFPUWVPB97SBP","url":"https://gershmanlab.com/experiments/alicia/teaching/experiment/?hitId=34KYK9TV2RUAD363EVFPUWVPB97SBP&workerId=A1GKD3NG1NNHRP&assignmentId=3IXQG4FA2UKUU88YWRK02KMMI9BB9G&a=AGXI7&tp_a=AGXI7&b=3IXQG4FA2UKUU88YWRK02KMMI9BB9G&tp_b=3IXQG4FA2UKUU88YWRK02KMMI9BB9G&c=365717&tp_c=365717","firstResponseHeads":0,"firstResponseTails":2,"secondResponseHeads":3,"secondResponseTails":0,"totalHeads":3,"totalTails":2,"studentIndex":4,"studentTrueHypers":{"a":4,"b":1},"studentGuess":0.7,"delta":0.49999999999999994,"bonus":0,"bonusSoFar":0,"totalExamples":5},{"rt":16506,"response":{"heads":"4","tails":"0"},"type":"response","condition":"seqNoFeedback","trueTheta":0.5,"classrooms":["C","D"],"studentTrueClassroom":"D","exampleSet":"first","trial_type":"survey-html-form","trial_index":74,"time_elapsed":7935302,"internal_node_id":"0.0-46.0-0.0","params":{"nStudents":24,"maxFlips":30,"completionMinutes":45,"basePay":8,"maxBonus":9,"perTrialBonus":0.5,"perTrialBonusThreshold":0.05,"exampleCost":0.01},"classroomParams":{"A":{"a":1,"b":4},"B":{"a":4,"b":1},"C":{"a":2,"b":8},"D":{"a":8,"b":2}},"conditions":["nonSeqFull","nonSeqPartial","seqNoFeedback","seqFeedback"],"classroomPairings":[["A","B"],["C","D"]],"coinWeights":[0.2,0.5,0.8],"subjectId":"A1GKD3NG1NNHRP","assignmentId":"3IXQG4FA2UKUU88YWRK02KMMI9BB9G","hitId":"34KYK9TV2RUAD363EVFPUWVPB97SBP","url":"https://gershmanlab.com/experiments/alicia/teaching/experiment/?hitId=34KYK9TV2RUAD363EVFPUWVPB97SBP&workerId=A1GKD3NG1NNHRP&assignmentId=3IXQG4FA2UKUU88YWRK02KMMI9BB9G&a=AGXI7&tp_a=AGXI7&b=3IXQG4FA2UKUU88YWRK02KMMI9BB9G&tp_b=3IXQG4FA2UKUU88YWRK02KMMI9BB9G&c=365717&tp_c=365717","heads":4,"tails":0,"studentIndex":5,"studentTrueHypers":{"a":8,"b":2},"studentGuess":0.8571428571428571,"delta":0.3571428571428571,"totalExamples":4,"bonusSoFar":0},{"rt":3891,"response":{"heads":"0","tails":"2"},"type":"response","condition":"seqNoFeedback","trueTheta":0.5,"classrooms":["C","D"],"studentTrueClassroom":"D","exampleSet":"second","trial_type":"survey-html-form","trial_index":77,"time_elapsed":7945725,"internal_node_id":"0.0-49.0-0.0","params":{"nStudents":24,"maxFlips":30,"completionMinutes":45,"basePay":8,"maxBonus":9,"perTrialBonus":0.5,"perTrialBonusThreshold":0.05,"exampleCost":0.01},"classroomParams":{"A":{"a":1,"b":4},"B":{"a":4,"b":1},"C":{"a":2,"b":8},"D":{"a":8,"b":2}},"conditions":["nonSeqFull","nonSeqPartial","seqNoFeedback","seqFeedback"],"classroomPairings":[["A","B"],["C","D"]],"coinWeights":[0.2,0.5,0.8],"subjectId":"A1GKD3NG1NNHRP","assignmentId":"3IXQG4FA2UKUU88YWRK02KMMI9BB9G","hitId":"34KYK9TV2RUAD363EVFPUWVPB97SBP","url":"https://gershmanlab.com/experiments/alicia/teaching/experiment/?hitId=34KYK9TV2RUAD363EVFPUWVPB97SBP&workerId=A1GKD3NG1NNHRP&assignmentId=3IXQG4FA2UKUU88YWRK02KMMI9BB9G&a=AGXI7&tp_a=AGXI7&b=3IXQG4FA2UKUU88YWRK02KMMI9BB9G&tp_b=3IXQG4FA2UKUU88YWRK02KMMI9BB9G&c=365717&tp_c=365717","firstResponseHeads":4,"firstResponseTails":0,"secondResponseHeads":0,"secondResponseTails":2,"totalHeads":4,"totalTails":2,"studentIndex":5,"studentTrueHypers":{"a":8,"b":2},"studentGuess":0.75,"delta":0.25,"bonus":0,"bonusSoFar":0,"totalExamples":6},{"rt":3447,"response":{"heads":"2","tails":"0"},"type":"response","condition":"seqNoFeedback","trueTheta":0.8,"classrooms":["A","B"],"studentTrueClassroom":"A","exampleSet":"first","trial_type":"survey-html-form","trial_index":83,"time_elapsed":7960621,"internal_node_id":"0.0-55.0-0.0","params":{"nStudents":24,"maxFlips":30,"completionMinutes":45,"basePay":8,"maxBonus":9,"perTrialBonus":0.5,"perTrialBonusThreshold":0.05,"exampleCost":0.01},"classroomParams":{"A":{"a":1,"b":4},"B":{"a":4,"b":1},"C":{"a":2,"b":8},"D":{"a":8,"b":2}},"conditions":["nonSeqFull","nonSeqPartial","seqNoFeedback","seqFeedback"],"classroomPairings":[["A","B"],["C","D"]],"coinWeights":[0.2,0.5,0.8],"subjectId":"A1GKD3NG1NNHRP","assignmentId":"3IXQG4FA2UKUU88YWRK02KMMI9BB9G","hitId":"34KYK9TV2RUAD363EVFPUWVPB97SBP","url":"https://gershmanlab.com/experiments/alicia/teaching/experiment/?hitId=34KYK9TV2RUAD363EVFPUWVPB97SBP&workerId=A1GKD3NG1NNHRP&assignmentId=3IXQG4FA2UKUU88YWRK02KMMI9BB9G&a=AGXI7&tp_a=AGXI7&b=3IXQG4FA2UKUU88YWRK02KMMI9BB9G&tp_b=3IXQG4FA2UKUU88YWRK02KMMI9BB9G&c=365717&tp_c=365717","heads":2,"tails":0,"studentIndex":6,"studentTrueHypers":{"a":1,"b":4},"studentGuess":0.42857142857142855,"delta":0.3714285714285715,"totalExamples":2,"bonusSoFar":0},{"rt":4040,"response":{"heads":"2","tails":"0"},"type":"response","condition":"seqNoFeedback","trueTheta":0.8,"classrooms":["A","B"],"studentTrueClassroom":"A","exampleSet":"second","trial_type":"survey-html-form","trial_index":86,"time_elapsed":7971941,"internal_node_id":"0.0-58.0-0.0","params":{"nStudents":24,"maxFlips":30,"completionMinutes":45,"basePay":8,"maxBonus":9,"perTrialBonus":0.5,"perTrialBonusThreshold":0.05,"exampleCost":0.01},"classroomParams":{"A":{"a":1,"b":4},"B":{"a":4,"b":1},"C":{"a":2,"b":8},"D":{"a":8,"b":2}},"conditions":["nonSeqFull","nonSeqPartial","seqNoFeedback","seqFeedback"],"classroomPairings":[["A","B"],["C","D"]],"coinWeights":[0.2,0.5,0.8],"subjectId":"A1GKD3NG1NNHRP","assignmentId":"3IXQG4FA2UKUU88YWRK02KMMI9BB9G","hitId":"34KYK9TV2RUAD363EVFPUWVPB97SBP","url":"https://gershmanlab.com/experiments/alicia/teaching/experiment/?hitId=34KYK9TV2RUAD363EVFPUWVPB97SBP&workerId=A1GKD3NG1NNHRP&assignmentId=3IXQG4FA2UKUU88YWRK02KMMI9BB9G&a=AGXI7&tp_a=AGXI7&b=3IXQG4FA2UKUU88YWRK02KMMI9BB9G&tp_b=3IXQG4FA2UKUU88YWRK02KMMI9BB9G&c=365717&tp_c=365717","firstResponseHeads":2,"firstResponseTails":0,"secondResponseHeads":2,"secondResponseTails":0,"totalHeads":4,"totalTails":0,"studentIndex":6,"studentTrueHypers":{"a":1,"b":4},"studentGuess":0.5555555555555556,"delta":0.24444444444444446,"bonus":0,"bonusSoFar":0,"totalExamples":4},{"rt":3234,"response":{"heads":"0","tails":"2"},"type":"response","condition":"nonSeqPartial","trueTheta":0.8,"classrooms":["A","B"],"studentTrueClassroom":"A","exampleSet":"first","trial_type":"survey-html-form","trial_index":92,"time_elapsed":7989734,"internal_node_id":"0.0-64.0-0.0","params":{"nStudents":24,"maxFlips":30,"completionMinutes":45,"basePay":8,"maxBonus":9,"perTrialBonus":0.5,"perTrialBonusThreshold":0.05,"exampleCost":0.01},"classroomParams":{"A":{"a":1,"b":4},"B":{"a":4,"b":1},"C":{"a":2,"b":8},"D":{"a":8,"b":2}},"conditions":["nonSeqFull","nonSeqPartial","seqNoFeedback","seqFeedback"],"classroomPairings":[["A","B"],["C","D"]],"coinWeights":[0.2,0.5,0.8],"subjectId":"A1GKD3NG1NNHRP","assignmentId":"3IXQG4FA2UKUU88YWRK02KMMI9BB9G","hitId":"34KYK9TV2RUAD363EVFPUWVPB97SBP","url":"https://gershmanlab.com/experiments/alicia/teaching/experiment/?hitId=34KYK9TV2RUAD363EVFPUWVPB97SBP&workerId=A1GKD3NG1NNHRP&assignmentId=3IXQG4FA2UKUU88YWRK02KMMI9BB9G&a=AGXI7&tp_a=AGXI7&b=3IXQG4FA2UKUU88YWRK02KMMI9BB9G&tp_b=3IXQG4FA2UKUU88YWRK02KMMI9BB9G&c=365717&tp_c=365717","heads":0,"tails":2,"studentIndex":7,"studentTrueHypers":{"a":1,"b":4},"studentGuess":0.14285714285714285,"delta":0.6571428571428573,"totalExamples":2,"bonus":0,"bonusSoFar":0},{"rt":4335,"response":{"heads":"0","tails":"2"},"type":"response","condition":"seqFeedback","trueTheta":0.5,"classrooms":["C","D"],"studentTrueClassroom":"C","exampleSet":"first","trial_type":"survey-html-form","trial_index":98,"time_elapsed":8006101,"internal_node_id":"0.0-70.0-0.0","params":{"nStudents":24,"maxFlips":30,"completionMinutes":45,"basePay":8,"maxBonus":9,"perTrialBonus":0.5,"perTrialBonusThreshold":0.05,"exampleCost":0.01},"classroomParams":{"A":{"a":1,"b":4},"B":{"a":4,"b":1},"C":{"a":2,"b":8},"D":{"a":8,"b":2}},"conditions":["nonSeqFull","nonSeqPartial","seqNoFeedback","seqFeedback"],"classroomPairings":[["A","B"],["C","D"]],"coinWeights":[0.2,0.5,0.8],"subjectId":"A1GKD3NG1NNHRP","assignmentId":"3IXQG4FA2UKUU88YWRK02KMMI9BB9G","hitId":"34KYK9TV2RUAD363EVFPUWVPB97SBP","url":"https://gershmanlab.com/experiments/alicia/teaching/experiment/?hitId=34KYK9TV2RUAD363EVFPUWVPB97SBP&workerId=A1GKD3NG1NNHRP&assignmentId=3IXQG4FA2UKUU88YWRK02KMMI9BB9G&a=AGXI7&tp_a=AGXI7&b=3IXQG4FA2UKUU88YWRK02KMMI9BB9G&tp_b=3IXQG4FA2UKUU88YWRK02KMMI9BB9G&c=365717&tp_c=365717","heads":0,"tails":2,"studentIndex":8,"studentTrueHypers":{"a":2,"b":8},"studentGuess":0.16666666666666666,"delta":0.33333333333333337,"totalExamples":2,"bonusSoFar":0},{"rt":4101,"response":{"heads":"2","tails":"0"},"type":"response","condition":"seqFeedback","trueTheta":0.5,"classrooms":["C","D"],"studentTrueClassroom":"C","exampleSet":"second","trial_type":"survey-html-form","trial_index":102,"time_elapsed":8017174,"internal_node_id":"0.0-74.0-0.0","params":{"nStudents":24,"maxFlips":30,"completionMinutes":45,"basePay":8,"maxBonus":9,"perTrialBonus":0.5,"perTrialBonusThreshold":0.05,"exampleCost":0.01},"classroomParams":{"A":{"a":1,"b":4},"B":{"a":4,"b":1},"C":{"a":2,"b":8},"D":{"a":8,"b":2}},"conditions":["nonSeqFull","nonSeqPartial","seqNoFeedback","seqFeedback"],"classroomPairings":[["A","B"],["C","D"]],"coinWeights":[0.2,0.5,0.8],"subjectId":"A1GKD3NG1NNHRP","assignmentId":"3IXQG4FA2UKUU88YWRK02KMMI9BB9G","hitId":"34KYK9TV2RUAD363EVFPUWVPB97SBP","url":"https://gershmanlab.com/experiments/alicia/teaching/experiment/?hitId=34KYK9TV2RUAD363EVFPUWVPB97SBP&workerId=A1GKD3NG1NNHRP&assignmentId=3IXQG4FA2UKUU88YWRK02KMMI9BB9G&a=AGXI7&tp_a=AGXI7&b=3IXQG4FA2UKUU88YWRK02KMMI9BB9G&tp_b=3IXQG4FA2UKUU88YWRK02KMMI9BB9G&c=365717&tp_c=365717","firstResponseHeads":0,"firstResponseTails":2,"secondResponseHeads":2,"secondResponseTails":0,"totalHeads":2,"totalTails":2,"studentIndex":8,"studentTrueHypers":{"a":2,"b":8},"studentGuess":0.2857142857142857,"delta":0.2142857142857143,"bonus":0,"bonusSoFar":0,"totalExamples":4},{"rt":4482,"response":{"heads":"0","tails":"2"},"type":"response","condition":"seqFeedback","trueTheta":0.8,"classrooms":["C","D"],"studentTrueClassroom":"D","exampleSet":"first","trial_type":"survey-html-form","trial_index":108,"time_elapsed":8062557,"internal_node_id":"0.0-80.0-0.0","params":{"nStudents":24,"maxFlips":30,"completionMinutes":45,"basePay":8,"maxBonus":9,"perTrialBonus":0.5,"perTrialBonusThreshold":0.05,"exampleCost":0.01},"classroomParams":{"A":{"a":1,"b":4},"B":{"a":4,"b":1},"C":{"a":2,"b":8},"D":{"a":8,"b":2}},"conditions":["nonSeqFull","nonSeqPartial","seqNoFeedback","seqFeedback"],"classroomPairings":[["A","B"],["C","D"]],"coinWeights":[0.2,0.5,0.8],"subjectId":"A1GKD3NG1NNHRP","assignmentId":"3IXQG4FA2UKUU88YWRK02KMMI9BB9G","hitId":"34KYK9TV2RUAD363EVFPUWVPB97SBP","url":"https://gershmanlab.com/experiments/alicia/teaching/experiment/?hitId=34KYK9TV2RUAD363EVFPUWVPB97SBP&workerId=A1GKD3NG1NNHRP&assignmentId=3IXQG4FA2UKUU88YWRK02KMMI9BB9G&a=AGXI7&tp_a=AGXI7&b=3IXQG4FA2UKUU88YWRK02KMMI9BB9G&tp_b=3IXQG4FA2UKUU88YWRK02KMMI9BB9G&c=365717&tp_c=365717","heads":0,"tails":2,"studentIndex":9,"studentTrueHypers":{"a":8,"b":2},"studentGuess":0.6666666666666666,"delta":0.13333333333333341,"totalExamples":2,"bonusSoFar":0},{"rt":4550,"response":{"heads":"2","tails":"0"},"type":"response","condition":"seqFeedback","trueTheta":0.8,"classrooms":["C","D"],"studentTrueClassroom":"D","exampleSet":"second","trial_type":"survey-html-form","trial_index":112,"time_elapsed":8076373,"internal_node_id":"0.0-84.0-0.0","params":{"nStudents":24,"maxFlips":30,"completionMinutes":45,"basePay":8,"maxBonus":9,"perTrialBonus":0.5,"perTrialBonusThreshold":0.05,"exampleCost":0.01},"classroomParams":{"A":{"a":1,"b":4},"B":{"a":4,"b":1},"C":{"a":2,"b":8},"D":{"a":8,"b":2}},"conditions":["nonSeqFull","nonSeqPartial","seqNoFeedback","seqFeedback"],"classroomPairings":[["A","B"],["C","D"]],"coinWeights":[0.2,0.5,0.8],"subjectId":"A1GKD3NG1NNHRP","assignmentId":"3IXQG4FA2UKUU88YWRK02KMMI9BB9G","hitId":"34KYK9TV2RUAD363EVFPUWVPB97SBP","url":"https://gershmanlab.com/experiments/alicia/teaching/experiment/?hitId=34KYK9TV2RUAD363EVFPUWVPB97SBP&workerId=A1GKD3NG1NNHRP&assignmentId=3IXQG4FA2UKUU88YWRK02KMMI9BB9G&a=AGXI7&tp_a=AGXI7&b=3IXQG4FA2UKUU88YWRK02KMMI9BB9G&tp_b=3IXQG4FA2UKUU88YWRK02KMMI9BB9G&c=365717&tp_c=365717","firstResponseHeads":0,"firstResponseTails":2,"secondResponseHeads":2,"secondResponseTails":0,"totalHeads":2,"totalTails":2,"studentIndex":9,"studentTrueHypers":{"a":8,"b":2},"studentGuess":0.7142857142857143,"delta":0.08571428571428574,"bonus":0,"bonusSoFar":0,"totalExamples":4},{"rt":5313,"response":{"heads":"1","tails":"1"},"type":"response","condition":"nonSeqFull","trueTheta":0.5,"classrooms":["A","B"],"studentTrueClassroom":"A","exampleSet":"first","trial_type":"survey-html-form","trial_index":118,"time_elapsed":8099719,"internal_node_id":"0.0-90.0-0.0","params":{"nStudents":24,"maxFlips":30,"completionMinutes":45,"basePay":8,"maxBonus":9,"perTrialBonus":0.5,"perTrialBonusThreshold":0.05,"exampleCost":0.01},"classroomParams":{"A":{"a":1,"b":4},"B":{"a":4,"b":1},"C":{"a":2,"b":8},"D":{"a":8,"b":2}},"conditions":["nonSeqFull","nonSeqPartial","seqNoFeedback","seqFeedback"],"classroomPairings":[["A","B"],["C","D"]],"coinWeights":[0.2,0.5,0.8],"subjectId":"A1GKD3NG1NNHRP","assignmentId":"3IXQG4FA2UKUU88YWRK02KMMI9BB9G","hitId":"34KYK9TV2RUAD363EVFPUWVPB97SBP","url":"https://gershmanlab.com/experiments/alicia/teaching/experiment/?hitId=34KYK9TV2RUAD363EVFPUWVPB97SBP&workerId=A1GKD3NG1NNHRP&assignmentId=3IXQG4FA2UKUU88YWRK02KMMI9BB9G&a=AGXI7&tp_a=AGXI7&b=3IXQG4FA2UKUU88YWRK02KMMI9BB9G&tp_b=3IXQG4FA2UKUU88YWRK02KMMI9BB9G&c=365717&tp_c=365717","heads":1,"tails":1,"studentIndex":10,"studentTrueHypers":{"a":1,"b":4},"studentGuess":0.2857142857142857,"delta":0.2142857142857143,"totalExamples":2,"bonus":0,"bonusSoFar":0},{"rt":8104,"response":{"heads":"1","tails":"1"},"type":"response","condition":"seqFeedback","trueTheta":0.5,"classrooms":["A","B"],"studentTrueClassroom":"A","exampleSet":"first","trial_type":"survey-html-form","trial_index":124,"time_elapsed":8120590,"internal_node_id":"0.0-96.0-0.0","params":{"nStudents":24,"maxFlips":30,"completionMinutes":45,"basePay":8,"maxBonus":9,"perTrialBonus":0.5,"perTrialBonusThreshold":0.05,"exampleCost":0.01},"classroomParams":{"A":{"a":1,"b":4},"B":{"a":4,"b":1},"C":{"a":2,"b":8},"D":{"a":8,"b":2}},"conditions":["nonSeqFull","nonSeqPartial","seqNoFeedback","seqFeedback"],"classroomPairings":[["A","B"],["C","D"]],"coinWeights":[0.2,0.5,0.8],"subjectId":"A1GKD3NG1NNHRP","assignmentId":"3IXQG4FA2UKUU88YWRK02KMMI9BB9G","hitId":"34KYK9TV2RUAD363EVFPUWVPB97SBP","url":"https://gershmanlab.com/experiments/alicia/teaching/experiment/?hitId=34KYK9TV2RUAD363EVFPUWVPB97SBP&workerId=A1GKD3NG1NNHRP&assignmentId=3IXQG4FA2UKUU88YWRK02KMMI9BB9G&a=AGXI7&tp_a=AGXI7&b=3IXQG4FA2UKUU88YWRK02KMMI9BB9G&tp_b=3IXQG4FA2UKUU88YWRK02KMMI9BB9G&c=365717&tp_c=365717","heads":1,"tails":1,"studentIndex":11,"studentTrueHypers":{"a":1,"b":4},"studentGuess":0.2857142857142857,"delta":0.2142857142857143,"totalExamples":2,"bonusSoFar":0},{"rt":4440,"response":{"heads":"2","tails":"0"},"type":"response","condition":"seqFeedback","trueTheta":0.5,"classrooms":["A","B"],"studentTrueClassroom":"A","exampleSet":"second","trial_type":"survey-html-form","trial_index":128,"time_elapsed":8132414,"internal_node_id":"0.0-100.0-0.0","params":{"nStudents":24,"maxFlips":30,"completionMinutes":45,"basePay":8,"maxBonus":9,"perTrialBonus":0.5,"perTrialBonusThreshold":0.05,"exampleCost":0.01},"classroomParams":{"A":{"a":1,"b":4},"B":{"a":4,"b":1},"C":{"a":2,"b":8},"D":{"a":8,"b":2}},"conditions":["nonSeqFull","nonSeqPartial","seqNoFeedback","seqFeedback"],"classroomPairings":[["A","B"],["C","D"]],"coinWeights":[0.2,0.5,0.8],"subjectId":"A1GKD3NG1NNHRP","assignmentId":"3IXQG4FA2UKUU88YWRK02KMMI9BB9G","hitId":"34KYK9TV2RUAD363EVFPUWVPB97SBP","url":"https://gershmanlab.com/experiments/alicia/teaching/experiment/?hitId=34KYK9TV2RUAD363EVFPUWVPB97SBP&workerId=A1GKD3NG1NNHRP&assignmentId=3IXQG4FA2UKUU88YWRK02KMMI9BB9G&a=AGXI7&tp_a=AGXI7&b=3IXQG4FA2UKUU88YWRK02KMMI9BB9G&tp_b=3IXQG4FA2UKUU88YWRK02KMMI9BB9G&c=365717&tp_c=365717","firstResponseHeads":1,"firstResponseTails":1,"secondResponseHeads":2,"secondResponseTails":0,"totalHeads":3,"totalTails":1,"studentIndex":11,"studentTrueHypers":{"a":1,"b":4},"studentGuess":0.4444444444444444,"delta":0.05555555555555558,"bonus":0,"bonusSoFar":0,"totalExamples":4},{"rt":7755,"response":{"heads":"1","tails":"1"},"type":"response","condition":"seqNoFeedback","trueTheta":0.5,"classrooms":["A","B"],"studentTrueClassroom":"A","exampleSet":"first","trial_type":"survey-html-form","trial_index":134,"time_elapsed":8151386,"internal_node_id":"0.0-106.0-0.0","params":{"nStudents":24,"maxFlips":30,"completionMinutes":45,"basePay":8,"maxBonus":9,"perTrialBonus":0.5,"perTrialBonusThreshold":0.05,"exampleCost":0.01},"classroomParams":{"A":{"a":1,"b":4},"B":{"a":4,"b":1},"C":{"a":2,"b":8},"D":{"a":8,"b":2}},"conditions":["nonSeqFull","nonSeqPartial","seqNoFeedback","seqFeedback"],"classroomPairings":[["A","B"],["C","D"]],"coinWeights":[0.2,0.5,0.8],"subjectId":"A1GKD3NG1NNHRP","assignmentId":"3IXQG4FA2UKUU88YWRK02KMMI9BB9G","hitId":"34KYK9TV2RUAD363EVFPUWVPB97SBP","url":"https://gershmanlab.com/experiments/alicia/teaching/experiment/?hitId=34KYK9TV2RUAD363EVFPUWVPB97SBP&workerId=A1GKD3NG1NNHRP&assignmentId=3IXQG4FA2UKUU88YWRK02KMMI9BB9G&a=AGXI7&tp_a=AGXI7&b=3IXQG4FA2UKUU88YWRK02KMMI9BB9G&tp_b=3IXQG4FA2UKUU88YWRK02KMMI9BB9G&c=365717&tp_c=365717","heads":1,"tails":1,"studentIndex":12,"studentTrueHypers":{"a":1,"b":4},"studentGuess":0.2857142857142857,"delta":0.2142857142857143,"totalExamples":2,"bonusSoFar":0},{"rt":5408,"response":{"heads":"2","tails":"0"},"type":"response","condition":"seqNoFeedback","trueTheta":0.5,"classrooms":["A","B"],"studentTrueClassroom":"A","exampleSet":"second","trial_type":"survey-html-form","trial_index":137,"time_elapsed":8164302,"internal_node_id":"0.0-109.0-0.0","params":{"nStudents":24,"maxFlips":30,"completionMinutes":45,"basePay":8,"maxBonus":9,"perTrialBonus":0.5,"perTrialBonusThreshold":0.05,"exampleCost":0.01},"classroomParams":{"A":{"a":1,"b":4},"B":{"a":4,"b":1},"C":{"a":2,"b":8},"D":{"a":8,"b":2}},"conditions":["nonSeqFull","nonSeqPartial","seqNoFeedback","seqFeedback"],"classroomPairings":[["A","B"],["C","D"]],"coinWeights":[0.2,0.5,0.8],"subjectId":"A1GKD3NG1NNHRP","assignmentId":"3IXQG4FA2UKUU88YWRK02KMMI9BB9G","hitId":"34KYK9TV2RUAD363EVFPUWVPB97SBP","url":"https://gershmanlab.com/experiments/alicia/teaching/experiment/?hitId=34KYK9TV2RUAD363EVFPUWVPB97SBP&workerId=A1GKD3NG1NNHRP&assignmentId=3IXQG4FA2UKUU88YWRK02KMMI9BB9G&a=AGXI7&tp_a=AGXI7&b=3IXQG4FA2UKUU88YWRK02KMMI9BB9G&tp_b=3IXQG4FA2UKUU88YWRK02KMMI9BB9G&c=365717&tp_c=365717","firstResponseHeads":1,"firstResponseTails":1,"secondResponseHeads":2,"secondResponseTails":0,"totalHeads":3,"totalTails":1,"studentIndex":12,"studentTrueHypers":{"a":1,"b":4},"studentGuess":0.4444444444444444,"delta":0.05555555555555558,"bonus":0,"bonusSoFar":0,"totalExamples":4},{"rt":3324,"response":{"heads":"2","tails":"0"},"type":"response","condition":"nonSeqPartial","trueTheta":0.2,"classrooms":["C","D"],"studentTrueClassroom":"D","exampleSet":"first","trial_type":"survey-html-form","trial_index":143,"time_elapsed":8179837,"internal_node_id":"0.0-115.0-0.0","params":{"nStudents":24,"maxFlips":30,"completionMinutes":45,"basePay":8,"maxBonus":9,"perTrialBonus":0.5,"perTrialBonusThreshold":0.05,"exampleCost":0.01},"classroomParams":{"A":{"a":1,"b":4},"B":{"a":4,"b":1},"C":{"a":2,"b":8},"D":{"a":8,"b":2}},"conditions":["nonSeqFull","nonSeqPartial","seqNoFeedback","seqFeedback"],"classroomPairings":[["A","B"],["C","D"]],"coinWeights":[0.2,0.5,0.8],"subjectId":"A1GKD3NG1NNHRP","assignmentId":"3IXQG4FA2UKUU88YWRK02KMMI9BB9G","hitId":"34KYK9TV2RUAD363EVFPUWVPB97SBP","url":"https://gershmanlab.com/experiments/alicia/teaching/experiment/?hitId=34KYK9TV2RUAD363EVFPUWVPB97SBP&workerId=A1GKD3NG1NNHRP&assignmentId=3IXQG4FA2UKUU88YWRK02KMMI9BB9G&a=AGXI7&tp_a=AGXI7&b=3IXQG4FA2UKUU88YWRK02KMMI9BB9G&tp_b=3IXQG4FA2UKUU88YWRK02KMMI9BB9G&c=365717&tp_c=365717","heads":2,"tails":0,"studentIndex":13,"studentTrueHypers":{"a":8,"b":2},"studentGuess":0.8333333333333334,"delta":0.6333333333333333,"totalExamples":2,"bonus":0,"bonusSoFar":0},{"rt":3954,"response":{"heads":"1","tails":"0"},"type":"response","condition":"nonSeqPartial","trueTheta":0.5,"classrooms":["A","B"],"studentTrueClassroom":"A","exampleSet":"first","trial_type":"survey-html-form","trial_index":149,"time_elapsed":8195296,"internal_node_id":"0.0-121.0-0.0","params":{"nStudents":24,"maxFlips":30,"completionMinutes":45,"basePay":8,"maxBonus":9,"perTrialBonus":0.5,"perTrialBonusThreshold":0.05,"exampleCost":0.01},"classroomParams":{"A":{"a":1,"b":4},"B":{"a":4,"b":1},"C":{"a":2,"b":8},"D":{"a":8,"b":2}},"conditions":["nonSeqFull","nonSeqPartial","seqNoFeedback","seqFeedback"],"classroomPairings":[["A","B"],["C","D"]],"coinWeights":[0.2,0.5,0.8],"subjectId":"A1GKD3NG1NNHRP","assignmentId":"3IXQG4FA2UKUU88YWRK02KMMI9BB9G","hitId":"34KYK9TV2RUAD363EVFPUWVPB97SBP","url":"https://gershmanlab.com/experiments/alicia/teaching/experiment/?hitId=34KYK9TV2RUAD363EVFPUWVPB97SBP&workerId=A1GKD3NG1NNHRP&assignmentId=3IXQG4FA2UKUU88YWRK02KMMI9BB9G&a=AGXI7&tp_a=AGXI7&b=3IXQG4FA2UKUU88YWRK02KMMI9BB9G&tp_b=3IXQG4FA2UKUU88YWRK02KMMI9BB9G&c=365717&tp_c=365717","heads":1,"tails":0,"studentIndex":14,"studentTrueHypers":{"a":1,"b":4},"studentGuess":0.3333333333333333,"delta":0.16666666666666669,"totalExamples":1,"bonus":0,"bonusSoFar":0},{"rt":4380,"response":{"heads":"1","tails":"1"},"type":"response","condition":"nonSeqFull","trueTheta":0.5,"classrooms":["C","D"],"studentTrueClassroom":"D","exampleSet":"first","trial_type":"survey-html-form","trial_index":155,"time_elapsed":8211742,"internal_node_id":"0.0-127.0-0.0","params":{"nStudents":24,"maxFlips":30,"completionMinutes":45,"basePay":8,"maxBonus":9,"perTrialBonus":0.5,"perTrialBonusThreshold":0.05,"exampleCost":0.01},"classroomParams":{"A":{"a":1,"b":4},"B":{"a":4,"b":1},"C":{"a":2,"b":8},"D":{"a":8,"b":2}},"conditions":["nonSeqFull","nonSeqPartial","seqNoFeedback","seqFeedback"],"classroomPairings":[["A","B"],["C","D"]],"coinWeights":[0.2,0.5,0.8],"subjectId":"A1GKD3NG1NNHRP","assignmentId":"3IXQG4FA2UKUU88YWRK02KMMI9BB9G","hitId":"34KYK9TV2RUAD363EVFPUWVPB97SBP","url":"https://gershmanlab.com/experiments/alicia/teaching/experiment/?hitId=34KYK9TV2RUAD363EVFPUWVPB97SBP&workerId=A1GKD3NG1NNHRP&assignmentId=3IXQG4FA2UKUU88YWRK02KMMI9BB9G&a=AGXI7&tp_a=AGXI7&b=3IXQG4FA2UKUU88YWRK02KMMI9BB9G&tp_b=3IXQG4FA2UKUU88YWRK02KMMI9BB9G&c=365717&tp_c=365717","heads":1,"tails":1,"studentIndex":15,"studentTrueHypers":{"a":8,"b":2},"studentGuess":0.75,"delta":0.25,"totalExamples":2,"bonus":0,"bonusSoFar":0},{"rt":3092,"response":{"heads":"0","tails":"2"},"type":"response","condition":"seqFeedback","trueTheta":0.8,"classrooms":["A","B"],"studentTrueClassroom":"B","exampleSet":"first","trial_type":"survey-html-form","trial_index":161,"time_elapsed":8225493,"internal_node_id":"0.0-133.0-0.0","params":{"nStudents":24,"maxFlips":30,"completionMinutes":45,"basePay":8,"maxBonus":9,"perTrialBonus":0.5,"perTrialBonusThreshold":0.05,"exampleCost":0.01},"classroomParams":{"A":{"a":1,"b":4},"B":{"a":4,"b":1},"C":{"a":2,"b":8},"D":{"a":8,"b":2}},"conditions":["nonSeqFull","nonSeqPartial","seqNoFeedback","seqFeedback"],"classroomPairings":[["A","B"],["C","D"]],"coinWeights":[0.2,0.5,0.8],"subjectId":"A1GKD3NG1NNHRP","assignmentId":"3IXQG4FA2UKUU88YWRK02KMMI9BB9G","hitId":"34KYK9TV2RUAD363EVFPUWVPB97SBP","url":"https://gershmanlab.com/experiments/alicia/teaching/experiment/?hitId=34KYK9TV2RUAD363EVFPUWVPB97SBP&workerId=A1GKD3NG1NNHRP&assignmentId=3IXQG4FA2UKUU88YWRK02KMMI9BB9G&a=AGXI7&tp_a=AGXI7&b=3IXQG4FA2UKUU88YWRK02KMMI9BB9G&tp_b=3IXQG4FA2UKUU88YWRK02KMMI9BB9G&c=365717&tp_c=365717","heads":0,"tails":2,"studentIndex":16,"studentTrueHypers":{"a":4,"b":1},"studentGuess":0.5714285714285714,"delta":0.22857142857142865,"totalExamples":2,"bonusSoFar":0},{"rt":11168,"response":{"heads":"1","tails":"4"},"type":"response","condition":"seqFeedback","trueTheta":0.8,"classrooms":["A","B"],"studentTrueClassroom":"B","exampleSet":"second","trial_type":"survey-html-form","trial_index":165,"time_elapsed":8246497,"internal_node_id":"0.0-137.0-0.0","params":{"nStudents":24,"maxFlips":30,"completionMinutes":45,"basePay":8,"maxBonus":9,"perTrialBonus":0.5,"perTrialBonusThreshold":0.05,"exampleCost":0.01},"classroomParams":{"A":{"a":1,"b":4},"B":{"a":4,"b":1},"C":{"a":2,"b":8},"D":{"a":8,"b":2}},"conditions":["nonSeqFull","nonSeqPartial","seqNoFeedback","seqFeedback"],"classroomPairings":[["A","B"],["C","D"]],"coinWeights":[0.2,0.5,0.8],"subjectId":"A1GKD3NG1NNHRP","assignmentId":"3IXQG4FA2UKUU88YWRK02KMMI9BB9G","hitId":"34KYK9TV2RUAD363EVFPUWVPB97SBP","url":"https://gershmanlab.com/experiments/alicia/teaching/experiment/?hitId=34KYK9TV2RUAD363EVFPUWVPB97SBP&workerId=A1GKD3NG1NNHRP&assignmentId=3IXQG4FA2UKUU88YWRK02KMMI9BB9G&a=AGXI7&tp_a=AGXI7&b=3IXQG4FA2UKUU88YWRK02KMMI9BB9G&tp_b=3IXQG4FA2UKUU88YWRK02KMMI9BB9G&c=365717&tp_c=365717","firstResponseHeads":0,"firstResponseTails":2,"secondResponseHeads":1,"secondResponseTails":4,"totalHeads":1,"totalTails":6,"studentIndex":16,"studentTrueHypers":{"a":4,"b":1},"studentGuess":0.4166666666666667,"delta":0.38333333333333336,"bonus":0,"bonusSoFar":0,"totalExamples":7},{"rt":10230,"response":{"heads":"0","tails":"4"},"type":"response","condition":"nonSeqFull","trueTheta":0.2,"classrooms":["A","B"],"studentTrueClassroom":"A","exampleSet":"first","trial_type":"survey-html-form","trial_index":171,"time_elapsed":8268278,"internal_node_id":"0.0-143.0-0.0","params":{"nStudents":24,"maxFlips":30,"completionMinutes":45,"basePay":8,"maxBonus":9,"perTrialBonus":0.5,"perTrialBonusThreshold":0.05,"exampleCost":0.01},"classroomParams":{"A":{"a":1,"b":4},"B":{"a":4,"b":1},"C":{"a":2,"b":8},"D":{"a":8,"b":2}},"conditions":["nonSeqFull","nonSeqPartial","seqNoFeedback","seqFeedback"],"classroomPairings":[["A","B"],["C","D"]],"coinWeights":[0.2,0.5,0.8],"subjectId":"A1GKD3NG1NNHRP","assignmentId":"3IXQG4FA2UKUU88YWRK02KMMI9BB9G","hitId":"34KYK9TV2RUAD363EVFPUWVPB97SBP","url":"https://gershmanlab.com/experiments/alicia/teaching/experiment/?hitId=34KYK9TV2RUAD363EVFPUWVPB97SBP&workerId=A1GKD3NG1NNHRP&assignmentId=3IXQG4FA2UKUU88YWRK02KMMI9BB9G&a=AGXI7&tp_a=AGXI7&b=3IXQG4FA2UKUU88YWRK02KMMI9BB9G&tp_b=3IXQG4FA2UKUU88YWRK02KMMI9BB9G&c=365717&tp_c=365717","heads":0,"tails":4,"studentIndex":17,"studentTrueHypers":{"a":1,"b":4},"studentGuess":0.1111111111111111,"delta":0.0888888888888889,"totalExamples":4,"bonus":0,"bonusSoFar":0},{"rt":3993,"response":{"heads":"0","tails":"4"},"type":"response","condition":"nonSeqFull","trueTheta":0.2,"classrooms":["C","D"],"studentTrueClassroom":"D","exampleSet":"first","trial_type":"survey-html-form","trial_index":177,"time_elapsed":8284149,"internal_node_id":"0.0-149.0-0.0","params":{"nStudents":24,"maxFlips":30,"completionMinutes":45,"basePay":8,"maxBonus":9,"perTrialBonus":0.5,"perTrialBonusThreshold":0.05,"exampleCost":0.01},"classroomParams":{"A":{"a":1,"b":4},"B":{"a":4,"b":1},"C":{"a":2,"b":8},"D":{"a":8,"b":2}},"conditions":["nonSeqFull","nonSeqPartial","seqNoFeedback","seqFeedback"],"classroomPairings":[["A","B"],["C","D"]],"coinWeights":[0.2,0.5,0.8],"subjectId":"A1GKD3NG1NNHRP","assignmentId":"3IXQG4FA2UKUU88YWRK02KMMI9BB9G","hitId":"34KYK9TV2RUAD363EVFPUWVPB97SBP","url":"https://gershmanlab.com/experiments/alicia/teaching/experiment/?hitId=34KYK9TV2RUAD363EVFPUWVPB97SBP&workerId=A1GKD3NG1NNHRP&assignmentId=3IXQG4FA2UKUU88YWRK02KMMI9BB9G&a=AGXI7&tp_a=AGXI7&b=3IXQG4FA2UKUU88YWRK02KMMI9BB9G&tp_b=3IXQG4FA2UKUU88YWRK02KMMI9BB9G&c=365717&tp_c=365717","heads":0,"tails":4,"studentIndex":18,"studentTrueHypers":{"a":8,"b":2},"studentGuess":0.5714285714285714,"delta":0.3714285714285714,"totalExamples":4,"bonus":0,"bonusSoFar":0},{"rt":3902,"response":{"heads":"2","tails":"0"},"type":"response","condition":"seqFeedback","trueTheta":0.2,"classrooms":["A","B"],"studentTrueClassroom":"B","exampleSet":"first","trial_type":"survey-html-form","trial_index":183,"time_elapsed":8299565,"internal_node_id":"0.0-155.0-0.0","params":{"nStudents":24,"maxFlips":30,"completionMinutes":45,"basePay":8,"maxBonus":9,"perTrialBonus":0.5,"perTrialBonusThreshold":0.05,"exampleCost":0.01},"classroomParams":{"A":{"a":1,"b":4},"B":{"a":4,"b":1},"C":{"a":2,"b":8},"D":{"a":8,"b":2}},"conditions":["nonSeqFull","nonSeqPartial","seqNoFeedback","seqFeedback"],"classroomPairings":[["A","B"],["C","D"]],"coinWeights":[0.2,0.5,0.8],"subjectId":"A1GKD3NG1NNHRP","assignmentId":"3IXQG4FA2UKUU88YWRK02KMMI9BB9G","hitId":"34KYK9TV2RUAD363EVFPUWVPB97SBP","url":"https://gershmanlab.com/experiments/alicia/teaching/experiment/?hitId=34KYK9TV2RUAD363EVFPUWVPB97SBP&workerId=A1GKD3NG1NNHRP&assignmentId=3IXQG4FA2UKUU88YWRK02KMMI9BB9G&a=AGXI7&tp_a=AGXI7&b=3IXQG4FA2UKUU88YWRK02KMMI9BB9G&tp_b=3IXQG4FA2UKUU88YWRK02KMMI9BB9G&c=365717&tp_c=365717","heads":2,"tails":0,"studentIndex":19,"studentTrueHypers":{"a":4,"b":1},"studentGuess":0.8571428571428571,"delta":0.657142857142857,"totalExamples":2,"bonusSoFar":0},{"rt":4176,"response":{"heads":"0","tails":"2"},"type":"response","condition":"seqFeedback","trueTheta":0.2,"classrooms":["A","B"],"studentTrueClassroom":"B","exampleSet":"second","trial_type":"survey-html-form","trial_index":187,"time_elapsed":8311173,"internal_node_id":"0.0-159.0-0.0","params":{"nStudents":24,"maxFlips":30,"completionMinutes":45,"basePay":8,"maxBonus":9,"perTrialBonus":0.5,"perTrialBonusThreshold":0.05,"exampleCost":0.01},"classroomParams":{"A":{"a":1,"b":4},"B":{"a":4,"b":1},"C":{"a":2,"b":8},"D":{"a":8,"b":2}},"conditions":["nonSeqFull","nonSeqPartial","seqNoFeedback","seqFeedback"],"classroomPairings":[["A","B"],["C","D"]],"coinWeights":[0.2,0.5,0.8],"subjectId":"A1GKD3NG1NNHRP","assignmentId":"3IXQG4FA2UKUU88YWRK02KMMI9BB9G","hitId":"34KYK9TV2RUAD363EVFPUWVPB97SBP","url":"https://gershmanlab.com/experiments/alicia/teaching/experiment/?hitId=34KYK9TV2RUAD363EVFPUWVPB97SBP&workerId=A1GKD3NG1NNHRP&assignmentId=3IXQG4FA2UKUU88YWRK02KMMI9BB9G&a=AGXI7&tp_a=AGXI7&b=3IXQG4FA2UKUU88YWRK02KMMI9BB9G&tp_b=3IXQG4FA2UKUU88YWRK02KMMI9BB9G&c=365717&tp_c=365717","firstResponseHeads":2,"firstResponseTails":0,"secondResponseHeads":0,"secondResponseTails":2,"totalHeads":2,"totalTails":2,"studentIndex":19,"studentTrueHypers":{"a":4,"b":1},"studentGuess":0.6666666666666666,"delta":0.4666666666666666,"bonus":0,"bonusSoFar":0,"totalExamples":4},{"rt":9863,"response":{"heads":"1","tails":"1"},"type":"response","condition":"nonSeqPartial","trueTheta":0.5,"classrooms":["C","D"],"studentTrueClassroom":"C","exampleSet":"first","trial_type":"survey-html-form","trial_index":193,"time_elapsed":8334494,"internal_node_id":"0.0-165.0-0.0","params":{"nStudents":24,"maxFlips":30,"completionMinutes":45,"basePay":8,"maxBonus":9,"perTrialBonus":0.5,"perTrialBonusThreshold":0.05,"exampleCost":0.01},"classroomParams":{"A":{"a":1,"b":4},"B":{"a":4,"b":1},"C":{"a":2,"b":8},"D":{"a":8,"b":2}},"conditions":["nonSeqFull","nonSeqPartial","seqNoFeedback","seqFeedback"],"classroomPairings":[["A","B"],["C","D"]],"coinWeights":[0.2,0.5,0.8],"subjectId":"A1GKD3NG1NNHRP","assignmentId":"3IXQG4FA2UKUU88YWRK02KMMI9BB9G","hitId":"34KYK9TV2RUAD363EVFPUWVPB97SBP","url":"https://gershmanlab.com/experiments/alicia/teaching/experiment/?hitId=34KYK9TV2RUAD363EVFPUWVPB97SBP&workerId=A1GKD3NG1NNHRP&assignmentId=3IXQG4FA2UKUU88YWRK02KMMI9BB9G&a=AGXI7&tp_a=AGXI7&b=3IXQG4FA2UKUU88YWRK02KMMI9BB9G&tp_b=3IXQG4FA2UKUU88YWRK02KMMI9BB9G&c=365717&tp_c=365717","heads":1,"tails":1,"studentIndex":20,"studentTrueHypers":{"a":2,"b":8},"studentGuess":0.25,"delta":0.25,"totalExamples":2,"bonus":0,"bonusSoFar":0},{"rt":4441,"response":{"heads":"0","tails":"2"},"type":"response","condition":"nonSeqPartial","trueTheta":0.2,"classrooms":["A","B"],"studentTrueClassroom":"A","exampleSet":"first","trial_type":"survey-html-form","trial_index":199,"time_elapsed":8350781,"internal_node_id":"0.0-171.0-0.0","params":{"nStudents":24,"maxFlips":30,"completionMinutes":45,"basePay":8,"maxBonus":9,"perTrialBonus":0.5,"perTrialBonusThreshold":0.05,"exampleCost":0.01},"classroomParams":{"A":{"a":1,"b":4},"B":{"a":4,"b":1},"C":{"a":2,"b":8},"D":{"a":8,"b":2}},"conditions":["nonSeqFull","nonSeqPartial","seqNoFeedback","seqFeedback"],"classroomPairings":[["A","B"],["C","D"]],"coinWeights":[0.2,0.5,0.8],"subjectId":"A1GKD3NG1NNHRP","assignmentId":"3IXQG4FA2UKUU88YWRK02KMMI9BB9G","hitId":"34KYK9TV2RUAD363EVFPUWVPB97SBP","url":"https://gershmanlab.com/experiments/alicia/teaching/experiment/?hitId=34KYK9TV2RUAD363EVFPUWVPB97SBP&workerId=A1GKD3NG1NNHRP&assignmentId=3IXQG4FA2UKUU88YWRK02KMMI9BB9G&a=AGXI7&tp_a=AGXI7&b=3IXQG4FA2UKUU88YWRK02KMMI9BB9G&tp_b=3IXQG4FA2UKUU88YWRK02KMMI9BB9G&c=365717&tp_c=365717","heads":0,"tails":2,"studentIndex":21,"studentTrueHypers":{"a":1,"b":4},"studentGuess":0.14285714285714285,"delta":0.05714285714285716,"totalExamples":2,"bonus":0,"bonusSoFar":0},{"rt":4893,"response":{"heads":"2","tails":"0"},"type":"response","condition":"seqNoFeedback","trueTheta":0.8,"classrooms":["C","D"],"studentTrueClassroom":"C","exampleSet":"first","trial_type":"survey-html-form","trial_index":205,"time_elapsed":8366813,"internal_node_id":"0.0-177.0-0.0","params":{"nStudents":24,"maxFlips":30,"completionMinutes":45,"basePay":8,"maxBonus":9,"perTrialBonus":0.5,"perTrialBonusThreshold":0.05,"exampleCost":0.01},"classroomParams":{"A":{"a":1,"b":4},"B":{"a":4,"b":1},"C":{"a":2,"b":8},"D":{"a":8,"b":2}},"conditions":["nonSeqFull","nonSeqPartial","seqNoFeedback","seqFeedback"],"classroomPairings":[["A","B"],["C","D"]],"coinWeights":[0.2,0.5,0.8],"subjectId":"A1GKD3NG1NNHRP","assignmentId":"3IXQG4FA2UKUU88YWRK02KMMI9BB9G","hitId":"34KYK9TV2RUAD363EVFPUWVPB97SBP","url":"https://gershmanlab.com/experiments/alicia/teaching/experiment/?hitId=34KYK9TV2RUAD363EVFPUWVPB97SBP&workerId=A1GKD3NG1NNHRP&assignmentId=3IXQG4FA2UKUU88YWRK02KMMI9BB9G&a=AGXI7&tp_a=AGXI7&b=3IXQG4FA2UKUU88YWRK02KMMI9BB9G&tp_b=3IXQG4FA2UKUU88YWRK02KMMI9BB9G&c=365717&tp_c=365717","heads":2,"tails":0,"studentIndex":22,"studentTrueHypers":{"a":2,"b":8},"studentGuess":0.3333333333333333,"delta":0.46666666666666673,"totalExamples":2,"bonusSoFar":0},{"rt":10070,"response":{"heads":"0","tails":"2"},"type":"response","condition":"seqNoFeedback","trueTheta":0.8,"classrooms":["C","D"],"studentTrueClassroom":"C","exampleSet":"second","trial_type":"survey-html-form","trial_index":208,"time_elapsed":8382909,"internal_node_id":"0.0-180.0-0.0","params":{"nStudents":24,"maxFlips":30,"completionMinutes":45,"basePay":8,"maxBonus":9,"perTrialBonus":0.5,"perTrialBonusThreshold":0.05,"exampleCost":0.01},"classroomParams":{"A":{"a":1,"b":4},"B":{"a":4,"b":1},"C":{"a":2,"b":8},"D":{"a":8,"b":2}},"conditions":["nonSeqFull","nonSeqPartial","seqNoFeedback","seqFeedback"],"classroomPairings":[["A","B"],["C","D"]],"coinWeights":[0.2,0.5,0.8],"subjectId":"A1GKD3NG1NNHRP","assignmentId":"3IXQG4FA2UKUU88YWRK02KMMI9BB9G","hitId":"34KYK9TV2RUAD363EVFPUWVPB97SBP","url":"https://gershmanlab.com/experiments/alicia/teaching/experiment/?hitId=34KYK9TV2RUAD363EVFPUWVPB97SBP&workerId=A1GKD3NG1NNHRP&assignmentId=3IXQG4FA2UKUU88YWRK02KMMI9BB9G&a=AGXI7&tp_a=AGXI7&b=3IXQG4FA2UKUU88YWRK02KMMI9BB9G&tp_b=3IXQG4FA2UKUU88YWRK02KMMI9BB9G&c=365717&tp_c=365717","firstResponseHeads":2,"firstResponseTails":0,"secondResponseHeads":0,"secondResponseTails":2,"totalHeads":2,"totalTails":2,"studentIndex":22,"studentTrueHypers":{"a":2,"b":8},"studentGuess":0.2857142857142857,"delta":0.5142857142857143,"bonus":0,"bonusSoFar":0,"totalExamples":4},{"rt":4567,"response":{"heads":"0","tails":"2"},"type":"response","condition":"nonSeqFull","trueTheta":0.8,"classrooms":["A","B"],"studentTrueClassroom":"A","exampleSet":"first","trial_type":"survey-html-form","trial_index":214,"time_elapsed":8398628,"internal_node_id":"0.0-186.0-0.0","params":{"nStudents":24,"maxFlips":30,"completionMinutes":45,"basePay":8,"maxBonus":9,"perTrialBonus":0.5,"perTrialBonusThreshold":0.05,"exampleCost":0.01},"classroomParams":{"A":{"a":1,"b":4},"B":{"a":4,"b":1},"C":{"a":2,"b":8},"D":{"a":8,"b":2}},"conditions":["nonSeqFull","nonSeqPartial","seqNoFeedback","seqFeedback"],"classroomPairings":[["A","B"],["C","D"]],"coinWeights":[0.2,0.5,0.8],"subjectId":"A1GKD3NG1NNHRP","assignmentId":"3IXQG4FA2UKUU88YWRK02KMMI9BB9G","hitId":"34KYK9TV2RUAD363EVFPUWVPB97SBP","url":"https://gershmanlab.com/experiments/alicia/teaching/experiment/?hitId=34KYK9TV2RUAD363EVFPUWVPB97SBP&workerId=A1GKD3NG1NNHRP&assignmentId=3IXQG4FA2UKUU88YWRK02KMMI9BB9G&a=AGXI7&tp_a=AGXI7&b=3IXQG4FA2UKUU88YWRK02KMMI9BB9G&tp_b=3IXQG4FA2UKUU88YWRK02KMMI9BB9G&c=365717&tp_c=365717","heads":0,"tails":2,"studentIndex":23,"studentTrueHypers":{"a":1,"b":4},"studentGuess":0.14285714285714285,"delta":0.6571428571428573,"totalExamples":2,"bonus":0,"bonusSoFar":0},{"rt":9528,"response":{"gender":"female","age":"62","understood":"yes","comments":""},"type":"response","trial_type":"survey-html-form","trial_index":218,"time_elapsed":8415174,"internal_node_id":"0.0-191.0","params":{"nStudents":24,"maxFlips":30,"completionMinutes":45,"basePay":8,"maxBonus":9,"perTrialBonus":0.5,"perTrialBonusThreshold":0.05,"exampleCost":0.01},"classroomParams":{"A":{"a":1,"b":4},"B":{"a":4,"b":1},"C":{"a":2,"b":8},"D":{"a":8,"b":2}},"conditions":["nonSeqFull","nonSeqPartial","seqNoFeedback","seqFeedback"],"classroomPairings":[["A","B"],["C","D"]],"coinWeights":[0.2,0.5,0.8],"subjectId":"A1GKD3NG1NNHRP","assignmentId":"3IXQG4FA2UKUU88YWRK02KMMI9BB9G","hitId":"34KYK9TV2RUAD363EVFPUWVPB97SBP","url":"https://gershmanlab.com/experiments/alicia/teaching/experiment/?hitId=34KYK9TV2RUAD363EVFPUWVPB97SBP&workerId=A1GKD3NG1NNHRP&assignmentId=3IXQG4FA2UKUU88YWRK02KMMI9BB9G&a=AGXI7&tp_a=AGXI7&b=3IXQG4FA2UKUU88YWRK02KMMI9BB9G&tp_b=3IXQG4FA2UKUU88YWRK02KMMI9BB9G&c=365717&tp_c=365717","totalBonus":0}]