[{"rt":21617,"response":{"heads":"8","tails":"2"},"type":"response","condition":"nonSeqFull","trueTheta":0.8,"classrooms":["A","B"],"studentTrueClassroom":"B","exampleSet":"first","trial_type":"survey-html-form","trial_index":10,"time_elapsed":377737,"internal_node_id":"0.0-6.0-0.0","params":{"nStudents":24,"maxFlips":30,"completionMinutes":45,"basePay":8,"maxBonus":9,"perTrialBonus":0.5,"perTrialBonusThreshold":0.05,"exampleCost":0.01},"classroomParams":{"A":{"a":1,"b":4},"B":{"a":4,"b":1},"C":{"a":2,"b":8},"D":{"a":8,"b":2}},"conditions":["nonSeqFull","nonSeqPartial","seqNoFeedback","seqFeedback"],"classroomPairings":[["A","B"],["C","D"]],"coinWeights":[0.2,0.5,0.8],"subjectId":"A1IFIK8J49WBER","assignmentId":"32AT8R96GMVRVMD35O1MO5J0ZI6SUO","hitId":"34KYK9TV2RUAD363EVFPUWVPB97SBP","url":"https://gershmanlab.com/experiments/alicia/teaching/experiment/?hitId=34KYK9TV2RUAD363EVFPUWVPB97SBP&workerId=A1IFIK8J49WBER&assignmentId=32AT8R96GMVRVMD35O1MO5J0ZI6SUO&a=68A27&tp_a=68A27&b=32AT8R96GMVRVMD35O1MO5J0ZI6SUO&tp_b=32AT8R96GMVRVMD35O1MO5J0ZI6SUO&c=365717&tp_c=365717","heads":8,"tails":2,"studentIndex":0,"studentTrueHypers":{"a":4,"b":1},"studentGuess":0.8,"delta":0,"totalExamples":10,"bonus":0.4,"bonusSoFar":0.4},{"rt":6484,"response":{"heads":"2","tails":"8"},"type":"response","condition":"nonSeqFull","trueTheta":0.2,"classrooms":["A","B"],"studentTrueClassroom":"B","exampleSet":"first","trial_type":"survey-html-form","trial_index":16,"time_elapsed":405943,"internal_node_id":"0.0-12.0-0.0","params":{"nStudents":24,"maxFlips":30,"completionMinutes":45,"basePay":8,"maxBonus":9,"perTrialBonus":0.5,"perTrialBonusThreshold":0.05,"exampleCost":0.01},"classroomParams":{"A":{"a":1,"b":4},"B":{"a":4,"b":1},"C":{"a":2,"b":8},"D":{"a":8,"b":2}},"conditions":["nonSeqFull","nonSeqPartial","seqNoFeedback","seqFeedback"],"classroomPairings":[["A","B"],["C","D"]],"coinWeights":[0.2,0.5,0.8],"subjectId":"A1IFIK8J49WBER","assignmentId":"32AT8R96GMVRVMD35O1MO5J0ZI6SUO","hitId":"34KYK9TV2RUAD363EVFPUWVPB97SBP","url":"https://gershmanlab.com/experiments/alicia/teaching/experiment/?hitId=34KYK9TV2RUAD363EVFPUWVPB97SBP&workerId=A1IFIK8J49WBER&assignmentId=32AT8R96GMVRVMD35O1MO5J0ZI6SUO&a=68A27&tp_a=68A27&b=32AT8R96GMVRVMD35O1MO5J0ZI6SUO&tp_b=32AT8R96GMVRVMD35O1MO5J0ZI6SUO&c=365717&tp_c=365717","heads":2,"tails":8,"studentIndex":1,"studentTrueHypers":{"a":4,"b":1},"studentGuess":0.4,"delta":0.2,"totalExamples":10,"bonus":0,"bonusSoFar":0.4},{"rt":26345,"response":{"heads":"16","tails":"4"},"type":"response","condition":"seqFeedback","trueTheta":0.2,"classrooms":["C","D"],"studentTrueClassroom":"C","exampleSet":"first","trial_type":"survey-html-form","trial_index":22,"time_elapsed":467493,"internal_node_id":"0.0-18.0-0.0","params":{"nStudents":24,"maxFlips":30,"completionMinutes":45,"basePay":8,"maxBonus":9,"perTrialBonus":0.5,"perTrialBonusThreshold":0.05,"exampleCost":0.01},"classroomParams":{"A":{"a":1,"b":4},"B":{"a":4,"b":1},"C":{"a":2,"b":8},"D":{"a":8,"b":2}},"conditions":["nonSeqFull","nonSeqPartial","seqNoFeedback","seqFeedback"],"classroomPairings":[["A","B"],["C","D"]],"coinWeights":[0.2,0.5,0.8],"subjectId":"A1IFIK8J49WBER","assignmentId":"32AT8R96GMVRVMD35O1MO5J0ZI6SUO","hitId":"34KYK9TV2RUAD363EVFPUWVPB97SBP","url":"https://gershmanlab.com/experiments/alicia/teaching/experiment/?hitId=34KYK9TV2RUAD363EVFPUWVPB97SBP&workerId=A1IFIK8J49WBER&assignmentId=32AT8R96GMVRVMD35O1MO5J0ZI6SUO&a=68A27&tp_a=68A27&b=32AT8R96GMVRVMD35O1MO5J0ZI6SUO&tp_b=32AT8R96GMVRVMD35O1MO5J0ZI6SUO&c=365717&tp_c=365717","heads":16,"tails":4,"studentIndex":2,"studentTrueHypers":{"a":2,"b":8},"studentGuess":0.6,"delta":0.39999999999999997,"totalExamples":20,"bonusSoFar":0.4},{"rt":18963,"response":{"heads":"5","tails":"5"},"type":"response","condition":"seqFeedback","trueTheta":0.2,"classrooms":["C","D"],"studentTrueClassroom":"C","exampleSet":"second","trial_type":"survey-html-form","trial_index":26,"time_elapsed":506744,"internal_node_id":"0.0-22.0-0.0","params":{"nStudents":24,"maxFlips":30,"completionMinutes":45,"basePay":8,"maxBonus":9,"perTrialBonus":0.5,"perTrialBonusThreshold":0.05,"exampleCost":0.01},"classroomParams":{"A":{"a":1,"b":4},"B":{"a":4,"b":1},"C":{"a":2,"b":8},"D":{"a":8,"b":2}},"conditions":["nonSeqFull","nonSeqPartial","seqNoFeedback","seqFeedback"],"classroomPairings":[["A","B"],["C","D"]],"coinWeights":[0.2,0.5,0.8],"subjectId":"A1IFIK8J49WBER","assignmentId":"32AT8R96GMVRVMD35O1MO5J0ZI6SUO","hitId":"34KYK9TV2RUAD363EVFPUWVPB97SBP","url":"https://gershmanlab.com/experiments/alicia/teaching/experiment/?hitId=34KYK9TV2RUAD363EVFPUWVPB97SBP&workerId=A1IFIK8J49WBER&assignmentId=32AT8R96GMVRVMD35O1MO5J0ZI6SUO&a=68A27&tp_a=68A27&b=32AT8R96GMVRVMD35O1MO5J0ZI6SUO&tp_b=32AT8R96GMVRVMD35O1MO5J0ZI6SUO&c=365717&tp_c=365717","firstResponseHeads":16,"firstResponseTails":4,"secondResponseHeads":5,"secondResponseTails":5,"totalHeads":21,"totalTails":9,"studentIndex":2,"studentTrueHypers":{"a":2,"b":8},"studentGuess":0.575,"delta":0.37499999999999994,"bonus":0,"bonusSoFar":0.4,"totalExamples":30},{"rt":17854,"response":{"heads":"4","tails":"6"},"type":"response","condition":"seqNoFeedback","trueTheta":0.5,"classrooms":["C","D"],"studentTrueClassroom":"C","exampleSet":"first","trial_type":"survey-html-form","trial_index":32,"time_elapsed":545820,"internal_node_id":"0.0-28.0-0.0","params":{"nStudents":24,"maxFlips":30,"completionMinutes":45,"basePay":8,"maxBonus":9,"perTrialBonus":0.5,"perTrialBonusThreshold":0.05,"exampleCost":0.01},"classroomParams":{"A":{"a":1,"b":4},"B":{"a":4,"b":1},"C":{"a":2,"b":8},"D":{"a":8,"b":2}},"conditions":["nonSeqFull","nonSeqPartial","seqNoFeedback","seqFeedback"],"classroomPairings":[["A","B"],["C","D"]],"coinWeights":[0.2,0.5,0.8],"subjectId":"A1IFIK8J49WBER","assignmentId":"32AT8R96GMVRVMD35O1MO5J0ZI6SUO","hitId":"34KYK9TV2RUAD363EVFPUWVPB97SBP","url":"https://gershmanlab.com/experiments/alicia/teaching/experiment/?hitId=34KYK9TV2RUAD363EVFPUWVPB97SBP&workerId=A1IFIK8J49WBER&assignmentId=32AT8R96GMVRVMD35O1MO5J0ZI6SUO&a=68A27&tp_a=68A27&b=32AT8R96GMVRVMD35O1MO5J0ZI6SUO&tp_b=32AT8R96GMVRVMD35O1MO5J0ZI6SUO&c=365717&tp_c=365717","heads":4,"tails":6,"studentIndex":3,"studentTrueHypers":{"a":2,"b":8},"studentGuess":0.3,"delta":0.2,"totalExamples":10,"bonusSoFar":0.4},{"rt":20554,"response":{"heads":"5","tails":"5"},"type":"response","condition":"seqNoFeedback","trueTheta":0.5,"classrooms":["C","D"],"studentTrueClassroom":"C","exampleSet":"second","trial_type":"survey-html-form","trial_index":35,"time_elapsed":572906,"internal_node_id":"0.0-31.0-0.0","params":{"nStudents":24,"maxFlips":30,"completionMinutes":45,"basePay":8,"maxBonus":9,"perTrialBonus":0.5,"perTrialBonusThreshold":0.05,"exampleCost":0.01},"classroomParams":{"A":{"a":1,"b":4},"B":{"a":4,"b":1},"C":{"a":2,"b":8},"D":{"a":8,"b":2}},"conditions":["nonSeqFull","nonSeqPartial","seqNoFeedback","seqFeedback"],"classroomPairings":[["A","B"],["C","D"]],"coinWeights":[0.2,0.5,0.8],"subjectId":"A1IFIK8J49WBER","assignmentId":"32AT8R96GMVRVMD35O1MO5J0ZI6SUO","hitId":"34KYK9TV2RUAD363EVFPUWVPB97SBP","url":"https://gershmanlab.com/experiments/alicia/teaching/experiment/?hitId=34KYK9TV2RUAD363EVFPUWVPB97SBP&workerId=A1IFIK8J49WBER&assignmentId=32AT8R96GMVRVMD35O1MO5J0ZI6SUO&a=68A27&tp_a=68A27&b=32AT8R96GMVRVMD35O1MO5J0ZI6SUO&tp_b=32AT8R96GMVRVMD35O1MO5J0ZI6SUO&c=365717&tp_c=365717","firstResponseHeads":4,"firstResponseTails":6,"secondResponseHeads":5,"secondResponseTails":5,"totalHeads":9,"totalTails":11,"studentIndex":3,"studentTrueHypers":{"a":2,"b":8},"studentGuess":0.36666666666666664,"delta":0.13333333333333336,"bonus":0,"bonusSoFar":0.4,"totalExamples":20},{"rt":13971,"response":{"heads":"9","tails":"1"},"type":"response","condition":"seqFeedback","trueTheta":0.8,"classrooms":["A","B"],"studentTrueClassroom":"A","exampleSet":"first","trial_type":"survey-html-form","trial_index":41,"time_elapsed":605338,"internal_node_id":"0.0-37.0-0.0","params":{"nStudents":24,"maxFlips":30,"completionMinutes":45,"basePay":8,"maxBonus":9,"perTrialBonus":0.5,"perTrialBonusThreshold":0.05,"exampleCost":0.01},"classroomParams":{"A":{"a":1,"b":4},"B":{"a":4,"b":1},"C":{"a":2,"b":8},"D":{"a":8,"b":2}},"conditions":["nonSeqFull","nonSeqPartial","seqNoFeedback","seqFeedback"],"classroomPairings":[["A","B"],["C","D"]],"coinWeights":[0.2,0.5,0.8],"subjectId":"A1IFIK8J49WBER","assignmentId":"32AT8R96GMVRVMD35O1MO5J0ZI6SUO","hitId":"34KYK9TV2RUAD363EVFPUWVPB97SBP","url":"https://gershmanlab.com/experiments/alicia/teaching/experiment/?hitId=34KYK9TV2RUAD363EVFPUWVPB97SBP&workerId=A1IFIK8J49WBER&assignmentId=32AT8R96GMVRVMD35O1MO5J0ZI6SUO&a=68A27&tp_a=68A27&b=32AT8R96GMVRVMD35O1MO5J0ZI6SUO&tp_b=32AT8R96GMVRVMD35O1MO5J0ZI6SUO&c=365717&tp_c=365717","heads":9,"tails":1,"studentIndex":4,"studentTrueHypers":{"a":1,"b":4},"studentGuess":0.6666666666666666,"delta":0.13333333333333341,"totalExamples":10,"bonusSoFar":0.4},{"rt":65961,"response":{"heads":"12","tails":"1"},"type":"response","condition":"seqFeedback","trueTheta":0.8,"classrooms":["A","B"],"studentTrueClassroom":"A","exampleSet":"second","trial_type":"survey-html-form","trial_index":45,"time_elapsed":681105,"internal_node_id":"0.0-41.0-0.0","params":{"nStudents":24,"maxFlips":30,"completionMinutes":45,"basePay":8,"maxBonus":9,"perTrialBonus":0.5,"perTrialBonusThreshold":0.05,"exampleCost":0.01},"classroomParams":{"A":{"a":1,"b":4},"B":{"a":4,"b":1},"C":{"a":2,"b":8},"D":{"a":8,"b":2}},"conditions":["nonSeqFull","nonSeqPartial","seqNoFeedback","seqFeedback"],"classroomPairings":[["A","B"],["C","D"]],"coinWeights":[0.2,0.5,0.8],"subjectId":"A1IFIK8J49WBER","assignmentId":"32AT8R96GMVRVMD35O1MO5J0ZI6SUO","hitId":"34KYK9TV2RUAD363EVFPUWVPB97SBP","url":"https://gershmanlab.com/experiments/alicia/teaching/experiment/?hitId=34KYK9TV2RUAD363EVFPUWVPB97SBP&workerId=A1IFIK8J49WBER&assignmentId=32AT8R96GMVRVMD35O1MO5J0ZI6SUO&a=68A27&tp_a=68A27&b=32AT8R96GMVRVMD35O1MO5J0ZI6SUO&tp_b=32AT8R96GMVRVMD35O1MO5J0ZI6SUO&c=365717&tp_c=365717","firstResponseHeads":9,"firstResponseTails":1,"secondResponseHeads":12,"secondResponseTails":1,"totalHeads":21,"totalTails":2,"studentIndex":4,"studentTrueHypers":{"a":1,"b":4},"studentGuess":0.7857142857142857,"delta":0.014285714285714346,"bonus":0.27,"bonusSoFar":0.67,"totalExamples":23},{"rt":11078,"response":{"heads":"15","tails":"1"},"type":"response","condition":"seqNoFeedback","trueTheta":0.8,"classrooms":["A","B"],"studentTrueClassroom":"A","exampleSet":"first","trial_type":"survey-html-form","trial_index":51,"time_elapsed":714165,"internal_node_id":"0.0-47.0-0.0","params":{"nStudents":24,"maxFlips":30,"completionMinutes":45,"basePay":8,"maxBonus":9,"perTrialBonus":0.5,"perTrialBonusThreshold":0.05,"exampleCost":0.01},"classroomParams":{"A":{"a":1,"b":4},"B":{"a":4,"b":1},"C":{"a":2,"b":8},"D":{"a":8,"b":2}},"conditions":["nonSeqFull","nonSeqPartial","seqNoFeedback","seqFeedback"],"classroomPairings":[["A","B"],["C","D"]],"coinWeights":[0.2,0.5,0.8],"subjectId":"A1IFIK8J49WBER","assignmentId":"32AT8R96GMVRVMD35O1MO5J0ZI6SUO","hitId":"34KYK9TV2RUAD363EVFPUWVPB97SBP","url":"https://gershmanlab.com/experiments/alicia/teaching/experiment/?hitId=34KYK9TV2RUAD363EVFPUWVPB97SBP&workerId=A1IFIK8J49WBER&assignmentId=32AT8R96GMVRVMD35O1MO5J0ZI6SUO&a=68A27&tp_a=68A27&b=32AT8R96GMVRVMD35O1MO5J0ZI6SUO&tp_b=32AT8R96GMVRVMD35O1MO5J0ZI6SUO&c=365717&tp_c=365717","heads":15,"tails":1,"studentIndex":5,"studentTrueHypers":{"a":1,"b":4},"studentGuess":0.7619047619047619,"delta":0.03809523809523818,"totalExamples":16,"bonusSoFar":0.67},{"rt":7964,"response":{"heads":"20","tails":"5"},"type":"response","condition":"seqNoFeedback","trueTheta":0.8,"classrooms":["A","B"],"studentTrueClassroom":"A","exampleSet":"second","trial_type":"survey-html-form","trial_index":54,"time_elapsed":728644,"internal_node_id":"0.0-50.0-0.0","params":{"nStudents":24,"maxFlips":30,"completionMinutes":45,"basePay":8,"maxBonus":9,"perTrialBonus":0.5,"perTrialBonusThreshold":0.05,"exampleCost":0.01},"classroomParams":{"A":{"a":1,"b":4},"B":{"a":4,"b":1},"C":{"a":2,"b":8},"D":{"a":8,"b":2}},"conditions":["nonSeqFull","nonSeqPartial","seqNoFeedback","seqFeedback"],"classroomPairings":[["A","B"],["C","D"]],"coinWeights":[0.2,0.5,0.8],"subjectId":"A1IFIK8J49WBER","assignmentId":"32AT8R96GMVRVMD35O1MO5J0ZI6SUO","hitId":"34KYK9TV2RUAD363EVFPUWVPB97SBP","url":"https://gershmanlab.com/experiments/alicia/teaching/experiment/?hitId=34KYK9TV2RUAD363EVFPUWVPB97SBP&workerId=A1IFIK8J49WBER&assignmentId=32AT8R96GMVRVMD35O1MO5J0ZI6SUO&a=68A27&tp_a=68A27&b=32AT8R96GMVRVMD35O1MO5J0ZI6SUO&tp_b=32AT8R96GMVRVMD35O1MO5J0ZI6SUO&c=365717&tp_c=365717","firstResponseHeads":15,"firstResponseTails":1,"secondResponseHeads":20,"secondResponseTails":5,"totalHeads":35,"totalTails":6,"studentIndex":5,"studentTrueHypers":{"a":1,"b":4},"studentGuess":0.782608695652174,"delta":0.017391304347826098,"bonus":0.09,"bonusSoFar":0.76,"totalExamples":41},{"rt":13747,"response":{"heads":"8","tails":"2"},"type":"response","condition":"seqNoFeedback","trueTheta":0.8,"classrooms":["C","D"],"studentTrueClassroom":"C","exampleSet":"first","trial_type":"survey-html-form","trial_index":60,"time_elapsed":762901,"internal_node_id":"0.0-56.0-0.0","params":{"nStudents":24,"maxFlips":30,"completionMinutes":45,"basePay":8,"maxBonus":9,"perTrialBonus":0.5,"perTrialBonusThreshold":0.05,"exampleCost":0.01},"classroomParams":{"A":{"a":1,"b":4},"B":{"a":4,"b":1},"C":{"a":2,"b":8},"D":{"a":8,"b":2}},"conditions":["nonSeqFull","nonSeqPartial","seqNoFeedback","seqFeedback"],"classroomPairings":[["A","B"],["C","D"]],"coinWeights":[0.2,0.5,0.8],"subjectId":"A1IFIK8J49WBER","assignmentId":"32AT8R96GMVRVMD35O1MO5J0ZI6SUO","hitId":"34KYK9TV2RUAD363EVFPUWVPB97SBP","url":"https://gershmanlab.com/experiments/alicia/teaching/experiment/?hitId=34KYK9TV2RUAD363EVFPUWVPB97SBP&workerId=A1IFIK8J49WBER&assignmentId=32AT8R96GMVRVMD35O1MO5J0ZI6SUO&a=68A27&tp_a=68A27&b=32AT8R96GMVRVMD35O1MO5J0ZI6SUO&tp_b=32AT8R96GMVRVMD35O1MO5J0ZI6SUO&c=365717&tp_c=365717","heads":8,"tails":2,"studentIndex":6,"studentTrueHypers":{"a":2,"b":8},"studentGuess":0.5,"delta":0.30000000000000004,"totalExamples":10,"bonusSoFar":0.76},{"rt":7236,"response":{"heads":"8","tails":"2"},"type":"response","condition":"seqNoFeedback","trueTheta":0.8,"classrooms":["C","D"],"studentTrueClassroom":"C","exampleSet":"second","trial_type":"survey-html-form","trial_index":63,"time_elapsed":776408,"internal_node_id":"0.0-59.0-0.0","params":{"nStudents":24,"maxFlips":30,"completionMinutes":45,"basePay":8,"maxBonus":9,"perTrialBonus":0.5,"perTrialBonusThreshold":0.05,"exampleCost":0.01},"classroomParams":{"A":{"a":1,"b":4},"B":{"a":4,"b":1},"C":{"a":2,"b":8},"D":{"a":8,"b":2}},"conditions":["nonSeqFull","nonSeqPartial","seqNoFeedback","seqFeedback"],"classroomPairings":[["A","B"],["C","D"]],"coinWeights":[0.2,0.5,0.8],"subjectId":"A1IFIK8J49WBER","assignmentId":"32AT8R96GMVRVMD35O1MO5J0ZI6SUO","hitId":"34KYK9TV2RUAD363EVFPUWVPB97SBP","url":"https://gershmanlab.com/experiments/alicia/teaching/experiment/?hitId=34KYK9TV2RUAD363EVFPUWVPB97SBP&workerId=A1IFIK8J49WBER&assignmentId=32AT8R96GMVRVMD35O1MO5J0ZI6SUO&a=68A27&tp_a=68A27&b=32AT8R96GMVRVMD35O1MO5J0ZI6SUO&tp_b=32AT8R96GMVRVMD35O1MO5J0ZI6SUO&c=365717&tp_c=365717","firstResponseHeads":8,"firstResponseTails":2,"secondResponseHeads":8,"secondResponseTails":2,"totalHeads":16,"totalTails":4,"studentIndex":6,"studentTrueHypers":{"a":2,"b":8},"studentGuess":0.6,"delta":0.20000000000000007,"bonus":0,"bonusSoFar":0.76,"totalExamples":20},{"rt":13669,"response":{"heads":"4","tails":"10"},"type":"response","condition":"seqNoFeedback","trueTheta":0.2,"classrooms":["C","D"],"studentTrueClassroom":"C","exampleSet":"first","trial_type":"survey-html-form","trial_index":69,"time_elapsed":807231,"internal_node_id":"0.0-65.0-0.0","params":{"nStudents":24,"maxFlips":30,"completionMinutes":45,"basePay":8,"maxBonus":9,"perTrialBonus":0.5,"perTrialBonusThreshold":0.05,"exampleCost":0.01},"classroomParams":{"A":{"a":1,"b":4},"B":{"a":4,"b":1},"C":{"a":2,"b":8},"D":{"a":8,"b":2}},"conditions":["nonSeqFull","nonSeqPartial","seqNoFeedback","seqFeedback"],"classroomPairings":[["A","B"],["C","D"]],"coinWeights":[0.2,0.5,0.8],"subjectId":"A1IFIK8J49WBER","assignmentId":"32AT8R96GMVRVMD35O1MO5J0ZI6SUO","hitId":"34KYK9TV2RUAD363EVFPUWVPB97SBP","url":"https://gershmanlab.com/experiments/alicia/teaching/experiment/?hitId=34KYK9TV2RUAD363EVFPUWVPB97SBP&workerId=A1IFIK8J49WBER&assignmentId=32AT8R96GMVRVMD35O1MO5J0ZI6SUO&a=68A27&tp_a=68A27&b=32AT8R96GMVRVMD35O1MO5J0ZI6SUO&tp_b=32AT8R96GMVRVMD35O1MO5J0ZI6SUO&c=365717&tp_c=365717","heads":4,"tails":10,"studentIndex":7,"studentTrueHypers":{"a":2,"b":8},"studentGuess":0.25,"delta":0.04999999999999999,"totalExamples":14,"bonusSoFar":0.76},{"rt":11498,"response":{"heads":"2","tails":"12"},"type":"response","condition":"seqNoFeedback","trueTheta":0.2,"classrooms":["C","D"],"studentTrueClassroom":"C","exampleSet":"second","trial_type":"survey-html-form","trial_index":72,"time_elapsed":824739,"internal_node_id":"0.0-68.0-0.0","params":{"nStudents":24,"maxFlips":30,"completionMinutes":45,"basePay":8,"maxBonus":9,"perTrialBonus":0.5,"perTrialBonusThreshold":0.05,"exampleCost":0.01},"classroomParams":{"A":{"a":1,"b":4},"B":{"a":4,"b":1},"C":{"a":2,"b":8},"D":{"a":8,"b":2}},"conditions":["nonSeqFull","nonSeqPartial","seqNoFeedback","seqFeedback"],"classroomPairings":[["A","B"],["C","D"]],"coinWeights":[0.2,0.5,0.8],"subjectId":"A1IFIK8J49WBER","assignmentId":"32AT8R96GMVRVMD35O1MO5J0ZI6SUO","hitId":"34KYK9TV2RUAD363EVFPUWVPB97SBP","url":"https://gershmanlab.com/experiments/alicia/teaching/experiment/?hitId=34KYK9TV2RUAD363EVFPUWVPB97SBP&workerId=A1IFIK8J49WBER&assignmentId=32AT8R96GMVRVMD35O1MO5J0ZI6SUO&a=68A27&tp_a=68A27&b=32AT8R96GMVRVMD35O1MO5J0ZI6SUO&tp_b=32AT8R96GMVRVMD35O1MO5J0ZI6SUO&c=365717&tp_c=365717","firstResponseHeads":4,"firstResponseTails":10,"secondResponseHeads":2,"secondResponseTails":12,"totalHeads":6,"totalTails":22,"studentIndex":7,"studentTrueHypers":{"a":2,"b":8},"studentGuess":0.21052631578947367,"delta":0.010526315789473661,"bonus":0.22,"bonusSoFar":0.98,"totalExamples":28},{"rt":8251,"response":{"heads":"8","tails":"2"},"type":"response","condition":"nonSeqFull","trueTheta":0.8,"classrooms":["C","D"],"studentTrueClassroom":"D","exampleSet":"first","trial_type":"survey-html-form","trial_index":78,"time_elapsed":850047,"internal_node_id":"0.0-74.0-0.0","params":{"nStudents":24,"maxFlips":30,"completionMinutes":45,"basePay":8,"maxBonus":9,"perTrialBonus":0.5,"perTrialBonusThreshold":0.05,"exampleCost":0.01},"classroomParams":{"A":{"a":1,"b":4},"B":{"a":4,"b":1},"C":{"a":2,"b":8},"D":{"a":8,"b":2}},"conditions":["nonSeqFull","nonSeqPartial","seqNoFeedback","seqFeedback"],"classroomPairings":[["A","B"],["C","D"]],"coinWeights":[0.2,0.5,0.8],"subjectId":"A1IFIK8J49WBER","assignmentId":"32AT8R96GMVRVMD35O1MO5J0ZI6SUO","hitId":"34KYK9TV2RUAD363EVFPUWVPB97SBP","url":"https://gershmanlab.com/experiments/alicia/teaching/experiment/?hitId=34KYK9TV2RUAD363EVFPUWVPB97SBP&workerId=A1IFIK8J49WBER&assignmentId=32AT8R96GMVRVMD35O1MO5J0ZI6SUO&a=68A27&tp_a=68A27&b=32AT8R96GMVRVMD35O1MO5J0ZI6SUO&tp_b=32AT8R96GMVRVMD35O1MO5J0ZI6SUO&c=365717&tp_c=365717","heads":8,"tails":2,"studentIndex":8,"studentTrueHypers":{"a":8,"b":2},"studentGuess":0.8,"delta":0,"totalExamples":10,"bonus":0.4,"bonusSoFar":1.38},{"rt":16626,"response":{"heads":"1","tails":"12"},"type":"response","condition":"nonSeqPartial","trueTheta":0.2,"classrooms":["A","B"],"studentTrueClassroom":"A","exampleSet":"first","trial_type":"survey-html-form","trial_index":84,"time_elapsed":884272,"internal_node_id":"0.0-80.0-0.0","params":{"nStudents":24,"maxFlips":30,"completionMinutes":45,"basePay":8,"maxBonus":9,"perTrialBonus":0.5,"perTrialBonusThreshold":0.05,"exampleCost":0.01},"classroomParams":{"A":{"a":1,"b":4},"B":{"a":4,"b":1},"C":{"a":2,"b":8},"D":{"a":8,"b":2}},"conditions":["nonSeqFull","nonSeqPartial","seqNoFeedback","seqFeedback"],"classroomPairings":[["A","B"],["C","D"]],"coinWeights":[0.2,0.5,0.8],"subjectId":"A1IFIK8J49WBER","assignmentId":"32AT8R96GMVRVMD35O1MO5J0ZI6SUO","hitId":"34KYK9TV2RUAD363EVFPUWVPB97SBP","url":"https://gershmanlab.com/experiments/alicia/teaching/experiment/?hitId=34KYK9TV2RUAD363EVFPUWVPB97SBP&workerId=A1IFIK8J49WBER&assignmentId=32AT8R96GMVRVMD35O1MO5J0ZI6SUO&a=68A27&tp_a=68A27&b=32AT8R96GMVRVMD35O1MO5J0ZI6SUO&tp_b=32AT8R96GMVRVMD35O1MO5J0ZI6SUO&c=365717&tp_c=365717","heads":1,"tails":12,"studentIndex":9,"studentTrueHypers":{"a":1,"b":4},"studentGuess":0.1111111111111111,"delta":0.0888888888888889,"totalExamples":13,"bonus":0,"bonusSoFar":1.38},{"rt":7350,"response":{"heads":"2","tails":"8"},"type":"response","condition":"nonSeqPartial","trueTheta":0.2,"classrooms":["C","D"],"studentTrueClassroom":"C","exampleSet":"first","trial_type":"survey-html-form","trial_index":90,"time_elapsed":908285,"internal_node_id":"0.0-86.0-0.0","params":{"nStudents":24,"maxFlips":30,"completionMinutes":45,"basePay":8,"maxBonus":9,"perTrialBonus":0.5,"perTrialBonusThreshold":0.05,"exampleCost":0.01},"classroomParams":{"A":{"a":1,"b":4},"B":{"a":4,"b":1},"C":{"a":2,"b":8},"D":{"a":8,"b":2}},"conditions":["nonSeqFull","nonSeqPartial","seqNoFeedback","seqFeedback"],"classroomPairings":[["A","B"],["C","D"]],"coinWeights":[0.2,0.5,0.8],"subjectId":"A1IFIK8J49WBER","assignmentId":"32AT8R96GMVRVMD35O1MO5J0ZI6SUO","hitId":"34KYK9TV2RUAD363EVFPUWVPB97SBP","url":"https://gershmanlab.com/experiments/alicia/teaching/experiment/?hitId=34KYK9TV2RUAD363EVFPUWVPB97SBP&workerId=A1IFIK8J49WBER&assignmentId=32AT8R96GMVRVMD35O1MO5J0ZI6SUO&a=68A27&tp_a=68A27&b=32AT8R96GMVRVMD35O1MO5J0ZI6SUO&tp_b=32AT8R96GMVRVMD35O1MO5J0ZI6SUO&c=365717&tp_c=365717","heads":2,"tails":8,"studentIndex":10,"studentTrueHypers":{"a":2,"b":8},"studentGuess":0.2,"delta":0,"totalExamples":10,"bonus":0.4,"bonusSoFar":1.78},{"rt":7219,"response":{"heads":"8","tails":"2"},"type":"response","condition":"nonSeqPartial","trueTheta":0.8,"classrooms":["C","D"],"studentTrueClassroom":"D","exampleSet":"first","trial_type":"survey-html-form","trial_index":96,"time_elapsed":929570,"internal_node_id":"0.0-92.0-0.0","params":{"nStudents":24,"maxFlips":30,"completionMinutes":45,"basePay":8,"maxBonus":9,"perTrialBonus":0.5,"perTrialBonusThreshold":0.05,"exampleCost":0.01},"classroomParams":{"A":{"a":1,"b":4},"B":{"a":4,"b":1},"C":{"a":2,"b":8},"D":{"a":8,"b":2}},"conditions":["nonSeqFull","nonSeqPartial","seqNoFeedback","seqFeedback"],"classroomPairings":[["A","B"],["C","D"]],"coinWeights":[0.2,0.5,0.8],"subjectId":"A1IFIK8J49WBER","assignmentId":"32AT8R96GMVRVMD35O1MO5J0ZI6SUO","hitId":"34KYK9TV2RUAD363EVFPUWVPB97SBP","url":"https://gershmanlab.com/experiments/alicia/teaching/experiment/?hitId=34KYK9TV2RUAD363EVFPUWVPB97SBP&workerId=A1IFIK8J49WBER&assignmentId=32AT8R96GMVRVMD35O1MO5J0ZI6SUO&a=68A27&tp_a=68A27&b=32AT8R96GMVRVMD35O1MO5J0ZI6SUO&tp_b=32AT8R96GMVRVMD35O1MO5J0ZI6SUO&c=365717&tp_c=365717","heads":8,"tails":2,"studentIndex":11,"studentTrueHypers":{"a":8,"b":2},"studentGuess":0.8,"delta":0,"totalExamples":10,"bonus":0.4,"bonusSoFar":2.18},{"rt":40045,"response":{"heads":"2","tails":"8"},"type":"response","condition":"seqFeedback","trueTheta":0.2,"classrooms":["A","B"],"studentTrueClassroom":"B","exampleSet":"first","trial_type":"survey-html-form","trial_index":102,"time_elapsed":993702,"internal_node_id":"0.0-98.0-0.0","params":{"nStudents":24,"maxFlips":30,"completionMinutes":45,"basePay":8,"maxBonus":9,"perTrialBonus":0.5,"perTrialBonusThreshold":0.05,"exampleCost":0.01},"classroomParams":{"A":{"a":1,"b":4},"B":{"a":4,"b":1},"C":{"a":2,"b":8},"D":{"a":8,"b":2}},"conditions":["nonSeqFull","nonSeqPartial","seqNoFeedback","seqFeedback"],"classroomPairings":[["A","B"],["C","D"]],"coinWeights":[0.2,0.5,0.8],"subjectId":"A1IFIK8J49WBER","assignmentId":"32AT8R96GMVRVMD35O1MO5J0ZI6SUO","hitId":"34KYK9TV2RUAD363EVFPUWVPB97SBP","url":"https://gershmanlab.com/experiments/alicia/teaching/experiment/?hitId=34KYK9TV2RUAD363EVFPUWVPB97SBP&workerId=A1IFIK8J49WBER&assignmentId=32AT8R96GMVRVMD35O1MO5J0ZI6SUO&a=68A27&tp_a=68A27&b=32AT8R96GMVRVMD35O1MO5J0ZI6SUO&tp_b=32AT8R96GMVRVMD35O1MO5J0ZI6SUO&c=365717&tp_c=365717","heads":2,"tails":8,"studentIndex":12,"studentTrueHypers":{"a":4,"b":1},"studentGuess":0.4,"delta":0.2,"totalExamples":10,"bonusSoFar":2.18},{"rt":18690,"response":{"heads":"1","tails":"4"},"type":"response","condition":"seqFeedback","trueTheta":0.2,"classrooms":["A","B"],"studentTrueClassroom":"B","exampleSet":"second","trial_type":"survey-html-form","trial_index":106,"time_elapsed":1026478,"internal_node_id":"0.0-102.0-0.0","params":{"nStudents":24,"maxFlips":30,"completionMinutes":45,"basePay":8,"maxBonus":9,"perTrialBonus":0.5,"perTrialBonusThreshold":0.05,"exampleCost":0.01},"classroomParams":{"A":{"a":1,"b":4},"B":{"a":4,"b":1},"C":{"a":2,"b":8},"D":{"a":8,"b":2}},"conditions":["nonSeqFull","nonSeqPartial","seqNoFeedback","seqFeedback"],"classroomPairings":[["A","B"],["C","D"]],"coinWeights":[0.2,0.5,0.8],"subjectId":"A1IFIK8J49WBER","assignmentId":"32AT8R96GMVRVMD35O1MO5J0ZI6SUO","hitId":"34KYK9TV2RUAD363EVFPUWVPB97SBP","url":"https://gershmanlab.com/experiments/alicia/teaching/experiment/?hitId=34KYK9TV2RUAD363EVFPUWVPB97SBP&workerId=A1IFIK8J49WBER&assignmentId=32AT8R96GMVRVMD35O1MO5J0ZI6SUO&a=68A27&tp_a=68A27&b=32AT8R96GMVRVMD35O1MO5J0ZI6SUO&tp_b=32AT8R96GMVRVMD35O1MO5J0ZI6SUO&c=365717&tp_c=365717","firstResponseHeads":2,"firstResponseTails":8,"secondResponseHeads":1,"secondResponseTails":4,"totalHeads":3,"totalTails":12,"studentIndex":12,"studentTrueHypers":{"a":4,"b":1},"studentGuess":0.35,"delta":0.14999999999999997,"bonus":0,"bonusSoFar":2.18,"totalExamples":15},{"rt":7223,"response":{"heads":"1","tails":"2"},"type":"response","condition":"seqFeedback","trueTheta":0.5,"classrooms":["A","B"],"studentTrueClassroom":"A","exampleSet":"first","trial_type":"survey-html-form","trial_index":112,"time_elapsed":1051356,"internal_node_id":"0.0-108.0-0.0","params":{"nStudents":24,"maxFlips":30,"completionMinutes":45,"basePay":8,"maxBonus":9,"perTrialBonus":0.5,"perTrialBonusThreshold":0.05,"exampleCost":0.01},"classroomParams":{"A":{"a":1,"b":4},"B":{"a":4,"b":1},"C":{"a":2,"b":8},"D":{"a":8,"b":2}},"conditions":["nonSeqFull","nonSeqPartial","seqNoFeedback","seqFeedback"],"classroomPairings":[["A","B"],["C","D"]],"coinWeights":[0.2,0.5,0.8],"subjectId":"A1IFIK8J49WBER","assignmentId":"32AT8R96GMVRVMD35O1MO5J0ZI6SUO","hitId":"34KYK9TV2RUAD363EVFPUWVPB97SBP","url":"https://gershmanlab.com/experiments/alicia/teaching/experiment/?hitId=34KYK9TV2RUAD363EVFPUWVPB97SBP&workerId=A1IFIK8J49WBER&assignmentId=32AT8R96GMVRVMD35O1MO5J0ZI6SUO&a=68A27&tp_a=68A27&b=32AT8R96GMVRVMD35O1MO5J0ZI6SUO&tp_b=32AT8R96GMVRVMD35O1MO5J0ZI6SUO&c=365717&tp_c=365717","heads":1,"tails":2,"studentIndex":13,"studentTrueHypers":{"a":1,"b":4},"studentGuess":0.25,"delta":0.25,"totalExamples":3,"bonusSoFar":2.18},{"rt":10528,"response":{"heads":"1","tails":"1"},"type":"response","condition":"seqFeedback","trueTheta":0.5,"classrooms":["A","B"],"studentTrueClassroom":"A","exampleSet":"second","trial_type":"survey-html-form","trial_index":116,"time_elapsed":1073985,"internal_node_id":"0.0-112.0-0.0","params":{"nStudents":24,"maxFlips":30,"completionMinutes":45,"basePay":8,"maxBonus":9,"perTrialBonus":0.5,"perTrialBonusThreshold":0.05,"exampleCost":0.01},"classroomParams":{"A":{"a":1,"b":4},"B":{"a":4,"b":1},"C":{"a":2,"b":8},"D":{"a":8,"b":2}},"conditions":["nonSeqFull","nonSeqPartial","seqNoFeedback","seqFeedback"],"classroomPairings":[["A","B"],["C","D"]],"coinWeights":[0.2,0.5,0.8],"subjectId":"A1IFIK8J49WBER","assignmentId":"32AT8R96GMVRVMD35O1MO5J0ZI6SUO","hitId":"34KYK9TV2RUAD363EVFPUWVPB97SBP","url":"https://gershmanlab.com/experiments/alicia/teaching/experiment/?hitId=34KYK9TV2RUAD363EVFPUWVPB97SBP&workerId=A1IFIK8J49WBER&assignmentId=32AT8R96GMVRVMD35O1MO5J0ZI6SUO&a=68A27&tp_a=68A27&b=32AT8R96GMVRVMD35O1MO5J0ZI6SUO&tp_b=32AT8R96GMVRVMD35O1MO5J0ZI6SUO&c=365717&tp_c=365717","firstResponseHeads":1,"firstResponseTails":2,"secondResponseHeads":1,"secondResponseTails":1,"totalHeads":2,"totalTails":3,"studentIndex":13,"studentTrueHypers":{"a":1,"b":4},"studentGuess":0.3,"delta":0.2,"bonus":0,"bonusSoFar":2.18,"totalExamples":5},{"rt":81992,"response":{"heads":"3","tails":"1"},"type":"response","condition":"nonSeqPartial","trueTheta":0.8,"classrooms":["A","B"],"studentTrueClassroom":"A","exampleSet":"first","trial_type":"survey-html-form","trial_index":122,"time_elapsed":1171351,"internal_node_id":"0.0-118.0-0.0","params":{"nStudents":24,"maxFlips":30,"completionMinutes":45,"basePay":8,"maxBonus":9,"perTrialBonus":0.5,"perTrialBonusThreshold":0.05,"exampleCost":0.01},"classroomParams":{"A":{"a":1,"b":4},"B":{"a":4,"b":1},"C":{"a":2,"b":8},"D":{"a":8,"b":2}},"conditions":["nonSeqFull","nonSeqPartial","seqNoFeedback","seqFeedback"],"classroomPairings":[["A","B"],["C","D"]],"coinWeights":[0.2,0.5,0.8],"subjectId":"A1IFIK8J49WBER","assignmentId":"32AT8R96GMVRVMD35O1MO5J0ZI6SUO","hitId":"34KYK9TV2RUAD363EVFPUWVPB97SBP","url":"https://gershmanlab.com/experiments/alicia/teaching/experiment/?hitId=34KYK9TV2RUAD363EVFPUWVPB97SBP&workerId=A1IFIK8J49WBER&assignmentId=32AT8R96GMVRVMD35O1MO5J0ZI6SUO&a=68A27&tp_a=68A27&b=32AT8R96GMVRVMD35O1MO5J0ZI6SUO&tp_b=32AT8R96GMVRVMD35O1MO5J0ZI6SUO&c=365717&tp_c=365717","heads":3,"tails":1,"studentIndex":14,"studentTrueHypers":{"a":1,"b":4},"studentGuess":0.4444444444444444,"delta":0.3555555555555556,"totalExamples":4,"bonus":0,"bonusSoFar":2.18},{"rt":20216,"response":{"heads":"1","tails":"4"},"type":"response","condition":"seqNoFeedback","trueTheta":0.2,"classrooms":["A","B"],"studentTrueClassroom":"A","exampleSet":"first","trial_type":"survey-html-form","trial_index":128,"time_elapsed":1209673,"internal_node_id":"0.0-124.0-0.0","params":{"nStudents":24,"maxFlips":30,"completionMinutes":45,"basePay":8,"maxBonus":9,"perTrialBonus":0.5,"perTrialBonusThreshold":0.05,"exampleCost":0.01},"classroomParams":{"A":{"a":1,"b":4},"B":{"a":4,"b":1},"C":{"a":2,"b":8},"D":{"a":8,"b":2}},"conditions":["nonSeqFull","nonSeqPartial","seqNoFeedback","seqFeedback"],"classroomPairings":[["A","B"],["C","D"]],"coinWeights":[0.2,0.5,0.8],"subjectId":"A1IFIK8J49WBER","assignmentId":"32AT8R96GMVRVMD35O1MO5J0ZI6SUO","hitId":"34KYK9TV2RUAD363EVFPUWVPB97SBP","url":"https://gershmanlab.com/experiments/alicia/teaching/experiment/?hitId=34KYK9TV2RUAD363EVFPUWVPB97SBP&workerId=A1IFIK8J49WBER&assignmentId=32AT8R96GMVRVMD35O1MO5J0ZI6SUO&a=68A27&tp_a=68A27&b=32AT8R96GMVRVMD35O1MO5J0ZI6SUO&tp_b=32AT8R96GMVRVMD35O1MO5J0ZI6SUO&c=365717&tp_c=365717","heads":1,"tails":4,"studentIndex":15,"studentTrueHypers":{"a":1,"b":4},"studentGuess":0.2,"delta":0,"totalExamples":5,"bonusSoFar":2.18},{"rt":8767,"response":{"heads":"1","tails":"4"},"type":"response","condition":"seqNoFeedback","trueTheta":0.2,"classrooms":["A","B"],"studentTrueClassroom":"A","exampleSet":"second","trial_type":"survey-html-form","trial_index":131,"time_elapsed":1225955,"internal_node_id":"0.0-127.0-0.0","params":{"nStudents":24,"maxFlips":30,"completionMinutes":45,"basePay":8,"maxBonus":9,"perTrialBonus":0.5,"perTrialBonusThreshold":0.05,"exampleCost":0.01},"classroomParams":{"A":{"a":1,"b":4},"B":{"a":4,"b":1},"C":{"a":2,"b":8},"D":{"a":8,"b":2}},"conditions":["nonSeqFull","nonSeqPartial","seqNoFeedback","seqFeedback"],"classroomPairings":[["A","B"],["C","D"]],"coinWeights":[0.2,0.5,0.8],"subjectId":"A1IFIK8J49WBER","assignmentId":"32AT8R96GMVRVMD35O1MO5J0ZI6SUO","hitId":"34KYK9TV2RUAD363EVFPUWVPB97SBP","url":"https://gershmanlab.com/experiments/alicia/teaching/experiment/?hitId=34KYK9TV2RUAD363EVFPUWVPB97SBP&workerId=A1IFIK8J49WBER&assignmentId=32AT8R96GMVRVMD35O1MO5J0ZI6SUO&a=68A27&tp_a=68A27&b=32AT8R96GMVRVMD35O1MO5J0ZI6SUO&tp_b=32AT8R96GMVRVMD35O1MO5J0ZI6SUO&c=365717&tp_c=365717","firstResponseHeads":1,"firstResponseTails":4,"secondResponseHeads":1,"secondResponseTails":4,"totalHeads":2,"totalTails":8,"studentIndex":15,"studentTrueHypers":{"a":1,"b":4},"studentGuess":0.2,"delta":0,"bonus":0.4,"bonusSoFar":2.58,"totalExamples":10},{"rt":6794,"response":{"heads":"8","tails":"2"},"type":"response","condition":"seqFeedback","trueTheta":0.8,"classrooms":["C","D"],"studentTrueClassroom":"D","exampleSet":"first","trial_type":"survey-html-form","trial_index":137,"time_elapsed":1252119,"internal_node_id":"0.0-133.0-0.0","params":{"nStudents":24,"maxFlips":30,"completionMinutes":45,"basePay":8,"maxBonus":9,"perTrialBonus":0.5,"perTrialBonusThreshold":0.05,"exampleCost":0.01},"classroomParams":{"A":{"a":1,"b":4},"B":{"a":4,"b":1},"C":{"a":2,"b":8},"D":{"a":8,"b":2}},"conditions":["nonSeqFull","nonSeqPartial","seqNoFeedback","seqFeedback"],"classroomPairings":[["A","B"],["C","D"]],"coinWeights":[0.2,0.5,0.8],"subjectId":"A1IFIK8J49WBER","assignmentId":"32AT8R96GMVRVMD35O1MO5J0ZI6SUO","hitId":"34KYK9TV2RUAD363EVFPUWVPB97SBP","url":"https://gershmanlab.com/experiments/alicia/teaching/experiment/?hitId=34KYK9TV2RUAD363EVFPUWVPB97SBP&workerId=A1IFIK8J49WBER&assignmentId=32AT8R96GMVRVMD35O1MO5J0ZI6SUO&a=68A27&tp_a=68A27&b=32AT8R96GMVRVMD35O1MO5J0ZI6SUO&tp_b=32AT8R96GMVRVMD35O1MO5J0ZI6SUO&c=365717&tp_c=365717","heads":8,"tails":2,"studentIndex":16,"studentTrueHypers":{"a":8,"b":2},"studentGuess":0.8,"delta":0,"totalExamples":10,"bonusSoFar":2.58},{"rt":7848,"response":{"heads":"8","tails":"2"},"type":"response","condition":"seqFeedback","trueTheta":0.8,"classrooms":["C","D"],"studentTrueClassroom":"D","exampleSet":"second","trial_type":"survey-html-form","trial_index":141,"time_elapsed":1270706,"internal_node_id":"0.0-137.0-0.0","params":{"nStudents":24,"maxFlips":30,"completionMinutes":45,"basePay":8,"maxBonus":9,"perTrialBonus":0.5,"perTrialBonusThreshold":0.05,"exampleCost":0.01},"classroomParams":{"A":{"a":1,"b":4},"B":{"a":4,"b":1},"C":{"a":2,"b":8},"D":{"a":8,"b":2}},"conditions":["nonSeqFull","nonSeqPartial","seqNoFeedback","seqFeedback"],"classroomPairings":[["A","B"],["C","D"]],"coinWeights":[0.2,0.5,0.8],"subjectId":"A1IFIK8J49WBER","assignmentId":"32AT8R96GMVRVMD35O1MO5J0ZI6SUO","hitId":"34KYK9TV2RUAD363EVFPUWVPB97SBP","url":"https://gershmanlab.com/experiments/alicia/teaching/experiment/?hitId=34KYK9TV2RUAD363EVFPUWVPB97SBP&workerId=A1IFIK8J49WBER&assignmentId=32AT8R96GMVRVMD35O1MO5J0ZI6SUO&a=68A27&tp_a=68A27&b=32AT8R96GMVRVMD35O1MO5J0ZI6SUO&tp_b=32AT8R96GMVRVMD35O1MO5J0ZI6SUO&c=365717&tp_c=365717","firstResponseHeads":8,"firstResponseTails":2,"secondResponseHeads":8,"secondResponseTails":2,"totalHeads":16,"totalTails":4,"studentIndex":16,"studentTrueHypers":{"a":8,"b":2},"studentGuess":0.8,"delta":0,"bonus":0.3,"bonusSoFar":2.88,"totalExamples":20},{"rt":14669,"response":{"heads":"4","tails":"4"},"type":"response","condition":"seqNoFeedback","trueTheta":0.5,"classrooms":["A","B"],"studentTrueClassroom":"B","exampleSet":"first","trial_type":"survey-html-form","trial_index":147,"time_elapsed":1297296,"internal_node_id":"0.0-143.0-0.0","params":{"nStudents":24,"maxFlips":30,"completionMinutes":45,"basePay":8,"maxBonus":9,"perTrialBonus":0.5,"perTrialBonusThreshold":0.05,"exampleCost":0.01},"classroomParams":{"A":{"a":1,"b":4},"B":{"a":4,"b":1},"C":{"a":2,"b":8},"D":{"a":8,"b":2}},"conditions":["nonSeqFull","nonSeqPartial","seqNoFeedback","seqFeedback"],"classroomPairings":[["A","B"],["C","D"]],"coinWeights":[0.2,0.5,0.8],"subjectId":"A1IFIK8J49WBER","assignmentId":"32AT8R96GMVRVMD35O1MO5J0ZI6SUO","hitId":"34KYK9TV2RUAD363EVFPUWVPB97SBP","url":"https://gershmanlab.com/experiments/alicia/teaching/experiment/?hitId=34KYK9TV2RUAD363EVFPUWVPB97SBP&workerId=A1IFIK8J49WBER&assignmentId=32AT8R96GMVRVMD35O1MO5J0ZI6SUO&a=68A27&tp_a=68A27&b=32AT8R96GMVRVMD35O1MO5J0ZI6SUO&tp_b=32AT8R96GMVRVMD35O1MO5J0ZI6SUO&c=365717&tp_c=365717","heads":4,"tails":4,"studentIndex":17,"studentTrueHypers":{"a":4,"b":1},"studentGuess":0.6153846153846154,"delta":0.11538461538461542,"totalExamples":8,"bonusSoFar":2.88},{"rt":7291,"response":{"heads":"5","tails":"5"},"type":"response","condition":"seqNoFeedback","trueTheta":0.5,"classrooms":["A","B"],"studentTrueClassroom":"B","exampleSet":"second","trial_type":"survey-html-form","trial_index":150,"time_elapsed":1310874,"internal_node_id":"0.0-146.0-0.0","params":{"nStudents":24,"maxFlips":30,"completionMinutes":45,"basePay":8,"maxBonus":9,"perTrialBonus":0.5,"perTrialBonusThreshold":0.05,"exampleCost":0.01},"classroomParams":{"A":{"a":1,"b":4},"B":{"a":4,"b":1},"C":{"a":2,"b":8},"D":{"a":8,"b":2}},"conditions":["nonSeqFull","nonSeqPartial","seqNoFeedback","seqFeedback"],"classroomPairings":[["A","B"],["C","D"]],"coinWeights":[0.2,0.5,0.8],"subjectId":"A1IFIK8J49WBER","assignmentId":"32AT8R96GMVRVMD35O1MO5J0ZI6SUO","hitId":"34KYK9TV2RUAD363EVFPUWVPB97SBP","url":"https://gershmanlab.com/experiments/alicia/teaching/experiment/?hitId=34KYK9TV2RUAD363EVFPUWVPB97SBP&workerId=A1IFIK8J49WBER&assignmentId=32AT8R96GMVRVMD35O1MO5J0ZI6SUO&a=68A27&tp_a=68A27&b=32AT8R96GMVRVMD35O1MO5J0ZI6SUO&tp_b=32AT8R96GMVRVMD35O1MO5J0ZI6SUO&c=365717&tp_c=365717","firstResponseHeads":4,"firstResponseTails":4,"secondResponseHeads":5,"secondResponseTails":5,"totalHeads":9,"totalTails":9,"studentIndex":17,"studentTrueHypers":{"a":4,"b":1},"studentGuess":0.5652173913043478,"delta":0.06521739130434778,"bonus":0,"bonusSoFar":2.88,"totalExamples":18},{"rt":11844,"response":{"heads":"2","tails":"2"},"type":"response","condition":"nonSeqFull","trueTheta":0.5,"classrooms":["C","D"],"studentTrueClassroom":"C","exampleSet":"first","trial_type":"survey-html-form","trial_index":156,"time_elapsed":1338595,"internal_node_id":"0.0-152.0-0.0","params":{"nStudents":24,"maxFlips":30,"completionMinutes":45,"basePay":8,"maxBonus":9,"perTrialBonus":0.5,"perTrialBonusThreshold":0.05,"exampleCost":0.01},"classroomParams":{"A":{"a":1,"b":4},"B":{"a":4,"b":1},"C":{"a":2,"b":8},"D":{"a":8,"b":2}},"conditions":["nonSeqFull","nonSeqPartial","seqNoFeedback","seqFeedback"],"classroomPairings":[["A","B"],["C","D"]],"coinWeights":[0.2,0.5,0.8],"subjectId":"A1IFIK8J49WBER","assignmentId":"32AT8R96GMVRVMD35O1MO5J0ZI6SUO","hitId":"34KYK9TV2RUAD363EVFPUWVPB97SBP","url":"https://gershmanlab.com/experiments/alicia/teaching/experiment/?hitId=34KYK9TV2RUAD363EVFPUWVPB97SBP&workerId=A1IFIK8J49WBER&assignmentId=32AT8R96GMVRVMD35O1MO5J0ZI6SUO&a=68A27&tp_a=68A27&b=32AT8R96GMVRVMD35O1MO5J0ZI6SUO&tp_b=32AT8R96GMVRVMD35O1MO5J0ZI6SUO&c=365717&tp_c=365717","heads":2,"tails":2,"studentIndex":18,"studentTrueHypers":{"a":2,"b":8},"studentGuess":0.2857142857142857,"delta":0.2142857142857143,"totalExamples":4,"bonus":0,"bonusSoFar":2.88},{"rt":8963,"response":{"heads":"2","tails":"8"},"type":"response","condition":"nonSeqFull","trueTheta":0.2,"classrooms":["C","D"],"studentTrueClassroom":"C","exampleSet":"first","trial_type":"survey-html-form","trial_index":162,"time_elapsed":1361950,"internal_node_id":"0.0-158.0-0.0","params":{"nStudents":24,"maxFlips":30,"completionMinutes":45,"basePay":8,"maxBonus":9,"perTrialBonus":0.5,"perTrialBonusThreshold":0.05,"exampleCost":0.01},"classroomParams":{"A":{"a":1,"b":4},"B":{"a":4,"b":1},"C":{"a":2,"b":8},"D":{"a":8,"b":2}},"conditions":["nonSeqFull","nonSeqPartial","seqNoFeedback","seqFeedback"],"classroomPairings":[["A","B"],["C","D"]],"coinWeights":[0.2,0.5,0.8],"subjectId":"A1IFIK8J49WBER","assignmentId":"32AT8R96GMVRVMD35O1MO5J0ZI6SUO","hitId":"34KYK9TV2RUAD363EVFPUWVPB97SBP","url":"https://gershmanlab.com/experiments/alicia/teaching/experiment/?hitId=34KYK9TV2RUAD363EVFPUWVPB97SBP&workerId=A1IFIK8J49WBER&assignmentId=32AT8R96GMVRVMD35O1MO5J0ZI6SUO&a=68A27&tp_a=68A27&b=32AT8R96GMVRVMD35O1MO5J0ZI6SUO&tp_b=32AT8R96GMVRVMD35O1MO5J0ZI6SUO&c=365717&tp_c=365717","heads":2,"tails":8,"studentIndex":19,"studentTrueHypers":{"a":2,"b":8},"studentGuess":0.2,"delta":0,"totalExamples":10,"bonus":0.4,"bonusSoFar":3.28},{"rt":7329,"response":{"heads":"5","tails":"5"},"type":"response","condition":"seqFeedback","trueTheta":0.5,"classrooms":["C","D"],"studentTrueClassroom":"C","exampleSet":"first","trial_type":"survey-html-form","trial_index":168,"time_elapsed":1382374,"internal_node_id":"0.0-164.0-0.0","params":{"nStudents":24,"maxFlips":30,"completionMinutes":45,"basePay":8,"maxBonus":9,"perTrialBonus":0.5,"perTrialBonusThreshold":0.05,"exampleCost":0.01},"classroomParams":{"A":{"a":1,"b":4},"B":{"a":4,"b":1},"C":{"a":2,"b":8},"D":{"a":8,"b":2}},"conditions":["nonSeqFull","nonSeqPartial","seqNoFeedback","seqFeedback"],"classroomPairings":[["A","B"],["C","D"]],"coinWeights":[0.2,0.5,0.8],"subjectId":"A1IFIK8J49WBER","assignmentId":"32AT8R96GMVRVMD35O1MO5J0ZI6SUO","hitId":"34KYK9TV2RUAD363EVFPUWVPB97SBP","url":"https://gershmanlab.com/experiments/alicia/teaching/experiment/?hitId=34KYK9TV2RUAD363EVFPUWVPB97SBP&workerId=A1IFIK8J49WBER&assignmentId=32AT8R96GMVRVMD35O1MO5J0ZI6SUO&a=68A27&tp_a=68A27&b=32AT8R96GMVRVMD35O1MO5J0ZI6SUO&tp_b=32AT8R96GMVRVMD35O1MO5J0ZI6SUO&c=365717&tp_c=365717","heads":5,"tails":5,"studentIndex":20,"studentTrueHypers":{"a":2,"b":8},"studentGuess":0.35,"delta":0.15000000000000002,"totalExamples":10,"bonusSoFar":3.28},{"rt":7709,"response":{"heads":"7","tails":"3"},"type":"response","condition":"seqFeedback","trueTheta":0.5,"classrooms":["C","D"],"studentTrueClassroom":"C","exampleSet":"second","trial_type":"survey-html-form","trial_index":172,"time_elapsed":1410961,"internal_node_id":"0.0-168.0-0.0","params":{"nStudents":24,"maxFlips":30,"completionMinutes":45,"basePay":8,"maxBonus":9,"perTrialBonus":0.5,"perTrialBonusThreshold":0.05,"exampleCost":0.01},"classroomParams":{"A":{"a":1,"b":4},"B":{"a":4,"b":1},"C":{"a":2,"b":8},"D":{"a":8,"b":2}},"conditions":["nonSeqFull","nonSeqPartial","seqNoFeedback","seqFeedback"],"classroomPairings":[["A","B"],["C","D"]],"coinWeights":[0.2,0.5,0.8],"subjectId":"A1IFIK8J49WBER","assignmentId":"32AT8R96GMVRVMD35O1MO5J0ZI6SUO","hitId":"34KYK9TV2RUAD363EVFPUWVPB97SBP","url":"https://gershmanlab.com/experiments/alicia/teaching/experiment/?hitId=34KYK9TV2RUAD363EVFPUWVPB97SBP&workerId=A1IFIK8J49WBER&assignmentId=32AT8R96GMVRVMD35O1MO5J0ZI6SUO&a=68A27&tp_a=68A27&b=32AT8R96GMVRVMD35O1MO5J0ZI6SUO&tp_b=32AT8R96GMVRVMD35O1MO5J0ZI6SUO&c=365717&tp_c=365717","firstResponseHeads":5,"firstResponseTails":5,"secondResponseHeads":7,"secondResponseTails":3,"totalHeads":12,"totalTails":8,"studentIndex":20,"studentTrueHypers":{"a":2,"b":8},"studentGuess":0.4666666666666667,"delta":0.033333333333333326,"bonus":0.3,"bonusSoFar":3.58,"totalExamples":20},{"rt":12841,"response":{"heads":"2","tails":"6"},"type":"response","condition":"nonSeqPartial","trueTheta":0.5,"classrooms":["A","B"],"studentTrueClassroom":"B","exampleSet":"first","trial_type":"survey-html-form","trial_index":178,"time_elapsed":1437670,"internal_node_id":"0.0-174.0-0.0","params":{"nStudents":24,"maxFlips":30,"completionMinutes":45,"basePay":8,"maxBonus":9,"perTrialBonus":0.5,"perTrialBonusThreshold":0.05,"exampleCost":0.01},"classroomParams":{"A":{"a":1,"b":4},"B":{"a":4,"b":1},"C":{"a":2,"b":8},"D":{"a":8,"b":2}},"conditions":["nonSeqFull","nonSeqPartial","seqNoFeedback","seqFeedback"],"classroomPairings":[["A","B"],["C","D"]],"coinWeights":[0.2,0.5,0.8],"subjectId":"A1IFIK8J49WBER","assignmentId":"32AT8R96GMVRVMD35O1MO5J0ZI6SUO","hitId":"34KYK9TV2RUAD363EVFPUWVPB97SBP","url":"https://gershmanlab.com/experiments/alicia/teaching/experiment/?hitId=34KYK9TV2RUAD363EVFPUWVPB97SBP&workerId=A1IFIK8J49WBER&assignmentId=32AT8R96GMVRVMD35O1MO5J0ZI6SUO&a=68A27&tp_a=68A27&b=32AT8R96GMVRVMD35O1MO5J0ZI6SUO&tp_b=32AT8R96GMVRVMD35O1MO5J0ZI6SUO&c=365717&tp_c=365717","heads":2,"tails":6,"studentIndex":21,"studentTrueHypers":{"a":4,"b":1},"studentGuess":0.46153846153846156,"delta":0.038461538461538436,"totalExamples":8,"bonus":0.42,"bonusSoFar":4},{"rt":8092,"response":{"heads":"5","tails":"5"},"type":"response","condition":"nonSeqPartial","trueTheta":0.5,"classrooms":["C","D"],"studentTrueClassroom":"D","exampleSet":"first","trial_type":"survey-html-form","trial_index":184,"time_elapsed":1460013,"internal_node_id":"0.0-180.0-0.0","params":{"nStudents":24,"maxFlips":30,"completionMinutes":45,"basePay":8,"maxBonus":9,"perTrialBonus":0.5,"perTrialBonusThreshold":0.05,"exampleCost":0.01},"classroomParams":{"A":{"a":1,"b":4},"B":{"a":4,"b":1},"C":{"a":2,"b":8},"D":{"a":8,"b":2}},"conditions":["nonSeqFull","nonSeqPartial","seqNoFeedback","seqFeedback"],"classroomPairings":[["A","B"],["C","D"]],"coinWeights":[0.2,0.5,0.8],"subjectId":"A1IFIK8J49WBER","assignmentId":"32AT8R96GMVRVMD35O1MO5J0ZI6SUO","hitId":"34KYK9TV2RUAD363EVFPUWVPB97SBP","url":"https://gershmanlab.com/experiments/alicia/teaching/experiment/?hitId=34KYK9TV2RUAD363EVFPUWVPB97SBP&workerId=A1IFIK8J49WBER&assignmentId=32AT8R96GMVRVMD35O1MO5J0ZI6SUO&a=68A27&tp_a=68A27&b=32AT8R96GMVRVMD35O1MO5J0ZI6SUO&tp_b=32AT8R96GMVRVMD35O1MO5J0ZI6SUO&c=365717&tp_c=365717","heads":5,"tails":5,"studentIndex":22,"studentTrueHypers":{"a":8,"b":2},"studentGuess":0.65,"delta":0.15000000000000002,"totalExamples":10,"bonus":0,"bonusSoFar":4},{"rt":10837,"response":{"heads":"6","tails":"2"},"type":"response","condition":"nonSeqFull","trueTheta":0.5,"classrooms":["A","B"],"studentTrueClassroom":"B","exampleSet":"first","trial_type":"survey-html-form","trial_index":190,"time_elapsed":1484530,"internal_node_id":"0.0-186.0-0.0","params":{"nStudents":24,"maxFlips":30,"completionMinutes":45,"basePay":8,"maxBonus":9,"perTrialBonus":0.5,"perTrialBonusThreshold":0.05,"exampleCost":0.01},"classroomParams":{"A":{"a":1,"b":4},"B":{"a":4,"b":1},"C":{"a":2,"b":8},"D":{"a":8,"b":2}},"conditions":["nonSeqFull","nonSeqPartial","seqNoFeedback","seqFeedback"],"classroomPairings":[["A","B"],["C","D"]],"coinWeights":[0.2,0.5,0.8],"subjectId":"A1IFIK8J49WBER","assignmentId":"32AT8R96GMVRVMD35O1MO5J0ZI6SUO","hitId":"34KYK9TV2RUAD363EVFPUWVPB97SBP","url":"https://gershmanlab.com/experiments/alicia/teaching/experiment/?hitId=34KYK9TV2RUAD363EVFPUWVPB97SBP&workerId=A1IFIK8J49WBER&assignmentId=32AT8R96GMVRVMD35O1MO5J0ZI6SUO&a=68A27&tp_a=68A27&b=32AT8R96GMVRVMD35O1MO5J0ZI6SUO&tp_b=32AT8R96GMVRVMD35O1MO5J0ZI6SUO&c=365717&tp_c=365717","heads":6,"tails":2,"studentIndex":23,"studentTrueHypers":{"a":4,"b":1},"studentGuess":0.7692307692307693,"delta":0.2692307692307693,"totalExamples":8,"bonus":0,"bonusSoFar":4},{"rt":10828,"response":{"gender":"female","age":"59","understood":"yes","comments":""},"type":"response","trial_type":"survey-html-form","trial_index":194,"time_elapsed":1503807,"internal_node_id":"0.0-191.0","params":{"nStudents":24,"maxFlips":30,"completionMinutes":45,"basePay":8,"maxBonus":9,"perTrialBonus":0.5,"perTrialBonusThreshold":0.05,"exampleCost":0.01},"classroomParams":{"A":{"a":1,"b":4},"B":{"a":4,"b":1},"C":{"a":2,"b":8},"D":{"a":8,"b":2}},"conditions":["nonSeqFull","nonSeqPartial","seqNoFeedback","seqFeedback"],"classroomPairings":[["A","B"],["C","D"]],"coinWeights":[0.2,0.5,0.8],"subjectId":"A1IFIK8J49WBER","assignmentId":"32AT8R96GMVRVMD35O1MO5J0ZI6SUO","hitId":"34KYK9TV2RUAD363EVFPUWVPB97SBP","url":"https://gershmanlab.com/experiments/alicia/teaching/experiment/?hitId=34KYK9TV2RUAD363EVFPUWVPB97SBP&workerId=A1IFIK8J49WBER&assignmentId=32AT8R96GMVRVMD35O1MO5J0ZI6SUO&a=68A27&tp_a=68A27&b=32AT8R96GMVRVMD35O1MO5J0ZI6SUO&tp_b=32AT8R96GMVRVMD35O1MO5J0ZI6SUO&c=365717&tp_c=365717","totalBonus":4}]