[{"rt":18443,"response":{"heads":"5","tails":"5"},"type":"response","condition":"seqFeedback","trueTheta":0.5,"classrooms":["A","B"],"studentTrueClassroom":"B","exampleSet":"first","trial_type":"survey-html-form","trial_index":7,"time_elapsed":250528,"internal_node_id":"0.0-6.0-0.0","params":{"nStudents":24,"maxFlips":30,"completionMinutes":45,"basePay":8,"maxBonus":9,"perTrialBonus":0.5,"perTrialBonusThreshold":0.05,"exampleCost":0.01},"classroomParams":{"A":{"a":1,"b":4},"B":{"a":4,"b":1},"C":{"a":2,"b":8},"D":{"a":8,"b":2}},"conditions":["nonSeqFull","nonSeqPartial","seqNoFeedback","seqFeedback"],"classroomPairings":[["A","B"],["C","D"]],"coinWeights":[0.2,0.5,0.8],"subjectId":"A1ILD5BPLI8X1P","assignmentId":"37Z929RLGAUCV9YE5JBCJ9XYG4ZSTX","hitId":"34XASH8KLQ89J2U8D314D7180O4PMV","url":"https://gershmanlab.com/experiments/alicia/teaching/experiment/?hitId=34XASH8KLQ89J2U8D314D7180O4PMV&workerId=A1ILD5BPLI8X1P&assignmentId=37Z929RLGAUCV9YE5JBCJ9XYG4ZSTX&a=L2Z77&tp_a=L2Z77&b=37Z929RLGAUCV9YE5JBCJ9XYG4ZSTX&tp_b=37Z929RLGAUCV9YE5JBCJ9XYG4ZSTX&c=365717&tp_c=365717","heads":5,"tails":5,"studentIndex":0,"studentTrueHypers":{"a":4,"b":1},"studentGuess":0.6,"delta":0.09999999999999998,"totalExamples":10,"bonusSoFar":0},{"rt":5682,"response":{"heads":"10","tails":"10"},"type":"response","condition":"seqFeedback","trueTheta":0.5,"classrooms":["A","B"],"studentTrueClassroom":"B","exampleSet":"second","trial_type":"survey-html-form","trial_index":11,"time_elapsed":272977,"internal_node_id":"0.0-10.0-0.0","params":{"nStudents":24,"maxFlips":30,"completionMinutes":45,"basePay":8,"maxBonus":9,"perTrialBonus":0.5,"perTrialBonusThreshold":0.05,"exampleCost":0.01},"classroomParams":{"A":{"a":1,"b":4},"B":{"a":4,"b":1},"C":{"a":2,"b":8},"D":{"a":8,"b":2}},"conditions":["nonSeqFull","nonSeqPartial","seqNoFeedback","seqFeedback"],"classroomPairings":[["A","B"],["C","D"]],"coinWeights":[0.2,0.5,0.8],"subjectId":"A1ILD5BPLI8X1P","assignmentId":"37Z929RLGAUCV9YE5JBCJ9XYG4ZSTX","hitId":"34XASH8KLQ89J2U8D314D7180O4PMV","url":"https://gershmanlab.com/experiments/alicia/teaching/experiment/?hitId=34XASH8KLQ89J2U8D314D7180O4PMV&workerId=A1ILD5BPLI8X1P&assignmentId=37Z929RLGAUCV9YE5JBCJ9XYG4ZSTX&a=L2Z77&tp_a=L2Z77&b=37Z929RLGAUCV9YE5JBCJ9XYG4ZSTX&tp_b=37Z929RLGAUCV9YE5JBCJ9XYG4ZSTX&c=365717&tp_c=365717","firstResponseHeads":5,"firstResponseTails":5,"secondResponseHeads":10,"secondResponseTails":10,"totalHeads":15,"totalTails":15,"studentIndex":0,"studentTrueHypers":{"a":4,"b":1},"studentGuess":0.5428571428571428,"delta":0.042857142857142816,"bonus":0.2,"bonusSoFar":0.2,"totalExamples":30},{"rt":4330,"response":{"heads":"8","tails":"2"},"type":"response","condition":"seqFeedback","trueTheta":0.8,"classrooms":["C","D"],"studentTrueClassroom":"C","exampleSet":"first","trial_type":"survey-html-form","trial_index":17,"time_elapsed":301888,"internal_node_id":"0.0-16.0-0.0","params":{"nStudents":24,"maxFlips":30,"completionMinutes":45,"basePay":8,"maxBonus":9,"perTrialBonus":0.5,"perTrialBonusThreshold":0.05,"exampleCost":0.01},"classroomParams":{"A":{"a":1,"b":4},"B":{"a":4,"b":1},"C":{"a":2,"b":8},"D":{"a":8,"b":2}},"conditions":["nonSeqFull","nonSeqPartial","seqNoFeedback","seqFeedback"],"classroomPairings":[["A","B"],["C","D"]],"coinWeights":[0.2,0.5,0.8],"subjectId":"A1ILD5BPLI8X1P","assignmentId":"37Z929RLGAUCV9YE5JBCJ9XYG4ZSTX","hitId":"34XASH8KLQ89J2U8D314D7180O4PMV","url":"https://gershmanlab.com/experiments/alicia/teaching/experiment/?hitId=34XASH8KLQ89J2U8D314D7180O4PMV&workerId=A1ILD5BPLI8X1P&assignmentId=37Z929RLGAUCV9YE5JBCJ9XYG4ZSTX&a=L2Z77&tp_a=L2Z77&b=37Z929RLGAUCV9YE5JBCJ9XYG4ZSTX&tp_b=37Z929RLGAUCV9YE5JBCJ9XYG4ZSTX&c=365717&tp_c=365717","heads":8,"tails":2,"studentIndex":1,"studentTrueHypers":{"a":2,"b":8},"studentGuess":0.5,"delta":0.30000000000000004,"totalExamples":10,"bonusSoFar":0.2},{"rt":4655,"response":{"heads":"10","tails":"0"},"type":"response","condition":"seqFeedback","trueTheta":0.8,"classrooms":["C","D"],"studentTrueClassroom":"C","exampleSet":"second","trial_type":"survey-html-form","trial_index":21,"time_elapsed":317806,"internal_node_id":"0.0-20.0-0.0","params":{"nStudents":24,"maxFlips":30,"completionMinutes":45,"basePay":8,"maxBonus":9,"perTrialBonus":0.5,"perTrialBonusThreshold":0.05,"exampleCost":0.01},"classroomParams":{"A":{"a":1,"b":4},"B":{"a":4,"b":1},"C":{"a":2,"b":8},"D":{"a":8,"b":2}},"conditions":["nonSeqFull","nonSeqPartial","seqNoFeedback","seqFeedback"],"classroomPairings":[["A","B"],["C","D"]],"coinWeights":[0.2,0.5,0.8],"subjectId":"A1ILD5BPLI8X1P","assignmentId":"37Z929RLGAUCV9YE5JBCJ9XYG4ZSTX","hitId":"34XASH8KLQ89J2U8D314D7180O4PMV","url":"https://gershmanlab.com/experiments/alicia/teaching/experiment/?hitId=34XASH8KLQ89J2U8D314D7180O4PMV&workerId=A1ILD5BPLI8X1P&assignmentId=37Z929RLGAUCV9YE5JBCJ9XYG4ZSTX&a=L2Z77&tp_a=L2Z77&b=37Z929RLGAUCV9YE5JBCJ9XYG4ZSTX&tp_b=37Z929RLGAUCV9YE5JBCJ9XYG4ZSTX&c=365717&tp_c=365717","firstResponseHeads":8,"firstResponseTails":2,"secondResponseHeads":10,"secondResponseTails":0,"totalHeads":18,"totalTails":2,"studentIndex":1,"studentTrueHypers":{"a":2,"b":8},"studentGuess":0.6666666666666666,"delta":0.13333333333333341,"bonus":0,"bonusSoFar":0.2,"totalExamples":20},{"rt":8521,"response":{"heads":"8","tails":"2"},"type":"response","condition":"nonSeqFull","trueTheta":0.8,"classrooms":["A","B"],"studentTrueClassroom":"A","exampleSet":"first","trial_type":"survey-html-form","trial_index":27,"time_elapsed":345288,"internal_node_id":"0.0-26.0-0.0","params":{"nStudents":24,"maxFlips":30,"completionMinutes":45,"basePay":8,"maxBonus":9,"perTrialBonus":0.5,"perTrialBonusThreshold":0.05,"exampleCost":0.01},"classroomParams":{"A":{"a":1,"b":4},"B":{"a":4,"b":1},"C":{"a":2,"b":8},"D":{"a":8,"b":2}},"conditions":["nonSeqFull","nonSeqPartial","seqNoFeedback","seqFeedback"],"classroomPairings":[["A","B"],["C","D"]],"coinWeights":[0.2,0.5,0.8],"subjectId":"A1ILD5BPLI8X1P","assignmentId":"37Z929RLGAUCV9YE5JBCJ9XYG4ZSTX","hitId":"34XASH8KLQ89J2U8D314D7180O4PMV","url":"https://gershmanlab.com/experiments/alicia/teaching/experiment/?hitId=34XASH8KLQ89J2U8D314D7180O4PMV&workerId=A1ILD5BPLI8X1P&assignmentId=37Z929RLGAUCV9YE5JBCJ9XYG4ZSTX&a=L2Z77&tp_a=L2Z77&b=37Z929RLGAUCV9YE5JBCJ9XYG4ZSTX&tp_b=37Z929RLGAUCV9YE5JBCJ9XYG4ZSTX&c=365717&tp_c=365717","heads":8,"tails":2,"studentIndex":2,"studentTrueHypers":{"a":1,"b":4},"studentGuess":0.6,"delta":0.20000000000000007,"totalExamples":10,"bonus":0,"bonusSoFar":0.2},{"rt":3150,"response":{"heads":"8","tails":"2"},"type":"response","condition":"seqNoFeedback","trueTheta":0.8,"classrooms":["A","B"],"studentTrueClassroom":"B","exampleSet":"first","trial_type":"survey-html-form","trial_index":33,"time_elapsed":364138,"internal_node_id":"0.0-32.0-0.0","params":{"nStudents":24,"maxFlips":30,"completionMinutes":45,"basePay":8,"maxBonus":9,"perTrialBonus":0.5,"perTrialBonusThreshold":0.05,"exampleCost":0.01},"classroomParams":{"A":{"a":1,"b":4},"B":{"a":4,"b":1},"C":{"a":2,"b":8},"D":{"a":8,"b":2}},"conditions":["nonSeqFull","nonSeqPartial","seqNoFeedback","seqFeedback"],"classroomPairings":[["A","B"],["C","D"]],"coinWeights":[0.2,0.5,0.8],"subjectId":"A1ILD5BPLI8X1P","assignmentId":"37Z929RLGAUCV9YE5JBCJ9XYG4ZSTX","hitId":"34XASH8KLQ89J2U8D314D7180O4PMV","url":"https://gershmanlab.com/experiments/alicia/teaching/experiment/?hitId=34XASH8KLQ89J2U8D314D7180O4PMV&workerId=A1ILD5BPLI8X1P&assignmentId=37Z929RLGAUCV9YE5JBCJ9XYG4ZSTX&a=L2Z77&tp_a=L2Z77&b=37Z929RLGAUCV9YE5JBCJ9XYG4ZSTX&tp_b=37Z929RLGAUCV9YE5JBCJ9XYG4ZSTX&c=365717&tp_c=365717","heads":8,"tails":2,"studentIndex":3,"studentTrueHypers":{"a":4,"b":1},"studentGuess":0.8,"delta":0,"totalExamples":10,"bonusSoFar":0.2},{"rt":6388,"response":{"heads":"8","tails":"2"},"type":"response","condition":"seqNoFeedback","trueTheta":0.8,"classrooms":["A","B"],"studentTrueClassroom":"B","exampleSet":"second","trial_type":"survey-html-form","trial_index":36,"time_elapsed":376807,"internal_node_id":"0.0-35.0-0.0","params":{"nStudents":24,"maxFlips":30,"completionMinutes":45,"basePay":8,"maxBonus":9,"perTrialBonus":0.5,"perTrialBonusThreshold":0.05,"exampleCost":0.01},"classroomParams":{"A":{"a":1,"b":4},"B":{"a":4,"b":1},"C":{"a":2,"b":8},"D":{"a":8,"b":2}},"conditions":["nonSeqFull","nonSeqPartial","seqNoFeedback","seqFeedback"],"classroomPairings":[["A","B"],["C","D"]],"coinWeights":[0.2,0.5,0.8],"subjectId":"A1ILD5BPLI8X1P","assignmentId":"37Z929RLGAUCV9YE5JBCJ9XYG4ZSTX","hitId":"34XASH8KLQ89J2U8D314D7180O4PMV","url":"https://gershmanlab.com/experiments/alicia/teaching/experiment/?hitId=34XASH8KLQ89J2U8D314D7180O4PMV&workerId=A1ILD5BPLI8X1P&assignmentId=37Z929RLGAUCV9YE5JBCJ9XYG4ZSTX&a=L2Z77&tp_a=L2Z77&b=37Z929RLGAUCV9YE5JBCJ9XYG4ZSTX&tp_b=37Z929RLGAUCV9YE5JBCJ9XYG4ZSTX&c=365717&tp_c=365717","firstResponseHeads":8,"firstResponseTails":2,"secondResponseHeads":8,"secondResponseTails":2,"totalHeads":16,"totalTails":4,"studentIndex":3,"studentTrueHypers":{"a":4,"b":1},"studentGuess":0.8,"delta":0,"bonus":0.3,"bonusSoFar":0.5,"totalExamples":20},{"rt":4696,"response":{"heads":"8","tails":"2"},"type":"response","condition":"seqFeedback","trueTheta":0.8,"classrooms":["A","B"],"studentTrueClassroom":"A","exampleSet":"first","trial_type":"survey-html-form","trial_index":42,"time_elapsed":403423,"internal_node_id":"0.0-41.0-0.0","params":{"nStudents":24,"maxFlips":30,"completionMinutes":45,"basePay":8,"maxBonus":9,"perTrialBonus":0.5,"perTrialBonusThreshold":0.05,"exampleCost":0.01},"classroomParams":{"A":{"a":1,"b":4},"B":{"a":4,"b":1},"C":{"a":2,"b":8},"D":{"a":8,"b":2}},"conditions":["nonSeqFull","nonSeqPartial","seqNoFeedback","seqFeedback"],"classroomPairings":[["A","B"],["C","D"]],"coinWeights":[0.2,0.5,0.8],"subjectId":"A1ILD5BPLI8X1P","assignmentId":"37Z929RLGAUCV9YE5JBCJ9XYG4ZSTX","hitId":"34XASH8KLQ89J2U8D314D7180O4PMV","url":"https://gershmanlab.com/experiments/alicia/teaching/experiment/?hitId=34XASH8KLQ89J2U8D314D7180O4PMV&workerId=A1ILD5BPLI8X1P&assignmentId=37Z929RLGAUCV9YE5JBCJ9XYG4ZSTX&a=L2Z77&tp_a=L2Z77&b=37Z929RLGAUCV9YE5JBCJ9XYG4ZSTX&tp_b=37Z929RLGAUCV9YE5JBCJ9XYG4ZSTX&c=365717&tp_c=365717","heads":8,"tails":2,"studentIndex":4,"studentTrueHypers":{"a":1,"b":4},"studentGuess":0.6,"delta":0.20000000000000007,"totalExamples":10,"bonusSoFar":0.5},{"rt":4602,"response":{"heads":"8","tails":"2"},"type":"response","condition":"seqFeedback","trueTheta":0.8,"classrooms":["A","B"],"studentTrueClassroom":"A","exampleSet":"second","trial_type":"survey-html-form","trial_index":46,"time_elapsed":419383,"internal_node_id":"0.0-45.0-0.0","params":{"nStudents":24,"maxFlips":30,"completionMinutes":45,"basePay":8,"maxBonus":9,"perTrialBonus":0.5,"perTrialBonusThreshold":0.05,"exampleCost":0.01},"classroomParams":{"A":{"a":1,"b":4},"B":{"a":4,"b":1},"C":{"a":2,"b":8},"D":{"a":8,"b":2}},"conditions":["nonSeqFull","nonSeqPartial","seqNoFeedback","seqFeedback"],"classroomPairings":[["A","B"],["C","D"]],"coinWeights":[0.2,0.5,0.8],"subjectId":"A1ILD5BPLI8X1P","assignmentId":"37Z929RLGAUCV9YE5JBCJ9XYG4ZSTX","hitId":"34XASH8KLQ89J2U8D314D7180O4PMV","url":"https://gershmanlab.com/experiments/alicia/teaching/experiment/?hitId=34XASH8KLQ89J2U8D314D7180O4PMV&workerId=A1ILD5BPLI8X1P&assignmentId=37Z929RLGAUCV9YE5JBCJ9XYG4ZSTX&a=L2Z77&tp_a=L2Z77&b=37Z929RLGAUCV9YE5JBCJ9XYG4ZSTX&tp_b=37Z929RLGAUCV9YE5JBCJ9XYG4ZSTX&c=365717&tp_c=365717","firstResponseHeads":8,"firstResponseTails":2,"secondResponseHeads":8,"secondResponseTails":2,"totalHeads":16,"totalTails":4,"studentIndex":4,"studentTrueHypers":{"a":1,"b":4},"studentGuess":0.68,"delta":0.12,"bonus":0,"bonusSoFar":0.5,"totalExamples":20},{"rt":6096,"response":{"heads":"8","tails":"2"},"type":"response","condition":"seqNoFeedback","trueTheta":0.8,"classrooms":["C","D"],"studentTrueClassroom":"C","exampleSet":"first","trial_type":"survey-html-form","trial_index":52,"time_elapsed":437469,"internal_node_id":"0.0-51.0-0.0","params":{"nStudents":24,"maxFlips":30,"completionMinutes":45,"basePay":8,"maxBonus":9,"perTrialBonus":0.5,"perTrialBonusThreshold":0.05,"exampleCost":0.01},"classroomParams":{"A":{"a":1,"b":4},"B":{"a":4,"b":1},"C":{"a":2,"b":8},"D":{"a":8,"b":2}},"conditions":["nonSeqFull","nonSeqPartial","seqNoFeedback","seqFeedback"],"classroomPairings":[["A","B"],["C","D"]],"coinWeights":[0.2,0.5,0.8],"subjectId":"A1ILD5BPLI8X1P","assignmentId":"37Z929RLGAUCV9YE5JBCJ9XYG4ZSTX","hitId":"34XASH8KLQ89J2U8D314D7180O4PMV","url":"https://gershmanlab.com/experiments/alicia/teaching/experiment/?hitId=34XASH8KLQ89J2U8D314D7180O4PMV&workerId=A1ILD5BPLI8X1P&assignmentId=37Z929RLGAUCV9YE5JBCJ9XYG4ZSTX&a=L2Z77&tp_a=L2Z77&b=37Z929RLGAUCV9YE5JBCJ9XYG4ZSTX&tp_b=37Z929RLGAUCV9YE5JBCJ9XYG4ZSTX&c=365717&tp_c=365717","heads":8,"tails":2,"studentIndex":5,"studentTrueHypers":{"a":2,"b":8},"studentGuess":0.5,"delta":0.30000000000000004,"totalExamples":10,"bonusSoFar":0.5},{"rt":6450,"response":{"heads":"8","tails":"2"},"type":"response","condition":"seqNoFeedback","trueTheta":0.8,"classrooms":["C","D"],"studentTrueClassroom":"C","exampleSet":"second","trial_type":"survey-html-form","trial_index":55,"time_elapsed":450687,"internal_node_id":"0.0-54.0-0.0","params":{"nStudents":24,"maxFlips":30,"completionMinutes":45,"basePay":8,"maxBonus":9,"perTrialBonus":0.5,"perTrialBonusThreshold":0.05,"exampleCost":0.01},"classroomParams":{"A":{"a":1,"b":4},"B":{"a":4,"b":1},"C":{"a":2,"b":8},"D":{"a":8,"b":2}},"conditions":["nonSeqFull","nonSeqPartial","seqNoFeedback","seqFeedback"],"classroomPairings":[["A","B"],["C","D"]],"coinWeights":[0.2,0.5,0.8],"subjectId":"A1ILD5BPLI8X1P","assignmentId":"37Z929RLGAUCV9YE5JBCJ9XYG4ZSTX","hitId":"34XASH8KLQ89J2U8D314D7180O4PMV","url":"https://gershmanlab.com/experiments/alicia/teaching/experiment/?hitId=34XASH8KLQ89J2U8D314D7180O4PMV&workerId=A1ILD5BPLI8X1P&assignmentId=37Z929RLGAUCV9YE5JBCJ9XYG4ZSTX&a=L2Z77&tp_a=L2Z77&b=37Z929RLGAUCV9YE5JBCJ9XYG4ZSTX&tp_b=37Z929RLGAUCV9YE5JBCJ9XYG4ZSTX&c=365717&tp_c=365717","firstResponseHeads":8,"firstResponseTails":2,"secondResponseHeads":8,"secondResponseTails":2,"totalHeads":16,"totalTails":4,"studentIndex":5,"studentTrueHypers":{"a":2,"b":8},"studentGuess":0.6,"delta":0.20000000000000007,"bonus":0,"bonusSoFar":0.5,"totalExamples":20},{"rt":3121,"response":{"heads":"2","tails":"8"},"type":"response","condition":"seqFeedback","trueTheta":0.2,"classrooms":["A","B"],"studentTrueClassroom":"B","exampleSet":"first","trial_type":"survey-html-form","trial_index":61,"time_elapsed":475508,"internal_node_id":"0.0-60.0-0.0","params":{"nStudents":24,"maxFlips":30,"completionMinutes":45,"basePay":8,"maxBonus":9,"perTrialBonus":0.5,"perTrialBonusThreshold":0.05,"exampleCost":0.01},"classroomParams":{"A":{"a":1,"b":4},"B":{"a":4,"b":1},"C":{"a":2,"b":8},"D":{"a":8,"b":2}},"conditions":["nonSeqFull","nonSeqPartial","seqNoFeedback","seqFeedback"],"classroomPairings":[["A","B"],["C","D"]],"coinWeights":[0.2,0.5,0.8],"subjectId":"A1ILD5BPLI8X1P","assignmentId":"37Z929RLGAUCV9YE5JBCJ9XYG4ZSTX","hitId":"34XASH8KLQ89J2U8D314D7180O4PMV","url":"https://gershmanlab.com/experiments/alicia/teaching/experiment/?hitId=34XASH8KLQ89J2U8D314D7180O4PMV&workerId=A1ILD5BPLI8X1P&assignmentId=37Z929RLGAUCV9YE5JBCJ9XYG4ZSTX&a=L2Z77&tp_a=L2Z77&b=37Z929RLGAUCV9YE5JBCJ9XYG4ZSTX&tp_b=37Z929RLGAUCV9YE5JBCJ9XYG4ZSTX&c=365717&tp_c=365717","heads":2,"tails":8,"studentIndex":6,"studentTrueHypers":{"a":4,"b":1},"studentGuess":0.4,"delta":0.2,"totalExamples":10,"bonusSoFar":0.5},{"rt":4356,"response":{"heads":"1","tails":"9"},"type":"response","condition":"seqFeedback","trueTheta":0.2,"classrooms":["A","B"],"studentTrueClassroom":"B","exampleSet":"second","trial_type":"survey-html-form","trial_index":65,"time_elapsed":491519,"internal_node_id":"0.0-64.0-0.0","params":{"nStudents":24,"maxFlips":30,"completionMinutes":45,"basePay":8,"maxBonus":9,"perTrialBonus":0.5,"perTrialBonusThreshold":0.05,"exampleCost":0.01},"classroomParams":{"A":{"a":1,"b":4},"B":{"a":4,"b":1},"C":{"a":2,"b":8},"D":{"a":8,"b":2}},"conditions":["nonSeqFull","nonSeqPartial","seqNoFeedback","seqFeedback"],"classroomPairings":[["A","B"],["C","D"]],"coinWeights":[0.2,0.5,0.8],"subjectId":"A1ILD5BPLI8X1P","assignmentId":"37Z929RLGAUCV9YE5JBCJ9XYG4ZSTX","hitId":"34XASH8KLQ89J2U8D314D7180O4PMV","url":"https://gershmanlab.com/experiments/alicia/teaching/experiment/?hitId=34XASH8KLQ89J2U8D314D7180O4PMV&workerId=A1ILD5BPLI8X1P&assignmentId=37Z929RLGAUCV9YE5JBCJ9XYG4ZSTX&a=L2Z77&tp_a=L2Z77&b=37Z929RLGAUCV9YE5JBCJ9XYG4ZSTX&tp_b=37Z929RLGAUCV9YE5JBCJ9XYG4ZSTX&c=365717&tp_c=365717","firstResponseHeads":2,"firstResponseTails":8,"secondResponseHeads":1,"secondResponseTails":9,"totalHeads":3,"totalTails":17,"studentIndex":6,"studentTrueHypers":{"a":4,"b":1},"studentGuess":0.28,"delta":0.08000000000000002,"bonus":0,"bonusSoFar":0.5,"totalExamples":20},{"rt":3100,"response":{"heads":"5","tails":"5"},"type":"response","condition":"nonSeqFull","trueTheta":0.5,"classrooms":["C","D"],"studentTrueClassroom":"D","exampleSet":"first","trial_type":"survey-html-form","trial_index":71,"time_elapsed":514699,"internal_node_id":"0.0-70.0-0.0","params":{"nStudents":24,"maxFlips":30,"completionMinutes":45,"basePay":8,"maxBonus":9,"perTrialBonus":0.5,"perTrialBonusThreshold":0.05,"exampleCost":0.01},"classroomParams":{"A":{"a":1,"b":4},"B":{"a":4,"b":1},"C":{"a":2,"b":8},"D":{"a":8,"b":2}},"conditions":["nonSeqFull","nonSeqPartial","seqNoFeedback","seqFeedback"],"classroomPairings":[["A","B"],["C","D"]],"coinWeights":[0.2,0.5,0.8],"subjectId":"A1ILD5BPLI8X1P","assignmentId":"37Z929RLGAUCV9YE5JBCJ9XYG4ZSTX","hitId":"34XASH8KLQ89J2U8D314D7180O4PMV","url":"https://gershmanlab.com/experiments/alicia/teaching/experiment/?hitId=34XASH8KLQ89J2U8D314D7180O4PMV&workerId=A1ILD5BPLI8X1P&assignmentId=37Z929RLGAUCV9YE5JBCJ9XYG4ZSTX&a=L2Z77&tp_a=L2Z77&b=37Z929RLGAUCV9YE5JBCJ9XYG4ZSTX&tp_b=37Z929RLGAUCV9YE5JBCJ9XYG4ZSTX&c=365717&tp_c=365717","heads":5,"tails":5,"studentIndex":7,"studentTrueHypers":{"a":8,"b":2},"studentGuess":0.65,"delta":0.15000000000000002,"totalExamples":10,"bonus":0,"bonusSoFar":0.5},{"rt":7875,"response":{"heads":"5","tails":"5"},"type":"response","condition":"seqFeedback","trueTheta":0.5,"classrooms":["C","D"],"studentTrueClassroom":"D","exampleSet":"first","trial_type":"survey-html-form","trial_index":77,"time_elapsed":534707,"internal_node_id":"0.0-76.0-0.0","params":{"nStudents":24,"maxFlips":30,"completionMinutes":45,"basePay":8,"maxBonus":9,"perTrialBonus":0.5,"perTrialBonusThreshold":0.05,"exampleCost":0.01},"classroomParams":{"A":{"a":1,"b":4},"B":{"a":4,"b":1},"C":{"a":2,"b":8},"D":{"a":8,"b":2}},"conditions":["nonSeqFull","nonSeqPartial","seqNoFeedback","seqFeedback"],"classroomPairings":[["A","B"],["C","D"]],"coinWeights":[0.2,0.5,0.8],"subjectId":"A1ILD5BPLI8X1P","assignmentId":"37Z929RLGAUCV9YE5JBCJ9XYG4ZSTX","hitId":"34XASH8KLQ89J2U8D314D7180O4PMV","url":"https://gershmanlab.com/experiments/alicia/teaching/experiment/?hitId=34XASH8KLQ89J2U8D314D7180O4PMV&workerId=A1ILD5BPLI8X1P&assignmentId=37Z929RLGAUCV9YE5JBCJ9XYG4ZSTX&a=L2Z77&tp_a=L2Z77&b=37Z929RLGAUCV9YE5JBCJ9XYG4ZSTX&tp_b=37Z929RLGAUCV9YE5JBCJ9XYG4ZSTX&c=365717&tp_c=365717","heads":5,"tails":5,"studentIndex":8,"studentTrueHypers":{"a":8,"b":2},"studentGuess":0.65,"delta":0.15000000000000002,"totalExamples":10,"bonusSoFar":0.5},{"rt":4417,"response":{"heads":"10","tails":"10"},"type":"response","condition":"seqFeedback","trueTheta":0.5,"classrooms":["C","D"],"studentTrueClassroom":"D","exampleSet":"second","trial_type":"survey-html-form","trial_index":81,"time_elapsed":548146,"internal_node_id":"0.0-80.0-0.0","params":{"nStudents":24,"maxFlips":30,"completionMinutes":45,"basePay":8,"maxBonus":9,"perTrialBonus":0.5,"perTrialBonusThreshold":0.05,"exampleCost":0.01},"classroomParams":{"A":{"a":1,"b":4},"B":{"a":4,"b":1},"C":{"a":2,"b":8},"D":{"a":8,"b":2}},"conditions":["nonSeqFull","nonSeqPartial","seqNoFeedback","seqFeedback"],"classroomPairings":[["A","B"],["C","D"]],"coinWeights":[0.2,0.5,0.8],"subjectId":"A1ILD5BPLI8X1P","assignmentId":"37Z929RLGAUCV9YE5JBCJ9XYG4ZSTX","hitId":"34XASH8KLQ89J2U8D314D7180O4PMV","url":"https://gershmanlab.com/experiments/alicia/teaching/experiment/?hitId=34XASH8KLQ89J2U8D314D7180O4PMV&workerId=A1ILD5BPLI8X1P&assignmentId=37Z929RLGAUCV9YE5JBCJ9XYG4ZSTX&a=L2Z77&tp_a=L2Z77&b=37Z929RLGAUCV9YE5JBCJ9XYG4ZSTX&tp_b=37Z929RLGAUCV9YE5JBCJ9XYG4ZSTX&c=365717&tp_c=365717","firstResponseHeads":5,"firstResponseTails":5,"secondResponseHeads":10,"secondResponseTails":10,"totalHeads":15,"totalTails":15,"studentIndex":8,"studentTrueHypers":{"a":8,"b":2},"studentGuess":0.575,"delta":0.07499999999999996,"bonus":0,"bonusSoFar":0.5,"totalExamples":30},{"rt":3310,"response":{"heads":"8","tails":"2"},"type":"response","condition":"nonSeqPartial","trueTheta":0.8,"classrooms":["A","B"],"studentTrueClassroom":"A","exampleSet":"first","trial_type":"survey-html-form","trial_index":87,"time_elapsed":564549,"internal_node_id":"0.0-86.0-0.0","params":{"nStudents":24,"maxFlips":30,"completionMinutes":45,"basePay":8,"maxBonus":9,"perTrialBonus":0.5,"perTrialBonusThreshold":0.05,"exampleCost":0.01},"classroomParams":{"A":{"a":1,"b":4},"B":{"a":4,"b":1},"C":{"a":2,"b":8},"D":{"a":8,"b":2}},"conditions":["nonSeqFull","nonSeqPartial","seqNoFeedback","seqFeedback"],"classroomPairings":[["A","B"],["C","D"]],"coinWeights":[0.2,0.5,0.8],"subjectId":"A1ILD5BPLI8X1P","assignmentId":"37Z929RLGAUCV9YE5JBCJ9XYG4ZSTX","hitId":"34XASH8KLQ89J2U8D314D7180O4PMV","url":"https://gershmanlab.com/experiments/alicia/teaching/experiment/?hitId=34XASH8KLQ89J2U8D314D7180O4PMV&workerId=A1ILD5BPLI8X1P&assignmentId=37Z929RLGAUCV9YE5JBCJ9XYG4ZSTX&a=L2Z77&tp_a=L2Z77&b=37Z929RLGAUCV9YE5JBCJ9XYG4ZSTX&tp_b=37Z929RLGAUCV9YE5JBCJ9XYG4ZSTX&c=365717&tp_c=365717","heads":8,"tails":2,"studentIndex":9,"studentTrueHypers":{"a":1,"b":4},"studentGuess":0.6,"delta":0.20000000000000007,"totalExamples":10,"bonus":0,"bonusSoFar":0.5},{"rt":2848,"response":{"heads":"10","tails":"10"},"type":"response","condition":"nonSeqPartial","trueTheta":0.5,"classrooms":["C","D"],"studentTrueClassroom":"C","exampleSet":"first","trial_type":"survey-html-form","trial_index":93,"time_elapsed":581153,"internal_node_id":"0.0-92.0-0.0","params":{"nStudents":24,"maxFlips":30,"completionMinutes":45,"basePay":8,"maxBonus":9,"perTrialBonus":0.5,"perTrialBonusThreshold":0.05,"exampleCost":0.01},"classroomParams":{"A":{"a":1,"b":4},"B":{"a":4,"b":1},"C":{"a":2,"b":8},"D":{"a":8,"b":2}},"conditions":["nonSeqFull","nonSeqPartial","seqNoFeedback","seqFeedback"],"classroomPairings":[["A","B"],["C","D"]],"coinWeights":[0.2,0.5,0.8],"subjectId":"A1ILD5BPLI8X1P","assignmentId":"37Z929RLGAUCV9YE5JBCJ9XYG4ZSTX","hitId":"34XASH8KLQ89J2U8D314D7180O4PMV","url":"https://gershmanlab.com/experiments/alicia/teaching/experiment/?hitId=34XASH8KLQ89J2U8D314D7180O4PMV&workerId=A1ILD5BPLI8X1P&assignmentId=37Z929RLGAUCV9YE5JBCJ9XYG4ZSTX&a=L2Z77&tp_a=L2Z77&b=37Z929RLGAUCV9YE5JBCJ9XYG4ZSTX&tp_b=37Z929RLGAUCV9YE5JBCJ9XYG4ZSTX&c=365717&tp_c=365717","heads":10,"tails":10,"studentIndex":10,"studentTrueHypers":{"a":2,"b":8},"studentGuess":0.4,"delta":0.09999999999999998,"totalExamples":20,"bonus":0,"bonusSoFar":0.5},{"rt":2467,"response":{"heads":"5","tails":"5"},"type":"response","condition":"seqNoFeedback","trueTheta":0.5,"classrooms":["C","D"],"studentTrueClassroom":"C","exampleSet":"first","trial_type":"survey-html-form","trial_index":99,"time_elapsed":596072,"internal_node_id":"0.0-98.0-0.0","params":{"nStudents":24,"maxFlips":30,"completionMinutes":45,"basePay":8,"maxBonus":9,"perTrialBonus":0.5,"perTrialBonusThreshold":0.05,"exampleCost":0.01},"classroomParams":{"A":{"a":1,"b":4},"B":{"a":4,"b":1},"C":{"a":2,"b":8},"D":{"a":8,"b":2}},"conditions":["nonSeqFull","nonSeqPartial","seqNoFeedback","seqFeedback"],"classroomPairings":[["A","B"],["C","D"]],"coinWeights":[0.2,0.5,0.8],"subjectId":"A1ILD5BPLI8X1P","assignmentId":"37Z929RLGAUCV9YE5JBCJ9XYG4ZSTX","hitId":"34XASH8KLQ89J2U8D314D7180O4PMV","url":"https://gershmanlab.com/experiments/alicia/teaching/experiment/?hitId=34XASH8KLQ89J2U8D314D7180O4PMV&workerId=A1ILD5BPLI8X1P&assignmentId=37Z929RLGAUCV9YE5JBCJ9XYG4ZSTX&a=L2Z77&tp_a=L2Z77&b=37Z929RLGAUCV9YE5JBCJ9XYG4ZSTX&tp_b=37Z929RLGAUCV9YE5JBCJ9XYG4ZSTX&c=365717&tp_c=365717","heads":5,"tails":5,"studentIndex":11,"studentTrueHypers":{"a":2,"b":8},"studentGuess":0.35,"delta":0.15000000000000002,"totalExamples":10,"bonusSoFar":0.5},{"rt":9275,"response":{"heads":"5","tails":"5"},"type":"response","condition":"seqNoFeedback","trueTheta":0.5,"classrooms":["C","D"],"studentTrueClassroom":"C","exampleSet":"second","trial_type":"survey-html-form","trial_index":102,"time_elapsed":611617,"internal_node_id":"0.0-101.0-0.0","params":{"nStudents":24,"maxFlips":30,"completionMinutes":45,"basePay":8,"maxBonus":9,"perTrialBonus":0.5,"perTrialBonusThreshold":0.05,"exampleCost":0.01},"classroomParams":{"A":{"a":1,"b":4},"B":{"a":4,"b":1},"C":{"a":2,"b":8},"D":{"a":8,"b":2}},"conditions":["nonSeqFull","nonSeqPartial","seqNoFeedback","seqFeedback"],"classroomPairings":[["A","B"],["C","D"]],"coinWeights":[0.2,0.5,0.8],"subjectId":"A1ILD5BPLI8X1P","assignmentId":"37Z929RLGAUCV9YE5JBCJ9XYG4ZSTX","hitId":"34XASH8KLQ89J2U8D314D7180O4PMV","url":"https://gershmanlab.com/experiments/alicia/teaching/experiment/?hitId=34XASH8KLQ89J2U8D314D7180O4PMV&workerId=A1ILD5BPLI8X1P&assignmentId=37Z929RLGAUCV9YE5JBCJ9XYG4ZSTX&a=L2Z77&tp_a=L2Z77&b=37Z929RLGAUCV9YE5JBCJ9XYG4ZSTX&tp_b=37Z929RLGAUCV9YE5JBCJ9XYG4ZSTX&c=365717&tp_c=365717","firstResponseHeads":5,"firstResponseTails":5,"secondResponseHeads":5,"secondResponseTails":5,"totalHeads":10,"totalTails":10,"studentIndex":11,"studentTrueHypers":{"a":2,"b":8},"studentGuess":0.4,"delta":0.09999999999999998,"bonus":0,"bonusSoFar":0.5,"totalExamples":20},{"rt":6435,"response":{"heads":"0","tails":"10"},"type":"response","condition":"seqNoFeedback","trueTheta":0.2,"classrooms":["C","D"],"studentTrueClassroom":"D","exampleSet":"first","trial_type":"survey-html-form","trial_index":108,"time_elapsed":631104,"internal_node_id":"0.0-107.0-0.0","params":{"nStudents":24,"maxFlips":30,"completionMinutes":45,"basePay":8,"maxBonus":9,"perTrialBonus":0.5,"perTrialBonusThreshold":0.05,"exampleCost":0.01},"classroomParams":{"A":{"a":1,"b":4},"B":{"a":4,"b":1},"C":{"a":2,"b":8},"D":{"a":8,"b":2}},"conditions":["nonSeqFull","nonSeqPartial","seqNoFeedback","seqFeedback"],"classroomPairings":[["A","B"],["C","D"]],"coinWeights":[0.2,0.5,0.8],"subjectId":"A1ILD5BPLI8X1P","assignmentId":"37Z929RLGAUCV9YE5JBCJ9XYG4ZSTX","hitId":"34XASH8KLQ89J2U8D314D7180O4PMV","url":"https://gershmanlab.com/experiments/alicia/teaching/experiment/?hitId=34XASH8KLQ89J2U8D314D7180O4PMV&workerId=A1ILD5BPLI8X1P&assignmentId=37Z929RLGAUCV9YE5JBCJ9XYG4ZSTX&a=L2Z77&tp_a=L2Z77&b=37Z929RLGAUCV9YE5JBCJ9XYG4ZSTX&tp_b=37Z929RLGAUCV9YE5JBCJ9XYG4ZSTX&c=365717&tp_c=365717","heads":0,"tails":10,"studentIndex":12,"studentTrueHypers":{"a":8,"b":2},"studentGuess":0.4,"delta":0.2,"totalExamples":10,"bonusSoFar":0.5},{"rt":6273,"response":{"heads":"2","tails":"8"},"type":"response","condition":"seqNoFeedback","trueTheta":0.2,"classrooms":["C","D"],"studentTrueClassroom":"D","exampleSet":"second","trial_type":"survey-html-form","trial_index":111,"time_elapsed":643151,"internal_node_id":"0.0-110.0-0.0","params":{"nStudents":24,"maxFlips":30,"completionMinutes":45,"basePay":8,"maxBonus":9,"perTrialBonus":0.5,"perTrialBonusThreshold":0.05,"exampleCost":0.01},"classroomParams":{"A":{"a":1,"b":4},"B":{"a":4,"b":1},"C":{"a":2,"b":8},"D":{"a":8,"b":2}},"conditions":["nonSeqFull","nonSeqPartial","seqNoFeedback","seqFeedback"],"classroomPairings":[["A","B"],["C","D"]],"coinWeights":[0.2,0.5,0.8],"subjectId":"A1ILD5BPLI8X1P","assignmentId":"37Z929RLGAUCV9YE5JBCJ9XYG4ZSTX","hitId":"34XASH8KLQ89J2U8D314D7180O4PMV","url":"https://gershmanlab.com/experiments/alicia/teaching/experiment/?hitId=34XASH8KLQ89J2U8D314D7180O4PMV&workerId=A1ILD5BPLI8X1P&assignmentId=37Z929RLGAUCV9YE5JBCJ9XYG4ZSTX&a=L2Z77&tp_a=L2Z77&b=37Z929RLGAUCV9YE5JBCJ9XYG4ZSTX&tp_b=37Z929RLGAUCV9YE5JBCJ9XYG4ZSTX&c=365717&tp_c=365717","firstResponseHeads":0,"firstResponseTails":10,"secondResponseHeads":2,"secondResponseTails":8,"totalHeads":2,"totalTails":18,"studentIndex":12,"studentTrueHypers":{"a":8,"b":2},"studentGuess":0.3333333333333333,"delta":0.1333333333333333,"bonus":0,"bonusSoFar":0.5,"totalExamples":20},{"rt":4129,"response":{"heads":"10","tails":"10"},"type":"response","condition":"nonSeqPartial","trueTheta":0.5,"classrooms":["A","B"],"studentTrueClassroom":"A","exampleSet":"first","trial_type":"survey-html-form","trial_index":117,"time_elapsed":662007,"internal_node_id":"0.0-116.0-0.0","params":{"nStudents":24,"maxFlips":30,"completionMinutes":45,"basePay":8,"maxBonus":9,"perTrialBonus":0.5,"perTrialBonusThreshold":0.05,"exampleCost":0.01},"classroomParams":{"A":{"a":1,"b":4},"B":{"a":4,"b":1},"C":{"a":2,"b":8},"D":{"a":8,"b":2}},"conditions":["nonSeqFull","nonSeqPartial","seqNoFeedback","seqFeedback"],"classroomPairings":[["A","B"],["C","D"]],"coinWeights":[0.2,0.5,0.8],"subjectId":"A1ILD5BPLI8X1P","assignmentId":"37Z929RLGAUCV9YE5JBCJ9XYG4ZSTX","hitId":"34XASH8KLQ89J2U8D314D7180O4PMV","url":"https://gershmanlab.com/experiments/alicia/teaching/experiment/?hitId=34XASH8KLQ89J2U8D314D7180O4PMV&workerId=A1ILD5BPLI8X1P&assignmentId=37Z929RLGAUCV9YE5JBCJ9XYG4ZSTX&a=L2Z77&tp_a=L2Z77&b=37Z929RLGAUCV9YE5JBCJ9XYG4ZSTX&tp_b=37Z929RLGAUCV9YE5JBCJ9XYG4ZSTX&c=365717&tp_c=365717","heads":10,"tails":10,"studentIndex":13,"studentTrueHypers":{"a":1,"b":4},"studentGuess":0.44,"delta":0.06,"totalExamples":20,"bonus":0,"bonusSoFar":0.5},{"rt":3015,"response":{"heads":"10","tails":"10"},"type":"response","condition":"nonSeqFull","trueTheta":0.5,"classrooms":["A","B"],"studentTrueClassroom":"B","exampleSet":"first","trial_type":"survey-html-form","trial_index":123,"time_elapsed":678811,"internal_node_id":"0.0-122.0-0.0","params":{"nStudents":24,"maxFlips":30,"completionMinutes":45,"basePay":8,"maxBonus":9,"perTrialBonus":0.5,"perTrialBonusThreshold":0.05,"exampleCost":0.01},"classroomParams":{"A":{"a":1,"b":4},"B":{"a":4,"b":1},"C":{"a":2,"b":8},"D":{"a":8,"b":2}},"conditions":["nonSeqFull","nonSeqPartial","seqNoFeedback","seqFeedback"],"classroomPairings":[["A","B"],["C","D"]],"coinWeights":[0.2,0.5,0.8],"subjectId":"A1ILD5BPLI8X1P","assignmentId":"37Z929RLGAUCV9YE5JBCJ9XYG4ZSTX","hitId":"34XASH8KLQ89J2U8D314D7180O4PMV","url":"https://gershmanlab.com/experiments/alicia/teaching/experiment/?hitId=34XASH8KLQ89J2U8D314D7180O4PMV&workerId=A1ILD5BPLI8X1P&assignmentId=37Z929RLGAUCV9YE5JBCJ9XYG4ZSTX&a=L2Z77&tp_a=L2Z77&b=37Z929RLGAUCV9YE5JBCJ9XYG4ZSTX&tp_b=37Z929RLGAUCV9YE5JBCJ9XYG4ZSTX&c=365717&tp_c=365717","heads":10,"tails":10,"studentIndex":14,"studentTrueHypers":{"a":4,"b":1},"studentGuess":0.56,"delta":0.06000000000000005,"totalExamples":20,"bonus":0,"bonusSoFar":0.5},{"rt":3565,"response":{"heads":"1","tails":"4"},"type":"response","condition":"nonSeqFull","trueTheta":0.2,"classrooms":["A","B"],"studentTrueClassroom":"B","exampleSet":"first","trial_type":"survey-html-form","trial_index":129,"time_elapsed":695033,"internal_node_id":"0.0-128.0-0.0","params":{"nStudents":24,"maxFlips":30,"completionMinutes":45,"basePay":8,"maxBonus":9,"perTrialBonus":0.5,"perTrialBonusThreshold":0.05,"exampleCost":0.01},"classroomParams":{"A":{"a":1,"b":4},"B":{"a":4,"b":1},"C":{"a":2,"b":8},"D":{"a":8,"b":2}},"conditions":["nonSeqFull","nonSeqPartial","seqNoFeedback","seqFeedback"],"classroomPairings":[["A","B"],["C","D"]],"coinWeights":[0.2,0.5,0.8],"subjectId":"A1ILD5BPLI8X1P","assignmentId":"37Z929RLGAUCV9YE5JBCJ9XYG4ZSTX","hitId":"34XASH8KLQ89J2U8D314D7180O4PMV","url":"https://gershmanlab.com/experiments/alicia/teaching/experiment/?hitId=34XASH8KLQ89J2U8D314D7180O4PMV&workerId=A1ILD5BPLI8X1P&assignmentId=37Z929RLGAUCV9YE5JBCJ9XYG4ZSTX&a=L2Z77&tp_a=L2Z77&b=37Z929RLGAUCV9YE5JBCJ9XYG4ZSTX&tp_b=37Z929RLGAUCV9YE5JBCJ9XYG4ZSTX&c=365717&tp_c=365717","heads":1,"tails":4,"studentIndex":15,"studentTrueHypers":{"a":4,"b":1},"studentGuess":0.5,"delta":0.3,"totalExamples":5,"bonus":0,"bonusSoFar":0.5},{"rt":3621,"response":{"heads":"1","tails":"4"},"type":"response","condition":"seqFeedback","trueTheta":0.2,"classrooms":["C","D"],"studentTrueClassroom":"C","exampleSet":"first","trial_type":"survey-html-form","trial_index":135,"time_elapsed":714862,"internal_node_id":"0.0-134.0-0.0","params":{"nStudents":24,"maxFlips":30,"completionMinutes":45,"basePay":8,"maxBonus":9,"perTrialBonus":0.5,"perTrialBonusThreshold":0.05,"exampleCost":0.01},"classroomParams":{"A":{"a":1,"b":4},"B":{"a":4,"b":1},"C":{"a":2,"b":8},"D":{"a":8,"b":2}},"conditions":["nonSeqFull","nonSeqPartial","seqNoFeedback","seqFeedback"],"classroomPairings":[["A","B"],["C","D"]],"coinWeights":[0.2,0.5,0.8],"subjectId":"A1ILD5BPLI8X1P","assignmentId":"37Z929RLGAUCV9YE5JBCJ9XYG4ZSTX","hitId":"34XASH8KLQ89J2U8D314D7180O4PMV","url":"https://gershmanlab.com/experiments/alicia/teaching/experiment/?hitId=34XASH8KLQ89J2U8D314D7180O4PMV&workerId=A1ILD5BPLI8X1P&assignmentId=37Z929RLGAUCV9YE5JBCJ9XYG4ZSTX&a=L2Z77&tp_a=L2Z77&b=37Z929RLGAUCV9YE5JBCJ9XYG4ZSTX&tp_b=37Z929RLGAUCV9YE5JBCJ9XYG4ZSTX&c=365717&tp_c=365717","heads":1,"tails":4,"studentIndex":16,"studentTrueHypers":{"a":2,"b":8},"studentGuess":0.2,"delta":0,"totalExamples":5,"bonusSoFar":0.5},{"rt":2564,"response":{"heads":"1","tails":"4"},"type":"response","condition":"seqFeedback","trueTheta":0.2,"classrooms":["C","D"],"studentTrueClassroom":"C","exampleSet":"second","trial_type":"survey-html-form","trial_index":139,"time_elapsed":726390,"internal_node_id":"0.0-138.0-0.0","params":{"nStudents":24,"maxFlips":30,"completionMinutes":45,"basePay":8,"maxBonus":9,"perTrialBonus":0.5,"perTrialBonusThreshold":0.05,"exampleCost":0.01},"classroomParams":{"A":{"a":1,"b":4},"B":{"a":4,"b":1},"C":{"a":2,"b":8},"D":{"a":8,"b":2}},"conditions":["nonSeqFull","nonSeqPartial","seqNoFeedback","seqFeedback"],"classroomPairings":[["A","B"],["C","D"]],"coinWeights":[0.2,0.5,0.8],"subjectId":"A1ILD5BPLI8X1P","assignmentId":"37Z929RLGAUCV9YE5JBCJ9XYG4ZSTX","hitId":"34XASH8KLQ89J2U8D314D7180O4PMV","url":"https://gershmanlab.com/experiments/alicia/teaching/experiment/?hitId=34XASH8KLQ89J2U8D314D7180O4PMV&workerId=A1ILD5BPLI8X1P&assignmentId=37Z929RLGAUCV9YE5JBCJ9XYG4ZSTX&a=L2Z77&tp_a=L2Z77&b=37Z929RLGAUCV9YE5JBCJ9XYG4ZSTX&tp_b=37Z929RLGAUCV9YE5JBCJ9XYG4ZSTX&c=365717&tp_c=365717","firstResponseHeads":1,"firstResponseTails":4,"secondResponseHeads":1,"secondResponseTails":4,"totalHeads":2,"totalTails":8,"studentIndex":16,"studentTrueHypers":{"a":2,"b":8},"studentGuess":0.2,"delta":0,"bonus":0.4,"bonusSoFar":0.9,"totalExamples":10},{"rt":2458,"response":{"heads":"1","tails":"4"},"type":"response","condition":"nonSeqFull","trueTheta":0.2,"classrooms":["C","D"],"studentTrueClassroom":"C","exampleSet":"first","trial_type":"survey-html-form","trial_index":145,"time_elapsed":740386,"internal_node_id":"0.0-144.0-0.0","params":{"nStudents":24,"maxFlips":30,"completionMinutes":45,"basePay":8,"maxBonus":9,"perTrialBonus":0.5,"perTrialBonusThreshold":0.05,"exampleCost":0.01},"classroomParams":{"A":{"a":1,"b":4},"B":{"a":4,"b":1},"C":{"a":2,"b":8},"D":{"a":8,"b":2}},"conditions":["nonSeqFull","nonSeqPartial","seqNoFeedback","seqFeedback"],"classroomPairings":[["A","B"],["C","D"]],"coinWeights":[0.2,0.5,0.8],"subjectId":"A1ILD5BPLI8X1P","assignmentId":"37Z929RLGAUCV9YE5JBCJ9XYG4ZSTX","hitId":"34XASH8KLQ89J2U8D314D7180O4PMV","url":"https://gershmanlab.com/experiments/alicia/teaching/experiment/?hitId=34XASH8KLQ89J2U8D314D7180O4PMV&workerId=A1ILD5BPLI8X1P&assignmentId=37Z929RLGAUCV9YE5JBCJ9XYG4ZSTX&a=L2Z77&tp_a=L2Z77&b=37Z929RLGAUCV9YE5JBCJ9XYG4ZSTX&tp_b=37Z929RLGAUCV9YE5JBCJ9XYG4ZSTX&c=365717&tp_c=365717","heads":1,"tails":4,"studentIndex":17,"studentTrueHypers":{"a":2,"b":8},"studentGuess":0.2,"delta":0,"totalExamples":5,"bonus":0.45,"bonusSoFar":1.35},{"rt":2257,"response":{"heads":"4","tails":"1"},"type":"response","condition":"nonSeqFull","trueTheta":0.8,"classrooms":["C","D"],"studentTrueClassroom":"C","exampleSet":"first","trial_type":"survey-html-form","trial_index":151,"time_elapsed":755929,"internal_node_id":"0.0-150.0-0.0","params":{"nStudents":24,"maxFlips":30,"completionMinutes":45,"basePay":8,"maxBonus":9,"perTrialBonus":0.5,"perTrialBonusThreshold":0.05,"exampleCost":0.01},"classroomParams":{"A":{"a":1,"b":4},"B":{"a":4,"b":1},"C":{"a":2,"b":8},"D":{"a":8,"b":2}},"conditions":["nonSeqFull","nonSeqPartial","seqNoFeedback","seqFeedback"],"classroomPairings":[["A","B"],["C","D"]],"coinWeights":[0.2,0.5,0.8],"subjectId":"A1ILD5BPLI8X1P","assignmentId":"37Z929RLGAUCV9YE5JBCJ9XYG4ZSTX","hitId":"34XASH8KLQ89J2U8D314D7180O4PMV","url":"https://gershmanlab.com/experiments/alicia/teaching/experiment/?hitId=34XASH8KLQ89J2U8D314D7180O4PMV&workerId=A1ILD5BPLI8X1P&assignmentId=37Z929RLGAUCV9YE5JBCJ9XYG4ZSTX&a=L2Z77&tp_a=L2Z77&b=37Z929RLGAUCV9YE5JBCJ9XYG4ZSTX&tp_b=37Z929RLGAUCV9YE5JBCJ9XYG4ZSTX&c=365717&tp_c=365717","heads":4,"tails":1,"studentIndex":18,"studentTrueHypers":{"a":2,"b":8},"studentGuess":0.4,"delta":0.4,"totalExamples":5,"bonus":0,"bonusSoFar":1.35},{"rt":3570,"response":{"heads":"4","tails":"1"},"type":"response","condition":"nonSeqPartial","trueTheta":0.8,"classrooms":["C","D"],"studentTrueClassroom":"C","exampleSet":"first","trial_type":"survey-html-form","trial_index":157,"time_elapsed":774126,"internal_node_id":"0.0-156.0-0.0","params":{"nStudents":24,"maxFlips":30,"completionMinutes":45,"basePay":8,"maxBonus":9,"perTrialBonus":0.5,"perTrialBonusThreshold":0.05,"exampleCost":0.01},"classroomParams":{"A":{"a":1,"b":4},"B":{"a":4,"b":1},"C":{"a":2,"b":8},"D":{"a":8,"b":2}},"conditions":["nonSeqFull","nonSeqPartial","seqNoFeedback","seqFeedback"],"classroomPairings":[["A","B"],["C","D"]],"coinWeights":[0.2,0.5,0.8],"subjectId":"A1ILD5BPLI8X1P","assignmentId":"37Z929RLGAUCV9YE5JBCJ9XYG4ZSTX","hitId":"34XASH8KLQ89J2U8D314D7180O4PMV","url":"https://gershmanlab.com/experiments/alicia/teaching/experiment/?hitId=34XASH8KLQ89J2U8D314D7180O4PMV&workerId=A1ILD5BPLI8X1P&assignmentId=37Z929RLGAUCV9YE5JBCJ9XYG4ZSTX&a=L2Z77&tp_a=L2Z77&b=37Z929RLGAUCV9YE5JBCJ9XYG4ZSTX&tp_b=37Z929RLGAUCV9YE5JBCJ9XYG4ZSTX&c=365717&tp_c=365717","heads":4,"tails":1,"studentIndex":19,"studentTrueHypers":{"a":2,"b":8},"studentGuess":0.4,"delta":0.4,"totalExamples":5,"bonus":0,"bonusSoFar":1.35},{"rt":1999,"response":{"heads":"1","tails":"4"},"type":"response","condition":"nonSeqPartial","trueTheta":0.2,"classrooms":["C","D"],"studentTrueClassroom":"C","exampleSet":"first","trial_type":"survey-html-form","trial_index":163,"time_elapsed":789013,"internal_node_id":"0.0-162.0-0.0","params":{"nStudents":24,"maxFlips":30,"completionMinutes":45,"basePay":8,"maxBonus":9,"perTrialBonus":0.5,"perTrialBonusThreshold":0.05,"exampleCost":0.01},"classroomParams":{"A":{"a":1,"b":4},"B":{"a":4,"b":1},"C":{"a":2,"b":8},"D":{"a":8,"b":2}},"conditions":["nonSeqFull","nonSeqPartial","seqNoFeedback","seqFeedback"],"classroomPairings":[["A","B"],["C","D"]],"coinWeights":[0.2,0.5,0.8],"subjectId":"A1ILD5BPLI8X1P","assignmentId":"37Z929RLGAUCV9YE5JBCJ9XYG4ZSTX","hitId":"34XASH8KLQ89J2U8D314D7180O4PMV","url":"https://gershmanlab.com/experiments/alicia/teaching/experiment/?hitId=34XASH8KLQ89J2U8D314D7180O4PMV&workerId=A1ILD5BPLI8X1P&assignmentId=37Z929RLGAUCV9YE5JBCJ9XYG4ZSTX&a=L2Z77&tp_a=L2Z77&b=37Z929RLGAUCV9YE5JBCJ9XYG4ZSTX&tp_b=37Z929RLGAUCV9YE5JBCJ9XYG4ZSTX&c=365717&tp_c=365717","heads":1,"tails":4,"studentIndex":20,"studentTrueHypers":{"a":2,"b":8},"studentGuess":0.2,"delta":0,"totalExamples":5,"bonus":0.45,"bonusSoFar":1.8},{"rt":1936,"response":{"heads":"1","tails":"4"},"type":"response","condition":"nonSeqPartial","trueTheta":0.2,"classrooms":["A","B"],"studentTrueClassroom":"A","exampleSet":"first","trial_type":"survey-html-form","trial_index":169,"time_elapsed":803276,"internal_node_id":"0.0-168.0-0.0","params":{"nStudents":24,"maxFlips":30,"completionMinutes":45,"basePay":8,"maxBonus":9,"perTrialBonus":0.5,"perTrialBonusThreshold":0.05,"exampleCost":0.01},"classroomParams":{"A":{"a":1,"b":4},"B":{"a":4,"b":1},"C":{"a":2,"b":8},"D":{"a":8,"b":2}},"conditions":["nonSeqFull","nonSeqPartial","seqNoFeedback","seqFeedback"],"classroomPairings":[["A","B"],["C","D"]],"coinWeights":[0.2,0.5,0.8],"subjectId":"A1ILD5BPLI8X1P","assignmentId":"37Z929RLGAUCV9YE5JBCJ9XYG4ZSTX","hitId":"34XASH8KLQ89J2U8D314D7180O4PMV","url":"https://gershmanlab.com/experiments/alicia/teaching/experiment/?hitId=34XASH8KLQ89J2U8D314D7180O4PMV&workerId=A1ILD5BPLI8X1P&assignmentId=37Z929RLGAUCV9YE5JBCJ9XYG4ZSTX&a=L2Z77&tp_a=L2Z77&b=37Z929RLGAUCV9YE5JBCJ9XYG4ZSTX&tp_b=37Z929RLGAUCV9YE5JBCJ9XYG4ZSTX&c=365717&tp_c=365717","heads":1,"tails":4,"studentIndex":21,"studentTrueHypers":{"a":1,"b":4},"studentGuess":0.2,"delta":0,"totalExamples":5,"bonus":0.45,"bonusSoFar":2.25},{"rt":4369,"response":{"heads":"5","tails":"5"},"type":"response","condition":"seqNoFeedback","trueTheta":0.5,"classrooms":["A","B"],"studentTrueClassroom":"A","exampleSet":"first","trial_type":"survey-html-form","trial_index":175,"time_elapsed":818575,"internal_node_id":"0.0-174.0-0.0","params":{"nStudents":24,"maxFlips":30,"completionMinutes":45,"basePay":8,"maxBonus":9,"perTrialBonus":0.5,"perTrialBonusThreshold":0.05,"exampleCost":0.01},"classroomParams":{"A":{"a":1,"b":4},"B":{"a":4,"b":1},"C":{"a":2,"b":8},"D":{"a":8,"b":2}},"conditions":["nonSeqFull","nonSeqPartial","seqNoFeedback","seqFeedback"],"classroomPairings":[["A","B"],["C","D"]],"coinWeights":[0.2,0.5,0.8],"subjectId":"A1ILD5BPLI8X1P","assignmentId":"37Z929RLGAUCV9YE5JBCJ9XYG4ZSTX","hitId":"34XASH8KLQ89J2U8D314D7180O4PMV","url":"https://gershmanlab.com/experiments/alicia/teaching/experiment/?hitId=34XASH8KLQ89J2U8D314D7180O4PMV&workerId=A1ILD5BPLI8X1P&assignmentId=37Z929RLGAUCV9YE5JBCJ9XYG4ZSTX&a=L2Z77&tp_a=L2Z77&b=37Z929RLGAUCV9YE5JBCJ9XYG4ZSTX&tp_b=37Z929RLGAUCV9YE5JBCJ9XYG4ZSTX&c=365717&tp_c=365717","heads":5,"tails":5,"studentIndex":22,"studentTrueHypers":{"a":1,"b":4},"studentGuess":0.4,"delta":0.09999999999999998,"totalExamples":10,"bonusSoFar":2.25},{"rt":2852,"response":{"heads":"5","tails":"5"},"type":"response","condition":"seqNoFeedback","trueTheta":0.5,"classrooms":["A","B"],"studentTrueClassroom":"A","exampleSet":"second","trial_type":"survey-html-form","trial_index":178,"time_elapsed":827689,"internal_node_id":"0.0-177.0-0.0","params":{"nStudents":24,"maxFlips":30,"completionMinutes":45,"basePay":8,"maxBonus":9,"perTrialBonus":0.5,"perTrialBonusThreshold":0.05,"exampleCost":0.01},"classroomParams":{"A":{"a":1,"b":4},"B":{"a":4,"b":1},"C":{"a":2,"b":8},"D":{"a":8,"b":2}},"conditions":["nonSeqFull","nonSeqPartial","seqNoFeedback","seqFeedback"],"classroomPairings":[["A","B"],["C","D"]],"coinWeights":[0.2,0.5,0.8],"subjectId":"A1ILD5BPLI8X1P","assignmentId":"37Z929RLGAUCV9YE5JBCJ9XYG4ZSTX","hitId":"34XASH8KLQ89J2U8D314D7180O4PMV","url":"https://gershmanlab.com/experiments/alicia/teaching/experiment/?hitId=34XASH8KLQ89J2U8D314D7180O4PMV&workerId=A1ILD5BPLI8X1P&assignmentId=37Z929RLGAUCV9YE5JBCJ9XYG4ZSTX&a=L2Z77&tp_a=L2Z77&b=37Z929RLGAUCV9YE5JBCJ9XYG4ZSTX&tp_b=37Z929RLGAUCV9YE5JBCJ9XYG4ZSTX&c=365717&tp_c=365717","firstResponseHeads":5,"firstResponseTails":5,"secondResponseHeads":5,"secondResponseTails":5,"totalHeads":10,"totalTails":10,"studentIndex":22,"studentTrueHypers":{"a":1,"b":4},"studentGuess":0.44,"delta":0.06,"bonus":0,"bonusSoFar":2.25,"totalExamples":20},{"rt":1734,"response":{"heads":"1","tails":"4"},"type":"response","condition":"seqNoFeedback","trueTheta":0.2,"classrooms":["A","B"],"studentTrueClassroom":"B","exampleSet":"first","trial_type":"survey-html-form","trial_index":184,"time_elapsed":845865,"internal_node_id":"0.0-183.0-0.0","params":{"nStudents":24,"maxFlips":30,"completionMinutes":45,"basePay":8,"maxBonus":9,"perTrialBonus":0.5,"perTrialBonusThreshold":0.05,"exampleCost":0.01},"classroomParams":{"A":{"a":1,"b":4},"B":{"a":4,"b":1},"C":{"a":2,"b":8},"D":{"a":8,"b":2}},"conditions":["nonSeqFull","nonSeqPartial","seqNoFeedback","seqFeedback"],"classroomPairings":[["A","B"],["C","D"]],"coinWeights":[0.2,0.5,0.8],"subjectId":"A1ILD5BPLI8X1P","assignmentId":"37Z929RLGAUCV9YE5JBCJ9XYG4ZSTX","hitId":"34XASH8KLQ89J2U8D314D7180O4PMV","url":"https://gershmanlab.com/experiments/alicia/teaching/experiment/?hitId=34XASH8KLQ89J2U8D314D7180O4PMV&workerId=A1ILD5BPLI8X1P&assignmentId=37Z929RLGAUCV9YE5JBCJ9XYG4ZSTX&a=L2Z77&tp_a=L2Z77&b=37Z929RLGAUCV9YE5JBCJ9XYG4ZSTX&tp_b=37Z929RLGAUCV9YE5JBCJ9XYG4ZSTX&c=365717&tp_c=365717","heads":1,"tails":4,"studentIndex":23,"studentTrueHypers":{"a":4,"b":1},"studentGuess":0.5,"delta":0.3,"totalExamples":5,"bonusSoFar":2.25},{"rt":2915,"response":{"heads":"1","tails":"4"},"type":"response","condition":"seqNoFeedback","trueTheta":0.2,"classrooms":["A","B"],"studentTrueClassroom":"B","exampleSet":"second","trial_type":"survey-html-form","trial_index":187,"time_elapsed":855303,"internal_node_id":"0.0-186.0-0.0","params":{"nStudents":24,"maxFlips":30,"completionMinutes":45,"basePay":8,"maxBonus":9,"perTrialBonus":0.5,"perTrialBonusThreshold":0.05,"exampleCost":0.01},"classroomParams":{"A":{"a":1,"b":4},"B":{"a":4,"b":1},"C":{"a":2,"b":8},"D":{"a":8,"b":2}},"conditions":["nonSeqFull","nonSeqPartial","seqNoFeedback","seqFeedback"],"classroomPairings":[["A","B"],["C","D"]],"coinWeights":[0.2,0.5,0.8],"subjectId":"A1ILD5BPLI8X1P","assignmentId":"37Z929RLGAUCV9YE5JBCJ9XYG4ZSTX","hitId":"34XASH8KLQ89J2U8D314D7180O4PMV","url":"https://gershmanlab.com/experiments/alicia/teaching/experiment/?hitId=34XASH8KLQ89J2U8D314D7180O4PMV&workerId=A1ILD5BPLI8X1P&assignmentId=37Z929RLGAUCV9YE5JBCJ9XYG4ZSTX&a=L2Z77&tp_a=L2Z77&b=37Z929RLGAUCV9YE5JBCJ9XYG4ZSTX&tp_b=37Z929RLGAUCV9YE5JBCJ9XYG4ZSTX&c=365717&tp_c=365717","firstResponseHeads":1,"firstResponseTails":4,"secondResponseHeads":1,"secondResponseTails":4,"totalHeads":2,"totalTails":8,"studentIndex":23,"studentTrueHypers":{"a":4,"b":1},"studentGuess":0.4,"delta":0.2,"bonus":0,"bonusSoFar":2.25,"totalExamples":10},{"rt":9277,"response":{"gender":"male","age":"27","understood":"yes","comments":""},"type":"response","trial_type":"survey-html-form","trial_index":191,"time_elapsed":874342,"internal_node_id":"0.0-191.0","params":{"nStudents":24,"maxFlips":30,"completionMinutes":45,"basePay":8,"maxBonus":9,"perTrialBonus":0.5,"perTrialBonusThreshold":0.05,"exampleCost":0.01},"classroomParams":{"A":{"a":1,"b":4},"B":{"a":4,"b":1},"C":{"a":2,"b":8},"D":{"a":8,"b":2}},"conditions":["nonSeqFull","nonSeqPartial","seqNoFeedback","seqFeedback"],"classroomPairings":[["A","B"],["C","D"]],"coinWeights":[0.2,0.5,0.8],"subjectId":"A1ILD5BPLI8X1P","assignmentId":"37Z929RLGAUCV9YE5JBCJ9XYG4ZSTX","hitId":"34XASH8KLQ89J2U8D314D7180O4PMV","url":"https://gershmanlab.com/experiments/alicia/teaching/experiment/?hitId=34XASH8KLQ89J2U8D314D7180O4PMV&workerId=A1ILD5BPLI8X1P&assignmentId=37Z929RLGAUCV9YE5JBCJ9XYG4ZSTX&a=L2Z77&tp_a=L2Z77&b=37Z929RLGAUCV9YE5JBCJ9XYG4ZSTX&tp_b=37Z929RLGAUCV9YE5JBCJ9XYG4ZSTX&c=365717&tp_c=365717","totalBonus":2.25}]