[{"rt":30991,"response":{"heads":"5","tails":"5"},"type":"response","condition":"seqNoFeedback","trueTheta":0.8,"classrooms":["C","D"],"studentTrueClassroom":"C","exampleSet":"first","trial_type":"survey-html-form","trial_index":7,"time_elapsed":378800,"internal_node_id":"0.0-6.0-0.0","params":{"nStudents":24,"maxFlips":30,"completionMinutes":45,"basePay":8,"maxBonus":9,"perTrialBonus":0.5,"perTrialBonusThreshold":0.05,"exampleCost":0.01},"classroomParams":{"A":{"a":1,"b":4},"B":{"a":4,"b":1},"C":{"a":2,"b":8},"D":{"a":8,"b":2}},"conditions":["nonSeqFull","nonSeqPartial","seqNoFeedback","seqFeedback"],"classroomPairings":[["A","B"],["C","D"]],"coinWeights":[0.2,0.5,0.8],"subjectId":"A1M3KGD9H8RTBH","assignmentId":"3TYCR1GOTD5LD8CNR23TTBKK97YZLT","hitId":"3JGHED38EDDK7DFM0KVY7GXU94LY7W","url":"https://gershmanlab.com/experiments/alicia/teaching/experiment/?hitId=3JGHED38EDDK7DFM0KVY7GXU94LY7W&workerId=A1M3KGD9H8RTBH&assignmentId=3TYCR1GOTD5LD8CNR23TTBKK97YZLT&a=ORYT9&tp_a=ORYT9&b=3TYCR1GOTD5LD8CNR23TTBKK97YZLT&tp_b=3TYCR1GOTD5LD8CNR23TTBKK97YZLT&c=365799&tp_c=365799","heads":5,"tails":5,"studentIndex":0,"studentTrueHypers":{"a":2,"b":8},"studentGuess":0.35,"delta":0.45000000000000007,"totalExamples":10,"bonusSoFar":0},{"rt":18043,"response":{"heads":"5","tails":"5"},"type":"response","condition":"seqNoFeedback","trueTheta":0.8,"classrooms":["C","D"],"studentTrueClassroom":"C","exampleSet":"second","trial_type":"survey-html-form","trial_index":10,"time_elapsed":403381,"internal_node_id":"0.0-9.0-0.0","params":{"nStudents":24,"maxFlips":30,"completionMinutes":45,"basePay":8,"maxBonus":9,"perTrialBonus":0.5,"perTrialBonusThreshold":0.05,"exampleCost":0.01},"classroomParams":{"A":{"a":1,"b":4},"B":{"a":4,"b":1},"C":{"a":2,"b":8},"D":{"a":8,"b":2}},"conditions":["nonSeqFull","nonSeqPartial","seqNoFeedback","seqFeedback"],"classroomPairings":[["A","B"],["C","D"]],"coinWeights":[0.2,0.5,0.8],"subjectId":"A1M3KGD9H8RTBH","assignmentId":"3TYCR1GOTD5LD8CNR23TTBKK97YZLT","hitId":"3JGHED38EDDK7DFM0KVY7GXU94LY7W","url":"https://gershmanlab.com/experiments/alicia/teaching/experiment/?hitId=3JGHED38EDDK7DFM0KVY7GXU94LY7W&workerId=A1M3KGD9H8RTBH&assignmentId=3TYCR1GOTD5LD8CNR23TTBKK97YZLT&a=ORYT9&tp_a=ORYT9&b=3TYCR1GOTD5LD8CNR23TTBKK97YZLT&tp_b=3TYCR1GOTD5LD8CNR23TTBKK97YZLT&c=365799&tp_c=365799","firstResponseHeads":5,"firstResponseTails":5,"secondResponseHeads":5,"secondResponseTails":5,"totalHeads":10,"totalTails":10,"studentIndex":0,"studentTrueHypers":{"a":2,"b":8},"studentGuess":0.4,"delta":0.4,"bonus":0,"bonusSoFar":0,"totalExamples":20},{"rt":15243,"response":{"heads":"10","tails":"0"},"type":"response","condition":"seqFeedback","trueTheta":0.2,"classrooms":["A","B"],"studentTrueClassroom":"B","exampleSet":"first","trial_type":"survey-html-form","trial_index":16,"time_elapsed":442512,"internal_node_id":"0.0-15.0-0.0","params":{"nStudents":24,"maxFlips":30,"completionMinutes":45,"basePay":8,"maxBonus":9,"perTrialBonus":0.5,"perTrialBonusThreshold":0.05,"exampleCost":0.01},"classroomParams":{"A":{"a":1,"b":4},"B":{"a":4,"b":1},"C":{"a":2,"b":8},"D":{"a":8,"b":2}},"conditions":["nonSeqFull","nonSeqPartial","seqNoFeedback","seqFeedback"],"classroomPairings":[["A","B"],["C","D"]],"coinWeights":[0.2,0.5,0.8],"subjectId":"A1M3KGD9H8RTBH","assignmentId":"3TYCR1GOTD5LD8CNR23TTBKK97YZLT","hitId":"3JGHED38EDDK7DFM0KVY7GXU94LY7W","url":"https://gershmanlab.com/experiments/alicia/teaching/experiment/?hitId=3JGHED38EDDK7DFM0KVY7GXU94LY7W&workerId=A1M3KGD9H8RTBH&assignmentId=3TYCR1GOTD5LD8CNR23TTBKK97YZLT&a=ORYT9&tp_a=ORYT9&b=3TYCR1GOTD5LD8CNR23TTBKK97YZLT&tp_b=3TYCR1GOTD5LD8CNR23TTBKK97YZLT&c=365799&tp_c=365799","heads":10,"tails":0,"studentIndex":1,"studentTrueHypers":{"a":4,"b":1},"studentGuess":0.9333333333333333,"delta":0.7333333333333334,"totalExamples":10,"bonusSoFar":0},{"rt":9470,"response":{"heads":"0","tails":"10"},"type":"response","condition":"seqFeedback","trueTheta":0.2,"classrooms":["A","B"],"studentTrueClassroom":"B","exampleSet":"second","trial_type":"survey-html-form","trial_index":20,"time_elapsed":465398,"internal_node_id":"0.0-19.0-0.0","params":{"nStudents":24,"maxFlips":30,"completionMinutes":45,"basePay":8,"maxBonus":9,"perTrialBonus":0.5,"perTrialBonusThreshold":0.05,"exampleCost":0.01},"classroomParams":{"A":{"a":1,"b":4},"B":{"a":4,"b":1},"C":{"a":2,"b":8},"D":{"a":8,"b":2}},"conditions":["nonSeqFull","nonSeqPartial","seqNoFeedback","seqFeedback"],"classroomPairings":[["A","B"],["C","D"]],"coinWeights":[0.2,0.5,0.8],"subjectId":"A1M3KGD9H8RTBH","assignmentId":"3TYCR1GOTD5LD8CNR23TTBKK97YZLT","hitId":"3JGHED38EDDK7DFM0KVY7GXU94LY7W","url":"https://gershmanlab.com/experiments/alicia/teaching/experiment/?hitId=3JGHED38EDDK7DFM0KVY7GXU94LY7W&workerId=A1M3KGD9H8RTBH&assignmentId=3TYCR1GOTD5LD8CNR23TTBKK97YZLT&a=ORYT9&tp_a=ORYT9&b=3TYCR1GOTD5LD8CNR23TTBKK97YZLT&tp_b=3TYCR1GOTD5LD8CNR23TTBKK97YZLT&c=365799&tp_c=365799","firstResponseHeads":10,"firstResponseTails":0,"secondResponseHeads":0,"secondResponseTails":10,"totalHeads":10,"totalTails":10,"studentIndex":1,"studentTrueHypers":{"a":4,"b":1},"studentGuess":0.56,"delta":0.36000000000000004,"bonus":0,"bonusSoFar":0,"totalExamples":20},{"rt":7459,"response":{"heads":"5","tails":"5"},"type":"response","condition":"nonSeqFull","trueTheta":0.5,"classrooms":["A","B"],"studentTrueClassroom":"B","exampleSet":"first","trial_type":"survey-html-form","trial_index":26,"time_elapsed":492679,"internal_node_id":"0.0-25.0-0.0","params":{"nStudents":24,"maxFlips":30,"completionMinutes":45,"basePay":8,"maxBonus":9,"perTrialBonus":0.5,"perTrialBonusThreshold":0.05,"exampleCost":0.01},"classroomParams":{"A":{"a":1,"b":4},"B":{"a":4,"b":1},"C":{"a":2,"b":8},"D":{"a":8,"b":2}},"conditions":["nonSeqFull","nonSeqPartial","seqNoFeedback","seqFeedback"],"classroomPairings":[["A","B"],["C","D"]],"coinWeights":[0.2,0.5,0.8],"subjectId":"A1M3KGD9H8RTBH","assignmentId":"3TYCR1GOTD5LD8CNR23TTBKK97YZLT","hitId":"3JGHED38EDDK7DFM0KVY7GXU94LY7W","url":"https://gershmanlab.com/experiments/alicia/teaching/experiment/?hitId=3JGHED38EDDK7DFM0KVY7GXU94LY7W&workerId=A1M3KGD9H8RTBH&assignmentId=3TYCR1GOTD5LD8CNR23TTBKK97YZLT&a=ORYT9&tp_a=ORYT9&b=3TYCR1GOTD5LD8CNR23TTBKK97YZLT&tp_b=3TYCR1GOTD5LD8CNR23TTBKK97YZLT&c=365799&tp_c=365799","heads":5,"tails":5,"studentIndex":2,"studentTrueHypers":{"a":4,"b":1},"studentGuess":0.6,"delta":0.09999999999999998,"totalExamples":10,"bonus":0,"bonusSoFar":0},{"rt":10987,"response":{"heads":"5","tails":"5"},"type":"response","condition":"nonSeqPartial","trueTheta":0.5,"classrooms":["C","D"],"studentTrueClassroom":"C","exampleSet":"first","trial_type":"survey-html-form","trial_index":32,"time_elapsed":520604,"internal_node_id":"0.0-31.0-0.0","params":{"nStudents":24,"maxFlips":30,"completionMinutes":45,"basePay":8,"maxBonus":9,"perTrialBonus":0.5,"perTrialBonusThreshold":0.05,"exampleCost":0.01},"classroomParams":{"A":{"a":1,"b":4},"B":{"a":4,"b":1},"C":{"a":2,"b":8},"D":{"a":8,"b":2}},"conditions":["nonSeqFull","nonSeqPartial","seqNoFeedback","seqFeedback"],"classroomPairings":[["A","B"],["C","D"]],"coinWeights":[0.2,0.5,0.8],"subjectId":"A1M3KGD9H8RTBH","assignmentId":"3TYCR1GOTD5LD8CNR23TTBKK97YZLT","hitId":"3JGHED38EDDK7DFM0KVY7GXU94LY7W","url":"https://gershmanlab.com/experiments/alicia/teaching/experiment/?hitId=3JGHED38EDDK7DFM0KVY7GXU94LY7W&workerId=A1M3KGD9H8RTBH&assignmentId=3TYCR1GOTD5LD8CNR23TTBKK97YZLT&a=ORYT9&tp_a=ORYT9&b=3TYCR1GOTD5LD8CNR23TTBKK97YZLT&tp_b=3TYCR1GOTD5LD8CNR23TTBKK97YZLT&c=365799&tp_c=365799","heads":5,"tails":5,"studentIndex":3,"studentTrueHypers":{"a":2,"b":8},"studentGuess":0.35,"delta":0.15000000000000002,"totalExamples":10,"bonus":0,"bonusSoFar":0},{"rt":15255,"response":{"heads":"7","tails":"0"},"type":"response","condition":"seqFeedback","trueTheta":0.8,"classrooms":["C","D"],"studentTrueClassroom":"D","exampleSet":"first","trial_type":"survey-html-form","trial_index":38,"time_elapsed":550783,"internal_node_id":"0.0-37.0-0.0","params":{"nStudents":24,"maxFlips":30,"completionMinutes":45,"basePay":8,"maxBonus":9,"perTrialBonus":0.5,"perTrialBonusThreshold":0.05,"exampleCost":0.01},"classroomParams":{"A":{"a":1,"b":4},"B":{"a":4,"b":1},"C":{"a":2,"b":8},"D":{"a":8,"b":2}},"conditions":["nonSeqFull","nonSeqPartial","seqNoFeedback","seqFeedback"],"classroomPairings":[["A","B"],["C","D"]],"coinWeights":[0.2,0.5,0.8],"subjectId":"A1M3KGD9H8RTBH","assignmentId":"3TYCR1GOTD5LD8CNR23TTBKK97YZLT","hitId":"3JGHED38EDDK7DFM0KVY7GXU94LY7W","url":"https://gershmanlab.com/experiments/alicia/teaching/experiment/?hitId=3JGHED38EDDK7DFM0KVY7GXU94LY7W&workerId=A1M3KGD9H8RTBH&assignmentId=3TYCR1GOTD5LD8CNR23TTBKK97YZLT&a=ORYT9&tp_a=ORYT9&b=3TYCR1GOTD5LD8CNR23TTBKK97YZLT&tp_b=3TYCR1GOTD5LD8CNR23TTBKK97YZLT&c=365799&tp_c=365799","heads":7,"tails":0,"studentIndex":4,"studentTrueHypers":{"a":8,"b":2},"studentGuess":0.8823529411764706,"delta":0.08235294117647052,"totalExamples":7,"bonusSoFar":0},{"rt":12579,"response":{"heads":"6","tails":"0"},"type":"response","condition":"seqFeedback","trueTheta":0.8,"classrooms":["C","D"],"studentTrueClassroom":"D","exampleSet":"second","trial_type":"survey-html-form","trial_index":42,"time_elapsed":575928,"internal_node_id":"0.0-41.0-0.0","params":{"nStudents":24,"maxFlips":30,"completionMinutes":45,"basePay":8,"maxBonus":9,"perTrialBonus":0.5,"perTrialBonusThreshold":0.05,"exampleCost":0.01},"classroomParams":{"A":{"a":1,"b":4},"B":{"a":4,"b":1},"C":{"a":2,"b":8},"D":{"a":8,"b":2}},"conditions":["nonSeqFull","nonSeqPartial","seqNoFeedback","seqFeedback"],"classroomPairings":[["A","B"],["C","D"]],"coinWeights":[0.2,0.5,0.8],"subjectId":"A1M3KGD9H8RTBH","assignmentId":"3TYCR1GOTD5LD8CNR23TTBKK97YZLT","hitId":"3JGHED38EDDK7DFM0KVY7GXU94LY7W","url":"https://gershmanlab.com/experiments/alicia/teaching/experiment/?hitId=3JGHED38EDDK7DFM0KVY7GXU94LY7W&workerId=A1M3KGD9H8RTBH&assignmentId=3TYCR1GOTD5LD8CNR23TTBKK97YZLT&a=ORYT9&tp_a=ORYT9&b=3TYCR1GOTD5LD8CNR23TTBKK97YZLT&tp_b=3TYCR1GOTD5LD8CNR23TTBKK97YZLT&c=365799&tp_c=365799","firstResponseHeads":7,"firstResponseTails":0,"secondResponseHeads":6,"secondResponseTails":0,"totalHeads":13,"totalTails":0,"studentIndex":4,"studentTrueHypers":{"a":8,"b":2},"studentGuess":0.9130434782608695,"delta":0.11304347826086947,"bonus":0,"bonusSoFar":0,"totalExamples":13},{"rt":8298,"response":{"heads":"0","tails":"2"},"type":"response","condition":"seqFeedback","trueTheta":0.2,"classrooms":["C","D"],"studentTrueClassroom":"D","exampleSet":"first","trial_type":"survey-html-form","trial_index":48,"time_elapsed":603491,"internal_node_id":"0.0-47.0-0.0","params":{"nStudents":24,"maxFlips":30,"completionMinutes":45,"basePay":8,"maxBonus":9,"perTrialBonus":0.5,"perTrialBonusThreshold":0.05,"exampleCost":0.01},"classroomParams":{"A":{"a":1,"b":4},"B":{"a":4,"b":1},"C":{"a":2,"b":8},"D":{"a":8,"b":2}},"conditions":["nonSeqFull","nonSeqPartial","seqNoFeedback","seqFeedback"],"classroomPairings":[["A","B"],["C","D"]],"coinWeights":[0.2,0.5,0.8],"subjectId":"A1M3KGD9H8RTBH","assignmentId":"3TYCR1GOTD5LD8CNR23TTBKK97YZLT","hitId":"3JGHED38EDDK7DFM0KVY7GXU94LY7W","url":"https://gershmanlab.com/experiments/alicia/teaching/experiment/?hitId=3JGHED38EDDK7DFM0KVY7GXU94LY7W&workerId=A1M3KGD9H8RTBH&assignmentId=3TYCR1GOTD5LD8CNR23TTBKK97YZLT&a=ORYT9&tp_a=ORYT9&b=3TYCR1GOTD5LD8CNR23TTBKK97YZLT&tp_b=3TYCR1GOTD5LD8CNR23TTBKK97YZLT&c=365799&tp_c=365799","heads":0,"tails":2,"studentIndex":5,"studentTrueHypers":{"a":8,"b":2},"studentGuess":0.6666666666666666,"delta":0.4666666666666666,"totalExamples":2,"bonusSoFar":0},{"rt":8480,"response":{"heads":"0","tails":"4"},"type":"response","condition":"seqFeedback","trueTheta":0.2,"classrooms":["C","D"],"studentTrueClassroom":"D","exampleSet":"second","trial_type":"survey-html-form","trial_index":52,"time_elapsed":621317,"internal_node_id":"0.0-51.0-0.0","params":{"nStudents":24,"maxFlips":30,"completionMinutes":45,"basePay":8,"maxBonus":9,"perTrialBonus":0.5,"perTrialBonusThreshold":0.05,"exampleCost":0.01},"classroomParams":{"A":{"a":1,"b":4},"B":{"a":4,"b":1},"C":{"a":2,"b":8},"D":{"a":8,"b":2}},"conditions":["nonSeqFull","nonSeqPartial","seqNoFeedback","seqFeedback"],"classroomPairings":[["A","B"],["C","D"]],"coinWeights":[0.2,0.5,0.8],"subjectId":"A1M3KGD9H8RTBH","assignmentId":"3TYCR1GOTD5LD8CNR23TTBKK97YZLT","hitId":"3JGHED38EDDK7DFM0KVY7GXU94LY7W","url":"https://gershmanlab.com/experiments/alicia/teaching/experiment/?hitId=3JGHED38EDDK7DFM0KVY7GXU94LY7W&workerId=A1M3KGD9H8RTBH&assignmentId=3TYCR1GOTD5LD8CNR23TTBKK97YZLT&a=ORYT9&tp_a=ORYT9&b=3TYCR1GOTD5LD8CNR23TTBKK97YZLT&tp_b=3TYCR1GOTD5LD8CNR23TTBKK97YZLT&c=365799&tp_c=365799","firstResponseHeads":0,"firstResponseTails":2,"secondResponseHeads":0,"secondResponseTails":4,"totalHeads":0,"totalTails":6,"studentIndex":5,"studentTrueHypers":{"a":8,"b":2},"studentGuess":0.5,"delta":0.3,"bonus":0,"bonusSoFar":0,"totalExamples":6},{"rt":8658,"response":{"heads":"0","tails":"8"},"type":"response","condition":"seqNoFeedback","trueTheta":0.2,"classrooms":["C","D"],"studentTrueClassroom":"C","exampleSet":"first","trial_type":"survey-html-form","trial_index":58,"time_elapsed":646252,"internal_node_id":"0.0-57.0-0.0","params":{"nStudents":24,"maxFlips":30,"completionMinutes":45,"basePay":8,"maxBonus":9,"perTrialBonus":0.5,"perTrialBonusThreshold":0.05,"exampleCost":0.01},"classroomParams":{"A":{"a":1,"b":4},"B":{"a":4,"b":1},"C":{"a":2,"b":8},"D":{"a":8,"b":2}},"conditions":["nonSeqFull","nonSeqPartial","seqNoFeedback","seqFeedback"],"classroomPairings":[["A","B"],["C","D"]],"coinWeights":[0.2,0.5,0.8],"subjectId":"A1M3KGD9H8RTBH","assignmentId":"3TYCR1GOTD5LD8CNR23TTBKK97YZLT","hitId":"3JGHED38EDDK7DFM0KVY7GXU94LY7W","url":"https://gershmanlab.com/experiments/alicia/teaching/experiment/?hitId=3JGHED38EDDK7DFM0KVY7GXU94LY7W&workerId=A1M3KGD9H8RTBH&assignmentId=3TYCR1GOTD5LD8CNR23TTBKK97YZLT&a=ORYT9&tp_a=ORYT9&b=3TYCR1GOTD5LD8CNR23TTBKK97YZLT&tp_b=3TYCR1GOTD5LD8CNR23TTBKK97YZLT&c=365799&tp_c=365799","heads":0,"tails":8,"studentIndex":6,"studentTrueHypers":{"a":2,"b":8},"studentGuess":0.1111111111111111,"delta":0.0888888888888889,"totalExamples":8,"bonusSoFar":0},{"rt":7956,"response":{"heads":"0","tails":"8"},"type":"response","condition":"seqNoFeedback","trueTheta":0.2,"classrooms":["C","D"],"studentTrueClassroom":"C","exampleSet":"second","trial_type":"survey-html-form","trial_index":61,"time_elapsed":662245,"internal_node_id":"0.0-60.0-0.0","params":{"nStudents":24,"maxFlips":30,"completionMinutes":45,"basePay":8,"maxBonus":9,"perTrialBonus":0.5,"perTrialBonusThreshold":0.05,"exampleCost":0.01},"classroomParams":{"A":{"a":1,"b":4},"B":{"a":4,"b":1},"C":{"a":2,"b":8},"D":{"a":8,"b":2}},"conditions":["nonSeqFull","nonSeqPartial","seqNoFeedback","seqFeedback"],"classroomPairings":[["A","B"],["C","D"]],"coinWeights":[0.2,0.5,0.8],"subjectId":"A1M3KGD9H8RTBH","assignmentId":"3TYCR1GOTD5LD8CNR23TTBKK97YZLT","hitId":"3JGHED38EDDK7DFM0KVY7GXU94LY7W","url":"https://gershmanlab.com/experiments/alicia/teaching/experiment/?hitId=3JGHED38EDDK7DFM0KVY7GXU94LY7W&workerId=A1M3KGD9H8RTBH&assignmentId=3TYCR1GOTD5LD8CNR23TTBKK97YZLT&a=ORYT9&tp_a=ORYT9&b=3TYCR1GOTD5LD8CNR23TTBKK97YZLT&tp_b=3TYCR1GOTD5LD8CNR23TTBKK97YZLT&c=365799&tp_c=365799","firstResponseHeads":0,"firstResponseTails":8,"secondResponseHeads":0,"secondResponseTails":8,"totalHeads":0,"totalTails":16,"studentIndex":6,"studentTrueHypers":{"a":2,"b":8},"studentGuess":0.07692307692307693,"delta":0.12307692307692308,"bonus":0,"bonusSoFar":0,"totalExamples":16},{"rt":7596,"response":{"heads":"5","tails":"5"},"type":"response","condition":"seqFeedback","trueTheta":0.5,"classrooms":["C","D"],"studentTrueClassroom":"C","exampleSet":"first","trial_type":"survey-html-form","trial_index":67,"time_elapsed":686590,"internal_node_id":"0.0-66.0-0.0","params":{"nStudents":24,"maxFlips":30,"completionMinutes":45,"basePay":8,"maxBonus":9,"perTrialBonus":0.5,"perTrialBonusThreshold":0.05,"exampleCost":0.01},"classroomParams":{"A":{"a":1,"b":4},"B":{"a":4,"b":1},"C":{"a":2,"b":8},"D":{"a":8,"b":2}},"conditions":["nonSeqFull","nonSeqPartial","seqNoFeedback","seqFeedback"],"classroomPairings":[["A","B"],["C","D"]],"coinWeights":[0.2,0.5,0.8],"subjectId":"A1M3KGD9H8RTBH","assignmentId":"3TYCR1GOTD5LD8CNR23TTBKK97YZLT","hitId":"3JGHED38EDDK7DFM0KVY7GXU94LY7W","url":"https://gershmanlab.com/experiments/alicia/teaching/experiment/?hitId=3JGHED38EDDK7DFM0KVY7GXU94LY7W&workerId=A1M3KGD9H8RTBH&assignmentId=3TYCR1GOTD5LD8CNR23TTBKK97YZLT&a=ORYT9&tp_a=ORYT9&b=3TYCR1GOTD5LD8CNR23TTBKK97YZLT&tp_b=3TYCR1GOTD5LD8CNR23TTBKK97YZLT&c=365799&tp_c=365799","heads":5,"tails":5,"studentIndex":7,"studentTrueHypers":{"a":2,"b":8},"studentGuess":0.35,"delta":0.15000000000000002,"totalExamples":10,"bonusSoFar":0},{"rt":6346,"response":{"heads":"5","tails":"0"},"type":"response","condition":"seqFeedback","trueTheta":0.5,"classrooms":["C","D"],"studentTrueClassroom":"C","exampleSet":"second","trial_type":"survey-html-form","trial_index":71,"time_elapsed":702491,"internal_node_id":"0.0-70.0-0.0","params":{"nStudents":24,"maxFlips":30,"completionMinutes":45,"basePay":8,"maxBonus":9,"perTrialBonus":0.5,"perTrialBonusThreshold":0.05,"exampleCost":0.01},"classroomParams":{"A":{"a":1,"b":4},"B":{"a":4,"b":1},"C":{"a":2,"b":8},"D":{"a":8,"b":2}},"conditions":["nonSeqFull","nonSeqPartial","seqNoFeedback","seqFeedback"],"classroomPairings":[["A","B"],["C","D"]],"coinWeights":[0.2,0.5,0.8],"subjectId":"A1M3KGD9H8RTBH","assignmentId":"3TYCR1GOTD5LD8CNR23TTBKK97YZLT","hitId":"3JGHED38EDDK7DFM0KVY7GXU94LY7W","url":"https://gershmanlab.com/experiments/alicia/teaching/experiment/?hitId=3JGHED38EDDK7DFM0KVY7GXU94LY7W&workerId=A1M3KGD9H8RTBH&assignmentId=3TYCR1GOTD5LD8CNR23TTBKK97YZLT&a=ORYT9&tp_a=ORYT9&b=3TYCR1GOTD5LD8CNR23TTBKK97YZLT&tp_b=3TYCR1GOTD5LD8CNR23TTBKK97YZLT&c=365799&tp_c=365799","firstResponseHeads":5,"firstResponseTails":5,"secondResponseHeads":5,"secondResponseTails":0,"totalHeads":10,"totalTails":5,"studentIndex":7,"studentTrueHypers":{"a":2,"b":8},"studentGuess":0.48,"delta":0.020000000000000018,"bonus":0.35,"bonusSoFar":0.35,"totalExamples":15},{"rt":39156,"response":{"heads":"1","tails":"8"},"type":"response","condition":"nonSeqFull","trueTheta":0.2,"classrooms":["A","B"],"studentTrueClassroom":"A","exampleSet":"first","trial_type":"survey-html-form","trial_index":77,"time_elapsed":768444,"internal_node_id":"0.0-76.0-0.0","params":{"nStudents":24,"maxFlips":30,"completionMinutes":45,"basePay":8,"maxBonus":9,"perTrialBonus":0.5,"perTrialBonusThreshold":0.05,"exampleCost":0.01},"classroomParams":{"A":{"a":1,"b":4},"B":{"a":4,"b":1},"C":{"a":2,"b":8},"D":{"a":8,"b":2}},"conditions":["nonSeqFull","nonSeqPartial","seqNoFeedback","seqFeedback"],"classroomPairings":[["A","B"],["C","D"]],"coinWeights":[0.2,0.5,0.8],"subjectId":"A1M3KGD9H8RTBH","assignmentId":"3TYCR1GOTD5LD8CNR23TTBKK97YZLT","hitId":"3JGHED38EDDK7DFM0KVY7GXU94LY7W","url":"https://gershmanlab.com/experiments/alicia/teaching/experiment/?hitId=3JGHED38EDDK7DFM0KVY7GXU94LY7W&workerId=A1M3KGD9H8RTBH&assignmentId=3TYCR1GOTD5LD8CNR23TTBKK97YZLT&a=ORYT9&tp_a=ORYT9&b=3TYCR1GOTD5LD8CNR23TTBKK97YZLT&tp_b=3TYCR1GOTD5LD8CNR23TTBKK97YZLT&c=365799&tp_c=365799","heads":1,"tails":8,"studentIndex":8,"studentTrueHypers":{"a":1,"b":4},"studentGuess":0.14285714285714285,"delta":0.05714285714285716,"totalExamples":9,"bonus":0,"bonusSoFar":0.35},{"rt":41771,"response":{"heads":"8","tails":"0"},"type":"response","condition":"nonSeqFull","trueTheta":0.8,"classrooms":["C","D"],"studentTrueClassroom":"C","exampleSet":"first","trial_type":"survey-html-form","trial_index":83,"time_elapsed":827149,"internal_node_id":"0.0-82.0-0.0","params":{"nStudents":24,"maxFlips":30,"completionMinutes":45,"basePay":8,"maxBonus":9,"perTrialBonus":0.5,"perTrialBonusThreshold":0.05,"exampleCost":0.01},"classroomParams":{"A":{"a":1,"b":4},"B":{"a":4,"b":1},"C":{"a":2,"b":8},"D":{"a":8,"b":2}},"conditions":["nonSeqFull","nonSeqPartial","seqNoFeedback","seqFeedback"],"classroomPairings":[["A","B"],["C","D"]],"coinWeights":[0.2,0.5,0.8],"subjectId":"A1M3KGD9H8RTBH","assignmentId":"3TYCR1GOTD5LD8CNR23TTBKK97YZLT","hitId":"3JGHED38EDDK7DFM0KVY7GXU94LY7W","url":"https://gershmanlab.com/experiments/alicia/teaching/experiment/?hitId=3JGHED38EDDK7DFM0KVY7GXU94LY7W&workerId=A1M3KGD9H8RTBH&assignmentId=3TYCR1GOTD5LD8CNR23TTBKK97YZLT&a=ORYT9&tp_a=ORYT9&b=3TYCR1GOTD5LD8CNR23TTBKK97YZLT&tp_b=3TYCR1GOTD5LD8CNR23TTBKK97YZLT&c=365799&tp_c=365799","heads":8,"tails":0,"studentIndex":9,"studentTrueHypers":{"a":2,"b":8},"studentGuess":0.5555555555555556,"delta":0.24444444444444446,"totalExamples":8,"bonus":0,"bonusSoFar":0.35},{"rt":21400,"response":{"heads":"0","tails":"2"},"type":"response","condition":"nonSeqPartial","trueTheta":0.2,"classrooms":["A","B"],"studentTrueClassroom":"A","exampleSet":"first","trial_type":"survey-html-form","trial_index":89,"time_elapsed":864296,"internal_node_id":"0.0-88.0-0.0","params":{"nStudents":24,"maxFlips":30,"completionMinutes":45,"basePay":8,"maxBonus":9,"perTrialBonus":0.5,"perTrialBonusThreshold":0.05,"exampleCost":0.01},"classroomParams":{"A":{"a":1,"b":4},"B":{"a":4,"b":1},"C":{"a":2,"b":8},"D":{"a":8,"b":2}},"conditions":["nonSeqFull","nonSeqPartial","seqNoFeedback","seqFeedback"],"classroomPairings":[["A","B"],["C","D"]],"coinWeights":[0.2,0.5,0.8],"subjectId":"A1M3KGD9H8RTBH","assignmentId":"3TYCR1GOTD5LD8CNR23TTBKK97YZLT","hitId":"3JGHED38EDDK7DFM0KVY7GXU94LY7W","url":"https://gershmanlab.com/experiments/alicia/teaching/experiment/?hitId=3JGHED38EDDK7DFM0KVY7GXU94LY7W&workerId=A1M3KGD9H8RTBH&assignmentId=3TYCR1GOTD5LD8CNR23TTBKK97YZLT&a=ORYT9&tp_a=ORYT9&b=3TYCR1GOTD5LD8CNR23TTBKK97YZLT&tp_b=3TYCR1GOTD5LD8CNR23TTBKK97YZLT&c=365799&tp_c=365799","heads":0,"tails":2,"studentIndex":10,"studentTrueHypers":{"a":1,"b":4},"studentGuess":0.14285714285714285,"delta":0.05714285714285716,"totalExamples":2,"bonus":0,"bonusSoFar":0.35},{"rt":10567,"response":{"heads":"5","tails":"5"},"type":"response","condition":"seqNoFeedback","trueTheta":0.5,"classrooms":["A","B"],"studentTrueClassroom":"A","exampleSet":"first","trial_type":"survey-html-form","trial_index":95,"time_elapsed":890973,"internal_node_id":"0.0-94.0-0.0","params":{"nStudents":24,"maxFlips":30,"completionMinutes":45,"basePay":8,"maxBonus":9,"perTrialBonus":0.5,"perTrialBonusThreshold":0.05,"exampleCost":0.01},"classroomParams":{"A":{"a":1,"b":4},"B":{"a":4,"b":1},"C":{"a":2,"b":8},"D":{"a":8,"b":2}},"conditions":["nonSeqFull","nonSeqPartial","seqNoFeedback","seqFeedback"],"classroomPairings":[["A","B"],["C","D"]],"coinWeights":[0.2,0.5,0.8],"subjectId":"A1M3KGD9H8RTBH","assignmentId":"3TYCR1GOTD5LD8CNR23TTBKK97YZLT","hitId":"3JGHED38EDDK7DFM0KVY7GXU94LY7W","url":"https://gershmanlab.com/experiments/alicia/teaching/experiment/?hitId=3JGHED38EDDK7DFM0KVY7GXU94LY7W&workerId=A1M3KGD9H8RTBH&assignmentId=3TYCR1GOTD5LD8CNR23TTBKK97YZLT&a=ORYT9&tp_a=ORYT9&b=3TYCR1GOTD5LD8CNR23TTBKK97YZLT&tp_b=3TYCR1GOTD5LD8CNR23TTBKK97YZLT&c=365799&tp_c=365799","heads":5,"tails":5,"studentIndex":11,"studentTrueHypers":{"a":1,"b":4},"studentGuess":0.4,"delta":0.09999999999999998,"totalExamples":10,"bonusSoFar":0.35},{"rt":6734,"response":{"heads":"5","tails":"5"},"type":"response","condition":"seqNoFeedback","trueTheta":0.5,"classrooms":["A","B"],"studentTrueClassroom":"A","exampleSet":"second","trial_type":"survey-html-form","trial_index":98,"time_elapsed":902983,"internal_node_id":"0.0-97.0-0.0","params":{"nStudents":24,"maxFlips":30,"completionMinutes":45,"basePay":8,"maxBonus":9,"perTrialBonus":0.5,"perTrialBonusThreshold":0.05,"exampleCost":0.01},"classroomParams":{"A":{"a":1,"b":4},"B":{"a":4,"b":1},"C":{"a":2,"b":8},"D":{"a":8,"b":2}},"conditions":["nonSeqFull","nonSeqPartial","seqNoFeedback","seqFeedback"],"classroomPairings":[["A","B"],["C","D"]],"coinWeights":[0.2,0.5,0.8],"subjectId":"A1M3KGD9H8RTBH","assignmentId":"3TYCR1GOTD5LD8CNR23TTBKK97YZLT","hitId":"3JGHED38EDDK7DFM0KVY7GXU94LY7W","url":"https://gershmanlab.com/experiments/alicia/teaching/experiment/?hitId=3JGHED38EDDK7DFM0KVY7GXU94LY7W&workerId=A1M3KGD9H8RTBH&assignmentId=3TYCR1GOTD5LD8CNR23TTBKK97YZLT&a=ORYT9&tp_a=ORYT9&b=3TYCR1GOTD5LD8CNR23TTBKK97YZLT&tp_b=3TYCR1GOTD5LD8CNR23TTBKK97YZLT&c=365799&tp_c=365799","firstResponseHeads":5,"firstResponseTails":5,"secondResponseHeads":5,"secondResponseTails":5,"totalHeads":10,"totalTails":10,"studentIndex":11,"studentTrueHypers":{"a":1,"b":4},"studentGuess":0.44,"delta":0.06,"bonus":0,"bonusSoFar":0.35,"totalExamples":20},{"rt":14690,"response":{"heads":"10","tails":"10"},"type":"response","condition":"seqFeedback","trueTheta":0.5,"classrooms":["A","B"],"studentTrueClassroom":"B","exampleSet":"first","trial_type":"survey-html-form","trial_index":104,"time_elapsed":937202,"internal_node_id":"0.0-103.0-0.0","params":{"nStudents":24,"maxFlips":30,"completionMinutes":45,"basePay":8,"maxBonus":9,"perTrialBonus":0.5,"perTrialBonusThreshold":0.05,"exampleCost":0.01},"classroomParams":{"A":{"a":1,"b":4},"B":{"a":4,"b":1},"C":{"a":2,"b":8},"D":{"a":8,"b":2}},"conditions":["nonSeqFull","nonSeqPartial","seqNoFeedback","seqFeedback"],"classroomPairings":[["A","B"],["C","D"]],"coinWeights":[0.2,0.5,0.8],"subjectId":"A1M3KGD9H8RTBH","assignmentId":"3TYCR1GOTD5LD8CNR23TTBKK97YZLT","hitId":"3JGHED38EDDK7DFM0KVY7GXU94LY7W","url":"https://gershmanlab.com/experiments/alicia/teaching/experiment/?hitId=3JGHED38EDDK7DFM0KVY7GXU94LY7W&workerId=A1M3KGD9H8RTBH&assignmentId=3TYCR1GOTD5LD8CNR23TTBKK97YZLT&a=ORYT9&tp_a=ORYT9&b=3TYCR1GOTD5LD8CNR23TTBKK97YZLT&tp_b=3TYCR1GOTD5LD8CNR23TTBKK97YZLT&c=365799&tp_c=365799","heads":10,"tails":10,"studentIndex":12,"studentTrueHypers":{"a":4,"b":1},"studentGuess":0.56,"delta":0.06000000000000005,"totalExamples":20,"bonusSoFar":0.35},{"rt":8771,"response":{"heads":"10","tails":"10"},"type":"response","condition":"seqFeedback","trueTheta":0.5,"classrooms":["A","B"],"studentTrueClassroom":"B","exampleSet":"second","trial_type":"survey-html-form","trial_index":108,"time_elapsed":957637,"internal_node_id":"0.0-107.0-0.0","params":{"nStudents":24,"maxFlips":30,"completionMinutes":45,"basePay":8,"maxBonus":9,"perTrialBonus":0.5,"perTrialBonusThreshold":0.05,"exampleCost":0.01},"classroomParams":{"A":{"a":1,"b":4},"B":{"a":4,"b":1},"C":{"a":2,"b":8},"D":{"a":8,"b":2}},"conditions":["nonSeqFull","nonSeqPartial","seqNoFeedback","seqFeedback"],"classroomPairings":[["A","B"],["C","D"]],"coinWeights":[0.2,0.5,0.8],"subjectId":"A1M3KGD9H8RTBH","assignmentId":"3TYCR1GOTD5LD8CNR23TTBKK97YZLT","hitId":"3JGHED38EDDK7DFM0KVY7GXU94LY7W","url":"https://gershmanlab.com/experiments/alicia/teaching/experiment/?hitId=3JGHED38EDDK7DFM0KVY7GXU94LY7W&workerId=A1M3KGD9H8RTBH&assignmentId=3TYCR1GOTD5LD8CNR23TTBKK97YZLT&a=ORYT9&tp_a=ORYT9&b=3TYCR1GOTD5LD8CNR23TTBKK97YZLT&tp_b=3TYCR1GOTD5LD8CNR23TTBKK97YZLT&c=365799&tp_c=365799","firstResponseHeads":10,"firstResponseTails":10,"secondResponseHeads":10,"secondResponseTails":10,"totalHeads":20,"totalTails":20,"studentIndex":12,"studentTrueHypers":{"a":4,"b":1},"studentGuess":0.5333333333333333,"delta":0.033333333333333326,"bonus":0.1,"bonusSoFar":0.45,"totalExamples":40},{"rt":9035,"response":{"heads":"10","tails":"10"},"type":"response","condition":"seqNoFeedback","trueTheta":0.5,"classrooms":["C","D"],"studentTrueClassroom":"D","exampleSet":"first","trial_type":"survey-html-form","trial_index":114,"time_elapsed":986973,"internal_node_id":"0.0-113.0-0.0","params":{"nStudents":24,"maxFlips":30,"completionMinutes":45,"basePay":8,"maxBonus":9,"perTrialBonus":0.5,"perTrialBonusThreshold":0.05,"exampleCost":0.01},"classroomParams":{"A":{"a":1,"b":4},"B":{"a":4,"b":1},"C":{"a":2,"b":8},"D":{"a":8,"b":2}},"conditions":["nonSeqFull","nonSeqPartial","seqNoFeedback","seqFeedback"],"classroomPairings":[["A","B"],["C","D"]],"coinWeights":[0.2,0.5,0.8],"subjectId":"A1M3KGD9H8RTBH","assignmentId":"3TYCR1GOTD5LD8CNR23TTBKK97YZLT","hitId":"3JGHED38EDDK7DFM0KVY7GXU94LY7W","url":"https://gershmanlab.com/experiments/alicia/teaching/experiment/?hitId=3JGHED38EDDK7DFM0KVY7GXU94LY7W&workerId=A1M3KGD9H8RTBH&assignmentId=3TYCR1GOTD5LD8CNR23TTBKK97YZLT&a=ORYT9&tp_a=ORYT9&b=3TYCR1GOTD5LD8CNR23TTBKK97YZLT&tp_b=3TYCR1GOTD5LD8CNR23TTBKK97YZLT&c=365799&tp_c=365799","heads":10,"tails":10,"studentIndex":13,"studentTrueHypers":{"a":8,"b":2},"studentGuess":0.6,"delta":0.09999999999999998,"totalExamples":20,"bonusSoFar":0.45},{"rt":9111,"response":{"heads":"10","tails":"10"},"type":"response","condition":"seqNoFeedback","trueTheta":0.5,"classrooms":["C","D"],"studentTrueClassroom":"D","exampleSet":"second","trial_type":"survey-html-form","trial_index":117,"time_elapsed":1002117,"internal_node_id":"0.0-116.0-0.0","params":{"nStudents":24,"maxFlips":30,"completionMinutes":45,"basePay":8,"maxBonus":9,"perTrialBonus":0.5,"perTrialBonusThreshold":0.05,"exampleCost":0.01},"classroomParams":{"A":{"a":1,"b":4},"B":{"a":4,"b":1},"C":{"a":2,"b":8},"D":{"a":8,"b":2}},"conditions":["nonSeqFull","nonSeqPartial","seqNoFeedback","seqFeedback"],"classroomPairings":[["A","B"],["C","D"]],"coinWeights":[0.2,0.5,0.8],"subjectId":"A1M3KGD9H8RTBH","assignmentId":"3TYCR1GOTD5LD8CNR23TTBKK97YZLT","hitId":"3JGHED38EDDK7DFM0KVY7GXU94LY7W","url":"https://gershmanlab.com/experiments/alicia/teaching/experiment/?hitId=3JGHED38EDDK7DFM0KVY7GXU94LY7W&workerId=A1M3KGD9H8RTBH&assignmentId=3TYCR1GOTD5LD8CNR23TTBKK97YZLT&a=ORYT9&tp_a=ORYT9&b=3TYCR1GOTD5LD8CNR23TTBKK97YZLT&tp_b=3TYCR1GOTD5LD8CNR23TTBKK97YZLT&c=365799&tp_c=365799","firstResponseHeads":10,"firstResponseTails":10,"secondResponseHeads":10,"secondResponseTails":10,"totalHeads":20,"totalTails":20,"studentIndex":13,"studentTrueHypers":{"a":8,"b":2},"studentGuess":0.56,"delta":0.06000000000000005,"bonus":0,"bonusSoFar":0.45,"totalExamples":40},{"rt":48507,"response":{"heads":"0","tails":"20"},"type":"response","condition":"nonSeqFull","trueTheta":0.2,"classrooms":["C","D"],"studentTrueClassroom":"D","exampleSet":"first","trial_type":"survey-html-form","trial_index":123,"time_elapsed":1066965,"internal_node_id":"0.0-122.0-0.0","params":{"nStudents":24,"maxFlips":30,"completionMinutes":45,"basePay":8,"maxBonus":9,"perTrialBonus":0.5,"perTrialBonusThreshold":0.05,"exampleCost":0.01},"classroomParams":{"A":{"a":1,"b":4},"B":{"a":4,"b":1},"C":{"a":2,"b":8},"D":{"a":8,"b":2}},"conditions":["nonSeqFull","nonSeqPartial","seqNoFeedback","seqFeedback"],"classroomPairings":[["A","B"],["C","D"]],"coinWeights":[0.2,0.5,0.8],"subjectId":"A1M3KGD9H8RTBH","assignmentId":"3TYCR1GOTD5LD8CNR23TTBKK97YZLT","hitId":"3JGHED38EDDK7DFM0KVY7GXU94LY7W","url":"https://gershmanlab.com/experiments/alicia/teaching/experiment/?hitId=3JGHED38EDDK7DFM0KVY7GXU94LY7W&workerId=A1M3KGD9H8RTBH&assignmentId=3TYCR1GOTD5LD8CNR23TTBKK97YZLT&a=ORYT9&tp_a=ORYT9&b=3TYCR1GOTD5LD8CNR23TTBKK97YZLT&tp_b=3TYCR1GOTD5LD8CNR23TTBKK97YZLT&c=365799&tp_c=365799","heads":0,"tails":20,"studentIndex":14,"studentTrueHypers":{"a":8,"b":2},"studentGuess":0.26666666666666666,"delta":0.06666666666666665,"totalExamples":20,"bonus":0,"bonusSoFar":0.45},{"rt":11540,"response":{"heads":"0","tails":"20"},"type":"response","condition":"seqNoFeedback","trueTheta":0.2,"classrooms":["A","B"],"studentTrueClassroom":"B","exampleSet":"first","trial_type":"survey-html-form","trial_index":129,"time_elapsed":1096277,"internal_node_id":"0.0-128.0-0.0","params":{"nStudents":24,"maxFlips":30,"completionMinutes":45,"basePay":8,"maxBonus":9,"perTrialBonus":0.5,"perTrialBonusThreshold":0.05,"exampleCost":0.01},"classroomParams":{"A":{"a":1,"b":4},"B":{"a":4,"b":1},"C":{"a":2,"b":8},"D":{"a":8,"b":2}},"conditions":["nonSeqFull","nonSeqPartial","seqNoFeedback","seqFeedback"],"classroomPairings":[["A","B"],["C","D"]],"coinWeights":[0.2,0.5,0.8],"subjectId":"A1M3KGD9H8RTBH","assignmentId":"3TYCR1GOTD5LD8CNR23TTBKK97YZLT","hitId":"3JGHED38EDDK7DFM0KVY7GXU94LY7W","url":"https://gershmanlab.com/experiments/alicia/teaching/experiment/?hitId=3JGHED38EDDK7DFM0KVY7GXU94LY7W&workerId=A1M3KGD9H8RTBH&assignmentId=3TYCR1GOTD5LD8CNR23TTBKK97YZLT&a=ORYT9&tp_a=ORYT9&b=3TYCR1GOTD5LD8CNR23TTBKK97YZLT&tp_b=3TYCR1GOTD5LD8CNR23TTBKK97YZLT&c=365799&tp_c=365799","heads":0,"tails":20,"studentIndex":15,"studentTrueHypers":{"a":4,"b":1},"studentGuess":0.16,"delta":0.04000000000000001,"totalExamples":20,"bonusSoFar":0.45},{"rt":13437,"response":{"heads":"0","tails":"20"},"type":"response","condition":"seqNoFeedback","trueTheta":0.2,"classrooms":["A","B"],"studentTrueClassroom":"B","exampleSet":"second","trial_type":"survey-html-form","trial_index":132,"time_elapsed":1116238,"internal_node_id":"0.0-131.0-0.0","params":{"nStudents":24,"maxFlips":30,"completionMinutes":45,"basePay":8,"maxBonus":9,"perTrialBonus":0.5,"perTrialBonusThreshold":0.05,"exampleCost":0.01},"classroomParams":{"A":{"a":1,"b":4},"B":{"a":4,"b":1},"C":{"a":2,"b":8},"D":{"a":8,"b":2}},"conditions":["nonSeqFull","nonSeqPartial","seqNoFeedback","seqFeedback"],"classroomPairings":[["A","B"],["C","D"]],"coinWeights":[0.2,0.5,0.8],"subjectId":"A1M3KGD9H8RTBH","assignmentId":"3TYCR1GOTD5LD8CNR23TTBKK97YZLT","hitId":"3JGHED38EDDK7DFM0KVY7GXU94LY7W","url":"https://gershmanlab.com/experiments/alicia/teaching/experiment/?hitId=3JGHED38EDDK7DFM0KVY7GXU94LY7W&workerId=A1M3KGD9H8RTBH&assignmentId=3TYCR1GOTD5LD8CNR23TTBKK97YZLT&a=ORYT9&tp_a=ORYT9&b=3TYCR1GOTD5LD8CNR23TTBKK97YZLT&tp_b=3TYCR1GOTD5LD8CNR23TTBKK97YZLT&c=365799&tp_c=365799","firstResponseHeads":0,"firstResponseTails":20,"secondResponseHeads":0,"secondResponseTails":20,"totalHeads":0,"totalTails":40,"studentIndex":15,"studentTrueHypers":{"a":4,"b":1},"studentGuess":0.08888888888888889,"delta":0.11111111111111112,"bonus":0,"bonusSoFar":0.45,"totalExamples":40},{"rt":55663,"response":{"heads":"12","tails":"18"},"type":"response","condition":"nonSeqFull","trueTheta":0.5,"classrooms":["C","D"],"studentTrueClassroom":"D","exampleSet":"first","trial_type":"survey-html-form","trial_index":138,"time_elapsed":1186011,"internal_node_id":"0.0-137.0-0.0","params":{"nStudents":24,"maxFlips":30,"completionMinutes":45,"basePay":8,"maxBonus":9,"perTrialBonus":0.5,"perTrialBonusThreshold":0.05,"exampleCost":0.01},"classroomParams":{"A":{"a":1,"b":4},"B":{"a":4,"b":1},"C":{"a":2,"b":8},"D":{"a":8,"b":2}},"conditions":["nonSeqFull","nonSeqPartial","seqNoFeedback","seqFeedback"],"classroomPairings":[["A","B"],["C","D"]],"coinWeights":[0.2,0.5,0.8],"subjectId":"A1M3KGD9H8RTBH","assignmentId":"3TYCR1GOTD5LD8CNR23TTBKK97YZLT","hitId":"3JGHED38EDDK7DFM0KVY7GXU94LY7W","url":"https://gershmanlab.com/experiments/alicia/teaching/experiment/?hitId=3JGHED38EDDK7DFM0KVY7GXU94LY7W&workerId=A1M3KGD9H8RTBH&assignmentId=3TYCR1GOTD5LD8CNR23TTBKK97YZLT&a=ORYT9&tp_a=ORYT9&b=3TYCR1GOTD5LD8CNR23TTBKK97YZLT&tp_b=3TYCR1GOTD5LD8CNR23TTBKK97YZLT&c=365799&tp_c=365799","heads":12,"tails":18,"studentIndex":16,"studentTrueHypers":{"a":8,"b":2},"studentGuess":0.5,"delta":0,"totalExamples":30,"bonus":0.2,"bonusSoFar":0.65},{"rt":76692,"response":{"heads":"25","tails":"5"},"type":"response","condition":"nonSeqFull","trueTheta":0.8,"classrooms":["A","B"],"studentTrueClassroom":"A","exampleSet":"first","trial_type":"survey-html-form","trial_index":144,"time_elapsed":1283813,"internal_node_id":"0.0-143.0-0.0","params":{"nStudents":24,"maxFlips":30,"completionMinutes":45,"basePay":8,"maxBonus":9,"perTrialBonus":0.5,"perTrialBonusThreshold":0.05,"exampleCost":0.01},"classroomParams":{"A":{"a":1,"b":4},"B":{"a":4,"b":1},"C":{"a":2,"b":8},"D":{"a":8,"b":2}},"conditions":["nonSeqFull","nonSeqPartial","seqNoFeedback","seqFeedback"],"classroomPairings":[["A","B"],["C","D"]],"coinWeights":[0.2,0.5,0.8],"subjectId":"A1M3KGD9H8RTBH","assignmentId":"3TYCR1GOTD5LD8CNR23TTBKK97YZLT","hitId":"3JGHED38EDDK7DFM0KVY7GXU94LY7W","url":"https://gershmanlab.com/experiments/alicia/teaching/experiment/?hitId=3JGHED38EDDK7DFM0KVY7GXU94LY7W&workerId=A1M3KGD9H8RTBH&assignmentId=3TYCR1GOTD5LD8CNR23TTBKK97YZLT&a=ORYT9&tp_a=ORYT9&b=3TYCR1GOTD5LD8CNR23TTBKK97YZLT&tp_b=3TYCR1GOTD5LD8CNR23TTBKK97YZLT&c=365799&tp_c=365799","heads":25,"tails":5,"studentIndex":17,"studentTrueHypers":{"a":1,"b":4},"studentGuess":0.7428571428571429,"delta":0.05714285714285716,"totalExamples":30,"bonus":0,"bonusSoFar":0.65},{"rt":10522,"response":{"heads":"0","tails":"2"},"type":"response","condition":"nonSeqPartial","trueTheta":0.2,"classrooms":["C","D"],"studentTrueClassroom":"D","exampleSet":"first","trial_type":"survey-html-form","trial_index":150,"time_elapsed":1310589,"internal_node_id":"0.0-149.0-0.0","params":{"nStudents":24,"maxFlips":30,"completionMinutes":45,"basePay":8,"maxBonus":9,"perTrialBonus":0.5,"perTrialBonusThreshold":0.05,"exampleCost":0.01},"classroomParams":{"A":{"a":1,"b":4},"B":{"a":4,"b":1},"C":{"a":2,"b":8},"D":{"a":8,"b":2}},"conditions":["nonSeqFull","nonSeqPartial","seqNoFeedback","seqFeedback"],"classroomPairings":[["A","B"],["C","D"]],"coinWeights":[0.2,0.5,0.8],"subjectId":"A1M3KGD9H8RTBH","assignmentId":"3TYCR1GOTD5LD8CNR23TTBKK97YZLT","hitId":"3JGHED38EDDK7DFM0KVY7GXU94LY7W","url":"https://gershmanlab.com/experiments/alicia/teaching/experiment/?hitId=3JGHED38EDDK7DFM0KVY7GXU94LY7W&workerId=A1M3KGD9H8RTBH&assignmentId=3TYCR1GOTD5LD8CNR23TTBKK97YZLT&a=ORYT9&tp_a=ORYT9&b=3TYCR1GOTD5LD8CNR23TTBKK97YZLT&tp_b=3TYCR1GOTD5LD8CNR23TTBKK97YZLT&c=365799&tp_c=365799","heads":0,"tails":2,"studentIndex":18,"studentTrueHypers":{"a":8,"b":2},"studentGuess":0.6666666666666666,"delta":0.4666666666666666,"totalExamples":2,"bonus":0,"bonusSoFar":0.65},{"rt":9280,"response":{"heads":"5","tails":"5"},"type":"response","condition":"nonSeqPartial","trueTheta":0.5,"classrooms":["A","B"],"studentTrueClassroom":"B","exampleSet":"first","trial_type":"survey-html-form","trial_index":156,"time_elapsed":1337101,"internal_node_id":"0.0-155.0-0.0","params":{"nStudents":24,"maxFlips":30,"completionMinutes":45,"basePay":8,"maxBonus":9,"perTrialBonus":0.5,"perTrialBonusThreshold":0.05,"exampleCost":0.01},"classroomParams":{"A":{"a":1,"b":4},"B":{"a":4,"b":1},"C":{"a":2,"b":8},"D":{"a":8,"b":2}},"conditions":["nonSeqFull","nonSeqPartial","seqNoFeedback","seqFeedback"],"classroomPairings":[["A","B"],["C","D"]],"coinWeights":[0.2,0.5,0.8],"subjectId":"A1M3KGD9H8RTBH","assignmentId":"3TYCR1GOTD5LD8CNR23TTBKK97YZLT","hitId":"3JGHED38EDDK7DFM0KVY7GXU94LY7W","url":"https://gershmanlab.com/experiments/alicia/teaching/experiment/?hitId=3JGHED38EDDK7DFM0KVY7GXU94LY7W&workerId=A1M3KGD9H8RTBH&assignmentId=3TYCR1GOTD5LD8CNR23TTBKK97YZLT&a=ORYT9&tp_a=ORYT9&b=3TYCR1GOTD5LD8CNR23TTBKK97YZLT&tp_b=3TYCR1GOTD5LD8CNR23TTBKK97YZLT&c=365799&tp_c=365799","heads":5,"tails":5,"studentIndex":19,"studentTrueHypers":{"a":4,"b":1},"studentGuess":0.6,"delta":0.09999999999999998,"totalExamples":10,"bonus":0,"bonusSoFar":0.65},{"rt":20094,"response":{"heads":"2","tails":"1"},"type":"response","condition":"nonSeqPartial","trueTheta":0.8,"classrooms":["C","D"],"studentTrueClassroom":"D","exampleSet":"first","trial_type":"survey-html-form","trial_index":162,"time_elapsed":1369924,"internal_node_id":"0.0-161.0-0.0","params":{"nStudents":24,"maxFlips":30,"completionMinutes":45,"basePay":8,"maxBonus":9,"perTrialBonus":0.5,"perTrialBonusThreshold":0.05,"exampleCost":0.01},"classroomParams":{"A":{"a":1,"b":4},"B":{"a":4,"b":1},"C":{"a":2,"b":8},"D":{"a":8,"b":2}},"conditions":["nonSeqFull","nonSeqPartial","seqNoFeedback","seqFeedback"],"classroomPairings":[["A","B"],["C","D"]],"coinWeights":[0.2,0.5,0.8],"subjectId":"A1M3KGD9H8RTBH","assignmentId":"3TYCR1GOTD5LD8CNR23TTBKK97YZLT","hitId":"3JGHED38EDDK7DFM0KVY7GXU94LY7W","url":"https://gershmanlab.com/experiments/alicia/teaching/experiment/?hitId=3JGHED38EDDK7DFM0KVY7GXU94LY7W&workerId=A1M3KGD9H8RTBH&assignmentId=3TYCR1GOTD5LD8CNR23TTBKK97YZLT&a=ORYT9&tp_a=ORYT9&b=3TYCR1GOTD5LD8CNR23TTBKK97YZLT&tp_b=3TYCR1GOTD5LD8CNR23TTBKK97YZLT&c=365799&tp_c=365799","heads":2,"tails":1,"studentIndex":20,"studentTrueHypers":{"a":8,"b":2},"studentGuess":0.7692307692307693,"delta":0.03076923076923077,"totalExamples":3,"bonus":0.47,"bonusSoFar":1.12},{"rt":10629,"response":{"heads":"2","tails":"1"},"type":"response","condition":"seqNoFeedback","trueTheta":0.8,"classrooms":["A","B"],"studentTrueClassroom":"B","exampleSet":"first","trial_type":"survey-html-form","trial_index":168,"time_elapsed":1401829,"internal_node_id":"0.0-167.0-0.0","params":{"nStudents":24,"maxFlips":30,"completionMinutes":45,"basePay":8,"maxBonus":9,"perTrialBonus":0.5,"perTrialBonusThreshold":0.05,"exampleCost":0.01},"classroomParams":{"A":{"a":1,"b":4},"B":{"a":4,"b":1},"C":{"a":2,"b":8},"D":{"a":8,"b":2}},"conditions":["nonSeqFull","nonSeqPartial","seqNoFeedback","seqFeedback"],"classroomPairings":[["A","B"],["C","D"]],"coinWeights":[0.2,0.5,0.8],"subjectId":"A1M3KGD9H8RTBH","assignmentId":"3TYCR1GOTD5LD8CNR23TTBKK97YZLT","hitId":"3JGHED38EDDK7DFM0KVY7GXU94LY7W","url":"https://gershmanlab.com/experiments/alicia/teaching/experiment/?hitId=3JGHED38EDDK7DFM0KVY7GXU94LY7W&workerId=A1M3KGD9H8RTBH&assignmentId=3TYCR1GOTD5LD8CNR23TTBKK97YZLT&a=ORYT9&tp_a=ORYT9&b=3TYCR1GOTD5LD8CNR23TTBKK97YZLT&tp_b=3TYCR1GOTD5LD8CNR23TTBKK97YZLT&c=365799&tp_c=365799","heads":2,"tails":1,"studentIndex":21,"studentTrueHypers":{"a":4,"b":1},"studentGuess":0.75,"delta":0.050000000000000044,"totalExamples":3,"bonusSoFar":1.12},{"rt":7402,"response":{"heads":"2","tails":"1"},"type":"response","condition":"seqNoFeedback","trueTheta":0.8,"classrooms":["A","B"],"studentTrueClassroom":"B","exampleSet":"second","trial_type":"survey-html-form","trial_index":171,"time_elapsed":1414997,"internal_node_id":"0.0-170.0-0.0","params":{"nStudents":24,"maxFlips":30,"completionMinutes":45,"basePay":8,"maxBonus":9,"perTrialBonus":0.5,"perTrialBonusThreshold":0.05,"exampleCost":0.01},"classroomParams":{"A":{"a":1,"b":4},"B":{"a":4,"b":1},"C":{"a":2,"b":8},"D":{"a":8,"b":2}},"conditions":["nonSeqFull","nonSeqPartial","seqNoFeedback","seqFeedback"],"classroomPairings":[["A","B"],["C","D"]],"coinWeights":[0.2,0.5,0.8],"subjectId":"A1M3KGD9H8RTBH","assignmentId":"3TYCR1GOTD5LD8CNR23TTBKK97YZLT","hitId":"3JGHED38EDDK7DFM0KVY7GXU94LY7W","url":"https://gershmanlab.com/experiments/alicia/teaching/experiment/?hitId=3JGHED38EDDK7DFM0KVY7GXU94LY7W&workerId=A1M3KGD9H8RTBH&assignmentId=3TYCR1GOTD5LD8CNR23TTBKK97YZLT&a=ORYT9&tp_a=ORYT9&b=3TYCR1GOTD5LD8CNR23TTBKK97YZLT&tp_b=3TYCR1GOTD5LD8CNR23TTBKK97YZLT&c=365799&tp_c=365799","firstResponseHeads":2,"firstResponseTails":1,"secondResponseHeads":2,"secondResponseTails":1,"totalHeads":4,"totalTails":2,"studentIndex":21,"studentTrueHypers":{"a":4,"b":1},"studentGuess":0.7272727272727273,"delta":0.07272727272727275,"bonus":0,"bonusSoFar":1.12,"totalExamples":6},{"rt":10116,"response":{"heads":"3","tails":"1"},"type":"response","condition":"nonSeqPartial","trueTheta":0.8,"classrooms":["A","B"],"studentTrueClassroom":"A","exampleSet":"first","trial_type":"survey-html-form","trial_index":177,"time_elapsed":1442676,"internal_node_id":"0.0-176.0-0.0","params":{"nStudents":24,"maxFlips":30,"completionMinutes":45,"basePay":8,"maxBonus":9,"perTrialBonus":0.5,"perTrialBonusThreshold":0.05,"exampleCost":0.01},"classroomParams":{"A":{"a":1,"b":4},"B":{"a":4,"b":1},"C":{"a":2,"b":8},"D":{"a":8,"b":2}},"conditions":["nonSeqFull","nonSeqPartial","seqNoFeedback","seqFeedback"],"classroomPairings":[["A","B"],["C","D"]],"coinWeights":[0.2,0.5,0.8],"subjectId":"A1M3KGD9H8RTBH","assignmentId":"3TYCR1GOTD5LD8CNR23TTBKK97YZLT","hitId":"3JGHED38EDDK7DFM0KVY7GXU94LY7W","url":"https://gershmanlab.com/experiments/alicia/teaching/experiment/?hitId=3JGHED38EDDK7DFM0KVY7GXU94LY7W&workerId=A1M3KGD9H8RTBH&assignmentId=3TYCR1GOTD5LD8CNR23TTBKK97YZLT&a=ORYT9&tp_a=ORYT9&b=3TYCR1GOTD5LD8CNR23TTBKK97YZLT&tp_b=3TYCR1GOTD5LD8CNR23TTBKK97YZLT&c=365799&tp_c=365799","heads":3,"tails":1,"studentIndex":22,"studentTrueHypers":{"a":1,"b":4},"studentGuess":0.4444444444444444,"delta":0.3555555555555556,"totalExamples":4,"bonus":0,"bonusSoFar":1.12},{"rt":9394,"response":{"heads":"2","tails":"1"},"type":"response","condition":"seqFeedback","trueTheta":0.8,"classrooms":["A","B"],"studentTrueClassroom":"B","exampleSet":"first","trial_type":"survey-html-form","trial_index":183,"time_elapsed":1471788,"internal_node_id":"0.0-182.0-0.0","params":{"nStudents":24,"maxFlips":30,"completionMinutes":45,"basePay":8,"maxBonus":9,"perTrialBonus":0.5,"perTrialBonusThreshold":0.05,"exampleCost":0.01},"classroomParams":{"A":{"a":1,"b":4},"B":{"a":4,"b":1},"C":{"a":2,"b":8},"D":{"a":8,"b":2}},"conditions":["nonSeqFull","nonSeqPartial","seqNoFeedback","seqFeedback"],"classroomPairings":[["A","B"],["C","D"]],"coinWeights":[0.2,0.5,0.8],"subjectId":"A1M3KGD9H8RTBH","assignmentId":"3TYCR1GOTD5LD8CNR23TTBKK97YZLT","hitId":"3JGHED38EDDK7DFM0KVY7GXU94LY7W","url":"https://gershmanlab.com/experiments/alicia/teaching/experiment/?hitId=3JGHED38EDDK7DFM0KVY7GXU94LY7W&workerId=A1M3KGD9H8RTBH&assignmentId=3TYCR1GOTD5LD8CNR23TTBKK97YZLT&a=ORYT9&tp_a=ORYT9&b=3TYCR1GOTD5LD8CNR23TTBKK97YZLT&tp_b=3TYCR1GOTD5LD8CNR23TTBKK97YZLT&c=365799&tp_c=365799","heads":2,"tails":1,"studentIndex":23,"studentTrueHypers":{"a":4,"b":1},"studentGuess":0.75,"delta":0.050000000000000044,"totalExamples":3,"bonusSoFar":1.12},{"rt":8749,"response":{"heads":"4","tails":"1"},"type":"response","condition":"seqFeedback","trueTheta":0.8,"classrooms":["A","B"],"studentTrueClassroom":"B","exampleSet":"second","trial_type":"survey-html-form","trial_index":187,"time_elapsed":1492115,"internal_node_id":"0.0-186.0-0.0","params":{"nStudents":24,"maxFlips":30,"completionMinutes":45,"basePay":8,"maxBonus":9,"perTrialBonus":0.5,"perTrialBonusThreshold":0.05,"exampleCost":0.01},"classroomParams":{"A":{"a":1,"b":4},"B":{"a":4,"b":1},"C":{"a":2,"b":8},"D":{"a":8,"b":2}},"conditions":["nonSeqFull","nonSeqPartial","seqNoFeedback","seqFeedback"],"classroomPairings":[["A","B"],["C","D"]],"coinWeights":[0.2,0.5,0.8],"subjectId":"A1M3KGD9H8RTBH","assignmentId":"3TYCR1GOTD5LD8CNR23TTBKK97YZLT","hitId":"3JGHED38EDDK7DFM0KVY7GXU94LY7W","url":"https://gershmanlab.com/experiments/alicia/teaching/experiment/?hitId=3JGHED38EDDK7DFM0KVY7GXU94LY7W&workerId=A1M3KGD9H8RTBH&assignmentId=3TYCR1GOTD5LD8CNR23TTBKK97YZLT&a=ORYT9&tp_a=ORYT9&b=3TYCR1GOTD5LD8CNR23TTBKK97YZLT&tp_b=3TYCR1GOTD5LD8CNR23TTBKK97YZLT&c=365799&tp_c=365799","firstResponseHeads":2,"firstResponseTails":1,"secondResponseHeads":4,"secondResponseTails":1,"totalHeads":6,"totalTails":2,"studentIndex":23,"studentTrueHypers":{"a":4,"b":1},"studentGuess":0.7692307692307693,"delta":0.03076923076923077,"bonus":0.42,"bonusSoFar":1.54,"totalExamples":8},{"rt":27911,"response":{"gender":"female","age":"52","understood":"yes","comments":"no comments"},"type":"response","trial_type":"survey-html-form","trial_index":191,"time_elapsed":1533732,"internal_node_id":"0.0-191.0","params":{"nStudents":24,"maxFlips":30,"completionMinutes":45,"basePay":8,"maxBonus":9,"perTrialBonus":0.5,"perTrialBonusThreshold":0.05,"exampleCost":0.01},"classroomParams":{"A":{"a":1,"b":4},"B":{"a":4,"b":1},"C":{"a":2,"b":8},"D":{"a":8,"b":2}},"conditions":["nonSeqFull","nonSeqPartial","seqNoFeedback","seqFeedback"],"classroomPairings":[["A","B"],["C","D"]],"coinWeights":[0.2,0.5,0.8],"subjectId":"A1M3KGD9H8RTBH","assignmentId":"3TYCR1GOTD5LD8CNR23TTBKK97YZLT","hitId":"3JGHED38EDDK7DFM0KVY7GXU94LY7W","url":"https://gershmanlab.com/experiments/alicia/teaching/experiment/?hitId=3JGHED38EDDK7DFM0KVY7GXU94LY7W&workerId=A1M3KGD9H8RTBH&assignmentId=3TYCR1GOTD5LD8CNR23TTBKK97YZLT&a=ORYT9&tp_a=ORYT9&b=3TYCR1GOTD5LD8CNR23TTBKK97YZLT&tp_b=3TYCR1GOTD5LD8CNR23TTBKK97YZLT&c=365799&tp_c=365799","totalBonus":1.54}]