[{"rt":68099,"response":{"heads":"5","tails":"5"},"type":"response","condition":"nonSeqPartial","trueTheta":0.8,"classrooms":["C","D"],"studentTrueClassroom":"D","exampleSet":"first","trial_type":"survey-html-form","trial_index":7,"time_elapsed":391387,"internal_node_id":"0.0-6.0-0.0","params":{"nStudents":24,"maxFlips":30,"completionMinutes":45,"basePay":8,"maxBonus":9,"perTrialBonus":0.5,"perTrialBonusThreshold":0.05,"exampleCost":0.01},"classroomParams":{"A":{"a":1,"b":4},"B":{"a":4,"b":1},"C":{"a":2,"b":8},"D":{"a":8,"b":2}},"conditions":["nonSeqFull","nonSeqPartial","seqNoFeedback","seqFeedback"],"classroomPairings":[["A","B"],["C","D"]],"coinWeights":[0.2,0.5,0.8],"subjectId":"A1MKCTVKE7J0ZP","assignmentId":"3KV0LJBBH37WHZ8HHXAV7LXA0V5RMU","hitId":"3AQN9REUTF20OMGWRXYK787QVFOYDP","url":"https://gershmanlab.com/experiments/alicia/teaching/experiment/?hitId=3AQN9REUTF20OMGWRXYK787QVFOYDP&workerId=A1MKCTVKE7J0ZP&assignmentId=3KV0LJBBH37WHZ8HHXAV7LXA0V5RMU&a=BLVK9&tp_a=BLVK9&b=3KV0LJBBH37WHZ8HHXAV7LXA0V5RMU&tp_b=3KV0LJBBH37WHZ8HHXAV7LXA0V5RMU&c=365799&tp_c=365799","heads":5,"tails":5,"studentIndex":0,"studentTrueHypers":{"a":8,"b":2},"studentGuess":0.65,"delta":0.15000000000000002,"totalExamples":10,"bonus":0,"bonusSoFar":0},{"rt":12067,"response":{"heads":"2","tails":"8"},"type":"response","condition":"nonSeqFull","trueTheta":0.2,"classrooms":["C","D"],"studentTrueClassroom":"C","exampleSet":"first","trial_type":"survey-html-form","trial_index":13,"time_elapsed":420798,"internal_node_id":"0.0-12.0-0.0","params":{"nStudents":24,"maxFlips":30,"completionMinutes":45,"basePay":8,"maxBonus":9,"perTrialBonus":0.5,"perTrialBonusThreshold":0.05,"exampleCost":0.01},"classroomParams":{"A":{"a":1,"b":4},"B":{"a":4,"b":1},"C":{"a":2,"b":8},"D":{"a":8,"b":2}},"conditions":["nonSeqFull","nonSeqPartial","seqNoFeedback","seqFeedback"],"classroomPairings":[["A","B"],["C","D"]],"coinWeights":[0.2,0.5,0.8],"subjectId":"A1MKCTVKE7J0ZP","assignmentId":"3KV0LJBBH37WHZ8HHXAV7LXA0V5RMU","hitId":"3AQN9REUTF20OMGWRXYK787QVFOYDP","url":"https://gershmanlab.com/experiments/alicia/teaching/experiment/?hitId=3AQN9REUTF20OMGWRXYK787QVFOYDP&workerId=A1MKCTVKE7J0ZP&assignmentId=3KV0LJBBH37WHZ8HHXAV7LXA0V5RMU&a=BLVK9&tp_a=BLVK9&b=3KV0LJBBH37WHZ8HHXAV7LXA0V5RMU&tp_b=3KV0LJBBH37WHZ8HHXAV7LXA0V5RMU&c=365799&tp_c=365799","heads":2,"tails":8,"studentIndex":1,"studentTrueHypers":{"a":2,"b":8},"studentGuess":0.2,"delta":0,"totalExamples":10,"bonus":0.4,"bonusSoFar":0.4},{"rt":11222,"response":{"heads":"5","tails":"2"},"type":"response","condition":"seqFeedback","trueTheta":0.8,"classrooms":["A","B"],"studentTrueClassroom":"A","exampleSet":"first","trial_type":"survey-html-form","trial_index":19,"time_elapsed":457398,"internal_node_id":"0.0-18.0-0.0","params":{"nStudents":24,"maxFlips":30,"completionMinutes":45,"basePay":8,"maxBonus":9,"perTrialBonus":0.5,"perTrialBonusThreshold":0.05,"exampleCost":0.01},"classroomParams":{"A":{"a":1,"b":4},"B":{"a":4,"b":1},"C":{"a":2,"b":8},"D":{"a":8,"b":2}},"conditions":["nonSeqFull","nonSeqPartial","seqNoFeedback","seqFeedback"],"classroomPairings":[["A","B"],["C","D"]],"coinWeights":[0.2,0.5,0.8],"subjectId":"A1MKCTVKE7J0ZP","assignmentId":"3KV0LJBBH37WHZ8HHXAV7LXA0V5RMU","hitId":"3AQN9REUTF20OMGWRXYK787QVFOYDP","url":"https://gershmanlab.com/experiments/alicia/teaching/experiment/?hitId=3AQN9REUTF20OMGWRXYK787QVFOYDP&workerId=A1MKCTVKE7J0ZP&assignmentId=3KV0LJBBH37WHZ8HHXAV7LXA0V5RMU&a=BLVK9&tp_a=BLVK9&b=3KV0LJBBH37WHZ8HHXAV7LXA0V5RMU&tp_b=3KV0LJBBH37WHZ8HHXAV7LXA0V5RMU&c=365799&tp_c=365799","heads":5,"tails":2,"studentIndex":2,"studentTrueHypers":{"a":1,"b":4},"studentGuess":0.5,"delta":0.30000000000000004,"totalExamples":7,"bonusSoFar":0.4},{"rt":9198,"response":{"heads":"8","tails":"2"},"type":"response","condition":"seqFeedback","trueTheta":0.8,"classrooms":["A","B"],"studentTrueClassroom":"A","exampleSet":"second","trial_type":"survey-html-form","trial_index":23,"time_elapsed":478515,"internal_node_id":"0.0-22.0-0.0","params":{"nStudents":24,"maxFlips":30,"completionMinutes":45,"basePay":8,"maxBonus":9,"perTrialBonus":0.5,"perTrialBonusThreshold":0.05,"exampleCost":0.01},"classroomParams":{"A":{"a":1,"b":4},"B":{"a":4,"b":1},"C":{"a":2,"b":8},"D":{"a":8,"b":2}},"conditions":["nonSeqFull","nonSeqPartial","seqNoFeedback","seqFeedback"],"classroomPairings":[["A","B"],["C","D"]],"coinWeights":[0.2,0.5,0.8],"subjectId":"A1MKCTVKE7J0ZP","assignmentId":"3KV0LJBBH37WHZ8HHXAV7LXA0V5RMU","hitId":"3AQN9REUTF20OMGWRXYK787QVFOYDP","url":"https://gershmanlab.com/experiments/alicia/teaching/experiment/?hitId=3AQN9REUTF20OMGWRXYK787QVFOYDP&workerId=A1MKCTVKE7J0ZP&assignmentId=3KV0LJBBH37WHZ8HHXAV7LXA0V5RMU&a=BLVK9&tp_a=BLVK9&b=3KV0LJBBH37WHZ8HHXAV7LXA0V5RMU&tp_b=3KV0LJBBH37WHZ8HHXAV7LXA0V5RMU&c=365799&tp_c=365799","firstResponseHeads":5,"firstResponseTails":2,"secondResponseHeads":8,"secondResponseTails":2,"totalHeads":13,"totalTails":4,"studentIndex":2,"studentTrueHypers":{"a":1,"b":4},"studentGuess":0.6363636363636364,"delta":0.1636363636363637,"bonus":0,"bonusSoFar":0.4,"totalExamples":17},{"rt":12778,"response":{"heads":"7","tails":"7"},"type":"response","condition":"nonSeqFull","trueTheta":0.5,"classrooms":["C","D"],"studentTrueClassroom":"D","exampleSet":"first","trial_type":"survey-html-form","trial_index":29,"time_elapsed":507502,"internal_node_id":"0.0-28.0-0.0","params":{"nStudents":24,"maxFlips":30,"completionMinutes":45,"basePay":8,"maxBonus":9,"perTrialBonus":0.5,"perTrialBonusThreshold":0.05,"exampleCost":0.01},"classroomParams":{"A":{"a":1,"b":4},"B":{"a":4,"b":1},"C":{"a":2,"b":8},"D":{"a":8,"b":2}},"conditions":["nonSeqFull","nonSeqPartial","seqNoFeedback","seqFeedback"],"classroomPairings":[["A","B"],["C","D"]],"coinWeights":[0.2,0.5,0.8],"subjectId":"A1MKCTVKE7J0ZP","assignmentId":"3KV0LJBBH37WHZ8HHXAV7LXA0V5RMU","hitId":"3AQN9REUTF20OMGWRXYK787QVFOYDP","url":"https://gershmanlab.com/experiments/alicia/teaching/experiment/?hitId=3AQN9REUTF20OMGWRXYK787QVFOYDP&workerId=A1MKCTVKE7J0ZP&assignmentId=3KV0LJBBH37WHZ8HHXAV7LXA0V5RMU&a=BLVK9&tp_a=BLVK9&b=3KV0LJBBH37WHZ8HHXAV7LXA0V5RMU&tp_b=3KV0LJBBH37WHZ8HHXAV7LXA0V5RMU&c=365799&tp_c=365799","heads":7,"tails":7,"studentIndex":3,"studentTrueHypers":{"a":8,"b":2},"studentGuess":0.625,"delta":0.125,"totalExamples":14,"bonus":0,"bonusSoFar":0.4},{"rt":8888,"response":{"heads":"10","tails":"10"},"type":"response","condition":"seqNoFeedback","trueTheta":0.8,"classrooms":["A","B"],"studentTrueClassroom":"B","exampleSet":"first","trial_type":"survey-html-form","trial_index":35,"time_elapsed":532700,"internal_node_id":"0.0-34.0-0.0","params":{"nStudents":24,"maxFlips":30,"completionMinutes":45,"basePay":8,"maxBonus":9,"perTrialBonus":0.5,"perTrialBonusThreshold":0.05,"exampleCost":0.01},"classroomParams":{"A":{"a":1,"b":4},"B":{"a":4,"b":1},"C":{"a":2,"b":8},"D":{"a":8,"b":2}},"conditions":["nonSeqFull","nonSeqPartial","seqNoFeedback","seqFeedback"],"classroomPairings":[["A","B"],["C","D"]],"coinWeights":[0.2,0.5,0.8],"subjectId":"A1MKCTVKE7J0ZP","assignmentId":"3KV0LJBBH37WHZ8HHXAV7LXA0V5RMU","hitId":"3AQN9REUTF20OMGWRXYK787QVFOYDP","url":"https://gershmanlab.com/experiments/alicia/teaching/experiment/?hitId=3AQN9REUTF20OMGWRXYK787QVFOYDP&workerId=A1MKCTVKE7J0ZP&assignmentId=3KV0LJBBH37WHZ8HHXAV7LXA0V5RMU&a=BLVK9&tp_a=BLVK9&b=3KV0LJBBH37WHZ8HHXAV7LXA0V5RMU&tp_b=3KV0LJBBH37WHZ8HHXAV7LXA0V5RMU&c=365799&tp_c=365799","heads":10,"tails":10,"studentIndex":4,"studentTrueHypers":{"a":4,"b":1},"studentGuess":0.56,"delta":0.24,"totalExamples":20,"bonusSoFar":0.4},{"rt":6764,"response":{"heads":"10","tails":"10"},"type":"response","condition":"seqNoFeedback","trueTheta":0.8,"classrooms":["A","B"],"studentTrueClassroom":"B","exampleSet":"second","trial_type":"survey-html-form","trial_index":38,"time_elapsed":546721,"internal_node_id":"0.0-37.0-0.0","params":{"nStudents":24,"maxFlips":30,"completionMinutes":45,"basePay":8,"maxBonus":9,"perTrialBonus":0.5,"perTrialBonusThreshold":0.05,"exampleCost":0.01},"classroomParams":{"A":{"a":1,"b":4},"B":{"a":4,"b":1},"C":{"a":2,"b":8},"D":{"a":8,"b":2}},"conditions":["nonSeqFull","nonSeqPartial","seqNoFeedback","seqFeedback"],"classroomPairings":[["A","B"],["C","D"]],"coinWeights":[0.2,0.5,0.8],"subjectId":"A1MKCTVKE7J0ZP","assignmentId":"3KV0LJBBH37WHZ8HHXAV7LXA0V5RMU","hitId":"3AQN9REUTF20OMGWRXYK787QVFOYDP","url":"https://gershmanlab.com/experiments/alicia/teaching/experiment/?hitId=3AQN9REUTF20OMGWRXYK787QVFOYDP&workerId=A1MKCTVKE7J0ZP&assignmentId=3KV0LJBBH37WHZ8HHXAV7LXA0V5RMU&a=BLVK9&tp_a=BLVK9&b=3KV0LJBBH37WHZ8HHXAV7LXA0V5RMU&tp_b=3KV0LJBBH37WHZ8HHXAV7LXA0V5RMU&c=365799&tp_c=365799","firstResponseHeads":10,"firstResponseTails":10,"secondResponseHeads":10,"secondResponseTails":10,"totalHeads":20,"totalTails":20,"studentIndex":4,"studentTrueHypers":{"a":4,"b":1},"studentGuess":0.5333333333333333,"delta":0.2666666666666667,"bonus":0,"bonusSoFar":0.4,"totalExamples":40},{"rt":8696,"response":{"heads":"5","tails":"10"},"type":"response","condition":"seqNoFeedback","trueTheta":0.2,"classrooms":["C","D"],"studentTrueClassroom":"C","exampleSet":"first","trial_type":"survey-html-form","trial_index":44,"time_elapsed":570078,"internal_node_id":"0.0-43.0-0.0","params":{"nStudents":24,"maxFlips":30,"completionMinutes":45,"basePay":8,"maxBonus":9,"perTrialBonus":0.5,"perTrialBonusThreshold":0.05,"exampleCost":0.01},"classroomParams":{"A":{"a":1,"b":4},"B":{"a":4,"b":1},"C":{"a":2,"b":8},"D":{"a":8,"b":2}},"conditions":["nonSeqFull","nonSeqPartial","seqNoFeedback","seqFeedback"],"classroomPairings":[["A","B"],["C","D"]],"coinWeights":[0.2,0.5,0.8],"subjectId":"A1MKCTVKE7J0ZP","assignmentId":"3KV0LJBBH37WHZ8HHXAV7LXA0V5RMU","hitId":"3AQN9REUTF20OMGWRXYK787QVFOYDP","url":"https://gershmanlab.com/experiments/alicia/teaching/experiment/?hitId=3AQN9REUTF20OMGWRXYK787QVFOYDP&workerId=A1MKCTVKE7J0ZP&assignmentId=3KV0LJBBH37WHZ8HHXAV7LXA0V5RMU&a=BLVK9&tp_a=BLVK9&b=3KV0LJBBH37WHZ8HHXAV7LXA0V5RMU&tp_b=3KV0LJBBH37WHZ8HHXAV7LXA0V5RMU&c=365799&tp_c=365799","heads":5,"tails":10,"studentIndex":5,"studentTrueHypers":{"a":2,"b":8},"studentGuess":0.28,"delta":0.08000000000000002,"totalExamples":15,"bonusSoFar":0.4},{"rt":11075,"response":{"heads":"5","tails":"10"},"type":"response","condition":"seqNoFeedback","trueTheta":0.2,"classrooms":["C","D"],"studentTrueClassroom":"C","exampleSet":"second","trial_type":"survey-html-form","trial_index":47,"time_elapsed":586413,"internal_node_id":"0.0-46.0-0.0","params":{"nStudents":24,"maxFlips":30,"completionMinutes":45,"basePay":8,"maxBonus":9,"perTrialBonus":0.5,"perTrialBonusThreshold":0.05,"exampleCost":0.01},"classroomParams":{"A":{"a":1,"b":4},"B":{"a":4,"b":1},"C":{"a":2,"b":8},"D":{"a":8,"b":2}},"conditions":["nonSeqFull","nonSeqPartial","seqNoFeedback","seqFeedback"],"classroomPairings":[["A","B"],["C","D"]],"coinWeights":[0.2,0.5,0.8],"subjectId":"A1MKCTVKE7J0ZP","assignmentId":"3KV0LJBBH37WHZ8HHXAV7LXA0V5RMU","hitId":"3AQN9REUTF20OMGWRXYK787QVFOYDP","url":"https://gershmanlab.com/experiments/alicia/teaching/experiment/?hitId=3AQN9REUTF20OMGWRXYK787QVFOYDP&workerId=A1MKCTVKE7J0ZP&assignmentId=3KV0LJBBH37WHZ8HHXAV7LXA0V5RMU&a=BLVK9&tp_a=BLVK9&b=3KV0LJBBH37WHZ8HHXAV7LXA0V5RMU&tp_b=3KV0LJBBH37WHZ8HHXAV7LXA0V5RMU&c=365799&tp_c=365799","firstResponseHeads":5,"firstResponseTails":10,"secondResponseHeads":5,"secondResponseTails":10,"totalHeads":10,"totalTails":20,"studentIndex":5,"studentTrueHypers":{"a":2,"b":8},"studentGuess":0.3,"delta":0.09999999999999998,"bonus":0,"bonusSoFar":0.4,"totalExamples":30},{"rt":11399,"response":{"heads":"5","tails":"10"},"type":"response","condition":"seqFeedback","trueTheta":0.2,"classrooms":["A","B"],"studentTrueClassroom":"A","exampleSet":"first","trial_type":"survey-html-form","trial_index":53,"time_elapsed":617466,"internal_node_id":"0.0-52.0-0.0","params":{"nStudents":24,"maxFlips":30,"completionMinutes":45,"basePay":8,"maxBonus":9,"perTrialBonus":0.5,"perTrialBonusThreshold":0.05,"exampleCost":0.01},"classroomParams":{"A":{"a":1,"b":4},"B":{"a":4,"b":1},"C":{"a":2,"b":8},"D":{"a":8,"b":2}},"conditions":["nonSeqFull","nonSeqPartial","seqNoFeedback","seqFeedback"],"classroomPairings":[["A","B"],["C","D"]],"coinWeights":[0.2,0.5,0.8],"subjectId":"A1MKCTVKE7J0ZP","assignmentId":"3KV0LJBBH37WHZ8HHXAV7LXA0V5RMU","hitId":"3AQN9REUTF20OMGWRXYK787QVFOYDP","url":"https://gershmanlab.com/experiments/alicia/teaching/experiment/?hitId=3AQN9REUTF20OMGWRXYK787QVFOYDP&workerId=A1MKCTVKE7J0ZP&assignmentId=3KV0LJBBH37WHZ8HHXAV7LXA0V5RMU&a=BLVK9&tp_a=BLVK9&b=3KV0LJBBH37WHZ8HHXAV7LXA0V5RMU&tp_b=3KV0LJBBH37WHZ8HHXAV7LXA0V5RMU&c=365799&tp_c=365799","heads":5,"tails":10,"studentIndex":6,"studentTrueHypers":{"a":1,"b":4},"studentGuess":0.3,"delta":0.09999999999999998,"totalExamples":15,"bonusSoFar":0.4},{"rt":7089,"response":{"heads":"5","tails":"10"},"type":"response","condition":"seqFeedback","trueTheta":0.2,"classrooms":["A","B"],"studentTrueClassroom":"A","exampleSet":"second","trial_type":"survey-html-form","trial_index":57,"time_elapsed":636370,"internal_node_id":"0.0-56.0-0.0","params":{"nStudents":24,"maxFlips":30,"completionMinutes":45,"basePay":8,"maxBonus":9,"perTrialBonus":0.5,"perTrialBonusThreshold":0.05,"exampleCost":0.01},"classroomParams":{"A":{"a":1,"b":4},"B":{"a":4,"b":1},"C":{"a":2,"b":8},"D":{"a":8,"b":2}},"conditions":["nonSeqFull","nonSeqPartial","seqNoFeedback","seqFeedback"],"classroomPairings":[["A","B"],["C","D"]],"coinWeights":[0.2,0.5,0.8],"subjectId":"A1MKCTVKE7J0ZP","assignmentId":"3KV0LJBBH37WHZ8HHXAV7LXA0V5RMU","hitId":"3AQN9REUTF20OMGWRXYK787QVFOYDP","url":"https://gershmanlab.com/experiments/alicia/teaching/experiment/?hitId=3AQN9REUTF20OMGWRXYK787QVFOYDP&workerId=A1MKCTVKE7J0ZP&assignmentId=3KV0LJBBH37WHZ8HHXAV7LXA0V5RMU&a=BLVK9&tp_a=BLVK9&b=3KV0LJBBH37WHZ8HHXAV7LXA0V5RMU&tp_b=3KV0LJBBH37WHZ8HHXAV7LXA0V5RMU&c=365799&tp_c=365799","firstResponseHeads":5,"firstResponseTails":10,"secondResponseHeads":5,"secondResponseTails":10,"totalHeads":10,"totalTails":20,"studentIndex":6,"studentTrueHypers":{"a":1,"b":4},"studentGuess":0.3142857142857143,"delta":0.11428571428571427,"bonus":0,"bonusSoFar":0.4,"totalExamples":30},{"rt":12346,"response":{"heads":"10","tails":"20"},"type":"response","condition":"nonSeqFull","trueTheta":0.5,"classrooms":["A","B"],"studentTrueClassroom":"B","exampleSet":"first","trial_type":"survey-html-form","trial_index":63,"time_elapsed":662047,"internal_node_id":"0.0-62.0-0.0","params":{"nStudents":24,"maxFlips":30,"completionMinutes":45,"basePay":8,"maxBonus":9,"perTrialBonus":0.5,"perTrialBonusThreshold":0.05,"exampleCost":0.01},"classroomParams":{"A":{"a":1,"b":4},"B":{"a":4,"b":1},"C":{"a":2,"b":8},"D":{"a":8,"b":2}},"conditions":["nonSeqFull","nonSeqPartial","seqNoFeedback","seqFeedback"],"classroomPairings":[["A","B"],["C","D"]],"coinWeights":[0.2,0.5,0.8],"subjectId":"A1MKCTVKE7J0ZP","assignmentId":"3KV0LJBBH37WHZ8HHXAV7LXA0V5RMU","hitId":"3AQN9REUTF20OMGWRXYK787QVFOYDP","url":"https://gershmanlab.com/experiments/alicia/teaching/experiment/?hitId=3AQN9REUTF20OMGWRXYK787QVFOYDP&workerId=A1MKCTVKE7J0ZP&assignmentId=3KV0LJBBH37WHZ8HHXAV7LXA0V5RMU&a=BLVK9&tp_a=BLVK9&b=3KV0LJBBH37WHZ8HHXAV7LXA0V5RMU&tp_b=3KV0LJBBH37WHZ8HHXAV7LXA0V5RMU&c=365799&tp_c=365799","heads":10,"tails":20,"studentIndex":7,"studentTrueHypers":{"a":4,"b":1},"studentGuess":0.4,"delta":0.09999999999999998,"totalExamples":30,"bonus":0,"bonusSoFar":0.4},{"rt":8093,"response":{"heads":"10","tails":"20"},"type":"response","condition":"nonSeqFull","trueTheta":0.2,"classrooms":["A","B"],"studentTrueClassroom":"A","exampleSet":"first","trial_type":"survey-html-form","trial_index":69,"time_elapsed":681570,"internal_node_id":"0.0-68.0-0.0","params":{"nStudents":24,"maxFlips":30,"completionMinutes":45,"basePay":8,"maxBonus":9,"perTrialBonus":0.5,"perTrialBonusThreshold":0.05,"exampleCost":0.01},"classroomParams":{"A":{"a":1,"b":4},"B":{"a":4,"b":1},"C":{"a":2,"b":8},"D":{"a":8,"b":2}},"conditions":["nonSeqFull","nonSeqPartial","seqNoFeedback","seqFeedback"],"classroomPairings":[["A","B"],["C","D"]],"coinWeights":[0.2,0.5,0.8],"subjectId":"A1MKCTVKE7J0ZP","assignmentId":"3KV0LJBBH37WHZ8HHXAV7LXA0V5RMU","hitId":"3AQN9REUTF20OMGWRXYK787QVFOYDP","url":"https://gershmanlab.com/experiments/alicia/teaching/experiment/?hitId=3AQN9REUTF20OMGWRXYK787QVFOYDP&workerId=A1MKCTVKE7J0ZP&assignmentId=3KV0LJBBH37WHZ8HHXAV7LXA0V5RMU&a=BLVK9&tp_a=BLVK9&b=3KV0LJBBH37WHZ8HHXAV7LXA0V5RMU&tp_b=3KV0LJBBH37WHZ8HHXAV7LXA0V5RMU&c=365799&tp_c=365799","heads":10,"tails":20,"studentIndex":8,"studentTrueHypers":{"a":1,"b":4},"studentGuess":0.3142857142857143,"delta":0.11428571428571427,"totalExamples":30,"bonus":0,"bonusSoFar":0.4},{"rt":13917,"response":{"heads":"8","tails":"8"},"type":"response","condition":"seqFeedback","trueTheta":0.8,"classrooms":["C","D"],"studentTrueClassroom":"C","exampleSet":"first","trial_type":"survey-html-form","trial_index":75,"time_elapsed":711459,"internal_node_id":"0.0-74.0-0.0","params":{"nStudents":24,"maxFlips":30,"completionMinutes":45,"basePay":8,"maxBonus":9,"perTrialBonus":0.5,"perTrialBonusThreshold":0.05,"exampleCost":0.01},"classroomParams":{"A":{"a":1,"b":4},"B":{"a":4,"b":1},"C":{"a":2,"b":8},"D":{"a":8,"b":2}},"conditions":["nonSeqFull","nonSeqPartial","seqNoFeedback","seqFeedback"],"classroomPairings":[["A","B"],["C","D"]],"coinWeights":[0.2,0.5,0.8],"subjectId":"A1MKCTVKE7J0ZP","assignmentId":"3KV0LJBBH37WHZ8HHXAV7LXA0V5RMU","hitId":"3AQN9REUTF20OMGWRXYK787QVFOYDP","url":"https://gershmanlab.com/experiments/alicia/teaching/experiment/?hitId=3AQN9REUTF20OMGWRXYK787QVFOYDP&workerId=A1MKCTVKE7J0ZP&assignmentId=3KV0LJBBH37WHZ8HHXAV7LXA0V5RMU&a=BLVK9&tp_a=BLVK9&b=3KV0LJBBH37WHZ8HHXAV7LXA0V5RMU&tp_b=3KV0LJBBH37WHZ8HHXAV7LXA0V5RMU&c=365799&tp_c=365799","heads":8,"tails":8,"studentIndex":9,"studentTrueHypers":{"a":2,"b":8},"studentGuess":0.38461538461538464,"delta":0.4153846153846154,"totalExamples":16,"bonusSoFar":0.4},{"rt":8570,"response":{"heads":"10","tails":"2"},"type":"response","condition":"seqFeedback","trueTheta":0.8,"classrooms":["C","D"],"studentTrueClassroom":"C","exampleSet":"second","trial_type":"survey-html-form","trial_index":79,"time_elapsed":729494,"internal_node_id":"0.0-78.0-0.0","params":{"nStudents":24,"maxFlips":30,"completionMinutes":45,"basePay":8,"maxBonus":9,"perTrialBonus":0.5,"perTrialBonusThreshold":0.05,"exampleCost":0.01},"classroomParams":{"A":{"a":1,"b":4},"B":{"a":4,"b":1},"C":{"a":2,"b":8},"D":{"a":8,"b":2}},"conditions":["nonSeqFull","nonSeqPartial","seqNoFeedback","seqFeedback"],"classroomPairings":[["A","B"],["C","D"]],"coinWeights":[0.2,0.5,0.8],"subjectId":"A1MKCTVKE7J0ZP","assignmentId":"3KV0LJBBH37WHZ8HHXAV7LXA0V5RMU","hitId":"3AQN9REUTF20OMGWRXYK787QVFOYDP","url":"https://gershmanlab.com/experiments/alicia/teaching/experiment/?hitId=3AQN9REUTF20OMGWRXYK787QVFOYDP&workerId=A1MKCTVKE7J0ZP&assignmentId=3KV0LJBBH37WHZ8HHXAV7LXA0V5RMU&a=BLVK9&tp_a=BLVK9&b=3KV0LJBBH37WHZ8HHXAV7LXA0V5RMU&tp_b=3KV0LJBBH37WHZ8HHXAV7LXA0V5RMU&c=365799&tp_c=365799","firstResponseHeads":8,"firstResponseTails":8,"secondResponseHeads":10,"secondResponseTails":2,"totalHeads":18,"totalTails":10,"studentIndex":9,"studentTrueHypers":{"a":2,"b":8},"studentGuess":0.5263157894736842,"delta":0.27368421052631586,"bonus":0,"bonusSoFar":0.4,"totalExamples":28},{"rt":9719,"response":{"heads":"10","tails":"0"},"type":"response","condition":"seqNoFeedback","trueTheta":0.8,"classrooms":["C","D"],"studentTrueClassroom":"C","exampleSet":"first","trial_type":"survey-html-form","trial_index":85,"time_elapsed":751885,"internal_node_id":"0.0-84.0-0.0","params":{"nStudents":24,"maxFlips":30,"completionMinutes":45,"basePay":8,"maxBonus":9,"perTrialBonus":0.5,"perTrialBonusThreshold":0.05,"exampleCost":0.01},"classroomParams":{"A":{"a":1,"b":4},"B":{"a":4,"b":1},"C":{"a":2,"b":8},"D":{"a":8,"b":2}},"conditions":["nonSeqFull","nonSeqPartial","seqNoFeedback","seqFeedback"],"classroomPairings":[["A","B"],["C","D"]],"coinWeights":[0.2,0.5,0.8],"subjectId":"A1MKCTVKE7J0ZP","assignmentId":"3KV0LJBBH37WHZ8HHXAV7LXA0V5RMU","hitId":"3AQN9REUTF20OMGWRXYK787QVFOYDP","url":"https://gershmanlab.com/experiments/alicia/teaching/experiment/?hitId=3AQN9REUTF20OMGWRXYK787QVFOYDP&workerId=A1MKCTVKE7J0ZP&assignmentId=3KV0LJBBH37WHZ8HHXAV7LXA0V5RMU&a=BLVK9&tp_a=BLVK9&b=3KV0LJBBH37WHZ8HHXAV7LXA0V5RMU&tp_b=3KV0LJBBH37WHZ8HHXAV7LXA0V5RMU&c=365799&tp_c=365799","heads":10,"tails":0,"studentIndex":10,"studentTrueHypers":{"a":2,"b":8},"studentGuess":0.6,"delta":0.20000000000000007,"totalExamples":10,"bonusSoFar":0.4},{"rt":6951,"response":{"heads":"10","tails":"2"},"type":"response","condition":"seqNoFeedback","trueTheta":0.8,"classrooms":["C","D"],"studentTrueClassroom":"C","exampleSet":"second","trial_type":"survey-html-form","trial_index":88,"time_elapsed":766345,"internal_node_id":"0.0-87.0-0.0","params":{"nStudents":24,"maxFlips":30,"completionMinutes":45,"basePay":8,"maxBonus":9,"perTrialBonus":0.5,"perTrialBonusThreshold":0.05,"exampleCost":0.01},"classroomParams":{"A":{"a":1,"b":4},"B":{"a":4,"b":1},"C":{"a":2,"b":8},"D":{"a":8,"b":2}},"conditions":["nonSeqFull","nonSeqPartial","seqNoFeedback","seqFeedback"],"classroomPairings":[["A","B"],["C","D"]],"coinWeights":[0.2,0.5,0.8],"subjectId":"A1MKCTVKE7J0ZP","assignmentId":"3KV0LJBBH37WHZ8HHXAV7LXA0V5RMU","hitId":"3AQN9REUTF20OMGWRXYK787QVFOYDP","url":"https://gershmanlab.com/experiments/alicia/teaching/experiment/?hitId=3AQN9REUTF20OMGWRXYK787QVFOYDP&workerId=A1MKCTVKE7J0ZP&assignmentId=3KV0LJBBH37WHZ8HHXAV7LXA0V5RMU&a=BLVK9&tp_a=BLVK9&b=3KV0LJBBH37WHZ8HHXAV7LXA0V5RMU&tp_b=3KV0LJBBH37WHZ8HHXAV7LXA0V5RMU&c=365799&tp_c=365799","firstResponseHeads":10,"firstResponseTails":0,"secondResponseHeads":10,"secondResponseTails":2,"totalHeads":20,"totalTails":2,"studentIndex":10,"studentTrueHypers":{"a":2,"b":8},"studentGuess":0.6875,"delta":0.11250000000000004,"bonus":0,"bonusSoFar":0.4,"totalExamples":22},{"rt":6224,"response":{"heads":"6","tails":"2"},"type":"response","condition":"nonSeqPartial","trueTheta":0.8,"classrooms":["A","B"],"studentTrueClassroom":"A","exampleSet":"first","trial_type":"survey-html-form","trial_index":94,"time_elapsed":786456,"internal_node_id":"0.0-93.0-0.0","params":{"nStudents":24,"maxFlips":30,"completionMinutes":45,"basePay":8,"maxBonus":9,"perTrialBonus":0.5,"perTrialBonusThreshold":0.05,"exampleCost":0.01},"classroomParams":{"A":{"a":1,"b":4},"B":{"a":4,"b":1},"C":{"a":2,"b":8},"D":{"a":8,"b":2}},"conditions":["nonSeqFull","nonSeqPartial","seqNoFeedback","seqFeedback"],"classroomPairings":[["A","B"],["C","D"]],"coinWeights":[0.2,0.5,0.8],"subjectId":"A1MKCTVKE7J0ZP","assignmentId":"3KV0LJBBH37WHZ8HHXAV7LXA0V5RMU","hitId":"3AQN9REUTF20OMGWRXYK787QVFOYDP","url":"https://gershmanlab.com/experiments/alicia/teaching/experiment/?hitId=3AQN9REUTF20OMGWRXYK787QVFOYDP&workerId=A1MKCTVKE7J0ZP&assignmentId=3KV0LJBBH37WHZ8HHXAV7LXA0V5RMU&a=BLVK9&tp_a=BLVK9&b=3KV0LJBBH37WHZ8HHXAV7LXA0V5RMU&tp_b=3KV0LJBBH37WHZ8HHXAV7LXA0V5RMU&c=365799&tp_c=365799","heads":6,"tails":2,"studentIndex":11,"studentTrueHypers":{"a":1,"b":4},"studentGuess":0.5384615384615384,"delta":0.2615384615384616,"totalExamples":8,"bonus":0,"bonusSoFar":0.4},{"rt":11128,"response":{"heads":"3","tails":"8"},"type":"response","condition":"nonSeqPartial","trueTheta":0.2,"classrooms":["A","B"],"studentTrueClassroom":"A","exampleSet":"first","trial_type":"survey-html-form","trial_index":100,"time_elapsed":809567,"internal_node_id":"0.0-99.0-0.0","params":{"nStudents":24,"maxFlips":30,"completionMinutes":45,"basePay":8,"maxBonus":9,"perTrialBonus":0.5,"perTrialBonusThreshold":0.05,"exampleCost":0.01},"classroomParams":{"A":{"a":1,"b":4},"B":{"a":4,"b":1},"C":{"a":2,"b":8},"D":{"a":8,"b":2}},"conditions":["nonSeqFull","nonSeqPartial","seqNoFeedback","seqFeedback"],"classroomPairings":[["A","B"],["C","D"]],"coinWeights":[0.2,0.5,0.8],"subjectId":"A1MKCTVKE7J0ZP","assignmentId":"3KV0LJBBH37WHZ8HHXAV7LXA0V5RMU","hitId":"3AQN9REUTF20OMGWRXYK787QVFOYDP","url":"https://gershmanlab.com/experiments/alicia/teaching/experiment/?hitId=3AQN9REUTF20OMGWRXYK787QVFOYDP&workerId=A1MKCTVKE7J0ZP&assignmentId=3KV0LJBBH37WHZ8HHXAV7LXA0V5RMU&a=BLVK9&tp_a=BLVK9&b=3KV0LJBBH37WHZ8HHXAV7LXA0V5RMU&tp_b=3KV0LJBBH37WHZ8HHXAV7LXA0V5RMU&c=365799&tp_c=365799","heads":3,"tails":8,"studentIndex":12,"studentTrueHypers":{"a":1,"b":4},"studentGuess":0.25,"delta":0.04999999999999999,"totalExamples":11,"bonus":0.39,"bonusSoFar":0.79},{"rt":5214,"response":{"heads":"3","tails":"3"},"type":"response","condition":"seqNoFeedback","trueTheta":0.5,"classrooms":["A","B"],"studentTrueClassroom":"B","exampleSet":"first","trial_type":"survey-html-form","trial_index":106,"time_elapsed":827514,"internal_node_id":"0.0-105.0-0.0","params":{"nStudents":24,"maxFlips":30,"completionMinutes":45,"basePay":8,"maxBonus":9,"perTrialBonus":0.5,"perTrialBonusThreshold":0.05,"exampleCost":0.01},"classroomParams":{"A":{"a":1,"b":4},"B":{"a":4,"b":1},"C":{"a":2,"b":8},"D":{"a":8,"b":2}},"conditions":["nonSeqFull","nonSeqPartial","seqNoFeedback","seqFeedback"],"classroomPairings":[["A","B"],["C","D"]],"coinWeights":[0.2,0.5,0.8],"subjectId":"A1MKCTVKE7J0ZP","assignmentId":"3KV0LJBBH37WHZ8HHXAV7LXA0V5RMU","hitId":"3AQN9REUTF20OMGWRXYK787QVFOYDP","url":"https://gershmanlab.com/experiments/alicia/teaching/experiment/?hitId=3AQN9REUTF20OMGWRXYK787QVFOYDP&workerId=A1MKCTVKE7J0ZP&assignmentId=3KV0LJBBH37WHZ8HHXAV7LXA0V5RMU&a=BLVK9&tp_a=BLVK9&b=3KV0LJBBH37WHZ8HHXAV7LXA0V5RMU&tp_b=3KV0LJBBH37WHZ8HHXAV7LXA0V5RMU&c=365799&tp_c=365799","heads":3,"tails":3,"studentIndex":13,"studentTrueHypers":{"a":4,"b":1},"studentGuess":0.6363636363636364,"delta":0.13636363636363635,"totalExamples":6,"bonusSoFar":0.79},{"rt":10328,"response":{"heads":"3","tails":"3"},"type":"response","condition":"seqNoFeedback","trueTheta":0.5,"classrooms":["A","B"],"studentTrueClassroom":"B","exampleSet":"second","trial_type":"survey-html-form","trial_index":109,"time_elapsed":844850,"internal_node_id":"0.0-108.0-0.0","params":{"nStudents":24,"maxFlips":30,"completionMinutes":45,"basePay":8,"maxBonus":9,"perTrialBonus":0.5,"perTrialBonusThreshold":0.05,"exampleCost":0.01},"classroomParams":{"A":{"a":1,"b":4},"B":{"a":4,"b":1},"C":{"a":2,"b":8},"D":{"a":8,"b":2}},"conditions":["nonSeqFull","nonSeqPartial","seqNoFeedback","seqFeedback"],"classroomPairings":[["A","B"],["C","D"]],"coinWeights":[0.2,0.5,0.8],"subjectId":"A1MKCTVKE7J0ZP","assignmentId":"3KV0LJBBH37WHZ8HHXAV7LXA0V5RMU","hitId":"3AQN9REUTF20OMGWRXYK787QVFOYDP","url":"https://gershmanlab.com/experiments/alicia/teaching/experiment/?hitId=3AQN9REUTF20OMGWRXYK787QVFOYDP&workerId=A1MKCTVKE7J0ZP&assignmentId=3KV0LJBBH37WHZ8HHXAV7LXA0V5RMU&a=BLVK9&tp_a=BLVK9&b=3KV0LJBBH37WHZ8HHXAV7LXA0V5RMU&tp_b=3KV0LJBBH37WHZ8HHXAV7LXA0V5RMU&c=365799&tp_c=365799","firstResponseHeads":3,"firstResponseTails":3,"secondResponseHeads":3,"secondResponseTails":3,"totalHeads":6,"totalTails":6,"studentIndex":13,"studentTrueHypers":{"a":4,"b":1},"studentGuess":0.5882352941176471,"delta":0.08823529411764708,"bonus":0,"bonusSoFar":0.79,"totalExamples":12},{"rt":6519,"response":{"heads":"6","tails":"6"},"type":"response","condition":"seqNoFeedback","trueTheta":0.5,"classrooms":["C","D"],"studentTrueClassroom":"C","exampleSet":"first","trial_type":"survey-html-form","trial_index":115,"time_elapsed":864101,"internal_node_id":"0.0-114.0-0.0","params":{"nStudents":24,"maxFlips":30,"completionMinutes":45,"basePay":8,"maxBonus":9,"perTrialBonus":0.5,"perTrialBonusThreshold":0.05,"exampleCost":0.01},"classroomParams":{"A":{"a":1,"b":4},"B":{"a":4,"b":1},"C":{"a":2,"b":8},"D":{"a":8,"b":2}},"conditions":["nonSeqFull","nonSeqPartial","seqNoFeedback","seqFeedback"],"classroomPairings":[["A","B"],["C","D"]],"coinWeights":[0.2,0.5,0.8],"subjectId":"A1MKCTVKE7J0ZP","assignmentId":"3KV0LJBBH37WHZ8HHXAV7LXA0V5RMU","hitId":"3AQN9REUTF20OMGWRXYK787QVFOYDP","url":"https://gershmanlab.com/experiments/alicia/teaching/experiment/?hitId=3AQN9REUTF20OMGWRXYK787QVFOYDP&workerId=A1MKCTVKE7J0ZP&assignmentId=3KV0LJBBH37WHZ8HHXAV7LXA0V5RMU&a=BLVK9&tp_a=BLVK9&b=3KV0LJBBH37WHZ8HHXAV7LXA0V5RMU&tp_b=3KV0LJBBH37WHZ8HHXAV7LXA0V5RMU&c=365799&tp_c=365799","heads":6,"tails":6,"studentIndex":14,"studentTrueHypers":{"a":2,"b":8},"studentGuess":0.36363636363636365,"delta":0.13636363636363635,"totalExamples":12,"bonusSoFar":0.79},{"rt":4050,"response":{"heads":"6","tails":"6"},"type":"response","condition":"seqNoFeedback","trueTheta":0.5,"classrooms":["C","D"],"studentTrueClassroom":"C","exampleSet":"second","trial_type":"survey-html-form","trial_index":118,"time_elapsed":874408,"internal_node_id":"0.0-117.0-0.0","params":{"nStudents":24,"maxFlips":30,"completionMinutes":45,"basePay":8,"maxBonus":9,"perTrialBonus":0.5,"perTrialBonusThreshold":0.05,"exampleCost":0.01},"classroomParams":{"A":{"a":1,"b":4},"B":{"a":4,"b":1},"C":{"a":2,"b":8},"D":{"a":8,"b":2}},"conditions":["nonSeqFull","nonSeqPartial","seqNoFeedback","seqFeedback"],"classroomPairings":[["A","B"],["C","D"]],"coinWeights":[0.2,0.5,0.8],"subjectId":"A1MKCTVKE7J0ZP","assignmentId":"3KV0LJBBH37WHZ8HHXAV7LXA0V5RMU","hitId":"3AQN9REUTF20OMGWRXYK787QVFOYDP","url":"https://gershmanlab.com/experiments/alicia/teaching/experiment/?hitId=3AQN9REUTF20OMGWRXYK787QVFOYDP&workerId=A1MKCTVKE7J0ZP&assignmentId=3KV0LJBBH37WHZ8HHXAV7LXA0V5RMU&a=BLVK9&tp_a=BLVK9&b=3KV0LJBBH37WHZ8HHXAV7LXA0V5RMU&tp_b=3KV0LJBBH37WHZ8HHXAV7LXA0V5RMU&c=365799&tp_c=365799","firstResponseHeads":6,"firstResponseTails":6,"secondResponseHeads":6,"secondResponseTails":6,"totalHeads":12,"totalTails":12,"studentIndex":14,"studentTrueHypers":{"a":2,"b":8},"studentGuess":0.4117647058823529,"delta":0.08823529411764708,"bonus":0,"bonusSoFar":0.79,"totalExamples":24},{"rt":14926,"response":{"heads":"10","tails":"3"},"type":"response","condition":"nonSeqFull","trueTheta":0.8,"classrooms":["A","B"],"studentTrueClassroom":"A","exampleSet":"first","trial_type":"survey-html-form","trial_index":124,"time_elapsed":902982,"internal_node_id":"0.0-123.0-0.0","params":{"nStudents":24,"maxFlips":30,"completionMinutes":45,"basePay":8,"maxBonus":9,"perTrialBonus":0.5,"perTrialBonusThreshold":0.05,"exampleCost":0.01},"classroomParams":{"A":{"a":1,"b":4},"B":{"a":4,"b":1},"C":{"a":2,"b":8},"D":{"a":8,"b":2}},"conditions":["nonSeqFull","nonSeqPartial","seqNoFeedback","seqFeedback"],"classroomPairings":[["A","B"],["C","D"]],"coinWeights":[0.2,0.5,0.8],"subjectId":"A1MKCTVKE7J0ZP","assignmentId":"3KV0LJBBH37WHZ8HHXAV7LXA0V5RMU","hitId":"3AQN9REUTF20OMGWRXYK787QVFOYDP","url":"https://gershmanlab.com/experiments/alicia/teaching/experiment/?hitId=3AQN9REUTF20OMGWRXYK787QVFOYDP&workerId=A1MKCTVKE7J0ZP&assignmentId=3KV0LJBBH37WHZ8HHXAV7LXA0V5RMU&a=BLVK9&tp_a=BLVK9&b=3KV0LJBBH37WHZ8HHXAV7LXA0V5RMU&tp_b=3KV0LJBBH37WHZ8HHXAV7LXA0V5RMU&c=365799&tp_c=365799","heads":10,"tails":3,"studentIndex":15,"studentTrueHypers":{"a":1,"b":4},"studentGuess":0.6111111111111112,"delta":0.18888888888888888,"totalExamples":13,"bonus":0,"bonusSoFar":0.79},{"rt":9178,"response":{"heads":"8","tails":"12"},"type":"response","condition":"nonSeqPartial","trueTheta":0.2,"classrooms":["C","D"],"studentTrueClassroom":"C","exampleSet":"first","trial_type":"survey-html-form","trial_index":130,"time_elapsed":929434,"internal_node_id":"0.0-129.0-0.0","params":{"nStudents":24,"maxFlips":30,"completionMinutes":45,"basePay":8,"maxBonus":9,"perTrialBonus":0.5,"perTrialBonusThreshold":0.05,"exampleCost":0.01},"classroomParams":{"A":{"a":1,"b":4},"B":{"a":4,"b":1},"C":{"a":2,"b":8},"D":{"a":8,"b":2}},"conditions":["nonSeqFull","nonSeqPartial","seqNoFeedback","seqFeedback"],"classroomPairings":[["A","B"],["C","D"]],"coinWeights":[0.2,0.5,0.8],"subjectId":"A1MKCTVKE7J0ZP","assignmentId":"3KV0LJBBH37WHZ8HHXAV7LXA0V5RMU","hitId":"3AQN9REUTF20OMGWRXYK787QVFOYDP","url":"https://gershmanlab.com/experiments/alicia/teaching/experiment/?hitId=3AQN9REUTF20OMGWRXYK787QVFOYDP&workerId=A1MKCTVKE7J0ZP&assignmentId=3KV0LJBBH37WHZ8HHXAV7LXA0V5RMU&a=BLVK9&tp_a=BLVK9&b=3KV0LJBBH37WHZ8HHXAV7LXA0V5RMU&tp_b=3KV0LJBBH37WHZ8HHXAV7LXA0V5RMU&c=365799&tp_c=365799","heads":8,"tails":12,"studentIndex":16,"studentTrueHypers":{"a":2,"b":8},"studentGuess":0.3333333333333333,"delta":0.1333333333333333,"totalExamples":20,"bonus":0,"bonusSoFar":0.79},{"rt":9745,"response":{"heads":"4","tails":"4"},"type":"response","condition":"seqFeedback","trueTheta":0.5,"classrooms":["A","B"],"studentTrueClassroom":"A","exampleSet":"first","trial_type":"survey-html-form","trial_index":136,"time_elapsed":965435,"internal_node_id":"0.0-135.0-0.0","params":{"nStudents":24,"maxFlips":30,"completionMinutes":45,"basePay":8,"maxBonus":9,"perTrialBonus":0.5,"perTrialBonusThreshold":0.05,"exampleCost":0.01},"classroomParams":{"A":{"a":1,"b":4},"B":{"a":4,"b":1},"C":{"a":2,"b":8},"D":{"a":8,"b":2}},"conditions":["nonSeqFull","nonSeqPartial","seqNoFeedback","seqFeedback"],"classroomPairings":[["A","B"],["C","D"]],"coinWeights":[0.2,0.5,0.8],"subjectId":"A1MKCTVKE7J0ZP","assignmentId":"3KV0LJBBH37WHZ8HHXAV7LXA0V5RMU","hitId":"3AQN9REUTF20OMGWRXYK787QVFOYDP","url":"https://gershmanlab.com/experiments/alicia/teaching/experiment/?hitId=3AQN9REUTF20OMGWRXYK787QVFOYDP&workerId=A1MKCTVKE7J0ZP&assignmentId=3KV0LJBBH37WHZ8HHXAV7LXA0V5RMU&a=BLVK9&tp_a=BLVK9&b=3KV0LJBBH37WHZ8HHXAV7LXA0V5RMU&tp_b=3KV0LJBBH37WHZ8HHXAV7LXA0V5RMU&c=365799&tp_c=365799","heads":4,"tails":4,"studentIndex":17,"studentTrueHypers":{"a":1,"b":4},"studentGuess":0.38461538461538464,"delta":0.11538461538461536,"totalExamples":8,"bonusSoFar":0.79},{"rt":8725,"response":{"heads":"6","tails":"6"},"type":"response","condition":"seqFeedback","trueTheta":0.5,"classrooms":["A","B"],"studentTrueClassroom":"A","exampleSet":"second","trial_type":"survey-html-form","trial_index":140,"time_elapsed":985689,"internal_node_id":"0.0-139.0-0.0","params":{"nStudents":24,"maxFlips":30,"completionMinutes":45,"basePay":8,"maxBonus":9,"perTrialBonus":0.5,"perTrialBonusThreshold":0.05,"exampleCost":0.01},"classroomParams":{"A":{"a":1,"b":4},"B":{"a":4,"b":1},"C":{"a":2,"b":8},"D":{"a":8,"b":2}},"conditions":["nonSeqFull","nonSeqPartial","seqNoFeedback","seqFeedback"],"classroomPairings":[["A","B"],["C","D"]],"coinWeights":[0.2,0.5,0.8],"subjectId":"A1MKCTVKE7J0ZP","assignmentId":"3KV0LJBBH37WHZ8HHXAV7LXA0V5RMU","hitId":"3AQN9REUTF20OMGWRXYK787QVFOYDP","url":"https://gershmanlab.com/experiments/alicia/teaching/experiment/?hitId=3AQN9REUTF20OMGWRXYK787QVFOYDP&workerId=A1MKCTVKE7J0ZP&assignmentId=3KV0LJBBH37WHZ8HHXAV7LXA0V5RMU&a=BLVK9&tp_a=BLVK9&b=3KV0LJBBH37WHZ8HHXAV7LXA0V5RMU&tp_b=3KV0LJBBH37WHZ8HHXAV7LXA0V5RMU&c=365799&tp_c=365799","firstResponseHeads":4,"firstResponseTails":4,"secondResponseHeads":6,"secondResponseTails":6,"totalHeads":10,"totalTails":10,"studentIndex":17,"studentTrueHypers":{"a":1,"b":4},"studentGuess":0.44,"delta":0.06,"bonus":0,"bonusSoFar":0.79,"totalExamples":20},{"rt":14202,"response":{"heads":"4","tails":"10"},"type":"response","condition":"seqNoFeedback","trueTheta":0.2,"classrooms":["A","B"],"studentTrueClassroom":"A","exampleSet":"first","trial_type":"survey-html-form","trial_index":146,"time_elapsed":1012783,"internal_node_id":"0.0-145.0-0.0","params":{"nStudents":24,"maxFlips":30,"completionMinutes":45,"basePay":8,"maxBonus":9,"perTrialBonus":0.5,"perTrialBonusThreshold":0.05,"exampleCost":0.01},"classroomParams":{"A":{"a":1,"b":4},"B":{"a":4,"b":1},"C":{"a":2,"b":8},"D":{"a":8,"b":2}},"conditions":["nonSeqFull","nonSeqPartial","seqNoFeedback","seqFeedback"],"classroomPairings":[["A","B"],["C","D"]],"coinWeights":[0.2,0.5,0.8],"subjectId":"A1MKCTVKE7J0ZP","assignmentId":"3KV0LJBBH37WHZ8HHXAV7LXA0V5RMU","hitId":"3AQN9REUTF20OMGWRXYK787QVFOYDP","url":"https://gershmanlab.com/experiments/alicia/teaching/experiment/?hitId=3AQN9REUTF20OMGWRXYK787QVFOYDP&workerId=A1MKCTVKE7J0ZP&assignmentId=3KV0LJBBH37WHZ8HHXAV7LXA0V5RMU&a=BLVK9&tp_a=BLVK9&b=3KV0LJBBH37WHZ8HHXAV7LXA0V5RMU&tp_b=3KV0LJBBH37WHZ8HHXAV7LXA0V5RMU&c=365799&tp_c=365799","heads":4,"tails":10,"studentIndex":18,"studentTrueHypers":{"a":1,"b":4},"studentGuess":0.2631578947368421,"delta":0.06315789473684208,"totalExamples":14,"bonusSoFar":0.79},{"rt":10801,"response":{"heads":"2","tails":"8"},"type":"response","condition":"seqNoFeedback","trueTheta":0.2,"classrooms":["A","B"],"studentTrueClassroom":"A","exampleSet":"second","trial_type":"survey-html-form","trial_index":149,"time_elapsed":1030343,"internal_node_id":"0.0-148.0-0.0","params":{"nStudents":24,"maxFlips":30,"completionMinutes":45,"basePay":8,"maxBonus":9,"perTrialBonus":0.5,"perTrialBonusThreshold":0.05,"exampleCost":0.01},"classroomParams":{"A":{"a":1,"b":4},"B":{"a":4,"b":1},"C":{"a":2,"b":8},"D":{"a":8,"b":2}},"conditions":["nonSeqFull","nonSeqPartial","seqNoFeedback","seqFeedback"],"classroomPairings":[["A","B"],["C","D"]],"coinWeights":[0.2,0.5,0.8],"subjectId":"A1MKCTVKE7J0ZP","assignmentId":"3KV0LJBBH37WHZ8HHXAV7LXA0V5RMU","hitId":"3AQN9REUTF20OMGWRXYK787QVFOYDP","url":"https://gershmanlab.com/experiments/alicia/teaching/experiment/?hitId=3AQN9REUTF20OMGWRXYK787QVFOYDP&workerId=A1MKCTVKE7J0ZP&assignmentId=3KV0LJBBH37WHZ8HHXAV7LXA0V5RMU&a=BLVK9&tp_a=BLVK9&b=3KV0LJBBH37WHZ8HHXAV7LXA0V5RMU&tp_b=3KV0LJBBH37WHZ8HHXAV7LXA0V5RMU&c=365799&tp_c=365799","firstResponseHeads":4,"firstResponseTails":10,"secondResponseHeads":2,"secondResponseTails":8,"totalHeads":6,"totalTails":18,"studentIndex":18,"studentTrueHypers":{"a":1,"b":4},"studentGuess":0.2413793103448276,"delta":0.041379310344827586,"bonus":0.26,"bonusSoFar":1.05,"totalExamples":24},{"rt":9523,"response":{"heads":"10","tails":"10"},"type":"response","condition":"nonSeqPartial","trueTheta":0.5,"classrooms":["A","B"],"studentTrueClassroom":"A","exampleSet":"first","trial_type":"survey-html-form","trial_index":155,"time_elapsed":1055669,"internal_node_id":"0.0-154.0-0.0","params":{"nStudents":24,"maxFlips":30,"completionMinutes":45,"basePay":8,"maxBonus":9,"perTrialBonus":0.5,"perTrialBonusThreshold":0.05,"exampleCost":0.01},"classroomParams":{"A":{"a":1,"b":4},"B":{"a":4,"b":1},"C":{"a":2,"b":8},"D":{"a":8,"b":2}},"conditions":["nonSeqFull","nonSeqPartial","seqNoFeedback","seqFeedback"],"classroomPairings":[["A","B"],["C","D"]],"coinWeights":[0.2,0.5,0.8],"subjectId":"A1MKCTVKE7J0ZP","assignmentId":"3KV0LJBBH37WHZ8HHXAV7LXA0V5RMU","hitId":"3AQN9REUTF20OMGWRXYK787QVFOYDP","url":"https://gershmanlab.com/experiments/alicia/teaching/experiment/?hitId=3AQN9REUTF20OMGWRXYK787QVFOYDP&workerId=A1MKCTVKE7J0ZP&assignmentId=3KV0LJBBH37WHZ8HHXAV7LXA0V5RMU&a=BLVK9&tp_a=BLVK9&b=3KV0LJBBH37WHZ8HHXAV7LXA0V5RMU&tp_b=3KV0LJBBH37WHZ8HHXAV7LXA0V5RMU&c=365799&tp_c=365799","heads":10,"tails":10,"studentIndex":19,"studentTrueHypers":{"a":1,"b":4},"studentGuess":0.44,"delta":0.06,"totalExamples":20,"bonus":0,"bonusSoFar":1.05},{"rt":46324,"response":{"heads":"8","tails":"2"},"type":"response","condition":"nonSeqFull","trueTheta":0.8,"classrooms":["C","D"],"studentTrueClassroom":"C","exampleSet":"first","trial_type":"survey-html-form","trial_index":161,"time_elapsed":1123198,"internal_node_id":"0.0-160.0-0.0","params":{"nStudents":24,"maxFlips":30,"completionMinutes":45,"basePay":8,"maxBonus":9,"perTrialBonus":0.5,"perTrialBonusThreshold":0.05,"exampleCost":0.01},"classroomParams":{"A":{"a":1,"b":4},"B":{"a":4,"b":1},"C":{"a":2,"b":8},"D":{"a":8,"b":2}},"conditions":["nonSeqFull","nonSeqPartial","seqNoFeedback","seqFeedback"],"classroomPairings":[["A","B"],["C","D"]],"coinWeights":[0.2,0.5,0.8],"subjectId":"A1MKCTVKE7J0ZP","assignmentId":"3KV0LJBBH37WHZ8HHXAV7LXA0V5RMU","hitId":"3AQN9REUTF20OMGWRXYK787QVFOYDP","url":"https://gershmanlab.com/experiments/alicia/teaching/experiment/?hitId=3AQN9REUTF20OMGWRXYK787QVFOYDP&workerId=A1MKCTVKE7J0ZP&assignmentId=3KV0LJBBH37WHZ8HHXAV7LXA0V5RMU&a=BLVK9&tp_a=BLVK9&b=3KV0LJBBH37WHZ8HHXAV7LXA0V5RMU&tp_b=3KV0LJBBH37WHZ8HHXAV7LXA0V5RMU&c=365799&tp_c=365799","heads":8,"tails":2,"studentIndex":20,"studentTrueHypers":{"a":2,"b":8},"studentGuess":0.5,"delta":0.30000000000000004,"totalExamples":10,"bonus":0,"bonusSoFar":1.05},{"rt":9824,"response":{"heads":"8","tails":"2"},"type":"response","condition":"seqFeedback","trueTheta":0.5,"classrooms":["C","D"],"studentTrueClassroom":"D","exampleSet":"first","trial_type":"survey-html-form","trial_index":167,"time_elapsed":1146072,"internal_node_id":"0.0-166.0-0.0","params":{"nStudents":24,"maxFlips":30,"completionMinutes":45,"basePay":8,"maxBonus":9,"perTrialBonus":0.5,"perTrialBonusThreshold":0.05,"exampleCost":0.01},"classroomParams":{"A":{"a":1,"b":4},"B":{"a":4,"b":1},"C":{"a":2,"b":8},"D":{"a":8,"b":2}},"conditions":["nonSeqFull","nonSeqPartial","seqNoFeedback","seqFeedback"],"classroomPairings":[["A","B"],["C","D"]],"coinWeights":[0.2,0.5,0.8],"subjectId":"A1MKCTVKE7J0ZP","assignmentId":"3KV0LJBBH37WHZ8HHXAV7LXA0V5RMU","hitId":"3AQN9REUTF20OMGWRXYK787QVFOYDP","url":"https://gershmanlab.com/experiments/alicia/teaching/experiment/?hitId=3AQN9REUTF20OMGWRXYK787QVFOYDP&workerId=A1MKCTVKE7J0ZP&assignmentId=3KV0LJBBH37WHZ8HHXAV7LXA0V5RMU&a=BLVK9&tp_a=BLVK9&b=3KV0LJBBH37WHZ8HHXAV7LXA0V5RMU&tp_b=3KV0LJBBH37WHZ8HHXAV7LXA0V5RMU&c=365799&tp_c=365799","heads":8,"tails":2,"studentIndex":21,"studentTrueHypers":{"a":8,"b":2},"studentGuess":0.8,"delta":0.30000000000000004,"totalExamples":10,"bonusSoFar":1.05},{"rt":8006,"response":{"heads":"10","tails":"10"},"type":"response","condition":"seqFeedback","trueTheta":0.5,"classrooms":["C","D"],"studentTrueClassroom":"D","exampleSet":"second","trial_type":"survey-html-form","trial_index":171,"time_elapsed":1162920,"internal_node_id":"0.0-170.0-0.0","params":{"nStudents":24,"maxFlips":30,"completionMinutes":45,"basePay":8,"maxBonus":9,"perTrialBonus":0.5,"perTrialBonusThreshold":0.05,"exampleCost":0.01},"classroomParams":{"A":{"a":1,"b":4},"B":{"a":4,"b":1},"C":{"a":2,"b":8},"D":{"a":8,"b":2}},"conditions":["nonSeqFull","nonSeqPartial","seqNoFeedback","seqFeedback"],"classroomPairings":[["A","B"],["C","D"]],"coinWeights":[0.2,0.5,0.8],"subjectId":"A1MKCTVKE7J0ZP","assignmentId":"3KV0LJBBH37WHZ8HHXAV7LXA0V5RMU","hitId":"3AQN9REUTF20OMGWRXYK787QVFOYDP","url":"https://gershmanlab.com/experiments/alicia/teaching/experiment/?hitId=3AQN9REUTF20OMGWRXYK787QVFOYDP&workerId=A1MKCTVKE7J0ZP&assignmentId=3KV0LJBBH37WHZ8HHXAV7LXA0V5RMU&a=BLVK9&tp_a=BLVK9&b=3KV0LJBBH37WHZ8HHXAV7LXA0V5RMU&tp_b=3KV0LJBBH37WHZ8HHXAV7LXA0V5RMU&c=365799&tp_c=365799","firstResponseHeads":8,"firstResponseTails":2,"secondResponseHeads":10,"secondResponseTails":10,"totalHeads":18,"totalTails":12,"studentIndex":21,"studentTrueHypers":{"a":8,"b":2},"studentGuess":0.65,"delta":0.15000000000000002,"bonus":0,"bonusSoFar":1.05,"totalExamples":30},{"rt":7069,"response":{"heads":"4","tails":"10"},"type":"response","condition":"seqFeedback","trueTheta":0.2,"classrooms":["C","D"],"studentTrueClassroom":"C","exampleSet":"first","trial_type":"survey-html-form","trial_index":177,"time_elapsed":1183729,"internal_node_id":"0.0-176.0-0.0","params":{"nStudents":24,"maxFlips":30,"completionMinutes":45,"basePay":8,"maxBonus":9,"perTrialBonus":0.5,"perTrialBonusThreshold":0.05,"exampleCost":0.01},"classroomParams":{"A":{"a":1,"b":4},"B":{"a":4,"b":1},"C":{"a":2,"b":8},"D":{"a":8,"b":2}},"conditions":["nonSeqFull","nonSeqPartial","seqNoFeedback","seqFeedback"],"classroomPairings":[["A","B"],["C","D"]],"coinWeights":[0.2,0.5,0.8],"subjectId":"A1MKCTVKE7J0ZP","assignmentId":"3KV0LJBBH37WHZ8HHXAV7LXA0V5RMU","hitId":"3AQN9REUTF20OMGWRXYK787QVFOYDP","url":"https://gershmanlab.com/experiments/alicia/teaching/experiment/?hitId=3AQN9REUTF20OMGWRXYK787QVFOYDP&workerId=A1MKCTVKE7J0ZP&assignmentId=3KV0LJBBH37WHZ8HHXAV7LXA0V5RMU&a=BLVK9&tp_a=BLVK9&b=3KV0LJBBH37WHZ8HHXAV7LXA0V5RMU&tp_b=3KV0LJBBH37WHZ8HHXAV7LXA0V5RMU&c=365799&tp_c=365799","heads":4,"tails":10,"studentIndex":22,"studentTrueHypers":{"a":2,"b":8},"studentGuess":0.25,"delta":0.04999999999999999,"totalExamples":14,"bonusSoFar":1.05},{"rt":10917,"response":{"heads":"2","tails":"8"},"type":"response","condition":"seqFeedback","trueTheta":0.2,"classrooms":["C","D"],"studentTrueClassroom":"C","exampleSet":"second","trial_type":"survey-html-form","trial_index":181,"time_elapsed":1201540,"internal_node_id":"0.0-180.0-0.0","params":{"nStudents":24,"maxFlips":30,"completionMinutes":45,"basePay":8,"maxBonus":9,"perTrialBonus":0.5,"perTrialBonusThreshold":0.05,"exampleCost":0.01},"classroomParams":{"A":{"a":1,"b":4},"B":{"a":4,"b":1},"C":{"a":2,"b":8},"D":{"a":8,"b":2}},"conditions":["nonSeqFull","nonSeqPartial","seqNoFeedback","seqFeedback"],"classroomPairings":[["A","B"],["C","D"]],"coinWeights":[0.2,0.5,0.8],"subjectId":"A1MKCTVKE7J0ZP","assignmentId":"3KV0LJBBH37WHZ8HHXAV7LXA0V5RMU","hitId":"3AQN9REUTF20OMGWRXYK787QVFOYDP","url":"https://gershmanlab.com/experiments/alicia/teaching/experiment/?hitId=3AQN9REUTF20OMGWRXYK787QVFOYDP&workerId=A1MKCTVKE7J0ZP&assignmentId=3KV0LJBBH37WHZ8HHXAV7LXA0V5RMU&a=BLVK9&tp_a=BLVK9&b=3KV0LJBBH37WHZ8HHXAV7LXA0V5RMU&tp_b=3KV0LJBBH37WHZ8HHXAV7LXA0V5RMU&c=365799&tp_c=365799","firstResponseHeads":4,"firstResponseTails":10,"secondResponseHeads":2,"secondResponseTails":8,"totalHeads":6,"totalTails":18,"studentIndex":22,"studentTrueHypers":{"a":2,"b":8},"studentGuess":0.23529411764705882,"delta":0.03529411764705881,"bonus":0.26,"bonusSoFar":1.31,"totalExamples":24},{"rt":7594,"response":{"heads":"8","tails":"8"},"type":"response","condition":"nonSeqPartial","trueTheta":0.5,"classrooms":["C","D"],"studentTrueClassroom":"C","exampleSet":"first","trial_type":"survey-html-form","trial_index":187,"time_elapsed":1223526,"internal_node_id":"0.0-186.0-0.0","params":{"nStudents":24,"maxFlips":30,"completionMinutes":45,"basePay":8,"maxBonus":9,"perTrialBonus":0.5,"perTrialBonusThreshold":0.05,"exampleCost":0.01},"classroomParams":{"A":{"a":1,"b":4},"B":{"a":4,"b":1},"C":{"a":2,"b":8},"D":{"a":8,"b":2}},"conditions":["nonSeqFull","nonSeqPartial","seqNoFeedback","seqFeedback"],"classroomPairings":[["A","B"],["C","D"]],"coinWeights":[0.2,0.5,0.8],"subjectId":"A1MKCTVKE7J0ZP","assignmentId":"3KV0LJBBH37WHZ8HHXAV7LXA0V5RMU","hitId":"3AQN9REUTF20OMGWRXYK787QVFOYDP","url":"https://gershmanlab.com/experiments/alicia/teaching/experiment/?hitId=3AQN9REUTF20OMGWRXYK787QVFOYDP&workerId=A1MKCTVKE7J0ZP&assignmentId=3KV0LJBBH37WHZ8HHXAV7LXA0V5RMU&a=BLVK9&tp_a=BLVK9&b=3KV0LJBBH37WHZ8HHXAV7LXA0V5RMU&tp_b=3KV0LJBBH37WHZ8HHXAV7LXA0V5RMU&c=365799&tp_c=365799","heads":8,"tails":8,"studentIndex":23,"studentTrueHypers":{"a":2,"b":8},"studentGuess":0.38461538461538464,"delta":0.11538461538461536,"totalExamples":16,"bonus":0,"bonusSoFar":1.31},{"rt":80880,"response":{"gender":"female","age":"32","understood":"yes","comments":"I feel like practice trials with feedback would have helped a lot. Although I understood the instructions, I never had the sense during the game that I was performing optimally or that I understood the logic behind the student's guesses."},"type":"response","trial_type":"survey-html-form","trial_index":191,"time_elapsed":1313718,"internal_node_id":"0.0-191.0","params":{"nStudents":24,"maxFlips":30,"completionMinutes":45,"basePay":8,"maxBonus":9,"perTrialBonus":0.5,"perTrialBonusThreshold":0.05,"exampleCost":0.01},"classroomParams":{"A":{"a":1,"b":4},"B":{"a":4,"b":1},"C":{"a":2,"b":8},"D":{"a":8,"b":2}},"conditions":["nonSeqFull","nonSeqPartial","seqNoFeedback","seqFeedback"],"classroomPairings":[["A","B"],["C","D"]],"coinWeights":[0.2,0.5,0.8],"subjectId":"A1MKCTVKE7J0ZP","assignmentId":"3KV0LJBBH37WHZ8HHXAV7LXA0V5RMU","hitId":"3AQN9REUTF20OMGWRXYK787QVFOYDP","url":"https://gershmanlab.com/experiments/alicia/teaching/experiment/?hitId=3AQN9REUTF20OMGWRXYK787QVFOYDP&workerId=A1MKCTVKE7J0ZP&assignmentId=3KV0LJBBH37WHZ8HHXAV7LXA0V5RMU&a=BLVK9&tp_a=BLVK9&b=3KV0LJBBH37WHZ8HHXAV7LXA0V5RMU&tp_b=3KV0LJBBH37WHZ8HHXAV7LXA0V5RMU&c=365799&tp_c=365799","totalBonus":1.31}]