[{"rt":37997,"response":{"heads":"10","tails":"1"},"type":"response","condition":"seqFeedback","trueTheta":0.8,"classrooms":["A","B"],"studentTrueClassroom":"B","exampleSet":"first","trial_type":"survey-html-form","trial_index":7,"time_elapsed":662688,"internal_node_id":"0.0-6.0-0.0","params":{"nStudents":24,"maxFlips":30,"completionMinutes":45,"basePay":8,"maxBonus":9,"perTrialBonus":0.5,"perTrialBonusThreshold":0.05,"exampleCost":0.01},"classroomParams":{"A":{"a":1,"b":4},"B":{"a":4,"b":1},"C":{"a":2,"b":8},"D":{"a":8,"b":2}},"conditions":["nonSeqFull","nonSeqPartial","seqNoFeedback","seqFeedback"],"classroomPairings":[["A","B"],["C","D"]],"coinWeights":[0.2,0.5,0.8],"subjectId":"A1NFBKUYYVUYWF","assignmentId":"3Z4AIRP3C7ZJI684XAXPCBVV30G1XB","hitId":"3FJ2RVH25ZSYKBA8MWMNC8NVPF629N","url":"https://gershmanlab.com/experiments/alicia/teaching/experiment/?hitId=3FJ2RVH25ZSYKBA8MWMNC8NVPF629N&workerId=A1NFBKUYYVUYWF&assignmentId=3Z4AIRP3C7ZJI684XAXPCBVV30G1XB&a=3I4Z7&tp_a=3I4Z7&b=3Z4AIRP3C7ZJI684XAXPCBVV30G1XB&tp_b=3Z4AIRP3C7ZJI684XAXPCBVV30G1XB&c=365717&tp_c=365717","heads":10,"tails":1,"studentIndex":0,"studentTrueHypers":{"a":4,"b":1},"studentGuess":0.875,"delta":0.07499999999999996,"totalExamples":11,"bonusSoFar":0},{"rt":24444,"response":{"heads":"8","tails":"0"},"type":"response","condition":"seqFeedback","trueTheta":0.8,"classrooms":["A","B"],"studentTrueClassroom":"B","exampleSet":"second","trial_type":"survey-html-form","trial_index":11,"time_elapsed":703405,"internal_node_id":"0.0-10.0-0.0","params":{"nStudents":24,"maxFlips":30,"completionMinutes":45,"basePay":8,"maxBonus":9,"perTrialBonus":0.5,"perTrialBonusThreshold":0.05,"exampleCost":0.01},"classroomParams":{"A":{"a":1,"b":4},"B":{"a":4,"b":1},"C":{"a":2,"b":8},"D":{"a":8,"b":2}},"conditions":["nonSeqFull","nonSeqPartial","seqNoFeedback","seqFeedback"],"classroomPairings":[["A","B"],["C","D"]],"coinWeights":[0.2,0.5,0.8],"subjectId":"A1NFBKUYYVUYWF","assignmentId":"3Z4AIRP3C7ZJI684XAXPCBVV30G1XB","hitId":"3FJ2RVH25ZSYKBA8MWMNC8NVPF629N","url":"https://gershmanlab.com/experiments/alicia/teaching/experiment/?hitId=3FJ2RVH25ZSYKBA8MWMNC8NVPF629N&workerId=A1NFBKUYYVUYWF&assignmentId=3Z4AIRP3C7ZJI684XAXPCBVV30G1XB&a=3I4Z7&tp_a=3I4Z7&b=3Z4AIRP3C7ZJI684XAXPCBVV30G1XB&tp_b=3Z4AIRP3C7ZJI684XAXPCBVV30G1XB&c=365717&tp_c=365717","firstResponseHeads":10,"firstResponseTails":1,"secondResponseHeads":8,"secondResponseTails":0,"totalHeads":18,"totalTails":1,"studentIndex":0,"studentTrueHypers":{"a":4,"b":1},"studentGuess":0.9166666666666666,"delta":0.11666666666666659,"bonus":0,"bonusSoFar":0,"totalExamples":19},{"rt":36178,"response":{"heads":"8","tails":"2"},"type":"response","condition":"nonSeqPartial","trueTheta":0.8,"classrooms":["A","B"],"studentTrueClassroom":"A","exampleSet":"first","trial_type":"survey-html-form","trial_index":17,"time_elapsed":757916,"internal_node_id":"0.0-16.0-0.0","params":{"nStudents":24,"maxFlips":30,"completionMinutes":45,"basePay":8,"maxBonus":9,"perTrialBonus":0.5,"perTrialBonusThreshold":0.05,"exampleCost":0.01},"classroomParams":{"A":{"a":1,"b":4},"B":{"a":4,"b":1},"C":{"a":2,"b":8},"D":{"a":8,"b":2}},"conditions":["nonSeqFull","nonSeqPartial","seqNoFeedback","seqFeedback"],"classroomPairings":[["A","B"],["C","D"]],"coinWeights":[0.2,0.5,0.8],"subjectId":"A1NFBKUYYVUYWF","assignmentId":"3Z4AIRP3C7ZJI684XAXPCBVV30G1XB","hitId":"3FJ2RVH25ZSYKBA8MWMNC8NVPF629N","url":"https://gershmanlab.com/experiments/alicia/teaching/experiment/?hitId=3FJ2RVH25ZSYKBA8MWMNC8NVPF629N&workerId=A1NFBKUYYVUYWF&assignmentId=3Z4AIRP3C7ZJI684XAXPCBVV30G1XB&a=3I4Z7&tp_a=3I4Z7&b=3Z4AIRP3C7ZJI684XAXPCBVV30G1XB&tp_b=3Z4AIRP3C7ZJI684XAXPCBVV30G1XB&c=365717&tp_c=365717","heads":8,"tails":2,"studentIndex":1,"studentTrueHypers":{"a":1,"b":4},"studentGuess":0.6,"delta":0.20000000000000007,"totalExamples":10,"bonus":0,"bonusSoFar":0},{"rt":18847,"response":{"heads":"2","tails":"8"},"type":"response","condition":"seqFeedback","trueTheta":0.2,"classrooms":["C","D"],"studentTrueClassroom":"C","exampleSet":"first","trial_type":"survey-html-form","trial_index":23,"time_elapsed":800579,"internal_node_id":"0.0-22.0-0.0","params":{"nStudents":24,"maxFlips":30,"completionMinutes":45,"basePay":8,"maxBonus":9,"perTrialBonus":0.5,"perTrialBonusThreshold":0.05,"exampleCost":0.01},"classroomParams":{"A":{"a":1,"b":4},"B":{"a":4,"b":1},"C":{"a":2,"b":8},"D":{"a":8,"b":2}},"conditions":["nonSeqFull","nonSeqPartial","seqNoFeedback","seqFeedback"],"classroomPairings":[["A","B"],["C","D"]],"coinWeights":[0.2,0.5,0.8],"subjectId":"A1NFBKUYYVUYWF","assignmentId":"3Z4AIRP3C7ZJI684XAXPCBVV30G1XB","hitId":"3FJ2RVH25ZSYKBA8MWMNC8NVPF629N","url":"https://gershmanlab.com/experiments/alicia/teaching/experiment/?hitId=3FJ2RVH25ZSYKBA8MWMNC8NVPF629N&workerId=A1NFBKUYYVUYWF&assignmentId=3Z4AIRP3C7ZJI684XAXPCBVV30G1XB&a=3I4Z7&tp_a=3I4Z7&b=3Z4AIRP3C7ZJI684XAXPCBVV30G1XB&tp_b=3Z4AIRP3C7ZJI684XAXPCBVV30G1XB&c=365717&tp_c=365717","heads":2,"tails":8,"studentIndex":2,"studentTrueHypers":{"a":2,"b":8},"studentGuess":0.2,"delta":0,"totalExamples":10,"bonusSoFar":0},{"rt":18235,"response":{"heads":"2","tails":"8"},"type":"response","condition":"seqFeedback","trueTheta":0.2,"classrooms":["C","D"],"studentTrueClassroom":"C","exampleSet":"second","trial_type":"survey-html-form","trial_index":27,"time_elapsed":831497,"internal_node_id":"0.0-26.0-0.0","params":{"nStudents":24,"maxFlips":30,"completionMinutes":45,"basePay":8,"maxBonus":9,"perTrialBonus":0.5,"perTrialBonusThreshold":0.05,"exampleCost":0.01},"classroomParams":{"A":{"a":1,"b":4},"B":{"a":4,"b":1},"C":{"a":2,"b":8},"D":{"a":8,"b":2}},"conditions":["nonSeqFull","nonSeqPartial","seqNoFeedback","seqFeedback"],"classroomPairings":[["A","B"],["C","D"]],"coinWeights":[0.2,0.5,0.8],"subjectId":"A1NFBKUYYVUYWF","assignmentId":"3Z4AIRP3C7ZJI684XAXPCBVV30G1XB","hitId":"3FJ2RVH25ZSYKBA8MWMNC8NVPF629N","url":"https://gershmanlab.com/experiments/alicia/teaching/experiment/?hitId=3FJ2RVH25ZSYKBA8MWMNC8NVPF629N&workerId=A1NFBKUYYVUYWF&assignmentId=3Z4AIRP3C7ZJI684XAXPCBVV30G1XB&a=3I4Z7&tp_a=3I4Z7&b=3Z4AIRP3C7ZJI684XAXPCBVV30G1XB&tp_b=3Z4AIRP3C7ZJI684XAXPCBVV30G1XB&c=365717&tp_c=365717","firstResponseHeads":2,"firstResponseTails":8,"secondResponseHeads":2,"secondResponseTails":8,"totalHeads":4,"totalTails":16,"studentIndex":2,"studentTrueHypers":{"a":2,"b":8},"studentGuess":0.2,"delta":0,"bonus":0.3,"bonusSoFar":0.3,"totalExamples":20},{"rt":20475,"response":{"heads":"8","tails":"2"},"type":"response","condition":"nonSeqPartial","trueTheta":0.8,"classrooms":["C","D"],"studentTrueClassroom":"C","exampleSet":"first","trial_type":"survey-html-form","trial_index":33,"time_elapsed":867595,"internal_node_id":"0.0-32.0-0.0","params":{"nStudents":24,"maxFlips":30,"completionMinutes":45,"basePay":8,"maxBonus":9,"perTrialBonus":0.5,"perTrialBonusThreshold":0.05,"exampleCost":0.01},"classroomParams":{"A":{"a":1,"b":4},"B":{"a":4,"b":1},"C":{"a":2,"b":8},"D":{"a":8,"b":2}},"conditions":["nonSeqFull","nonSeqPartial","seqNoFeedback","seqFeedback"],"classroomPairings":[["A","B"],["C","D"]],"coinWeights":[0.2,0.5,0.8],"subjectId":"A1NFBKUYYVUYWF","assignmentId":"3Z4AIRP3C7ZJI684XAXPCBVV30G1XB","hitId":"3FJ2RVH25ZSYKBA8MWMNC8NVPF629N","url":"https://gershmanlab.com/experiments/alicia/teaching/experiment/?hitId=3FJ2RVH25ZSYKBA8MWMNC8NVPF629N&workerId=A1NFBKUYYVUYWF&assignmentId=3Z4AIRP3C7ZJI684XAXPCBVV30G1XB&a=3I4Z7&tp_a=3I4Z7&b=3Z4AIRP3C7ZJI684XAXPCBVV30G1XB&tp_b=3Z4AIRP3C7ZJI684XAXPCBVV30G1XB&c=365717&tp_c=365717","heads":8,"tails":2,"studentIndex":3,"studentTrueHypers":{"a":2,"b":8},"studentGuess":0.5,"delta":0.30000000000000004,"totalExamples":10,"bonus":0,"bonusSoFar":0.3},{"rt":11379,"response":{"heads":"2","tails":"8"},"type":"response","condition":"seqNoFeedback","trueTheta":0.2,"classrooms":["C","D"],"studentTrueClassroom":"C","exampleSet":"first","trial_type":"survey-html-form","trial_index":39,"time_elapsed":897593,"internal_node_id":"0.0-38.0-0.0","params":{"nStudents":24,"maxFlips":30,"completionMinutes":45,"basePay":8,"maxBonus":9,"perTrialBonus":0.5,"perTrialBonusThreshold":0.05,"exampleCost":0.01},"classroomParams":{"A":{"a":1,"b":4},"B":{"a":4,"b":1},"C":{"a":2,"b":8},"D":{"a":8,"b":2}},"conditions":["nonSeqFull","nonSeqPartial","seqNoFeedback","seqFeedback"],"classroomPairings":[["A","B"],["C","D"]],"coinWeights":[0.2,0.5,0.8],"subjectId":"A1NFBKUYYVUYWF","assignmentId":"3Z4AIRP3C7ZJI684XAXPCBVV30G1XB","hitId":"3FJ2RVH25ZSYKBA8MWMNC8NVPF629N","url":"https://gershmanlab.com/experiments/alicia/teaching/experiment/?hitId=3FJ2RVH25ZSYKBA8MWMNC8NVPF629N&workerId=A1NFBKUYYVUYWF&assignmentId=3Z4AIRP3C7ZJI684XAXPCBVV30G1XB&a=3I4Z7&tp_a=3I4Z7&b=3Z4AIRP3C7ZJI684XAXPCBVV30G1XB&tp_b=3Z4AIRP3C7ZJI684XAXPCBVV30G1XB&c=365717&tp_c=365717","heads":2,"tails":8,"studentIndex":4,"studentTrueHypers":{"a":2,"b":8},"studentGuess":0.2,"delta":0,"totalExamples":10,"bonusSoFar":0.3},{"rt":20693,"response":{"heads":"4","tails":"16"},"type":"response","condition":"seqNoFeedback","trueTheta":0.2,"classrooms":["C","D"],"studentTrueClassroom":"C","exampleSet":"second","trial_type":"survey-html-form","trial_index":42,"time_elapsed":924053,"internal_node_id":"0.0-41.0-0.0","params":{"nStudents":24,"maxFlips":30,"completionMinutes":45,"basePay":8,"maxBonus":9,"perTrialBonus":0.5,"perTrialBonusThreshold":0.05,"exampleCost":0.01},"classroomParams":{"A":{"a":1,"b":4},"B":{"a":4,"b":1},"C":{"a":2,"b":8},"D":{"a":8,"b":2}},"conditions":["nonSeqFull","nonSeqPartial","seqNoFeedback","seqFeedback"],"classroomPairings":[["A","B"],["C","D"]],"coinWeights":[0.2,0.5,0.8],"subjectId":"A1NFBKUYYVUYWF","assignmentId":"3Z4AIRP3C7ZJI684XAXPCBVV30G1XB","hitId":"3FJ2RVH25ZSYKBA8MWMNC8NVPF629N","url":"https://gershmanlab.com/experiments/alicia/teaching/experiment/?hitId=3FJ2RVH25ZSYKBA8MWMNC8NVPF629N&workerId=A1NFBKUYYVUYWF&assignmentId=3Z4AIRP3C7ZJI684XAXPCBVV30G1XB&a=3I4Z7&tp_a=3I4Z7&b=3Z4AIRP3C7ZJI684XAXPCBVV30G1XB&tp_b=3Z4AIRP3C7ZJI684XAXPCBVV30G1XB&c=365717&tp_c=365717","firstResponseHeads":2,"firstResponseTails":8,"secondResponseHeads":4,"secondResponseTails":16,"totalHeads":6,"totalTails":24,"studentIndex":4,"studentTrueHypers":{"a":2,"b":8},"studentGuess":0.2,"delta":0,"bonus":0.2,"bonusSoFar":0.5,"totalExamples":30},{"rt":9045,"response":{"heads":"4","tails":"4"},"type":"response","condition":"seqNoFeedback","trueTheta":0.5,"classrooms":["C","D"],"studentTrueClassroom":"C","exampleSet":"first","trial_type":"survey-html-form","trial_index":48,"time_elapsed":954873,"internal_node_id":"0.0-47.0-0.0","params":{"nStudents":24,"maxFlips":30,"completionMinutes":45,"basePay":8,"maxBonus":9,"perTrialBonus":0.5,"perTrialBonusThreshold":0.05,"exampleCost":0.01},"classroomParams":{"A":{"a":1,"b":4},"B":{"a":4,"b":1},"C":{"a":2,"b":8},"D":{"a":8,"b":2}},"conditions":["nonSeqFull","nonSeqPartial","seqNoFeedback","seqFeedback"],"classroomPairings":[["A","B"],["C","D"]],"coinWeights":[0.2,0.5,0.8],"subjectId":"A1NFBKUYYVUYWF","assignmentId":"3Z4AIRP3C7ZJI684XAXPCBVV30G1XB","hitId":"3FJ2RVH25ZSYKBA8MWMNC8NVPF629N","url":"https://gershmanlab.com/experiments/alicia/teaching/experiment/?hitId=3FJ2RVH25ZSYKBA8MWMNC8NVPF629N&workerId=A1NFBKUYYVUYWF&assignmentId=3Z4AIRP3C7ZJI684XAXPCBVV30G1XB&a=3I4Z7&tp_a=3I4Z7&b=3Z4AIRP3C7ZJI684XAXPCBVV30G1XB&tp_b=3Z4AIRP3C7ZJI684XAXPCBVV30G1XB&c=365717&tp_c=365717","heads":4,"tails":4,"studentIndex":5,"studentTrueHypers":{"a":2,"b":8},"studentGuess":0.3333333333333333,"delta":0.16666666666666669,"totalExamples":8,"bonusSoFar":0.5},{"rt":11672,"response":{"heads":"10","tails":"10"},"type":"response","condition":"seqNoFeedback","trueTheta":0.5,"classrooms":["C","D"],"studentTrueClassroom":"C","exampleSet":"second","trial_type":"survey-html-form","trial_index":51,"time_elapsed":972314,"internal_node_id":"0.0-50.0-0.0","params":{"nStudents":24,"maxFlips":30,"completionMinutes":45,"basePay":8,"maxBonus":9,"perTrialBonus":0.5,"perTrialBonusThreshold":0.05,"exampleCost":0.01},"classroomParams":{"A":{"a":1,"b":4},"B":{"a":4,"b":1},"C":{"a":2,"b":8},"D":{"a":8,"b":2}},"conditions":["nonSeqFull","nonSeqPartial","seqNoFeedback","seqFeedback"],"classroomPairings":[["A","B"],["C","D"]],"coinWeights":[0.2,0.5,0.8],"subjectId":"A1NFBKUYYVUYWF","assignmentId":"3Z4AIRP3C7ZJI684XAXPCBVV30G1XB","hitId":"3FJ2RVH25ZSYKBA8MWMNC8NVPF629N","url":"https://gershmanlab.com/experiments/alicia/teaching/experiment/?hitId=3FJ2RVH25ZSYKBA8MWMNC8NVPF629N&workerId=A1NFBKUYYVUYWF&assignmentId=3Z4AIRP3C7ZJI684XAXPCBVV30G1XB&a=3I4Z7&tp_a=3I4Z7&b=3Z4AIRP3C7ZJI684XAXPCBVV30G1XB&tp_b=3Z4AIRP3C7ZJI684XAXPCBVV30G1XB&c=365717&tp_c=365717","firstResponseHeads":4,"firstResponseTails":4,"secondResponseHeads":10,"secondResponseTails":10,"totalHeads":14,"totalTails":14,"studentIndex":5,"studentTrueHypers":{"a":2,"b":8},"studentGuess":0.42105263157894735,"delta":0.07894736842105265,"bonus":0,"bonusSoFar":0.5,"totalExamples":28},{"rt":8391,"response":{"heads":"5","tails":"5"},"type":"response","condition":"seqFeedback","trueTheta":0.5,"classrooms":["C","D"],"studentTrueClassroom":"D","exampleSet":"first","trial_type":"survey-html-form","trial_index":57,"time_elapsed":1004434,"internal_node_id":"0.0-56.0-0.0","params":{"nStudents":24,"maxFlips":30,"completionMinutes":45,"basePay":8,"maxBonus":9,"perTrialBonus":0.5,"perTrialBonusThreshold":0.05,"exampleCost":0.01},"classroomParams":{"A":{"a":1,"b":4},"B":{"a":4,"b":1},"C":{"a":2,"b":8},"D":{"a":8,"b":2}},"conditions":["nonSeqFull","nonSeqPartial","seqNoFeedback","seqFeedback"],"classroomPairings":[["A","B"],["C","D"]],"coinWeights":[0.2,0.5,0.8],"subjectId":"A1NFBKUYYVUYWF","assignmentId":"3Z4AIRP3C7ZJI684XAXPCBVV30G1XB","hitId":"3FJ2RVH25ZSYKBA8MWMNC8NVPF629N","url":"https://gershmanlab.com/experiments/alicia/teaching/experiment/?hitId=3FJ2RVH25ZSYKBA8MWMNC8NVPF629N&workerId=A1NFBKUYYVUYWF&assignmentId=3Z4AIRP3C7ZJI684XAXPCBVV30G1XB&a=3I4Z7&tp_a=3I4Z7&b=3Z4AIRP3C7ZJI684XAXPCBVV30G1XB&tp_b=3Z4AIRP3C7ZJI684XAXPCBVV30G1XB&c=365717&tp_c=365717","heads":5,"tails":5,"studentIndex":6,"studentTrueHypers":{"a":8,"b":2},"studentGuess":0.65,"delta":0.15000000000000002,"totalExamples":10,"bonusSoFar":0.5},{"rt":23669,"response":{"heads":"15","tails":"15"},"type":"response","condition":"seqFeedback","trueTheta":0.5,"classrooms":["C","D"],"studentTrueClassroom":"D","exampleSet":"second","trial_type":"survey-html-form","trial_index":61,"time_elapsed":1045842,"internal_node_id":"0.0-60.0-0.0","params":{"nStudents":24,"maxFlips":30,"completionMinutes":45,"basePay":8,"maxBonus":9,"perTrialBonus":0.5,"perTrialBonusThreshold":0.05,"exampleCost":0.01},"classroomParams":{"A":{"a":1,"b":4},"B":{"a":4,"b":1},"C":{"a":2,"b":8},"D":{"a":8,"b":2}},"conditions":["nonSeqFull","nonSeqPartial","seqNoFeedback","seqFeedback"],"classroomPairings":[["A","B"],["C","D"]],"coinWeights":[0.2,0.5,0.8],"subjectId":"A1NFBKUYYVUYWF","assignmentId":"3Z4AIRP3C7ZJI684XAXPCBVV30G1XB","hitId":"3FJ2RVH25ZSYKBA8MWMNC8NVPF629N","url":"https://gershmanlab.com/experiments/alicia/teaching/experiment/?hitId=3FJ2RVH25ZSYKBA8MWMNC8NVPF629N&workerId=A1NFBKUYYVUYWF&assignmentId=3Z4AIRP3C7ZJI684XAXPCBVV30G1XB&a=3I4Z7&tp_a=3I4Z7&b=3Z4AIRP3C7ZJI684XAXPCBVV30G1XB&tp_b=3Z4AIRP3C7ZJI684XAXPCBVV30G1XB&c=365717&tp_c=365717","firstResponseHeads":5,"firstResponseTails":5,"secondResponseHeads":15,"secondResponseTails":15,"totalHeads":20,"totalTails":20,"studentIndex":6,"studentTrueHypers":{"a":8,"b":2},"studentGuess":0.56,"delta":0.06000000000000005,"bonus":0,"bonusSoFar":0.5,"totalExamples":40},{"rt":16685,"response":{"heads":"16","tails":"4"},"type":"response","condition":"nonSeqFull","trueTheta":0.8,"classrooms":["C","D"],"studentTrueClassroom":"D","exampleSet":"first","trial_type":"survey-html-form","trial_index":67,"time_elapsed":1090683,"internal_node_id":"0.0-66.0-0.0","params":{"nStudents":24,"maxFlips":30,"completionMinutes":45,"basePay":8,"maxBonus":9,"perTrialBonus":0.5,"perTrialBonusThreshold":0.05,"exampleCost":0.01},"classroomParams":{"A":{"a":1,"b":4},"B":{"a":4,"b":1},"C":{"a":2,"b":8},"D":{"a":8,"b":2}},"conditions":["nonSeqFull","nonSeqPartial","seqNoFeedback","seqFeedback"],"classroomPairings":[["A","B"],["C","D"]],"coinWeights":[0.2,0.5,0.8],"subjectId":"A1NFBKUYYVUYWF","assignmentId":"3Z4AIRP3C7ZJI684XAXPCBVV30G1XB","hitId":"3FJ2RVH25ZSYKBA8MWMNC8NVPF629N","url":"https://gershmanlab.com/experiments/alicia/teaching/experiment/?hitId=3FJ2RVH25ZSYKBA8MWMNC8NVPF629N&workerId=A1NFBKUYYVUYWF&assignmentId=3Z4AIRP3C7ZJI684XAXPCBVV30G1XB&a=3I4Z7&tp_a=3I4Z7&b=3Z4AIRP3C7ZJI684XAXPCBVV30G1XB&tp_b=3Z4AIRP3C7ZJI684XAXPCBVV30G1XB&c=365717&tp_c=365717","heads":16,"tails":4,"studentIndex":7,"studentTrueHypers":{"a":8,"b":2},"studentGuess":0.8,"delta":0,"totalExamples":20,"bonus":0.3,"bonusSoFar":0.8},{"rt":49167,"response":{"heads":"15","tails":"1"},"type":"response","condition":"nonSeqFull","trueTheta":0.8,"classrooms":["A","B"],"studentTrueClassroom":"A","exampleSet":"first","trial_type":"survey-html-form","trial_index":73,"time_elapsed":1154267,"internal_node_id":"0.0-72.0-0.0","params":{"nStudents":24,"maxFlips":30,"completionMinutes":45,"basePay":8,"maxBonus":9,"perTrialBonus":0.5,"perTrialBonusThreshold":0.05,"exampleCost":0.01},"classroomParams":{"A":{"a":1,"b":4},"B":{"a":4,"b":1},"C":{"a":2,"b":8},"D":{"a":8,"b":2}},"conditions":["nonSeqFull","nonSeqPartial","seqNoFeedback","seqFeedback"],"classroomPairings":[["A","B"],["C","D"]],"coinWeights":[0.2,0.5,0.8],"subjectId":"A1NFBKUYYVUYWF","assignmentId":"3Z4AIRP3C7ZJI684XAXPCBVV30G1XB","hitId":"3FJ2RVH25ZSYKBA8MWMNC8NVPF629N","url":"https://gershmanlab.com/experiments/alicia/teaching/experiment/?hitId=3FJ2RVH25ZSYKBA8MWMNC8NVPF629N&workerId=A1NFBKUYYVUYWF&assignmentId=3Z4AIRP3C7ZJI684XAXPCBVV30G1XB&a=3I4Z7&tp_a=3I4Z7&b=3Z4AIRP3C7ZJI684XAXPCBVV30G1XB&tp_b=3Z4AIRP3C7ZJI684XAXPCBVV30G1XB&c=365717&tp_c=365717","heads":15,"tails":1,"studentIndex":8,"studentTrueHypers":{"a":1,"b":4},"studentGuess":0.7619047619047619,"delta":0.03809523809523818,"totalExamples":16,"bonus":0.34,"bonusSoFar":1.14},{"rt":47123,"response":{"heads":"4","tails":"16"},"type":"response","condition":"nonSeqPartial","trueTheta":0.2,"classrooms":["C","D"],"studentTrueClassroom":"D","exampleSet":"first","trial_type":"survey-html-form","trial_index":79,"time_elapsed":1220696,"internal_node_id":"0.0-78.0-0.0","params":{"nStudents":24,"maxFlips":30,"completionMinutes":45,"basePay":8,"maxBonus":9,"perTrialBonus":0.5,"perTrialBonusThreshold":0.05,"exampleCost":0.01},"classroomParams":{"A":{"a":1,"b":4},"B":{"a":4,"b":1},"C":{"a":2,"b":8},"D":{"a":8,"b":2}},"conditions":["nonSeqFull","nonSeqPartial","seqNoFeedback","seqFeedback"],"classroomPairings":[["A","B"],["C","D"]],"coinWeights":[0.2,0.5,0.8],"subjectId":"A1NFBKUYYVUYWF","assignmentId":"3Z4AIRP3C7ZJI684XAXPCBVV30G1XB","hitId":"3FJ2RVH25ZSYKBA8MWMNC8NVPF629N","url":"https://gershmanlab.com/experiments/alicia/teaching/experiment/?hitId=3FJ2RVH25ZSYKBA8MWMNC8NVPF629N&workerId=A1NFBKUYYVUYWF&assignmentId=3Z4AIRP3C7ZJI684XAXPCBVV30G1XB&a=3I4Z7&tp_a=3I4Z7&b=3Z4AIRP3C7ZJI684XAXPCBVV30G1XB&tp_b=3Z4AIRP3C7ZJI684XAXPCBVV30G1XB&c=365717&tp_c=365717","heads":4,"tails":16,"studentIndex":9,"studentTrueHypers":{"a":8,"b":2},"studentGuess":0.4,"delta":0.2,"totalExamples":20,"bonus":0,"bonusSoFar":1.14},{"rt":9581,"response":{"heads":"15","tails":"15"},"type":"response","condition":"nonSeqPartial","trueTheta":0.5,"classrooms":["C","D"],"studentTrueClassroom":"D","exampleSet":"first","trial_type":"survey-html-form","trial_index":85,"time_elapsed":1245698,"internal_node_id":"0.0-84.0-0.0","params":{"nStudents":24,"maxFlips":30,"completionMinutes":45,"basePay":8,"maxBonus":9,"perTrialBonus":0.5,"perTrialBonusThreshold":0.05,"exampleCost":0.01},"classroomParams":{"A":{"a":1,"b":4},"B":{"a":4,"b":1},"C":{"a":2,"b":8},"D":{"a":8,"b":2}},"conditions":["nonSeqFull","nonSeqPartial","seqNoFeedback","seqFeedback"],"classroomPairings":[["A","B"],["C","D"]],"coinWeights":[0.2,0.5,0.8],"subjectId":"A1NFBKUYYVUYWF","assignmentId":"3Z4AIRP3C7ZJI684XAXPCBVV30G1XB","hitId":"3FJ2RVH25ZSYKBA8MWMNC8NVPF629N","url":"https://gershmanlab.com/experiments/alicia/teaching/experiment/?hitId=3FJ2RVH25ZSYKBA8MWMNC8NVPF629N&workerId=A1NFBKUYYVUYWF&assignmentId=3Z4AIRP3C7ZJI684XAXPCBVV30G1XB&a=3I4Z7&tp_a=3I4Z7&b=3Z4AIRP3C7ZJI684XAXPCBVV30G1XB&tp_b=3Z4AIRP3C7ZJI684XAXPCBVV30G1XB&c=365717&tp_c=365717","heads":15,"tails":15,"studentIndex":10,"studentTrueHypers":{"a":8,"b":2},"studentGuess":0.575,"delta":0.07499999999999996,"totalExamples":30,"bonus":0,"bonusSoFar":1.14},{"rt":14813,"response":{"heads":"15","tails":"15"},"type":"response","condition":"seqNoFeedback","trueTheta":0.5,"classrooms":["A","B"],"studentTrueClassroom":"A","exampleSet":"first","trial_type":"survey-html-form","trial_index":91,"time_elapsed":1276202,"internal_node_id":"0.0-90.0-0.0","params":{"nStudents":24,"maxFlips":30,"completionMinutes":45,"basePay":8,"maxBonus":9,"perTrialBonus":0.5,"perTrialBonusThreshold":0.05,"exampleCost":0.01},"classroomParams":{"A":{"a":1,"b":4},"B":{"a":4,"b":1},"C":{"a":2,"b":8},"D":{"a":8,"b":2}},"conditions":["nonSeqFull","nonSeqPartial","seqNoFeedback","seqFeedback"],"classroomPairings":[["A","B"],["C","D"]],"coinWeights":[0.2,0.5,0.8],"subjectId":"A1NFBKUYYVUYWF","assignmentId":"3Z4AIRP3C7ZJI684XAXPCBVV30G1XB","hitId":"3FJ2RVH25ZSYKBA8MWMNC8NVPF629N","url":"https://gershmanlab.com/experiments/alicia/teaching/experiment/?hitId=3FJ2RVH25ZSYKBA8MWMNC8NVPF629N&workerId=A1NFBKUYYVUYWF&assignmentId=3Z4AIRP3C7ZJI684XAXPCBVV30G1XB&a=3I4Z7&tp_a=3I4Z7&b=3Z4AIRP3C7ZJI684XAXPCBVV30G1XB&tp_b=3Z4AIRP3C7ZJI684XAXPCBVV30G1XB&c=365717&tp_c=365717","heads":15,"tails":15,"studentIndex":11,"studentTrueHypers":{"a":1,"b":4},"studentGuess":0.45714285714285713,"delta":0.04285714285714287,"totalExamples":30,"bonusSoFar":1.14},{"rt":10376,"response":{"heads":"10","tails":"10"},"type":"response","condition":"seqNoFeedback","trueTheta":0.5,"classrooms":["A","B"],"studentTrueClassroom":"A","exampleSet":"second","trial_type":"survey-html-form","trial_index":94,"time_elapsed":1293596,"internal_node_id":"0.0-93.0-0.0","params":{"nStudents":24,"maxFlips":30,"completionMinutes":45,"basePay":8,"maxBonus":9,"perTrialBonus":0.5,"perTrialBonusThreshold":0.05,"exampleCost":0.01},"classroomParams":{"A":{"a":1,"b":4},"B":{"a":4,"b":1},"C":{"a":2,"b":8},"D":{"a":8,"b":2}},"conditions":["nonSeqFull","nonSeqPartial","seqNoFeedback","seqFeedback"],"classroomPairings":[["A","B"],["C","D"]],"coinWeights":[0.2,0.5,0.8],"subjectId":"A1NFBKUYYVUYWF","assignmentId":"3Z4AIRP3C7ZJI684XAXPCBVV30G1XB","hitId":"3FJ2RVH25ZSYKBA8MWMNC8NVPF629N","url":"https://gershmanlab.com/experiments/alicia/teaching/experiment/?hitId=3FJ2RVH25ZSYKBA8MWMNC8NVPF629N&workerId=A1NFBKUYYVUYWF&assignmentId=3Z4AIRP3C7ZJI684XAXPCBVV30G1XB&a=3I4Z7&tp_a=3I4Z7&b=3Z4AIRP3C7ZJI684XAXPCBVV30G1XB&tp_b=3Z4AIRP3C7ZJI684XAXPCBVV30G1XB&c=365717&tp_c=365717","firstResponseHeads":15,"firstResponseTails":15,"secondResponseHeads":10,"secondResponseTails":10,"totalHeads":25,"totalTails":25,"studentIndex":11,"studentTrueHypers":{"a":1,"b":4},"studentGuess":0.4727272727272727,"delta":0.027272727272727282,"bonus":0,"bonusSoFar":1.14,"totalExamples":50},{"rt":30775,"response":{"heads":"2","tails":"8"},"type":"response","condition":"nonSeqFull","trueTheta":0.2,"classrooms":["A","B"],"studentTrueClassroom":"A","exampleSet":"first","trial_type":"survey-html-form","trial_index":100,"time_elapsed":1340070,"internal_node_id":"0.0-99.0-0.0","params":{"nStudents":24,"maxFlips":30,"completionMinutes":45,"basePay":8,"maxBonus":9,"perTrialBonus":0.5,"perTrialBonusThreshold":0.05,"exampleCost":0.01},"classroomParams":{"A":{"a":1,"b":4},"B":{"a":4,"b":1},"C":{"a":2,"b":8},"D":{"a":8,"b":2}},"conditions":["nonSeqFull","nonSeqPartial","seqNoFeedback","seqFeedback"],"classroomPairings":[["A","B"],["C","D"]],"coinWeights":[0.2,0.5,0.8],"subjectId":"A1NFBKUYYVUYWF","assignmentId":"3Z4AIRP3C7ZJI684XAXPCBVV30G1XB","hitId":"3FJ2RVH25ZSYKBA8MWMNC8NVPF629N","url":"https://gershmanlab.com/experiments/alicia/teaching/experiment/?hitId=3FJ2RVH25ZSYKBA8MWMNC8NVPF629N&workerId=A1NFBKUYYVUYWF&assignmentId=3Z4AIRP3C7ZJI684XAXPCBVV30G1XB&a=3I4Z7&tp_a=3I4Z7&b=3Z4AIRP3C7ZJI684XAXPCBVV30G1XB&tp_b=3Z4AIRP3C7ZJI684XAXPCBVV30G1XB&c=365717&tp_c=365717","heads":2,"tails":8,"studentIndex":12,"studentTrueHypers":{"a":1,"b":4},"studentGuess":0.2,"delta":0,"totalExamples":10,"bonus":0.4,"bonusSoFar":1.54},{"rt":12719,"response":{"heads":"15","tails":"15"},"type":"response","condition":"nonSeqPartial","trueTheta":0.5,"classrooms":["A","B"],"studentTrueClassroom":"A","exampleSet":"first","trial_type":"survey-html-form","trial_index":106,"time_elapsed":1377870,"internal_node_id":"0.0-105.0-0.0","params":{"nStudents":24,"maxFlips":30,"completionMinutes":45,"basePay":8,"maxBonus":9,"perTrialBonus":0.5,"perTrialBonusThreshold":0.05,"exampleCost":0.01},"classroomParams":{"A":{"a":1,"b":4},"B":{"a":4,"b":1},"C":{"a":2,"b":8},"D":{"a":8,"b":2}},"conditions":["nonSeqFull","nonSeqPartial","seqNoFeedback","seqFeedback"],"classroomPairings":[["A","B"],["C","D"]],"coinWeights":[0.2,0.5,0.8],"subjectId":"A1NFBKUYYVUYWF","assignmentId":"3Z4AIRP3C7ZJI684XAXPCBVV30G1XB","hitId":"3FJ2RVH25ZSYKBA8MWMNC8NVPF629N","url":"https://gershmanlab.com/experiments/alicia/teaching/experiment/?hitId=3FJ2RVH25ZSYKBA8MWMNC8NVPF629N&workerId=A1NFBKUYYVUYWF&assignmentId=3Z4AIRP3C7ZJI684XAXPCBVV30G1XB&a=3I4Z7&tp_a=3I4Z7&b=3Z4AIRP3C7ZJI684XAXPCBVV30G1XB&tp_b=3Z4AIRP3C7ZJI684XAXPCBVV30G1XB&c=365717&tp_c=365717","heads":15,"tails":15,"studentIndex":13,"studentTrueHypers":{"a":1,"b":4},"studentGuess":0.45714285714285713,"delta":0.04285714285714287,"totalExamples":30,"bonus":0.2,"bonusSoFar":1.74},{"rt":7969,"response":{"heads":"15","tails":"15"},"type":"response","condition":"seqFeedback","trueTheta":0.5,"classrooms":["A","B"],"studentTrueClassroom":"A","exampleSet":"first","trial_type":"survey-html-form","trial_index":112,"time_elapsed":1402913,"internal_node_id":"0.0-111.0-0.0","params":{"nStudents":24,"maxFlips":30,"completionMinutes":45,"basePay":8,"maxBonus":9,"perTrialBonus":0.5,"perTrialBonusThreshold":0.05,"exampleCost":0.01},"classroomParams":{"A":{"a":1,"b":4},"B":{"a":4,"b":1},"C":{"a":2,"b":8},"D":{"a":8,"b":2}},"conditions":["nonSeqFull","nonSeqPartial","seqNoFeedback","seqFeedback"],"classroomPairings":[["A","B"],["C","D"]],"coinWeights":[0.2,0.5,0.8],"subjectId":"A1NFBKUYYVUYWF","assignmentId":"3Z4AIRP3C7ZJI684XAXPCBVV30G1XB","hitId":"3FJ2RVH25ZSYKBA8MWMNC8NVPF629N","url":"https://gershmanlab.com/experiments/alicia/teaching/experiment/?hitId=3FJ2RVH25ZSYKBA8MWMNC8NVPF629N&workerId=A1NFBKUYYVUYWF&assignmentId=3Z4AIRP3C7ZJI684XAXPCBVV30G1XB&a=3I4Z7&tp_a=3I4Z7&b=3Z4AIRP3C7ZJI684XAXPCBVV30G1XB&tp_b=3Z4AIRP3C7ZJI684XAXPCBVV30G1XB&c=365717&tp_c=365717","heads":15,"tails":15,"studentIndex":14,"studentTrueHypers":{"a":1,"b":4},"studentGuess":0.45714285714285713,"delta":0.04285714285714287,"totalExamples":30,"bonusSoFar":1.74},{"rt":9839,"response":{"heads":"12","tails":"12"},"type":"response","condition":"seqFeedback","trueTheta":0.5,"classrooms":["A","B"],"studentTrueClassroom":"A","exampleSet":"second","trial_type":"survey-html-form","trial_index":116,"time_elapsed":1424568,"internal_node_id":"0.0-115.0-0.0","params":{"nStudents":24,"maxFlips":30,"completionMinutes":45,"basePay":8,"maxBonus":9,"perTrialBonus":0.5,"perTrialBonusThreshold":0.05,"exampleCost":0.01},"classroomParams":{"A":{"a":1,"b":4},"B":{"a":4,"b":1},"C":{"a":2,"b":8},"D":{"a":8,"b":2}},"conditions":["nonSeqFull","nonSeqPartial","seqNoFeedback","seqFeedback"],"classroomPairings":[["A","B"],["C","D"]],"coinWeights":[0.2,0.5,0.8],"subjectId":"A1NFBKUYYVUYWF","assignmentId":"3Z4AIRP3C7ZJI684XAXPCBVV30G1XB","hitId":"3FJ2RVH25ZSYKBA8MWMNC8NVPF629N","url":"https://gershmanlab.com/experiments/alicia/teaching/experiment/?hitId=3FJ2RVH25ZSYKBA8MWMNC8NVPF629N&workerId=A1NFBKUYYVUYWF&assignmentId=3Z4AIRP3C7ZJI684XAXPCBVV30G1XB&a=3I4Z7&tp_a=3I4Z7&b=3Z4AIRP3C7ZJI684XAXPCBVV30G1XB&tp_b=3Z4AIRP3C7ZJI684XAXPCBVV30G1XB&c=365717&tp_c=365717","firstResponseHeads":15,"firstResponseTails":15,"secondResponseHeads":12,"secondResponseTails":12,"totalHeads":27,"totalTails":27,"studentIndex":14,"studentTrueHypers":{"a":1,"b":4},"studentGuess":0.4745762711864407,"delta":0.02542372881355931,"bonus":0,"bonusSoFar":1.74,"totalExamples":54},{"rt":14201,"response":{"heads":"8","tails":"2"},"type":"response","condition":"seqFeedback","trueTheta":0.8,"classrooms":["C","D"],"studentTrueClassroom":"C","exampleSet":"first","trial_type":"survey-html-form","trial_index":122,"time_elapsed":1458383,"internal_node_id":"0.0-121.0-0.0","params":{"nStudents":24,"maxFlips":30,"completionMinutes":45,"basePay":8,"maxBonus":9,"perTrialBonus":0.5,"perTrialBonusThreshold":0.05,"exampleCost":0.01},"classroomParams":{"A":{"a":1,"b":4},"B":{"a":4,"b":1},"C":{"a":2,"b":8},"D":{"a":8,"b":2}},"conditions":["nonSeqFull","nonSeqPartial","seqNoFeedback","seqFeedback"],"classroomPairings":[["A","B"],["C","D"]],"coinWeights":[0.2,0.5,0.8],"subjectId":"A1NFBKUYYVUYWF","assignmentId":"3Z4AIRP3C7ZJI684XAXPCBVV30G1XB","hitId":"3FJ2RVH25ZSYKBA8MWMNC8NVPF629N","url":"https://gershmanlab.com/experiments/alicia/teaching/experiment/?hitId=3FJ2RVH25ZSYKBA8MWMNC8NVPF629N&workerId=A1NFBKUYYVUYWF&assignmentId=3Z4AIRP3C7ZJI684XAXPCBVV30G1XB&a=3I4Z7&tp_a=3I4Z7&b=3Z4AIRP3C7ZJI684XAXPCBVV30G1XB&tp_b=3Z4AIRP3C7ZJI684XAXPCBVV30G1XB&c=365717&tp_c=365717","heads":8,"tails":2,"studentIndex":15,"studentTrueHypers":{"a":2,"b":8},"studentGuess":0.5,"delta":0.30000000000000004,"totalExamples":10,"bonusSoFar":1.74},{"rt":48909,"response":{"heads":"12","tails":"6"},"type":"response","condition":"seqFeedback","trueTheta":0.8,"classrooms":["C","D"],"studentTrueClassroom":"C","exampleSet":"second","trial_type":"survey-html-form","trial_index":126,"time_elapsed":1518470,"internal_node_id":"0.0-125.0-0.0","params":{"nStudents":24,"maxFlips":30,"completionMinutes":45,"basePay":8,"maxBonus":9,"perTrialBonus":0.5,"perTrialBonusThreshold":0.05,"exampleCost":0.01},"classroomParams":{"A":{"a":1,"b":4},"B":{"a":4,"b":1},"C":{"a":2,"b":8},"D":{"a":8,"b":2}},"conditions":["nonSeqFull","nonSeqPartial","seqNoFeedback","seqFeedback"],"classroomPairings":[["A","B"],["C","D"]],"coinWeights":[0.2,0.5,0.8],"subjectId":"A1NFBKUYYVUYWF","assignmentId":"3Z4AIRP3C7ZJI684XAXPCBVV30G1XB","hitId":"3FJ2RVH25ZSYKBA8MWMNC8NVPF629N","url":"https://gershmanlab.com/experiments/alicia/teaching/experiment/?hitId=3FJ2RVH25ZSYKBA8MWMNC8NVPF629N&workerId=A1NFBKUYYVUYWF&assignmentId=3Z4AIRP3C7ZJI684XAXPCBVV30G1XB&a=3I4Z7&tp_a=3I4Z7&b=3Z4AIRP3C7ZJI684XAXPCBVV30G1XB&tp_b=3Z4AIRP3C7ZJI684XAXPCBVV30G1XB&c=365717&tp_c=365717","firstResponseHeads":8,"firstResponseTails":2,"secondResponseHeads":12,"secondResponseTails":6,"totalHeads":20,"totalTails":8,"studentIndex":15,"studentTrueHypers":{"a":2,"b":8},"studentGuess":0.5789473684210527,"delta":0.2210526315789474,"bonus":0,"bonusSoFar":1.74,"totalExamples":28},{"rt":6927,"response":{"heads":"2","tails":"8"},"type":"response","condition":"nonSeqFull","trueTheta":0.2,"classrooms":["C","D"],"studentTrueClassroom":"D","exampleSet":"first","trial_type":"survey-html-form","trial_index":132,"time_elapsed":1544076,"internal_node_id":"0.0-131.0-0.0","params":{"nStudents":24,"maxFlips":30,"completionMinutes":45,"basePay":8,"maxBonus":9,"perTrialBonus":0.5,"perTrialBonusThreshold":0.05,"exampleCost":0.01},"classroomParams":{"A":{"a":1,"b":4},"B":{"a":4,"b":1},"C":{"a":2,"b":8},"D":{"a":8,"b":2}},"conditions":["nonSeqFull","nonSeqPartial","seqNoFeedback","seqFeedback"],"classroomPairings":[["A","B"],["C","D"]],"coinWeights":[0.2,0.5,0.8],"subjectId":"A1NFBKUYYVUYWF","assignmentId":"3Z4AIRP3C7ZJI684XAXPCBVV30G1XB","hitId":"3FJ2RVH25ZSYKBA8MWMNC8NVPF629N","url":"https://gershmanlab.com/experiments/alicia/teaching/experiment/?hitId=3FJ2RVH25ZSYKBA8MWMNC8NVPF629N&workerId=A1NFBKUYYVUYWF&assignmentId=3Z4AIRP3C7ZJI684XAXPCBVV30G1XB&a=3I4Z7&tp_a=3I4Z7&b=3Z4AIRP3C7ZJI684XAXPCBVV30G1XB&tp_b=3Z4AIRP3C7ZJI684XAXPCBVV30G1XB&c=365717&tp_c=365717","heads":2,"tails":8,"studentIndex":16,"studentTrueHypers":{"a":8,"b":2},"studentGuess":0.5,"delta":0.3,"totalExamples":10,"bonus":0,"bonusSoFar":1.74},{"rt":11695,"response":{"heads":"4","tails":"1"},"type":"response","condition":"nonSeqFull","trueTheta":0.5,"classrooms":["A","B"],"studentTrueClassroom":"A","exampleSet":"first","trial_type":"survey-html-form","trial_index":138,"time_elapsed":1572787,"internal_node_id":"0.0-137.0-0.0","params":{"nStudents":24,"maxFlips":30,"completionMinutes":45,"basePay":8,"maxBonus":9,"perTrialBonus":0.5,"perTrialBonusThreshold":0.05,"exampleCost":0.01},"classroomParams":{"A":{"a":1,"b":4},"B":{"a":4,"b":1},"C":{"a":2,"b":8},"D":{"a":8,"b":2}},"conditions":["nonSeqFull","nonSeqPartial","seqNoFeedback","seqFeedback"],"classroomPairings":[["A","B"],["C","D"]],"coinWeights":[0.2,0.5,0.8],"subjectId":"A1NFBKUYYVUYWF","assignmentId":"3Z4AIRP3C7ZJI684XAXPCBVV30G1XB","hitId":"3FJ2RVH25ZSYKBA8MWMNC8NVPF629N","url":"https://gershmanlab.com/experiments/alicia/teaching/experiment/?hitId=3FJ2RVH25ZSYKBA8MWMNC8NVPF629N&workerId=A1NFBKUYYVUYWF&assignmentId=3Z4AIRP3C7ZJI684XAXPCBVV30G1XB&a=3I4Z7&tp_a=3I4Z7&b=3Z4AIRP3C7ZJI684XAXPCBVV30G1XB&tp_b=3Z4AIRP3C7ZJI684XAXPCBVV30G1XB&c=365717&tp_c=365717","heads":4,"tails":1,"studentIndex":17,"studentTrueHypers":{"a":1,"b":4},"studentGuess":0.5,"delta":0,"totalExamples":5,"bonus":0.45,"bonusSoFar":2.19},{"rt":19635,"response":{"heads":"2","tails":"8"},"type":"response","condition":"nonSeqPartial","trueTheta":0.2,"classrooms":["A","B"],"studentTrueClassroom":"B","exampleSet":"first","trial_type":"survey-html-form","trial_index":144,"time_elapsed":1607937,"internal_node_id":"0.0-143.0-0.0","params":{"nStudents":24,"maxFlips":30,"completionMinutes":45,"basePay":8,"maxBonus":9,"perTrialBonus":0.5,"perTrialBonusThreshold":0.05,"exampleCost":0.01},"classroomParams":{"A":{"a":1,"b":4},"B":{"a":4,"b":1},"C":{"a":2,"b":8},"D":{"a":8,"b":2}},"conditions":["nonSeqFull","nonSeqPartial","seqNoFeedback","seqFeedback"],"classroomPairings":[["A","B"],["C","D"]],"coinWeights":[0.2,0.5,0.8],"subjectId":"A1NFBKUYYVUYWF","assignmentId":"3Z4AIRP3C7ZJI684XAXPCBVV30G1XB","hitId":"3FJ2RVH25ZSYKBA8MWMNC8NVPF629N","url":"https://gershmanlab.com/experiments/alicia/teaching/experiment/?hitId=3FJ2RVH25ZSYKBA8MWMNC8NVPF629N&workerId=A1NFBKUYYVUYWF&assignmentId=3Z4AIRP3C7ZJI684XAXPCBVV30G1XB&a=3I4Z7&tp_a=3I4Z7&b=3Z4AIRP3C7ZJI684XAXPCBVV30G1XB&tp_b=3Z4AIRP3C7ZJI684XAXPCBVV30G1XB&c=365717&tp_c=365717","heads":2,"tails":8,"studentIndex":18,"studentTrueHypers":{"a":4,"b":1},"studentGuess":0.4,"delta":0.2,"totalExamples":10,"bonus":0,"bonusSoFar":2.19},{"rt":44975,"response":{"heads":"10","tails":"4"},"type":"response","condition":"nonSeqFull","trueTheta":0.5,"classrooms":["C","D"],"studentTrueClassroom":"C","exampleSet":"first","trial_type":"survey-html-form","trial_index":150,"time_elapsed":1669683,"internal_node_id":"0.0-149.0-0.0","params":{"nStudents":24,"maxFlips":30,"completionMinutes":45,"basePay":8,"maxBonus":9,"perTrialBonus":0.5,"perTrialBonusThreshold":0.05,"exampleCost":0.01},"classroomParams":{"A":{"a":1,"b":4},"B":{"a":4,"b":1},"C":{"a":2,"b":8},"D":{"a":8,"b":2}},"conditions":["nonSeqFull","nonSeqPartial","seqNoFeedback","seqFeedback"],"classroomPairings":[["A","B"],["C","D"]],"coinWeights":[0.2,0.5,0.8],"subjectId":"A1NFBKUYYVUYWF","assignmentId":"3Z4AIRP3C7ZJI684XAXPCBVV30G1XB","hitId":"3FJ2RVH25ZSYKBA8MWMNC8NVPF629N","url":"https://gershmanlab.com/experiments/alicia/teaching/experiment/?hitId=3FJ2RVH25ZSYKBA8MWMNC8NVPF629N&workerId=A1NFBKUYYVUYWF&assignmentId=3Z4AIRP3C7ZJI684XAXPCBVV30G1XB&a=3I4Z7&tp_a=3I4Z7&b=3Z4AIRP3C7ZJI684XAXPCBVV30G1XB&tp_b=3Z4AIRP3C7ZJI684XAXPCBVV30G1XB&c=365717&tp_c=365717","heads":10,"tails":4,"studentIndex":19,"studentTrueHypers":{"a":2,"b":8},"studentGuess":0.5,"delta":0,"totalExamples":14,"bonus":0.36,"bonusSoFar":2.55},{"rt":37745,"response":{"heads":"8","tails":"2"},"type":"response","condition":"seqNoFeedback","trueTheta":0.8,"classrooms":["A","B"],"studentTrueClassroom":"B","exampleSet":"first","trial_type":"survey-html-form","trial_index":156,"time_elapsed":1723426,"internal_node_id":"0.0-155.0-0.0","params":{"nStudents":24,"maxFlips":30,"completionMinutes":45,"basePay":8,"maxBonus":9,"perTrialBonus":0.5,"perTrialBonusThreshold":0.05,"exampleCost":0.01},"classroomParams":{"A":{"a":1,"b":4},"B":{"a":4,"b":1},"C":{"a":2,"b":8},"D":{"a":8,"b":2}},"conditions":["nonSeqFull","nonSeqPartial","seqNoFeedback","seqFeedback"],"classroomPairings":[["A","B"],["C","D"]],"coinWeights":[0.2,0.5,0.8],"subjectId":"A1NFBKUYYVUYWF","assignmentId":"3Z4AIRP3C7ZJI684XAXPCBVV30G1XB","hitId":"3FJ2RVH25ZSYKBA8MWMNC8NVPF629N","url":"https://gershmanlab.com/experiments/alicia/teaching/experiment/?hitId=3FJ2RVH25ZSYKBA8MWMNC8NVPF629N&workerId=A1NFBKUYYVUYWF&assignmentId=3Z4AIRP3C7ZJI684XAXPCBVV30G1XB&a=3I4Z7&tp_a=3I4Z7&b=3Z4AIRP3C7ZJI684XAXPCBVV30G1XB&tp_b=3Z4AIRP3C7ZJI684XAXPCBVV30G1XB&c=365717&tp_c=365717","heads":8,"tails":2,"studentIndex":20,"studentTrueHypers":{"a":4,"b":1},"studentGuess":0.8,"delta":0,"totalExamples":10,"bonusSoFar":2.55},{"rt":27620,"response":{"heads":"16","tails":"4"},"type":"response","condition":"seqNoFeedback","trueTheta":0.8,"classrooms":["A","B"],"studentTrueClassroom":"B","exampleSet":"second","trial_type":"survey-html-form","trial_index":159,"time_elapsed":1756820,"internal_node_id":"0.0-158.0-0.0","params":{"nStudents":24,"maxFlips":30,"completionMinutes":45,"basePay":8,"maxBonus":9,"perTrialBonus":0.5,"perTrialBonusThreshold":0.05,"exampleCost":0.01},"classroomParams":{"A":{"a":1,"b":4},"B":{"a":4,"b":1},"C":{"a":2,"b":8},"D":{"a":8,"b":2}},"conditions":["nonSeqFull","nonSeqPartial","seqNoFeedback","seqFeedback"],"classroomPairings":[["A","B"],["C","D"]],"coinWeights":[0.2,0.5,0.8],"subjectId":"A1NFBKUYYVUYWF","assignmentId":"3Z4AIRP3C7ZJI684XAXPCBVV30G1XB","hitId":"3FJ2RVH25ZSYKBA8MWMNC8NVPF629N","url":"https://gershmanlab.com/experiments/alicia/teaching/experiment/?hitId=3FJ2RVH25ZSYKBA8MWMNC8NVPF629N&workerId=A1NFBKUYYVUYWF&assignmentId=3Z4AIRP3C7ZJI684XAXPCBVV30G1XB&a=3I4Z7&tp_a=3I4Z7&b=3Z4AIRP3C7ZJI684XAXPCBVV30G1XB&tp_b=3Z4AIRP3C7ZJI684XAXPCBVV30G1XB&c=365717&tp_c=365717","firstResponseHeads":8,"firstResponseTails":2,"secondResponseHeads":16,"secondResponseTails":4,"totalHeads":24,"totalTails":6,"studentIndex":20,"studentTrueHypers":{"a":4,"b":1},"studentGuess":0.8,"delta":0,"bonus":0.2,"bonusSoFar":2.75,"totalExamples":30},{"rt":10090,"response":{"heads":"2","tails":"8"},"type":"response","condition":"seqFeedback","trueTheta":0.2,"classrooms":["A","B"],"studentTrueClassroom":"B","exampleSet":"first","trial_type":"survey-html-form","trial_index":165,"time_elapsed":1788866,"internal_node_id":"0.0-164.0-0.0","params":{"nStudents":24,"maxFlips":30,"completionMinutes":45,"basePay":8,"maxBonus":9,"perTrialBonus":0.5,"perTrialBonusThreshold":0.05,"exampleCost":0.01},"classroomParams":{"A":{"a":1,"b":4},"B":{"a":4,"b":1},"C":{"a":2,"b":8},"D":{"a":8,"b":2}},"conditions":["nonSeqFull","nonSeqPartial","seqNoFeedback","seqFeedback"],"classroomPairings":[["A","B"],["C","D"]],"coinWeights":[0.2,0.5,0.8],"subjectId":"A1NFBKUYYVUYWF","assignmentId":"3Z4AIRP3C7ZJI684XAXPCBVV30G1XB","hitId":"3FJ2RVH25ZSYKBA8MWMNC8NVPF629N","url":"https://gershmanlab.com/experiments/alicia/teaching/experiment/?hitId=3FJ2RVH25ZSYKBA8MWMNC8NVPF629N&workerId=A1NFBKUYYVUYWF&assignmentId=3Z4AIRP3C7ZJI684XAXPCBVV30G1XB&a=3I4Z7&tp_a=3I4Z7&b=3Z4AIRP3C7ZJI684XAXPCBVV30G1XB&tp_b=3Z4AIRP3C7ZJI684XAXPCBVV30G1XB&c=365717&tp_c=365717","heads":2,"tails":8,"studentIndex":21,"studentTrueHypers":{"a":4,"b":1},"studentGuess":0.4,"delta":0.2,"totalExamples":10,"bonusSoFar":2.75},{"rt":59870,"response":{"heads":"1","tails":"4"},"type":"response","condition":"seqFeedback","trueTheta":0.2,"classrooms":["A","B"],"studentTrueClassroom":"B","exampleSet":"second","trial_type":"survey-html-form","trial_index":169,"time_elapsed":1865523,"internal_node_id":"0.0-168.0-0.0","params":{"nStudents":24,"maxFlips":30,"completionMinutes":45,"basePay":8,"maxBonus":9,"perTrialBonus":0.5,"perTrialBonusThreshold":0.05,"exampleCost":0.01},"classroomParams":{"A":{"a":1,"b":4},"B":{"a":4,"b":1},"C":{"a":2,"b":8},"D":{"a":8,"b":2}},"conditions":["nonSeqFull","nonSeqPartial","seqNoFeedback","seqFeedback"],"classroomPairings":[["A","B"],["C","D"]],"coinWeights":[0.2,0.5,0.8],"subjectId":"A1NFBKUYYVUYWF","assignmentId":"3Z4AIRP3C7ZJI684XAXPCBVV30G1XB","hitId":"3FJ2RVH25ZSYKBA8MWMNC8NVPF629N","url":"https://gershmanlab.com/experiments/alicia/teaching/experiment/?hitId=3FJ2RVH25ZSYKBA8MWMNC8NVPF629N&workerId=A1NFBKUYYVUYWF&assignmentId=3Z4AIRP3C7ZJI684XAXPCBVV30G1XB&a=3I4Z7&tp_a=3I4Z7&b=3Z4AIRP3C7ZJI684XAXPCBVV30G1XB&tp_b=3Z4AIRP3C7ZJI684XAXPCBVV30G1XB&c=365717&tp_c=365717","firstResponseHeads":2,"firstResponseTails":8,"secondResponseHeads":1,"secondResponseTails":4,"totalHeads":3,"totalTails":12,"studentIndex":21,"studentTrueHypers":{"a":4,"b":1},"studentGuess":0.35,"delta":0.14999999999999997,"bonus":0,"bonusSoFar":2.75,"totalExamples":15},{"rt":7673,"response":{"heads":"2","tails":"8"},"type":"response","condition":"seqNoFeedback","trueTheta":0.2,"classrooms":["A","B"],"studentTrueClassroom":"A","exampleSet":"first","trial_type":"survey-html-form","trial_index":175,"time_elapsed":1892519,"internal_node_id":"0.0-174.0-0.0","params":{"nStudents":24,"maxFlips":30,"completionMinutes":45,"basePay":8,"maxBonus":9,"perTrialBonus":0.5,"perTrialBonusThreshold":0.05,"exampleCost":0.01},"classroomParams":{"A":{"a":1,"b":4},"B":{"a":4,"b":1},"C":{"a":2,"b":8},"D":{"a":8,"b":2}},"conditions":["nonSeqFull","nonSeqPartial","seqNoFeedback","seqFeedback"],"classroomPairings":[["A","B"],["C","D"]],"coinWeights":[0.2,0.5,0.8],"subjectId":"A1NFBKUYYVUYWF","assignmentId":"3Z4AIRP3C7ZJI684XAXPCBVV30G1XB","hitId":"3FJ2RVH25ZSYKBA8MWMNC8NVPF629N","url":"https://gershmanlab.com/experiments/alicia/teaching/experiment/?hitId=3FJ2RVH25ZSYKBA8MWMNC8NVPF629N&workerId=A1NFBKUYYVUYWF&assignmentId=3Z4AIRP3C7ZJI684XAXPCBVV30G1XB&a=3I4Z7&tp_a=3I4Z7&b=3Z4AIRP3C7ZJI684XAXPCBVV30G1XB&tp_b=3Z4AIRP3C7ZJI684XAXPCBVV30G1XB&c=365717&tp_c=365717","heads":2,"tails":8,"studentIndex":22,"studentTrueHypers":{"a":1,"b":4},"studentGuess":0.2,"delta":0,"totalExamples":10,"bonusSoFar":2.75},{"rt":8476,"response":{"heads":"4","tails":"16"},"type":"response","condition":"seqNoFeedback","trueTheta":0.2,"classrooms":["A","B"],"studentTrueClassroom":"A","exampleSet":"second","trial_type":"survey-html-form","trial_index":178,"time_elapsed":1908771,"internal_node_id":"0.0-177.0-0.0","params":{"nStudents":24,"maxFlips":30,"completionMinutes":45,"basePay":8,"maxBonus":9,"perTrialBonus":0.5,"perTrialBonusThreshold":0.05,"exampleCost":0.01},"classroomParams":{"A":{"a":1,"b":4},"B":{"a":4,"b":1},"C":{"a":2,"b":8},"D":{"a":8,"b":2}},"conditions":["nonSeqFull","nonSeqPartial","seqNoFeedback","seqFeedback"],"classroomPairings":[["A","B"],["C","D"]],"coinWeights":[0.2,0.5,0.8],"subjectId":"A1NFBKUYYVUYWF","assignmentId":"3Z4AIRP3C7ZJI684XAXPCBVV30G1XB","hitId":"3FJ2RVH25ZSYKBA8MWMNC8NVPF629N","url":"https://gershmanlab.com/experiments/alicia/teaching/experiment/?hitId=3FJ2RVH25ZSYKBA8MWMNC8NVPF629N&workerId=A1NFBKUYYVUYWF&assignmentId=3Z4AIRP3C7ZJI684XAXPCBVV30G1XB&a=3I4Z7&tp_a=3I4Z7&b=3Z4AIRP3C7ZJI684XAXPCBVV30G1XB&tp_b=3Z4AIRP3C7ZJI684XAXPCBVV30G1XB&c=365717&tp_c=365717","firstResponseHeads":2,"firstResponseTails":8,"secondResponseHeads":4,"secondResponseTails":16,"totalHeads":6,"totalTails":24,"studentIndex":22,"studentTrueHypers":{"a":1,"b":4},"studentGuess":0.2,"delta":0,"bonus":0.2,"bonusSoFar":2.95,"totalExamples":30},{"rt":15341,"response":{"heads":"16","tails":"4"},"type":"response","condition":"seqNoFeedback","trueTheta":0.8,"classrooms":["C","D"],"studentTrueClassroom":"D","exampleSet":"first","trial_type":"survey-html-form","trial_index":184,"time_elapsed":1944995,"internal_node_id":"0.0-183.0-0.0","params":{"nStudents":24,"maxFlips":30,"completionMinutes":45,"basePay":8,"maxBonus":9,"perTrialBonus":0.5,"perTrialBonusThreshold":0.05,"exampleCost":0.01},"classroomParams":{"A":{"a":1,"b":4},"B":{"a":4,"b":1},"C":{"a":2,"b":8},"D":{"a":8,"b":2}},"conditions":["nonSeqFull","nonSeqPartial","seqNoFeedback","seqFeedback"],"classroomPairings":[["A","B"],["C","D"]],"coinWeights":[0.2,0.5,0.8],"subjectId":"A1NFBKUYYVUYWF","assignmentId":"3Z4AIRP3C7ZJI684XAXPCBVV30G1XB","hitId":"3FJ2RVH25ZSYKBA8MWMNC8NVPF629N","url":"https://gershmanlab.com/experiments/alicia/teaching/experiment/?hitId=3FJ2RVH25ZSYKBA8MWMNC8NVPF629N&workerId=A1NFBKUYYVUYWF&assignmentId=3Z4AIRP3C7ZJI684XAXPCBVV30G1XB&a=3I4Z7&tp_a=3I4Z7&b=3Z4AIRP3C7ZJI684XAXPCBVV30G1XB&tp_b=3Z4AIRP3C7ZJI684XAXPCBVV30G1XB&c=365717&tp_c=365717","heads":16,"tails":4,"studentIndex":23,"studentTrueHypers":{"a":8,"b":2},"studentGuess":0.8,"delta":0,"totalExamples":20,"bonusSoFar":2.95},{"rt":12992,"response":{"heads":"4","tails":"1"},"type":"response","condition":"seqNoFeedback","trueTheta":0.8,"classrooms":["C","D"],"studentTrueClassroom":"D","exampleSet":"second","trial_type":"survey-html-form","trial_index":187,"time_elapsed":1965752,"internal_node_id":"0.0-186.0-0.0","params":{"nStudents":24,"maxFlips":30,"completionMinutes":45,"basePay":8,"maxBonus":9,"perTrialBonus":0.5,"perTrialBonusThreshold":0.05,"exampleCost":0.01},"classroomParams":{"A":{"a":1,"b":4},"B":{"a":4,"b":1},"C":{"a":2,"b":8},"D":{"a":8,"b":2}},"conditions":["nonSeqFull","nonSeqPartial","seqNoFeedback","seqFeedback"],"classroomPairings":[["A","B"],["C","D"]],"coinWeights":[0.2,0.5,0.8],"subjectId":"A1NFBKUYYVUYWF","assignmentId":"3Z4AIRP3C7ZJI684XAXPCBVV30G1XB","hitId":"3FJ2RVH25ZSYKBA8MWMNC8NVPF629N","url":"https://gershmanlab.com/experiments/alicia/teaching/experiment/?hitId=3FJ2RVH25ZSYKBA8MWMNC8NVPF629N&workerId=A1NFBKUYYVUYWF&assignmentId=3Z4AIRP3C7ZJI684XAXPCBVV30G1XB&a=3I4Z7&tp_a=3I4Z7&b=3Z4AIRP3C7ZJI684XAXPCBVV30G1XB&tp_b=3Z4AIRP3C7ZJI684XAXPCBVV30G1XB&c=365717&tp_c=365717","firstResponseHeads":16,"firstResponseTails":4,"secondResponseHeads":4,"secondResponseTails":1,"totalHeads":20,"totalTails":5,"studentIndex":23,"studentTrueHypers":{"a":8,"b":2},"studentGuess":0.8,"delta":0,"bonus":0.25,"bonusSoFar":3.2,"totalExamples":25},{"rt":67093,"response":{"gender":"female","age":"60","understood":"yes","comments":"It was difficult because I really couldn't tell if I figured out a good way to communicate the information because sometimes ... it's just the student who doesn't get the material."},"type":"response","trial_type":"survey-html-form","trial_index":191,"time_elapsed":2045275,"internal_node_id":"0.0-191.0","params":{"nStudents":24,"maxFlips":30,"completionMinutes":45,"basePay":8,"maxBonus":9,"perTrialBonus":0.5,"perTrialBonusThreshold":0.05,"exampleCost":0.01},"classroomParams":{"A":{"a":1,"b":4},"B":{"a":4,"b":1},"C":{"a":2,"b":8},"D":{"a":8,"b":2}},"conditions":["nonSeqFull","nonSeqPartial","seqNoFeedback","seqFeedback"],"classroomPairings":[["A","B"],["C","D"]],"coinWeights":[0.2,0.5,0.8],"subjectId":"A1NFBKUYYVUYWF","assignmentId":"3Z4AIRP3C7ZJI684XAXPCBVV30G1XB","hitId":"3FJ2RVH25ZSYKBA8MWMNC8NVPF629N","url":"https://gershmanlab.com/experiments/alicia/teaching/experiment/?hitId=3FJ2RVH25ZSYKBA8MWMNC8NVPF629N&workerId=A1NFBKUYYVUYWF&assignmentId=3Z4AIRP3C7ZJI684XAXPCBVV30G1XB&a=3I4Z7&tp_a=3I4Z7&b=3Z4AIRP3C7ZJI684XAXPCBVV30G1XB&tp_b=3Z4AIRP3C7ZJI684XAXPCBVV30G1XB&c=365717&tp_c=365717","totalBonus":3.2}]