[{"rt":41950,"response":{"heads":"6","tails":"1"},"type":"response","condition":"seqFeedback","trueTheta":0.5,"classrooms":["C","D"],"studentTrueClassroom":"C","exampleSet":"first","trial_type":"survey-html-form","trial_index":7,"time_elapsed":631717,"internal_node_id":"0.0-6.0-0.0","params":{"nStudents":24,"maxFlips":30,"completionMinutes":45,"basePay":8,"maxBonus":9,"perTrialBonus":0.5,"perTrialBonusThreshold":0.05,"exampleCost":0.01},"classroomParams":{"A":{"a":1,"b":4},"B":{"a":4,"b":1},"C":{"a":2,"b":8},"D":{"a":8,"b":2}},"conditions":["nonSeqFull","nonSeqPartial","seqNoFeedback","seqFeedback"],"classroomPairings":[["A","B"],["C","D"]],"coinWeights":[0.2,0.5,0.8],"subjectId":"A1NVJB5O4H7ZCJ","assignmentId":"3XM0HYN6NLLDTY0PN7INPISMQBQPEB","hitId":"3AQN9REUTF20OMGWRXYK787QVFOYDP","url":"https://gershmanlab.com/experiments/alicia/teaching/experiment/?hitId=3AQN9REUTF20OMGWRXYK787QVFOYDP&workerId=A1NVJB5O4H7ZCJ&assignmentId=3XM0HYN6NLLDTY0PN7INPISMQBQPEB&a=6HMX9&tp_a=6HMX9&b=3XM0HYN6NLLDTY0PN7INPISMQBQPEB&tp_b=3XM0HYN6NLLDTY0PN7INPISMQBQPEB&c=365799&tp_c=365799","heads":6,"tails":1,"studentIndex":0,"studentTrueHypers":{"a":2,"b":8},"studentGuess":0.47058823529411764,"delta":0.02941176470588236,"totalExamples":7,"bonusSoFar":0},{"rt":16030,"response":{"heads":"7","tails":"3"},"type":"response","condition":"seqFeedback","trueTheta":0.5,"classrooms":["C","D"],"studentTrueClassroom":"C","exampleSet":"second","trial_type":"survey-html-form","trial_index":11,"time_elapsed":659181,"internal_node_id":"0.0-10.0-0.0","params":{"nStudents":24,"maxFlips":30,"completionMinutes":45,"basePay":8,"maxBonus":9,"perTrialBonus":0.5,"perTrialBonusThreshold":0.05,"exampleCost":0.01},"classroomParams":{"A":{"a":1,"b":4},"B":{"a":4,"b":1},"C":{"a":2,"b":8},"D":{"a":8,"b":2}},"conditions":["nonSeqFull","nonSeqPartial","seqNoFeedback","seqFeedback"],"classroomPairings":[["A","B"],["C","D"]],"coinWeights":[0.2,0.5,0.8],"subjectId":"A1NVJB5O4H7ZCJ","assignmentId":"3XM0HYN6NLLDTY0PN7INPISMQBQPEB","hitId":"3AQN9REUTF20OMGWRXYK787QVFOYDP","url":"https://gershmanlab.com/experiments/alicia/teaching/experiment/?hitId=3AQN9REUTF20OMGWRXYK787QVFOYDP&workerId=A1NVJB5O4H7ZCJ&assignmentId=3XM0HYN6NLLDTY0PN7INPISMQBQPEB&a=6HMX9&tp_a=6HMX9&b=3XM0HYN6NLLDTY0PN7INPISMQBQPEB&tp_b=3XM0HYN6NLLDTY0PN7INPISMQBQPEB&c=365799&tp_c=365799","firstResponseHeads":6,"firstResponseTails":1,"secondResponseHeads":7,"secondResponseTails":3,"totalHeads":13,"totalTails":4,"studentIndex":0,"studentTrueHypers":{"a":2,"b":8},"studentGuess":0.5555555555555556,"delta":0.05555555555555558,"bonus":0,"bonusSoFar":0,"totalExamples":17},{"rt":13167,"response":{"heads":"3","tails":"7"},"type":"response","condition":"nonSeqFull","trueTheta":0.2,"classrooms":["C","D"],"studentTrueClassroom":"D","exampleSet":"first","trial_type":"survey-html-form","trial_index":17,"time_elapsed":702637,"internal_node_id":"0.0-16.0-0.0","params":{"nStudents":24,"maxFlips":30,"completionMinutes":45,"basePay":8,"maxBonus":9,"perTrialBonus":0.5,"perTrialBonusThreshold":0.05,"exampleCost":0.01},"classroomParams":{"A":{"a":1,"b":4},"B":{"a":4,"b":1},"C":{"a":2,"b":8},"D":{"a":8,"b":2}},"conditions":["nonSeqFull","nonSeqPartial","seqNoFeedback","seqFeedback"],"classroomPairings":[["A","B"],["C","D"]],"coinWeights":[0.2,0.5,0.8],"subjectId":"A1NVJB5O4H7ZCJ","assignmentId":"3XM0HYN6NLLDTY0PN7INPISMQBQPEB","hitId":"3AQN9REUTF20OMGWRXYK787QVFOYDP","url":"https://gershmanlab.com/experiments/alicia/teaching/experiment/?hitId=3AQN9REUTF20OMGWRXYK787QVFOYDP&workerId=A1NVJB5O4H7ZCJ&assignmentId=3XM0HYN6NLLDTY0PN7INPISMQBQPEB&a=6HMX9&tp_a=6HMX9&b=3XM0HYN6NLLDTY0PN7INPISMQBQPEB&tp_b=3XM0HYN6NLLDTY0PN7INPISMQBQPEB&c=365799&tp_c=365799","heads":3,"tails":7,"studentIndex":1,"studentTrueHypers":{"a":8,"b":2},"studentGuess":0.55,"delta":0.35000000000000003,"totalExamples":10,"bonus":0,"bonusSoFar":0},{"rt":15143,"response":{"heads":"2","tails":"8"},"type":"response","condition":"seqNoFeedback","trueTheta":0.2,"classrooms":["A","B"],"studentTrueClassroom":"B","exampleSet":"first","trial_type":"survey-html-form","trial_index":23,"time_elapsed":735642,"internal_node_id":"0.0-22.0-0.0","params":{"nStudents":24,"maxFlips":30,"completionMinutes":45,"basePay":8,"maxBonus":9,"perTrialBonus":0.5,"perTrialBonusThreshold":0.05,"exampleCost":0.01},"classroomParams":{"A":{"a":1,"b":4},"B":{"a":4,"b":1},"C":{"a":2,"b":8},"D":{"a":8,"b":2}},"conditions":["nonSeqFull","nonSeqPartial","seqNoFeedback","seqFeedback"],"classroomPairings":[["A","B"],["C","D"]],"coinWeights":[0.2,0.5,0.8],"subjectId":"A1NVJB5O4H7ZCJ","assignmentId":"3XM0HYN6NLLDTY0PN7INPISMQBQPEB","hitId":"3AQN9REUTF20OMGWRXYK787QVFOYDP","url":"https://gershmanlab.com/experiments/alicia/teaching/experiment/?hitId=3AQN9REUTF20OMGWRXYK787QVFOYDP&workerId=A1NVJB5O4H7ZCJ&assignmentId=3XM0HYN6NLLDTY0PN7INPISMQBQPEB&a=6HMX9&tp_a=6HMX9&b=3XM0HYN6NLLDTY0PN7INPISMQBQPEB&tp_b=3XM0HYN6NLLDTY0PN7INPISMQBQPEB&c=365799&tp_c=365799","heads":2,"tails":8,"studentIndex":2,"studentTrueHypers":{"a":4,"b":1},"studentGuess":0.4,"delta":0.2,"totalExamples":10,"bonusSoFar":0},{"rt":15862,"response":{"heads":"5","tails":"2"},"type":"response","condition":"seqNoFeedback","trueTheta":0.2,"classrooms":["A","B"],"studentTrueClassroom":"B","exampleSet":"second","trial_type":"survey-html-form","trial_index":26,"time_elapsed":759013,"internal_node_id":"0.0-25.0-0.0","params":{"nStudents":24,"maxFlips":30,"completionMinutes":45,"basePay":8,"maxBonus":9,"perTrialBonus":0.5,"perTrialBonusThreshold":0.05,"exampleCost":0.01},"classroomParams":{"A":{"a":1,"b":4},"B":{"a":4,"b":1},"C":{"a":2,"b":8},"D":{"a":8,"b":2}},"conditions":["nonSeqFull","nonSeqPartial","seqNoFeedback","seqFeedback"],"classroomPairings":[["A","B"],["C","D"]],"coinWeights":[0.2,0.5,0.8],"subjectId":"A1NVJB5O4H7ZCJ","assignmentId":"3XM0HYN6NLLDTY0PN7INPISMQBQPEB","hitId":"3AQN9REUTF20OMGWRXYK787QVFOYDP","url":"https://gershmanlab.com/experiments/alicia/teaching/experiment/?hitId=3AQN9REUTF20OMGWRXYK787QVFOYDP&workerId=A1NVJB5O4H7ZCJ&assignmentId=3XM0HYN6NLLDTY0PN7INPISMQBQPEB&a=6HMX9&tp_a=6HMX9&b=3XM0HYN6NLLDTY0PN7INPISMQBQPEB&tp_b=3XM0HYN6NLLDTY0PN7INPISMQBQPEB&c=365799&tp_c=365799","firstResponseHeads":2,"firstResponseTails":8,"secondResponseHeads":5,"secondResponseTails":2,"totalHeads":7,"totalTails":10,"studentIndex":2,"studentTrueHypers":{"a":4,"b":1},"studentGuess":0.5,"delta":0.3,"bonus":0,"bonusSoFar":0,"totalExamples":17},{"rt":12639,"response":{"heads":"4","tails":"2"},"type":"response","condition":"nonSeqPartial","trueTheta":0.2,"classrooms":["C","D"],"studentTrueClassroom":"D","exampleSet":"first","trial_type":"survey-html-form","trial_index":32,"time_elapsed":801989,"internal_node_id":"0.0-31.0-0.0","params":{"nStudents":24,"maxFlips":30,"completionMinutes":45,"basePay":8,"maxBonus":9,"perTrialBonus":0.5,"perTrialBonusThreshold":0.05,"exampleCost":0.01},"classroomParams":{"A":{"a":1,"b":4},"B":{"a":4,"b":1},"C":{"a":2,"b":8},"D":{"a":8,"b":2}},"conditions":["nonSeqFull","nonSeqPartial","seqNoFeedback","seqFeedback"],"classroomPairings":[["A","B"],["C","D"]],"coinWeights":[0.2,0.5,0.8],"subjectId":"A1NVJB5O4H7ZCJ","assignmentId":"3XM0HYN6NLLDTY0PN7INPISMQBQPEB","hitId":"3AQN9REUTF20OMGWRXYK787QVFOYDP","url":"https://gershmanlab.com/experiments/alicia/teaching/experiment/?hitId=3AQN9REUTF20OMGWRXYK787QVFOYDP&workerId=A1NVJB5O4H7ZCJ&assignmentId=3XM0HYN6NLLDTY0PN7INPISMQBQPEB&a=6HMX9&tp_a=6HMX9&b=3XM0HYN6NLLDTY0PN7INPISMQBQPEB&tp_b=3XM0HYN6NLLDTY0PN7INPISMQBQPEB&c=365799&tp_c=365799","heads":4,"tails":2,"studentIndex":3,"studentTrueHypers":{"a":8,"b":2},"studentGuess":0.75,"delta":0.55,"totalExamples":6,"bonus":0,"bonusSoFar":0},{"rt":11007,"response":{"heads":"2","tails":"6"},"type":"response","condition":"seqFeedback","trueTheta":0.2,"classrooms":["C","D"],"studentTrueClassroom":"C","exampleSet":"first","trial_type":"survey-html-form","trial_index":38,"time_elapsed":829237,"internal_node_id":"0.0-37.0-0.0","params":{"nStudents":24,"maxFlips":30,"completionMinutes":45,"basePay":8,"maxBonus":9,"perTrialBonus":0.5,"perTrialBonusThreshold":0.05,"exampleCost":0.01},"classroomParams":{"A":{"a":1,"b":4},"B":{"a":4,"b":1},"C":{"a":2,"b":8},"D":{"a":8,"b":2}},"conditions":["nonSeqFull","nonSeqPartial","seqNoFeedback","seqFeedback"],"classroomPairings":[["A","B"],["C","D"]],"coinWeights":[0.2,0.5,0.8],"subjectId":"A1NVJB5O4H7ZCJ","assignmentId":"3XM0HYN6NLLDTY0PN7INPISMQBQPEB","hitId":"3AQN9REUTF20OMGWRXYK787QVFOYDP","url":"https://gershmanlab.com/experiments/alicia/teaching/experiment/?hitId=3AQN9REUTF20OMGWRXYK787QVFOYDP&workerId=A1NVJB5O4H7ZCJ&assignmentId=3XM0HYN6NLLDTY0PN7INPISMQBQPEB&a=6HMX9&tp_a=6HMX9&b=3XM0HYN6NLLDTY0PN7INPISMQBQPEB&tp_b=3XM0HYN6NLLDTY0PN7INPISMQBQPEB&c=365799&tp_c=365799","heads":2,"tails":6,"studentIndex":4,"studentTrueHypers":{"a":2,"b":8},"studentGuess":0.2222222222222222,"delta":0.0222222222222222,"totalExamples":8,"bonusSoFar":0},{"rt":71646,"response":{"heads":"2","tails":"9"},"type":"response","condition":"seqFeedback","trueTheta":0.2,"classrooms":["C","D"],"studentTrueClassroom":"C","exampleSet":"second","trial_type":"survey-html-form","trial_index":42,"time_elapsed":911469,"internal_node_id":"0.0-41.0-0.0","params":{"nStudents":24,"maxFlips":30,"completionMinutes":45,"basePay":8,"maxBonus":9,"perTrialBonus":0.5,"perTrialBonusThreshold":0.05,"exampleCost":0.01},"classroomParams":{"A":{"a":1,"b":4},"B":{"a":4,"b":1},"C":{"a":2,"b":8},"D":{"a":8,"b":2}},"conditions":["nonSeqFull","nonSeqPartial","seqNoFeedback","seqFeedback"],"classroomPairings":[["A","B"],["C","D"]],"coinWeights":[0.2,0.5,0.8],"subjectId":"A1NVJB5O4H7ZCJ","assignmentId":"3XM0HYN6NLLDTY0PN7INPISMQBQPEB","hitId":"3AQN9REUTF20OMGWRXYK787QVFOYDP","url":"https://gershmanlab.com/experiments/alicia/teaching/experiment/?hitId=3AQN9REUTF20OMGWRXYK787QVFOYDP&workerId=A1NVJB5O4H7ZCJ&assignmentId=3XM0HYN6NLLDTY0PN7INPISMQBQPEB&a=6HMX9&tp_a=6HMX9&b=3XM0HYN6NLLDTY0PN7INPISMQBQPEB&tp_b=3XM0HYN6NLLDTY0PN7INPISMQBQPEB&c=365799&tp_c=365799","firstResponseHeads":2,"firstResponseTails":6,"secondResponseHeads":2,"secondResponseTails":9,"totalHeads":4,"totalTails":15,"studentIndex":4,"studentTrueHypers":{"a":2,"b":8},"studentGuess":0.20689655172413793,"delta":0.006896551724137917,"bonus":0.31,"bonusSoFar":0.31,"totalExamples":19},{"rt":10978,"response":{"heads":"9","tails":"1"},"type":"response","condition":"nonSeqFull","trueTheta":0.8,"classrooms":["A","B"],"studentTrueClassroom":"A","exampleSet":"first","trial_type":"survey-html-form","trial_index":48,"time_elapsed":946813,"internal_node_id":"0.0-47.0-0.0","params":{"nStudents":24,"maxFlips":30,"completionMinutes":45,"basePay":8,"maxBonus":9,"perTrialBonus":0.5,"perTrialBonusThreshold":0.05,"exampleCost":0.01},"classroomParams":{"A":{"a":1,"b":4},"B":{"a":4,"b":1},"C":{"a":2,"b":8},"D":{"a":8,"b":2}},"conditions":["nonSeqFull","nonSeqPartial","seqNoFeedback","seqFeedback"],"classroomPairings":[["A","B"],["C","D"]],"coinWeights":[0.2,0.5,0.8],"subjectId":"A1NVJB5O4H7ZCJ","assignmentId":"3XM0HYN6NLLDTY0PN7INPISMQBQPEB","hitId":"3AQN9REUTF20OMGWRXYK787QVFOYDP","url":"https://gershmanlab.com/experiments/alicia/teaching/experiment/?hitId=3AQN9REUTF20OMGWRXYK787QVFOYDP&workerId=A1NVJB5O4H7ZCJ&assignmentId=3XM0HYN6NLLDTY0PN7INPISMQBQPEB&a=6HMX9&tp_a=6HMX9&b=3XM0HYN6NLLDTY0PN7INPISMQBQPEB&tp_b=3XM0HYN6NLLDTY0PN7INPISMQBQPEB&c=365799&tp_c=365799","heads":9,"tails":1,"studentIndex":5,"studentTrueHypers":{"a":1,"b":4},"studentGuess":0.6666666666666666,"delta":0.13333333333333341,"totalExamples":10,"bonus":0,"bonusSoFar":0.31},{"rt":8339,"response":{"heads":"9","tails":"1"},"type":"response","condition":"seqFeedback","trueTheta":0.8,"classrooms":["C","D"],"studentTrueClassroom":"C","exampleSet":"first","trial_type":"survey-html-form","trial_index":54,"time_elapsed":970597,"internal_node_id":"0.0-53.0-0.0","params":{"nStudents":24,"maxFlips":30,"completionMinutes":45,"basePay":8,"maxBonus":9,"perTrialBonus":0.5,"perTrialBonusThreshold":0.05,"exampleCost":0.01},"classroomParams":{"A":{"a":1,"b":4},"B":{"a":4,"b":1},"C":{"a":2,"b":8},"D":{"a":8,"b":2}},"conditions":["nonSeqFull","nonSeqPartial","seqNoFeedback","seqFeedback"],"classroomPairings":[["A","B"],["C","D"]],"coinWeights":[0.2,0.5,0.8],"subjectId":"A1NVJB5O4H7ZCJ","assignmentId":"3XM0HYN6NLLDTY0PN7INPISMQBQPEB","hitId":"3AQN9REUTF20OMGWRXYK787QVFOYDP","url":"https://gershmanlab.com/experiments/alicia/teaching/experiment/?hitId=3AQN9REUTF20OMGWRXYK787QVFOYDP&workerId=A1NVJB5O4H7ZCJ&assignmentId=3XM0HYN6NLLDTY0PN7INPISMQBQPEB&a=6HMX9&tp_a=6HMX9&b=3XM0HYN6NLLDTY0PN7INPISMQBQPEB&tp_b=3XM0HYN6NLLDTY0PN7INPISMQBQPEB&c=365799&tp_c=365799","heads":9,"tails":1,"studentIndex":6,"studentTrueHypers":{"a":2,"b":8},"studentGuess":0.55,"delta":0.25,"totalExamples":10,"bonusSoFar":0.31},{"rt":4782,"response":{"heads":"10","tails":"0"},"type":"response","condition":"seqFeedback","trueTheta":0.8,"classrooms":["C","D"],"studentTrueClassroom":"C","exampleSet":"second","trial_type":"survey-html-form","trial_index":58,"time_elapsed":986333,"internal_node_id":"0.0-57.0-0.0","params":{"nStudents":24,"maxFlips":30,"completionMinutes":45,"basePay":8,"maxBonus":9,"perTrialBonus":0.5,"perTrialBonusThreshold":0.05,"exampleCost":0.01},"classroomParams":{"A":{"a":1,"b":4},"B":{"a":4,"b":1},"C":{"a":2,"b":8},"D":{"a":8,"b":2}},"conditions":["nonSeqFull","nonSeqPartial","seqNoFeedback","seqFeedback"],"classroomPairings":[["A","B"],["C","D"]],"coinWeights":[0.2,0.5,0.8],"subjectId":"A1NVJB5O4H7ZCJ","assignmentId":"3XM0HYN6NLLDTY0PN7INPISMQBQPEB","hitId":"3AQN9REUTF20OMGWRXYK787QVFOYDP","url":"https://gershmanlab.com/experiments/alicia/teaching/experiment/?hitId=3AQN9REUTF20OMGWRXYK787QVFOYDP&workerId=A1NVJB5O4H7ZCJ&assignmentId=3XM0HYN6NLLDTY0PN7INPISMQBQPEB&a=6HMX9&tp_a=6HMX9&b=3XM0HYN6NLLDTY0PN7INPISMQBQPEB&tp_b=3XM0HYN6NLLDTY0PN7INPISMQBQPEB&c=365799&tp_c=365799","firstResponseHeads":9,"firstResponseTails":1,"secondResponseHeads":10,"secondResponseTails":0,"totalHeads":19,"totalTails":1,"studentIndex":6,"studentTrueHypers":{"a":2,"b":8},"studentGuess":0.7,"delta":0.10000000000000009,"bonus":0,"bonusSoFar":0.31,"totalExamples":20},{"rt":30154,"response":{"heads":"2","tails":"9"},"type":"response","condition":"nonSeqPartial","trueTheta":0.2,"classrooms":["A","B"],"studentTrueClassroom":"B","exampleSet":"first","trial_type":"survey-html-form","trial_index":64,"time_elapsed":1067973,"internal_node_id":"0.0-63.0-0.0","params":{"nStudents":24,"maxFlips":30,"completionMinutes":45,"basePay":8,"maxBonus":9,"perTrialBonus":0.5,"perTrialBonusThreshold":0.05,"exampleCost":0.01},"classroomParams":{"A":{"a":1,"b":4},"B":{"a":4,"b":1},"C":{"a":2,"b":8},"D":{"a":8,"b":2}},"conditions":["nonSeqFull","nonSeqPartial","seqNoFeedback","seqFeedback"],"classroomPairings":[["A","B"],["C","D"]],"coinWeights":[0.2,0.5,0.8],"subjectId":"A1NVJB5O4H7ZCJ","assignmentId":"3XM0HYN6NLLDTY0PN7INPISMQBQPEB","hitId":"3AQN9REUTF20OMGWRXYK787QVFOYDP","url":"https://gershmanlab.com/experiments/alicia/teaching/experiment/?hitId=3AQN9REUTF20OMGWRXYK787QVFOYDP&workerId=A1NVJB5O4H7ZCJ&assignmentId=3XM0HYN6NLLDTY0PN7INPISMQBQPEB&a=6HMX9&tp_a=6HMX9&b=3XM0HYN6NLLDTY0PN7INPISMQBQPEB&tp_b=3XM0HYN6NLLDTY0PN7INPISMQBQPEB&c=365799&tp_c=365799","heads":2,"tails":9,"studentIndex":7,"studentTrueHypers":{"a":4,"b":1},"studentGuess":0.375,"delta":0.175,"totalExamples":11,"bonus":0,"bonusSoFar":0.31},{"rt":15147,"response":{"heads":"3","tails":"8"},"type":"response","condition":"seqFeedback","trueTheta":0.5,"classrooms":["A","B"],"studentTrueClassroom":"B","exampleSet":"first","trial_type":"survey-html-form","trial_index":70,"time_elapsed":1097666,"internal_node_id":"0.0-69.0-0.0","params":{"nStudents":24,"maxFlips":30,"completionMinutes":45,"basePay":8,"maxBonus":9,"perTrialBonus":0.5,"perTrialBonusThreshold":0.05,"exampleCost":0.01},"classroomParams":{"A":{"a":1,"b":4},"B":{"a":4,"b":1},"C":{"a":2,"b":8},"D":{"a":8,"b":2}},"conditions":["nonSeqFull","nonSeqPartial","seqNoFeedback","seqFeedback"],"classroomPairings":[["A","B"],["C","D"]],"coinWeights":[0.2,0.5,0.8],"subjectId":"A1NVJB5O4H7ZCJ","assignmentId":"3XM0HYN6NLLDTY0PN7INPISMQBQPEB","hitId":"3AQN9REUTF20OMGWRXYK787QVFOYDP","url":"https://gershmanlab.com/experiments/alicia/teaching/experiment/?hitId=3AQN9REUTF20OMGWRXYK787QVFOYDP&workerId=A1NVJB5O4H7ZCJ&assignmentId=3XM0HYN6NLLDTY0PN7INPISMQBQPEB&a=6HMX9&tp_a=6HMX9&b=3XM0HYN6NLLDTY0PN7INPISMQBQPEB&tp_b=3XM0HYN6NLLDTY0PN7INPISMQBQPEB&c=365799&tp_c=365799","heads":3,"tails":8,"studentIndex":8,"studentTrueHypers":{"a":4,"b":1},"studentGuess":0.4375,"delta":0.0625,"totalExamples":11,"bonusSoFar":0.31},{"rt":7573,"response":{"heads":"2","tails":"7"},"type":"response","condition":"seqFeedback","trueTheta":0.5,"classrooms":["A","B"],"studentTrueClassroom":"B","exampleSet":"second","trial_type":"survey-html-form","trial_index":74,"time_elapsed":1118477,"internal_node_id":"0.0-73.0-0.0","params":{"nStudents":24,"maxFlips":30,"completionMinutes":45,"basePay":8,"maxBonus":9,"perTrialBonus":0.5,"perTrialBonusThreshold":0.05,"exampleCost":0.01},"classroomParams":{"A":{"a":1,"b":4},"B":{"a":4,"b":1},"C":{"a":2,"b":8},"D":{"a":8,"b":2}},"conditions":["nonSeqFull","nonSeqPartial","seqNoFeedback","seqFeedback"],"classroomPairings":[["A","B"],["C","D"]],"coinWeights":[0.2,0.5,0.8],"subjectId":"A1NVJB5O4H7ZCJ","assignmentId":"3XM0HYN6NLLDTY0PN7INPISMQBQPEB","hitId":"3AQN9REUTF20OMGWRXYK787QVFOYDP","url":"https://gershmanlab.com/experiments/alicia/teaching/experiment/?hitId=3AQN9REUTF20OMGWRXYK787QVFOYDP&workerId=A1NVJB5O4H7ZCJ&assignmentId=3XM0HYN6NLLDTY0PN7INPISMQBQPEB&a=6HMX9&tp_a=6HMX9&b=3XM0HYN6NLLDTY0PN7INPISMQBQPEB&tp_b=3XM0HYN6NLLDTY0PN7INPISMQBQPEB&c=365799&tp_c=365799","firstResponseHeads":3,"firstResponseTails":8,"secondResponseHeads":2,"secondResponseTails":7,"totalHeads":5,"totalTails":15,"studentIndex":8,"studentTrueHypers":{"a":4,"b":1},"studentGuess":0.36,"delta":0.14,"bonus":0,"bonusSoFar":0.31,"totalExamples":20},{"rt":13192,"response":{"heads":"7","tails":"2"},"type":"response","condition":"nonSeqPartial","trueTheta":0.5,"classrooms":["C","D"],"studentTrueClassroom":"D","exampleSet":"first","trial_type":"survey-html-form","trial_index":80,"time_elapsed":1152078,"internal_node_id":"0.0-79.0-0.0","params":{"nStudents":24,"maxFlips":30,"completionMinutes":45,"basePay":8,"maxBonus":9,"perTrialBonus":0.5,"perTrialBonusThreshold":0.05,"exampleCost":0.01},"classroomParams":{"A":{"a":1,"b":4},"B":{"a":4,"b":1},"C":{"a":2,"b":8},"D":{"a":8,"b":2}},"conditions":["nonSeqFull","nonSeqPartial","seqNoFeedback","seqFeedback"],"classroomPairings":[["A","B"],["C","D"]],"coinWeights":[0.2,0.5,0.8],"subjectId":"A1NVJB5O4H7ZCJ","assignmentId":"3XM0HYN6NLLDTY0PN7INPISMQBQPEB","hitId":"3AQN9REUTF20OMGWRXYK787QVFOYDP","url":"https://gershmanlab.com/experiments/alicia/teaching/experiment/?hitId=3AQN9REUTF20OMGWRXYK787QVFOYDP&workerId=A1NVJB5O4H7ZCJ&assignmentId=3XM0HYN6NLLDTY0PN7INPISMQBQPEB&a=6HMX9&tp_a=6HMX9&b=3XM0HYN6NLLDTY0PN7INPISMQBQPEB&tp_b=3XM0HYN6NLLDTY0PN7INPISMQBQPEB&c=365799&tp_c=365799","heads":7,"tails":2,"studentIndex":9,"studentTrueHypers":{"a":8,"b":2},"studentGuess":0.7894736842105263,"delta":0.2894736842105263,"totalExamples":9,"bonus":0,"bonusSoFar":0.31},{"rt":4256,"response":{"heads":"10","tails":"0"},"type":"response","condition":"nonSeqPartial","trueTheta":0.8,"classrooms":["C","D"],"studentTrueClassroom":"D","exampleSet":"first","trial_type":"survey-html-form","trial_index":86,"time_elapsed":1821263,"internal_node_id":"0.0-85.0-0.0","params":{"nStudents":24,"maxFlips":30,"completionMinutes":45,"basePay":8,"maxBonus":9,"perTrialBonus":0.5,"perTrialBonusThreshold":0.05,"exampleCost":0.01},"classroomParams":{"A":{"a":1,"b":4},"B":{"a":4,"b":1},"C":{"a":2,"b":8},"D":{"a":8,"b":2}},"conditions":["nonSeqFull","nonSeqPartial","seqNoFeedback","seqFeedback"],"classroomPairings":[["A","B"],["C","D"]],"coinWeights":[0.2,0.5,0.8],"subjectId":"A1NVJB5O4H7ZCJ","assignmentId":"3XM0HYN6NLLDTY0PN7INPISMQBQPEB","hitId":"3AQN9REUTF20OMGWRXYK787QVFOYDP","url":"https://gershmanlab.com/experiments/alicia/teaching/experiment/?hitId=3AQN9REUTF20OMGWRXYK787QVFOYDP&workerId=A1NVJB5O4H7ZCJ&assignmentId=3XM0HYN6NLLDTY0PN7INPISMQBQPEB&a=6HMX9&tp_a=6HMX9&b=3XM0HYN6NLLDTY0PN7INPISMQBQPEB&tp_b=3XM0HYN6NLLDTY0PN7INPISMQBQPEB&c=365799&tp_c=365799","heads":10,"tails":0,"studentIndex":10,"studentTrueHypers":{"a":8,"b":2},"studentGuess":0.9,"delta":0.09999999999999998,"totalExamples":10,"bonus":0,"bonusSoFar":0.31},{"rt":6112,"response":{"heads":"8","tails":"2"},"type":"response","condition":"seqNoFeedback","trueTheta":0.2,"classrooms":["C","D"],"studentTrueClassroom":"D","exampleSet":"first","trial_type":"survey-html-form","trial_index":92,"time_elapsed":1847894,"internal_node_id":"0.0-91.0-0.0","params":{"nStudents":24,"maxFlips":30,"completionMinutes":45,"basePay":8,"maxBonus":9,"perTrialBonus":0.5,"perTrialBonusThreshold":0.05,"exampleCost":0.01},"classroomParams":{"A":{"a":1,"b":4},"B":{"a":4,"b":1},"C":{"a":2,"b":8},"D":{"a":8,"b":2}},"conditions":["nonSeqFull","nonSeqPartial","seqNoFeedback","seqFeedback"],"classroomPairings":[["A","B"],["C","D"]],"coinWeights":[0.2,0.5,0.8],"subjectId":"A1NVJB5O4H7ZCJ","assignmentId":"3XM0HYN6NLLDTY0PN7INPISMQBQPEB","hitId":"3AQN9REUTF20OMGWRXYK787QVFOYDP","url":"https://gershmanlab.com/experiments/alicia/teaching/experiment/?hitId=3AQN9REUTF20OMGWRXYK787QVFOYDP&workerId=A1NVJB5O4H7ZCJ&assignmentId=3XM0HYN6NLLDTY0PN7INPISMQBQPEB&a=6HMX9&tp_a=6HMX9&b=3XM0HYN6NLLDTY0PN7INPISMQBQPEB&tp_b=3XM0HYN6NLLDTY0PN7INPISMQBQPEB&c=365799&tp_c=365799","heads":8,"tails":2,"studentIndex":11,"studentTrueHypers":{"a":8,"b":2},"studentGuess":0.8,"delta":0.6000000000000001,"totalExamples":10,"bonusSoFar":0.31},{"rt":10675,"response":{"heads":"8","tails":"2"},"type":"response","condition":"seqNoFeedback","trueTheta":0.2,"classrooms":["C","D"],"studentTrueClassroom":"D","exampleSet":"second","trial_type":"survey-html-form","trial_index":95,"time_elapsed":1864086,"internal_node_id":"0.0-94.0-0.0","params":{"nStudents":24,"maxFlips":30,"completionMinutes":45,"basePay":8,"maxBonus":9,"perTrialBonus":0.5,"perTrialBonusThreshold":0.05,"exampleCost":0.01},"classroomParams":{"A":{"a":1,"b":4},"B":{"a":4,"b":1},"C":{"a":2,"b":8},"D":{"a":8,"b":2}},"conditions":["nonSeqFull","nonSeqPartial","seqNoFeedback","seqFeedback"],"classroomPairings":[["A","B"],["C","D"]],"coinWeights":[0.2,0.5,0.8],"subjectId":"A1NVJB5O4H7ZCJ","assignmentId":"3XM0HYN6NLLDTY0PN7INPISMQBQPEB","hitId":"3AQN9REUTF20OMGWRXYK787QVFOYDP","url":"https://gershmanlab.com/experiments/alicia/teaching/experiment/?hitId=3AQN9REUTF20OMGWRXYK787QVFOYDP&workerId=A1NVJB5O4H7ZCJ&assignmentId=3XM0HYN6NLLDTY0PN7INPISMQBQPEB&a=6HMX9&tp_a=6HMX9&b=3XM0HYN6NLLDTY0PN7INPISMQBQPEB&tp_b=3XM0HYN6NLLDTY0PN7INPISMQBQPEB&c=365799&tp_c=365799","firstResponseHeads":8,"firstResponseTails":2,"secondResponseHeads":8,"secondResponseTails":2,"totalHeads":16,"totalTails":4,"studentIndex":11,"studentTrueHypers":{"a":8,"b":2},"studentGuess":0.8,"delta":0.6000000000000001,"bonus":0,"bonusSoFar":0.31,"totalExamples":20},{"rt":3991,"response":{"heads":"0","tails":"10"},"type":"response","condition":"nonSeqFull","trueTheta":0.2,"classrooms":["A","B"],"studentTrueClassroom":"B","exampleSet":"first","trial_type":"survey-html-form","trial_index":101,"time_elapsed":1885110,"internal_node_id":"0.0-100.0-0.0","params":{"nStudents":24,"maxFlips":30,"completionMinutes":45,"basePay":8,"maxBonus":9,"perTrialBonus":0.5,"perTrialBonusThreshold":0.05,"exampleCost":0.01},"classroomParams":{"A":{"a":1,"b":4},"B":{"a":4,"b":1},"C":{"a":2,"b":8},"D":{"a":8,"b":2}},"conditions":["nonSeqFull","nonSeqPartial","seqNoFeedback","seqFeedback"],"classroomPairings":[["A","B"],["C","D"]],"coinWeights":[0.2,0.5,0.8],"subjectId":"A1NVJB5O4H7ZCJ","assignmentId":"3XM0HYN6NLLDTY0PN7INPISMQBQPEB","hitId":"3AQN9REUTF20OMGWRXYK787QVFOYDP","url":"https://gershmanlab.com/experiments/alicia/teaching/experiment/?hitId=3AQN9REUTF20OMGWRXYK787QVFOYDP&workerId=A1NVJB5O4H7ZCJ&assignmentId=3XM0HYN6NLLDTY0PN7INPISMQBQPEB&a=6HMX9&tp_a=6HMX9&b=3XM0HYN6NLLDTY0PN7INPISMQBQPEB&tp_b=3XM0HYN6NLLDTY0PN7INPISMQBQPEB&c=365799&tp_c=365799","heads":0,"tails":10,"studentIndex":12,"studentTrueHypers":{"a":4,"b":1},"studentGuess":0.26666666666666666,"delta":0.06666666666666665,"totalExamples":10,"bonus":0,"bonusSoFar":0.31},{"rt":8763,"response":{"heads":"4","tails":"6"},"type":"response","condition":"nonSeqPartial","trueTheta":0.8,"classrooms":["A","B"],"studentTrueClassroom":"A","exampleSet":"first","trial_type":"survey-html-form","trial_index":107,"time_elapsed":1914506,"internal_node_id":"0.0-106.0-0.0","params":{"nStudents":24,"maxFlips":30,"completionMinutes":45,"basePay":8,"maxBonus":9,"perTrialBonus":0.5,"perTrialBonusThreshold":0.05,"exampleCost":0.01},"classroomParams":{"A":{"a":1,"b":4},"B":{"a":4,"b":1},"C":{"a":2,"b":8},"D":{"a":8,"b":2}},"conditions":["nonSeqFull","nonSeqPartial","seqNoFeedback","seqFeedback"],"classroomPairings":[["A","B"],["C","D"]],"coinWeights":[0.2,0.5,0.8],"subjectId":"A1NVJB5O4H7ZCJ","assignmentId":"3XM0HYN6NLLDTY0PN7INPISMQBQPEB","hitId":"3AQN9REUTF20OMGWRXYK787QVFOYDP","url":"https://gershmanlab.com/experiments/alicia/teaching/experiment/?hitId=3AQN9REUTF20OMGWRXYK787QVFOYDP&workerId=A1NVJB5O4H7ZCJ&assignmentId=3XM0HYN6NLLDTY0PN7INPISMQBQPEB&a=6HMX9&tp_a=6HMX9&b=3XM0HYN6NLLDTY0PN7INPISMQBQPEB&tp_b=3XM0HYN6NLLDTY0PN7INPISMQBQPEB&c=365799&tp_c=365799","heads":4,"tails":6,"studentIndex":13,"studentTrueHypers":{"a":1,"b":4},"studentGuess":0.3333333333333333,"delta":0.46666666666666673,"totalExamples":10,"bonus":0,"bonusSoFar":0.31},{"rt":5043,"response":{"heads":"9","tails":"1"},"type":"response","condition":"seqNoFeedback","trueTheta":0.8,"classrooms":["A","B"],"studentTrueClassroom":"A","exampleSet":"first","trial_type":"survey-html-form","trial_index":113,"time_elapsed":1935102,"internal_node_id":"0.0-112.0-0.0","params":{"nStudents":24,"maxFlips":30,"completionMinutes":45,"basePay":8,"maxBonus":9,"perTrialBonus":0.5,"perTrialBonusThreshold":0.05,"exampleCost":0.01},"classroomParams":{"A":{"a":1,"b":4},"B":{"a":4,"b":1},"C":{"a":2,"b":8},"D":{"a":8,"b":2}},"conditions":["nonSeqFull","nonSeqPartial","seqNoFeedback","seqFeedback"],"classroomPairings":[["A","B"],["C","D"]],"coinWeights":[0.2,0.5,0.8],"subjectId":"A1NVJB5O4H7ZCJ","assignmentId":"3XM0HYN6NLLDTY0PN7INPISMQBQPEB","hitId":"3AQN9REUTF20OMGWRXYK787QVFOYDP","url":"https://gershmanlab.com/experiments/alicia/teaching/experiment/?hitId=3AQN9REUTF20OMGWRXYK787QVFOYDP&workerId=A1NVJB5O4H7ZCJ&assignmentId=3XM0HYN6NLLDTY0PN7INPISMQBQPEB&a=6HMX9&tp_a=6HMX9&b=3XM0HYN6NLLDTY0PN7INPISMQBQPEB&tp_b=3XM0HYN6NLLDTY0PN7INPISMQBQPEB&c=365799&tp_c=365799","heads":9,"tails":1,"studentIndex":14,"studentTrueHypers":{"a":1,"b":4},"studentGuess":0.6666666666666666,"delta":0.13333333333333341,"totalExamples":10,"bonusSoFar":0.31},{"rt":7551,"response":{"heads":"4","tails":"1"},"type":"response","condition":"seqNoFeedback","trueTheta":0.8,"classrooms":["A","B"],"studentTrueClassroom":"A","exampleSet":"second","trial_type":"survey-html-form","trial_index":116,"time_elapsed":1949178,"internal_node_id":"0.0-115.0-0.0","params":{"nStudents":24,"maxFlips":30,"completionMinutes":45,"basePay":8,"maxBonus":9,"perTrialBonus":0.5,"perTrialBonusThreshold":0.05,"exampleCost":0.01},"classroomParams":{"A":{"a":1,"b":4},"B":{"a":4,"b":1},"C":{"a":2,"b":8},"D":{"a":8,"b":2}},"conditions":["nonSeqFull","nonSeqPartial","seqNoFeedback","seqFeedback"],"classroomPairings":[["A","B"],["C","D"]],"coinWeights":[0.2,0.5,0.8],"subjectId":"A1NVJB5O4H7ZCJ","assignmentId":"3XM0HYN6NLLDTY0PN7INPISMQBQPEB","hitId":"3AQN9REUTF20OMGWRXYK787QVFOYDP","url":"https://gershmanlab.com/experiments/alicia/teaching/experiment/?hitId=3AQN9REUTF20OMGWRXYK787QVFOYDP&workerId=A1NVJB5O4H7ZCJ&assignmentId=3XM0HYN6NLLDTY0PN7INPISMQBQPEB&a=6HMX9&tp_a=6HMX9&b=3XM0HYN6NLLDTY0PN7INPISMQBQPEB&tp_b=3XM0HYN6NLLDTY0PN7INPISMQBQPEB&c=365799&tp_c=365799","firstResponseHeads":9,"firstResponseTails":1,"secondResponseHeads":4,"secondResponseTails":1,"totalHeads":13,"totalTails":2,"studentIndex":14,"studentTrueHypers":{"a":1,"b":4},"studentGuess":0.7,"delta":0.10000000000000009,"bonus":0,"bonusSoFar":0.31,"totalExamples":15},{"rt":7844,"response":{"heads":"7","tails":"3"},"type":"response","condition":"seqNoFeedback","trueTheta":0.5,"classrooms":["C","D"],"studentTrueClassroom":"D","exampleSet":"first","trial_type":"survey-html-form","trial_index":122,"time_elapsed":1972447,"internal_node_id":"0.0-121.0-0.0","params":{"nStudents":24,"maxFlips":30,"completionMinutes":45,"basePay":8,"maxBonus":9,"perTrialBonus":0.5,"perTrialBonusThreshold":0.05,"exampleCost":0.01},"classroomParams":{"A":{"a":1,"b":4},"B":{"a":4,"b":1},"C":{"a":2,"b":8},"D":{"a":8,"b":2}},"conditions":["nonSeqFull","nonSeqPartial","seqNoFeedback","seqFeedback"],"classroomPairings":[["A","B"],["C","D"]],"coinWeights":[0.2,0.5,0.8],"subjectId":"A1NVJB5O4H7ZCJ","assignmentId":"3XM0HYN6NLLDTY0PN7INPISMQBQPEB","hitId":"3AQN9REUTF20OMGWRXYK787QVFOYDP","url":"https://gershmanlab.com/experiments/alicia/teaching/experiment/?hitId=3AQN9REUTF20OMGWRXYK787QVFOYDP&workerId=A1NVJB5O4H7ZCJ&assignmentId=3XM0HYN6NLLDTY0PN7INPISMQBQPEB&a=6HMX9&tp_a=6HMX9&b=3XM0HYN6NLLDTY0PN7INPISMQBQPEB&tp_b=3XM0HYN6NLLDTY0PN7INPISMQBQPEB&c=365799&tp_c=365799","heads":7,"tails":3,"studentIndex":15,"studentTrueHypers":{"a":8,"b":2},"studentGuess":0.75,"delta":0.25,"totalExamples":10,"bonusSoFar":0.31},{"rt":6290,"response":{"heads":"7","tails":"3"},"type":"response","condition":"seqNoFeedback","trueTheta":0.5,"classrooms":["C","D"],"studentTrueClassroom":"D","exampleSet":"second","trial_type":"survey-html-form","trial_index":125,"time_elapsed":1985242,"internal_node_id":"0.0-124.0-0.0","params":{"nStudents":24,"maxFlips":30,"completionMinutes":45,"basePay":8,"maxBonus":9,"perTrialBonus":0.5,"perTrialBonusThreshold":0.05,"exampleCost":0.01},"classroomParams":{"A":{"a":1,"b":4},"B":{"a":4,"b":1},"C":{"a":2,"b":8},"D":{"a":8,"b":2}},"conditions":["nonSeqFull","nonSeqPartial","seqNoFeedback","seqFeedback"],"classroomPairings":[["A","B"],["C","D"]],"coinWeights":[0.2,0.5,0.8],"subjectId":"A1NVJB5O4H7ZCJ","assignmentId":"3XM0HYN6NLLDTY0PN7INPISMQBQPEB","hitId":"3AQN9REUTF20OMGWRXYK787QVFOYDP","url":"https://gershmanlab.com/experiments/alicia/teaching/experiment/?hitId=3AQN9REUTF20OMGWRXYK787QVFOYDP&workerId=A1NVJB5O4H7ZCJ&assignmentId=3XM0HYN6NLLDTY0PN7INPISMQBQPEB&a=6HMX9&tp_a=6HMX9&b=3XM0HYN6NLLDTY0PN7INPISMQBQPEB&tp_b=3XM0HYN6NLLDTY0PN7INPISMQBQPEB&c=365799&tp_c=365799","firstResponseHeads":7,"firstResponseTails":3,"secondResponseHeads":7,"secondResponseTails":3,"totalHeads":14,"totalTails":6,"studentIndex":15,"studentTrueHypers":{"a":8,"b":2},"studentGuess":0.7333333333333333,"delta":0.23333333333333328,"bonus":0,"bonusSoFar":0.31,"totalExamples":20},{"rt":8179,"response":{"heads":"5","tails":"5"},"type":"response","condition":"seqFeedback","trueTheta":0.2,"classrooms":["A","B"],"studentTrueClassroom":"B","exampleSet":"first","trial_type":"survey-html-form","trial_index":131,"time_elapsed":2006859,"internal_node_id":"0.0-130.0-0.0","params":{"nStudents":24,"maxFlips":30,"completionMinutes":45,"basePay":8,"maxBonus":9,"perTrialBonus":0.5,"perTrialBonusThreshold":0.05,"exampleCost":0.01},"classroomParams":{"A":{"a":1,"b":4},"B":{"a":4,"b":1},"C":{"a":2,"b":8},"D":{"a":8,"b":2}},"conditions":["nonSeqFull","nonSeqPartial","seqNoFeedback","seqFeedback"],"classroomPairings":[["A","B"],["C","D"]],"coinWeights":[0.2,0.5,0.8],"subjectId":"A1NVJB5O4H7ZCJ","assignmentId":"3XM0HYN6NLLDTY0PN7INPISMQBQPEB","hitId":"3AQN9REUTF20OMGWRXYK787QVFOYDP","url":"https://gershmanlab.com/experiments/alicia/teaching/experiment/?hitId=3AQN9REUTF20OMGWRXYK787QVFOYDP&workerId=A1NVJB5O4H7ZCJ&assignmentId=3XM0HYN6NLLDTY0PN7INPISMQBQPEB&a=6HMX9&tp_a=6HMX9&b=3XM0HYN6NLLDTY0PN7INPISMQBQPEB&tp_b=3XM0HYN6NLLDTY0PN7INPISMQBQPEB&c=365799&tp_c=365799","heads":5,"tails":5,"studentIndex":16,"studentTrueHypers":{"a":4,"b":1},"studentGuess":0.6,"delta":0.39999999999999997,"totalExamples":10,"bonusSoFar":0.31},{"rt":5182,"response":{"heads":"1","tails":"9"},"type":"response","condition":"seqFeedback","trueTheta":0.2,"classrooms":["A","B"],"studentTrueClassroom":"B","exampleSet":"second","trial_type":"survey-html-form","trial_index":135,"time_elapsed":2025143,"internal_node_id":"0.0-134.0-0.0","params":{"nStudents":24,"maxFlips":30,"completionMinutes":45,"basePay":8,"maxBonus":9,"perTrialBonus":0.5,"perTrialBonusThreshold":0.05,"exampleCost":0.01},"classroomParams":{"A":{"a":1,"b":4},"B":{"a":4,"b":1},"C":{"a":2,"b":8},"D":{"a":8,"b":2}},"conditions":["nonSeqFull","nonSeqPartial","seqNoFeedback","seqFeedback"],"classroomPairings":[["A","B"],["C","D"]],"coinWeights":[0.2,0.5,0.8],"subjectId":"A1NVJB5O4H7ZCJ","assignmentId":"3XM0HYN6NLLDTY0PN7INPISMQBQPEB","hitId":"3AQN9REUTF20OMGWRXYK787QVFOYDP","url":"https://gershmanlab.com/experiments/alicia/teaching/experiment/?hitId=3AQN9REUTF20OMGWRXYK787QVFOYDP&workerId=A1NVJB5O4H7ZCJ&assignmentId=3XM0HYN6NLLDTY0PN7INPISMQBQPEB&a=6HMX9&tp_a=6HMX9&b=3XM0HYN6NLLDTY0PN7INPISMQBQPEB&tp_b=3XM0HYN6NLLDTY0PN7INPISMQBQPEB&c=365799&tp_c=365799","firstResponseHeads":5,"firstResponseTails":5,"secondResponseHeads":1,"secondResponseTails":9,"totalHeads":6,"totalTails":14,"studentIndex":16,"studentTrueHypers":{"a":4,"b":1},"studentGuess":0.4,"delta":0.2,"bonus":0,"bonusSoFar":0.31,"totalExamples":20},{"rt":6439,"response":{"heads":"8","tails":"2"},"type":"response","condition":"seqFeedback","trueTheta":0.8,"classrooms":["A","B"],"studentTrueClassroom":"B","exampleSet":"first","trial_type":"survey-html-form","trial_index":141,"time_elapsed":2044339,"internal_node_id":"0.0-140.0-0.0","params":{"nStudents":24,"maxFlips":30,"completionMinutes":45,"basePay":8,"maxBonus":9,"perTrialBonus":0.5,"perTrialBonusThreshold":0.05,"exampleCost":0.01},"classroomParams":{"A":{"a":1,"b":4},"B":{"a":4,"b":1},"C":{"a":2,"b":8},"D":{"a":8,"b":2}},"conditions":["nonSeqFull","nonSeqPartial","seqNoFeedback","seqFeedback"],"classroomPairings":[["A","B"],["C","D"]],"coinWeights":[0.2,0.5,0.8],"subjectId":"A1NVJB5O4H7ZCJ","assignmentId":"3XM0HYN6NLLDTY0PN7INPISMQBQPEB","hitId":"3AQN9REUTF20OMGWRXYK787QVFOYDP","url":"https://gershmanlab.com/experiments/alicia/teaching/experiment/?hitId=3AQN9REUTF20OMGWRXYK787QVFOYDP&workerId=A1NVJB5O4H7ZCJ&assignmentId=3XM0HYN6NLLDTY0PN7INPISMQBQPEB&a=6HMX9&tp_a=6HMX9&b=3XM0HYN6NLLDTY0PN7INPISMQBQPEB&tp_b=3XM0HYN6NLLDTY0PN7INPISMQBQPEB&c=365799&tp_c=365799","heads":8,"tails":2,"studentIndex":17,"studentTrueHypers":{"a":4,"b":1},"studentGuess":0.8,"delta":0,"totalExamples":10,"bonusSoFar":0.31},{"rt":6313,"response":{"heads":"4","tails":"8"},"type":"response","condition":"seqFeedback","trueTheta":0.8,"classrooms":["A","B"],"studentTrueClassroom":"B","exampleSet":"second","trial_type":"survey-html-form","trial_index":145,"time_elapsed":2058618,"internal_node_id":"0.0-144.0-0.0","params":{"nStudents":24,"maxFlips":30,"completionMinutes":45,"basePay":8,"maxBonus":9,"perTrialBonus":0.5,"perTrialBonusThreshold":0.05,"exampleCost":0.01},"classroomParams":{"A":{"a":1,"b":4},"B":{"a":4,"b":1},"C":{"a":2,"b":8},"D":{"a":8,"b":2}},"conditions":["nonSeqFull","nonSeqPartial","seqNoFeedback","seqFeedback"],"classroomPairings":[["A","B"],["C","D"]],"coinWeights":[0.2,0.5,0.8],"subjectId":"A1NVJB5O4H7ZCJ","assignmentId":"3XM0HYN6NLLDTY0PN7INPISMQBQPEB","hitId":"3AQN9REUTF20OMGWRXYK787QVFOYDP","url":"https://gershmanlab.com/experiments/alicia/teaching/experiment/?hitId=3AQN9REUTF20OMGWRXYK787QVFOYDP&workerId=A1NVJB5O4H7ZCJ&assignmentId=3XM0HYN6NLLDTY0PN7INPISMQBQPEB&a=6HMX9&tp_a=6HMX9&b=3XM0HYN6NLLDTY0PN7INPISMQBQPEB&tp_b=3XM0HYN6NLLDTY0PN7INPISMQBQPEB&c=365799&tp_c=365799","firstResponseHeads":8,"firstResponseTails":2,"secondResponseHeads":4,"secondResponseTails":8,"totalHeads":12,"totalTails":10,"studentIndex":17,"studentTrueHypers":{"a":4,"b":1},"studentGuess":0.5925925925925926,"delta":0.20740740740740748,"bonus":0,"bonusSoFar":0.31,"totalExamples":22},{"rt":6992,"response":{"heads":"5","tails":"3"},"type":"response","condition":"nonSeqPartial","trueTheta":0.5,"classrooms":["A","B"],"studentTrueClassroom":"B","exampleSet":"first","trial_type":"survey-html-form","trial_index":151,"time_elapsed":2075062,"internal_node_id":"0.0-150.0-0.0","params":{"nStudents":24,"maxFlips":30,"completionMinutes":45,"basePay":8,"maxBonus":9,"perTrialBonus":0.5,"perTrialBonusThreshold":0.05,"exampleCost":0.01},"classroomParams":{"A":{"a":1,"b":4},"B":{"a":4,"b":1},"C":{"a":2,"b":8},"D":{"a":8,"b":2}},"conditions":["nonSeqFull","nonSeqPartial","seqNoFeedback","seqFeedback"],"classroomPairings":[["A","B"],["C","D"]],"coinWeights":[0.2,0.5,0.8],"subjectId":"A1NVJB5O4H7ZCJ","assignmentId":"3XM0HYN6NLLDTY0PN7INPISMQBQPEB","hitId":"3AQN9REUTF20OMGWRXYK787QVFOYDP","url":"https://gershmanlab.com/experiments/alicia/teaching/experiment/?hitId=3AQN9REUTF20OMGWRXYK787QVFOYDP&workerId=A1NVJB5O4H7ZCJ&assignmentId=3XM0HYN6NLLDTY0PN7INPISMQBQPEB&a=6HMX9&tp_a=6HMX9&b=3XM0HYN6NLLDTY0PN7INPISMQBQPEB&tp_b=3XM0HYN6NLLDTY0PN7INPISMQBQPEB&c=365799&tp_c=365799","heads":5,"tails":3,"studentIndex":18,"studentTrueHypers":{"a":4,"b":1},"studentGuess":0.6923076923076923,"delta":0.1923076923076923,"totalExamples":8,"bonus":0,"bonusSoFar":0.31},{"rt":29659,"response":{"heads":"9","tails":"1"},"type":"response","condition":"nonSeqFull","trueTheta":0.8,"classrooms":["C","D"],"studentTrueClassroom":"C","exampleSet":"first","trial_type":"survey-html-form","trial_index":157,"time_elapsed":2131146,"internal_node_id":"0.0-156.0-0.0","params":{"nStudents":24,"maxFlips":30,"completionMinutes":45,"basePay":8,"maxBonus":9,"perTrialBonus":0.5,"perTrialBonusThreshold":0.05,"exampleCost":0.01},"classroomParams":{"A":{"a":1,"b":4},"B":{"a":4,"b":1},"C":{"a":2,"b":8},"D":{"a":8,"b":2}},"conditions":["nonSeqFull","nonSeqPartial","seqNoFeedback","seqFeedback"],"classroomPairings":[["A","B"],["C","D"]],"coinWeights":[0.2,0.5,0.8],"subjectId":"A1NVJB5O4H7ZCJ","assignmentId":"3XM0HYN6NLLDTY0PN7INPISMQBQPEB","hitId":"3AQN9REUTF20OMGWRXYK787QVFOYDP","url":"https://gershmanlab.com/experiments/alicia/teaching/experiment/?hitId=3AQN9REUTF20OMGWRXYK787QVFOYDP&workerId=A1NVJB5O4H7ZCJ&assignmentId=3XM0HYN6NLLDTY0PN7INPISMQBQPEB&a=6HMX9&tp_a=6HMX9&b=3XM0HYN6NLLDTY0PN7INPISMQBQPEB&tp_b=3XM0HYN6NLLDTY0PN7INPISMQBQPEB&c=365799&tp_c=365799","heads":9,"tails":1,"studentIndex":19,"studentTrueHypers":{"a":2,"b":8},"studentGuess":0.55,"delta":0.25,"totalExamples":10,"bonus":0,"bonusSoFar":0.31},{"rt":6988,"response":{"heads":"7","tails":"4"},"type":"response","condition":"seqNoFeedback","trueTheta":0.8,"classrooms":["C","D"],"studentTrueClassroom":"C","exampleSet":"first","trial_type":"survey-html-form","trial_index":163,"time_elapsed":2150810,"internal_node_id":"0.0-162.0-0.0","params":{"nStudents":24,"maxFlips":30,"completionMinutes":45,"basePay":8,"maxBonus":9,"perTrialBonus":0.5,"perTrialBonusThreshold":0.05,"exampleCost":0.01},"classroomParams":{"A":{"a":1,"b":4},"B":{"a":4,"b":1},"C":{"a":2,"b":8},"D":{"a":8,"b":2}},"conditions":["nonSeqFull","nonSeqPartial","seqNoFeedback","seqFeedback"],"classroomPairings":[["A","B"],["C","D"]],"coinWeights":[0.2,0.5,0.8],"subjectId":"A1NVJB5O4H7ZCJ","assignmentId":"3XM0HYN6NLLDTY0PN7INPISMQBQPEB","hitId":"3AQN9REUTF20OMGWRXYK787QVFOYDP","url":"https://gershmanlab.com/experiments/alicia/teaching/experiment/?hitId=3AQN9REUTF20OMGWRXYK787QVFOYDP&workerId=A1NVJB5O4H7ZCJ&assignmentId=3XM0HYN6NLLDTY0PN7INPISMQBQPEB&a=6HMX9&tp_a=6HMX9&b=3XM0HYN6NLLDTY0PN7INPISMQBQPEB&tp_b=3XM0HYN6NLLDTY0PN7INPISMQBQPEB&c=365799&tp_c=365799","heads":7,"tails":4,"studentIndex":20,"studentTrueHypers":{"a":2,"b":8},"studentGuess":0.42857142857142855,"delta":0.3714285714285715,"totalExamples":11,"bonusSoFar":0.31},{"rt":5559,"response":{"heads":"10","tails":"0"},"type":"response","condition":"seqNoFeedback","trueTheta":0.8,"classrooms":["C","D"],"studentTrueClassroom":"C","exampleSet":"second","trial_type":"survey-html-form","trial_index":166,"time_elapsed":2163383,"internal_node_id":"0.0-165.0-0.0","params":{"nStudents":24,"maxFlips":30,"completionMinutes":45,"basePay":8,"maxBonus":9,"perTrialBonus":0.5,"perTrialBonusThreshold":0.05,"exampleCost":0.01},"classroomParams":{"A":{"a":1,"b":4},"B":{"a":4,"b":1},"C":{"a":2,"b":8},"D":{"a":8,"b":2}},"conditions":["nonSeqFull","nonSeqPartial","seqNoFeedback","seqFeedback"],"classroomPairings":[["A","B"],["C","D"]],"coinWeights":[0.2,0.5,0.8],"subjectId":"A1NVJB5O4H7ZCJ","assignmentId":"3XM0HYN6NLLDTY0PN7INPISMQBQPEB","hitId":"3AQN9REUTF20OMGWRXYK787QVFOYDP","url":"https://gershmanlab.com/experiments/alicia/teaching/experiment/?hitId=3AQN9REUTF20OMGWRXYK787QVFOYDP&workerId=A1NVJB5O4H7ZCJ&assignmentId=3XM0HYN6NLLDTY0PN7INPISMQBQPEB&a=6HMX9&tp_a=6HMX9&b=3XM0HYN6NLLDTY0PN7INPISMQBQPEB&tp_b=3XM0HYN6NLLDTY0PN7INPISMQBQPEB&c=365799&tp_c=365799","firstResponseHeads":7,"firstResponseTails":4,"secondResponseHeads":10,"secondResponseTails":0,"totalHeads":17,"totalTails":4,"studentIndex":20,"studentTrueHypers":{"a":2,"b":8},"studentGuess":0.6129032258064516,"delta":0.18709677419354842,"bonus":0,"bonusSoFar":0.31,"totalExamples":21},{"rt":6959,"response":{"heads":"5","tails":"5"},"type":"response","condition":"seqNoFeedback","trueTheta":0.5,"classrooms":["A","B"],"studentTrueClassroom":"B","exampleSet":"first","trial_type":"survey-html-form","trial_index":172,"time_elapsed":2185866,"internal_node_id":"0.0-171.0-0.0","params":{"nStudents":24,"maxFlips":30,"completionMinutes":45,"basePay":8,"maxBonus":9,"perTrialBonus":0.5,"perTrialBonusThreshold":0.05,"exampleCost":0.01},"classroomParams":{"A":{"a":1,"b":4},"B":{"a":4,"b":1},"C":{"a":2,"b":8},"D":{"a":8,"b":2}},"conditions":["nonSeqFull","nonSeqPartial","seqNoFeedback","seqFeedback"],"classroomPairings":[["A","B"],["C","D"]],"coinWeights":[0.2,0.5,0.8],"subjectId":"A1NVJB5O4H7ZCJ","assignmentId":"3XM0HYN6NLLDTY0PN7INPISMQBQPEB","hitId":"3AQN9REUTF20OMGWRXYK787QVFOYDP","url":"https://gershmanlab.com/experiments/alicia/teaching/experiment/?hitId=3AQN9REUTF20OMGWRXYK787QVFOYDP&workerId=A1NVJB5O4H7ZCJ&assignmentId=3XM0HYN6NLLDTY0PN7INPISMQBQPEB&a=6HMX9&tp_a=6HMX9&b=3XM0HYN6NLLDTY0PN7INPISMQBQPEB&tp_b=3XM0HYN6NLLDTY0PN7INPISMQBQPEB&c=365799&tp_c=365799","heads":5,"tails":5,"studentIndex":21,"studentTrueHypers":{"a":4,"b":1},"studentGuess":0.6,"delta":0.09999999999999998,"totalExamples":10,"bonusSoFar":0.31},{"rt":8257,"response":{"heads":"2","tails":"7"},"type":"response","condition":"seqNoFeedback","trueTheta":0.5,"classrooms":["A","B"],"studentTrueClassroom":"B","exampleSet":"second","trial_type":"survey-html-form","trial_index":175,"time_elapsed":2200882,"internal_node_id":"0.0-174.0-0.0","params":{"nStudents":24,"maxFlips":30,"completionMinutes":45,"basePay":8,"maxBonus":9,"perTrialBonus":0.5,"perTrialBonusThreshold":0.05,"exampleCost":0.01},"classroomParams":{"A":{"a":1,"b":4},"B":{"a":4,"b":1},"C":{"a":2,"b":8},"D":{"a":8,"b":2}},"conditions":["nonSeqFull","nonSeqPartial","seqNoFeedback","seqFeedback"],"classroomPairings":[["A","B"],["C","D"]],"coinWeights":[0.2,0.5,0.8],"subjectId":"A1NVJB5O4H7ZCJ","assignmentId":"3XM0HYN6NLLDTY0PN7INPISMQBQPEB","hitId":"3AQN9REUTF20OMGWRXYK787QVFOYDP","url":"https://gershmanlab.com/experiments/alicia/teaching/experiment/?hitId=3AQN9REUTF20OMGWRXYK787QVFOYDP&workerId=A1NVJB5O4H7ZCJ&assignmentId=3XM0HYN6NLLDTY0PN7INPISMQBQPEB&a=6HMX9&tp_a=6HMX9&b=3XM0HYN6NLLDTY0PN7INPISMQBQPEB&tp_b=3XM0HYN6NLLDTY0PN7INPISMQBQPEB&c=365799&tp_c=365799","firstResponseHeads":5,"firstResponseTails":5,"secondResponseHeads":2,"secondResponseTails":7,"totalHeads":7,"totalTails":12,"studentIndex":21,"studentTrueHypers":{"a":4,"b":1},"studentGuess":0.4583333333333333,"delta":0.041666666666666685,"bonus":0.31,"bonusSoFar":0.62,"totalExamples":19},{"rt":7275,"response":{"heads":"5","tails":"4"},"type":"response","condition":"nonSeqFull","trueTheta":0.5,"classrooms":["C","D"],"studentTrueClassroom":"D","exampleSet":"first","trial_type":"survey-html-form","trial_index":181,"time_elapsed":2222359,"internal_node_id":"0.0-180.0-0.0","params":{"nStudents":24,"maxFlips":30,"completionMinutes":45,"basePay":8,"maxBonus":9,"perTrialBonus":0.5,"perTrialBonusThreshold":0.05,"exampleCost":0.01},"classroomParams":{"A":{"a":1,"b":4},"B":{"a":4,"b":1},"C":{"a":2,"b":8},"D":{"a":8,"b":2}},"conditions":["nonSeqFull","nonSeqPartial","seqNoFeedback","seqFeedback"],"classroomPairings":[["A","B"],["C","D"]],"coinWeights":[0.2,0.5,0.8],"subjectId":"A1NVJB5O4H7ZCJ","assignmentId":"3XM0HYN6NLLDTY0PN7INPISMQBQPEB","hitId":"3AQN9REUTF20OMGWRXYK787QVFOYDP","url":"https://gershmanlab.com/experiments/alicia/teaching/experiment/?hitId=3AQN9REUTF20OMGWRXYK787QVFOYDP&workerId=A1NVJB5O4H7ZCJ&assignmentId=3XM0HYN6NLLDTY0PN7INPISMQBQPEB&a=6HMX9&tp_a=6HMX9&b=3XM0HYN6NLLDTY0PN7INPISMQBQPEB&tp_b=3XM0HYN6NLLDTY0PN7INPISMQBQPEB&c=365799&tp_c=365799","heads":5,"tails":4,"studentIndex":22,"studentTrueHypers":{"a":8,"b":2},"studentGuess":0.6842105263157895,"delta":0.1842105263157895,"totalExamples":9,"bonus":0,"bonusSoFar":0.62},{"rt":10380,"response":{"heads":"8","tails":"2"},"type":"response","condition":"nonSeqFull","trueTheta":0.5,"classrooms":["A","B"],"studentTrueClassroom":"A","exampleSet":"first","trial_type":"survey-html-form","trial_index":187,"time_elapsed":2244334,"internal_node_id":"0.0-186.0-0.0","params":{"nStudents":24,"maxFlips":30,"completionMinutes":45,"basePay":8,"maxBonus":9,"perTrialBonus":0.5,"perTrialBonusThreshold":0.05,"exampleCost":0.01},"classroomParams":{"A":{"a":1,"b":4},"B":{"a":4,"b":1},"C":{"a":2,"b":8},"D":{"a":8,"b":2}},"conditions":["nonSeqFull","nonSeqPartial","seqNoFeedback","seqFeedback"],"classroomPairings":[["A","B"],["C","D"]],"coinWeights":[0.2,0.5,0.8],"subjectId":"A1NVJB5O4H7ZCJ","assignmentId":"3XM0HYN6NLLDTY0PN7INPISMQBQPEB","hitId":"3AQN9REUTF20OMGWRXYK787QVFOYDP","url":"https://gershmanlab.com/experiments/alicia/teaching/experiment/?hitId=3AQN9REUTF20OMGWRXYK787QVFOYDP&workerId=A1NVJB5O4H7ZCJ&assignmentId=3XM0HYN6NLLDTY0PN7INPISMQBQPEB&a=6HMX9&tp_a=6HMX9&b=3XM0HYN6NLLDTY0PN7INPISMQBQPEB&tp_b=3XM0HYN6NLLDTY0PN7INPISMQBQPEB&c=365799&tp_c=365799","heads":8,"tails":2,"studentIndex":23,"studentTrueHypers":{"a":1,"b":4},"studentGuess":0.6,"delta":0.09999999999999998,"totalExamples":10,"bonus":0,"bonusSoFar":0.62},{"rt":6683,"response":{"gender":"female","age":"58","understood":"yes","comments":""},"type":"response","trial_type":"survey-html-form","trial_index":191,"time_elapsed":2258955,"internal_node_id":"0.0-191.0","params":{"nStudents":24,"maxFlips":30,"completionMinutes":45,"basePay":8,"maxBonus":9,"perTrialBonus":0.5,"perTrialBonusThreshold":0.05,"exampleCost":0.01},"classroomParams":{"A":{"a":1,"b":4},"B":{"a":4,"b":1},"C":{"a":2,"b":8},"D":{"a":8,"b":2}},"conditions":["nonSeqFull","nonSeqPartial","seqNoFeedback","seqFeedback"],"classroomPairings":[["A","B"],["C","D"]],"coinWeights":[0.2,0.5,0.8],"subjectId":"A1NVJB5O4H7ZCJ","assignmentId":"3XM0HYN6NLLDTY0PN7INPISMQBQPEB","hitId":"3AQN9REUTF20OMGWRXYK787QVFOYDP","url":"https://gershmanlab.com/experiments/alicia/teaching/experiment/?hitId=3AQN9REUTF20OMGWRXYK787QVFOYDP&workerId=A1NVJB5O4H7ZCJ&assignmentId=3XM0HYN6NLLDTY0PN7INPISMQBQPEB&a=6HMX9&tp_a=6HMX9&b=3XM0HYN6NLLDTY0PN7INPISMQBQPEB&tp_b=3XM0HYN6NLLDTY0PN7INPISMQBQPEB&c=365799&tp_c=365799","totalBonus":0.62}]