[{"rt":25700,"response":{"heads":"2","tails":"8"},"type":"response","condition":"seqFeedback","trueTheta":0.2,"classrooms":["C","D"],"studentTrueClassroom":"D","exampleSet":"first","trial_type":"survey-html-form","trial_index":13,"time_elapsed":417474,"internal_node_id":"0.0-6.0-0.0","params":{"nStudents":24,"maxFlips":30,"completionMinutes":45,"basePay":8,"maxBonus":9,"perTrialBonus":0.5,"perTrialBonusThreshold":0.05,"exampleCost":0.01},"classroomParams":{"A":{"a":1,"b":4},"B":{"a":4,"b":1},"C":{"a":2,"b":8},"D":{"a":8,"b":2}},"conditions":["nonSeqFull","nonSeqPartial","seqNoFeedback","seqFeedback"],"classroomPairings":[["A","B"],["C","D"]],"coinWeights":[0.2,0.5,0.8],"subjectId":"A1ODA3Q5H6HTDQ","assignmentId":"3U5JL4WY5LV0A55NKSGRA92YFL5X41","hitId":"3NI0WFPPI9246I5W92FX9A3E2GN605","url":"https://gershmanlab.com/experiments/alicia/teaching/experiment/?hitId=3NI0WFPPI9246I5W92FX9A3E2GN605&workerId=A1ODA3Q5H6HTDQ&assignmentId=3U5JL4WY5LV0A55NKSGRA92YFL5X41&a=YL5U9&tp_a=YL5U9&b=3U5JL4WY5LV0A55NKSGRA92YFL5X41&tp_b=3U5JL4WY5LV0A55NKSGRA92YFL5X41&c=365799&tp_c=365799","heads":2,"tails":8,"studentIndex":0,"studentTrueHypers":{"a":8,"b":2},"studentGuess":0.5,"delta":0.3,"totalExamples":10,"bonusSoFar":0},{"rt":12622,"response":{"heads":"2","tails":"8"},"type":"response","condition":"seqFeedback","trueTheta":0.2,"classrooms":["C","D"],"studentTrueClassroom":"D","exampleSet":"second","trial_type":"survey-html-form","trial_index":17,"time_elapsed":441079,"internal_node_id":"0.0-10.0-0.0","params":{"nStudents":24,"maxFlips":30,"completionMinutes":45,"basePay":8,"maxBonus":9,"perTrialBonus":0.5,"perTrialBonusThreshold":0.05,"exampleCost":0.01},"classroomParams":{"A":{"a":1,"b":4},"B":{"a":4,"b":1},"C":{"a":2,"b":8},"D":{"a":8,"b":2}},"conditions":["nonSeqFull","nonSeqPartial","seqNoFeedback","seqFeedback"],"classroomPairings":[["A","B"],["C","D"]],"coinWeights":[0.2,0.5,0.8],"subjectId":"A1ODA3Q5H6HTDQ","assignmentId":"3U5JL4WY5LV0A55NKSGRA92YFL5X41","hitId":"3NI0WFPPI9246I5W92FX9A3E2GN605","url":"https://gershmanlab.com/experiments/alicia/teaching/experiment/?hitId=3NI0WFPPI9246I5W92FX9A3E2GN605&workerId=A1ODA3Q5H6HTDQ&assignmentId=3U5JL4WY5LV0A55NKSGRA92YFL5X41&a=YL5U9&tp_a=YL5U9&b=3U5JL4WY5LV0A55NKSGRA92YFL5X41&tp_b=3U5JL4WY5LV0A55NKSGRA92YFL5X41&c=365799&tp_c=365799","firstResponseHeads":2,"firstResponseTails":8,"secondResponseHeads":2,"secondResponseTails":8,"totalHeads":4,"totalTails":16,"studentIndex":0,"studentTrueHypers":{"a":8,"b":2},"studentGuess":0.4,"delta":0.2,"bonus":0,"bonusSoFar":0,"totalExamples":20},{"rt":7422,"response":{"heads":"4","tails":"1"},"type":"response","condition":"seqFeedback","trueTheta":0.8,"classrooms":["A","B"],"studentTrueClassroom":"B","exampleSet":"first","trial_type":"survey-html-form","trial_index":23,"time_elapsed":462319,"internal_node_id":"0.0-16.0-0.0","params":{"nStudents":24,"maxFlips":30,"completionMinutes":45,"basePay":8,"maxBonus":9,"perTrialBonus":0.5,"perTrialBonusThreshold":0.05,"exampleCost":0.01},"classroomParams":{"A":{"a":1,"b":4},"B":{"a":4,"b":1},"C":{"a":2,"b":8},"D":{"a":8,"b":2}},"conditions":["nonSeqFull","nonSeqPartial","seqNoFeedback","seqFeedback"],"classroomPairings":[["A","B"],["C","D"]],"coinWeights":[0.2,0.5,0.8],"subjectId":"A1ODA3Q5H6HTDQ","assignmentId":"3U5JL4WY5LV0A55NKSGRA92YFL5X41","hitId":"3NI0WFPPI9246I5W92FX9A3E2GN605","url":"https://gershmanlab.com/experiments/alicia/teaching/experiment/?hitId=3NI0WFPPI9246I5W92FX9A3E2GN605&workerId=A1ODA3Q5H6HTDQ&assignmentId=3U5JL4WY5LV0A55NKSGRA92YFL5X41&a=YL5U9&tp_a=YL5U9&b=3U5JL4WY5LV0A55NKSGRA92YFL5X41&tp_b=3U5JL4WY5LV0A55NKSGRA92YFL5X41&c=365799&tp_c=365799","heads":4,"tails":1,"studentIndex":1,"studentTrueHypers":{"a":4,"b":1},"studentGuess":0.8,"delta":0,"totalExamples":5,"bonusSoFar":0},{"rt":7618,"response":{"heads":"2","tails":"1"},"type":"response","condition":"seqFeedback","trueTheta":0.8,"classrooms":["A","B"],"studentTrueClassroom":"B","exampleSet":"second","trial_type":"survey-html-form","trial_index":27,"time_elapsed":479027,"internal_node_id":"0.0-20.0-0.0","params":{"nStudents":24,"maxFlips":30,"completionMinutes":45,"basePay":8,"maxBonus":9,"perTrialBonus":0.5,"perTrialBonusThreshold":0.05,"exampleCost":0.01},"classroomParams":{"A":{"a":1,"b":4},"B":{"a":4,"b":1},"C":{"a":2,"b":8},"D":{"a":8,"b":2}},"conditions":["nonSeqFull","nonSeqPartial","seqNoFeedback","seqFeedback"],"classroomPairings":[["A","B"],["C","D"]],"coinWeights":[0.2,0.5,0.8],"subjectId":"A1ODA3Q5H6HTDQ","assignmentId":"3U5JL4WY5LV0A55NKSGRA92YFL5X41","hitId":"3NI0WFPPI9246I5W92FX9A3E2GN605","url":"https://gershmanlab.com/experiments/alicia/teaching/experiment/?hitId=3NI0WFPPI9246I5W92FX9A3E2GN605&workerId=A1ODA3Q5H6HTDQ&assignmentId=3U5JL4WY5LV0A55NKSGRA92YFL5X41&a=YL5U9&tp_a=YL5U9&b=3U5JL4WY5LV0A55NKSGRA92YFL5X41&tp_b=3U5JL4WY5LV0A55NKSGRA92YFL5X41&c=365799&tp_c=365799","firstResponseHeads":4,"firstResponseTails":1,"secondResponseHeads":2,"secondResponseTails":1,"totalHeads":6,"totalTails":2,"studentIndex":1,"studentTrueHypers":{"a":4,"b":1},"studentGuess":0.7692307692307693,"delta":0.03076923076923077,"bonus":0.42,"bonusSoFar":0.42,"totalExamples":8},{"rt":7315,"response":{"heads":"4","tails":"1"},"type":"response","condition":"nonSeqPartial","trueTheta":0.8,"classrooms":["A","B"],"studentTrueClassroom":"A","exampleSet":"first","trial_type":"survey-html-form","trial_index":33,"time_elapsed":500560,"internal_node_id":"0.0-26.0-0.0","params":{"nStudents":24,"maxFlips":30,"completionMinutes":45,"basePay":8,"maxBonus":9,"perTrialBonus":0.5,"perTrialBonusThreshold":0.05,"exampleCost":0.01},"classroomParams":{"A":{"a":1,"b":4},"B":{"a":4,"b":1},"C":{"a":2,"b":8},"D":{"a":8,"b":2}},"conditions":["nonSeqFull","nonSeqPartial","seqNoFeedback","seqFeedback"],"classroomPairings":[["A","B"],["C","D"]],"coinWeights":[0.2,0.5,0.8],"subjectId":"A1ODA3Q5H6HTDQ","assignmentId":"3U5JL4WY5LV0A55NKSGRA92YFL5X41","hitId":"3NI0WFPPI9246I5W92FX9A3E2GN605","url":"https://gershmanlab.com/experiments/alicia/teaching/experiment/?hitId=3NI0WFPPI9246I5W92FX9A3E2GN605&workerId=A1ODA3Q5H6HTDQ&assignmentId=3U5JL4WY5LV0A55NKSGRA92YFL5X41&a=YL5U9&tp_a=YL5U9&b=3U5JL4WY5LV0A55NKSGRA92YFL5X41&tp_b=3U5JL4WY5LV0A55NKSGRA92YFL5X41&c=365799&tp_c=365799","heads":4,"tails":1,"studentIndex":2,"studentTrueHypers":{"a":1,"b":4},"studentGuess":0.5,"delta":0.30000000000000004,"totalExamples":5,"bonus":0,"bonusSoFar":0.42},{"rt":12818,"response":{"heads":"1","tails":"1"},"type":"response","condition":"seqFeedback","trueTheta":0.5,"classrooms":["A","B"],"studentTrueClassroom":"A","exampleSet":"first","trial_type":"survey-html-form","trial_index":39,"time_elapsed":539115,"internal_node_id":"0.0-32.0-0.0","params":{"nStudents":24,"maxFlips":30,"completionMinutes":45,"basePay":8,"maxBonus":9,"perTrialBonus":0.5,"perTrialBonusThreshold":0.05,"exampleCost":0.01},"classroomParams":{"A":{"a":1,"b":4},"B":{"a":4,"b":1},"C":{"a":2,"b":8},"D":{"a":8,"b":2}},"conditions":["nonSeqFull","nonSeqPartial","seqNoFeedback","seqFeedback"],"classroomPairings":[["A","B"],["C","D"]],"coinWeights":[0.2,0.5,0.8],"subjectId":"A1ODA3Q5H6HTDQ","assignmentId":"3U5JL4WY5LV0A55NKSGRA92YFL5X41","hitId":"3NI0WFPPI9246I5W92FX9A3E2GN605","url":"https://gershmanlab.com/experiments/alicia/teaching/experiment/?hitId=3NI0WFPPI9246I5W92FX9A3E2GN605&workerId=A1ODA3Q5H6HTDQ&assignmentId=3U5JL4WY5LV0A55NKSGRA92YFL5X41&a=YL5U9&tp_a=YL5U9&b=3U5JL4WY5LV0A55NKSGRA92YFL5X41&tp_b=3U5JL4WY5LV0A55NKSGRA92YFL5X41&c=365799&tp_c=365799","heads":1,"tails":1,"studentIndex":3,"studentTrueHypers":{"a":1,"b":4},"studentGuess":0.2857142857142857,"delta":0.2142857142857143,"totalExamples":2,"bonusSoFar":0.42},{"rt":7202,"response":{"heads":"5","tails":"5"},"type":"response","condition":"seqFeedback","trueTheta":0.5,"classrooms":["A","B"],"studentTrueClassroom":"A","exampleSet":"second","trial_type":"survey-html-form","trial_index":43,"time_elapsed":554842,"internal_node_id":"0.0-36.0-0.0","params":{"nStudents":24,"maxFlips":30,"completionMinutes":45,"basePay":8,"maxBonus":9,"perTrialBonus":0.5,"perTrialBonusThreshold":0.05,"exampleCost":0.01},"classroomParams":{"A":{"a":1,"b":4},"B":{"a":4,"b":1},"C":{"a":2,"b":8},"D":{"a":8,"b":2}},"conditions":["nonSeqFull","nonSeqPartial","seqNoFeedback","seqFeedback"],"classroomPairings":[["A","B"],["C","D"]],"coinWeights":[0.2,0.5,0.8],"subjectId":"A1ODA3Q5H6HTDQ","assignmentId":"3U5JL4WY5LV0A55NKSGRA92YFL5X41","hitId":"3NI0WFPPI9246I5W92FX9A3E2GN605","url":"https://gershmanlab.com/experiments/alicia/teaching/experiment/?hitId=3NI0WFPPI9246I5W92FX9A3E2GN605&workerId=A1ODA3Q5H6HTDQ&assignmentId=3U5JL4WY5LV0A55NKSGRA92YFL5X41&a=YL5U9&tp_a=YL5U9&b=3U5JL4WY5LV0A55NKSGRA92YFL5X41&tp_b=3U5JL4WY5LV0A55NKSGRA92YFL5X41&c=365799&tp_c=365799","firstResponseHeads":1,"firstResponseTails":1,"secondResponseHeads":5,"secondResponseTails":5,"totalHeads":6,"totalTails":6,"studentIndex":3,"studentTrueHypers":{"a":1,"b":4},"studentGuess":0.4117647058823529,"delta":0.08823529411764708,"bonus":0,"bonusSoFar":0.42,"totalExamples":12},{"rt":10167,"response":{"heads":"4","tails":"1"},"type":"response","condition":"nonSeqFull","trueTheta":0.8,"classrooms":["C","D"],"studentTrueClassroom":"C","exampleSet":"first","trial_type":"survey-html-form","trial_index":49,"time_elapsed":576428,"internal_node_id":"0.0-42.0-0.0","params":{"nStudents":24,"maxFlips":30,"completionMinutes":45,"basePay":8,"maxBonus":9,"perTrialBonus":0.5,"perTrialBonusThreshold":0.05,"exampleCost":0.01},"classroomParams":{"A":{"a":1,"b":4},"B":{"a":4,"b":1},"C":{"a":2,"b":8},"D":{"a":8,"b":2}},"conditions":["nonSeqFull","nonSeqPartial","seqNoFeedback","seqFeedback"],"classroomPairings":[["A","B"],["C","D"]],"coinWeights":[0.2,0.5,0.8],"subjectId":"A1ODA3Q5H6HTDQ","assignmentId":"3U5JL4WY5LV0A55NKSGRA92YFL5X41","hitId":"3NI0WFPPI9246I5W92FX9A3E2GN605","url":"https://gershmanlab.com/experiments/alicia/teaching/experiment/?hitId=3NI0WFPPI9246I5W92FX9A3E2GN605&workerId=A1ODA3Q5H6HTDQ&assignmentId=3U5JL4WY5LV0A55NKSGRA92YFL5X41&a=YL5U9&tp_a=YL5U9&b=3U5JL4WY5LV0A55NKSGRA92YFL5X41&tp_b=3U5JL4WY5LV0A55NKSGRA92YFL5X41&c=365799&tp_c=365799","heads":4,"tails":1,"studentIndex":4,"studentTrueHypers":{"a":2,"b":8},"studentGuess":0.4,"delta":0.4,"totalExamples":5,"bonus":0,"bonusSoFar":0.42},{"rt":4577,"response":{"heads":"4","tails":"1"},"type":"response","condition":"seqFeedback","trueTheta":0.8,"classrooms":["C","D"],"studentTrueClassroom":"D","exampleSet":"first","trial_type":"survey-html-form","trial_index":55,"time_elapsed":595358,"internal_node_id":"0.0-48.0-0.0","params":{"nStudents":24,"maxFlips":30,"completionMinutes":45,"basePay":8,"maxBonus":9,"perTrialBonus":0.5,"perTrialBonusThreshold":0.05,"exampleCost":0.01},"classroomParams":{"A":{"a":1,"b":4},"B":{"a":4,"b":1},"C":{"a":2,"b":8},"D":{"a":8,"b":2}},"conditions":["nonSeqFull","nonSeqPartial","seqNoFeedback","seqFeedback"],"classroomPairings":[["A","B"],["C","D"]],"coinWeights":[0.2,0.5,0.8],"subjectId":"A1ODA3Q5H6HTDQ","assignmentId":"3U5JL4WY5LV0A55NKSGRA92YFL5X41","hitId":"3NI0WFPPI9246I5W92FX9A3E2GN605","url":"https://gershmanlab.com/experiments/alicia/teaching/experiment/?hitId=3NI0WFPPI9246I5W92FX9A3E2GN605&workerId=A1ODA3Q5H6HTDQ&assignmentId=3U5JL4WY5LV0A55NKSGRA92YFL5X41&a=YL5U9&tp_a=YL5U9&b=3U5JL4WY5LV0A55NKSGRA92YFL5X41&tp_b=3U5JL4WY5LV0A55NKSGRA92YFL5X41&c=365799&tp_c=365799","heads":4,"tails":1,"studentIndex":5,"studentTrueHypers":{"a":8,"b":2},"studentGuess":0.8,"delta":0,"totalExamples":5,"bonusSoFar":0.42},{"rt":5958,"response":{"heads":"4","tails":"1"},"type":"response","condition":"seqFeedback","trueTheta":0.8,"classrooms":["C","D"],"studentTrueClassroom":"D","exampleSet":"second","trial_type":"survey-html-form","trial_index":59,"time_elapsed":609726,"internal_node_id":"0.0-52.0-0.0","params":{"nStudents":24,"maxFlips":30,"completionMinutes":45,"basePay":8,"maxBonus":9,"perTrialBonus":0.5,"perTrialBonusThreshold":0.05,"exampleCost":0.01},"classroomParams":{"A":{"a":1,"b":4},"B":{"a":4,"b":1},"C":{"a":2,"b":8},"D":{"a":8,"b":2}},"conditions":["nonSeqFull","nonSeqPartial","seqNoFeedback","seqFeedback"],"classroomPairings":[["A","B"],["C","D"]],"coinWeights":[0.2,0.5,0.8],"subjectId":"A1ODA3Q5H6HTDQ","assignmentId":"3U5JL4WY5LV0A55NKSGRA92YFL5X41","hitId":"3NI0WFPPI9246I5W92FX9A3E2GN605","url":"https://gershmanlab.com/experiments/alicia/teaching/experiment/?hitId=3NI0WFPPI9246I5W92FX9A3E2GN605&workerId=A1ODA3Q5H6HTDQ&assignmentId=3U5JL4WY5LV0A55NKSGRA92YFL5X41&a=YL5U9&tp_a=YL5U9&b=3U5JL4WY5LV0A55NKSGRA92YFL5X41&tp_b=3U5JL4WY5LV0A55NKSGRA92YFL5X41&c=365799&tp_c=365799","firstResponseHeads":4,"firstResponseTails":1,"secondResponseHeads":4,"secondResponseTails":1,"totalHeads":8,"totalTails":2,"studentIndex":5,"studentTrueHypers":{"a":8,"b":2},"studentGuess":0.8,"delta":0,"bonus":0.4,"bonusSoFar":0.82,"totalExamples":10},{"rt":7331,"response":{"heads":"1","tails":"4"},"type":"response","condition":"seqNoFeedback","trueTheta":0.2,"classrooms":["A","B"],"studentTrueClassroom":"A","exampleSet":"first","trial_type":"survey-html-form","trial_index":65,"time_elapsed":630218,"internal_node_id":"0.0-58.0-0.0","params":{"nStudents":24,"maxFlips":30,"completionMinutes":45,"basePay":8,"maxBonus":9,"perTrialBonus":0.5,"perTrialBonusThreshold":0.05,"exampleCost":0.01},"classroomParams":{"A":{"a":1,"b":4},"B":{"a":4,"b":1},"C":{"a":2,"b":8},"D":{"a":8,"b":2}},"conditions":["nonSeqFull","nonSeqPartial","seqNoFeedback","seqFeedback"],"classroomPairings":[["A","B"],["C","D"]],"coinWeights":[0.2,0.5,0.8],"subjectId":"A1ODA3Q5H6HTDQ","assignmentId":"3U5JL4WY5LV0A55NKSGRA92YFL5X41","hitId":"3NI0WFPPI9246I5W92FX9A3E2GN605","url":"https://gershmanlab.com/experiments/alicia/teaching/experiment/?hitId=3NI0WFPPI9246I5W92FX9A3E2GN605&workerId=A1ODA3Q5H6HTDQ&assignmentId=3U5JL4WY5LV0A55NKSGRA92YFL5X41&a=YL5U9&tp_a=YL5U9&b=3U5JL4WY5LV0A55NKSGRA92YFL5X41&tp_b=3U5JL4WY5LV0A55NKSGRA92YFL5X41&c=365799&tp_c=365799","heads":1,"tails":4,"studentIndex":6,"studentTrueHypers":{"a":1,"b":4},"studentGuess":0.2,"delta":0,"totalExamples":5,"bonusSoFar":0.82},{"rt":6211,"response":{"heads":"2","tails":"8"},"type":"response","condition":"seqNoFeedback","trueTheta":0.2,"classrooms":["A","B"],"studentTrueClassroom":"A","exampleSet":"second","trial_type":"survey-html-form","trial_index":68,"time_elapsed":643459,"internal_node_id":"0.0-61.0-0.0","params":{"nStudents":24,"maxFlips":30,"completionMinutes":45,"basePay":8,"maxBonus":9,"perTrialBonus":0.5,"perTrialBonusThreshold":0.05,"exampleCost":0.01},"classroomParams":{"A":{"a":1,"b":4},"B":{"a":4,"b":1},"C":{"a":2,"b":8},"D":{"a":8,"b":2}},"conditions":["nonSeqFull","nonSeqPartial","seqNoFeedback","seqFeedback"],"classroomPairings":[["A","B"],["C","D"]],"coinWeights":[0.2,0.5,0.8],"subjectId":"A1ODA3Q5H6HTDQ","assignmentId":"3U5JL4WY5LV0A55NKSGRA92YFL5X41","hitId":"3NI0WFPPI9246I5W92FX9A3E2GN605","url":"https://gershmanlab.com/experiments/alicia/teaching/experiment/?hitId=3NI0WFPPI9246I5W92FX9A3E2GN605&workerId=A1ODA3Q5H6HTDQ&assignmentId=3U5JL4WY5LV0A55NKSGRA92YFL5X41&a=YL5U9&tp_a=YL5U9&b=3U5JL4WY5LV0A55NKSGRA92YFL5X41&tp_b=3U5JL4WY5LV0A55NKSGRA92YFL5X41&c=365799&tp_c=365799","firstResponseHeads":1,"firstResponseTails":4,"secondResponseHeads":2,"secondResponseTails":8,"totalHeads":3,"totalTails":12,"studentIndex":6,"studentTrueHypers":{"a":1,"b":4},"studentGuess":0.2,"delta":0,"bonus":0.35,"bonusSoFar":1.17,"totalExamples":15},{"rt":2655,"response":{"heads":"1","tails":"1"},"type":"response","condition":"seqFeedback","trueTheta":0.5,"classrooms":["C","D"],"studentTrueClassroom":"C","exampleSet":"first","trial_type":"survey-html-form","trial_index":74,"time_elapsed":660753,"internal_node_id":"0.0-67.0-0.0","params":{"nStudents":24,"maxFlips":30,"completionMinutes":45,"basePay":8,"maxBonus":9,"perTrialBonus":0.5,"perTrialBonusThreshold":0.05,"exampleCost":0.01},"classroomParams":{"A":{"a":1,"b":4},"B":{"a":4,"b":1},"C":{"a":2,"b":8},"D":{"a":8,"b":2}},"conditions":["nonSeqFull","nonSeqPartial","seqNoFeedback","seqFeedback"],"classroomPairings":[["A","B"],["C","D"]],"coinWeights":[0.2,0.5,0.8],"subjectId":"A1ODA3Q5H6HTDQ","assignmentId":"3U5JL4WY5LV0A55NKSGRA92YFL5X41","hitId":"3NI0WFPPI9246I5W92FX9A3E2GN605","url":"https://gershmanlab.com/experiments/alicia/teaching/experiment/?hitId=3NI0WFPPI9246I5W92FX9A3E2GN605&workerId=A1ODA3Q5H6HTDQ&assignmentId=3U5JL4WY5LV0A55NKSGRA92YFL5X41&a=YL5U9&tp_a=YL5U9&b=3U5JL4WY5LV0A55NKSGRA92YFL5X41&tp_b=3U5JL4WY5LV0A55NKSGRA92YFL5X41&c=365799&tp_c=365799","heads":1,"tails":1,"studentIndex":7,"studentTrueHypers":{"a":2,"b":8},"studentGuess":0.25,"delta":0.25,"totalExamples":2,"bonusSoFar":1.17},{"rt":5935,"response":{"heads":"5","tails":"5"},"type":"response","condition":"seqFeedback","trueTheta":0.5,"classrooms":["C","D"],"studentTrueClassroom":"C","exampleSet":"second","trial_type":"survey-html-form","trial_index":78,"time_elapsed":677177,"internal_node_id":"0.0-71.0-0.0","params":{"nStudents":24,"maxFlips":30,"completionMinutes":45,"basePay":8,"maxBonus":9,"perTrialBonus":0.5,"perTrialBonusThreshold":0.05,"exampleCost":0.01},"classroomParams":{"A":{"a":1,"b":4},"B":{"a":4,"b":1},"C":{"a":2,"b":8},"D":{"a":8,"b":2}},"conditions":["nonSeqFull","nonSeqPartial","seqNoFeedback","seqFeedback"],"classroomPairings":[["A","B"],["C","D"]],"coinWeights":[0.2,0.5,0.8],"subjectId":"A1ODA3Q5H6HTDQ","assignmentId":"3U5JL4WY5LV0A55NKSGRA92YFL5X41","hitId":"3NI0WFPPI9246I5W92FX9A3E2GN605","url":"https://gershmanlab.com/experiments/alicia/teaching/experiment/?hitId=3NI0WFPPI9246I5W92FX9A3E2GN605&workerId=A1ODA3Q5H6HTDQ&assignmentId=3U5JL4WY5LV0A55NKSGRA92YFL5X41&a=YL5U9&tp_a=YL5U9&b=3U5JL4WY5LV0A55NKSGRA92YFL5X41&tp_b=3U5JL4WY5LV0A55NKSGRA92YFL5X41&c=365799&tp_c=365799","firstResponseHeads":1,"firstResponseTails":1,"secondResponseHeads":5,"secondResponseTails":5,"totalHeads":6,"totalTails":6,"studentIndex":7,"studentTrueHypers":{"a":2,"b":8},"studentGuess":0.36363636363636365,"delta":0.13636363636363635,"bonus":0,"bonusSoFar":1.17,"totalExamples":12},{"rt":5732,"response":{"heads":"5","tails":"5"},"type":"response","condition":"nonSeqFull","trueTheta":0.5,"classrooms":["C","D"],"studentTrueClassroom":"C","exampleSet":"first","trial_type":"survey-html-form","trial_index":84,"time_elapsed":697457,"internal_node_id":"0.0-77.0-0.0","params":{"nStudents":24,"maxFlips":30,"completionMinutes":45,"basePay":8,"maxBonus":9,"perTrialBonus":0.5,"perTrialBonusThreshold":0.05,"exampleCost":0.01},"classroomParams":{"A":{"a":1,"b":4},"B":{"a":4,"b":1},"C":{"a":2,"b":8},"D":{"a":8,"b":2}},"conditions":["nonSeqFull","nonSeqPartial","seqNoFeedback","seqFeedback"],"classroomPairings":[["A","B"],["C","D"]],"coinWeights":[0.2,0.5,0.8],"subjectId":"A1ODA3Q5H6HTDQ","assignmentId":"3U5JL4WY5LV0A55NKSGRA92YFL5X41","hitId":"3NI0WFPPI9246I5W92FX9A3E2GN605","url":"https://gershmanlab.com/experiments/alicia/teaching/experiment/?hitId=3NI0WFPPI9246I5W92FX9A3E2GN605&workerId=A1ODA3Q5H6HTDQ&assignmentId=3U5JL4WY5LV0A55NKSGRA92YFL5X41&a=YL5U9&tp_a=YL5U9&b=3U5JL4WY5LV0A55NKSGRA92YFL5X41&tp_b=3U5JL4WY5LV0A55NKSGRA92YFL5X41&c=365799&tp_c=365799","heads":5,"tails":5,"studentIndex":8,"studentTrueHypers":{"a":2,"b":8},"studentGuess":0.35,"delta":0.15000000000000002,"totalExamples":10,"bonus":0,"bonusSoFar":1.17},{"rt":7903,"response":{"heads":"2","tails":"2"},"type":"response","condition":"nonSeqPartial","trueTheta":0.5,"classrooms":["C","D"],"studentTrueClassroom":"D","exampleSet":"first","trial_type":"survey-html-form","trial_index":90,"time_elapsed":719447,"internal_node_id":"0.0-83.0-0.0","params":{"nStudents":24,"maxFlips":30,"completionMinutes":45,"basePay":8,"maxBonus":9,"perTrialBonus":0.5,"perTrialBonusThreshold":0.05,"exampleCost":0.01},"classroomParams":{"A":{"a":1,"b":4},"B":{"a":4,"b":1},"C":{"a":2,"b":8},"D":{"a":8,"b":2}},"conditions":["nonSeqFull","nonSeqPartial","seqNoFeedback","seqFeedback"],"classroomPairings":[["A","B"],["C","D"]],"coinWeights":[0.2,0.5,0.8],"subjectId":"A1ODA3Q5H6HTDQ","assignmentId":"3U5JL4WY5LV0A55NKSGRA92YFL5X41","hitId":"3NI0WFPPI9246I5W92FX9A3E2GN605","url":"https://gershmanlab.com/experiments/alicia/teaching/experiment/?hitId=3NI0WFPPI9246I5W92FX9A3E2GN605&workerId=A1ODA3Q5H6HTDQ&assignmentId=3U5JL4WY5LV0A55NKSGRA92YFL5X41&a=YL5U9&tp_a=YL5U9&b=3U5JL4WY5LV0A55NKSGRA92YFL5X41&tp_b=3U5JL4WY5LV0A55NKSGRA92YFL5X41&c=365799&tp_c=365799","heads":2,"tails":2,"studentIndex":9,"studentTrueHypers":{"a":8,"b":2},"studentGuess":0.7142857142857143,"delta":0.2142857142857143,"totalExamples":4,"bonus":0,"bonusSoFar":1.17},{"rt":6831,"response":{"heads":"2","tails":"8"},"type":"response","condition":"nonSeqFull","trueTheta":0.2,"classrooms":["A","B"],"studentTrueClassroom":"A","exampleSet":"first","trial_type":"survey-html-form","trial_index":96,"time_elapsed":737870,"internal_node_id":"0.0-89.0-0.0","params":{"nStudents":24,"maxFlips":30,"completionMinutes":45,"basePay":8,"maxBonus":9,"perTrialBonus":0.5,"perTrialBonusThreshold":0.05,"exampleCost":0.01},"classroomParams":{"A":{"a":1,"b":4},"B":{"a":4,"b":1},"C":{"a":2,"b":8},"D":{"a":8,"b":2}},"conditions":["nonSeqFull","nonSeqPartial","seqNoFeedback","seqFeedback"],"classroomPairings":[["A","B"],["C","D"]],"coinWeights":[0.2,0.5,0.8],"subjectId":"A1ODA3Q5H6HTDQ","assignmentId":"3U5JL4WY5LV0A55NKSGRA92YFL5X41","hitId":"3NI0WFPPI9246I5W92FX9A3E2GN605","url":"https://gershmanlab.com/experiments/alicia/teaching/experiment/?hitId=3NI0WFPPI9246I5W92FX9A3E2GN605&workerId=A1ODA3Q5H6HTDQ&assignmentId=3U5JL4WY5LV0A55NKSGRA92YFL5X41&a=YL5U9&tp_a=YL5U9&b=3U5JL4WY5LV0A55NKSGRA92YFL5X41&tp_b=3U5JL4WY5LV0A55NKSGRA92YFL5X41&c=365799&tp_c=365799","heads":2,"tails":8,"studentIndex":10,"studentTrueHypers":{"a":1,"b":4},"studentGuess":0.2,"delta":0,"totalExamples":10,"bonus":0.4,"bonusSoFar":1.57},{"rt":3701,"response":{"heads":"4","tails":"1"},"type":"response","condition":"nonSeqPartial","trueTheta":0.8,"classrooms":["C","D"],"studentTrueClassroom":"D","exampleSet":"first","trial_type":"survey-html-form","trial_index":102,"time_elapsed":755265,"internal_node_id":"0.0-95.0-0.0","params":{"nStudents":24,"maxFlips":30,"completionMinutes":45,"basePay":8,"maxBonus":9,"perTrialBonus":0.5,"perTrialBonusThreshold":0.05,"exampleCost":0.01},"classroomParams":{"A":{"a":1,"b":4},"B":{"a":4,"b":1},"C":{"a":2,"b":8},"D":{"a":8,"b":2}},"conditions":["nonSeqFull","nonSeqPartial","seqNoFeedback","seqFeedback"],"classroomPairings":[["A","B"],["C","D"]],"coinWeights":[0.2,0.5,0.8],"subjectId":"A1ODA3Q5H6HTDQ","assignmentId":"3U5JL4WY5LV0A55NKSGRA92YFL5X41","hitId":"3NI0WFPPI9246I5W92FX9A3E2GN605","url":"https://gershmanlab.com/experiments/alicia/teaching/experiment/?hitId=3NI0WFPPI9246I5W92FX9A3E2GN605&workerId=A1ODA3Q5H6HTDQ&assignmentId=3U5JL4WY5LV0A55NKSGRA92YFL5X41&a=YL5U9&tp_a=YL5U9&b=3U5JL4WY5LV0A55NKSGRA92YFL5X41&tp_b=3U5JL4WY5LV0A55NKSGRA92YFL5X41&c=365799&tp_c=365799","heads":4,"tails":1,"studentIndex":11,"studentTrueHypers":{"a":8,"b":2},"studentGuess":0.8,"delta":0,"totalExamples":5,"bonus":0.45,"bonusSoFar":2.02},{"rt":3534,"response":{"heads":"4","tails":"1"},"type":"response","condition":"seqNoFeedback","trueTheta":0.8,"classrooms":["A","B"],"studentTrueClassroom":"A","exampleSet":"first","trial_type":"survey-html-form","trial_index":108,"time_elapsed":770995,"internal_node_id":"0.0-101.0-0.0","params":{"nStudents":24,"maxFlips":30,"completionMinutes":45,"basePay":8,"maxBonus":9,"perTrialBonus":0.5,"perTrialBonusThreshold":0.05,"exampleCost":0.01},"classroomParams":{"A":{"a":1,"b":4},"B":{"a":4,"b":1},"C":{"a":2,"b":8},"D":{"a":8,"b":2}},"conditions":["nonSeqFull","nonSeqPartial","seqNoFeedback","seqFeedback"],"classroomPairings":[["A","B"],["C","D"]],"coinWeights":[0.2,0.5,0.8],"subjectId":"A1ODA3Q5H6HTDQ","assignmentId":"3U5JL4WY5LV0A55NKSGRA92YFL5X41","hitId":"3NI0WFPPI9246I5W92FX9A3E2GN605","url":"https://gershmanlab.com/experiments/alicia/teaching/experiment/?hitId=3NI0WFPPI9246I5W92FX9A3E2GN605&workerId=A1ODA3Q5H6HTDQ&assignmentId=3U5JL4WY5LV0A55NKSGRA92YFL5X41&a=YL5U9&tp_a=YL5U9&b=3U5JL4WY5LV0A55NKSGRA92YFL5X41&tp_b=3U5JL4WY5LV0A55NKSGRA92YFL5X41&c=365799&tp_c=365799","heads":4,"tails":1,"studentIndex":12,"studentTrueHypers":{"a":1,"b":4},"studentGuess":0.5,"delta":0.30000000000000004,"totalExamples":5,"bonusSoFar":2.02},{"rt":6935,"response":{"heads":"8","tails":"2"},"type":"response","condition":"seqNoFeedback","trueTheta":0.8,"classrooms":["A","B"],"studentTrueClassroom":"A","exampleSet":"second","trial_type":"survey-html-form","trial_index":111,"time_elapsed":783433,"internal_node_id":"0.0-104.0-0.0","params":{"nStudents":24,"maxFlips":30,"completionMinutes":45,"basePay":8,"maxBonus":9,"perTrialBonus":0.5,"perTrialBonusThreshold":0.05,"exampleCost":0.01},"classroomParams":{"A":{"a":1,"b":4},"B":{"a":4,"b":1},"C":{"a":2,"b":8},"D":{"a":8,"b":2}},"conditions":["nonSeqFull","nonSeqPartial","seqNoFeedback","seqFeedback"],"classroomPairings":[["A","B"],["C","D"]],"coinWeights":[0.2,0.5,0.8],"subjectId":"A1ODA3Q5H6HTDQ","assignmentId":"3U5JL4WY5LV0A55NKSGRA92YFL5X41","hitId":"3NI0WFPPI9246I5W92FX9A3E2GN605","url":"https://gershmanlab.com/experiments/alicia/teaching/experiment/?hitId=3NI0WFPPI9246I5W92FX9A3E2GN605&workerId=A1ODA3Q5H6HTDQ&assignmentId=3U5JL4WY5LV0A55NKSGRA92YFL5X41&a=YL5U9&tp_a=YL5U9&b=3U5JL4WY5LV0A55NKSGRA92YFL5X41&tp_b=3U5JL4WY5LV0A55NKSGRA92YFL5X41&c=365799&tp_c=365799","firstResponseHeads":4,"firstResponseTails":1,"secondResponseHeads":8,"secondResponseTails":2,"totalHeads":12,"totalTails":3,"studentIndex":12,"studentTrueHypers":{"a":1,"b":4},"studentGuess":0.65,"delta":0.15000000000000002,"bonus":0,"bonusSoFar":2.02,"totalExamples":15},{"rt":2593,"response":{"heads":"1","tails":"1"},"type":"response","condition":"seqNoFeedback","trueTheta":0.5,"classrooms":["C","D"],"studentTrueClassroom":"D","exampleSet":"first","trial_type":"survey-html-form","trial_index":117,"time_elapsed":797445,"internal_node_id":"0.0-110.0-0.0","params":{"nStudents":24,"maxFlips":30,"completionMinutes":45,"basePay":8,"maxBonus":9,"perTrialBonus":0.5,"perTrialBonusThreshold":0.05,"exampleCost":0.01},"classroomParams":{"A":{"a":1,"b":4},"B":{"a":4,"b":1},"C":{"a":2,"b":8},"D":{"a":8,"b":2}},"conditions":["nonSeqFull","nonSeqPartial","seqNoFeedback","seqFeedback"],"classroomPairings":[["A","B"],["C","D"]],"coinWeights":[0.2,0.5,0.8],"subjectId":"A1ODA3Q5H6HTDQ","assignmentId":"3U5JL4WY5LV0A55NKSGRA92YFL5X41","hitId":"3NI0WFPPI9246I5W92FX9A3E2GN605","url":"https://gershmanlab.com/experiments/alicia/teaching/experiment/?hitId=3NI0WFPPI9246I5W92FX9A3E2GN605&workerId=A1ODA3Q5H6HTDQ&assignmentId=3U5JL4WY5LV0A55NKSGRA92YFL5X41&a=YL5U9&tp_a=YL5U9&b=3U5JL4WY5LV0A55NKSGRA92YFL5X41&tp_b=3U5JL4WY5LV0A55NKSGRA92YFL5X41&c=365799&tp_c=365799","heads":1,"tails":1,"studentIndex":13,"studentTrueHypers":{"a":8,"b":2},"studentGuess":0.75,"delta":0.25,"totalExamples":2,"bonusSoFar":2.02},{"rt":5683,"response":{"heads":"5","tails":"5"},"type":"response","condition":"seqNoFeedback","trueTheta":0.5,"classrooms":["C","D"],"studentTrueClassroom":"D","exampleSet":"second","trial_type":"survey-html-form","trial_index":120,"time_elapsed":809651,"internal_node_id":"0.0-113.0-0.0","params":{"nStudents":24,"maxFlips":30,"completionMinutes":45,"basePay":8,"maxBonus":9,"perTrialBonus":0.5,"perTrialBonusThreshold":0.05,"exampleCost":0.01},"classroomParams":{"A":{"a":1,"b":4},"B":{"a":4,"b":1},"C":{"a":2,"b":8},"D":{"a":8,"b":2}},"conditions":["nonSeqFull","nonSeqPartial","seqNoFeedback","seqFeedback"],"classroomPairings":[["A","B"],["C","D"]],"coinWeights":[0.2,0.5,0.8],"subjectId":"A1ODA3Q5H6HTDQ","assignmentId":"3U5JL4WY5LV0A55NKSGRA92YFL5X41","hitId":"3NI0WFPPI9246I5W92FX9A3E2GN605","url":"https://gershmanlab.com/experiments/alicia/teaching/experiment/?hitId=3NI0WFPPI9246I5W92FX9A3E2GN605&workerId=A1ODA3Q5H6HTDQ&assignmentId=3U5JL4WY5LV0A55NKSGRA92YFL5X41&a=YL5U9&tp_a=YL5U9&b=3U5JL4WY5LV0A55NKSGRA92YFL5X41&tp_b=3U5JL4WY5LV0A55NKSGRA92YFL5X41&c=365799&tp_c=365799","firstResponseHeads":1,"firstResponseTails":1,"secondResponseHeads":5,"secondResponseTails":5,"totalHeads":6,"totalTails":6,"studentIndex":13,"studentTrueHypers":{"a":8,"b":2},"studentGuess":0.6363636363636364,"delta":0.13636363636363635,"bonus":0,"bonusSoFar":2.02,"totalExamples":12},{"rt":3616,"response":{"heads":"1","tails":"1"},"type":"response","condition":"seqNoFeedback","trueTheta":0.5,"classrooms":["A","B"],"studentTrueClassroom":"A","exampleSet":"first","trial_type":"survey-html-form","trial_index":126,"time_elapsed":824830,"internal_node_id":"0.0-119.0-0.0","params":{"nStudents":24,"maxFlips":30,"completionMinutes":45,"basePay":8,"maxBonus":9,"perTrialBonus":0.5,"perTrialBonusThreshold":0.05,"exampleCost":0.01},"classroomParams":{"A":{"a":1,"b":4},"B":{"a":4,"b":1},"C":{"a":2,"b":8},"D":{"a":8,"b":2}},"conditions":["nonSeqFull","nonSeqPartial","seqNoFeedback","seqFeedback"],"classroomPairings":[["A","B"],["C","D"]],"coinWeights":[0.2,0.5,0.8],"subjectId":"A1ODA3Q5H6HTDQ","assignmentId":"3U5JL4WY5LV0A55NKSGRA92YFL5X41","hitId":"3NI0WFPPI9246I5W92FX9A3E2GN605","url":"https://gershmanlab.com/experiments/alicia/teaching/experiment/?hitId=3NI0WFPPI9246I5W92FX9A3E2GN605&workerId=A1ODA3Q5H6HTDQ&assignmentId=3U5JL4WY5LV0A55NKSGRA92YFL5X41&a=YL5U9&tp_a=YL5U9&b=3U5JL4WY5LV0A55NKSGRA92YFL5X41&tp_b=3U5JL4WY5LV0A55NKSGRA92YFL5X41&c=365799&tp_c=365799","heads":1,"tails":1,"studentIndex":14,"studentTrueHypers":{"a":1,"b":4},"studentGuess":0.2857142857142857,"delta":0.2142857142857143,"totalExamples":2,"bonusSoFar":2.02},{"rt":4522,"response":{"heads":"5","tails":"5"},"type":"response","condition":"seqNoFeedback","trueTheta":0.5,"classrooms":["A","B"],"studentTrueClassroom":"A","exampleSet":"second","trial_type":"survey-html-form","trial_index":129,"time_elapsed":836108,"internal_node_id":"0.0-122.0-0.0","params":{"nStudents":24,"maxFlips":30,"completionMinutes":45,"basePay":8,"maxBonus":9,"perTrialBonus":0.5,"perTrialBonusThreshold":0.05,"exampleCost":0.01},"classroomParams":{"A":{"a":1,"b":4},"B":{"a":4,"b":1},"C":{"a":2,"b":8},"D":{"a":8,"b":2}},"conditions":["nonSeqFull","nonSeqPartial","seqNoFeedback","seqFeedback"],"classroomPairings":[["A","B"],["C","D"]],"coinWeights":[0.2,0.5,0.8],"subjectId":"A1ODA3Q5H6HTDQ","assignmentId":"3U5JL4WY5LV0A55NKSGRA92YFL5X41","hitId":"3NI0WFPPI9246I5W92FX9A3E2GN605","url":"https://gershmanlab.com/experiments/alicia/teaching/experiment/?hitId=3NI0WFPPI9246I5W92FX9A3E2GN605&workerId=A1ODA3Q5H6HTDQ&assignmentId=3U5JL4WY5LV0A55NKSGRA92YFL5X41&a=YL5U9&tp_a=YL5U9&b=3U5JL4WY5LV0A55NKSGRA92YFL5X41&tp_b=3U5JL4WY5LV0A55NKSGRA92YFL5X41&c=365799&tp_c=365799","firstResponseHeads":1,"firstResponseTails":1,"secondResponseHeads":5,"secondResponseTails":5,"totalHeads":6,"totalTails":6,"studentIndex":14,"studentTrueHypers":{"a":1,"b":4},"studentGuess":0.4117647058823529,"delta":0.08823529411764708,"bonus":0,"bonusSoFar":2.02,"totalExamples":12},{"rt":9763,"response":{"heads":"1","tails":"4"},"type":"response","condition":"seqFeedback","trueTheta":0.2,"classrooms":["A","B"],"studentTrueClassroom":"A","exampleSet":"first","trial_type":"survey-html-form","trial_index":135,"time_elapsed":859118,"internal_node_id":"0.0-128.0-0.0","params":{"nStudents":24,"maxFlips":30,"completionMinutes":45,"basePay":8,"maxBonus":9,"perTrialBonus":0.5,"perTrialBonusThreshold":0.05,"exampleCost":0.01},"classroomParams":{"A":{"a":1,"b":4},"B":{"a":4,"b":1},"C":{"a":2,"b":8},"D":{"a":8,"b":2}},"conditions":["nonSeqFull","nonSeqPartial","seqNoFeedback","seqFeedback"],"classroomPairings":[["A","B"],["C","D"]],"coinWeights":[0.2,0.5,0.8],"subjectId":"A1ODA3Q5H6HTDQ","assignmentId":"3U5JL4WY5LV0A55NKSGRA92YFL5X41","hitId":"3NI0WFPPI9246I5W92FX9A3E2GN605","url":"https://gershmanlab.com/experiments/alicia/teaching/experiment/?hitId=3NI0WFPPI9246I5W92FX9A3E2GN605&workerId=A1ODA3Q5H6HTDQ&assignmentId=3U5JL4WY5LV0A55NKSGRA92YFL5X41&a=YL5U9&tp_a=YL5U9&b=3U5JL4WY5LV0A55NKSGRA92YFL5X41&tp_b=3U5JL4WY5LV0A55NKSGRA92YFL5X41&c=365799&tp_c=365799","heads":1,"tails":4,"studentIndex":15,"studentTrueHypers":{"a":1,"b":4},"studentGuess":0.2,"delta":0,"totalExamples":5,"bonusSoFar":2.02},{"rt":3134,"response":{"heads":"1","tails":"4"},"type":"response","condition":"seqFeedback","trueTheta":0.2,"classrooms":["A","B"],"studentTrueClassroom":"A","exampleSet":"second","trial_type":"survey-html-form","trial_index":139,"time_elapsed":869671,"internal_node_id":"0.0-132.0-0.0","params":{"nStudents":24,"maxFlips":30,"completionMinutes":45,"basePay":8,"maxBonus":9,"perTrialBonus":0.5,"perTrialBonusThreshold":0.05,"exampleCost":0.01},"classroomParams":{"A":{"a":1,"b":4},"B":{"a":4,"b":1},"C":{"a":2,"b":8},"D":{"a":8,"b":2}},"conditions":["nonSeqFull","nonSeqPartial","seqNoFeedback","seqFeedback"],"classroomPairings":[["A","B"],["C","D"]],"coinWeights":[0.2,0.5,0.8],"subjectId":"A1ODA3Q5H6HTDQ","assignmentId":"3U5JL4WY5LV0A55NKSGRA92YFL5X41","hitId":"3NI0WFPPI9246I5W92FX9A3E2GN605","url":"https://gershmanlab.com/experiments/alicia/teaching/experiment/?hitId=3NI0WFPPI9246I5W92FX9A3E2GN605&workerId=A1ODA3Q5H6HTDQ&assignmentId=3U5JL4WY5LV0A55NKSGRA92YFL5X41&a=YL5U9&tp_a=YL5U9&b=3U5JL4WY5LV0A55NKSGRA92YFL5X41&tp_b=3U5JL4WY5LV0A55NKSGRA92YFL5X41&c=365799&tp_c=365799","firstResponseHeads":1,"firstResponseTails":4,"secondResponseHeads":1,"secondResponseTails":4,"totalHeads":2,"totalTails":8,"studentIndex":15,"studentTrueHypers":{"a":1,"b":4},"studentGuess":0.2,"delta":0,"bonus":0.4,"bonusSoFar":2.42,"totalExamples":10},{"rt":6175,"response":{"heads":"2","tails":"8"},"type":"response","condition":"nonSeqPartial","trueTheta":0.2,"classrooms":["C","D"],"studentTrueClassroom":"C","exampleSet":"first","trial_type":"survey-html-form","trial_index":145,"time_elapsed":885734,"internal_node_id":"0.0-138.0-0.0","params":{"nStudents":24,"maxFlips":30,"completionMinutes":45,"basePay":8,"maxBonus":9,"perTrialBonus":0.5,"perTrialBonusThreshold":0.05,"exampleCost":0.01},"classroomParams":{"A":{"a":1,"b":4},"B":{"a":4,"b":1},"C":{"a":2,"b":8},"D":{"a":8,"b":2}},"conditions":["nonSeqFull","nonSeqPartial","seqNoFeedback","seqFeedback"],"classroomPairings":[["A","B"],["C","D"]],"coinWeights":[0.2,0.5,0.8],"subjectId":"A1ODA3Q5H6HTDQ","assignmentId":"3U5JL4WY5LV0A55NKSGRA92YFL5X41","hitId":"3NI0WFPPI9246I5W92FX9A3E2GN605","url":"https://gershmanlab.com/experiments/alicia/teaching/experiment/?hitId=3NI0WFPPI9246I5W92FX9A3E2GN605&workerId=A1ODA3Q5H6HTDQ&assignmentId=3U5JL4WY5LV0A55NKSGRA92YFL5X41&a=YL5U9&tp_a=YL5U9&b=3U5JL4WY5LV0A55NKSGRA92YFL5X41&tp_b=3U5JL4WY5LV0A55NKSGRA92YFL5X41&c=365799&tp_c=365799","heads":2,"tails":8,"studentIndex":16,"studentTrueHypers":{"a":2,"b":8},"studentGuess":0.2,"delta":0,"totalExamples":10,"bonus":0.4,"bonusSoFar":2.82},{"rt":4850,"response":{"heads":"2","tails":"8"},"type":"response","condition":"nonSeqFull","trueTheta":0.2,"classrooms":["C","D"],"studentTrueClassroom":"C","exampleSet":"first","trial_type":"survey-html-form","trial_index":151,"time_elapsed":903166,"internal_node_id":"0.0-144.0-0.0","params":{"nStudents":24,"maxFlips":30,"completionMinutes":45,"basePay":8,"maxBonus":9,"perTrialBonus":0.5,"perTrialBonusThreshold":0.05,"exampleCost":0.01},"classroomParams":{"A":{"a":1,"b":4},"B":{"a":4,"b":1},"C":{"a":2,"b":8},"D":{"a":8,"b":2}},"conditions":["nonSeqFull","nonSeqPartial","seqNoFeedback","seqFeedback"],"classroomPairings":[["A","B"],["C","D"]],"coinWeights":[0.2,0.5,0.8],"subjectId":"A1ODA3Q5H6HTDQ","assignmentId":"3U5JL4WY5LV0A55NKSGRA92YFL5X41","hitId":"3NI0WFPPI9246I5W92FX9A3E2GN605","url":"https://gershmanlab.com/experiments/alicia/teaching/experiment/?hitId=3NI0WFPPI9246I5W92FX9A3E2GN605&workerId=A1ODA3Q5H6HTDQ&assignmentId=3U5JL4WY5LV0A55NKSGRA92YFL5X41&a=YL5U9&tp_a=YL5U9&b=3U5JL4WY5LV0A55NKSGRA92YFL5X41&tp_b=3U5JL4WY5LV0A55NKSGRA92YFL5X41&c=365799&tp_c=365799","heads":2,"tails":8,"studentIndex":17,"studentTrueHypers":{"a":2,"b":8},"studentGuess":0.2,"delta":0,"totalExamples":10,"bonus":0.4,"bonusSoFar":3.22},{"rt":4455,"response":{"heads":"2","tails":"8"},"type":"response","condition":"seqNoFeedback","trueTheta":0.2,"classrooms":["C","D"],"studentTrueClassroom":"C","exampleSet":"first","trial_type":"survey-html-form","trial_index":157,"time_elapsed":920141,"internal_node_id":"0.0-150.0-0.0","params":{"nStudents":24,"maxFlips":30,"completionMinutes":45,"basePay":8,"maxBonus":9,"perTrialBonus":0.5,"perTrialBonusThreshold":0.05,"exampleCost":0.01},"classroomParams":{"A":{"a":1,"b":4},"B":{"a":4,"b":1},"C":{"a":2,"b":8},"D":{"a":8,"b":2}},"conditions":["nonSeqFull","nonSeqPartial","seqNoFeedback","seqFeedback"],"classroomPairings":[["A","B"],["C","D"]],"coinWeights":[0.2,0.5,0.8],"subjectId":"A1ODA3Q5H6HTDQ","assignmentId":"3U5JL4WY5LV0A55NKSGRA92YFL5X41","hitId":"3NI0WFPPI9246I5W92FX9A3E2GN605","url":"https://gershmanlab.com/experiments/alicia/teaching/experiment/?hitId=3NI0WFPPI9246I5W92FX9A3E2GN605&workerId=A1ODA3Q5H6HTDQ&assignmentId=3U5JL4WY5LV0A55NKSGRA92YFL5X41&a=YL5U9&tp_a=YL5U9&b=3U5JL4WY5LV0A55NKSGRA92YFL5X41&tp_b=3U5JL4WY5LV0A55NKSGRA92YFL5X41&c=365799&tp_c=365799","heads":2,"tails":8,"studentIndex":18,"studentTrueHypers":{"a":2,"b":8},"studentGuess":0.2,"delta":0,"totalExamples":10,"bonusSoFar":3.22},{"rt":6017,"response":{"heads":"2","tails":"8"},"type":"response","condition":"seqNoFeedback","trueTheta":0.2,"classrooms":["C","D"],"studentTrueClassroom":"C","exampleSet":"second","trial_type":"survey-html-form","trial_index":160,"time_elapsed":933168,"internal_node_id":"0.0-153.0-0.0","params":{"nStudents":24,"maxFlips":30,"completionMinutes":45,"basePay":8,"maxBonus":9,"perTrialBonus":0.5,"perTrialBonusThreshold":0.05,"exampleCost":0.01},"classroomParams":{"A":{"a":1,"b":4},"B":{"a":4,"b":1},"C":{"a":2,"b":8},"D":{"a":8,"b":2}},"conditions":["nonSeqFull","nonSeqPartial","seqNoFeedback","seqFeedback"],"classroomPairings":[["A","B"],["C","D"]],"coinWeights":[0.2,0.5,0.8],"subjectId":"A1ODA3Q5H6HTDQ","assignmentId":"3U5JL4WY5LV0A55NKSGRA92YFL5X41","hitId":"3NI0WFPPI9246I5W92FX9A3E2GN605","url":"https://gershmanlab.com/experiments/alicia/teaching/experiment/?hitId=3NI0WFPPI9246I5W92FX9A3E2GN605&workerId=A1ODA3Q5H6HTDQ&assignmentId=3U5JL4WY5LV0A55NKSGRA92YFL5X41&a=YL5U9&tp_a=YL5U9&b=3U5JL4WY5LV0A55NKSGRA92YFL5X41&tp_b=3U5JL4WY5LV0A55NKSGRA92YFL5X41&c=365799&tp_c=365799","firstResponseHeads":2,"firstResponseTails":8,"secondResponseHeads":2,"secondResponseTails":8,"totalHeads":4,"totalTails":16,"studentIndex":18,"studentTrueHypers":{"a":2,"b":8},"studentGuess":0.2,"delta":0,"bonus":0.3,"bonusSoFar":3.52,"totalExamples":20},{"rt":5954,"response":{"heads":"1","tails":"1"},"type":"response","condition":"nonSeqFull","trueTheta":0.5,"classrooms":["A","B"],"studentTrueClassroom":"A","exampleSet":"first","trial_type":"survey-html-form","trial_index":166,"time_elapsed":950112,"internal_node_id":"0.0-159.0-0.0","params":{"nStudents":24,"maxFlips":30,"completionMinutes":45,"basePay":8,"maxBonus":9,"perTrialBonus":0.5,"perTrialBonusThreshold":0.05,"exampleCost":0.01},"classroomParams":{"A":{"a":1,"b":4},"B":{"a":4,"b":1},"C":{"a":2,"b":8},"D":{"a":8,"b":2}},"conditions":["nonSeqFull","nonSeqPartial","seqNoFeedback","seqFeedback"],"classroomPairings":[["A","B"],["C","D"]],"coinWeights":[0.2,0.5,0.8],"subjectId":"A1ODA3Q5H6HTDQ","assignmentId":"3U5JL4WY5LV0A55NKSGRA92YFL5X41","hitId":"3NI0WFPPI9246I5W92FX9A3E2GN605","url":"https://gershmanlab.com/experiments/alicia/teaching/experiment/?hitId=3NI0WFPPI9246I5W92FX9A3E2GN605&workerId=A1ODA3Q5H6HTDQ&assignmentId=3U5JL4WY5LV0A55NKSGRA92YFL5X41&a=YL5U9&tp_a=YL5U9&b=3U5JL4WY5LV0A55NKSGRA92YFL5X41&tp_b=3U5JL4WY5LV0A55NKSGRA92YFL5X41&c=365799&tp_c=365799","heads":1,"tails":1,"studentIndex":19,"studentTrueHypers":{"a":1,"b":4},"studentGuess":0.2857142857142857,"delta":0.2142857142857143,"totalExamples":2,"bonus":0,"bonusSoFar":3.52},{"rt":4181,"response":{"heads":"8","tails":"2"},"type":"response","condition":"seqNoFeedback","trueTheta":0.8,"classrooms":["C","D"],"studentTrueClassroom":"C","exampleSet":"first","trial_type":"survey-html-form","trial_index":172,"time_elapsed":965517,"internal_node_id":"0.0-165.0-0.0","params":{"nStudents":24,"maxFlips":30,"completionMinutes":45,"basePay":8,"maxBonus":9,"perTrialBonus":0.5,"perTrialBonusThreshold":0.05,"exampleCost":0.01},"classroomParams":{"A":{"a":1,"b":4},"B":{"a":4,"b":1},"C":{"a":2,"b":8},"D":{"a":8,"b":2}},"conditions":["nonSeqFull","nonSeqPartial","seqNoFeedback","seqFeedback"],"classroomPairings":[["A","B"],["C","D"]],"coinWeights":[0.2,0.5,0.8],"subjectId":"A1ODA3Q5H6HTDQ","assignmentId":"3U5JL4WY5LV0A55NKSGRA92YFL5X41","hitId":"3NI0WFPPI9246I5W92FX9A3E2GN605","url":"https://gershmanlab.com/experiments/alicia/teaching/experiment/?hitId=3NI0WFPPI9246I5W92FX9A3E2GN605&workerId=A1ODA3Q5H6HTDQ&assignmentId=3U5JL4WY5LV0A55NKSGRA92YFL5X41&a=YL5U9&tp_a=YL5U9&b=3U5JL4WY5LV0A55NKSGRA92YFL5X41&tp_b=3U5JL4WY5LV0A55NKSGRA92YFL5X41&c=365799&tp_c=365799","heads":8,"tails":2,"studentIndex":20,"studentTrueHypers":{"a":2,"b":8},"studentGuess":0.5,"delta":0.30000000000000004,"totalExamples":10,"bonusSoFar":3.52},{"rt":8182,"response":{"heads":"8","tails":"2"},"type":"response","condition":"seqNoFeedback","trueTheta":0.8,"classrooms":["C","D"],"studentTrueClassroom":"C","exampleSet":"second","trial_type":"survey-html-form","trial_index":175,"time_elapsed":979963,"internal_node_id":"0.0-168.0-0.0","params":{"nStudents":24,"maxFlips":30,"completionMinutes":45,"basePay":8,"maxBonus":9,"perTrialBonus":0.5,"perTrialBonusThreshold":0.05,"exampleCost":0.01},"classroomParams":{"A":{"a":1,"b":4},"B":{"a":4,"b":1},"C":{"a":2,"b":8},"D":{"a":8,"b":2}},"conditions":["nonSeqFull","nonSeqPartial","seqNoFeedback","seqFeedback"],"classroomPairings":[["A","B"],["C","D"]],"coinWeights":[0.2,0.5,0.8],"subjectId":"A1ODA3Q5H6HTDQ","assignmentId":"3U5JL4WY5LV0A55NKSGRA92YFL5X41","hitId":"3NI0WFPPI9246I5W92FX9A3E2GN605","url":"https://gershmanlab.com/experiments/alicia/teaching/experiment/?hitId=3NI0WFPPI9246I5W92FX9A3E2GN605&workerId=A1ODA3Q5H6HTDQ&assignmentId=3U5JL4WY5LV0A55NKSGRA92YFL5X41&a=YL5U9&tp_a=YL5U9&b=3U5JL4WY5LV0A55NKSGRA92YFL5X41&tp_b=3U5JL4WY5LV0A55NKSGRA92YFL5X41&c=365799&tp_c=365799","firstResponseHeads":8,"firstResponseTails":2,"secondResponseHeads":8,"secondResponseTails":2,"totalHeads":16,"totalTails":4,"studentIndex":20,"studentTrueHypers":{"a":2,"b":8},"studentGuess":0.6,"delta":0.20000000000000007,"bonus":0,"bonusSoFar":3.52,"totalExamples":20},{"rt":7245,"response":{"heads":"1","tails":"4"},"type":"response","condition":"nonSeqPartial","trueTheta":0.2,"classrooms":["A","B"],"studentTrueClassroom":"B","exampleSet":"first","trial_type":"survey-html-form","trial_index":181,"time_elapsed":999493,"internal_node_id":"0.0-174.0-0.0","params":{"nStudents":24,"maxFlips":30,"completionMinutes":45,"basePay":8,"maxBonus":9,"perTrialBonus":0.5,"perTrialBonusThreshold":0.05,"exampleCost":0.01},"classroomParams":{"A":{"a":1,"b":4},"B":{"a":4,"b":1},"C":{"a":2,"b":8},"D":{"a":8,"b":2}},"conditions":["nonSeqFull","nonSeqPartial","seqNoFeedback","seqFeedback"],"classroomPairings":[["A","B"],["C","D"]],"coinWeights":[0.2,0.5,0.8],"subjectId":"A1ODA3Q5H6HTDQ","assignmentId":"3U5JL4WY5LV0A55NKSGRA92YFL5X41","hitId":"3NI0WFPPI9246I5W92FX9A3E2GN605","url":"https://gershmanlab.com/experiments/alicia/teaching/experiment/?hitId=3NI0WFPPI9246I5W92FX9A3E2GN605&workerId=A1ODA3Q5H6HTDQ&assignmentId=3U5JL4WY5LV0A55NKSGRA92YFL5X41&a=YL5U9&tp_a=YL5U9&b=3U5JL4WY5LV0A55NKSGRA92YFL5X41&tp_b=3U5JL4WY5LV0A55NKSGRA92YFL5X41&c=365799&tp_c=365799","heads":1,"tails":4,"studentIndex":21,"studentTrueHypers":{"a":4,"b":1},"studentGuess":0.5,"delta":0.3,"totalExamples":5,"bonus":0,"bonusSoFar":3.52},{"rt":15538,"response":{"heads":"4","tails":"1"},"type":"response","condition":"nonSeqFull","trueTheta":0.8,"classrooms":["A","B"],"studentTrueClassroom":"B","exampleSet":"first","trial_type":"survey-html-form","trial_index":187,"time_elapsed":1035105,"internal_node_id":"0.0-180.0-0.0","params":{"nStudents":24,"maxFlips":30,"completionMinutes":45,"basePay":8,"maxBonus":9,"perTrialBonus":0.5,"perTrialBonusThreshold":0.05,"exampleCost":0.01},"classroomParams":{"A":{"a":1,"b":4},"B":{"a":4,"b":1},"C":{"a":2,"b":8},"D":{"a":8,"b":2}},"conditions":["nonSeqFull","nonSeqPartial","seqNoFeedback","seqFeedback"],"classroomPairings":[["A","B"],["C","D"]],"coinWeights":[0.2,0.5,0.8],"subjectId":"A1ODA3Q5H6HTDQ","assignmentId":"3U5JL4WY5LV0A55NKSGRA92YFL5X41","hitId":"3NI0WFPPI9246I5W92FX9A3E2GN605","url":"https://gershmanlab.com/experiments/alicia/teaching/experiment/?hitId=3NI0WFPPI9246I5W92FX9A3E2GN605&workerId=A1ODA3Q5H6HTDQ&assignmentId=3U5JL4WY5LV0A55NKSGRA92YFL5X41&a=YL5U9&tp_a=YL5U9&b=3U5JL4WY5LV0A55NKSGRA92YFL5X41&tp_b=3U5JL4WY5LV0A55NKSGRA92YFL5X41&c=365799&tp_c=365799","heads":4,"tails":1,"studentIndex":22,"studentTrueHypers":{"a":4,"b":1},"studentGuess":0.8,"delta":0,"totalExamples":5,"bonus":0.45,"bonusSoFar":3.97},{"rt":4513,"response":{"heads":"2","tails":"2"},"type":"response","condition":"nonSeqPartial","trueTheta":0.5,"classrooms":["A","B"],"studentTrueClassroom":"A","exampleSet":"first","trial_type":"survey-html-form","trial_index":193,"time_elapsed":1051019,"internal_node_id":"0.0-186.0-0.0","params":{"nStudents":24,"maxFlips":30,"completionMinutes":45,"basePay":8,"maxBonus":9,"perTrialBonus":0.5,"perTrialBonusThreshold":0.05,"exampleCost":0.01},"classroomParams":{"A":{"a":1,"b":4},"B":{"a":4,"b":1},"C":{"a":2,"b":8},"D":{"a":8,"b":2}},"conditions":["nonSeqFull","nonSeqPartial","seqNoFeedback","seqFeedback"],"classroomPairings":[["A","B"],["C","D"]],"coinWeights":[0.2,0.5,0.8],"subjectId":"A1ODA3Q5H6HTDQ","assignmentId":"3U5JL4WY5LV0A55NKSGRA92YFL5X41","hitId":"3NI0WFPPI9246I5W92FX9A3E2GN605","url":"https://gershmanlab.com/experiments/alicia/teaching/experiment/?hitId=3NI0WFPPI9246I5W92FX9A3E2GN605&workerId=A1ODA3Q5H6HTDQ&assignmentId=3U5JL4WY5LV0A55NKSGRA92YFL5X41&a=YL5U9&tp_a=YL5U9&b=3U5JL4WY5LV0A55NKSGRA92YFL5X41&tp_b=3U5JL4WY5LV0A55NKSGRA92YFL5X41&c=365799&tp_c=365799","heads":2,"tails":2,"studentIndex":23,"studentTrueHypers":{"a":1,"b":4},"studentGuess":0.3333333333333333,"delta":0.16666666666666669,"totalExamples":4,"bonus":0,"bonusSoFar":3.97},{"rt":8334,"response":{"gender":"female","age":"31","understood":"yes","comments":""},"type":"response","trial_type":"survey-html-form","trial_index":197,"time_elapsed":1067390,"internal_node_id":"0.0-191.0","params":{"nStudents":24,"maxFlips":30,"completionMinutes":45,"basePay":8,"maxBonus":9,"perTrialBonus":0.5,"perTrialBonusThreshold":0.05,"exampleCost":0.01},"classroomParams":{"A":{"a":1,"b":4},"B":{"a":4,"b":1},"C":{"a":2,"b":8},"D":{"a":8,"b":2}},"conditions":["nonSeqFull","nonSeqPartial","seqNoFeedback","seqFeedback"],"classroomPairings":[["A","B"],["C","D"]],"coinWeights":[0.2,0.5,0.8],"subjectId":"A1ODA3Q5H6HTDQ","assignmentId":"3U5JL4WY5LV0A55NKSGRA92YFL5X41","hitId":"3NI0WFPPI9246I5W92FX9A3E2GN605","url":"https://gershmanlab.com/experiments/alicia/teaching/experiment/?hitId=3NI0WFPPI9246I5W92FX9A3E2GN605&workerId=A1ODA3Q5H6HTDQ&assignmentId=3U5JL4WY5LV0A55NKSGRA92YFL5X41&a=YL5U9&tp_a=YL5U9&b=3U5JL4WY5LV0A55NKSGRA92YFL5X41&tp_b=3U5JL4WY5LV0A55NKSGRA92YFL5X41&c=365799&tp_c=365799","totalBonus":3.97}]