[{"rt":77963,"response":{"heads":"1","tails":"1"},"type":"response","condition":"seqFeedback","trueTheta":0.5,"classrooms":["C","D"],"studentTrueClassroom":"D","exampleSet":"first","trial_type":"survey-html-form","trial_index":7,"time_elapsed":505895,"internal_node_id":"0.0-6.0-0.0","params":{"nStudents":24,"maxFlips":30,"completionMinutes":45,"basePay":8,"maxBonus":9,"perTrialBonus":0.5,"perTrialBonusThreshold":0.05,"exampleCost":0.01},"classroomParams":{"A":{"a":1,"b":4},"B":{"a":4,"b":1},"C":{"a":2,"b":8},"D":{"a":8,"b":2}},"conditions":["nonSeqFull","nonSeqPartial","seqNoFeedback","seqFeedback"],"classroomPairings":[["A","B"],["C","D"]],"coinWeights":[0.2,0.5,0.8],"subjectId":"A1P6OXEJ86HQRM","assignmentId":"38BQUHLA9XMTKMG1P5TRDQS5P8LMOG","hitId":"3Z3R5YC0P3915KVY8X6BNRIWSQNFTT","url":"https://gershmanlab.com/experiments/alicia/teaching/experiment/?hitId=3Z3R5YC0P3915KVY8X6BNRIWSQNFTT&workerId=A1P6OXEJ86HQRM&assignmentId=38BQUHLA9XMTKMG1P5TRDQS5P8LMOG&a=AUB89&tp_a=AUB89&b=38BQUHLA9XMTKMG1P5TRDQS5P8LMOG&tp_b=38BQUHLA9XMTKMG1P5TRDQS5P8LMOG&c=365799&tp_c=365799","heads":1,"tails":1,"studentIndex":0,"studentTrueHypers":{"a":8,"b":2},"studentGuess":0.75,"delta":0.25,"totalExamples":2,"bonusSoFar":0},{"rt":11240,"response":{"heads":"0","tails":"2"},"type":"response","condition":"seqFeedback","trueTheta":0.5,"classrooms":["C","D"],"studentTrueClassroom":"D","exampleSet":"second","trial_type":"survey-html-form","trial_index":11,"time_elapsed":531135,"internal_node_id":"0.0-10.0-0.0","params":{"nStudents":24,"maxFlips":30,"completionMinutes":45,"basePay":8,"maxBonus":9,"perTrialBonus":0.5,"perTrialBonusThreshold":0.05,"exampleCost":0.01},"classroomParams":{"A":{"a":1,"b":4},"B":{"a":4,"b":1},"C":{"a":2,"b":8},"D":{"a":8,"b":2}},"conditions":["nonSeqFull","nonSeqPartial","seqNoFeedback","seqFeedback"],"classroomPairings":[["A","B"],["C","D"]],"coinWeights":[0.2,0.5,0.8],"subjectId":"A1P6OXEJ86HQRM","assignmentId":"38BQUHLA9XMTKMG1P5TRDQS5P8LMOG","hitId":"3Z3R5YC0P3915KVY8X6BNRIWSQNFTT","url":"https://gershmanlab.com/experiments/alicia/teaching/experiment/?hitId=3Z3R5YC0P3915KVY8X6BNRIWSQNFTT&workerId=A1P6OXEJ86HQRM&assignmentId=38BQUHLA9XMTKMG1P5TRDQS5P8LMOG&a=AUB89&tp_a=AUB89&b=38BQUHLA9XMTKMG1P5TRDQS5P8LMOG&tp_b=38BQUHLA9XMTKMG1P5TRDQS5P8LMOG&c=365799&tp_c=365799","firstResponseHeads":1,"firstResponseTails":1,"secondResponseHeads":0,"secondResponseTails":2,"totalHeads":1,"totalTails":3,"studentIndex":0,"studentTrueHypers":{"a":8,"b":2},"studentGuess":0.6428571428571429,"delta":0.1428571428571429,"bonus":0,"bonusSoFar":0,"totalExamples":4},{"rt":17036,"response":{"heads":"4","tails":"0"},"type":"response","condition":"seqFeedback","trueTheta":0.8,"classrooms":["C","D"],"studentTrueClassroom":"D","exampleSet":"first","trial_type":"survey-html-form","trial_index":17,"time_elapsed":574231,"internal_node_id":"0.0-16.0-0.0","params":{"nStudents":24,"maxFlips":30,"completionMinutes":45,"basePay":8,"maxBonus":9,"perTrialBonus":0.5,"perTrialBonusThreshold":0.05,"exampleCost":0.01},"classroomParams":{"A":{"a":1,"b":4},"B":{"a":4,"b":1},"C":{"a":2,"b":8},"D":{"a":8,"b":2}},"conditions":["nonSeqFull","nonSeqPartial","seqNoFeedback","seqFeedback"],"classroomPairings":[["A","B"],["C","D"]],"coinWeights":[0.2,0.5,0.8],"subjectId":"A1P6OXEJ86HQRM","assignmentId":"38BQUHLA9XMTKMG1P5TRDQS5P8LMOG","hitId":"3Z3R5YC0P3915KVY8X6BNRIWSQNFTT","url":"https://gershmanlab.com/experiments/alicia/teaching/experiment/?hitId=3Z3R5YC0P3915KVY8X6BNRIWSQNFTT&workerId=A1P6OXEJ86HQRM&assignmentId=38BQUHLA9XMTKMG1P5TRDQS5P8LMOG&a=AUB89&tp_a=AUB89&b=38BQUHLA9XMTKMG1P5TRDQS5P8LMOG&tp_b=38BQUHLA9XMTKMG1P5TRDQS5P8LMOG&c=365799&tp_c=365799","heads":4,"tails":0,"studentIndex":1,"studentTrueHypers":{"a":8,"b":2},"studentGuess":0.8571428571428571,"delta":0.05714285714285705,"totalExamples":4,"bonusSoFar":0},{"rt":18316,"response":{"heads":"2","tails":"1"},"type":"response","condition":"seqFeedback","trueTheta":0.8,"classrooms":["C","D"],"studentTrueClassroom":"D","exampleSet":"second","trial_type":"survey-html-form","trial_index":21,"time_elapsed":606244,"internal_node_id":"0.0-20.0-0.0","params":{"nStudents":24,"maxFlips":30,"completionMinutes":45,"basePay":8,"maxBonus":9,"perTrialBonus":0.5,"perTrialBonusThreshold":0.05,"exampleCost":0.01},"classroomParams":{"A":{"a":1,"b":4},"B":{"a":4,"b":1},"C":{"a":2,"b":8},"D":{"a":8,"b":2}},"conditions":["nonSeqFull","nonSeqPartial","seqNoFeedback","seqFeedback"],"classroomPairings":[["A","B"],["C","D"]],"coinWeights":[0.2,0.5,0.8],"subjectId":"A1P6OXEJ86HQRM","assignmentId":"38BQUHLA9XMTKMG1P5TRDQS5P8LMOG","hitId":"3Z3R5YC0P3915KVY8X6BNRIWSQNFTT","url":"https://gershmanlab.com/experiments/alicia/teaching/experiment/?hitId=3Z3R5YC0P3915KVY8X6BNRIWSQNFTT&workerId=A1P6OXEJ86HQRM&assignmentId=38BQUHLA9XMTKMG1P5TRDQS5P8LMOG&a=AUB89&tp_a=AUB89&b=38BQUHLA9XMTKMG1P5TRDQS5P8LMOG&tp_b=38BQUHLA9XMTKMG1P5TRDQS5P8LMOG&c=365799&tp_c=365799","firstResponseHeads":4,"firstResponseTails":0,"secondResponseHeads":2,"secondResponseTails":1,"totalHeads":6,"totalTails":1,"studentIndex":1,"studentTrueHypers":{"a":8,"b":2},"studentGuess":0.8235294117647058,"delta":0.0235294117647058,"bonus":0.43,"bonusSoFar":0.43,"totalExamples":7},{"rt":8237,"response":{"heads":"0","tails":"4"},"type":"response","condition":"seqNoFeedback","trueTheta":0.2,"classrooms":["C","D"],"studentTrueClassroom":"C","exampleSet":"first","trial_type":"survey-html-form","trial_index":27,"time_elapsed":634785,"internal_node_id":"0.0-26.0-0.0","params":{"nStudents":24,"maxFlips":30,"completionMinutes":45,"basePay":8,"maxBonus":9,"perTrialBonus":0.5,"perTrialBonusThreshold":0.05,"exampleCost":0.01},"classroomParams":{"A":{"a":1,"b":4},"B":{"a":4,"b":1},"C":{"a":2,"b":8},"D":{"a":8,"b":2}},"conditions":["nonSeqFull","nonSeqPartial","seqNoFeedback","seqFeedback"],"classroomPairings":[["A","B"],["C","D"]],"coinWeights":[0.2,0.5,0.8],"subjectId":"A1P6OXEJ86HQRM","assignmentId":"38BQUHLA9XMTKMG1P5TRDQS5P8LMOG","hitId":"3Z3R5YC0P3915KVY8X6BNRIWSQNFTT","url":"https://gershmanlab.com/experiments/alicia/teaching/experiment/?hitId=3Z3R5YC0P3915KVY8X6BNRIWSQNFTT&workerId=A1P6OXEJ86HQRM&assignmentId=38BQUHLA9XMTKMG1P5TRDQS5P8LMOG&a=AUB89&tp_a=AUB89&b=38BQUHLA9XMTKMG1P5TRDQS5P8LMOG&tp_b=38BQUHLA9XMTKMG1P5TRDQS5P8LMOG&c=365799&tp_c=365799","heads":0,"tails":4,"studentIndex":2,"studentTrueHypers":{"a":2,"b":8},"studentGuess":0.14285714285714285,"delta":0.05714285714285716,"totalExamples":4,"bonusSoFar":0.43},{"rt":18101,"response":{"heads":"1","tails":"4"},"type":"response","condition":"seqNoFeedback","trueTheta":0.2,"classrooms":["C","D"],"studentTrueClassroom":"C","exampleSet":"second","trial_type":"survey-html-form","trial_index":30,"time_elapsed":658649,"internal_node_id":"0.0-29.0-0.0","params":{"nStudents":24,"maxFlips":30,"completionMinutes":45,"basePay":8,"maxBonus":9,"perTrialBonus":0.5,"perTrialBonusThreshold":0.05,"exampleCost":0.01},"classroomParams":{"A":{"a":1,"b":4},"B":{"a":4,"b":1},"C":{"a":2,"b":8},"D":{"a":8,"b":2}},"conditions":["nonSeqFull","nonSeqPartial","seqNoFeedback","seqFeedback"],"classroomPairings":[["A","B"],["C","D"]],"coinWeights":[0.2,0.5,0.8],"subjectId":"A1P6OXEJ86HQRM","assignmentId":"38BQUHLA9XMTKMG1P5TRDQS5P8LMOG","hitId":"3Z3R5YC0P3915KVY8X6BNRIWSQNFTT","url":"https://gershmanlab.com/experiments/alicia/teaching/experiment/?hitId=3Z3R5YC0P3915KVY8X6BNRIWSQNFTT&workerId=A1P6OXEJ86HQRM&assignmentId=38BQUHLA9XMTKMG1P5TRDQS5P8LMOG&a=AUB89&tp_a=AUB89&b=38BQUHLA9XMTKMG1P5TRDQS5P8LMOG&tp_b=38BQUHLA9XMTKMG1P5TRDQS5P8LMOG&c=365799&tp_c=365799","firstResponseHeads":0,"firstResponseTails":4,"secondResponseHeads":1,"secondResponseTails":4,"totalHeads":1,"totalTails":8,"studentIndex":2,"studentTrueHypers":{"a":2,"b":8},"studentGuess":0.15789473684210525,"delta":0.04210526315789476,"bonus":0.41,"bonusSoFar":0.84,"totalExamples":9},{"rt":9172,"response":{"heads":"4","tails":"0"},"type":"response","condition":"seqNoFeedback","trueTheta":0.8,"classrooms":["A","B"],"studentTrueClassroom":"A","exampleSet":"first","trial_type":"survey-html-form","trial_index":36,"time_elapsed":688602,"internal_node_id":"0.0-35.0-0.0","params":{"nStudents":24,"maxFlips":30,"completionMinutes":45,"basePay":8,"maxBonus":9,"perTrialBonus":0.5,"perTrialBonusThreshold":0.05,"exampleCost":0.01},"classroomParams":{"A":{"a":1,"b":4},"B":{"a":4,"b":1},"C":{"a":2,"b":8},"D":{"a":8,"b":2}},"conditions":["nonSeqFull","nonSeqPartial","seqNoFeedback","seqFeedback"],"classroomPairings":[["A","B"],["C","D"]],"coinWeights":[0.2,0.5,0.8],"subjectId":"A1P6OXEJ86HQRM","assignmentId":"38BQUHLA9XMTKMG1P5TRDQS5P8LMOG","hitId":"3Z3R5YC0P3915KVY8X6BNRIWSQNFTT","url":"https://gershmanlab.com/experiments/alicia/teaching/experiment/?hitId=3Z3R5YC0P3915KVY8X6BNRIWSQNFTT&workerId=A1P6OXEJ86HQRM&assignmentId=38BQUHLA9XMTKMG1P5TRDQS5P8LMOG&a=AUB89&tp_a=AUB89&b=38BQUHLA9XMTKMG1P5TRDQS5P8LMOG&tp_b=38BQUHLA9XMTKMG1P5TRDQS5P8LMOG&c=365799&tp_c=365799","heads":4,"tails":0,"studentIndex":3,"studentTrueHypers":{"a":1,"b":4},"studentGuess":0.5555555555555556,"delta":0.24444444444444446,"totalExamples":4,"bonusSoFar":0.84},{"rt":15914,"response":{"heads":"4","tails":"1"},"type":"response","condition":"seqNoFeedback","trueTheta":0.8,"classrooms":["A","B"],"studentTrueClassroom":"A","exampleSet":"second","trial_type":"survey-html-form","trial_index":39,"time_elapsed":711020,"internal_node_id":"0.0-38.0-0.0","params":{"nStudents":24,"maxFlips":30,"completionMinutes":45,"basePay":8,"maxBonus":9,"perTrialBonus":0.5,"perTrialBonusThreshold":0.05,"exampleCost":0.01},"classroomParams":{"A":{"a":1,"b":4},"B":{"a":4,"b":1},"C":{"a":2,"b":8},"D":{"a":8,"b":2}},"conditions":["nonSeqFull","nonSeqPartial","seqNoFeedback","seqFeedback"],"classroomPairings":[["A","B"],["C","D"]],"coinWeights":[0.2,0.5,0.8],"subjectId":"A1P6OXEJ86HQRM","assignmentId":"38BQUHLA9XMTKMG1P5TRDQS5P8LMOG","hitId":"3Z3R5YC0P3915KVY8X6BNRIWSQNFTT","url":"https://gershmanlab.com/experiments/alicia/teaching/experiment/?hitId=3Z3R5YC0P3915KVY8X6BNRIWSQNFTT&workerId=A1P6OXEJ86HQRM&assignmentId=38BQUHLA9XMTKMG1P5TRDQS5P8LMOG&a=AUB89&tp_a=AUB89&b=38BQUHLA9XMTKMG1P5TRDQS5P8LMOG&tp_b=38BQUHLA9XMTKMG1P5TRDQS5P8LMOG&c=365799&tp_c=365799","firstResponseHeads":4,"firstResponseTails":0,"secondResponseHeads":4,"secondResponseTails":1,"totalHeads":8,"totalTails":1,"studentIndex":3,"studentTrueHypers":{"a":1,"b":4},"studentGuess":0.6428571428571429,"delta":0.15714285714285714,"bonus":0,"bonusSoFar":0.84,"totalExamples":9},{"rt":22644,"response":{"heads":"8","tails":"2"},"type":"response","condition":"nonSeqFull","trueTheta":0.5,"classrooms":["C","D"],"studentTrueClassroom":"C","exampleSet":"first","trial_type":"survey-html-form","trial_index":45,"time_elapsed":754253,"internal_node_id":"0.0-44.0-0.0","params":{"nStudents":24,"maxFlips":30,"completionMinutes":45,"basePay":8,"maxBonus":9,"perTrialBonus":0.5,"perTrialBonusThreshold":0.05,"exampleCost":0.01},"classroomParams":{"A":{"a":1,"b":4},"B":{"a":4,"b":1},"C":{"a":2,"b":8},"D":{"a":8,"b":2}},"conditions":["nonSeqFull","nonSeqPartial","seqNoFeedback","seqFeedback"],"classroomPairings":[["A","B"],["C","D"]],"coinWeights":[0.2,0.5,0.8],"subjectId":"A1P6OXEJ86HQRM","assignmentId":"38BQUHLA9XMTKMG1P5TRDQS5P8LMOG","hitId":"3Z3R5YC0P3915KVY8X6BNRIWSQNFTT","url":"https://gershmanlab.com/experiments/alicia/teaching/experiment/?hitId=3Z3R5YC0P3915KVY8X6BNRIWSQNFTT&workerId=A1P6OXEJ86HQRM&assignmentId=38BQUHLA9XMTKMG1P5TRDQS5P8LMOG&a=AUB89&tp_a=AUB89&b=38BQUHLA9XMTKMG1P5TRDQS5P8LMOG&tp_b=38BQUHLA9XMTKMG1P5TRDQS5P8LMOG&c=365799&tp_c=365799","heads":8,"tails":2,"studentIndex":4,"studentTrueHypers":{"a":2,"b":8},"studentGuess":0.5,"delta":0,"totalExamples":10,"bonus":0.4,"bonusSoFar":1.24},{"rt":15496,"response":{"heads":"1","tails":"4"},"type":"response","condition":"seqNoFeedback","trueTheta":0.2,"classrooms":["A","B"],"studentTrueClassroom":"A","exampleSet":"first","trial_type":"survey-html-form","trial_index":51,"time_elapsed":787898,"internal_node_id":"0.0-50.0-0.0","params":{"nStudents":24,"maxFlips":30,"completionMinutes":45,"basePay":8,"maxBonus":9,"perTrialBonus":0.5,"perTrialBonusThreshold":0.05,"exampleCost":0.01},"classroomParams":{"A":{"a":1,"b":4},"B":{"a":4,"b":1},"C":{"a":2,"b":8},"D":{"a":8,"b":2}},"conditions":["nonSeqFull","nonSeqPartial","seqNoFeedback","seqFeedback"],"classroomPairings":[["A","B"],["C","D"]],"coinWeights":[0.2,0.5,0.8],"subjectId":"A1P6OXEJ86HQRM","assignmentId":"38BQUHLA9XMTKMG1P5TRDQS5P8LMOG","hitId":"3Z3R5YC0P3915KVY8X6BNRIWSQNFTT","url":"https://gershmanlab.com/experiments/alicia/teaching/experiment/?hitId=3Z3R5YC0P3915KVY8X6BNRIWSQNFTT&workerId=A1P6OXEJ86HQRM&assignmentId=38BQUHLA9XMTKMG1P5TRDQS5P8LMOG&a=AUB89&tp_a=AUB89&b=38BQUHLA9XMTKMG1P5TRDQS5P8LMOG&tp_b=38BQUHLA9XMTKMG1P5TRDQS5P8LMOG&c=365799&tp_c=365799","heads":1,"tails":4,"studentIndex":5,"studentTrueHypers":{"a":1,"b":4},"studentGuess":0.2,"delta":0,"totalExamples":5,"bonusSoFar":1.24},{"rt":7376,"response":{"heads":"1","tails":"4"},"type":"response","condition":"seqNoFeedback","trueTheta":0.2,"classrooms":["A","B"],"studentTrueClassroom":"A","exampleSet":"second","trial_type":"survey-html-form","trial_index":54,"time_elapsed":802032,"internal_node_id":"0.0-53.0-0.0","params":{"nStudents":24,"maxFlips":30,"completionMinutes":45,"basePay":8,"maxBonus":9,"perTrialBonus":0.5,"perTrialBonusThreshold":0.05,"exampleCost":0.01},"classroomParams":{"A":{"a":1,"b":4},"B":{"a":4,"b":1},"C":{"a":2,"b":8},"D":{"a":8,"b":2}},"conditions":["nonSeqFull","nonSeqPartial","seqNoFeedback","seqFeedback"],"classroomPairings":[["A","B"],["C","D"]],"coinWeights":[0.2,0.5,0.8],"subjectId":"A1P6OXEJ86HQRM","assignmentId":"38BQUHLA9XMTKMG1P5TRDQS5P8LMOG","hitId":"3Z3R5YC0P3915KVY8X6BNRIWSQNFTT","url":"https://gershmanlab.com/experiments/alicia/teaching/experiment/?hitId=3Z3R5YC0P3915KVY8X6BNRIWSQNFTT&workerId=A1P6OXEJ86HQRM&assignmentId=38BQUHLA9XMTKMG1P5TRDQS5P8LMOG&a=AUB89&tp_a=AUB89&b=38BQUHLA9XMTKMG1P5TRDQS5P8LMOG&tp_b=38BQUHLA9XMTKMG1P5TRDQS5P8LMOG&c=365799&tp_c=365799","firstResponseHeads":1,"firstResponseTails":4,"secondResponseHeads":1,"secondResponseTails":4,"totalHeads":2,"totalTails":8,"studentIndex":5,"studentTrueHypers":{"a":1,"b":4},"studentGuess":0.2,"delta":0,"bonus":0.4,"bonusSoFar":1.64,"totalExamples":10},{"rt":16937,"response":{"heads":"6","tails":"0"},"type":"response","condition":"nonSeqPartial","trueTheta":0.8,"classrooms":["C","D"],"studentTrueClassroom":"C","exampleSet":"first","trial_type":"survey-html-form","trial_index":60,"time_elapsed":835746,"internal_node_id":"0.0-59.0-0.0","params":{"nStudents":24,"maxFlips":30,"completionMinutes":45,"basePay":8,"maxBonus":9,"perTrialBonus":0.5,"perTrialBonusThreshold":0.05,"exampleCost":0.01},"classroomParams":{"A":{"a":1,"b":4},"B":{"a":4,"b":1},"C":{"a":2,"b":8},"D":{"a":8,"b":2}},"conditions":["nonSeqFull","nonSeqPartial","seqNoFeedback","seqFeedback"],"classroomPairings":[["A","B"],["C","D"]],"coinWeights":[0.2,0.5,0.8],"subjectId":"A1P6OXEJ86HQRM","assignmentId":"38BQUHLA9XMTKMG1P5TRDQS5P8LMOG","hitId":"3Z3R5YC0P3915KVY8X6BNRIWSQNFTT","url":"https://gershmanlab.com/experiments/alicia/teaching/experiment/?hitId=3Z3R5YC0P3915KVY8X6BNRIWSQNFTT&workerId=A1P6OXEJ86HQRM&assignmentId=38BQUHLA9XMTKMG1P5TRDQS5P8LMOG&a=AUB89&tp_a=AUB89&b=38BQUHLA9XMTKMG1P5TRDQS5P8LMOG&tp_b=38BQUHLA9XMTKMG1P5TRDQS5P8LMOG&c=365799&tp_c=365799","heads":6,"tails":0,"studentIndex":6,"studentTrueHypers":{"a":2,"b":8},"studentGuess":0.5,"delta":0.30000000000000004,"totalExamples":6,"bonus":0,"bonusSoFar":1.64},{"rt":20294,"response":{"heads":"1","tails":"9"},"type":"response","condition":"nonSeqPartial","trueTheta":0.2,"classrooms":["A","B"],"studentTrueClassroom":"A","exampleSet":"first","trial_type":"survey-html-form","trial_index":66,"time_elapsed":870916,"internal_node_id":"0.0-65.0-0.0","params":{"nStudents":24,"maxFlips":30,"completionMinutes":45,"basePay":8,"maxBonus":9,"perTrialBonus":0.5,"perTrialBonusThreshold":0.05,"exampleCost":0.01},"classroomParams":{"A":{"a":1,"b":4},"B":{"a":4,"b":1},"C":{"a":2,"b":8},"D":{"a":8,"b":2}},"conditions":["nonSeqFull","nonSeqPartial","seqNoFeedback","seqFeedback"],"classroomPairings":[["A","B"],["C","D"]],"coinWeights":[0.2,0.5,0.8],"subjectId":"A1P6OXEJ86HQRM","assignmentId":"38BQUHLA9XMTKMG1P5TRDQS5P8LMOG","hitId":"3Z3R5YC0P3915KVY8X6BNRIWSQNFTT","url":"https://gershmanlab.com/experiments/alicia/teaching/experiment/?hitId=3Z3R5YC0P3915KVY8X6BNRIWSQNFTT&workerId=A1P6OXEJ86HQRM&assignmentId=38BQUHLA9XMTKMG1P5TRDQS5P8LMOG&a=AUB89&tp_a=AUB89&b=38BQUHLA9XMTKMG1P5TRDQS5P8LMOG&tp_b=38BQUHLA9XMTKMG1P5TRDQS5P8LMOG&c=365799&tp_c=365799","heads":1,"tails":9,"studentIndex":7,"studentTrueHypers":{"a":1,"b":4},"studentGuess":0.13333333333333333,"delta":0.06666666666666668,"totalExamples":10,"bonus":0,"bonusSoFar":1.64},{"rt":11499,"response":{"heads":"1","tails":"1"},"type":"response","condition":"seqNoFeedback","trueTheta":0.5,"classrooms":["C","D"],"studentTrueClassroom":"C","exampleSet":"first","trial_type":"survey-html-form","trial_index":72,"time_elapsed":899680,"internal_node_id":"0.0-71.0-0.0","params":{"nStudents":24,"maxFlips":30,"completionMinutes":45,"basePay":8,"maxBonus":9,"perTrialBonus":0.5,"perTrialBonusThreshold":0.05,"exampleCost":0.01},"classroomParams":{"A":{"a":1,"b":4},"B":{"a":4,"b":1},"C":{"a":2,"b":8},"D":{"a":8,"b":2}},"conditions":["nonSeqFull","nonSeqPartial","seqNoFeedback","seqFeedback"],"classroomPairings":[["A","B"],["C","D"]],"coinWeights":[0.2,0.5,0.8],"subjectId":"A1P6OXEJ86HQRM","assignmentId":"38BQUHLA9XMTKMG1P5TRDQS5P8LMOG","hitId":"3Z3R5YC0P3915KVY8X6BNRIWSQNFTT","url":"https://gershmanlab.com/experiments/alicia/teaching/experiment/?hitId=3Z3R5YC0P3915KVY8X6BNRIWSQNFTT&workerId=A1P6OXEJ86HQRM&assignmentId=38BQUHLA9XMTKMG1P5TRDQS5P8LMOG&a=AUB89&tp_a=AUB89&b=38BQUHLA9XMTKMG1P5TRDQS5P8LMOG&tp_b=38BQUHLA9XMTKMG1P5TRDQS5P8LMOG&c=365799&tp_c=365799","heads":1,"tails":1,"studentIndex":8,"studentTrueHypers":{"a":2,"b":8},"studentGuess":0.25,"delta":0.25,"totalExamples":2,"bonusSoFar":1.64},{"rt":9795,"response":{"heads":"15","tails":"15"},"type":"response","condition":"seqNoFeedback","trueTheta":0.5,"classrooms":["C","D"],"studentTrueClassroom":"C","exampleSet":"second","trial_type":"survey-html-form","trial_index":75,"time_elapsed":916486,"internal_node_id":"0.0-74.0-0.0","params":{"nStudents":24,"maxFlips":30,"completionMinutes":45,"basePay":8,"maxBonus":9,"perTrialBonus":0.5,"perTrialBonusThreshold":0.05,"exampleCost":0.01},"classroomParams":{"A":{"a":1,"b":4},"B":{"a":4,"b":1},"C":{"a":2,"b":8},"D":{"a":8,"b":2}},"conditions":["nonSeqFull","nonSeqPartial","seqNoFeedback","seqFeedback"],"classroomPairings":[["A","B"],["C","D"]],"coinWeights":[0.2,0.5,0.8],"subjectId":"A1P6OXEJ86HQRM","assignmentId":"38BQUHLA9XMTKMG1P5TRDQS5P8LMOG","hitId":"3Z3R5YC0P3915KVY8X6BNRIWSQNFTT","url":"https://gershmanlab.com/experiments/alicia/teaching/experiment/?hitId=3Z3R5YC0P3915KVY8X6BNRIWSQNFTT&workerId=A1P6OXEJ86HQRM&assignmentId=38BQUHLA9XMTKMG1P5TRDQS5P8LMOG&a=AUB89&tp_a=AUB89&b=38BQUHLA9XMTKMG1P5TRDQS5P8LMOG&tp_b=38BQUHLA9XMTKMG1P5TRDQS5P8LMOG&c=365799&tp_c=365799","firstResponseHeads":1,"firstResponseTails":1,"secondResponseHeads":15,"secondResponseTails":15,"totalHeads":16,"totalTails":16,"studentIndex":8,"studentTrueHypers":{"a":2,"b":8},"studentGuess":0.42857142857142855,"delta":0.07142857142857145,"bonus":0,"bonusSoFar":1.64,"totalExamples":32},{"rt":14351,"response":{"heads":"16","tails":"4"},"type":"response","condition":"nonSeqPartial","trueTheta":0.8,"classrooms":["A","B"],"studentTrueClassroom":"B","exampleSet":"first","trial_type":"survey-html-form","trial_index":81,"time_elapsed":950139,"internal_node_id":"0.0-80.0-0.0","params":{"nStudents":24,"maxFlips":30,"completionMinutes":45,"basePay":8,"maxBonus":9,"perTrialBonus":0.5,"perTrialBonusThreshold":0.05,"exampleCost":0.01},"classroomParams":{"A":{"a":1,"b":4},"B":{"a":4,"b":1},"C":{"a":2,"b":8},"D":{"a":8,"b":2}},"conditions":["nonSeqFull","nonSeqPartial","seqNoFeedback","seqFeedback"],"classroomPairings":[["A","B"],["C","D"]],"coinWeights":[0.2,0.5,0.8],"subjectId":"A1P6OXEJ86HQRM","assignmentId":"38BQUHLA9XMTKMG1P5TRDQS5P8LMOG","hitId":"3Z3R5YC0P3915KVY8X6BNRIWSQNFTT","url":"https://gershmanlab.com/experiments/alicia/teaching/experiment/?hitId=3Z3R5YC0P3915KVY8X6BNRIWSQNFTT&workerId=A1P6OXEJ86HQRM&assignmentId=38BQUHLA9XMTKMG1P5TRDQS5P8LMOG&a=AUB89&tp_a=AUB89&b=38BQUHLA9XMTKMG1P5TRDQS5P8LMOG&tp_b=38BQUHLA9XMTKMG1P5TRDQS5P8LMOG&c=365799&tp_c=365799","heads":16,"tails":4,"studentIndex":9,"studentTrueHypers":{"a":4,"b":1},"studentGuess":0.8,"delta":0,"totalExamples":20,"bonus":0.3,"bonusSoFar":1.94},{"rt":5782,"response":{"heads":"5","tails":"5"},"type":"response","condition":"seqNoFeedback","trueTheta":0.5,"classrooms":["A","B"],"studentTrueClassroom":"A","exampleSet":"first","trial_type":"survey-html-form","trial_index":87,"time_elapsed":970631,"internal_node_id":"0.0-86.0-0.0","params":{"nStudents":24,"maxFlips":30,"completionMinutes":45,"basePay":8,"maxBonus":9,"perTrialBonus":0.5,"perTrialBonusThreshold":0.05,"exampleCost":0.01},"classroomParams":{"A":{"a":1,"b":4},"B":{"a":4,"b":1},"C":{"a":2,"b":8},"D":{"a":8,"b":2}},"conditions":["nonSeqFull","nonSeqPartial","seqNoFeedback","seqFeedback"],"classroomPairings":[["A","B"],["C","D"]],"coinWeights":[0.2,0.5,0.8],"subjectId":"A1P6OXEJ86HQRM","assignmentId":"38BQUHLA9XMTKMG1P5TRDQS5P8LMOG","hitId":"3Z3R5YC0P3915KVY8X6BNRIWSQNFTT","url":"https://gershmanlab.com/experiments/alicia/teaching/experiment/?hitId=3Z3R5YC0P3915KVY8X6BNRIWSQNFTT&workerId=A1P6OXEJ86HQRM&assignmentId=38BQUHLA9XMTKMG1P5TRDQS5P8LMOG&a=AUB89&tp_a=AUB89&b=38BQUHLA9XMTKMG1P5TRDQS5P8LMOG&tp_b=38BQUHLA9XMTKMG1P5TRDQS5P8LMOG&c=365799&tp_c=365799","heads":5,"tails":5,"studentIndex":10,"studentTrueHypers":{"a":1,"b":4},"studentGuess":0.4,"delta":0.09999999999999998,"totalExamples":10,"bonusSoFar":1.94},{"rt":4883,"response":{"heads":"10","tails":"10"},"type":"response","condition":"seqNoFeedback","trueTheta":0.5,"classrooms":["A","B"],"studentTrueClassroom":"A","exampleSet":"second","trial_type":"survey-html-form","trial_index":90,"time_elapsed":982518,"internal_node_id":"0.0-89.0-0.0","params":{"nStudents":24,"maxFlips":30,"completionMinutes":45,"basePay":8,"maxBonus":9,"perTrialBonus":0.5,"perTrialBonusThreshold":0.05,"exampleCost":0.01},"classroomParams":{"A":{"a":1,"b":4},"B":{"a":4,"b":1},"C":{"a":2,"b":8},"D":{"a":8,"b":2}},"conditions":["nonSeqFull","nonSeqPartial","seqNoFeedback","seqFeedback"],"classroomPairings":[["A","B"],["C","D"]],"coinWeights":[0.2,0.5,0.8],"subjectId":"A1P6OXEJ86HQRM","assignmentId":"38BQUHLA9XMTKMG1P5TRDQS5P8LMOG","hitId":"3Z3R5YC0P3915KVY8X6BNRIWSQNFTT","url":"https://gershmanlab.com/experiments/alicia/teaching/experiment/?hitId=3Z3R5YC0P3915KVY8X6BNRIWSQNFTT&workerId=A1P6OXEJ86HQRM&assignmentId=38BQUHLA9XMTKMG1P5TRDQS5P8LMOG&a=AUB89&tp_a=AUB89&b=38BQUHLA9XMTKMG1P5TRDQS5P8LMOG&tp_b=38BQUHLA9XMTKMG1P5TRDQS5P8LMOG&c=365799&tp_c=365799","firstResponseHeads":5,"firstResponseTails":5,"secondResponseHeads":10,"secondResponseTails":10,"totalHeads":15,"totalTails":15,"studentIndex":10,"studentTrueHypers":{"a":1,"b":4},"studentGuess":0.45714285714285713,"delta":0.04285714285714287,"bonus":0.2,"bonusSoFar":2.14,"totalExamples":30},{"rt":7271,"response":{"heads":"10","tails":"10"},"type":"response","condition":"nonSeqPartial","trueTheta":0.5,"classrooms":["C","D"],"studentTrueClassroom":"C","exampleSet":"first","trial_type":"survey-html-form","trial_index":96,"time_elapsed":1005512,"internal_node_id":"0.0-95.0-0.0","params":{"nStudents":24,"maxFlips":30,"completionMinutes":45,"basePay":8,"maxBonus":9,"perTrialBonus":0.5,"perTrialBonusThreshold":0.05,"exampleCost":0.01},"classroomParams":{"A":{"a":1,"b":4},"B":{"a":4,"b":1},"C":{"a":2,"b":8},"D":{"a":8,"b":2}},"conditions":["nonSeqFull","nonSeqPartial","seqNoFeedback","seqFeedback"],"classroomPairings":[["A","B"],["C","D"]],"coinWeights":[0.2,0.5,0.8],"subjectId":"A1P6OXEJ86HQRM","assignmentId":"38BQUHLA9XMTKMG1P5TRDQS5P8LMOG","hitId":"3Z3R5YC0P3915KVY8X6BNRIWSQNFTT","url":"https://gershmanlab.com/experiments/alicia/teaching/experiment/?hitId=3Z3R5YC0P3915KVY8X6BNRIWSQNFTT&workerId=A1P6OXEJ86HQRM&assignmentId=38BQUHLA9XMTKMG1P5TRDQS5P8LMOG&a=AUB89&tp_a=AUB89&b=38BQUHLA9XMTKMG1P5TRDQS5P8LMOG&tp_b=38BQUHLA9XMTKMG1P5TRDQS5P8LMOG&c=365799&tp_c=365799","heads":10,"tails":10,"studentIndex":11,"studentTrueHypers":{"a":2,"b":8},"studentGuess":0.4,"delta":0.09999999999999998,"totalExamples":20,"bonus":0,"bonusSoFar":2.14},{"rt":20348,"response":{"heads":"4","tails":"1"},"type":"response","condition":"nonSeqFull","trueTheta":0.8,"classrooms":["C","D"],"studentTrueClassroom":"D","exampleSet":"first","trial_type":"survey-html-form","trial_index":102,"time_elapsed":1041485,"internal_node_id":"0.0-101.0-0.0","params":{"nStudents":24,"maxFlips":30,"completionMinutes":45,"basePay":8,"maxBonus":9,"perTrialBonus":0.5,"perTrialBonusThreshold":0.05,"exampleCost":0.01},"classroomParams":{"A":{"a":1,"b":4},"B":{"a":4,"b":1},"C":{"a":2,"b":8},"D":{"a":8,"b":2}},"conditions":["nonSeqFull","nonSeqPartial","seqNoFeedback","seqFeedback"],"classroomPairings":[["A","B"],["C","D"]],"coinWeights":[0.2,0.5,0.8],"subjectId":"A1P6OXEJ86HQRM","assignmentId":"38BQUHLA9XMTKMG1P5TRDQS5P8LMOG","hitId":"3Z3R5YC0P3915KVY8X6BNRIWSQNFTT","url":"https://gershmanlab.com/experiments/alicia/teaching/experiment/?hitId=3Z3R5YC0P3915KVY8X6BNRIWSQNFTT&workerId=A1P6OXEJ86HQRM&assignmentId=38BQUHLA9XMTKMG1P5TRDQS5P8LMOG&a=AUB89&tp_a=AUB89&b=38BQUHLA9XMTKMG1P5TRDQS5P8LMOG&tp_b=38BQUHLA9XMTKMG1P5TRDQS5P8LMOG&c=365799&tp_c=365799","heads":4,"tails":1,"studentIndex":12,"studentTrueHypers":{"a":8,"b":2},"studentGuess":0.8,"delta":0,"totalExamples":5,"bonus":0.45,"bonusSoFar":2.59},{"rt":11407,"response":{"heads":"5","tails":"5"},"type":"response","condition":"seqFeedback","trueTheta":0.5,"classrooms":["A","B"],"studentTrueClassroom":"A","exampleSet":"first","trial_type":"survey-html-form","trial_index":108,"time_elapsed":1076508,"internal_node_id":"0.0-107.0-0.0","params":{"nStudents":24,"maxFlips":30,"completionMinutes":45,"basePay":8,"maxBonus":9,"perTrialBonus":0.5,"perTrialBonusThreshold":0.05,"exampleCost":0.01},"classroomParams":{"A":{"a":1,"b":4},"B":{"a":4,"b":1},"C":{"a":2,"b":8},"D":{"a":8,"b":2}},"conditions":["nonSeqFull","nonSeqPartial","seqNoFeedback","seqFeedback"],"classroomPairings":[["A","B"],["C","D"]],"coinWeights":[0.2,0.5,0.8],"subjectId":"A1P6OXEJ86HQRM","assignmentId":"38BQUHLA9XMTKMG1P5TRDQS5P8LMOG","hitId":"3Z3R5YC0P3915KVY8X6BNRIWSQNFTT","url":"https://gershmanlab.com/experiments/alicia/teaching/experiment/?hitId=3Z3R5YC0P3915KVY8X6BNRIWSQNFTT&workerId=A1P6OXEJ86HQRM&assignmentId=38BQUHLA9XMTKMG1P5TRDQS5P8LMOG&a=AUB89&tp_a=AUB89&b=38BQUHLA9XMTKMG1P5TRDQS5P8LMOG&tp_b=38BQUHLA9XMTKMG1P5TRDQS5P8LMOG&c=365799&tp_c=365799","heads":5,"tails":5,"studentIndex":13,"studentTrueHypers":{"a":1,"b":4},"studentGuess":0.4,"delta":0.09999999999999998,"totalExamples":10,"bonusSoFar":2.59},{"rt":22800,"response":{"heads":"5","tails":"3"},"type":"response","condition":"seqFeedback","trueTheta":0.5,"classrooms":["A","B"],"studentTrueClassroom":"A","exampleSet":"second","trial_type":"survey-html-form","trial_index":112,"time_elapsed":1111117,"internal_node_id":"0.0-111.0-0.0","params":{"nStudents":24,"maxFlips":30,"completionMinutes":45,"basePay":8,"maxBonus":9,"perTrialBonus":0.5,"perTrialBonusThreshold":0.05,"exampleCost":0.01},"classroomParams":{"A":{"a":1,"b":4},"B":{"a":4,"b":1},"C":{"a":2,"b":8},"D":{"a":8,"b":2}},"conditions":["nonSeqFull","nonSeqPartial","seqNoFeedback","seqFeedback"],"classroomPairings":[["A","B"],["C","D"]],"coinWeights":[0.2,0.5,0.8],"subjectId":"A1P6OXEJ86HQRM","assignmentId":"38BQUHLA9XMTKMG1P5TRDQS5P8LMOG","hitId":"3Z3R5YC0P3915KVY8X6BNRIWSQNFTT","url":"https://gershmanlab.com/experiments/alicia/teaching/experiment/?hitId=3Z3R5YC0P3915KVY8X6BNRIWSQNFTT&workerId=A1P6OXEJ86HQRM&assignmentId=38BQUHLA9XMTKMG1P5TRDQS5P8LMOG&a=AUB89&tp_a=AUB89&b=38BQUHLA9XMTKMG1P5TRDQS5P8LMOG&tp_b=38BQUHLA9XMTKMG1P5TRDQS5P8LMOG&c=365799&tp_c=365799","firstResponseHeads":5,"firstResponseTails":5,"secondResponseHeads":5,"secondResponseTails":3,"totalHeads":10,"totalTails":8,"studentIndex":13,"studentTrueHypers":{"a":1,"b":4},"studentGuess":0.4782608695652174,"delta":0.021739130434782594,"bonus":0.32,"bonusSoFar":2.91,"totalExamples":18},{"rt":6050,"response":{"heads":"1","tails":"4"},"type":"response","condition":"seqFeedback","trueTheta":0.2,"classrooms":["C","D"],"studentTrueClassroom":"D","exampleSet":"first","trial_type":"survey-html-form","trial_index":118,"time_elapsed":1133278,"internal_node_id":"0.0-117.0-0.0","params":{"nStudents":24,"maxFlips":30,"completionMinutes":45,"basePay":8,"maxBonus":9,"perTrialBonus":0.5,"perTrialBonusThreshold":0.05,"exampleCost":0.01},"classroomParams":{"A":{"a":1,"b":4},"B":{"a":4,"b":1},"C":{"a":2,"b":8},"D":{"a":8,"b":2}},"conditions":["nonSeqFull","nonSeqPartial","seqNoFeedback","seqFeedback"],"classroomPairings":[["A","B"],["C","D"]],"coinWeights":[0.2,0.5,0.8],"subjectId":"A1P6OXEJ86HQRM","assignmentId":"38BQUHLA9XMTKMG1P5TRDQS5P8LMOG","hitId":"3Z3R5YC0P3915KVY8X6BNRIWSQNFTT","url":"https://gershmanlab.com/experiments/alicia/teaching/experiment/?hitId=3Z3R5YC0P3915KVY8X6BNRIWSQNFTT&workerId=A1P6OXEJ86HQRM&assignmentId=38BQUHLA9XMTKMG1P5TRDQS5P8LMOG&a=AUB89&tp_a=AUB89&b=38BQUHLA9XMTKMG1P5TRDQS5P8LMOG&tp_b=38BQUHLA9XMTKMG1P5TRDQS5P8LMOG&c=365799&tp_c=365799","heads":1,"tails":4,"studentIndex":14,"studentTrueHypers":{"a":8,"b":2},"studentGuess":0.6,"delta":0.39999999999999997,"totalExamples":5,"bonusSoFar":2.91},{"rt":45909,"response":{"heads":"0","tails":"12"},"type":"response","condition":"seqFeedback","trueTheta":0.2,"classrooms":["C","D"],"studentTrueClassroom":"D","exampleSet":"second","trial_type":"survey-html-form","trial_index":122,"time_elapsed":1190738,"internal_node_id":"0.0-121.0-0.0","params":{"nStudents":24,"maxFlips":30,"completionMinutes":45,"basePay":8,"maxBonus":9,"perTrialBonus":0.5,"perTrialBonusThreshold":0.05,"exampleCost":0.01},"classroomParams":{"A":{"a":1,"b":4},"B":{"a":4,"b":1},"C":{"a":2,"b":8},"D":{"a":8,"b":2}},"conditions":["nonSeqFull","nonSeqPartial","seqNoFeedback","seqFeedback"],"classroomPairings":[["A","B"],["C","D"]],"coinWeights":[0.2,0.5,0.8],"subjectId":"A1P6OXEJ86HQRM","assignmentId":"38BQUHLA9XMTKMG1P5TRDQS5P8LMOG","hitId":"3Z3R5YC0P3915KVY8X6BNRIWSQNFTT","url":"https://gershmanlab.com/experiments/alicia/teaching/experiment/?hitId=3Z3R5YC0P3915KVY8X6BNRIWSQNFTT&workerId=A1P6OXEJ86HQRM&assignmentId=38BQUHLA9XMTKMG1P5TRDQS5P8LMOG&a=AUB89&tp_a=AUB89&b=38BQUHLA9XMTKMG1P5TRDQS5P8LMOG&tp_b=38BQUHLA9XMTKMG1P5TRDQS5P8LMOG&c=365799&tp_c=365799","firstResponseHeads":1,"firstResponseTails":4,"secondResponseHeads":0,"secondResponseTails":12,"totalHeads":1,"totalTails":16,"studentIndex":14,"studentTrueHypers":{"a":8,"b":2},"studentGuess":0.3333333333333333,"delta":0.1333333333333333,"bonus":0,"bonusSoFar":2.91,"totalExamples":17},{"rt":15360,"response":{"heads":"8","tails":"2"},"type":"response","condition":"seqNoFeedback","trueTheta":0.8,"classrooms":["C","D"],"studentTrueClassroom":"D","exampleSet":"first","trial_type":"survey-html-form","trial_index":128,"time_elapsed":1223817,"internal_node_id":"0.0-127.0-0.0","params":{"nStudents":24,"maxFlips":30,"completionMinutes":45,"basePay":8,"maxBonus":9,"perTrialBonus":0.5,"perTrialBonusThreshold":0.05,"exampleCost":0.01},"classroomParams":{"A":{"a":1,"b":4},"B":{"a":4,"b":1},"C":{"a":2,"b":8},"D":{"a":8,"b":2}},"conditions":["nonSeqFull","nonSeqPartial","seqNoFeedback","seqFeedback"],"classroomPairings":[["A","B"],["C","D"]],"coinWeights":[0.2,0.5,0.8],"subjectId":"A1P6OXEJ86HQRM","assignmentId":"38BQUHLA9XMTKMG1P5TRDQS5P8LMOG","hitId":"3Z3R5YC0P3915KVY8X6BNRIWSQNFTT","url":"https://gershmanlab.com/experiments/alicia/teaching/experiment/?hitId=3Z3R5YC0P3915KVY8X6BNRIWSQNFTT&workerId=A1P6OXEJ86HQRM&assignmentId=38BQUHLA9XMTKMG1P5TRDQS5P8LMOG&a=AUB89&tp_a=AUB89&b=38BQUHLA9XMTKMG1P5TRDQS5P8LMOG&tp_b=38BQUHLA9XMTKMG1P5TRDQS5P8LMOG&c=365799&tp_c=365799","heads":8,"tails":2,"studentIndex":15,"studentTrueHypers":{"a":8,"b":2},"studentGuess":0.8,"delta":0,"totalExamples":10,"bonusSoFar":2.91},{"rt":8090,"response":{"heads":"8","tails":"2"},"type":"response","condition":"seqNoFeedback","trueTheta":0.8,"classrooms":["C","D"],"studentTrueClassroom":"D","exampleSet":"second","trial_type":"survey-html-form","trial_index":131,"time_elapsed":1237673,"internal_node_id":"0.0-130.0-0.0","params":{"nStudents":24,"maxFlips":30,"completionMinutes":45,"basePay":8,"maxBonus":9,"perTrialBonus":0.5,"perTrialBonusThreshold":0.05,"exampleCost":0.01},"classroomParams":{"A":{"a":1,"b":4},"B":{"a":4,"b":1},"C":{"a":2,"b":8},"D":{"a":8,"b":2}},"conditions":["nonSeqFull","nonSeqPartial","seqNoFeedback","seqFeedback"],"classroomPairings":[["A","B"],["C","D"]],"coinWeights":[0.2,0.5,0.8],"subjectId":"A1P6OXEJ86HQRM","assignmentId":"38BQUHLA9XMTKMG1P5TRDQS5P8LMOG","hitId":"3Z3R5YC0P3915KVY8X6BNRIWSQNFTT","url":"https://gershmanlab.com/experiments/alicia/teaching/experiment/?hitId=3Z3R5YC0P3915KVY8X6BNRIWSQNFTT&workerId=A1P6OXEJ86HQRM&assignmentId=38BQUHLA9XMTKMG1P5TRDQS5P8LMOG&a=AUB89&tp_a=AUB89&b=38BQUHLA9XMTKMG1P5TRDQS5P8LMOG&tp_b=38BQUHLA9XMTKMG1P5TRDQS5P8LMOG&c=365799&tp_c=365799","firstResponseHeads":8,"firstResponseTails":2,"secondResponseHeads":8,"secondResponseTails":2,"totalHeads":16,"totalTails":4,"studentIndex":15,"studentTrueHypers":{"a":8,"b":2},"studentGuess":0.8,"delta":0,"bonus":0.3,"bonusSoFar":3.21,"totalExamples":20},{"rt":7863,"response":{"heads":"1","tails":"4"},"type":"response","condition":"seqFeedback","trueTheta":0.2,"classrooms":["A","B"],"studentTrueClassroom":"A","exampleSet":"first","trial_type":"survey-html-form","trial_index":137,"time_elapsed":1261844,"internal_node_id":"0.0-136.0-0.0","params":{"nStudents":24,"maxFlips":30,"completionMinutes":45,"basePay":8,"maxBonus":9,"perTrialBonus":0.5,"perTrialBonusThreshold":0.05,"exampleCost":0.01},"classroomParams":{"A":{"a":1,"b":4},"B":{"a":4,"b":1},"C":{"a":2,"b":8},"D":{"a":8,"b":2}},"conditions":["nonSeqFull","nonSeqPartial","seqNoFeedback","seqFeedback"],"classroomPairings":[["A","B"],["C","D"]],"coinWeights":[0.2,0.5,0.8],"subjectId":"A1P6OXEJ86HQRM","assignmentId":"38BQUHLA9XMTKMG1P5TRDQS5P8LMOG","hitId":"3Z3R5YC0P3915KVY8X6BNRIWSQNFTT","url":"https://gershmanlab.com/experiments/alicia/teaching/experiment/?hitId=3Z3R5YC0P3915KVY8X6BNRIWSQNFTT&workerId=A1P6OXEJ86HQRM&assignmentId=38BQUHLA9XMTKMG1P5TRDQS5P8LMOG&a=AUB89&tp_a=AUB89&b=38BQUHLA9XMTKMG1P5TRDQS5P8LMOG&tp_b=38BQUHLA9XMTKMG1P5TRDQS5P8LMOG&c=365799&tp_c=365799","heads":1,"tails":4,"studentIndex":16,"studentTrueHypers":{"a":1,"b":4},"studentGuess":0.2,"delta":0,"totalExamples":5,"bonusSoFar":3.21},{"rt":3968,"response":{"heads":"1","tails":"4"},"type":"response","condition":"seqFeedback","trueTheta":0.2,"classrooms":["A","B"],"studentTrueClassroom":"A","exampleSet":"second","trial_type":"survey-html-form","trial_index":141,"time_elapsed":1279313,"internal_node_id":"0.0-140.0-0.0","params":{"nStudents":24,"maxFlips":30,"completionMinutes":45,"basePay":8,"maxBonus":9,"perTrialBonus":0.5,"perTrialBonusThreshold":0.05,"exampleCost":0.01},"classroomParams":{"A":{"a":1,"b":4},"B":{"a":4,"b":1},"C":{"a":2,"b":8},"D":{"a":8,"b":2}},"conditions":["nonSeqFull","nonSeqPartial","seqNoFeedback","seqFeedback"],"classroomPairings":[["A","B"],["C","D"]],"coinWeights":[0.2,0.5,0.8],"subjectId":"A1P6OXEJ86HQRM","assignmentId":"38BQUHLA9XMTKMG1P5TRDQS5P8LMOG","hitId":"3Z3R5YC0P3915KVY8X6BNRIWSQNFTT","url":"https://gershmanlab.com/experiments/alicia/teaching/experiment/?hitId=3Z3R5YC0P3915KVY8X6BNRIWSQNFTT&workerId=A1P6OXEJ86HQRM&assignmentId=38BQUHLA9XMTKMG1P5TRDQS5P8LMOG&a=AUB89&tp_a=AUB89&b=38BQUHLA9XMTKMG1P5TRDQS5P8LMOG&tp_b=38BQUHLA9XMTKMG1P5TRDQS5P8LMOG&c=365799&tp_c=365799","firstResponseHeads":1,"firstResponseTails":4,"secondResponseHeads":1,"secondResponseTails":4,"totalHeads":2,"totalTails":8,"studentIndex":16,"studentTrueHypers":{"a":1,"b":4},"studentGuess":0.2,"delta":0,"bonus":0.4,"bonusSoFar":3.61,"totalExamples":10},{"rt":5875,"response":{"heads":"4","tails":"1"},"type":"response","condition":"seqFeedback","trueTheta":0.8,"classrooms":["A","B"],"studentTrueClassroom":"A","exampleSet":"first","trial_type":"survey-html-form","trial_index":147,"time_elapsed":1300366,"internal_node_id":"0.0-146.0-0.0","params":{"nStudents":24,"maxFlips":30,"completionMinutes":45,"basePay":8,"maxBonus":9,"perTrialBonus":0.5,"perTrialBonusThreshold":0.05,"exampleCost":0.01},"classroomParams":{"A":{"a":1,"b":4},"B":{"a":4,"b":1},"C":{"a":2,"b":8},"D":{"a":8,"b":2}},"conditions":["nonSeqFull","nonSeqPartial","seqNoFeedback","seqFeedback"],"classroomPairings":[["A","B"],["C","D"]],"coinWeights":[0.2,0.5,0.8],"subjectId":"A1P6OXEJ86HQRM","assignmentId":"38BQUHLA9XMTKMG1P5TRDQS5P8LMOG","hitId":"3Z3R5YC0P3915KVY8X6BNRIWSQNFTT","url":"https://gershmanlab.com/experiments/alicia/teaching/experiment/?hitId=3Z3R5YC0P3915KVY8X6BNRIWSQNFTT&workerId=A1P6OXEJ86HQRM&assignmentId=38BQUHLA9XMTKMG1P5TRDQS5P8LMOG&a=AUB89&tp_a=AUB89&b=38BQUHLA9XMTKMG1P5TRDQS5P8LMOG&tp_b=38BQUHLA9XMTKMG1P5TRDQS5P8LMOG&c=365799&tp_c=365799","heads":4,"tails":1,"studentIndex":17,"studentTrueHypers":{"a":1,"b":4},"studentGuess":0.5,"delta":0.30000000000000004,"totalExamples":5,"bonusSoFar":3.61},{"rt":5081,"response":{"heads":"8","tails":"1"},"type":"response","condition":"seqFeedback","trueTheta":0.8,"classrooms":["A","B"],"studentTrueClassroom":"A","exampleSet":"second","trial_type":"survey-html-form","trial_index":151,"time_elapsed":1315192,"internal_node_id":"0.0-150.0-0.0","params":{"nStudents":24,"maxFlips":30,"completionMinutes":45,"basePay":8,"maxBonus":9,"perTrialBonus":0.5,"perTrialBonusThreshold":0.05,"exampleCost":0.01},"classroomParams":{"A":{"a":1,"b":4},"B":{"a":4,"b":1},"C":{"a":2,"b":8},"D":{"a":8,"b":2}},"conditions":["nonSeqFull","nonSeqPartial","seqNoFeedback","seqFeedback"],"classroomPairings":[["A","B"],["C","D"]],"coinWeights":[0.2,0.5,0.8],"subjectId":"A1P6OXEJ86HQRM","assignmentId":"38BQUHLA9XMTKMG1P5TRDQS5P8LMOG","hitId":"3Z3R5YC0P3915KVY8X6BNRIWSQNFTT","url":"https://gershmanlab.com/experiments/alicia/teaching/experiment/?hitId=3Z3R5YC0P3915KVY8X6BNRIWSQNFTT&workerId=A1P6OXEJ86HQRM&assignmentId=38BQUHLA9XMTKMG1P5TRDQS5P8LMOG&a=AUB89&tp_a=AUB89&b=38BQUHLA9XMTKMG1P5TRDQS5P8LMOG&tp_b=38BQUHLA9XMTKMG1P5TRDQS5P8LMOG&c=365799&tp_c=365799","firstResponseHeads":4,"firstResponseTails":1,"secondResponseHeads":8,"secondResponseTails":1,"totalHeads":12,"totalTails":2,"studentIndex":17,"studentTrueHypers":{"a":1,"b":4},"studentGuess":0.6842105263157895,"delta":0.11578947368421055,"bonus":0,"bonusSoFar":3.61,"totalExamples":14},{"rt":10537,"response":{"heads":"2","tails":"16"},"type":"response","condition":"nonSeqPartial","trueTheta":0.2,"classrooms":["C","D"],"studentTrueClassroom":"D","exampleSet":"first","trial_type":"survey-html-form","trial_index":157,"time_elapsed":1343685,"internal_node_id":"0.0-156.0-0.0","params":{"nStudents":24,"maxFlips":30,"completionMinutes":45,"basePay":8,"maxBonus":9,"perTrialBonus":0.5,"perTrialBonusThreshold":0.05,"exampleCost":0.01},"classroomParams":{"A":{"a":1,"b":4},"B":{"a":4,"b":1},"C":{"a":2,"b":8},"D":{"a":8,"b":2}},"conditions":["nonSeqFull","nonSeqPartial","seqNoFeedback","seqFeedback"],"classroomPairings":[["A","B"],["C","D"]],"coinWeights":[0.2,0.5,0.8],"subjectId":"A1P6OXEJ86HQRM","assignmentId":"38BQUHLA9XMTKMG1P5TRDQS5P8LMOG","hitId":"3Z3R5YC0P3915KVY8X6BNRIWSQNFTT","url":"https://gershmanlab.com/experiments/alicia/teaching/experiment/?hitId=3Z3R5YC0P3915KVY8X6BNRIWSQNFTT&workerId=A1P6OXEJ86HQRM&assignmentId=38BQUHLA9XMTKMG1P5TRDQS5P8LMOG&a=AUB89&tp_a=AUB89&b=38BQUHLA9XMTKMG1P5TRDQS5P8LMOG&tp_b=38BQUHLA9XMTKMG1P5TRDQS5P8LMOG&c=365799&tp_c=365799","heads":2,"tails":16,"studentIndex":18,"studentTrueHypers":{"a":8,"b":2},"studentGuess":0.35714285714285715,"delta":0.15714285714285714,"totalExamples":18,"bonus":0,"bonusSoFar":3.61},{"rt":10793,"response":{"heads":"1","tails":"4"},"type":"response","condition":"nonSeqFull","trueTheta":0.5,"classrooms":["A","B"],"studentTrueClassroom":"B","exampleSet":"first","trial_type":"survey-html-form","trial_index":163,"time_elapsed":1369979,"internal_node_id":"0.0-162.0-0.0","params":{"nStudents":24,"maxFlips":30,"completionMinutes":45,"basePay":8,"maxBonus":9,"perTrialBonus":0.5,"perTrialBonusThreshold":0.05,"exampleCost":0.01},"classroomParams":{"A":{"a":1,"b":4},"B":{"a":4,"b":1},"C":{"a":2,"b":8},"D":{"a":8,"b":2}},"conditions":["nonSeqFull","nonSeqPartial","seqNoFeedback","seqFeedback"],"classroomPairings":[["A","B"],["C","D"]],"coinWeights":[0.2,0.5,0.8],"subjectId":"A1P6OXEJ86HQRM","assignmentId":"38BQUHLA9XMTKMG1P5TRDQS5P8LMOG","hitId":"3Z3R5YC0P3915KVY8X6BNRIWSQNFTT","url":"https://gershmanlab.com/experiments/alicia/teaching/experiment/?hitId=3Z3R5YC0P3915KVY8X6BNRIWSQNFTT&workerId=A1P6OXEJ86HQRM&assignmentId=38BQUHLA9XMTKMG1P5TRDQS5P8LMOG&a=AUB89&tp_a=AUB89&b=38BQUHLA9XMTKMG1P5TRDQS5P8LMOG&tp_b=38BQUHLA9XMTKMG1P5TRDQS5P8LMOG&c=365799&tp_c=365799","heads":1,"tails":4,"studentIndex":19,"studentTrueHypers":{"a":4,"b":1},"studentGuess":0.5,"delta":0,"totalExamples":5,"bonus":0.45,"bonusSoFar":4.06},{"rt":32014,"response":{"heads":"15","tails":"0"},"type":"response","condition":"nonSeqFull","trueTheta":0.8,"classrooms":["A","B"],"studentTrueClassroom":"A","exampleSet":"first","trial_type":"survey-html-form","trial_index":169,"time_elapsed":1416923,"internal_node_id":"0.0-168.0-0.0","params":{"nStudents":24,"maxFlips":30,"completionMinutes":45,"basePay":8,"maxBonus":9,"perTrialBonus":0.5,"perTrialBonusThreshold":0.05,"exampleCost":0.01},"classroomParams":{"A":{"a":1,"b":4},"B":{"a":4,"b":1},"C":{"a":2,"b":8},"D":{"a":8,"b":2}},"conditions":["nonSeqFull","nonSeqPartial","seqNoFeedback","seqFeedback"],"classroomPairings":[["A","B"],["C","D"]],"coinWeights":[0.2,0.5,0.8],"subjectId":"A1P6OXEJ86HQRM","assignmentId":"38BQUHLA9XMTKMG1P5TRDQS5P8LMOG","hitId":"3Z3R5YC0P3915KVY8X6BNRIWSQNFTT","url":"https://gershmanlab.com/experiments/alicia/teaching/experiment/?hitId=3Z3R5YC0P3915KVY8X6BNRIWSQNFTT&workerId=A1P6OXEJ86HQRM&assignmentId=38BQUHLA9XMTKMG1P5TRDQS5P8LMOG&a=AUB89&tp_a=AUB89&b=38BQUHLA9XMTKMG1P5TRDQS5P8LMOG&tp_b=38BQUHLA9XMTKMG1P5TRDQS5P8LMOG&c=365799&tp_c=365799","heads":15,"tails":0,"studentIndex":20,"studentTrueHypers":{"a":1,"b":4},"studentGuess":0.8,"delta":0,"totalExamples":15,"bonus":0.35,"bonusSoFar":4.41},{"rt":16273,"response":{"heads":"15","tails":"15"},"type":"response","condition":"nonSeqPartial","trueTheta":0.5,"classrooms":["A","B"],"studentTrueClassroom":"B","exampleSet":"first","trial_type":"survey-html-form","trial_index":175,"time_elapsed":1452766,"internal_node_id":"0.0-174.0-0.0","params":{"nStudents":24,"maxFlips":30,"completionMinutes":45,"basePay":8,"maxBonus":9,"perTrialBonus":0.5,"perTrialBonusThreshold":0.05,"exampleCost":0.01},"classroomParams":{"A":{"a":1,"b":4},"B":{"a":4,"b":1},"C":{"a":2,"b":8},"D":{"a":8,"b":2}},"conditions":["nonSeqFull","nonSeqPartial","seqNoFeedback","seqFeedback"],"classroomPairings":[["A","B"],["C","D"]],"coinWeights":[0.2,0.5,0.8],"subjectId":"A1P6OXEJ86HQRM","assignmentId":"38BQUHLA9XMTKMG1P5TRDQS5P8LMOG","hitId":"3Z3R5YC0P3915KVY8X6BNRIWSQNFTT","url":"https://gershmanlab.com/experiments/alicia/teaching/experiment/?hitId=3Z3R5YC0P3915KVY8X6BNRIWSQNFTT&workerId=A1P6OXEJ86HQRM&assignmentId=38BQUHLA9XMTKMG1P5TRDQS5P8LMOG&a=AUB89&tp_a=AUB89&b=38BQUHLA9XMTKMG1P5TRDQS5P8LMOG&tp_b=38BQUHLA9XMTKMG1P5TRDQS5P8LMOG&c=365799&tp_c=365799","heads":15,"tails":15,"studentIndex":21,"studentTrueHypers":{"a":4,"b":1},"studentGuess":0.5428571428571428,"delta":0.042857142857142816,"totalExamples":30,"bonus":0.2,"bonusSoFar":4.61},{"rt":9149,"response":{"heads":"1","tails":"4"},"type":"response","condition":"nonSeqFull","trueTheta":0.2,"classrooms":["C","D"],"studentTrueClassroom":"C","exampleSet":"first","trial_type":"survey-html-form","trial_index":181,"time_elapsed":1476433,"internal_node_id":"0.0-180.0-0.0","params":{"nStudents":24,"maxFlips":30,"completionMinutes":45,"basePay":8,"maxBonus":9,"perTrialBonus":0.5,"perTrialBonusThreshold":0.05,"exampleCost":0.01},"classroomParams":{"A":{"a":1,"b":4},"B":{"a":4,"b":1},"C":{"a":2,"b":8},"D":{"a":8,"b":2}},"conditions":["nonSeqFull","nonSeqPartial","seqNoFeedback","seqFeedback"],"classroomPairings":[["A","B"],["C","D"]],"coinWeights":[0.2,0.5,0.8],"subjectId":"A1P6OXEJ86HQRM","assignmentId":"38BQUHLA9XMTKMG1P5TRDQS5P8LMOG","hitId":"3Z3R5YC0P3915KVY8X6BNRIWSQNFTT","url":"https://gershmanlab.com/experiments/alicia/teaching/experiment/?hitId=3Z3R5YC0P3915KVY8X6BNRIWSQNFTT&workerId=A1P6OXEJ86HQRM&assignmentId=38BQUHLA9XMTKMG1P5TRDQS5P8LMOG&a=AUB89&tp_a=AUB89&b=38BQUHLA9XMTKMG1P5TRDQS5P8LMOG&tp_b=38BQUHLA9XMTKMG1P5TRDQS5P8LMOG&c=365799&tp_c=365799","heads":1,"tails":4,"studentIndex":22,"studentTrueHypers":{"a":2,"b":8},"studentGuess":0.2,"delta":0,"totalExamples":5,"bonus":0.45,"bonusSoFar":5.06},{"rt":6716,"response":{"heads":"1","tails":"4"},"type":"response","condition":"nonSeqFull","trueTheta":0.2,"classrooms":["A","B"],"studentTrueClassroom":"A","exampleSet":"first","trial_type":"survey-html-form","trial_index":187,"time_elapsed":1499163,"internal_node_id":"0.0-186.0-0.0","params":{"nStudents":24,"maxFlips":30,"completionMinutes":45,"basePay":8,"maxBonus":9,"perTrialBonus":0.5,"perTrialBonusThreshold":0.05,"exampleCost":0.01},"classroomParams":{"A":{"a":1,"b":4},"B":{"a":4,"b":1},"C":{"a":2,"b":8},"D":{"a":8,"b":2}},"conditions":["nonSeqFull","nonSeqPartial","seqNoFeedback","seqFeedback"],"classroomPairings":[["A","B"],["C","D"]],"coinWeights":[0.2,0.5,0.8],"subjectId":"A1P6OXEJ86HQRM","assignmentId":"38BQUHLA9XMTKMG1P5TRDQS5P8LMOG","hitId":"3Z3R5YC0P3915KVY8X6BNRIWSQNFTT","url":"https://gershmanlab.com/experiments/alicia/teaching/experiment/?hitId=3Z3R5YC0P3915KVY8X6BNRIWSQNFTT&workerId=A1P6OXEJ86HQRM&assignmentId=38BQUHLA9XMTKMG1P5TRDQS5P8LMOG&a=AUB89&tp_a=AUB89&b=38BQUHLA9XMTKMG1P5TRDQS5P8LMOG&tp_b=38BQUHLA9XMTKMG1P5TRDQS5P8LMOG&c=365799&tp_c=365799","heads":1,"tails":4,"studentIndex":23,"studentTrueHypers":{"a":1,"b":4},"studentGuess":0.2,"delta":0,"totalExamples":5,"bonus":0.45,"bonusSoFar":5.51},{"rt":9478,"response":{"gender":"male","age":"39","understood":"yes","comments":""},"type":"response","trial_type":"survey-html-form","trial_index":191,"time_elapsed":1518253,"internal_node_id":"0.0-191.0","params":{"nStudents":24,"maxFlips":30,"completionMinutes":45,"basePay":8,"maxBonus":9,"perTrialBonus":0.5,"perTrialBonusThreshold":0.05,"exampleCost":0.01},"classroomParams":{"A":{"a":1,"b":4},"B":{"a":4,"b":1},"C":{"a":2,"b":8},"D":{"a":8,"b":2}},"conditions":["nonSeqFull","nonSeqPartial","seqNoFeedback","seqFeedback"],"classroomPairings":[["A","B"],["C","D"]],"coinWeights":[0.2,0.5,0.8],"subjectId":"A1P6OXEJ86HQRM","assignmentId":"38BQUHLA9XMTKMG1P5TRDQS5P8LMOG","hitId":"3Z3R5YC0P3915KVY8X6BNRIWSQNFTT","url":"https://gershmanlab.com/experiments/alicia/teaching/experiment/?hitId=3Z3R5YC0P3915KVY8X6BNRIWSQNFTT&workerId=A1P6OXEJ86HQRM&assignmentId=38BQUHLA9XMTKMG1P5TRDQS5P8LMOG&a=AUB89&tp_a=AUB89&b=38BQUHLA9XMTKMG1P5TRDQS5P8LMOG&tp_b=38BQUHLA9XMTKMG1P5TRDQS5P8LMOG&c=365799&tp_c=365799","totalBonus":5.51}]