[{"rt":15297,"response":{"heads":"5","tails":"5"},"type":"response","condition":"seqNoFeedback","trueTheta":0.5,"classrooms":["A","B"],"studentTrueClassroom":"A","exampleSet":"first","trial_type":"survey-html-form","trial_index":7,"time_elapsed":329635,"internal_node_id":"0.0-6.0-0.0","params":{"nStudents":24,"maxFlips":30,"completionMinutes":45,"basePay":8,"maxBonus":9,"perTrialBonus":0.5,"perTrialBonusThreshold":0.05,"exampleCost":0.01},"classroomParams":{"A":{"a":1,"b":4},"B":{"a":4,"b":1},"C":{"a":2,"b":8},"D":{"a":8,"b":2}},"conditions":["nonSeqFull","nonSeqPartial","seqNoFeedback","seqFeedback"],"classroomPairings":[["A","B"],["C","D"]],"coinWeights":[0.2,0.5,0.8],"subjectId":"A1T9XW8SNUDDY7","assignmentId":"3E13VNJ1NOHMSBJ9YOXO918GFORI19","hitId":"3AQN9REUTF20OMGWRXYK787QVFOYDP","url":"https://gershmanlab.com/experiments/alicia/teaching/experiment/?hitId=3AQN9REUTF20OMGWRXYK787QVFOYDP&workerId=A1T9XW8SNUDDY7&assignmentId=3E13VNJ1NOHMSBJ9YOXO918GFORI19&a=1V1E9&tp_a=1V1E9&b=3E13VNJ1NOHMSBJ9YOXO918GFORI19&tp_b=3E13VNJ1NOHMSBJ9YOXO918GFORI19&c=365799&tp_c=365799","heads":5,"tails":5,"studentIndex":0,"studentTrueHypers":{"a":1,"b":4},"studentGuess":0.4,"delta":0.09999999999999998,"totalExamples":10,"bonusSoFar":0},{"rt":8863,"response":{"heads":"3","tails":"3"},"type":"response","condition":"seqNoFeedback","trueTheta":0.5,"classrooms":["A","B"],"studentTrueClassroom":"A","exampleSet":"second","trial_type":"survey-html-form","trial_index":10,"time_elapsed":345262,"internal_node_id":"0.0-9.0-0.0","params":{"nStudents":24,"maxFlips":30,"completionMinutes":45,"basePay":8,"maxBonus":9,"perTrialBonus":0.5,"perTrialBonusThreshold":0.05,"exampleCost":0.01},"classroomParams":{"A":{"a":1,"b":4},"B":{"a":4,"b":1},"C":{"a":2,"b":8},"D":{"a":8,"b":2}},"conditions":["nonSeqFull","nonSeqPartial","seqNoFeedback","seqFeedback"],"classroomPairings":[["A","B"],["C","D"]],"coinWeights":[0.2,0.5,0.8],"subjectId":"A1T9XW8SNUDDY7","assignmentId":"3E13VNJ1NOHMSBJ9YOXO918GFORI19","hitId":"3AQN9REUTF20OMGWRXYK787QVFOYDP","url":"https://gershmanlab.com/experiments/alicia/teaching/experiment/?hitId=3AQN9REUTF20OMGWRXYK787QVFOYDP&workerId=A1T9XW8SNUDDY7&assignmentId=3E13VNJ1NOHMSBJ9YOXO918GFORI19&a=1V1E9&tp_a=1V1E9&b=3E13VNJ1NOHMSBJ9YOXO918GFORI19&tp_b=3E13VNJ1NOHMSBJ9YOXO918GFORI19&c=365799&tp_c=365799","firstResponseHeads":5,"firstResponseTails":5,"secondResponseHeads":3,"secondResponseTails":3,"totalHeads":8,"totalTails":8,"studentIndex":0,"studentTrueHypers":{"a":1,"b":4},"studentGuess":0.42857142857142855,"delta":0.07142857142857145,"bonus":0,"bonusSoFar":0,"totalExamples":16},{"rt":7612,"response":{"heads":"10","tails":"10"},"type":"response","condition":"nonSeqFull","trueTheta":0.5,"classrooms":["A","B"],"studentTrueClassroom":"A","exampleSet":"first","trial_type":"survey-html-form","trial_index":16,"time_elapsed":371381,"internal_node_id":"0.0-15.0-0.0","params":{"nStudents":24,"maxFlips":30,"completionMinutes":45,"basePay":8,"maxBonus":9,"perTrialBonus":0.5,"perTrialBonusThreshold":0.05,"exampleCost":0.01},"classroomParams":{"A":{"a":1,"b":4},"B":{"a":4,"b":1},"C":{"a":2,"b":8},"D":{"a":8,"b":2}},"conditions":["nonSeqFull","nonSeqPartial","seqNoFeedback","seqFeedback"],"classroomPairings":[["A","B"],["C","D"]],"coinWeights":[0.2,0.5,0.8],"subjectId":"A1T9XW8SNUDDY7","assignmentId":"3E13VNJ1NOHMSBJ9YOXO918GFORI19","hitId":"3AQN9REUTF20OMGWRXYK787QVFOYDP","url":"https://gershmanlab.com/experiments/alicia/teaching/experiment/?hitId=3AQN9REUTF20OMGWRXYK787QVFOYDP&workerId=A1T9XW8SNUDDY7&assignmentId=3E13VNJ1NOHMSBJ9YOXO918GFORI19&a=1V1E9&tp_a=1V1E9&b=3E13VNJ1NOHMSBJ9YOXO918GFORI19&tp_b=3E13VNJ1NOHMSBJ9YOXO918GFORI19&c=365799&tp_c=365799","heads":10,"tails":10,"studentIndex":1,"studentTrueHypers":{"a":1,"b":4},"studentGuess":0.44,"delta":0.06,"totalExamples":20,"bonus":0,"bonusSoFar":0},{"rt":4918,"response":{"heads":"8","tails":"2"},"type":"response","condition":"nonSeqFull","trueTheta":0.2,"classrooms":["A","B"],"studentTrueClassroom":"B","exampleSet":"first","trial_type":"survey-html-form","trial_index":22,"time_elapsed":390263,"internal_node_id":"0.0-21.0-0.0","params":{"nStudents":24,"maxFlips":30,"completionMinutes":45,"basePay":8,"maxBonus":9,"perTrialBonus":0.5,"perTrialBonusThreshold":0.05,"exampleCost":0.01},"classroomParams":{"A":{"a":1,"b":4},"B":{"a":4,"b":1},"C":{"a":2,"b":8},"D":{"a":8,"b":2}},"conditions":["nonSeqFull","nonSeqPartial","seqNoFeedback","seqFeedback"],"classroomPairings":[["A","B"],["C","D"]],"coinWeights":[0.2,0.5,0.8],"subjectId":"A1T9XW8SNUDDY7","assignmentId":"3E13VNJ1NOHMSBJ9YOXO918GFORI19","hitId":"3AQN9REUTF20OMGWRXYK787QVFOYDP","url":"https://gershmanlab.com/experiments/alicia/teaching/experiment/?hitId=3AQN9REUTF20OMGWRXYK787QVFOYDP&workerId=A1T9XW8SNUDDY7&assignmentId=3E13VNJ1NOHMSBJ9YOXO918GFORI19&a=1V1E9&tp_a=1V1E9&b=3E13VNJ1NOHMSBJ9YOXO918GFORI19&tp_b=3E13VNJ1NOHMSBJ9YOXO918GFORI19&c=365799&tp_c=365799","heads":8,"tails":2,"studentIndex":2,"studentTrueHypers":{"a":4,"b":1},"studentGuess":0.8,"delta":0.6000000000000001,"totalExamples":10,"bonus":0,"bonusSoFar":0},{"rt":13300,"response":{"heads":"2","tails":"8"},"type":"response","condition":"nonSeqPartial","trueTheta":0.2,"classrooms":["C","D"],"studentTrueClassroom":"D","exampleSet":"first","trial_type":"survey-html-form","trial_index":28,"time_elapsed":439042,"internal_node_id":"0.0-27.0-0.0","params":{"nStudents":24,"maxFlips":30,"completionMinutes":45,"basePay":8,"maxBonus":9,"perTrialBonus":0.5,"perTrialBonusThreshold":0.05,"exampleCost":0.01},"classroomParams":{"A":{"a":1,"b":4},"B":{"a":4,"b":1},"C":{"a":2,"b":8},"D":{"a":8,"b":2}},"conditions":["nonSeqFull","nonSeqPartial","seqNoFeedback","seqFeedback"],"classroomPairings":[["A","B"],["C","D"]],"coinWeights":[0.2,0.5,0.8],"subjectId":"A1T9XW8SNUDDY7","assignmentId":"3E13VNJ1NOHMSBJ9YOXO918GFORI19","hitId":"3AQN9REUTF20OMGWRXYK787QVFOYDP","url":"https://gershmanlab.com/experiments/alicia/teaching/experiment/?hitId=3AQN9REUTF20OMGWRXYK787QVFOYDP&workerId=A1T9XW8SNUDDY7&assignmentId=3E13VNJ1NOHMSBJ9YOXO918GFORI19&a=1V1E9&tp_a=1V1E9&b=3E13VNJ1NOHMSBJ9YOXO918GFORI19&tp_b=3E13VNJ1NOHMSBJ9YOXO918GFORI19&c=365799&tp_c=365799","heads":2,"tails":8,"studentIndex":3,"studentTrueHypers":{"a":8,"b":2},"studentGuess":0.5,"delta":0.3,"totalExamples":10,"bonus":0,"bonusSoFar":0},{"rt":8043,"response":{"heads":"4","tails":"16"},"type":"response","condition":"seqNoFeedback","trueTheta":0.8,"classrooms":["A","B"],"studentTrueClassroom":"B","exampleSet":"first","trial_type":"survey-html-form","trial_index":34,"time_elapsed":460972,"internal_node_id":"0.0-33.0-0.0","params":{"nStudents":24,"maxFlips":30,"completionMinutes":45,"basePay":8,"maxBonus":9,"perTrialBonus":0.5,"perTrialBonusThreshold":0.05,"exampleCost":0.01},"classroomParams":{"A":{"a":1,"b":4},"B":{"a":4,"b":1},"C":{"a":2,"b":8},"D":{"a":8,"b":2}},"conditions":["nonSeqFull","nonSeqPartial","seqNoFeedback","seqFeedback"],"classroomPairings":[["A","B"],["C","D"]],"coinWeights":[0.2,0.5,0.8],"subjectId":"A1T9XW8SNUDDY7","assignmentId":"3E13VNJ1NOHMSBJ9YOXO918GFORI19","hitId":"3AQN9REUTF20OMGWRXYK787QVFOYDP","url":"https://gershmanlab.com/experiments/alicia/teaching/experiment/?hitId=3AQN9REUTF20OMGWRXYK787QVFOYDP&workerId=A1T9XW8SNUDDY7&assignmentId=3E13VNJ1NOHMSBJ9YOXO918GFORI19&a=1V1E9&tp_a=1V1E9&b=3E13VNJ1NOHMSBJ9YOXO918GFORI19&tp_b=3E13VNJ1NOHMSBJ9YOXO918GFORI19&c=365799&tp_c=365799","heads":4,"tails":16,"studentIndex":4,"studentTrueHypers":{"a":4,"b":1},"studentGuess":0.32,"delta":0.48000000000000004,"totalExamples":20,"bonusSoFar":0},{"rt":8556,"response":{"heads":"1","tails":"4"},"type":"response","condition":"seqNoFeedback","trueTheta":0.8,"classrooms":["A","B"],"studentTrueClassroom":"B","exampleSet":"second","trial_type":"survey-html-form","trial_index":37,"time_elapsed":474782,"internal_node_id":"0.0-36.0-0.0","params":{"nStudents":24,"maxFlips":30,"completionMinutes":45,"basePay":8,"maxBonus":9,"perTrialBonus":0.5,"perTrialBonusThreshold":0.05,"exampleCost":0.01},"classroomParams":{"A":{"a":1,"b":4},"B":{"a":4,"b":1},"C":{"a":2,"b":8},"D":{"a":8,"b":2}},"conditions":["nonSeqFull","nonSeqPartial","seqNoFeedback","seqFeedback"],"classroomPairings":[["A","B"],["C","D"]],"coinWeights":[0.2,0.5,0.8],"subjectId":"A1T9XW8SNUDDY7","assignmentId":"3E13VNJ1NOHMSBJ9YOXO918GFORI19","hitId":"3AQN9REUTF20OMGWRXYK787QVFOYDP","url":"https://gershmanlab.com/experiments/alicia/teaching/experiment/?hitId=3AQN9REUTF20OMGWRXYK787QVFOYDP&workerId=A1T9XW8SNUDDY7&assignmentId=3E13VNJ1NOHMSBJ9YOXO918GFORI19&a=1V1E9&tp_a=1V1E9&b=3E13VNJ1NOHMSBJ9YOXO918GFORI19&tp_b=3E13VNJ1NOHMSBJ9YOXO918GFORI19&c=365799&tp_c=365799","firstResponseHeads":4,"firstResponseTails":16,"secondResponseHeads":1,"secondResponseTails":4,"totalHeads":5,"totalTails":20,"studentIndex":4,"studentTrueHypers":{"a":4,"b":1},"studentGuess":0.3,"delta":0.5,"bonus":0,"bonusSoFar":0,"totalExamples":25},{"rt":7731,"response":{"heads":"1","tails":"1"},"type":"response","condition":"seqNoFeedback","trueTheta":0.5,"classrooms":["C","D"],"studentTrueClassroom":"C","exampleSet":"first","trial_type":"survey-html-form","trial_index":43,"time_elapsed":501438,"internal_node_id":"0.0-42.0-0.0","params":{"nStudents":24,"maxFlips":30,"completionMinutes":45,"basePay":8,"maxBonus":9,"perTrialBonus":0.5,"perTrialBonusThreshold":0.05,"exampleCost":0.01},"classroomParams":{"A":{"a":1,"b":4},"B":{"a":4,"b":1},"C":{"a":2,"b":8},"D":{"a":8,"b":2}},"conditions":["nonSeqFull","nonSeqPartial","seqNoFeedback","seqFeedback"],"classroomPairings":[["A","B"],["C","D"]],"coinWeights":[0.2,0.5,0.8],"subjectId":"A1T9XW8SNUDDY7","assignmentId":"3E13VNJ1NOHMSBJ9YOXO918GFORI19","hitId":"3AQN9REUTF20OMGWRXYK787QVFOYDP","url":"https://gershmanlab.com/experiments/alicia/teaching/experiment/?hitId=3AQN9REUTF20OMGWRXYK787QVFOYDP&workerId=A1T9XW8SNUDDY7&assignmentId=3E13VNJ1NOHMSBJ9YOXO918GFORI19&a=1V1E9&tp_a=1V1E9&b=3E13VNJ1NOHMSBJ9YOXO918GFORI19&tp_b=3E13VNJ1NOHMSBJ9YOXO918GFORI19&c=365799&tp_c=365799","heads":1,"tails":1,"studentIndex":5,"studentTrueHypers":{"a":2,"b":8},"studentGuess":0.25,"delta":0.25,"totalExamples":2,"bonusSoFar":0},{"rt":4435,"response":{"heads":"8","tails":"8"},"type":"response","condition":"seqNoFeedback","trueTheta":0.5,"classrooms":["C","D"],"studentTrueClassroom":"C","exampleSet":"second","trial_type":"survey-html-form","trial_index":46,"time_elapsed":511130,"internal_node_id":"0.0-45.0-0.0","params":{"nStudents":24,"maxFlips":30,"completionMinutes":45,"basePay":8,"maxBonus":9,"perTrialBonus":0.5,"perTrialBonusThreshold":0.05,"exampleCost":0.01},"classroomParams":{"A":{"a":1,"b":4},"B":{"a":4,"b":1},"C":{"a":2,"b":8},"D":{"a":8,"b":2}},"conditions":["nonSeqFull","nonSeqPartial","seqNoFeedback","seqFeedback"],"classroomPairings":[["A","B"],["C","D"]],"coinWeights":[0.2,0.5,0.8],"subjectId":"A1T9XW8SNUDDY7","assignmentId":"3E13VNJ1NOHMSBJ9YOXO918GFORI19","hitId":"3AQN9REUTF20OMGWRXYK787QVFOYDP","url":"https://gershmanlab.com/experiments/alicia/teaching/experiment/?hitId=3AQN9REUTF20OMGWRXYK787QVFOYDP&workerId=A1T9XW8SNUDDY7&assignmentId=3E13VNJ1NOHMSBJ9YOXO918GFORI19&a=1V1E9&tp_a=1V1E9&b=3E13VNJ1NOHMSBJ9YOXO918GFORI19&tp_b=3E13VNJ1NOHMSBJ9YOXO918GFORI19&c=365799&tp_c=365799","firstResponseHeads":1,"firstResponseTails":1,"secondResponseHeads":8,"secondResponseTails":8,"totalHeads":9,"totalTails":9,"studentIndex":5,"studentTrueHypers":{"a":2,"b":8},"studentGuess":0.39285714285714285,"delta":0.10714285714285715,"bonus":0,"bonusSoFar":0,"totalExamples":18},{"rt":21231,"response":{"heads":"6","tails":"24"},"type":"response","condition":"seqNoFeedback","trueTheta":0.2,"classrooms":["C","D"],"studentTrueClassroom":"D","exampleSet":"first","trial_type":"survey-html-form","trial_index":52,"time_elapsed":547092,"internal_node_id":"0.0-51.0-0.0","params":{"nStudents":24,"maxFlips":30,"completionMinutes":45,"basePay":8,"maxBonus":9,"perTrialBonus":0.5,"perTrialBonusThreshold":0.05,"exampleCost":0.01},"classroomParams":{"A":{"a":1,"b":4},"B":{"a":4,"b":1},"C":{"a":2,"b":8},"D":{"a":8,"b":2}},"conditions":["nonSeqFull","nonSeqPartial","seqNoFeedback","seqFeedback"],"classroomPairings":[["A","B"],["C","D"]],"coinWeights":[0.2,0.5,0.8],"subjectId":"A1T9XW8SNUDDY7","assignmentId":"3E13VNJ1NOHMSBJ9YOXO918GFORI19","hitId":"3AQN9REUTF20OMGWRXYK787QVFOYDP","url":"https://gershmanlab.com/experiments/alicia/teaching/experiment/?hitId=3AQN9REUTF20OMGWRXYK787QVFOYDP&workerId=A1T9XW8SNUDDY7&assignmentId=3E13VNJ1NOHMSBJ9YOXO918GFORI19&a=1V1E9&tp_a=1V1E9&b=3E13VNJ1NOHMSBJ9YOXO918GFORI19&tp_b=3E13VNJ1NOHMSBJ9YOXO918GFORI19&c=365799&tp_c=365799","heads":6,"tails":24,"studentIndex":6,"studentTrueHypers":{"a":8,"b":2},"studentGuess":0.35,"delta":0.14999999999999997,"totalExamples":30,"bonusSoFar":0},{"rt":6324,"response":{"heads":"1","tails":"4"},"type":"response","condition":"seqNoFeedback","trueTheta":0.2,"classrooms":["C","D"],"studentTrueClassroom":"D","exampleSet":"second","trial_type":"survey-html-form","trial_index":55,"time_elapsed":560188,"internal_node_id":"0.0-54.0-0.0","params":{"nStudents":24,"maxFlips":30,"completionMinutes":45,"basePay":8,"maxBonus":9,"perTrialBonus":0.5,"perTrialBonusThreshold":0.05,"exampleCost":0.01},"classroomParams":{"A":{"a":1,"b":4},"B":{"a":4,"b":1},"C":{"a":2,"b":8},"D":{"a":8,"b":2}},"conditions":["nonSeqFull","nonSeqPartial","seqNoFeedback","seqFeedback"],"classroomPairings":[["A","B"],["C","D"]],"coinWeights":[0.2,0.5,0.8],"subjectId":"A1T9XW8SNUDDY7","assignmentId":"3E13VNJ1NOHMSBJ9YOXO918GFORI19","hitId":"3AQN9REUTF20OMGWRXYK787QVFOYDP","url":"https://gershmanlab.com/experiments/alicia/teaching/experiment/?hitId=3AQN9REUTF20OMGWRXYK787QVFOYDP&workerId=A1T9XW8SNUDDY7&assignmentId=3E13VNJ1NOHMSBJ9YOXO918GFORI19&a=1V1E9&tp_a=1V1E9&b=3E13VNJ1NOHMSBJ9YOXO918GFORI19&tp_b=3E13VNJ1NOHMSBJ9YOXO918GFORI19&c=365799&tp_c=365799","firstResponseHeads":6,"firstResponseTails":24,"secondResponseHeads":1,"secondResponseTails":4,"totalHeads":7,"totalTails":28,"studentIndex":6,"studentTrueHypers":{"a":8,"b":2},"studentGuess":0.3333333333333333,"delta":0.1333333333333333,"bonus":0,"bonusSoFar":0,"totalExamples":35},{"rt":21335,"response":{"heads":"2","tails":"8"},"type":"response","condition":"seqFeedback","trueTheta":0.2,"classrooms":["C","D"],"studentTrueClassroom":"C","exampleSet":"first","trial_type":"survey-html-form","trial_index":61,"time_elapsed":595228,"internal_node_id":"0.0-60.0-0.0","params":{"nStudents":24,"maxFlips":30,"completionMinutes":45,"basePay":8,"maxBonus":9,"perTrialBonus":0.5,"perTrialBonusThreshold":0.05,"exampleCost":0.01},"classroomParams":{"A":{"a":1,"b":4},"B":{"a":4,"b":1},"C":{"a":2,"b":8},"D":{"a":8,"b":2}},"conditions":["nonSeqFull","nonSeqPartial","seqNoFeedback","seqFeedback"],"classroomPairings":[["A","B"],["C","D"]],"coinWeights":[0.2,0.5,0.8],"subjectId":"A1T9XW8SNUDDY7","assignmentId":"3E13VNJ1NOHMSBJ9YOXO918GFORI19","hitId":"3AQN9REUTF20OMGWRXYK787QVFOYDP","url":"https://gershmanlab.com/experiments/alicia/teaching/experiment/?hitId=3AQN9REUTF20OMGWRXYK787QVFOYDP&workerId=A1T9XW8SNUDDY7&assignmentId=3E13VNJ1NOHMSBJ9YOXO918GFORI19&a=1V1E9&tp_a=1V1E9&b=3E13VNJ1NOHMSBJ9YOXO918GFORI19&tp_b=3E13VNJ1NOHMSBJ9YOXO918GFORI19&c=365799&tp_c=365799","heads":2,"tails":8,"studentIndex":7,"studentTrueHypers":{"a":2,"b":8},"studentGuess":0.2,"delta":0,"totalExamples":10,"bonusSoFar":0},{"rt":4555,"response":{"heads":"2","tails":"8"},"type":"response","condition":"seqFeedback","trueTheta":0.2,"classrooms":["C","D"],"studentTrueClassroom":"C","exampleSet":"second","trial_type":"survey-html-form","trial_index":65,"time_elapsed":609784,"internal_node_id":"0.0-64.0-0.0","params":{"nStudents":24,"maxFlips":30,"completionMinutes":45,"basePay":8,"maxBonus":9,"perTrialBonus":0.5,"perTrialBonusThreshold":0.05,"exampleCost":0.01},"classroomParams":{"A":{"a":1,"b":4},"B":{"a":4,"b":1},"C":{"a":2,"b":8},"D":{"a":8,"b":2}},"conditions":["nonSeqFull","nonSeqPartial","seqNoFeedback","seqFeedback"],"classroomPairings":[["A","B"],["C","D"]],"coinWeights":[0.2,0.5,0.8],"subjectId":"A1T9XW8SNUDDY7","assignmentId":"3E13VNJ1NOHMSBJ9YOXO918GFORI19","hitId":"3AQN9REUTF20OMGWRXYK787QVFOYDP","url":"https://gershmanlab.com/experiments/alicia/teaching/experiment/?hitId=3AQN9REUTF20OMGWRXYK787QVFOYDP&workerId=A1T9XW8SNUDDY7&assignmentId=3E13VNJ1NOHMSBJ9YOXO918GFORI19&a=1V1E9&tp_a=1V1E9&b=3E13VNJ1NOHMSBJ9YOXO918GFORI19&tp_b=3E13VNJ1NOHMSBJ9YOXO918GFORI19&c=365799&tp_c=365799","firstResponseHeads":2,"firstResponseTails":8,"secondResponseHeads":2,"secondResponseTails":8,"totalHeads":4,"totalTails":16,"studentIndex":7,"studentTrueHypers":{"a":2,"b":8},"studentGuess":0.2,"delta":0,"bonus":0.3,"bonusSoFar":0.3,"totalExamples":20},{"rt":22709,"response":{"heads":"2","tails":"2"},"type":"response","condition":"nonSeqPartial","trueTheta":0.5,"classrooms":["C","D"],"studentTrueClassroom":"C","exampleSet":"first","trial_type":"survey-html-form","trial_index":71,"time_elapsed":650266,"internal_node_id":"0.0-70.0-0.0","params":{"nStudents":24,"maxFlips":30,"completionMinutes":45,"basePay":8,"maxBonus":9,"perTrialBonus":0.5,"perTrialBonusThreshold":0.05,"exampleCost":0.01},"classroomParams":{"A":{"a":1,"b":4},"B":{"a":4,"b":1},"C":{"a":2,"b":8},"D":{"a":8,"b":2}},"conditions":["nonSeqFull","nonSeqPartial","seqNoFeedback","seqFeedback"],"classroomPairings":[["A","B"],["C","D"]],"coinWeights":[0.2,0.5,0.8],"subjectId":"A1T9XW8SNUDDY7","assignmentId":"3E13VNJ1NOHMSBJ9YOXO918GFORI19","hitId":"3AQN9REUTF20OMGWRXYK787QVFOYDP","url":"https://gershmanlab.com/experiments/alicia/teaching/experiment/?hitId=3AQN9REUTF20OMGWRXYK787QVFOYDP&workerId=A1T9XW8SNUDDY7&assignmentId=3E13VNJ1NOHMSBJ9YOXO918GFORI19&a=1V1E9&tp_a=1V1E9&b=3E13VNJ1NOHMSBJ9YOXO918GFORI19&tp_b=3E13VNJ1NOHMSBJ9YOXO918GFORI19&c=365799&tp_c=365799","heads":2,"tails":2,"studentIndex":8,"studentTrueHypers":{"a":2,"b":8},"studentGuess":0.2857142857142857,"delta":0.2142857142857143,"totalExamples":4,"bonus":0,"bonusSoFar":0.3},{"rt":3693,"response":{"heads":"8","tails":"2"},"type":"response","condition":"nonSeqPartial","trueTheta":0.8,"classrooms":["C","D"],"studentTrueClassroom":"C","exampleSet":"first","trial_type":"survey-html-form","trial_index":77,"time_elapsed":667462,"internal_node_id":"0.0-76.0-0.0","params":{"nStudents":24,"maxFlips":30,"completionMinutes":45,"basePay":8,"maxBonus":9,"perTrialBonus":0.5,"perTrialBonusThreshold":0.05,"exampleCost":0.01},"classroomParams":{"A":{"a":1,"b":4},"B":{"a":4,"b":1},"C":{"a":2,"b":8},"D":{"a":8,"b":2}},"conditions":["nonSeqFull","nonSeqPartial","seqNoFeedback","seqFeedback"],"classroomPairings":[["A","B"],["C","D"]],"coinWeights":[0.2,0.5,0.8],"subjectId":"A1T9XW8SNUDDY7","assignmentId":"3E13VNJ1NOHMSBJ9YOXO918GFORI19","hitId":"3AQN9REUTF20OMGWRXYK787QVFOYDP","url":"https://gershmanlab.com/experiments/alicia/teaching/experiment/?hitId=3AQN9REUTF20OMGWRXYK787QVFOYDP&workerId=A1T9XW8SNUDDY7&assignmentId=3E13VNJ1NOHMSBJ9YOXO918GFORI19&a=1V1E9&tp_a=1V1E9&b=3E13VNJ1NOHMSBJ9YOXO918GFORI19&tp_b=3E13VNJ1NOHMSBJ9YOXO918GFORI19&c=365799&tp_c=365799","heads":8,"tails":2,"studentIndex":9,"studentTrueHypers":{"a":2,"b":8},"studentGuess":0.5,"delta":0.30000000000000004,"totalExamples":10,"bonus":0,"bonusSoFar":0.3},{"rt":33783,"response":{"heads":"4","tails":"1"},"type":"response","condition":"seqFeedback","trueTheta":0.8,"classrooms":["A","B"],"studentTrueClassroom":"A","exampleSet":"first","trial_type":"survey-html-form","trial_index":83,"time_elapsed":714936,"internal_node_id":"0.0-82.0-0.0","params":{"nStudents":24,"maxFlips":30,"completionMinutes":45,"basePay":8,"maxBonus":9,"perTrialBonus":0.5,"perTrialBonusThreshold":0.05,"exampleCost":0.01},"classroomParams":{"A":{"a":1,"b":4},"B":{"a":4,"b":1},"C":{"a":2,"b":8},"D":{"a":8,"b":2}},"conditions":["nonSeqFull","nonSeqPartial","seqNoFeedback","seqFeedback"],"classroomPairings":[["A","B"],["C","D"]],"coinWeights":[0.2,0.5,0.8],"subjectId":"A1T9XW8SNUDDY7","assignmentId":"3E13VNJ1NOHMSBJ9YOXO918GFORI19","hitId":"3AQN9REUTF20OMGWRXYK787QVFOYDP","url":"https://gershmanlab.com/experiments/alicia/teaching/experiment/?hitId=3AQN9REUTF20OMGWRXYK787QVFOYDP&workerId=A1T9XW8SNUDDY7&assignmentId=3E13VNJ1NOHMSBJ9YOXO918GFORI19&a=1V1E9&tp_a=1V1E9&b=3E13VNJ1NOHMSBJ9YOXO918GFORI19&tp_b=3E13VNJ1NOHMSBJ9YOXO918GFORI19&c=365799&tp_c=365799","heads":4,"tails":1,"studentIndex":10,"studentTrueHypers":{"a":1,"b":4},"studentGuess":0.5,"delta":0.30000000000000004,"totalExamples":5,"bonusSoFar":0.3},{"rt":4491,"response":{"heads":"1","tails":"4"},"type":"response","condition":"seqFeedback","trueTheta":0.8,"classrooms":["A","B"],"studentTrueClassroom":"A","exampleSet":"second","trial_type":"survey-html-form","trial_index":87,"time_elapsed":727328,"internal_node_id":"0.0-86.0-0.0","params":{"nStudents":24,"maxFlips":30,"completionMinutes":45,"basePay":8,"maxBonus":9,"perTrialBonus":0.5,"perTrialBonusThreshold":0.05,"exampleCost":0.01},"classroomParams":{"A":{"a":1,"b":4},"B":{"a":4,"b":1},"C":{"a":2,"b":8},"D":{"a":8,"b":2}},"conditions":["nonSeqFull","nonSeqPartial","seqNoFeedback","seqFeedback"],"classroomPairings":[["A","B"],["C","D"]],"coinWeights":[0.2,0.5,0.8],"subjectId":"A1T9XW8SNUDDY7","assignmentId":"3E13VNJ1NOHMSBJ9YOXO918GFORI19","hitId":"3AQN9REUTF20OMGWRXYK787QVFOYDP","url":"https://gershmanlab.com/experiments/alicia/teaching/experiment/?hitId=3AQN9REUTF20OMGWRXYK787QVFOYDP&workerId=A1T9XW8SNUDDY7&assignmentId=3E13VNJ1NOHMSBJ9YOXO918GFORI19&a=1V1E9&tp_a=1V1E9&b=3E13VNJ1NOHMSBJ9YOXO918GFORI19&tp_b=3E13VNJ1NOHMSBJ9YOXO918GFORI19&c=365799&tp_c=365799","firstResponseHeads":4,"firstResponseTails":1,"secondResponseHeads":1,"secondResponseTails":4,"totalHeads":5,"totalTails":5,"studentIndex":10,"studentTrueHypers":{"a":1,"b":4},"studentGuess":0.4,"delta":0.4,"bonus":0,"bonusSoFar":0.3,"totalExamples":10},{"rt":5012,"response":{"heads":"4","tails":"4"},"type":"response","condition":"nonSeqPartial","trueTheta":0.5,"classrooms":["A","B"],"studentTrueClassroom":"A","exampleSet":"first","trial_type":"survey-html-form","trial_index":93,"time_elapsed":746582,"internal_node_id":"0.0-92.0-0.0","params":{"nStudents":24,"maxFlips":30,"completionMinutes":45,"basePay":8,"maxBonus":9,"perTrialBonus":0.5,"perTrialBonusThreshold":0.05,"exampleCost":0.01},"classroomParams":{"A":{"a":1,"b":4},"B":{"a":4,"b":1},"C":{"a":2,"b":8},"D":{"a":8,"b":2}},"conditions":["nonSeqFull","nonSeqPartial","seqNoFeedback","seqFeedback"],"classroomPairings":[["A","B"],["C","D"]],"coinWeights":[0.2,0.5,0.8],"subjectId":"A1T9XW8SNUDDY7","assignmentId":"3E13VNJ1NOHMSBJ9YOXO918GFORI19","hitId":"3AQN9REUTF20OMGWRXYK787QVFOYDP","url":"https://gershmanlab.com/experiments/alicia/teaching/experiment/?hitId=3AQN9REUTF20OMGWRXYK787QVFOYDP&workerId=A1T9XW8SNUDDY7&assignmentId=3E13VNJ1NOHMSBJ9YOXO918GFORI19&a=1V1E9&tp_a=1V1E9&b=3E13VNJ1NOHMSBJ9YOXO918GFORI19&tp_b=3E13VNJ1NOHMSBJ9YOXO918GFORI19&c=365799&tp_c=365799","heads":4,"tails":4,"studentIndex":11,"studentTrueHypers":{"a":1,"b":4},"studentGuess":0.38461538461538464,"delta":0.11538461538461536,"totalExamples":8,"bonus":0,"bonusSoFar":0.3},{"rt":16771,"response":{"heads":"2","tails":"8"},"type":"response","condition":"nonSeqFull","trueTheta":0.2,"classrooms":["C","D"],"studentTrueClassroom":"D","exampleSet":"first","trial_type":"survey-html-form","trial_index":99,"time_elapsed":778338,"internal_node_id":"0.0-98.0-0.0","params":{"nStudents":24,"maxFlips":30,"completionMinutes":45,"basePay":8,"maxBonus":9,"perTrialBonus":0.5,"perTrialBonusThreshold":0.05,"exampleCost":0.01},"classroomParams":{"A":{"a":1,"b":4},"B":{"a":4,"b":1},"C":{"a":2,"b":8},"D":{"a":8,"b":2}},"conditions":["nonSeqFull","nonSeqPartial","seqNoFeedback","seqFeedback"],"classroomPairings":[["A","B"],["C","D"]],"coinWeights":[0.2,0.5,0.8],"subjectId":"A1T9XW8SNUDDY7","assignmentId":"3E13VNJ1NOHMSBJ9YOXO918GFORI19","hitId":"3AQN9REUTF20OMGWRXYK787QVFOYDP","url":"https://gershmanlab.com/experiments/alicia/teaching/experiment/?hitId=3AQN9REUTF20OMGWRXYK787QVFOYDP&workerId=A1T9XW8SNUDDY7&assignmentId=3E13VNJ1NOHMSBJ9YOXO918GFORI19&a=1V1E9&tp_a=1V1E9&b=3E13VNJ1NOHMSBJ9YOXO918GFORI19&tp_b=3E13VNJ1NOHMSBJ9YOXO918GFORI19&c=365799&tp_c=365799","heads":2,"tails":8,"studentIndex":12,"studentTrueHypers":{"a":8,"b":2},"studentGuess":0.5,"delta":0.3,"totalExamples":10,"bonus":0,"bonusSoFar":0.3},{"rt":6699,"response":{"heads":"2","tails":"8"},"type":"response","condition":"nonSeqFull","trueTheta":0.8,"classrooms":["C","D"],"studentTrueClassroom":"C","exampleSet":"first","trial_type":"survey-html-form","trial_index":105,"time_elapsed":799990,"internal_node_id":"0.0-104.0-0.0","params":{"nStudents":24,"maxFlips":30,"completionMinutes":45,"basePay":8,"maxBonus":9,"perTrialBonus":0.5,"perTrialBonusThreshold":0.05,"exampleCost":0.01},"classroomParams":{"A":{"a":1,"b":4},"B":{"a":4,"b":1},"C":{"a":2,"b":8},"D":{"a":8,"b":2}},"conditions":["nonSeqFull","nonSeqPartial","seqNoFeedback","seqFeedback"],"classroomPairings":[["A","B"],["C","D"]],"coinWeights":[0.2,0.5,0.8],"subjectId":"A1T9XW8SNUDDY7","assignmentId":"3E13VNJ1NOHMSBJ9YOXO918GFORI19","hitId":"3AQN9REUTF20OMGWRXYK787QVFOYDP","url":"https://gershmanlab.com/experiments/alicia/teaching/experiment/?hitId=3AQN9REUTF20OMGWRXYK787QVFOYDP&workerId=A1T9XW8SNUDDY7&assignmentId=3E13VNJ1NOHMSBJ9YOXO918GFORI19&a=1V1E9&tp_a=1V1E9&b=3E13VNJ1NOHMSBJ9YOXO918GFORI19&tp_b=3E13VNJ1NOHMSBJ9YOXO918GFORI19&c=365799&tp_c=365799","heads":2,"tails":8,"studentIndex":13,"studentTrueHypers":{"a":2,"b":8},"studentGuess":0.2,"delta":0.6000000000000001,"totalExamples":10,"bonus":0,"bonusSoFar":0.3},{"rt":4534,"response":{"heads":"8","tails":"8"},"type":"response","condition":"nonSeqFull","trueTheta":0.5,"classrooms":["C","D"],"studentTrueClassroom":"D","exampleSet":"first","trial_type":"survey-html-form","trial_index":111,"time_elapsed":817942,"internal_node_id":"0.0-110.0-0.0","params":{"nStudents":24,"maxFlips":30,"completionMinutes":45,"basePay":8,"maxBonus":9,"perTrialBonus":0.5,"perTrialBonusThreshold":0.05,"exampleCost":0.01},"classroomParams":{"A":{"a":1,"b":4},"B":{"a":4,"b":1},"C":{"a":2,"b":8},"D":{"a":8,"b":2}},"conditions":["nonSeqFull","nonSeqPartial","seqNoFeedback","seqFeedback"],"classroomPairings":[["A","B"],["C","D"]],"coinWeights":[0.2,0.5,0.8],"subjectId":"A1T9XW8SNUDDY7","assignmentId":"3E13VNJ1NOHMSBJ9YOXO918GFORI19","hitId":"3AQN9REUTF20OMGWRXYK787QVFOYDP","url":"https://gershmanlab.com/experiments/alicia/teaching/experiment/?hitId=3AQN9REUTF20OMGWRXYK787QVFOYDP&workerId=A1T9XW8SNUDDY7&assignmentId=3E13VNJ1NOHMSBJ9YOXO918GFORI19&a=1V1E9&tp_a=1V1E9&b=3E13VNJ1NOHMSBJ9YOXO918GFORI19&tp_b=3E13VNJ1NOHMSBJ9YOXO918GFORI19&c=365799&tp_c=365799","heads":8,"tails":8,"studentIndex":14,"studentTrueHypers":{"a":8,"b":2},"studentGuess":0.6153846153846154,"delta":0.11538461538461542,"totalExamples":16,"bonus":0,"bonusSoFar":0.3},{"rt":11937,"response":{"heads":"16","tails":"4"},"type":"response","condition":"seqNoFeedback","trueTheta":0.8,"classrooms":["C","D"],"studentTrueClassroom":"D","exampleSet":"first","trial_type":"survey-html-form","trial_index":117,"time_elapsed":841140,"internal_node_id":"0.0-116.0-0.0","params":{"nStudents":24,"maxFlips":30,"completionMinutes":45,"basePay":8,"maxBonus":9,"perTrialBonus":0.5,"perTrialBonusThreshold":0.05,"exampleCost":0.01},"classroomParams":{"A":{"a":1,"b":4},"B":{"a":4,"b":1},"C":{"a":2,"b":8},"D":{"a":8,"b":2}},"conditions":["nonSeqFull","nonSeqPartial","seqNoFeedback","seqFeedback"],"classroomPairings":[["A","B"],["C","D"]],"coinWeights":[0.2,0.5,0.8],"subjectId":"A1T9XW8SNUDDY7","assignmentId":"3E13VNJ1NOHMSBJ9YOXO918GFORI19","hitId":"3AQN9REUTF20OMGWRXYK787QVFOYDP","url":"https://gershmanlab.com/experiments/alicia/teaching/experiment/?hitId=3AQN9REUTF20OMGWRXYK787QVFOYDP&workerId=A1T9XW8SNUDDY7&assignmentId=3E13VNJ1NOHMSBJ9YOXO918GFORI19&a=1V1E9&tp_a=1V1E9&b=3E13VNJ1NOHMSBJ9YOXO918GFORI19&tp_b=3E13VNJ1NOHMSBJ9YOXO918GFORI19&c=365799&tp_c=365799","heads":16,"tails":4,"studentIndex":15,"studentTrueHypers":{"a":8,"b":2},"studentGuess":0.8,"delta":0,"totalExamples":20,"bonusSoFar":0.3},{"rt":8077,"response":{"heads":"8","tails":"2"},"type":"response","condition":"seqNoFeedback","trueTheta":0.8,"classrooms":["C","D"],"studentTrueClassroom":"D","exampleSet":"second","trial_type":"survey-html-form","trial_index":120,"time_elapsed":856652,"internal_node_id":"0.0-119.0-0.0","params":{"nStudents":24,"maxFlips":30,"completionMinutes":45,"basePay":8,"maxBonus":9,"perTrialBonus":0.5,"perTrialBonusThreshold":0.05,"exampleCost":0.01},"classroomParams":{"A":{"a":1,"b":4},"B":{"a":4,"b":1},"C":{"a":2,"b":8},"D":{"a":8,"b":2}},"conditions":["nonSeqFull","nonSeqPartial","seqNoFeedback","seqFeedback"],"classroomPairings":[["A","B"],["C","D"]],"coinWeights":[0.2,0.5,0.8],"subjectId":"A1T9XW8SNUDDY7","assignmentId":"3E13VNJ1NOHMSBJ9YOXO918GFORI19","hitId":"3AQN9REUTF20OMGWRXYK787QVFOYDP","url":"https://gershmanlab.com/experiments/alicia/teaching/experiment/?hitId=3AQN9REUTF20OMGWRXYK787QVFOYDP&workerId=A1T9XW8SNUDDY7&assignmentId=3E13VNJ1NOHMSBJ9YOXO918GFORI19&a=1V1E9&tp_a=1V1E9&b=3E13VNJ1NOHMSBJ9YOXO918GFORI19&tp_b=3E13VNJ1NOHMSBJ9YOXO918GFORI19&c=365799&tp_c=365799","firstResponseHeads":16,"firstResponseTails":4,"secondResponseHeads":8,"secondResponseTails":2,"totalHeads":24,"totalTails":6,"studentIndex":15,"studentTrueHypers":{"a":8,"b":2},"studentGuess":0.8,"delta":0,"bonus":0.2,"bonusSoFar":0.5,"totalExamples":30},{"rt":3169,"response":{"heads":"8","tails":"8"},"type":"response","condition":"seqFeedback","trueTheta":0.5,"classrooms":["C","D"],"studentTrueClassroom":"C","exampleSet":"first","trial_type":"survey-html-form","trial_index":126,"time_elapsed":874354,"internal_node_id":"0.0-125.0-0.0","params":{"nStudents":24,"maxFlips":30,"completionMinutes":45,"basePay":8,"maxBonus":9,"perTrialBonus":0.5,"perTrialBonusThreshold":0.05,"exampleCost":0.01},"classroomParams":{"A":{"a":1,"b":4},"B":{"a":4,"b":1},"C":{"a":2,"b":8},"D":{"a":8,"b":2}},"conditions":["nonSeqFull","nonSeqPartial","seqNoFeedback","seqFeedback"],"classroomPairings":[["A","B"],["C","D"]],"coinWeights":[0.2,0.5,0.8],"subjectId":"A1T9XW8SNUDDY7","assignmentId":"3E13VNJ1NOHMSBJ9YOXO918GFORI19","hitId":"3AQN9REUTF20OMGWRXYK787QVFOYDP","url":"https://gershmanlab.com/experiments/alicia/teaching/experiment/?hitId=3AQN9REUTF20OMGWRXYK787QVFOYDP&workerId=A1T9XW8SNUDDY7&assignmentId=3E13VNJ1NOHMSBJ9YOXO918GFORI19&a=1V1E9&tp_a=1V1E9&b=3E13VNJ1NOHMSBJ9YOXO918GFORI19&tp_b=3E13VNJ1NOHMSBJ9YOXO918GFORI19&c=365799&tp_c=365799","heads":8,"tails":8,"studentIndex":16,"studentTrueHypers":{"a":2,"b":8},"studentGuess":0.38461538461538464,"delta":0.11538461538461536,"totalExamples":16,"bonusSoFar":0.5},{"rt":4330,"response":{"heads":"5","tails":"5"},"type":"response","condition":"seqFeedback","trueTheta":0.5,"classrooms":["C","D"],"studentTrueClassroom":"C","exampleSet":"second","trial_type":"survey-html-form","trial_index":130,"time_elapsed":892102,"internal_node_id":"0.0-129.0-0.0","params":{"nStudents":24,"maxFlips":30,"completionMinutes":45,"basePay":8,"maxBonus":9,"perTrialBonus":0.5,"perTrialBonusThreshold":0.05,"exampleCost":0.01},"classroomParams":{"A":{"a":1,"b":4},"B":{"a":4,"b":1},"C":{"a":2,"b":8},"D":{"a":8,"b":2}},"conditions":["nonSeqFull","nonSeqPartial","seqNoFeedback","seqFeedback"],"classroomPairings":[["A","B"],["C","D"]],"coinWeights":[0.2,0.5,0.8],"subjectId":"A1T9XW8SNUDDY7","assignmentId":"3E13VNJ1NOHMSBJ9YOXO918GFORI19","hitId":"3AQN9REUTF20OMGWRXYK787QVFOYDP","url":"https://gershmanlab.com/experiments/alicia/teaching/experiment/?hitId=3AQN9REUTF20OMGWRXYK787QVFOYDP&workerId=A1T9XW8SNUDDY7&assignmentId=3E13VNJ1NOHMSBJ9YOXO918GFORI19&a=1V1E9&tp_a=1V1E9&b=3E13VNJ1NOHMSBJ9YOXO918GFORI19&tp_b=3E13VNJ1NOHMSBJ9YOXO918GFORI19&c=365799&tp_c=365799","firstResponseHeads":8,"firstResponseTails":8,"secondResponseHeads":5,"secondResponseTails":5,"totalHeads":13,"totalTails":13,"studentIndex":16,"studentTrueHypers":{"a":2,"b":8},"studentGuess":0.4166666666666667,"delta":0.08333333333333331,"bonus":0,"bonusSoFar":0.5,"totalExamples":26},{"rt":6455,"response":{"heads":"4","tails":"1"},"type":"response","condition":"seqNoFeedback","trueTheta":0.2,"classrooms":["A","B"],"studentTrueClassroom":"A","exampleSet":"first","trial_type":"survey-html-form","trial_index":136,"time_elapsed":915704,"internal_node_id":"0.0-135.0-0.0","params":{"nStudents":24,"maxFlips":30,"completionMinutes":45,"basePay":8,"maxBonus":9,"perTrialBonus":0.5,"perTrialBonusThreshold":0.05,"exampleCost":0.01},"classroomParams":{"A":{"a":1,"b":4},"B":{"a":4,"b":1},"C":{"a":2,"b":8},"D":{"a":8,"b":2}},"conditions":["nonSeqFull","nonSeqPartial","seqNoFeedback","seqFeedback"],"classroomPairings":[["A","B"],["C","D"]],"coinWeights":[0.2,0.5,0.8],"subjectId":"A1T9XW8SNUDDY7","assignmentId":"3E13VNJ1NOHMSBJ9YOXO918GFORI19","hitId":"3AQN9REUTF20OMGWRXYK787QVFOYDP","url":"https://gershmanlab.com/experiments/alicia/teaching/experiment/?hitId=3AQN9REUTF20OMGWRXYK787QVFOYDP&workerId=A1T9XW8SNUDDY7&assignmentId=3E13VNJ1NOHMSBJ9YOXO918GFORI19&a=1V1E9&tp_a=1V1E9&b=3E13VNJ1NOHMSBJ9YOXO918GFORI19&tp_b=3E13VNJ1NOHMSBJ9YOXO918GFORI19&c=365799&tp_c=365799","heads":4,"tails":1,"studentIndex":17,"studentTrueHypers":{"a":1,"b":4},"studentGuess":0.5,"delta":0.3,"totalExamples":5,"bonusSoFar":0.5},{"rt":4363,"response":{"heads":"1","tails":"4"},"type":"response","condition":"seqNoFeedback","trueTheta":0.2,"classrooms":["A","B"],"studentTrueClassroom":"A","exampleSet":"second","trial_type":"survey-html-form","trial_index":139,"time_elapsed":928087,"internal_node_id":"0.0-138.0-0.0","params":{"nStudents":24,"maxFlips":30,"completionMinutes":45,"basePay":8,"maxBonus":9,"perTrialBonus":0.5,"perTrialBonusThreshold":0.05,"exampleCost":0.01},"classroomParams":{"A":{"a":1,"b":4},"B":{"a":4,"b":1},"C":{"a":2,"b":8},"D":{"a":8,"b":2}},"conditions":["nonSeqFull","nonSeqPartial","seqNoFeedback","seqFeedback"],"classroomPairings":[["A","B"],["C","D"]],"coinWeights":[0.2,0.5,0.8],"subjectId":"A1T9XW8SNUDDY7","assignmentId":"3E13VNJ1NOHMSBJ9YOXO918GFORI19","hitId":"3AQN9REUTF20OMGWRXYK787QVFOYDP","url":"https://gershmanlab.com/experiments/alicia/teaching/experiment/?hitId=3AQN9REUTF20OMGWRXYK787QVFOYDP&workerId=A1T9XW8SNUDDY7&assignmentId=3E13VNJ1NOHMSBJ9YOXO918GFORI19&a=1V1E9&tp_a=1V1E9&b=3E13VNJ1NOHMSBJ9YOXO918GFORI19&tp_b=3E13VNJ1NOHMSBJ9YOXO918GFORI19&c=365799&tp_c=365799","firstResponseHeads":4,"firstResponseTails":1,"secondResponseHeads":1,"secondResponseTails":4,"totalHeads":5,"totalTails":5,"studentIndex":17,"studentTrueHypers":{"a":1,"b":4},"studentGuess":0.4,"delta":0.2,"bonus":0,"bonusSoFar":0.5,"totalExamples":10},{"rt":10179,"response":{"heads":"16","tails":"4"},"type":"response","condition":"seqFeedback","trueTheta":0.8,"classrooms":["C","D"],"studentTrueClassroom":"C","exampleSet":"first","trial_type":"survey-html-form","trial_index":145,"time_elapsed":952501,"internal_node_id":"0.0-144.0-0.0","params":{"nStudents":24,"maxFlips":30,"completionMinutes":45,"basePay":8,"maxBonus":9,"perTrialBonus":0.5,"perTrialBonusThreshold":0.05,"exampleCost":0.01},"classroomParams":{"A":{"a":1,"b":4},"B":{"a":4,"b":1},"C":{"a":2,"b":8},"D":{"a":8,"b":2}},"conditions":["nonSeqFull","nonSeqPartial","seqNoFeedback","seqFeedback"],"classroomPairings":[["A","B"],["C","D"]],"coinWeights":[0.2,0.5,0.8],"subjectId":"A1T9XW8SNUDDY7","assignmentId":"3E13VNJ1NOHMSBJ9YOXO918GFORI19","hitId":"3AQN9REUTF20OMGWRXYK787QVFOYDP","url":"https://gershmanlab.com/experiments/alicia/teaching/experiment/?hitId=3AQN9REUTF20OMGWRXYK787QVFOYDP&workerId=A1T9XW8SNUDDY7&assignmentId=3E13VNJ1NOHMSBJ9YOXO918GFORI19&a=1V1E9&tp_a=1V1E9&b=3E13VNJ1NOHMSBJ9YOXO918GFORI19&tp_b=3E13VNJ1NOHMSBJ9YOXO918GFORI19&c=365799&tp_c=365799","heads":16,"tails":4,"studentIndex":18,"studentTrueHypers":{"a":2,"b":8},"studentGuess":0.6,"delta":0.20000000000000007,"totalExamples":20,"bonusSoFar":0.5},{"rt":6583,"response":{"heads":"10","tails":"2"},"type":"response","condition":"seqFeedback","trueTheta":0.8,"classrooms":["C","D"],"studentTrueClassroom":"C","exampleSet":"second","trial_type":"survey-html-form","trial_index":149,"time_elapsed":971106,"internal_node_id":"0.0-148.0-0.0","params":{"nStudents":24,"maxFlips":30,"completionMinutes":45,"basePay":8,"maxBonus":9,"perTrialBonus":0.5,"perTrialBonusThreshold":0.05,"exampleCost":0.01},"classroomParams":{"A":{"a":1,"b":4},"B":{"a":4,"b":1},"C":{"a":2,"b":8},"D":{"a":8,"b":2}},"conditions":["nonSeqFull","nonSeqPartial","seqNoFeedback","seqFeedback"],"classroomPairings":[["A","B"],["C","D"]],"coinWeights":[0.2,0.5,0.8],"subjectId":"A1T9XW8SNUDDY7","assignmentId":"3E13VNJ1NOHMSBJ9YOXO918GFORI19","hitId":"3AQN9REUTF20OMGWRXYK787QVFOYDP","url":"https://gershmanlab.com/experiments/alicia/teaching/experiment/?hitId=3AQN9REUTF20OMGWRXYK787QVFOYDP&workerId=A1T9XW8SNUDDY7&assignmentId=3E13VNJ1NOHMSBJ9YOXO918GFORI19&a=1V1E9&tp_a=1V1E9&b=3E13VNJ1NOHMSBJ9YOXO918GFORI19&tp_b=3E13VNJ1NOHMSBJ9YOXO918GFORI19&c=365799&tp_c=365799","firstResponseHeads":16,"firstResponseTails":4,"secondResponseHeads":10,"secondResponseTails":2,"totalHeads":26,"totalTails":6,"studentIndex":18,"studentTrueHypers":{"a":2,"b":8},"studentGuess":0.6666666666666666,"delta":0.13333333333333341,"bonus":0,"bonusSoFar":0.5,"totalExamples":32},{"rt":8057,"response":{"heads":"2","tails":"8"},"type":"response","condition":"nonSeqPartial","trueTheta":0.2,"classrooms":["A","B"],"studentTrueClassroom":"A","exampleSet":"first","trial_type":"survey-html-form","trial_index":155,"time_elapsed":990553,"internal_node_id":"0.0-154.0-0.0","params":{"nStudents":24,"maxFlips":30,"completionMinutes":45,"basePay":8,"maxBonus":9,"perTrialBonus":0.5,"perTrialBonusThreshold":0.05,"exampleCost":0.01},"classroomParams":{"A":{"a":1,"b":4},"B":{"a":4,"b":1},"C":{"a":2,"b":8},"D":{"a":8,"b":2}},"conditions":["nonSeqFull","nonSeqPartial","seqNoFeedback","seqFeedback"],"classroomPairings":[["A","B"],["C","D"]],"coinWeights":[0.2,0.5,0.8],"subjectId":"A1T9XW8SNUDDY7","assignmentId":"3E13VNJ1NOHMSBJ9YOXO918GFORI19","hitId":"3AQN9REUTF20OMGWRXYK787QVFOYDP","url":"https://gershmanlab.com/experiments/alicia/teaching/experiment/?hitId=3AQN9REUTF20OMGWRXYK787QVFOYDP&workerId=A1T9XW8SNUDDY7&assignmentId=3E13VNJ1NOHMSBJ9YOXO918GFORI19&a=1V1E9&tp_a=1V1E9&b=3E13VNJ1NOHMSBJ9YOXO918GFORI19&tp_b=3E13VNJ1NOHMSBJ9YOXO918GFORI19&c=365799&tp_c=365799","heads":2,"tails":8,"studentIndex":19,"studentTrueHypers":{"a":1,"b":4},"studentGuess":0.2,"delta":0,"totalExamples":10,"bonus":0.4,"bonusSoFar":0.9},{"rt":7447,"response":{"heads":"15","tails":"15"},"type":"response","condition":"seqFeedback","trueTheta":0.5,"classrooms":["A","B"],"studentTrueClassroom":"A","exampleSet":"first","trial_type":"survey-html-form","trial_index":161,"time_elapsed":1011563,"internal_node_id":"0.0-160.0-0.0","params":{"nStudents":24,"maxFlips":30,"completionMinutes":45,"basePay":8,"maxBonus":9,"perTrialBonus":0.5,"perTrialBonusThreshold":0.05,"exampleCost":0.01},"classroomParams":{"A":{"a":1,"b":4},"B":{"a":4,"b":1},"C":{"a":2,"b":8},"D":{"a":8,"b":2}},"conditions":["nonSeqFull","nonSeqPartial","seqNoFeedback","seqFeedback"],"classroomPairings":[["A","B"],["C","D"]],"coinWeights":[0.2,0.5,0.8],"subjectId":"A1T9XW8SNUDDY7","assignmentId":"3E13VNJ1NOHMSBJ9YOXO918GFORI19","hitId":"3AQN9REUTF20OMGWRXYK787QVFOYDP","url":"https://gershmanlab.com/experiments/alicia/teaching/experiment/?hitId=3AQN9REUTF20OMGWRXYK787QVFOYDP&workerId=A1T9XW8SNUDDY7&assignmentId=3E13VNJ1NOHMSBJ9YOXO918GFORI19&a=1V1E9&tp_a=1V1E9&b=3E13VNJ1NOHMSBJ9YOXO918GFORI19&tp_b=3E13VNJ1NOHMSBJ9YOXO918GFORI19&c=365799&tp_c=365799","heads":15,"tails":15,"studentIndex":20,"studentTrueHypers":{"a":1,"b":4},"studentGuess":0.45714285714285713,"delta":0.04285714285714287,"totalExamples":30,"bonusSoFar":0.9},{"rt":3340,"response":{"heads":"8","tails":"8"},"type":"response","condition":"seqFeedback","trueTheta":0.5,"classrooms":["A","B"],"studentTrueClassroom":"A","exampleSet":"second","trial_type":"survey-html-form","trial_index":165,"time_elapsed":1022493,"internal_node_id":"0.0-164.0-0.0","params":{"nStudents":24,"maxFlips":30,"completionMinutes":45,"basePay":8,"maxBonus":9,"perTrialBonus":0.5,"perTrialBonusThreshold":0.05,"exampleCost":0.01},"classroomParams":{"A":{"a":1,"b":4},"B":{"a":4,"b":1},"C":{"a":2,"b":8},"D":{"a":8,"b":2}},"conditions":["nonSeqFull","nonSeqPartial","seqNoFeedback","seqFeedback"],"classroomPairings":[["A","B"],["C","D"]],"coinWeights":[0.2,0.5,0.8],"subjectId":"A1T9XW8SNUDDY7","assignmentId":"3E13VNJ1NOHMSBJ9YOXO918GFORI19","hitId":"3AQN9REUTF20OMGWRXYK787QVFOYDP","url":"https://gershmanlab.com/experiments/alicia/teaching/experiment/?hitId=3AQN9REUTF20OMGWRXYK787QVFOYDP&workerId=A1T9XW8SNUDDY7&assignmentId=3E13VNJ1NOHMSBJ9YOXO918GFORI19&a=1V1E9&tp_a=1V1E9&b=3E13VNJ1NOHMSBJ9YOXO918GFORI19&tp_b=3E13VNJ1NOHMSBJ9YOXO918GFORI19&c=365799&tp_c=365799","firstResponseHeads":15,"firstResponseTails":15,"secondResponseHeads":8,"secondResponseTails":8,"totalHeads":23,"totalTails":23,"studentIndex":20,"studentTrueHypers":{"a":1,"b":4},"studentGuess":0.47058823529411764,"delta":0.02941176470588236,"bonus":0.04,"bonusSoFar":0.94,"totalExamples":46},{"rt":7431,"response":{"heads":"6","tails":"24"},"type":"response","condition":"seqFeedback","trueTheta":0.2,"classrooms":["A","B"],"studentTrueClassroom":"B","exampleSet":"first","trial_type":"survey-html-form","trial_index":171,"time_elapsed":1041261,"internal_node_id":"0.0-170.0-0.0","params":{"nStudents":24,"maxFlips":30,"completionMinutes":45,"basePay":8,"maxBonus":9,"perTrialBonus":0.5,"perTrialBonusThreshold":0.05,"exampleCost":0.01},"classroomParams":{"A":{"a":1,"b":4},"B":{"a":4,"b":1},"C":{"a":2,"b":8},"D":{"a":8,"b":2}},"conditions":["nonSeqFull","nonSeqPartial","seqNoFeedback","seqFeedback"],"classroomPairings":[["A","B"],["C","D"]],"coinWeights":[0.2,0.5,0.8],"subjectId":"A1T9XW8SNUDDY7","assignmentId":"3E13VNJ1NOHMSBJ9YOXO918GFORI19","hitId":"3AQN9REUTF20OMGWRXYK787QVFOYDP","url":"https://gershmanlab.com/experiments/alicia/teaching/experiment/?hitId=3AQN9REUTF20OMGWRXYK787QVFOYDP&workerId=A1T9XW8SNUDDY7&assignmentId=3E13VNJ1NOHMSBJ9YOXO918GFORI19&a=1V1E9&tp_a=1V1E9&b=3E13VNJ1NOHMSBJ9YOXO918GFORI19&tp_b=3E13VNJ1NOHMSBJ9YOXO918GFORI19&c=365799&tp_c=365799","heads":6,"tails":24,"studentIndex":21,"studentTrueHypers":{"a":4,"b":1},"studentGuess":0.2857142857142857,"delta":0.08571428571428569,"totalExamples":30,"bonusSoFar":0.94},{"rt":8013,"response":{"heads":"2","tails":"8"},"type":"response","condition":"seqFeedback","trueTheta":0.2,"classrooms":["A","B"],"studentTrueClassroom":"B","exampleSet":"second","trial_type":"survey-html-form","trial_index":175,"time_elapsed":1056112,"internal_node_id":"0.0-174.0-0.0","params":{"nStudents":24,"maxFlips":30,"completionMinutes":45,"basePay":8,"maxBonus":9,"perTrialBonus":0.5,"perTrialBonusThreshold":0.05,"exampleCost":0.01},"classroomParams":{"A":{"a":1,"b":4},"B":{"a":4,"b":1},"C":{"a":2,"b":8},"D":{"a":8,"b":2}},"conditions":["nonSeqFull","nonSeqPartial","seqNoFeedback","seqFeedback"],"classroomPairings":[["A","B"],["C","D"]],"coinWeights":[0.2,0.5,0.8],"subjectId":"A1T9XW8SNUDDY7","assignmentId":"3E13VNJ1NOHMSBJ9YOXO918GFORI19","hitId":"3AQN9REUTF20OMGWRXYK787QVFOYDP","url":"https://gershmanlab.com/experiments/alicia/teaching/experiment/?hitId=3AQN9REUTF20OMGWRXYK787QVFOYDP&workerId=A1T9XW8SNUDDY7&assignmentId=3E13VNJ1NOHMSBJ9YOXO918GFORI19&a=1V1E9&tp_a=1V1E9&b=3E13VNJ1NOHMSBJ9YOXO918GFORI19&tp_b=3E13VNJ1NOHMSBJ9YOXO918GFORI19&c=365799&tp_c=365799","firstResponseHeads":6,"firstResponseTails":24,"secondResponseHeads":2,"secondResponseTails":8,"totalHeads":8,"totalTails":32,"studentIndex":21,"studentTrueHypers":{"a":4,"b":1},"studentGuess":0.26666666666666666,"delta":0.06666666666666665,"bonus":0,"bonusSoFar":0.94,"totalExamples":40},{"rt":18305,"response":{"heads":"9","tails":"1"},"type":"response","condition":"nonSeqPartial","trueTheta":0.8,"classrooms":["A","B"],"studentTrueClassroom":"A","exampleSet":"first","trial_type":"survey-html-form","trial_index":181,"time_elapsed":1086217,"internal_node_id":"0.0-180.0-0.0","params":{"nStudents":24,"maxFlips":30,"completionMinutes":45,"basePay":8,"maxBonus":9,"perTrialBonus":0.5,"perTrialBonusThreshold":0.05,"exampleCost":0.01},"classroomParams":{"A":{"a":1,"b":4},"B":{"a":4,"b":1},"C":{"a":2,"b":8},"D":{"a":8,"b":2}},"conditions":["nonSeqFull","nonSeqPartial","seqNoFeedback","seqFeedback"],"classroomPairings":[["A","B"],["C","D"]],"coinWeights":[0.2,0.5,0.8],"subjectId":"A1T9XW8SNUDDY7","assignmentId":"3E13VNJ1NOHMSBJ9YOXO918GFORI19","hitId":"3AQN9REUTF20OMGWRXYK787QVFOYDP","url":"https://gershmanlab.com/experiments/alicia/teaching/experiment/?hitId=3AQN9REUTF20OMGWRXYK787QVFOYDP&workerId=A1T9XW8SNUDDY7&assignmentId=3E13VNJ1NOHMSBJ9YOXO918GFORI19&a=1V1E9&tp_a=1V1E9&b=3E13VNJ1NOHMSBJ9YOXO918GFORI19&tp_b=3E13VNJ1NOHMSBJ9YOXO918GFORI19&c=365799&tp_c=365799","heads":9,"tails":1,"studentIndex":22,"studentTrueHypers":{"a":1,"b":4},"studentGuess":0.6666666666666666,"delta":0.13333333333333341,"totalExamples":10,"bonus":0,"bonusSoFar":0.94},{"rt":9975,"response":{"heads":"20","tails":"4"},"type":"response","condition":"nonSeqFull","trueTheta":0.8,"classrooms":["A","B"],"studentTrueClassroom":"A","exampleSet":"first","trial_type":"survey-html-form","trial_index":187,"time_elapsed":1110030,"internal_node_id":"0.0-186.0-0.0","params":{"nStudents":24,"maxFlips":30,"completionMinutes":45,"basePay":8,"maxBonus":9,"perTrialBonus":0.5,"perTrialBonusThreshold":0.05,"exampleCost":0.01},"classroomParams":{"A":{"a":1,"b":4},"B":{"a":4,"b":1},"C":{"a":2,"b":8},"D":{"a":8,"b":2}},"conditions":["nonSeqFull","nonSeqPartial","seqNoFeedback","seqFeedback"],"classroomPairings":[["A","B"],["C","D"]],"coinWeights":[0.2,0.5,0.8],"subjectId":"A1T9XW8SNUDDY7","assignmentId":"3E13VNJ1NOHMSBJ9YOXO918GFORI19","hitId":"3AQN9REUTF20OMGWRXYK787QVFOYDP","url":"https://gershmanlab.com/experiments/alicia/teaching/experiment/?hitId=3AQN9REUTF20OMGWRXYK787QVFOYDP&workerId=A1T9XW8SNUDDY7&assignmentId=3E13VNJ1NOHMSBJ9YOXO918GFORI19&a=1V1E9&tp_a=1V1E9&b=3E13VNJ1NOHMSBJ9YOXO918GFORI19&tp_b=3E13VNJ1NOHMSBJ9YOXO918GFORI19&c=365799&tp_c=365799","heads":20,"tails":4,"studentIndex":23,"studentTrueHypers":{"a":1,"b":4},"studentGuess":0.7241379310344828,"delta":0.07586206896551728,"totalExamples":24,"bonus":0,"bonusSoFar":0.94},{"rt":18426,"response":{"gender":"male","age":"24","understood":"yes","comments":"Could barely figure out a pattern to teach them for anything but a few questions "},"type":"response","trial_type":"survey-html-form","trial_index":191,"time_elapsed":1135127,"internal_node_id":"0.0-191.0","params":{"nStudents":24,"maxFlips":30,"completionMinutes":45,"basePay":8,"maxBonus":9,"perTrialBonus":0.5,"perTrialBonusThreshold":0.05,"exampleCost":0.01},"classroomParams":{"A":{"a":1,"b":4},"B":{"a":4,"b":1},"C":{"a":2,"b":8},"D":{"a":8,"b":2}},"conditions":["nonSeqFull","nonSeqPartial","seqNoFeedback","seqFeedback"],"classroomPairings":[["A","B"],["C","D"]],"coinWeights":[0.2,0.5,0.8],"subjectId":"A1T9XW8SNUDDY7","assignmentId":"3E13VNJ1NOHMSBJ9YOXO918GFORI19","hitId":"3AQN9REUTF20OMGWRXYK787QVFOYDP","url":"https://gershmanlab.com/experiments/alicia/teaching/experiment/?hitId=3AQN9REUTF20OMGWRXYK787QVFOYDP&workerId=A1T9XW8SNUDDY7&assignmentId=3E13VNJ1NOHMSBJ9YOXO918GFORI19&a=1V1E9&tp_a=1V1E9&b=3E13VNJ1NOHMSBJ9YOXO918GFORI19&tp_b=3E13VNJ1NOHMSBJ9YOXO918GFORI19&c=365799&tp_c=365799","totalBonus":0.94}]