[{"rt":27795,"response":{"heads":"2","tails":"2"},"type":"response","condition":"seqNoFeedback","trueTheta":0.2,"classrooms":["A","B"],"studentTrueClassroom":"B","exampleSet":"first","trial_type":"survey-html-form","trial_index":22,"time_elapsed":769572,"internal_node_id":"0.0-6.0-0.0","params":{"nStudents":24,"maxFlips":30,"completionMinutes":45,"basePay":8,"maxBonus":9,"perTrialBonus":0.5,"perTrialBonusThreshold":0.05,"exampleCost":0.01},"classroomParams":{"A":{"a":1,"b":4},"B":{"a":4,"b":1},"C":{"a":2,"b":8},"D":{"a":8,"b":2}},"conditions":["nonSeqFull","nonSeqPartial","seqNoFeedback","seqFeedback"],"classroomPairings":[["A","B"],["C","D"]],"coinWeights":[0.2,0.5,0.8],"subjectId":"A1USR9JCAMDGM3","assignmentId":"3IUZPWIU1PT6Z7P0VF7LF7DN35PKWL","hitId":"3JGHED38EDDK7DFM0KVY7GXU94LY7W","url":"https://gershmanlab.com/experiments/alicia/teaching/experiment/?hitId=3JGHED38EDDK7DFM0KVY7GXU94LY7W&workerId=A1USR9JCAMDGM3&assignmentId=3IUZPWIU1PT6Z7P0VF7LF7DN35PKWL&a=UPUI9&tp_a=UPUI9&b=3IUZPWIU1PT6Z7P0VF7LF7DN35PKWL&tp_b=3IUZPWIU1PT6Z7P0VF7LF7DN35PKWL&c=365799&tp_c=365799","heads":2,"tails":2,"studentIndex":0,"studentTrueHypers":{"a":4,"b":1},"studentGuess":0.6666666666666666,"delta":0.4666666666666666,"totalExamples":4,"bonusSoFar":0},{"rt":8793,"response":{"heads":"1","tails":"4"},"type":"response","condition":"seqNoFeedback","trueTheta":0.2,"classrooms":["A","B"],"studentTrueClassroom":"B","exampleSet":"second","trial_type":"survey-html-form","trial_index":25,"time_elapsed":784630,"internal_node_id":"0.0-9.0-0.0","params":{"nStudents":24,"maxFlips":30,"completionMinutes":45,"basePay":8,"maxBonus":9,"perTrialBonus":0.5,"perTrialBonusThreshold":0.05,"exampleCost":0.01},"classroomParams":{"A":{"a":1,"b":4},"B":{"a":4,"b":1},"C":{"a":2,"b":8},"D":{"a":8,"b":2}},"conditions":["nonSeqFull","nonSeqPartial","seqNoFeedback","seqFeedback"],"classroomPairings":[["A","B"],["C","D"]],"coinWeights":[0.2,0.5,0.8],"subjectId":"A1USR9JCAMDGM3","assignmentId":"3IUZPWIU1PT6Z7P0VF7LF7DN35PKWL","hitId":"3JGHED38EDDK7DFM0KVY7GXU94LY7W","url":"https://gershmanlab.com/experiments/alicia/teaching/experiment/?hitId=3JGHED38EDDK7DFM0KVY7GXU94LY7W&workerId=A1USR9JCAMDGM3&assignmentId=3IUZPWIU1PT6Z7P0VF7LF7DN35PKWL&a=UPUI9&tp_a=UPUI9&b=3IUZPWIU1PT6Z7P0VF7LF7DN35PKWL&tp_b=3IUZPWIU1PT6Z7P0VF7LF7DN35PKWL&c=365799&tp_c=365799","firstResponseHeads":2,"firstResponseTails":2,"secondResponseHeads":1,"secondResponseTails":4,"totalHeads":3,"totalTails":6,"studentIndex":0,"studentTrueHypers":{"a":4,"b":1},"studentGuess":0.5,"delta":0.3,"bonus":0,"bonusSoFar":0,"totalExamples":9},{"rt":13756,"response":{"heads":"1","tails":"4"},"type":"response","condition":"seqNoFeedback","trueTheta":0.2,"classrooms":["C","D"],"studentTrueClassroom":"C","exampleSet":"first","trial_type":"survey-html-form","trial_index":31,"time_elapsed":828488,"internal_node_id":"0.0-15.0-0.0","params":{"nStudents":24,"maxFlips":30,"completionMinutes":45,"basePay":8,"maxBonus":9,"perTrialBonus":0.5,"perTrialBonusThreshold":0.05,"exampleCost":0.01},"classroomParams":{"A":{"a":1,"b":4},"B":{"a":4,"b":1},"C":{"a":2,"b":8},"D":{"a":8,"b":2}},"conditions":["nonSeqFull","nonSeqPartial","seqNoFeedback","seqFeedback"],"classroomPairings":[["A","B"],["C","D"]],"coinWeights":[0.2,0.5,0.8],"subjectId":"A1USR9JCAMDGM3","assignmentId":"3IUZPWIU1PT6Z7P0VF7LF7DN35PKWL","hitId":"3JGHED38EDDK7DFM0KVY7GXU94LY7W","url":"https://gershmanlab.com/experiments/alicia/teaching/experiment/?hitId=3JGHED38EDDK7DFM0KVY7GXU94LY7W&workerId=A1USR9JCAMDGM3&assignmentId=3IUZPWIU1PT6Z7P0VF7LF7DN35PKWL&a=UPUI9&tp_a=UPUI9&b=3IUZPWIU1PT6Z7P0VF7LF7DN35PKWL&tp_b=3IUZPWIU1PT6Z7P0VF7LF7DN35PKWL&c=365799&tp_c=365799","heads":1,"tails":4,"studentIndex":1,"studentTrueHypers":{"a":2,"b":8},"studentGuess":0.2,"delta":0,"totalExamples":5,"bonusSoFar":0},{"rt":12352,"response":{"heads":"2","tails":"6"},"type":"response","condition":"seqNoFeedback","trueTheta":0.2,"classrooms":["C","D"],"studentTrueClassroom":"C","exampleSet":"second","trial_type":"survey-html-form","trial_index":34,"time_elapsed":848350,"internal_node_id":"0.0-18.0-0.0","params":{"nStudents":24,"maxFlips":30,"completionMinutes":45,"basePay":8,"maxBonus":9,"perTrialBonus":0.5,"perTrialBonusThreshold":0.05,"exampleCost":0.01},"classroomParams":{"A":{"a":1,"b":4},"B":{"a":4,"b":1},"C":{"a":2,"b":8},"D":{"a":8,"b":2}},"conditions":["nonSeqFull","nonSeqPartial","seqNoFeedback","seqFeedback"],"classroomPairings":[["A","B"],["C","D"]],"coinWeights":[0.2,0.5,0.8],"subjectId":"A1USR9JCAMDGM3","assignmentId":"3IUZPWIU1PT6Z7P0VF7LF7DN35PKWL","hitId":"3JGHED38EDDK7DFM0KVY7GXU94LY7W","url":"https://gershmanlab.com/experiments/alicia/teaching/experiment/?hitId=3JGHED38EDDK7DFM0KVY7GXU94LY7W&workerId=A1USR9JCAMDGM3&assignmentId=3IUZPWIU1PT6Z7P0VF7LF7DN35PKWL&a=UPUI9&tp_a=UPUI9&b=3IUZPWIU1PT6Z7P0VF7LF7DN35PKWL&tp_b=3IUZPWIU1PT6Z7P0VF7LF7DN35PKWL&c=365799&tp_c=365799","firstResponseHeads":1,"firstResponseTails":4,"secondResponseHeads":2,"secondResponseTails":6,"totalHeads":3,"totalTails":10,"studentIndex":1,"studentTrueHypers":{"a":2,"b":8},"studentGuess":0.21739130434782608,"delta":0.01739130434782607,"bonus":0.37,"bonusSoFar":0.37,"totalExamples":13},{"rt":7184,"response":{"heads":"5","tails":"5"},"type":"response","condition":"seqNoFeedback","trueTheta":0.5,"classrooms":["C","D"],"studentTrueClassroom":"D","exampleSet":"first","trial_type":"survey-html-form","trial_index":40,"time_elapsed":880780,"internal_node_id":"0.0-24.0-0.0","params":{"nStudents":24,"maxFlips":30,"completionMinutes":45,"basePay":8,"maxBonus":9,"perTrialBonus":0.5,"perTrialBonusThreshold":0.05,"exampleCost":0.01},"classroomParams":{"A":{"a":1,"b":4},"B":{"a":4,"b":1},"C":{"a":2,"b":8},"D":{"a":8,"b":2}},"conditions":["nonSeqFull","nonSeqPartial","seqNoFeedback","seqFeedback"],"classroomPairings":[["A","B"],["C","D"]],"coinWeights":[0.2,0.5,0.8],"subjectId":"A1USR9JCAMDGM3","assignmentId":"3IUZPWIU1PT6Z7P0VF7LF7DN35PKWL","hitId":"3JGHED38EDDK7DFM0KVY7GXU94LY7W","url":"https://gershmanlab.com/experiments/alicia/teaching/experiment/?hitId=3JGHED38EDDK7DFM0KVY7GXU94LY7W&workerId=A1USR9JCAMDGM3&assignmentId=3IUZPWIU1PT6Z7P0VF7LF7DN35PKWL&a=UPUI9&tp_a=UPUI9&b=3IUZPWIU1PT6Z7P0VF7LF7DN35PKWL&tp_b=3IUZPWIU1PT6Z7P0VF7LF7DN35PKWL&c=365799&tp_c=365799","heads":5,"tails":5,"studentIndex":2,"studentTrueHypers":{"a":8,"b":2},"studentGuess":0.65,"delta":0.15000000000000002,"totalExamples":10,"bonusSoFar":0.37},{"rt":19306,"response":{"heads":"5","tails":"5"},"type":"response","condition":"seqNoFeedback","trueTheta":0.5,"classrooms":["C","D"],"studentTrueClassroom":"D","exampleSet":"second","trial_type":"survey-html-form","trial_index":43,"time_elapsed":907350,"internal_node_id":"0.0-27.0-0.0","params":{"nStudents":24,"maxFlips":30,"completionMinutes":45,"basePay":8,"maxBonus":9,"perTrialBonus":0.5,"perTrialBonusThreshold":0.05,"exampleCost":0.01},"classroomParams":{"A":{"a":1,"b":4},"B":{"a":4,"b":1},"C":{"a":2,"b":8},"D":{"a":8,"b":2}},"conditions":["nonSeqFull","nonSeqPartial","seqNoFeedback","seqFeedback"],"classroomPairings":[["A","B"],["C","D"]],"coinWeights":[0.2,0.5,0.8],"subjectId":"A1USR9JCAMDGM3","assignmentId":"3IUZPWIU1PT6Z7P0VF7LF7DN35PKWL","hitId":"3JGHED38EDDK7DFM0KVY7GXU94LY7W","url":"https://gershmanlab.com/experiments/alicia/teaching/experiment/?hitId=3JGHED38EDDK7DFM0KVY7GXU94LY7W&workerId=A1USR9JCAMDGM3&assignmentId=3IUZPWIU1PT6Z7P0VF7LF7DN35PKWL&a=UPUI9&tp_a=UPUI9&b=3IUZPWIU1PT6Z7P0VF7LF7DN35PKWL&tp_b=3IUZPWIU1PT6Z7P0VF7LF7DN35PKWL&c=365799&tp_c=365799","firstResponseHeads":5,"firstResponseTails":5,"secondResponseHeads":5,"secondResponseTails":5,"totalHeads":10,"totalTails":10,"studentIndex":2,"studentTrueHypers":{"a":8,"b":2},"studentGuess":0.6,"delta":0.09999999999999998,"bonus":0,"bonusSoFar":0.37,"totalExamples":20},{"rt":8391,"response":{"heads":"8","tails":"1"},"type":"response","condition":"nonSeqPartial","trueTheta":0.8,"classrooms":["C","D"],"studentTrueClassroom":"C","exampleSet":"first","trial_type":"survey-html-form","trial_index":49,"time_elapsed":930230,"internal_node_id":"0.0-33.0-0.0","params":{"nStudents":24,"maxFlips":30,"completionMinutes":45,"basePay":8,"maxBonus":9,"perTrialBonus":0.5,"perTrialBonusThreshold":0.05,"exampleCost":0.01},"classroomParams":{"A":{"a":1,"b":4},"B":{"a":4,"b":1},"C":{"a":2,"b":8},"D":{"a":8,"b":2}},"conditions":["nonSeqFull","nonSeqPartial","seqNoFeedback","seqFeedback"],"classroomPairings":[["A","B"],["C","D"]],"coinWeights":[0.2,0.5,0.8],"subjectId":"A1USR9JCAMDGM3","assignmentId":"3IUZPWIU1PT6Z7P0VF7LF7DN35PKWL","hitId":"3JGHED38EDDK7DFM0KVY7GXU94LY7W","url":"https://gershmanlab.com/experiments/alicia/teaching/experiment/?hitId=3JGHED38EDDK7DFM0KVY7GXU94LY7W&workerId=A1USR9JCAMDGM3&assignmentId=3IUZPWIU1PT6Z7P0VF7LF7DN35PKWL&a=UPUI9&tp_a=UPUI9&b=3IUZPWIU1PT6Z7P0VF7LF7DN35PKWL&tp_b=3IUZPWIU1PT6Z7P0VF7LF7DN35PKWL&c=365799&tp_c=365799","heads":8,"tails":1,"studentIndex":3,"studentTrueHypers":{"a":2,"b":8},"studentGuess":0.5263157894736842,"delta":0.27368421052631586,"totalExamples":9,"bonus":0,"bonusSoFar":0.37},{"rt":4625,"response":{"heads":"1","tails":"4"},"type":"response","condition":"nonSeqFull","trueTheta":0.2,"classrooms":["C","D"],"studentTrueClassroom":"D","exampleSet":"first","trial_type":"survey-html-form","trial_index":55,"time_elapsed":950521,"internal_node_id":"0.0-39.0-0.0","params":{"nStudents":24,"maxFlips":30,"completionMinutes":45,"basePay":8,"maxBonus":9,"perTrialBonus":0.5,"perTrialBonusThreshold":0.05,"exampleCost":0.01},"classroomParams":{"A":{"a":1,"b":4},"B":{"a":4,"b":1},"C":{"a":2,"b":8},"D":{"a":8,"b":2}},"conditions":["nonSeqFull","nonSeqPartial","seqNoFeedback","seqFeedback"],"classroomPairings":[["A","B"],["C","D"]],"coinWeights":[0.2,0.5,0.8],"subjectId":"A1USR9JCAMDGM3","assignmentId":"3IUZPWIU1PT6Z7P0VF7LF7DN35PKWL","hitId":"3JGHED38EDDK7DFM0KVY7GXU94LY7W","url":"https://gershmanlab.com/experiments/alicia/teaching/experiment/?hitId=3JGHED38EDDK7DFM0KVY7GXU94LY7W&workerId=A1USR9JCAMDGM3&assignmentId=3IUZPWIU1PT6Z7P0VF7LF7DN35PKWL&a=UPUI9&tp_a=UPUI9&b=3IUZPWIU1PT6Z7P0VF7LF7DN35PKWL&tp_b=3IUZPWIU1PT6Z7P0VF7LF7DN35PKWL&c=365799&tp_c=365799","heads":1,"tails":4,"studentIndex":4,"studentTrueHypers":{"a":8,"b":2},"studentGuess":0.6,"delta":0.39999999999999997,"totalExamples":5,"bonus":0,"bonusSoFar":0.37},{"rt":7569,"response":{"heads":"1","tails":"4"},"type":"response","condition":"nonSeqPartial","trueTheta":0.2,"classrooms":["A","B"],"studentTrueClassroom":"A","exampleSet":"first","trial_type":"survey-html-form","trial_index":61,"time_elapsed":973970,"internal_node_id":"0.0-45.0-0.0","params":{"nStudents":24,"maxFlips":30,"completionMinutes":45,"basePay":8,"maxBonus":9,"perTrialBonus":0.5,"perTrialBonusThreshold":0.05,"exampleCost":0.01},"classroomParams":{"A":{"a":1,"b":4},"B":{"a":4,"b":1},"C":{"a":2,"b":8},"D":{"a":8,"b":2}},"conditions":["nonSeqFull","nonSeqPartial","seqNoFeedback","seqFeedback"],"classroomPairings":[["A","B"],["C","D"]],"coinWeights":[0.2,0.5,0.8],"subjectId":"A1USR9JCAMDGM3","assignmentId":"3IUZPWIU1PT6Z7P0VF7LF7DN35PKWL","hitId":"3JGHED38EDDK7DFM0KVY7GXU94LY7W","url":"https://gershmanlab.com/experiments/alicia/teaching/experiment/?hitId=3JGHED38EDDK7DFM0KVY7GXU94LY7W&workerId=A1USR9JCAMDGM3&assignmentId=3IUZPWIU1PT6Z7P0VF7LF7DN35PKWL&a=UPUI9&tp_a=UPUI9&b=3IUZPWIU1PT6Z7P0VF7LF7DN35PKWL&tp_b=3IUZPWIU1PT6Z7P0VF7LF7DN35PKWL&c=365799&tp_c=365799","heads":1,"tails":4,"studentIndex":5,"studentTrueHypers":{"a":1,"b":4},"studentGuess":0.2,"delta":0,"totalExamples":5,"bonus":0.45,"bonusSoFar":0.82},{"rt":6880,"response":{"heads":"6","tails":"2"},"type":"response","condition":"seqFeedback","trueTheta":0.8,"classrooms":["C","D"],"studentTrueClassroom":"D","exampleSet":"first","trial_type":"survey-html-form","trial_index":67,"time_elapsed":997868,"internal_node_id":"0.0-51.0-0.0","params":{"nStudents":24,"maxFlips":30,"completionMinutes":45,"basePay":8,"maxBonus":9,"perTrialBonus":0.5,"perTrialBonusThreshold":0.05,"exampleCost":0.01},"classroomParams":{"A":{"a":1,"b":4},"B":{"a":4,"b":1},"C":{"a":2,"b":8},"D":{"a":8,"b":2}},"conditions":["nonSeqFull","nonSeqPartial","seqNoFeedback","seqFeedback"],"classroomPairings":[["A","B"],["C","D"]],"coinWeights":[0.2,0.5,0.8],"subjectId":"A1USR9JCAMDGM3","assignmentId":"3IUZPWIU1PT6Z7P0VF7LF7DN35PKWL","hitId":"3JGHED38EDDK7DFM0KVY7GXU94LY7W","url":"https://gershmanlab.com/experiments/alicia/teaching/experiment/?hitId=3JGHED38EDDK7DFM0KVY7GXU94LY7W&workerId=A1USR9JCAMDGM3&assignmentId=3IUZPWIU1PT6Z7P0VF7LF7DN35PKWL&a=UPUI9&tp_a=UPUI9&b=3IUZPWIU1PT6Z7P0VF7LF7DN35PKWL&tp_b=3IUZPWIU1PT6Z7P0VF7LF7DN35PKWL&c=365799&tp_c=365799","heads":6,"tails":2,"studentIndex":6,"studentTrueHypers":{"a":8,"b":2},"studentGuess":0.7777777777777778,"delta":0.022222222222222254,"totalExamples":8,"bonusSoFar":0.82},{"rt":8994,"response":{"heads":"5","tails":"2"},"type":"response","condition":"seqFeedback","trueTheta":0.8,"classrooms":["C","D"],"studentTrueClassroom":"D","exampleSet":"second","trial_type":"survey-html-form","trial_index":71,"time_elapsed":1017590,"internal_node_id":"0.0-55.0-0.0","params":{"nStudents":24,"maxFlips":30,"completionMinutes":45,"basePay":8,"maxBonus":9,"perTrialBonus":0.5,"perTrialBonusThreshold":0.05,"exampleCost":0.01},"classroomParams":{"A":{"a":1,"b":4},"B":{"a":4,"b":1},"C":{"a":2,"b":8},"D":{"a":8,"b":2}},"conditions":["nonSeqFull","nonSeqPartial","seqNoFeedback","seqFeedback"],"classroomPairings":[["A","B"],["C","D"]],"coinWeights":[0.2,0.5,0.8],"subjectId":"A1USR9JCAMDGM3","assignmentId":"3IUZPWIU1PT6Z7P0VF7LF7DN35PKWL","hitId":"3JGHED38EDDK7DFM0KVY7GXU94LY7W","url":"https://gershmanlab.com/experiments/alicia/teaching/experiment/?hitId=3JGHED38EDDK7DFM0KVY7GXU94LY7W&workerId=A1USR9JCAMDGM3&assignmentId=3IUZPWIU1PT6Z7P0VF7LF7DN35PKWL&a=UPUI9&tp_a=UPUI9&b=3IUZPWIU1PT6Z7P0VF7LF7DN35PKWL&tp_b=3IUZPWIU1PT6Z7P0VF7LF7DN35PKWL&c=365799&tp_c=365799","firstResponseHeads":6,"firstResponseTails":2,"secondResponseHeads":5,"secondResponseTails":2,"totalHeads":11,"totalTails":4,"studentIndex":6,"studentTrueHypers":{"a":8,"b":2},"studentGuess":0.76,"delta":0.040000000000000036,"bonus":0.35,"bonusSoFar":1.17,"totalExamples":15},{"rt":8466,"response":{"heads":"1","tails":"2"},"type":"response","condition":"seqFeedback","trueTheta":0.2,"classrooms":["A","B"],"studentTrueClassroom":"B","exampleSet":"first","trial_type":"survey-html-form","trial_index":77,"time_elapsed":1038336,"internal_node_id":"0.0-61.0-0.0","params":{"nStudents":24,"maxFlips":30,"completionMinutes":45,"basePay":8,"maxBonus":9,"perTrialBonus":0.5,"perTrialBonusThreshold":0.05,"exampleCost":0.01},"classroomParams":{"A":{"a":1,"b":4},"B":{"a":4,"b":1},"C":{"a":2,"b":8},"D":{"a":8,"b":2}},"conditions":["nonSeqFull","nonSeqPartial","seqNoFeedback","seqFeedback"],"classroomPairings":[["A","B"],["C","D"]],"coinWeights":[0.2,0.5,0.8],"subjectId":"A1USR9JCAMDGM3","assignmentId":"3IUZPWIU1PT6Z7P0VF7LF7DN35PKWL","hitId":"3JGHED38EDDK7DFM0KVY7GXU94LY7W","url":"https://gershmanlab.com/experiments/alicia/teaching/experiment/?hitId=3JGHED38EDDK7DFM0KVY7GXU94LY7W&workerId=A1USR9JCAMDGM3&assignmentId=3IUZPWIU1PT6Z7P0VF7LF7DN35PKWL&a=UPUI9&tp_a=UPUI9&b=3IUZPWIU1PT6Z7P0VF7LF7DN35PKWL&tp_b=3IUZPWIU1PT6Z7P0VF7LF7DN35PKWL&c=365799&tp_c=365799","heads":1,"tails":2,"studentIndex":7,"studentTrueHypers":{"a":4,"b":1},"studentGuess":0.625,"delta":0.425,"totalExamples":3,"bonusSoFar":1.17},{"rt":7950,"response":{"heads":"1","tails":"7"},"type":"response","condition":"seqFeedback","trueTheta":0.2,"classrooms":["A","B"],"studentTrueClassroom":"B","exampleSet":"second","trial_type":"survey-html-form","trial_index":81,"time_elapsed":1056509,"internal_node_id":"0.0-65.0-0.0","params":{"nStudents":24,"maxFlips":30,"completionMinutes":45,"basePay":8,"maxBonus":9,"perTrialBonus":0.5,"perTrialBonusThreshold":0.05,"exampleCost":0.01},"classroomParams":{"A":{"a":1,"b":4},"B":{"a":4,"b":1},"C":{"a":2,"b":8},"D":{"a":8,"b":2}},"conditions":["nonSeqFull","nonSeqPartial","seqNoFeedback","seqFeedback"],"classroomPairings":[["A","B"],["C","D"]],"coinWeights":[0.2,0.5,0.8],"subjectId":"A1USR9JCAMDGM3","assignmentId":"3IUZPWIU1PT6Z7P0VF7LF7DN35PKWL","hitId":"3JGHED38EDDK7DFM0KVY7GXU94LY7W","url":"https://gershmanlab.com/experiments/alicia/teaching/experiment/?hitId=3JGHED38EDDK7DFM0KVY7GXU94LY7W&workerId=A1USR9JCAMDGM3&assignmentId=3IUZPWIU1PT6Z7P0VF7LF7DN35PKWL&a=UPUI9&tp_a=UPUI9&b=3IUZPWIU1PT6Z7P0VF7LF7DN35PKWL&tp_b=3IUZPWIU1PT6Z7P0VF7LF7DN35PKWL&c=365799&tp_c=365799","firstResponseHeads":1,"firstResponseTails":2,"secondResponseHeads":1,"secondResponseTails":7,"totalHeads":2,"totalTails":9,"studentIndex":7,"studentTrueHypers":{"a":4,"b":1},"studentGuess":0.375,"delta":0.175,"bonus":0,"bonusSoFar":1.17,"totalExamples":11},{"rt":9928,"response":{"heads":"7","tails":"1"},"type":"response","condition":"seqFeedback","trueTheta":0.8,"classrooms":["A","B"],"studentTrueClassroom":"A","exampleSet":"first","trial_type":"survey-html-form","trial_index":87,"time_elapsed":1079459,"internal_node_id":"0.0-71.0-0.0","params":{"nStudents":24,"maxFlips":30,"completionMinutes":45,"basePay":8,"maxBonus":9,"perTrialBonus":0.5,"perTrialBonusThreshold":0.05,"exampleCost":0.01},"classroomParams":{"A":{"a":1,"b":4},"B":{"a":4,"b":1},"C":{"a":2,"b":8},"D":{"a":8,"b":2}},"conditions":["nonSeqFull","nonSeqPartial","seqNoFeedback","seqFeedback"],"classroomPairings":[["A","B"],["C","D"]],"coinWeights":[0.2,0.5,0.8],"subjectId":"A1USR9JCAMDGM3","assignmentId":"3IUZPWIU1PT6Z7P0VF7LF7DN35PKWL","hitId":"3JGHED38EDDK7DFM0KVY7GXU94LY7W","url":"https://gershmanlab.com/experiments/alicia/teaching/experiment/?hitId=3JGHED38EDDK7DFM0KVY7GXU94LY7W&workerId=A1USR9JCAMDGM3&assignmentId=3IUZPWIU1PT6Z7P0VF7LF7DN35PKWL&a=UPUI9&tp_a=UPUI9&b=3IUZPWIU1PT6Z7P0VF7LF7DN35PKWL&tp_b=3IUZPWIU1PT6Z7P0VF7LF7DN35PKWL&c=365799&tp_c=365799","heads":7,"tails":1,"studentIndex":8,"studentTrueHypers":{"a":1,"b":4},"studentGuess":0.6153846153846154,"delta":0.18461538461538463,"totalExamples":8,"bonusSoFar":1.17},{"rt":7891,"response":{"heads":"8","tails":"1"},"type":"response","condition":"seqFeedback","trueTheta":0.8,"classrooms":["A","B"],"studentTrueClassroom":"A","exampleSet":"second","trial_type":"survey-html-form","trial_index":91,"time_elapsed":1097717,"internal_node_id":"0.0-75.0-0.0","params":{"nStudents":24,"maxFlips":30,"completionMinutes":45,"basePay":8,"maxBonus":9,"perTrialBonus":0.5,"perTrialBonusThreshold":0.05,"exampleCost":0.01},"classroomParams":{"A":{"a":1,"b":4},"B":{"a":4,"b":1},"C":{"a":2,"b":8},"D":{"a":8,"b":2}},"conditions":["nonSeqFull","nonSeqPartial","seqNoFeedback","seqFeedback"],"classroomPairings":[["A","B"],["C","D"]],"coinWeights":[0.2,0.5,0.8],"subjectId":"A1USR9JCAMDGM3","assignmentId":"3IUZPWIU1PT6Z7P0VF7LF7DN35PKWL","hitId":"3JGHED38EDDK7DFM0KVY7GXU94LY7W","url":"https://gershmanlab.com/experiments/alicia/teaching/experiment/?hitId=3JGHED38EDDK7DFM0KVY7GXU94LY7W&workerId=A1USR9JCAMDGM3&assignmentId=3IUZPWIU1PT6Z7P0VF7LF7DN35PKWL&a=UPUI9&tp_a=UPUI9&b=3IUZPWIU1PT6Z7P0VF7LF7DN35PKWL&tp_b=3IUZPWIU1PT6Z7P0VF7LF7DN35PKWL&c=365799&tp_c=365799","firstResponseHeads":7,"firstResponseTails":1,"secondResponseHeads":8,"secondResponseTails":1,"totalHeads":15,"totalTails":2,"studentIndex":8,"studentTrueHypers":{"a":1,"b":4},"studentGuess":0.7272727272727273,"delta":0.07272727272727275,"bonus":0,"bonusSoFar":1.17,"totalExamples":17},{"rt":4609,"response":{"heads":"1","tails":"3"},"type":"response","condition":"nonSeqPartial","trueTheta":0.2,"classrooms":["C","D"],"studentTrueClassroom":"D","exampleSet":"first","trial_type":"survey-html-form","trial_index":97,"time_elapsed":1118812,"internal_node_id":"0.0-81.0-0.0","params":{"nStudents":24,"maxFlips":30,"completionMinutes":45,"basePay":8,"maxBonus":9,"perTrialBonus":0.5,"perTrialBonusThreshold":0.05,"exampleCost":0.01},"classroomParams":{"A":{"a":1,"b":4},"B":{"a":4,"b":1},"C":{"a":2,"b":8},"D":{"a":8,"b":2}},"conditions":["nonSeqFull","nonSeqPartial","seqNoFeedback","seqFeedback"],"classroomPairings":[["A","B"],["C","D"]],"coinWeights":[0.2,0.5,0.8],"subjectId":"A1USR9JCAMDGM3","assignmentId":"3IUZPWIU1PT6Z7P0VF7LF7DN35PKWL","hitId":"3JGHED38EDDK7DFM0KVY7GXU94LY7W","url":"https://gershmanlab.com/experiments/alicia/teaching/experiment/?hitId=3JGHED38EDDK7DFM0KVY7GXU94LY7W&workerId=A1USR9JCAMDGM3&assignmentId=3IUZPWIU1PT6Z7P0VF7LF7DN35PKWL&a=UPUI9&tp_a=UPUI9&b=3IUZPWIU1PT6Z7P0VF7LF7DN35PKWL&tp_b=3IUZPWIU1PT6Z7P0VF7LF7DN35PKWL&c=365799&tp_c=365799","heads":1,"tails":3,"studentIndex":9,"studentTrueHypers":{"a":8,"b":2},"studentGuess":0.6428571428571429,"delta":0.4428571428571429,"totalExamples":4,"bonus":0,"bonusSoFar":1.17},{"rt":8100,"response":{"heads":"5","tails":"5"},"type":"response","condition":"nonSeqPartial","trueTheta":0.5,"classrooms":["A","B"],"studentTrueClassroom":"B","exampleSet":"first","trial_type":"survey-html-form","trial_index":103,"time_elapsed":1149716,"internal_node_id":"0.0-87.0-0.0","params":{"nStudents":24,"maxFlips":30,"completionMinutes":45,"basePay":8,"maxBonus":9,"perTrialBonus":0.5,"perTrialBonusThreshold":0.05,"exampleCost":0.01},"classroomParams":{"A":{"a":1,"b":4},"B":{"a":4,"b":1},"C":{"a":2,"b":8},"D":{"a":8,"b":2}},"conditions":["nonSeqFull","nonSeqPartial","seqNoFeedback","seqFeedback"],"classroomPairings":[["A","B"],["C","D"]],"coinWeights":[0.2,0.5,0.8],"subjectId":"A1USR9JCAMDGM3","assignmentId":"3IUZPWIU1PT6Z7P0VF7LF7DN35PKWL","hitId":"3JGHED38EDDK7DFM0KVY7GXU94LY7W","url":"https://gershmanlab.com/experiments/alicia/teaching/experiment/?hitId=3JGHED38EDDK7DFM0KVY7GXU94LY7W&workerId=A1USR9JCAMDGM3&assignmentId=3IUZPWIU1PT6Z7P0VF7LF7DN35PKWL&a=UPUI9&tp_a=UPUI9&b=3IUZPWIU1PT6Z7P0VF7LF7DN35PKWL&tp_b=3IUZPWIU1PT6Z7P0VF7LF7DN35PKWL&c=365799&tp_c=365799","heads":5,"tails":5,"studentIndex":10,"studentTrueHypers":{"a":4,"b":1},"studentGuess":0.6,"delta":0.09999999999999998,"totalExamples":10,"bonus":0,"bonusSoFar":1.17},{"rt":4415,"response":{"heads":"1","tails":"4"},"type":"response","condition":"seqFeedback","trueTheta":0.2,"classrooms":["C","D"],"studentTrueClassroom":"D","exampleSet":"first","trial_type":"survey-html-form","trial_index":109,"time_elapsed":1166601,"internal_node_id":"0.0-93.0-0.0","params":{"nStudents":24,"maxFlips":30,"completionMinutes":45,"basePay":8,"maxBonus":9,"perTrialBonus":0.5,"perTrialBonusThreshold":0.05,"exampleCost":0.01},"classroomParams":{"A":{"a":1,"b":4},"B":{"a":4,"b":1},"C":{"a":2,"b":8},"D":{"a":8,"b":2}},"conditions":["nonSeqFull","nonSeqPartial","seqNoFeedback","seqFeedback"],"classroomPairings":[["A","B"],["C","D"]],"coinWeights":[0.2,0.5,0.8],"subjectId":"A1USR9JCAMDGM3","assignmentId":"3IUZPWIU1PT6Z7P0VF7LF7DN35PKWL","hitId":"3JGHED38EDDK7DFM0KVY7GXU94LY7W","url":"https://gershmanlab.com/experiments/alicia/teaching/experiment/?hitId=3JGHED38EDDK7DFM0KVY7GXU94LY7W&workerId=A1USR9JCAMDGM3&assignmentId=3IUZPWIU1PT6Z7P0VF7LF7DN35PKWL&a=UPUI9&tp_a=UPUI9&b=3IUZPWIU1PT6Z7P0VF7LF7DN35PKWL&tp_b=3IUZPWIU1PT6Z7P0VF7LF7DN35PKWL&c=365799&tp_c=365799","heads":1,"tails":4,"studentIndex":11,"studentTrueHypers":{"a":8,"b":2},"studentGuess":0.6,"delta":0.39999999999999997,"totalExamples":5,"bonusSoFar":1.17},{"rt":10777,"response":{"heads":"5","tails":"2"},"type":"response","condition":"seqFeedback","trueTheta":0.2,"classrooms":["C","D"],"studentTrueClassroom":"D","exampleSet":"second","trial_type":"survey-html-form","trial_index":113,"time_elapsed":1186213,"internal_node_id":"0.0-97.0-0.0","params":{"nStudents":24,"maxFlips":30,"completionMinutes":45,"basePay":8,"maxBonus":9,"perTrialBonus":0.5,"perTrialBonusThreshold":0.05,"exampleCost":0.01},"classroomParams":{"A":{"a":1,"b":4},"B":{"a":4,"b":1},"C":{"a":2,"b":8},"D":{"a":8,"b":2}},"conditions":["nonSeqFull","nonSeqPartial","seqNoFeedback","seqFeedback"],"classroomPairings":[["A","B"],["C","D"]],"coinWeights":[0.2,0.5,0.8],"subjectId":"A1USR9JCAMDGM3","assignmentId":"3IUZPWIU1PT6Z7P0VF7LF7DN35PKWL","hitId":"3JGHED38EDDK7DFM0KVY7GXU94LY7W","url":"https://gershmanlab.com/experiments/alicia/teaching/experiment/?hitId=3JGHED38EDDK7DFM0KVY7GXU94LY7W&workerId=A1USR9JCAMDGM3&assignmentId=3IUZPWIU1PT6Z7P0VF7LF7DN35PKWL&a=UPUI9&tp_a=UPUI9&b=3IUZPWIU1PT6Z7P0VF7LF7DN35PKWL&tp_b=3IUZPWIU1PT6Z7P0VF7LF7DN35PKWL&c=365799&tp_c=365799","firstResponseHeads":1,"firstResponseTails":4,"secondResponseHeads":5,"secondResponseTails":2,"totalHeads":6,"totalTails":6,"studentIndex":11,"studentTrueHypers":{"a":8,"b":2},"studentGuess":0.6363636363636364,"delta":0.43636363636363634,"bonus":0,"bonusSoFar":1.17,"totalExamples":12},{"rt":4847,"response":{"heads":"4","tails":"1"},"type":"response","condition":"nonSeqFull","trueTheta":0.2,"classrooms":["A","B"],"studentTrueClassroom":"B","exampleSet":"first","trial_type":"survey-html-form","trial_index":119,"time_elapsed":1201347,"internal_node_id":"0.0-103.0-0.0","params":{"nStudents":24,"maxFlips":30,"completionMinutes":45,"basePay":8,"maxBonus":9,"perTrialBonus":0.5,"perTrialBonusThreshold":0.05,"exampleCost":0.01},"classroomParams":{"A":{"a":1,"b":4},"B":{"a":4,"b":1},"C":{"a":2,"b":8},"D":{"a":8,"b":2}},"conditions":["nonSeqFull","nonSeqPartial","seqNoFeedback","seqFeedback"],"classroomPairings":[["A","B"],["C","D"]],"coinWeights":[0.2,0.5,0.8],"subjectId":"A1USR9JCAMDGM3","assignmentId":"3IUZPWIU1PT6Z7P0VF7LF7DN35PKWL","hitId":"3JGHED38EDDK7DFM0KVY7GXU94LY7W","url":"https://gershmanlab.com/experiments/alicia/teaching/experiment/?hitId=3JGHED38EDDK7DFM0KVY7GXU94LY7W&workerId=A1USR9JCAMDGM3&assignmentId=3IUZPWIU1PT6Z7P0VF7LF7DN35PKWL&a=UPUI9&tp_a=UPUI9&b=3IUZPWIU1PT6Z7P0VF7LF7DN35PKWL&tp_b=3IUZPWIU1PT6Z7P0VF7LF7DN35PKWL&c=365799&tp_c=365799","heads":4,"tails":1,"studentIndex":12,"studentTrueHypers":{"a":4,"b":1},"studentGuess":0.8,"delta":0.6000000000000001,"totalExamples":5,"bonus":0,"bonusSoFar":1.17},{"rt":6214,"response":{"heads":"6","tails":"1"},"type":"response","condition":"seqNoFeedback","trueTheta":0.8,"classrooms":["C","D"],"studentTrueClassroom":"D","exampleSet":"first","trial_type":"survey-html-form","trial_index":125,"time_elapsed":1217538,"internal_node_id":"0.0-109.0-0.0","params":{"nStudents":24,"maxFlips":30,"completionMinutes":45,"basePay":8,"maxBonus":9,"perTrialBonus":0.5,"perTrialBonusThreshold":0.05,"exampleCost":0.01},"classroomParams":{"A":{"a":1,"b":4},"B":{"a":4,"b":1},"C":{"a":2,"b":8},"D":{"a":8,"b":2}},"conditions":["nonSeqFull","nonSeqPartial","seqNoFeedback","seqFeedback"],"classroomPairings":[["A","B"],["C","D"]],"coinWeights":[0.2,0.5,0.8],"subjectId":"A1USR9JCAMDGM3","assignmentId":"3IUZPWIU1PT6Z7P0VF7LF7DN35PKWL","hitId":"3JGHED38EDDK7DFM0KVY7GXU94LY7W","url":"https://gershmanlab.com/experiments/alicia/teaching/experiment/?hitId=3JGHED38EDDK7DFM0KVY7GXU94LY7W&workerId=A1USR9JCAMDGM3&assignmentId=3IUZPWIU1PT6Z7P0VF7LF7DN35PKWL&a=UPUI9&tp_a=UPUI9&b=3IUZPWIU1PT6Z7P0VF7LF7DN35PKWL&tp_b=3IUZPWIU1PT6Z7P0VF7LF7DN35PKWL&c=365799&tp_c=365799","heads":6,"tails":1,"studentIndex":13,"studentTrueHypers":{"a":8,"b":2},"studentGuess":0.8235294117647058,"delta":0.0235294117647058,"totalExamples":7,"bonusSoFar":1.17},{"rt":11020,"response":{"heads":"6","tails":"1"},"type":"response","condition":"seqNoFeedback","trueTheta":0.8,"classrooms":["C","D"],"studentTrueClassroom":"D","exampleSet":"second","trial_type":"survey-html-form","trial_index":128,"time_elapsed":1234585,"internal_node_id":"0.0-112.0-0.0","params":{"nStudents":24,"maxFlips":30,"completionMinutes":45,"basePay":8,"maxBonus":9,"perTrialBonus":0.5,"perTrialBonusThreshold":0.05,"exampleCost":0.01},"classroomParams":{"A":{"a":1,"b":4},"B":{"a":4,"b":1},"C":{"a":2,"b":8},"D":{"a":8,"b":2}},"conditions":["nonSeqFull","nonSeqPartial","seqNoFeedback","seqFeedback"],"classroomPairings":[["A","B"],["C","D"]],"coinWeights":[0.2,0.5,0.8],"subjectId":"A1USR9JCAMDGM3","assignmentId":"3IUZPWIU1PT6Z7P0VF7LF7DN35PKWL","hitId":"3JGHED38EDDK7DFM0KVY7GXU94LY7W","url":"https://gershmanlab.com/experiments/alicia/teaching/experiment/?hitId=3JGHED38EDDK7DFM0KVY7GXU94LY7W&workerId=A1USR9JCAMDGM3&assignmentId=3IUZPWIU1PT6Z7P0VF7LF7DN35PKWL&a=UPUI9&tp_a=UPUI9&b=3IUZPWIU1PT6Z7P0VF7LF7DN35PKWL&tp_b=3IUZPWIU1PT6Z7P0VF7LF7DN35PKWL&c=365799&tp_c=365799","firstResponseHeads":6,"firstResponseTails":1,"secondResponseHeads":6,"secondResponseTails":1,"totalHeads":12,"totalTails":2,"studentIndex":13,"studentTrueHypers":{"a":8,"b":2},"studentGuess":0.8333333333333334,"delta":0.033333333333333326,"bonus":0.36,"bonusSoFar":1.53,"totalExamples":14},{"rt":4516,"response":{"heads":"5","tails":"1"},"type":"response","condition":"nonSeqFull","trueTheta":0.5,"classrooms":["A","B"],"studentTrueClassroom":"A","exampleSet":"first","trial_type":"survey-html-form","trial_index":134,"time_elapsed":1254085,"internal_node_id":"0.0-118.0-0.0","params":{"nStudents":24,"maxFlips":30,"completionMinutes":45,"basePay":8,"maxBonus":9,"perTrialBonus":0.5,"perTrialBonusThreshold":0.05,"exampleCost":0.01},"classroomParams":{"A":{"a":1,"b":4},"B":{"a":4,"b":1},"C":{"a":2,"b":8},"D":{"a":8,"b":2}},"conditions":["nonSeqFull","nonSeqPartial","seqNoFeedback","seqFeedback"],"classroomPairings":[["A","B"],["C","D"]],"coinWeights":[0.2,0.5,0.8],"subjectId":"A1USR9JCAMDGM3","assignmentId":"3IUZPWIU1PT6Z7P0VF7LF7DN35PKWL","hitId":"3JGHED38EDDK7DFM0KVY7GXU94LY7W","url":"https://gershmanlab.com/experiments/alicia/teaching/experiment/?hitId=3JGHED38EDDK7DFM0KVY7GXU94LY7W&workerId=A1USR9JCAMDGM3&assignmentId=3IUZPWIU1PT6Z7P0VF7LF7DN35PKWL&a=UPUI9&tp_a=UPUI9&b=3IUZPWIU1PT6Z7P0VF7LF7DN35PKWL&tp_b=3IUZPWIU1PT6Z7P0VF7LF7DN35PKWL&c=365799&tp_c=365799","heads":5,"tails":1,"studentIndex":14,"studentTrueHypers":{"a":1,"b":4},"studentGuess":0.5454545454545454,"delta":0.045454545454545414,"totalExamples":6,"bonus":0.44,"bonusSoFar":1.97},{"rt":5325,"response":{"heads":"7","tails":"1"},"type":"response","condition":"seqNoFeedback","trueTheta":0.8,"classrooms":["A","B"],"studentTrueClassroom":"B","exampleSet":"first","trial_type":"survey-html-form","trial_index":140,"time_elapsed":1271822,"internal_node_id":"0.0-124.0-0.0","params":{"nStudents":24,"maxFlips":30,"completionMinutes":45,"basePay":8,"maxBonus":9,"perTrialBonus":0.5,"perTrialBonusThreshold":0.05,"exampleCost":0.01},"classroomParams":{"A":{"a":1,"b":4},"B":{"a":4,"b":1},"C":{"a":2,"b":8},"D":{"a":8,"b":2}},"conditions":["nonSeqFull","nonSeqPartial","seqNoFeedback","seqFeedback"],"classroomPairings":[["A","B"],["C","D"]],"coinWeights":[0.2,0.5,0.8],"subjectId":"A1USR9JCAMDGM3","assignmentId":"3IUZPWIU1PT6Z7P0VF7LF7DN35PKWL","hitId":"3JGHED38EDDK7DFM0KVY7GXU94LY7W","url":"https://gershmanlab.com/experiments/alicia/teaching/experiment/?hitId=3JGHED38EDDK7DFM0KVY7GXU94LY7W&workerId=A1USR9JCAMDGM3&assignmentId=3IUZPWIU1PT6Z7P0VF7LF7DN35PKWL&a=UPUI9&tp_a=UPUI9&b=3IUZPWIU1PT6Z7P0VF7LF7DN35PKWL&tp_b=3IUZPWIU1PT6Z7P0VF7LF7DN35PKWL&c=365799&tp_c=365799","heads":7,"tails":1,"studentIndex":15,"studentTrueHypers":{"a":4,"b":1},"studentGuess":0.8461538461538461,"delta":0.0461538461538461,"totalExamples":8,"bonusSoFar":1.97},{"rt":8927,"response":{"heads":"8","tails":"1"},"type":"response","condition":"seqNoFeedback","trueTheta":0.8,"classrooms":["A","B"],"studentTrueClassroom":"B","exampleSet":"second","trial_type":"survey-html-form","trial_index":143,"time_elapsed":1287020,"internal_node_id":"0.0-127.0-0.0","params":{"nStudents":24,"maxFlips":30,"completionMinutes":45,"basePay":8,"maxBonus":9,"perTrialBonus":0.5,"perTrialBonusThreshold":0.05,"exampleCost":0.01},"classroomParams":{"A":{"a":1,"b":4},"B":{"a":4,"b":1},"C":{"a":2,"b":8},"D":{"a":8,"b":2}},"conditions":["nonSeqFull","nonSeqPartial","seqNoFeedback","seqFeedback"],"classroomPairings":[["A","B"],["C","D"]],"coinWeights":[0.2,0.5,0.8],"subjectId":"A1USR9JCAMDGM3","assignmentId":"3IUZPWIU1PT6Z7P0VF7LF7DN35PKWL","hitId":"3JGHED38EDDK7DFM0KVY7GXU94LY7W","url":"https://gershmanlab.com/experiments/alicia/teaching/experiment/?hitId=3JGHED38EDDK7DFM0KVY7GXU94LY7W&workerId=A1USR9JCAMDGM3&assignmentId=3IUZPWIU1PT6Z7P0VF7LF7DN35PKWL&a=UPUI9&tp_a=UPUI9&b=3IUZPWIU1PT6Z7P0VF7LF7DN35PKWL&tp_b=3IUZPWIU1PT6Z7P0VF7LF7DN35PKWL&c=365799&tp_c=365799","firstResponseHeads":7,"firstResponseTails":1,"secondResponseHeads":8,"secondResponseTails":1,"totalHeads":15,"totalTails":2,"studentIndex":15,"studentTrueHypers":{"a":4,"b":1},"studentGuess":0.8636363636363636,"delta":0.0636363636363636,"bonus":0,"bonusSoFar":1.97,"totalExamples":17},{"rt":3844,"response":{"heads":"5","tails":"1"},"type":"response","condition":"seqFeedback","trueTheta":0.5,"classrooms":["A","B"],"studentTrueClassroom":"B","exampleSet":"first","trial_type":"survey-html-form","trial_index":149,"time_elapsed":1304772,"internal_node_id":"0.0-133.0-0.0","params":{"nStudents":24,"maxFlips":30,"completionMinutes":45,"basePay":8,"maxBonus":9,"perTrialBonus":0.5,"perTrialBonusThreshold":0.05,"exampleCost":0.01},"classroomParams":{"A":{"a":1,"b":4},"B":{"a":4,"b":1},"C":{"a":2,"b":8},"D":{"a":8,"b":2}},"conditions":["nonSeqFull","nonSeqPartial","seqNoFeedback","seqFeedback"],"classroomPairings":[["A","B"],["C","D"]],"coinWeights":[0.2,0.5,0.8],"subjectId":"A1USR9JCAMDGM3","assignmentId":"3IUZPWIU1PT6Z7P0VF7LF7DN35PKWL","hitId":"3JGHED38EDDK7DFM0KVY7GXU94LY7W","url":"https://gershmanlab.com/experiments/alicia/teaching/experiment/?hitId=3JGHED38EDDK7DFM0KVY7GXU94LY7W&workerId=A1USR9JCAMDGM3&assignmentId=3IUZPWIU1PT6Z7P0VF7LF7DN35PKWL&a=UPUI9&tp_a=UPUI9&b=3IUZPWIU1PT6Z7P0VF7LF7DN35PKWL&tp_b=3IUZPWIU1PT6Z7P0VF7LF7DN35PKWL&c=365799&tp_c=365799","heads":5,"tails":1,"studentIndex":16,"studentTrueHypers":{"a":4,"b":1},"studentGuess":0.8181818181818182,"delta":0.31818181818181823,"totalExamples":6,"bonusSoFar":1.97},{"rt":4693,"response":{"heads":"4","tails":"1"},"type":"response","condition":"seqFeedback","trueTheta":0.5,"classrooms":["A","B"],"studentTrueClassroom":"B","exampleSet":"second","trial_type":"survey-html-form","trial_index":153,"time_elapsed":1318266,"internal_node_id":"0.0-137.0-0.0","params":{"nStudents":24,"maxFlips":30,"completionMinutes":45,"basePay":8,"maxBonus":9,"perTrialBonus":0.5,"perTrialBonusThreshold":0.05,"exampleCost":0.01},"classroomParams":{"A":{"a":1,"b":4},"B":{"a":4,"b":1},"C":{"a":2,"b":8},"D":{"a":8,"b":2}},"conditions":["nonSeqFull","nonSeqPartial","seqNoFeedback","seqFeedback"],"classroomPairings":[["A","B"],["C","D"]],"coinWeights":[0.2,0.5,0.8],"subjectId":"A1USR9JCAMDGM3","assignmentId":"3IUZPWIU1PT6Z7P0VF7LF7DN35PKWL","hitId":"3JGHED38EDDK7DFM0KVY7GXU94LY7W","url":"https://gershmanlab.com/experiments/alicia/teaching/experiment/?hitId=3JGHED38EDDK7DFM0KVY7GXU94LY7W&workerId=A1USR9JCAMDGM3&assignmentId=3IUZPWIU1PT6Z7P0VF7LF7DN35PKWL&a=UPUI9&tp_a=UPUI9&b=3IUZPWIU1PT6Z7P0VF7LF7DN35PKWL&tp_b=3IUZPWIU1PT6Z7P0VF7LF7DN35PKWL&c=365799&tp_c=365799","firstResponseHeads":5,"firstResponseTails":1,"secondResponseHeads":4,"secondResponseTails":1,"totalHeads":9,"totalTails":2,"studentIndex":16,"studentTrueHypers":{"a":4,"b":1},"studentGuess":0.8125,"delta":0.3125,"bonus":0,"bonusSoFar":1.97,"totalExamples":11},{"rt":5752,"response":{"heads":"0","tails":"6"},"type":"response","condition":"nonSeqPartial","trueTheta":0.8,"classrooms":["A","B"],"studentTrueClassroom":"B","exampleSet":"first","trial_type":"survey-html-form","trial_index":159,"time_elapsed":1336860,"internal_node_id":"0.0-143.0-0.0","params":{"nStudents":24,"maxFlips":30,"completionMinutes":45,"basePay":8,"maxBonus":9,"perTrialBonus":0.5,"perTrialBonusThreshold":0.05,"exampleCost":0.01},"classroomParams":{"A":{"a":1,"b":4},"B":{"a":4,"b":1},"C":{"a":2,"b":8},"D":{"a":8,"b":2}},"conditions":["nonSeqFull","nonSeqPartial","seqNoFeedback","seqFeedback"],"classroomPairings":[["A","B"],["C","D"]],"coinWeights":[0.2,0.5,0.8],"subjectId":"A1USR9JCAMDGM3","assignmentId":"3IUZPWIU1PT6Z7P0VF7LF7DN35PKWL","hitId":"3JGHED38EDDK7DFM0KVY7GXU94LY7W","url":"https://gershmanlab.com/experiments/alicia/teaching/experiment/?hitId=3JGHED38EDDK7DFM0KVY7GXU94LY7W&workerId=A1USR9JCAMDGM3&assignmentId=3IUZPWIU1PT6Z7P0VF7LF7DN35PKWL&a=UPUI9&tp_a=UPUI9&b=3IUZPWIU1PT6Z7P0VF7LF7DN35PKWL&tp_b=3IUZPWIU1PT6Z7P0VF7LF7DN35PKWL&c=365799&tp_c=365799","heads":0,"tails":6,"studentIndex":17,"studentTrueHypers":{"a":4,"b":1},"studentGuess":0.36363636363636365,"delta":0.4363636363636364,"totalExamples":6,"bonus":0,"bonusSoFar":1.97},{"rt":7624,"response":{"heads":"10","tails":"1"},"type":"response","condition":"nonSeqFull","trueTheta":0.8,"classrooms":["A","B"],"studentTrueClassroom":"A","exampleSet":"first","trial_type":"survey-html-form","trial_index":165,"time_elapsed":1357920,"internal_node_id":"0.0-149.0-0.0","params":{"nStudents":24,"maxFlips":30,"completionMinutes":45,"basePay":8,"maxBonus":9,"perTrialBonus":0.5,"perTrialBonusThreshold":0.05,"exampleCost":0.01},"classroomParams":{"A":{"a":1,"b":4},"B":{"a":4,"b":1},"C":{"a":2,"b":8},"D":{"a":8,"b":2}},"conditions":["nonSeqFull","nonSeqPartial","seqNoFeedback","seqFeedback"],"classroomPairings":[["A","B"],["C","D"]],"coinWeights":[0.2,0.5,0.8],"subjectId":"A1USR9JCAMDGM3","assignmentId":"3IUZPWIU1PT6Z7P0VF7LF7DN35PKWL","hitId":"3JGHED38EDDK7DFM0KVY7GXU94LY7W","url":"https://gershmanlab.com/experiments/alicia/teaching/experiment/?hitId=3JGHED38EDDK7DFM0KVY7GXU94LY7W&workerId=A1USR9JCAMDGM3&assignmentId=3IUZPWIU1PT6Z7P0VF7LF7DN35PKWL&a=UPUI9&tp_a=UPUI9&b=3IUZPWIU1PT6Z7P0VF7LF7DN35PKWL&tp_b=3IUZPWIU1PT6Z7P0VF7LF7DN35PKWL&c=365799&tp_c=365799","heads":10,"tails":1,"studentIndex":18,"studentTrueHypers":{"a":1,"b":4},"studentGuess":0.6875,"delta":0.11250000000000004,"totalExamples":11,"bonus":0,"bonusSoFar":1.97},{"rt":4551,"response":{"heads":"8","tails":"0"},"type":"response","condition":"nonSeqFull","trueTheta":0.8,"classrooms":["C","D"],"studentTrueClassroom":"D","exampleSet":"first","trial_type":"survey-html-form","trial_index":171,"time_elapsed":1377037,"internal_node_id":"0.0-155.0-0.0","params":{"nStudents":24,"maxFlips":30,"completionMinutes":45,"basePay":8,"maxBonus":9,"perTrialBonus":0.5,"perTrialBonusThreshold":0.05,"exampleCost":0.01},"classroomParams":{"A":{"a":1,"b":4},"B":{"a":4,"b":1},"C":{"a":2,"b":8},"D":{"a":8,"b":2}},"conditions":["nonSeqFull","nonSeqPartial","seqNoFeedback","seqFeedback"],"classroomPairings":[["A","B"],["C","D"]],"coinWeights":[0.2,0.5,0.8],"subjectId":"A1USR9JCAMDGM3","assignmentId":"3IUZPWIU1PT6Z7P0VF7LF7DN35PKWL","hitId":"3JGHED38EDDK7DFM0KVY7GXU94LY7W","url":"https://gershmanlab.com/experiments/alicia/teaching/experiment/?hitId=3JGHED38EDDK7DFM0KVY7GXU94LY7W&workerId=A1USR9JCAMDGM3&assignmentId=3IUZPWIU1PT6Z7P0VF7LF7DN35PKWL&a=UPUI9&tp_a=UPUI9&b=3IUZPWIU1PT6Z7P0VF7LF7DN35PKWL&tp_b=3IUZPWIU1PT6Z7P0VF7LF7DN35PKWL&c=365799&tp_c=365799","heads":8,"tails":0,"studentIndex":19,"studentTrueHypers":{"a":8,"b":2},"studentGuess":0.8888888888888888,"delta":0.0888888888888888,"totalExamples":8,"bonus":0,"bonusSoFar":1.97},{"rt":2644,"response":{"heads":"5","tails":"0"},"type":"response","condition":"seqFeedback","trueTheta":0.5,"classrooms":["C","D"],"studentTrueClassroom":"C","exampleSet":"first","trial_type":"survey-html-form","trial_index":177,"time_elapsed":1392981,"internal_node_id":"0.0-161.0-0.0","params":{"nStudents":24,"maxFlips":30,"completionMinutes":45,"basePay":8,"maxBonus":9,"perTrialBonus":0.5,"perTrialBonusThreshold":0.05,"exampleCost":0.01},"classroomParams":{"A":{"a":1,"b":4},"B":{"a":4,"b":1},"C":{"a":2,"b":8},"D":{"a":8,"b":2}},"conditions":["nonSeqFull","nonSeqPartial","seqNoFeedback","seqFeedback"],"classroomPairings":[["A","B"],["C","D"]],"coinWeights":[0.2,0.5,0.8],"subjectId":"A1USR9JCAMDGM3","assignmentId":"3IUZPWIU1PT6Z7P0VF7LF7DN35PKWL","hitId":"3JGHED38EDDK7DFM0KVY7GXU94LY7W","url":"https://gershmanlab.com/experiments/alicia/teaching/experiment/?hitId=3JGHED38EDDK7DFM0KVY7GXU94LY7W&workerId=A1USR9JCAMDGM3&assignmentId=3IUZPWIU1PT6Z7P0VF7LF7DN35PKWL&a=UPUI9&tp_a=UPUI9&b=3IUZPWIU1PT6Z7P0VF7LF7DN35PKWL&tp_b=3IUZPWIU1PT6Z7P0VF7LF7DN35PKWL&c=365799&tp_c=365799","heads":5,"tails":0,"studentIndex":20,"studentTrueHypers":{"a":2,"b":8},"studentGuess":0.4666666666666667,"delta":0.033333333333333326,"totalExamples":5,"bonusSoFar":1.97},{"rt":4442,"response":{"heads":"6","tails":"0"},"type":"response","condition":"seqFeedback","trueTheta":0.5,"classrooms":["C","D"],"studentTrueClassroom":"C","exampleSet":"second","trial_type":"survey-html-form","trial_index":181,"time_elapsed":1404262,"internal_node_id":"0.0-165.0-0.0","params":{"nStudents":24,"maxFlips":30,"completionMinutes":45,"basePay":8,"maxBonus":9,"perTrialBonus":0.5,"perTrialBonusThreshold":0.05,"exampleCost":0.01},"classroomParams":{"A":{"a":1,"b":4},"B":{"a":4,"b":1},"C":{"a":2,"b":8},"D":{"a":8,"b":2}},"conditions":["nonSeqFull","nonSeqPartial","seqNoFeedback","seqFeedback"],"classroomPairings":[["A","B"],["C","D"]],"coinWeights":[0.2,0.5,0.8],"subjectId":"A1USR9JCAMDGM3","assignmentId":"3IUZPWIU1PT6Z7P0VF7LF7DN35PKWL","hitId":"3JGHED38EDDK7DFM0KVY7GXU94LY7W","url":"https://gershmanlab.com/experiments/alicia/teaching/experiment/?hitId=3JGHED38EDDK7DFM0KVY7GXU94LY7W&workerId=A1USR9JCAMDGM3&assignmentId=3IUZPWIU1PT6Z7P0VF7LF7DN35PKWL&a=UPUI9&tp_a=UPUI9&b=3IUZPWIU1PT6Z7P0VF7LF7DN35PKWL&tp_b=3IUZPWIU1PT6Z7P0VF7LF7DN35PKWL&c=365799&tp_c=365799","firstResponseHeads":5,"firstResponseTails":0,"secondResponseHeads":6,"secondResponseTails":0,"totalHeads":11,"totalTails":0,"studentIndex":20,"studentTrueHypers":{"a":2,"b":8},"studentGuess":0.6190476190476191,"delta":0.11904761904761907,"bonus":0,"bonusSoFar":1.97,"totalExamples":11},{"rt":2564,"response":{"heads":"5","tails":"0"},"type":"response","condition":"seqNoFeedback","trueTheta":0.5,"classrooms":["A","B"],"studentTrueClassroom":"A","exampleSet":"first","trial_type":"survey-html-form","trial_index":187,"time_elapsed":1418458,"internal_node_id":"0.0-171.0-0.0","params":{"nStudents":24,"maxFlips":30,"completionMinutes":45,"basePay":8,"maxBonus":9,"perTrialBonus":0.5,"perTrialBonusThreshold":0.05,"exampleCost":0.01},"classroomParams":{"A":{"a":1,"b":4},"B":{"a":4,"b":1},"C":{"a":2,"b":8},"D":{"a":8,"b":2}},"conditions":["nonSeqFull","nonSeqPartial","seqNoFeedback","seqFeedback"],"classroomPairings":[["A","B"],["C","D"]],"coinWeights":[0.2,0.5,0.8],"subjectId":"A1USR9JCAMDGM3","assignmentId":"3IUZPWIU1PT6Z7P0VF7LF7DN35PKWL","hitId":"3JGHED38EDDK7DFM0KVY7GXU94LY7W","url":"https://gershmanlab.com/experiments/alicia/teaching/experiment/?hitId=3JGHED38EDDK7DFM0KVY7GXU94LY7W&workerId=A1USR9JCAMDGM3&assignmentId=3IUZPWIU1PT6Z7P0VF7LF7DN35PKWL&a=UPUI9&tp_a=UPUI9&b=3IUZPWIU1PT6Z7P0VF7LF7DN35PKWL&tp_b=3IUZPWIU1PT6Z7P0VF7LF7DN35PKWL&c=365799&tp_c=365799","heads":5,"tails":0,"studentIndex":21,"studentTrueHypers":{"a":1,"b":4},"studentGuess":0.6,"delta":0.09999999999999998,"totalExamples":5,"bonusSoFar":1.97},{"rt":4248,"response":{"heads":"5","tails":"0"},"type":"response","condition":"seqNoFeedback","trueTheta":0.5,"classrooms":["A","B"],"studentTrueClassroom":"A","exampleSet":"second","trial_type":"survey-html-form","trial_index":190,"time_elapsed":1429972,"internal_node_id":"0.0-174.0-0.0","params":{"nStudents":24,"maxFlips":30,"completionMinutes":45,"basePay":8,"maxBonus":9,"perTrialBonus":0.5,"perTrialBonusThreshold":0.05,"exampleCost":0.01},"classroomParams":{"A":{"a":1,"b":4},"B":{"a":4,"b":1},"C":{"a":2,"b":8},"D":{"a":8,"b":2}},"conditions":["nonSeqFull","nonSeqPartial","seqNoFeedback","seqFeedback"],"classroomPairings":[["A","B"],["C","D"]],"coinWeights":[0.2,0.5,0.8],"subjectId":"A1USR9JCAMDGM3","assignmentId":"3IUZPWIU1PT6Z7P0VF7LF7DN35PKWL","hitId":"3JGHED38EDDK7DFM0KVY7GXU94LY7W","url":"https://gershmanlab.com/experiments/alicia/teaching/experiment/?hitId=3JGHED38EDDK7DFM0KVY7GXU94LY7W&workerId=A1USR9JCAMDGM3&assignmentId=3IUZPWIU1PT6Z7P0VF7LF7DN35PKWL&a=UPUI9&tp_a=UPUI9&b=3IUZPWIU1PT6Z7P0VF7LF7DN35PKWL&tp_b=3IUZPWIU1PT6Z7P0VF7LF7DN35PKWL&c=365799&tp_c=365799","firstResponseHeads":5,"firstResponseTails":0,"secondResponseHeads":5,"secondResponseTails":0,"totalHeads":10,"totalTails":0,"studentIndex":21,"studentTrueHypers":{"a":1,"b":4},"studentGuess":0.7333333333333333,"delta":0.23333333333333328,"bonus":0,"bonusSoFar":1.97,"totalExamples":10},{"rt":7003,"response":{"heads":"5","tails":"1"},"type":"response","condition":"nonSeqPartial","trueTheta":0.5,"classrooms":["C","D"],"studentTrueClassroom":"D","exampleSet":"first","trial_type":"survey-html-form","trial_index":196,"time_elapsed":1450476,"internal_node_id":"0.0-180.0-0.0","params":{"nStudents":24,"maxFlips":30,"completionMinutes":45,"basePay":8,"maxBonus":9,"perTrialBonus":0.5,"perTrialBonusThreshold":0.05,"exampleCost":0.01},"classroomParams":{"A":{"a":1,"b":4},"B":{"a":4,"b":1},"C":{"a":2,"b":8},"D":{"a":8,"b":2}},"conditions":["nonSeqFull","nonSeqPartial","seqNoFeedback","seqFeedback"],"classroomPairings":[["A","B"],["C","D"]],"coinWeights":[0.2,0.5,0.8],"subjectId":"A1USR9JCAMDGM3","assignmentId":"3IUZPWIU1PT6Z7P0VF7LF7DN35PKWL","hitId":"3JGHED38EDDK7DFM0KVY7GXU94LY7W","url":"https://gershmanlab.com/experiments/alicia/teaching/experiment/?hitId=3JGHED38EDDK7DFM0KVY7GXU94LY7W&workerId=A1USR9JCAMDGM3&assignmentId=3IUZPWIU1PT6Z7P0VF7LF7DN35PKWL&a=UPUI9&tp_a=UPUI9&b=3IUZPWIU1PT6Z7P0VF7LF7DN35PKWL&tp_b=3IUZPWIU1PT6Z7P0VF7LF7DN35PKWL&c=365799&tp_c=365799","heads":5,"tails":1,"studentIndex":22,"studentTrueHypers":{"a":8,"b":2},"studentGuess":0.8125,"delta":0.3125,"totalExamples":6,"bonus":0,"bonusSoFar":1.97},{"rt":4364,"response":{"heads":"5","tails":"1"},"type":"response","condition":"nonSeqFull","trueTheta":0.5,"classrooms":["C","D"],"studentTrueClassroom":"C","exampleSet":"first","trial_type":"survey-html-form","trial_index":202,"time_elapsed":1469238,"internal_node_id":"0.0-186.0-0.0","params":{"nStudents":24,"maxFlips":30,"completionMinutes":45,"basePay":8,"maxBonus":9,"perTrialBonus":0.5,"perTrialBonusThreshold":0.05,"exampleCost":0.01},"classroomParams":{"A":{"a":1,"b":4},"B":{"a":4,"b":1},"C":{"a":2,"b":8},"D":{"a":8,"b":2}},"conditions":["nonSeqFull","nonSeqPartial","seqNoFeedback","seqFeedback"],"classroomPairings":[["A","B"],["C","D"]],"coinWeights":[0.2,0.5,0.8],"subjectId":"A1USR9JCAMDGM3","assignmentId":"3IUZPWIU1PT6Z7P0VF7LF7DN35PKWL","hitId":"3JGHED38EDDK7DFM0KVY7GXU94LY7W","url":"https://gershmanlab.com/experiments/alicia/teaching/experiment/?hitId=3JGHED38EDDK7DFM0KVY7GXU94LY7W&workerId=A1USR9JCAMDGM3&assignmentId=3IUZPWIU1PT6Z7P0VF7LF7DN35PKWL&a=UPUI9&tp_a=UPUI9&b=3IUZPWIU1PT6Z7P0VF7LF7DN35PKWL&tp_b=3IUZPWIU1PT6Z7P0VF7LF7DN35PKWL&c=365799&tp_c=365799","heads":5,"tails":1,"studentIndex":23,"studentTrueHypers":{"a":2,"b":8},"studentGuess":0.4375,"delta":0.0625,"totalExamples":6,"bonus":0,"bonusSoFar":1.97},{"rt":9207,"response":{"gender":"female","age":"36","understood":"yes","comments":""},"type":"response","trial_type":"survey-html-form","trial_index":206,"time_elapsed":1485333,"internal_node_id":"0.0-191.0","params":{"nStudents":24,"maxFlips":30,"completionMinutes":45,"basePay":8,"maxBonus":9,"perTrialBonus":0.5,"perTrialBonusThreshold":0.05,"exampleCost":0.01},"classroomParams":{"A":{"a":1,"b":4},"B":{"a":4,"b":1},"C":{"a":2,"b":8},"D":{"a":8,"b":2}},"conditions":["nonSeqFull","nonSeqPartial","seqNoFeedback","seqFeedback"],"classroomPairings":[["A","B"],["C","D"]],"coinWeights":[0.2,0.5,0.8],"subjectId":"A1USR9JCAMDGM3","assignmentId":"3IUZPWIU1PT6Z7P0VF7LF7DN35PKWL","hitId":"3JGHED38EDDK7DFM0KVY7GXU94LY7W","url":"https://gershmanlab.com/experiments/alicia/teaching/experiment/?hitId=3JGHED38EDDK7DFM0KVY7GXU94LY7W&workerId=A1USR9JCAMDGM3&assignmentId=3IUZPWIU1PT6Z7P0VF7LF7DN35PKWL&a=UPUI9&tp_a=UPUI9&b=3IUZPWIU1PT6Z7P0VF7LF7DN35PKWL&tp_b=3IUZPWIU1PT6Z7P0VF7LF7DN35PKWL&c=365799&tp_c=365799","totalBonus":1.97}]