[{"rt":30190,"response":{"heads":"5","tails":"5"},"type":"response","condition":"seqFeedback","trueTheta":0.5,"classrooms":["C","D"],"studentTrueClassroom":"C","exampleSet":"first","trial_type":"survey-html-form","trial_index":37,"time_elapsed":1418526,"internal_node_id":"0.0-6.0-0.0","params":{"nStudents":24,"maxFlips":30,"completionMinutes":45,"basePay":8,"maxBonus":9,"perTrialBonus":0.5,"perTrialBonusThreshold":0.05,"exampleCost":0.01},"classroomParams":{"A":{"a":1,"b":4},"B":{"a":4,"b":1},"C":{"a":2,"b":8},"D":{"a":8,"b":2}},"conditions":["nonSeqFull","nonSeqPartial","seqNoFeedback","seqFeedback"],"classroomPairings":[["A","B"],["C","D"]],"coinWeights":[0.2,0.5,0.8],"subjectId":"A1VFOKKVJ7B9D6","assignmentId":"3WETL7AQWUU6QQ29E8SD8LJ88LF53S","hitId":"3ZG552ORAMQWHINBPXRJ4QCSG7OV2V","url":"https://gershmanlab.com/experiments/alicia/teaching/experiment/?hitId=3ZG552ORAMQWHINBPXRJ4QCSG7OV2V&workerId=A1VFOKKVJ7B9D6&assignmentId=3WETL7AQWUU6QQ29E8SD8LJ88LF53S&a=QLEW7&tp_a=QLEW7&b=3WETL7AQWUU6QQ29E8SD8LJ88LF53S&tp_b=3WETL7AQWUU6QQ29E8SD8LJ88LF53S&c=365717&tp_c=365717","heads":5,"tails":5,"studentIndex":0,"studentTrueHypers":{"a":2,"b":8},"studentGuess":0.35,"delta":0.15000000000000002,"totalExamples":10,"bonusSoFar":0},{"rt":10170,"response":{"heads":"7","tails":"3"},"type":"response","condition":"seqFeedback","trueTheta":0.5,"classrooms":["C","D"],"studentTrueClassroom":"C","exampleSet":"second","trial_type":"survey-html-form","trial_index":41,"time_elapsed":1440682,"internal_node_id":"0.0-10.0-0.0","params":{"nStudents":24,"maxFlips":30,"completionMinutes":45,"basePay":8,"maxBonus":9,"perTrialBonus":0.5,"perTrialBonusThreshold":0.05,"exampleCost":0.01},"classroomParams":{"A":{"a":1,"b":4},"B":{"a":4,"b":1},"C":{"a":2,"b":8},"D":{"a":8,"b":2}},"conditions":["nonSeqFull","nonSeqPartial","seqNoFeedback","seqFeedback"],"classroomPairings":[["A","B"],["C","D"]],"coinWeights":[0.2,0.5,0.8],"subjectId":"A1VFOKKVJ7B9D6","assignmentId":"3WETL7AQWUU6QQ29E8SD8LJ88LF53S","hitId":"3ZG552ORAMQWHINBPXRJ4QCSG7OV2V","url":"https://gershmanlab.com/experiments/alicia/teaching/experiment/?hitId=3ZG552ORAMQWHINBPXRJ4QCSG7OV2V&workerId=A1VFOKKVJ7B9D6&assignmentId=3WETL7AQWUU6QQ29E8SD8LJ88LF53S&a=QLEW7&tp_a=QLEW7&b=3WETL7AQWUU6QQ29E8SD8LJ88LF53S&tp_b=3WETL7AQWUU6QQ29E8SD8LJ88LF53S&c=365717&tp_c=365717","firstResponseHeads":5,"firstResponseTails":5,"secondResponseHeads":7,"secondResponseTails":3,"totalHeads":12,"totalTails":8,"studentIndex":0,"studentTrueHypers":{"a":2,"b":8},"studentGuess":0.4666666666666667,"delta":0.033333333333333326,"bonus":0.3,"bonusSoFar":0.3,"totalExamples":20},{"rt":10807,"response":{"heads":"1","tails":"4"},"type":"response","condition":"nonSeqFull","trueTheta":0.5,"classrooms":["A","B"],"studentTrueClassroom":"B","exampleSet":"first","trial_type":"survey-html-form","trial_index":47,"time_elapsed":1468958,"internal_node_id":"0.0-16.0-0.0","params":{"nStudents":24,"maxFlips":30,"completionMinutes":45,"basePay":8,"maxBonus":9,"perTrialBonus":0.5,"perTrialBonusThreshold":0.05,"exampleCost":0.01},"classroomParams":{"A":{"a":1,"b":4},"B":{"a":4,"b":1},"C":{"a":2,"b":8},"D":{"a":8,"b":2}},"conditions":["nonSeqFull","nonSeqPartial","seqNoFeedback","seqFeedback"],"classroomPairings":[["A","B"],["C","D"]],"coinWeights":[0.2,0.5,0.8],"subjectId":"A1VFOKKVJ7B9D6","assignmentId":"3WETL7AQWUU6QQ29E8SD8LJ88LF53S","hitId":"3ZG552ORAMQWHINBPXRJ4QCSG7OV2V","url":"https://gershmanlab.com/experiments/alicia/teaching/experiment/?hitId=3ZG552ORAMQWHINBPXRJ4QCSG7OV2V&workerId=A1VFOKKVJ7B9D6&assignmentId=3WETL7AQWUU6QQ29E8SD8LJ88LF53S&a=QLEW7&tp_a=QLEW7&b=3WETL7AQWUU6QQ29E8SD8LJ88LF53S&tp_b=3WETL7AQWUU6QQ29E8SD8LJ88LF53S&c=365717&tp_c=365717","heads":1,"tails":4,"studentIndex":1,"studentTrueHypers":{"a":4,"b":1},"studentGuess":0.5,"delta":0,"totalExamples":5,"bonus":0.45,"bonusSoFar":0.75},{"rt":34845,"response":{"heads":"8","tails":"8"},"type":"response","condition":"seqNoFeedback","trueTheta":0.5,"classrooms":["C","D"],"studentTrueClassroom":"D","exampleSet":"first","trial_type":"survey-html-form","trial_index":53,"time_elapsed":1520732,"internal_node_id":"0.0-22.0-0.0","params":{"nStudents":24,"maxFlips":30,"completionMinutes":45,"basePay":8,"maxBonus":9,"perTrialBonus":0.5,"perTrialBonusThreshold":0.05,"exampleCost":0.01},"classroomParams":{"A":{"a":1,"b":4},"B":{"a":4,"b":1},"C":{"a":2,"b":8},"D":{"a":8,"b":2}},"conditions":["nonSeqFull","nonSeqPartial","seqNoFeedback","seqFeedback"],"classroomPairings":[["A","B"],["C","D"]],"coinWeights":[0.2,0.5,0.8],"subjectId":"A1VFOKKVJ7B9D6","assignmentId":"3WETL7AQWUU6QQ29E8SD8LJ88LF53S","hitId":"3ZG552ORAMQWHINBPXRJ4QCSG7OV2V","url":"https://gershmanlab.com/experiments/alicia/teaching/experiment/?hitId=3ZG552ORAMQWHINBPXRJ4QCSG7OV2V&workerId=A1VFOKKVJ7B9D6&assignmentId=3WETL7AQWUU6QQ29E8SD8LJ88LF53S&a=QLEW7&tp_a=QLEW7&b=3WETL7AQWUU6QQ29E8SD8LJ88LF53S&tp_b=3WETL7AQWUU6QQ29E8SD8LJ88LF53S&c=365717&tp_c=365717","heads":8,"tails":8,"studentIndex":2,"studentTrueHypers":{"a":8,"b":2},"studentGuess":0.6153846153846154,"delta":0.11538461538461542,"totalExamples":16,"bonusSoFar":0.75},{"rt":14962,"response":{"heads":"5","tails":"5"},"type":"response","condition":"seqNoFeedback","trueTheta":0.5,"classrooms":["C","D"],"studentTrueClassroom":"D","exampleSet":"second","trial_type":"survey-html-form","trial_index":56,"time_elapsed":1541720,"internal_node_id":"0.0-25.0-0.0","params":{"nStudents":24,"maxFlips":30,"completionMinutes":45,"basePay":8,"maxBonus":9,"perTrialBonus":0.5,"perTrialBonusThreshold":0.05,"exampleCost":0.01},"classroomParams":{"A":{"a":1,"b":4},"B":{"a":4,"b":1},"C":{"a":2,"b":8},"D":{"a":8,"b":2}},"conditions":["nonSeqFull","nonSeqPartial","seqNoFeedback","seqFeedback"],"classroomPairings":[["A","B"],["C","D"]],"coinWeights":[0.2,0.5,0.8],"subjectId":"A1VFOKKVJ7B9D6","assignmentId":"3WETL7AQWUU6QQ29E8SD8LJ88LF53S","hitId":"3ZG552ORAMQWHINBPXRJ4QCSG7OV2V","url":"https://gershmanlab.com/experiments/alicia/teaching/experiment/?hitId=3ZG552ORAMQWHINBPXRJ4QCSG7OV2V&workerId=A1VFOKKVJ7B9D6&assignmentId=3WETL7AQWUU6QQ29E8SD8LJ88LF53S&a=QLEW7&tp_a=QLEW7&b=3WETL7AQWUU6QQ29E8SD8LJ88LF53S&tp_b=3WETL7AQWUU6QQ29E8SD8LJ88LF53S&c=365717&tp_c=365717","firstResponseHeads":8,"firstResponseTails":8,"secondResponseHeads":5,"secondResponseTails":5,"totalHeads":13,"totalTails":13,"studentIndex":2,"studentTrueHypers":{"a":8,"b":2},"studentGuess":0.5833333333333334,"delta":0.08333333333333337,"bonus":0,"bonusSoFar":0.75,"totalExamples":26},{"rt":14759,"response":{"heads":"5","tails":"3"},"type":"response","condition":"nonSeqPartial","trueTheta":0.5,"classrooms":["C","D"],"studentTrueClassroom":"C","exampleSet":"first","trial_type":"survey-html-form","trial_index":62,"time_elapsed":1572973,"internal_node_id":"0.0-31.0-0.0","params":{"nStudents":24,"maxFlips":30,"completionMinutes":45,"basePay":8,"maxBonus":9,"perTrialBonus":0.5,"perTrialBonusThreshold":0.05,"exampleCost":0.01},"classroomParams":{"A":{"a":1,"b":4},"B":{"a":4,"b":1},"C":{"a":2,"b":8},"D":{"a":8,"b":2}},"conditions":["nonSeqFull","nonSeqPartial","seqNoFeedback","seqFeedback"],"classroomPairings":[["A","B"],["C","D"]],"coinWeights":[0.2,0.5,0.8],"subjectId":"A1VFOKKVJ7B9D6","assignmentId":"3WETL7AQWUU6QQ29E8SD8LJ88LF53S","hitId":"3ZG552ORAMQWHINBPXRJ4QCSG7OV2V","url":"https://gershmanlab.com/experiments/alicia/teaching/experiment/?hitId=3ZG552ORAMQWHINBPXRJ4QCSG7OV2V&workerId=A1VFOKKVJ7B9D6&assignmentId=3WETL7AQWUU6QQ29E8SD8LJ88LF53S&a=QLEW7&tp_a=QLEW7&b=3WETL7AQWUU6QQ29E8SD8LJ88LF53S&tp_b=3WETL7AQWUU6QQ29E8SD8LJ88LF53S&c=365717&tp_c=365717","heads":5,"tails":3,"studentIndex":3,"studentTrueHypers":{"a":2,"b":8},"studentGuess":0.3888888888888889,"delta":0.1111111111111111,"totalExamples":8,"bonus":0,"bonusSoFar":0.75},{"rt":6981,"response":{"heads":"10","tails":"10"},"type":"response","condition":"seqNoFeedback","trueTheta":0.5,"classrooms":["A","B"],"studentTrueClassroom":"A","exampleSet":"first","trial_type":"survey-html-form","trial_index":68,"time_elapsed":1592832,"internal_node_id":"0.0-37.0-0.0","params":{"nStudents":24,"maxFlips":30,"completionMinutes":45,"basePay":8,"maxBonus":9,"perTrialBonus":0.5,"perTrialBonusThreshold":0.05,"exampleCost":0.01},"classroomParams":{"A":{"a":1,"b":4},"B":{"a":4,"b":1},"C":{"a":2,"b":8},"D":{"a":8,"b":2}},"conditions":["nonSeqFull","nonSeqPartial","seqNoFeedback","seqFeedback"],"classroomPairings":[["A","B"],["C","D"]],"coinWeights":[0.2,0.5,0.8],"subjectId":"A1VFOKKVJ7B9D6","assignmentId":"3WETL7AQWUU6QQ29E8SD8LJ88LF53S","hitId":"3ZG552ORAMQWHINBPXRJ4QCSG7OV2V","url":"https://gershmanlab.com/experiments/alicia/teaching/experiment/?hitId=3ZG552ORAMQWHINBPXRJ4QCSG7OV2V&workerId=A1VFOKKVJ7B9D6&assignmentId=3WETL7AQWUU6QQ29E8SD8LJ88LF53S&a=QLEW7&tp_a=QLEW7&b=3WETL7AQWUU6QQ29E8SD8LJ88LF53S&tp_b=3WETL7AQWUU6QQ29E8SD8LJ88LF53S&c=365717&tp_c=365717","heads":10,"tails":10,"studentIndex":4,"studentTrueHypers":{"a":1,"b":4},"studentGuess":0.44,"delta":0.06,"totalExamples":20,"bonusSoFar":0.75},{"rt":7847,"response":{"heads":"8","tails":"8"},"type":"response","condition":"seqNoFeedback","trueTheta":0.5,"classrooms":["A","B"],"studentTrueClassroom":"A","exampleSet":"second","trial_type":"survey-html-form","trial_index":71,"time_elapsed":1606710,"internal_node_id":"0.0-40.0-0.0","params":{"nStudents":24,"maxFlips":30,"completionMinutes":45,"basePay":8,"maxBonus":9,"perTrialBonus":0.5,"perTrialBonusThreshold":0.05,"exampleCost":0.01},"classroomParams":{"A":{"a":1,"b":4},"B":{"a":4,"b":1},"C":{"a":2,"b":8},"D":{"a":8,"b":2}},"conditions":["nonSeqFull","nonSeqPartial","seqNoFeedback","seqFeedback"],"classroomPairings":[["A","B"],["C","D"]],"coinWeights":[0.2,0.5,0.8],"subjectId":"A1VFOKKVJ7B9D6","assignmentId":"3WETL7AQWUU6QQ29E8SD8LJ88LF53S","hitId":"3ZG552ORAMQWHINBPXRJ4QCSG7OV2V","url":"https://gershmanlab.com/experiments/alicia/teaching/experiment/?hitId=3ZG552ORAMQWHINBPXRJ4QCSG7OV2V&workerId=A1VFOKKVJ7B9D6&assignmentId=3WETL7AQWUU6QQ29E8SD8LJ88LF53S&a=QLEW7&tp_a=QLEW7&b=3WETL7AQWUU6QQ29E8SD8LJ88LF53S&tp_b=3WETL7AQWUU6QQ29E8SD8LJ88LF53S&c=365717&tp_c=365717","firstResponseHeads":10,"firstResponseTails":10,"secondResponseHeads":8,"secondResponseTails":8,"totalHeads":18,"totalTails":18,"studentIndex":4,"studentTrueHypers":{"a":1,"b":4},"studentGuess":0.4634146341463415,"delta":0.036585365853658514,"bonus":0.14,"bonusSoFar":0.89,"totalExamples":36},{"rt":13345,"response":{"heads":"6","tails":"4"},"type":"response","condition":"seqFeedback","trueTheta":0.5,"classrooms":["A","B"],"studentTrueClassroom":"A","exampleSet":"first","trial_type":"survey-html-form","trial_index":77,"time_elapsed":1634477,"internal_node_id":"0.0-46.0-0.0","params":{"nStudents":24,"maxFlips":30,"completionMinutes":45,"basePay":8,"maxBonus":9,"perTrialBonus":0.5,"perTrialBonusThreshold":0.05,"exampleCost":0.01},"classroomParams":{"A":{"a":1,"b":4},"B":{"a":4,"b":1},"C":{"a":2,"b":8},"D":{"a":8,"b":2}},"conditions":["nonSeqFull","nonSeqPartial","seqNoFeedback","seqFeedback"],"classroomPairings":[["A","B"],["C","D"]],"coinWeights":[0.2,0.5,0.8],"subjectId":"A1VFOKKVJ7B9D6","assignmentId":"3WETL7AQWUU6QQ29E8SD8LJ88LF53S","hitId":"3ZG552ORAMQWHINBPXRJ4QCSG7OV2V","url":"https://gershmanlab.com/experiments/alicia/teaching/experiment/?hitId=3ZG552ORAMQWHINBPXRJ4QCSG7OV2V&workerId=A1VFOKKVJ7B9D6&assignmentId=3WETL7AQWUU6QQ29E8SD8LJ88LF53S&a=QLEW7&tp_a=QLEW7&b=3WETL7AQWUU6QQ29E8SD8LJ88LF53S&tp_b=3WETL7AQWUU6QQ29E8SD8LJ88LF53S&c=365717&tp_c=365717","heads":6,"tails":4,"studentIndex":5,"studentTrueHypers":{"a":1,"b":4},"studentGuess":0.4666666666666667,"delta":0.033333333333333326,"totalExamples":10,"bonusSoFar":0.89},{"rt":6114,"response":{"heads":"3","tails":"3"},"type":"response","condition":"seqFeedback","trueTheta":0.5,"classrooms":["A","B"],"studentTrueClassroom":"A","exampleSet":"second","trial_type":"survey-html-form","trial_index":81,"time_elapsed":1652019,"internal_node_id":"0.0-50.0-0.0","params":{"nStudents":24,"maxFlips":30,"completionMinutes":45,"basePay":8,"maxBonus":9,"perTrialBonus":0.5,"perTrialBonusThreshold":0.05,"exampleCost":0.01},"classroomParams":{"A":{"a":1,"b":4},"B":{"a":4,"b":1},"C":{"a":2,"b":8},"D":{"a":8,"b":2}},"conditions":["nonSeqFull","nonSeqPartial","seqNoFeedback","seqFeedback"],"classroomPairings":[["A","B"],["C","D"]],"coinWeights":[0.2,0.5,0.8],"subjectId":"A1VFOKKVJ7B9D6","assignmentId":"3WETL7AQWUU6QQ29E8SD8LJ88LF53S","hitId":"3ZG552ORAMQWHINBPXRJ4QCSG7OV2V","url":"https://gershmanlab.com/experiments/alicia/teaching/experiment/?hitId=3ZG552ORAMQWHINBPXRJ4QCSG7OV2V&workerId=A1VFOKKVJ7B9D6&assignmentId=3WETL7AQWUU6QQ29E8SD8LJ88LF53S&a=QLEW7&tp_a=QLEW7&b=3WETL7AQWUU6QQ29E8SD8LJ88LF53S&tp_b=3WETL7AQWUU6QQ29E8SD8LJ88LF53S&c=365717&tp_c=365717","firstResponseHeads":6,"firstResponseTails":4,"secondResponseHeads":3,"secondResponseTails":3,"totalHeads":9,"totalTails":7,"studentIndex":5,"studentTrueHypers":{"a":1,"b":4},"studentGuess":0.47619047619047616,"delta":0.023809523809523836,"bonus":0.34,"bonusSoFar":1.23,"totalExamples":16},{"rt":5464,"response":{"heads":"2","tails":"8"},"type":"response","condition":"seqNoFeedback","trueTheta":0.2,"classrooms":["A","B"],"studentTrueClassroom":"A","exampleSet":"first","trial_type":"survey-html-form","trial_index":87,"time_elapsed":1672595,"internal_node_id":"0.0-56.0-0.0","params":{"nStudents":24,"maxFlips":30,"completionMinutes":45,"basePay":8,"maxBonus":9,"perTrialBonus":0.5,"perTrialBonusThreshold":0.05,"exampleCost":0.01},"classroomParams":{"A":{"a":1,"b":4},"B":{"a":4,"b":1},"C":{"a":2,"b":8},"D":{"a":8,"b":2}},"conditions":["nonSeqFull","nonSeqPartial","seqNoFeedback","seqFeedback"],"classroomPairings":[["A","B"],["C","D"]],"coinWeights":[0.2,0.5,0.8],"subjectId":"A1VFOKKVJ7B9D6","assignmentId":"3WETL7AQWUU6QQ29E8SD8LJ88LF53S","hitId":"3ZG552ORAMQWHINBPXRJ4QCSG7OV2V","url":"https://gershmanlab.com/experiments/alicia/teaching/experiment/?hitId=3ZG552ORAMQWHINBPXRJ4QCSG7OV2V&workerId=A1VFOKKVJ7B9D6&assignmentId=3WETL7AQWUU6QQ29E8SD8LJ88LF53S&a=QLEW7&tp_a=QLEW7&b=3WETL7AQWUU6QQ29E8SD8LJ88LF53S&tp_b=3WETL7AQWUU6QQ29E8SD8LJ88LF53S&c=365717&tp_c=365717","heads":2,"tails":8,"studentIndex":6,"studentTrueHypers":{"a":1,"b":4},"studentGuess":0.2,"delta":0,"totalExamples":10,"bonusSoFar":1.23},{"rt":8353,"response":{"heads":"1","tails":"2"},"type":"response","condition":"seqNoFeedback","trueTheta":0.2,"classrooms":["A","B"],"studentTrueClassroom":"A","exampleSet":"second","trial_type":"survey-html-form","trial_index":90,"time_elapsed":1687708,"internal_node_id":"0.0-59.0-0.0","params":{"nStudents":24,"maxFlips":30,"completionMinutes":45,"basePay":8,"maxBonus":9,"perTrialBonus":0.5,"perTrialBonusThreshold":0.05,"exampleCost":0.01},"classroomParams":{"A":{"a":1,"b":4},"B":{"a":4,"b":1},"C":{"a":2,"b":8},"D":{"a":8,"b":2}},"conditions":["nonSeqFull","nonSeqPartial","seqNoFeedback","seqFeedback"],"classroomPairings":[["A","B"],["C","D"]],"coinWeights":[0.2,0.5,0.8],"subjectId":"A1VFOKKVJ7B9D6","assignmentId":"3WETL7AQWUU6QQ29E8SD8LJ88LF53S","hitId":"3ZG552ORAMQWHINBPXRJ4QCSG7OV2V","url":"https://gershmanlab.com/experiments/alicia/teaching/experiment/?hitId=3ZG552ORAMQWHINBPXRJ4QCSG7OV2V&workerId=A1VFOKKVJ7B9D6&assignmentId=3WETL7AQWUU6QQ29E8SD8LJ88LF53S&a=QLEW7&tp_a=QLEW7&b=3WETL7AQWUU6QQ29E8SD8LJ88LF53S&tp_b=3WETL7AQWUU6QQ29E8SD8LJ88LF53S&c=365717&tp_c=365717","firstResponseHeads":2,"firstResponseTails":8,"secondResponseHeads":1,"secondResponseTails":2,"totalHeads":3,"totalTails":10,"studentIndex":6,"studentTrueHypers":{"a":1,"b":4},"studentGuess":0.2222222222222222,"delta":0.0222222222222222,"bonus":0.37,"bonusSoFar":1.6,"totalExamples":13},{"rt":18497,"response":{"heads":"5","tails":"1"},"type":"response","condition":"seqFeedback","trueTheta":0.8,"classrooms":["C","D"],"studentTrueClassroom":"C","exampleSet":"first","trial_type":"survey-html-form","trial_index":96,"time_elapsed":1723427,"internal_node_id":"0.0-65.0-0.0","params":{"nStudents":24,"maxFlips":30,"completionMinutes":45,"basePay":8,"maxBonus":9,"perTrialBonus":0.5,"perTrialBonusThreshold":0.05,"exampleCost":0.01},"classroomParams":{"A":{"a":1,"b":4},"B":{"a":4,"b":1},"C":{"a":2,"b":8},"D":{"a":8,"b":2}},"conditions":["nonSeqFull","nonSeqPartial","seqNoFeedback","seqFeedback"],"classroomPairings":[["A","B"],["C","D"]],"coinWeights":[0.2,0.5,0.8],"subjectId":"A1VFOKKVJ7B9D6","assignmentId":"3WETL7AQWUU6QQ29E8SD8LJ88LF53S","hitId":"3ZG552ORAMQWHINBPXRJ4QCSG7OV2V","url":"https://gershmanlab.com/experiments/alicia/teaching/experiment/?hitId=3ZG552ORAMQWHINBPXRJ4QCSG7OV2V&workerId=A1VFOKKVJ7B9D6&assignmentId=3WETL7AQWUU6QQ29E8SD8LJ88LF53S&a=QLEW7&tp_a=QLEW7&b=3WETL7AQWUU6QQ29E8SD8LJ88LF53S&tp_b=3WETL7AQWUU6QQ29E8SD8LJ88LF53S&c=365717&tp_c=365717","heads":5,"tails":1,"studentIndex":7,"studentTrueHypers":{"a":2,"b":8},"studentGuess":0.4375,"delta":0.36250000000000004,"totalExamples":6,"bonusSoFar":1.6},{"rt":12293,"response":{"heads":"7","tails":"3"},"type":"response","condition":"seqFeedback","trueTheta":0.8,"classrooms":["C","D"],"studentTrueClassroom":"C","exampleSet":"second","trial_type":"survey-html-form","trial_index":100,"time_elapsed":1746989,"internal_node_id":"0.0-69.0-0.0","params":{"nStudents":24,"maxFlips":30,"completionMinutes":45,"basePay":8,"maxBonus":9,"perTrialBonus":0.5,"perTrialBonusThreshold":0.05,"exampleCost":0.01},"classroomParams":{"A":{"a":1,"b":4},"B":{"a":4,"b":1},"C":{"a":2,"b":8},"D":{"a":8,"b":2}},"conditions":["nonSeqFull","nonSeqPartial","seqNoFeedback","seqFeedback"],"classroomPairings":[["A","B"],["C","D"]],"coinWeights":[0.2,0.5,0.8],"subjectId":"A1VFOKKVJ7B9D6","assignmentId":"3WETL7AQWUU6QQ29E8SD8LJ88LF53S","hitId":"3ZG552ORAMQWHINBPXRJ4QCSG7OV2V","url":"https://gershmanlab.com/experiments/alicia/teaching/experiment/?hitId=3ZG552ORAMQWHINBPXRJ4QCSG7OV2V&workerId=A1VFOKKVJ7B9D6&assignmentId=3WETL7AQWUU6QQ29E8SD8LJ88LF53S&a=QLEW7&tp_a=QLEW7&b=3WETL7AQWUU6QQ29E8SD8LJ88LF53S&tp_b=3WETL7AQWUU6QQ29E8SD8LJ88LF53S&c=365717&tp_c=365717","firstResponseHeads":5,"firstResponseTails":1,"secondResponseHeads":7,"secondResponseTails":3,"totalHeads":12,"totalTails":4,"studentIndex":7,"studentTrueHypers":{"a":2,"b":8},"studentGuess":0.5384615384615384,"delta":0.2615384615384616,"bonus":0,"bonusSoFar":1.6,"totalExamples":16},{"rt":4284,"response":{"heads":"10","tails":"2"},"type":"response","condition":"nonSeqFull","trueTheta":0.2,"classrooms":["A","B"],"studentTrueClassroom":"A","exampleSet":"first","trial_type":"survey-html-form","trial_index":106,"time_elapsed":1764838,"internal_node_id":"0.0-75.0-0.0","params":{"nStudents":24,"maxFlips":30,"completionMinutes":45,"basePay":8,"maxBonus":9,"perTrialBonus":0.5,"perTrialBonusThreshold":0.05,"exampleCost":0.01},"classroomParams":{"A":{"a":1,"b":4},"B":{"a":4,"b":1},"C":{"a":2,"b":8},"D":{"a":8,"b":2}},"conditions":["nonSeqFull","nonSeqPartial","seqNoFeedback","seqFeedback"],"classroomPairings":[["A","B"],["C","D"]],"coinWeights":[0.2,0.5,0.8],"subjectId":"A1VFOKKVJ7B9D6","assignmentId":"3WETL7AQWUU6QQ29E8SD8LJ88LF53S","hitId":"3ZG552ORAMQWHINBPXRJ4QCSG7OV2V","url":"https://gershmanlab.com/experiments/alicia/teaching/experiment/?hitId=3ZG552ORAMQWHINBPXRJ4QCSG7OV2V&workerId=A1VFOKKVJ7B9D6&assignmentId=3WETL7AQWUU6QQ29E8SD8LJ88LF53S&a=QLEW7&tp_a=QLEW7&b=3WETL7AQWUU6QQ29E8SD8LJ88LF53S&tp_b=3WETL7AQWUU6QQ29E8SD8LJ88LF53S&c=365717&tp_c=365717","heads":10,"tails":2,"studentIndex":8,"studentTrueHypers":{"a":1,"b":4},"studentGuess":0.6470588235294118,"delta":0.4470588235294118,"totalExamples":12,"bonus":0,"bonusSoFar":1.6},{"rt":5545,"response":{"heads":"2","tails":"10"},"type":"response","condition":"nonSeqPartial","trueTheta":0.2,"classrooms":["A","B"],"studentTrueClassroom":"A","exampleSet":"first","trial_type":"survey-html-form","trial_index":112,"time_elapsed":1783986,"internal_node_id":"0.0-81.0-0.0","params":{"nStudents":24,"maxFlips":30,"completionMinutes":45,"basePay":8,"maxBonus":9,"perTrialBonus":0.5,"perTrialBonusThreshold":0.05,"exampleCost":0.01},"classroomParams":{"A":{"a":1,"b":4},"B":{"a":4,"b":1},"C":{"a":2,"b":8},"D":{"a":8,"b":2}},"conditions":["nonSeqFull","nonSeqPartial","seqNoFeedback","seqFeedback"],"classroomPairings":[["A","B"],["C","D"]],"coinWeights":[0.2,0.5,0.8],"subjectId":"A1VFOKKVJ7B9D6","assignmentId":"3WETL7AQWUU6QQ29E8SD8LJ88LF53S","hitId":"3ZG552ORAMQWHINBPXRJ4QCSG7OV2V","url":"https://gershmanlab.com/experiments/alicia/teaching/experiment/?hitId=3ZG552ORAMQWHINBPXRJ4QCSG7OV2V&workerId=A1VFOKKVJ7B9D6&assignmentId=3WETL7AQWUU6QQ29E8SD8LJ88LF53S&a=QLEW7&tp_a=QLEW7&b=3WETL7AQWUU6QQ29E8SD8LJ88LF53S&tp_b=3WETL7AQWUU6QQ29E8SD8LJ88LF53S&c=365717&tp_c=365717","heads":2,"tails":10,"studentIndex":9,"studentTrueHypers":{"a":1,"b":4},"studentGuess":0.17647058823529413,"delta":0.023529411764705882,"totalExamples":12,"bonus":0.38,"bonusSoFar":1.98},{"rt":19284,"response":{"heads":"5","tails":"1"},"type":"response","condition":"nonSeqFull","trueTheta":0.8,"classrooms":["A","B"],"studentTrueClassroom":"B","exampleSet":"first","trial_type":"survey-html-form","trial_index":118,"time_elapsed":1815295,"internal_node_id":"0.0-87.0-0.0","params":{"nStudents":24,"maxFlips":30,"completionMinutes":45,"basePay":8,"maxBonus":9,"perTrialBonus":0.5,"perTrialBonusThreshold":0.05,"exampleCost":0.01},"classroomParams":{"A":{"a":1,"b":4},"B":{"a":4,"b":1},"C":{"a":2,"b":8},"D":{"a":8,"b":2}},"conditions":["nonSeqFull","nonSeqPartial","seqNoFeedback","seqFeedback"],"classroomPairings":[["A","B"],["C","D"]],"coinWeights":[0.2,0.5,0.8],"subjectId":"A1VFOKKVJ7B9D6","assignmentId":"3WETL7AQWUU6QQ29E8SD8LJ88LF53S","hitId":"3ZG552ORAMQWHINBPXRJ4QCSG7OV2V","url":"https://gershmanlab.com/experiments/alicia/teaching/experiment/?hitId=3ZG552ORAMQWHINBPXRJ4QCSG7OV2V&workerId=A1VFOKKVJ7B9D6&assignmentId=3WETL7AQWUU6QQ29E8SD8LJ88LF53S&a=QLEW7&tp_a=QLEW7&b=3WETL7AQWUU6QQ29E8SD8LJ88LF53S&tp_b=3WETL7AQWUU6QQ29E8SD8LJ88LF53S&c=365717&tp_c=365717","heads":5,"tails":1,"studentIndex":10,"studentTrueHypers":{"a":4,"b":1},"studentGuess":0.8181818181818182,"delta":0.018181818181818188,"totalExamples":6,"bonus":0.44,"bonusSoFar":2.42},{"rt":11057,"response":{"heads":"1","tails":"5"},"type":"response","condition":"seqFeedback","trueTheta":0.2,"classrooms":["A","B"],"studentTrueClassroom":"B","exampleSet":"first","trial_type":"survey-html-form","trial_index":124,"time_elapsed":1839662,"internal_node_id":"0.0-93.0-0.0","params":{"nStudents":24,"maxFlips":30,"completionMinutes":45,"basePay":8,"maxBonus":9,"perTrialBonus":0.5,"perTrialBonusThreshold":0.05,"exampleCost":0.01},"classroomParams":{"A":{"a":1,"b":4},"B":{"a":4,"b":1},"C":{"a":2,"b":8},"D":{"a":8,"b":2}},"conditions":["nonSeqFull","nonSeqPartial","seqNoFeedback","seqFeedback"],"classroomPairings":[["A","B"],["C","D"]],"coinWeights":[0.2,0.5,0.8],"subjectId":"A1VFOKKVJ7B9D6","assignmentId":"3WETL7AQWUU6QQ29E8SD8LJ88LF53S","hitId":"3ZG552ORAMQWHINBPXRJ4QCSG7OV2V","url":"https://gershmanlab.com/experiments/alicia/teaching/experiment/?hitId=3ZG552ORAMQWHINBPXRJ4QCSG7OV2V&workerId=A1VFOKKVJ7B9D6&assignmentId=3WETL7AQWUU6QQ29E8SD8LJ88LF53S&a=QLEW7&tp_a=QLEW7&b=3WETL7AQWUU6QQ29E8SD8LJ88LF53S&tp_b=3WETL7AQWUU6QQ29E8SD8LJ88LF53S&c=365717&tp_c=365717","heads":1,"tails":5,"studentIndex":11,"studentTrueHypers":{"a":4,"b":1},"studentGuess":0.45454545454545453,"delta":0.2545454545454545,"totalExamples":6,"bonusSoFar":2.42},{"rt":12339,"response":{"heads":"1","tails":"8"},"type":"response","condition":"seqFeedback","trueTheta":0.2,"classrooms":["A","B"],"studentTrueClassroom":"B","exampleSet":"second","trial_type":"survey-html-form","trial_index":128,"time_elapsed":1859461,"internal_node_id":"0.0-97.0-0.0","params":{"nStudents":24,"maxFlips":30,"completionMinutes":45,"basePay":8,"maxBonus":9,"perTrialBonus":0.5,"perTrialBonusThreshold":0.05,"exampleCost":0.01},"classroomParams":{"A":{"a":1,"b":4},"B":{"a":4,"b":1},"C":{"a":2,"b":8},"D":{"a":8,"b":2}},"conditions":["nonSeqFull","nonSeqPartial","seqNoFeedback","seqFeedback"],"classroomPairings":[["A","B"],["C","D"]],"coinWeights":[0.2,0.5,0.8],"subjectId":"A1VFOKKVJ7B9D6","assignmentId":"3WETL7AQWUU6QQ29E8SD8LJ88LF53S","hitId":"3ZG552ORAMQWHINBPXRJ4QCSG7OV2V","url":"https://gershmanlab.com/experiments/alicia/teaching/experiment/?hitId=3ZG552ORAMQWHINBPXRJ4QCSG7OV2V&workerId=A1VFOKKVJ7B9D6&assignmentId=3WETL7AQWUU6QQ29E8SD8LJ88LF53S&a=QLEW7&tp_a=QLEW7&b=3WETL7AQWUU6QQ29E8SD8LJ88LF53S&tp_b=3WETL7AQWUU6QQ29E8SD8LJ88LF53S&c=365717&tp_c=365717","firstResponseHeads":1,"firstResponseTails":5,"secondResponseHeads":1,"secondResponseTails":8,"totalHeads":2,"totalTails":13,"studentIndex":11,"studentTrueHypers":{"a":4,"b":1},"studentGuess":0.3,"delta":0.09999999999999998,"bonus":0,"bonusSoFar":2.42,"totalExamples":15},{"rt":9242,"response":{"heads":"8","tails":"2"},"type":"response","condition":"seqNoFeedback","trueTheta":0.8,"classrooms":["A","B"],"studentTrueClassroom":"B","exampleSet":"first","trial_type":"survey-html-form","trial_index":134,"time_elapsed":1881565,"internal_node_id":"0.0-103.0-0.0","params":{"nStudents":24,"maxFlips":30,"completionMinutes":45,"basePay":8,"maxBonus":9,"perTrialBonus":0.5,"perTrialBonusThreshold":0.05,"exampleCost":0.01},"classroomParams":{"A":{"a":1,"b":4},"B":{"a":4,"b":1},"C":{"a":2,"b":8},"D":{"a":8,"b":2}},"conditions":["nonSeqFull","nonSeqPartial","seqNoFeedback","seqFeedback"],"classroomPairings":[["A","B"],["C","D"]],"coinWeights":[0.2,0.5,0.8],"subjectId":"A1VFOKKVJ7B9D6","assignmentId":"3WETL7AQWUU6QQ29E8SD8LJ88LF53S","hitId":"3ZG552ORAMQWHINBPXRJ4QCSG7OV2V","url":"https://gershmanlab.com/experiments/alicia/teaching/experiment/?hitId=3ZG552ORAMQWHINBPXRJ4QCSG7OV2V&workerId=A1VFOKKVJ7B9D6&assignmentId=3WETL7AQWUU6QQ29E8SD8LJ88LF53S&a=QLEW7&tp_a=QLEW7&b=3WETL7AQWUU6QQ29E8SD8LJ88LF53S&tp_b=3WETL7AQWUU6QQ29E8SD8LJ88LF53S&c=365717&tp_c=365717","heads":8,"tails":2,"studentIndex":12,"studentTrueHypers":{"a":4,"b":1},"studentGuess":0.8,"delta":0,"totalExamples":10,"bonusSoFar":2.42},{"rt":12271,"response":{"heads":"5","tails":"1"},"type":"response","condition":"seqNoFeedback","trueTheta":0.8,"classrooms":["A","B"],"studentTrueClassroom":"B","exampleSet":"second","trial_type":"survey-html-form","trial_index":137,"time_elapsed":1900605,"internal_node_id":"0.0-106.0-0.0","params":{"nStudents":24,"maxFlips":30,"completionMinutes":45,"basePay":8,"maxBonus":9,"perTrialBonus":0.5,"perTrialBonusThreshold":0.05,"exampleCost":0.01},"classroomParams":{"A":{"a":1,"b":4},"B":{"a":4,"b":1},"C":{"a":2,"b":8},"D":{"a":8,"b":2}},"conditions":["nonSeqFull","nonSeqPartial","seqNoFeedback","seqFeedback"],"classroomPairings":[["A","B"],["C","D"]],"coinWeights":[0.2,0.5,0.8],"subjectId":"A1VFOKKVJ7B9D6","assignmentId":"3WETL7AQWUU6QQ29E8SD8LJ88LF53S","hitId":"3ZG552ORAMQWHINBPXRJ4QCSG7OV2V","url":"https://gershmanlab.com/experiments/alicia/teaching/experiment/?hitId=3ZG552ORAMQWHINBPXRJ4QCSG7OV2V&workerId=A1VFOKKVJ7B9D6&assignmentId=3WETL7AQWUU6QQ29E8SD8LJ88LF53S&a=QLEW7&tp_a=QLEW7&b=3WETL7AQWUU6QQ29E8SD8LJ88LF53S&tp_b=3WETL7AQWUU6QQ29E8SD8LJ88LF53S&c=365717&tp_c=365717","firstResponseHeads":8,"firstResponseTails":2,"secondResponseHeads":5,"secondResponseTails":1,"totalHeads":13,"totalTails":3,"studentIndex":12,"studentTrueHypers":{"a":4,"b":1},"studentGuess":0.8095238095238095,"delta":0.00952380952380949,"bonus":0.34,"bonusSoFar":2.76,"totalExamples":16},{"rt":6372,"response":{"heads":"2","tails":"2"},"type":"response","condition":"nonSeqPartial","trueTheta":0.5,"classrooms":["A","B"],"studentTrueClassroom":"A","exampleSet":"first","trial_type":"survey-html-form","trial_index":143,"time_elapsed":1919949,"internal_node_id":"0.0-112.0-0.0","params":{"nStudents":24,"maxFlips":30,"completionMinutes":45,"basePay":8,"maxBonus":9,"perTrialBonus":0.5,"perTrialBonusThreshold":0.05,"exampleCost":0.01},"classroomParams":{"A":{"a":1,"b":4},"B":{"a":4,"b":1},"C":{"a":2,"b":8},"D":{"a":8,"b":2}},"conditions":["nonSeqFull","nonSeqPartial","seqNoFeedback","seqFeedback"],"classroomPairings":[["A","B"],["C","D"]],"coinWeights":[0.2,0.5,0.8],"subjectId":"A1VFOKKVJ7B9D6","assignmentId":"3WETL7AQWUU6QQ29E8SD8LJ88LF53S","hitId":"3ZG552ORAMQWHINBPXRJ4QCSG7OV2V","url":"https://gershmanlab.com/experiments/alicia/teaching/experiment/?hitId=3ZG552ORAMQWHINBPXRJ4QCSG7OV2V&workerId=A1VFOKKVJ7B9D6&assignmentId=3WETL7AQWUU6QQ29E8SD8LJ88LF53S&a=QLEW7&tp_a=QLEW7&b=3WETL7AQWUU6QQ29E8SD8LJ88LF53S&tp_b=3WETL7AQWUU6QQ29E8SD8LJ88LF53S&c=365717&tp_c=365717","heads":2,"tails":2,"studentIndex":13,"studentTrueHypers":{"a":1,"b":4},"studentGuess":0.3333333333333333,"delta":0.16666666666666669,"totalExamples":4,"bonus":0,"bonusSoFar":2.76},{"rt":5859,"response":{"heads":"8","tails":"2"},"type":"response","condition":"seqNoFeedback","trueTheta":0.2,"classrooms":["C","D"],"studentTrueClassroom":"D","exampleSet":"first","trial_type":"survey-html-form","trial_index":149,"time_elapsed":1938121,"internal_node_id":"0.0-118.0-0.0","params":{"nStudents":24,"maxFlips":30,"completionMinutes":45,"basePay":8,"maxBonus":9,"perTrialBonus":0.5,"perTrialBonusThreshold":0.05,"exampleCost":0.01},"classroomParams":{"A":{"a":1,"b":4},"B":{"a":4,"b":1},"C":{"a":2,"b":8},"D":{"a":8,"b":2}},"conditions":["nonSeqFull","nonSeqPartial","seqNoFeedback","seqFeedback"],"classroomPairings":[["A","B"],["C","D"]],"coinWeights":[0.2,0.5,0.8],"subjectId":"A1VFOKKVJ7B9D6","assignmentId":"3WETL7AQWUU6QQ29E8SD8LJ88LF53S","hitId":"3ZG552ORAMQWHINBPXRJ4QCSG7OV2V","url":"https://gershmanlab.com/experiments/alicia/teaching/experiment/?hitId=3ZG552ORAMQWHINBPXRJ4QCSG7OV2V&workerId=A1VFOKKVJ7B9D6&assignmentId=3WETL7AQWUU6QQ29E8SD8LJ88LF53S&a=QLEW7&tp_a=QLEW7&b=3WETL7AQWUU6QQ29E8SD8LJ88LF53S&tp_b=3WETL7AQWUU6QQ29E8SD8LJ88LF53S&c=365717&tp_c=365717","heads":8,"tails":2,"studentIndex":14,"studentTrueHypers":{"a":8,"b":2},"studentGuess":0.8,"delta":0.6000000000000001,"totalExamples":10,"bonusSoFar":2.76},{"rt":8593,"response":{"heads":"12","tails":"0"},"type":"response","condition":"seqNoFeedback","trueTheta":0.2,"classrooms":["C","D"],"studentTrueClassroom":"D","exampleSet":"second","trial_type":"survey-html-form","trial_index":152,"time_elapsed":1953725,"internal_node_id":"0.0-121.0-0.0","params":{"nStudents":24,"maxFlips":30,"completionMinutes":45,"basePay":8,"maxBonus":9,"perTrialBonus":0.5,"perTrialBonusThreshold":0.05,"exampleCost":0.01},"classroomParams":{"A":{"a":1,"b":4},"B":{"a":4,"b":1},"C":{"a":2,"b":8},"D":{"a":8,"b":2}},"conditions":["nonSeqFull","nonSeqPartial","seqNoFeedback","seqFeedback"],"classroomPairings":[["A","B"],["C","D"]],"coinWeights":[0.2,0.5,0.8],"subjectId":"A1VFOKKVJ7B9D6","assignmentId":"3WETL7AQWUU6QQ29E8SD8LJ88LF53S","hitId":"3ZG552ORAMQWHINBPXRJ4QCSG7OV2V","url":"https://gershmanlab.com/experiments/alicia/teaching/experiment/?hitId=3ZG552ORAMQWHINBPXRJ4QCSG7OV2V&workerId=A1VFOKKVJ7B9D6&assignmentId=3WETL7AQWUU6QQ29E8SD8LJ88LF53S&a=QLEW7&tp_a=QLEW7&b=3WETL7AQWUU6QQ29E8SD8LJ88LF53S&tp_b=3WETL7AQWUU6QQ29E8SD8LJ88LF53S&c=365717&tp_c=365717","firstResponseHeads":8,"firstResponseTails":2,"secondResponseHeads":12,"secondResponseTails":0,"totalHeads":20,"totalTails":2,"studentIndex":14,"studentTrueHypers":{"a":8,"b":2},"studentGuess":0.875,"delta":0.675,"bonus":0,"bonusSoFar":2.76,"totalExamples":22},{"rt":16552,"response":{"heads":"10","tails":"0"},"type":"response","condition":"nonSeqFull","trueTheta":0.8,"classrooms":["C","D"],"studentTrueClassroom":"C","exampleSet":"first","trial_type":"survey-html-form","trial_index":158,"time_elapsed":1982813,"internal_node_id":"0.0-127.0-0.0","params":{"nStudents":24,"maxFlips":30,"completionMinutes":45,"basePay":8,"maxBonus":9,"perTrialBonus":0.5,"perTrialBonusThreshold":0.05,"exampleCost":0.01},"classroomParams":{"A":{"a":1,"b":4},"B":{"a":4,"b":1},"C":{"a":2,"b":8},"D":{"a":8,"b":2}},"conditions":["nonSeqFull","nonSeqPartial","seqNoFeedback","seqFeedback"],"classroomPairings":[["A","B"],["C","D"]],"coinWeights":[0.2,0.5,0.8],"subjectId":"A1VFOKKVJ7B9D6","assignmentId":"3WETL7AQWUU6QQ29E8SD8LJ88LF53S","hitId":"3ZG552ORAMQWHINBPXRJ4QCSG7OV2V","url":"https://gershmanlab.com/experiments/alicia/teaching/experiment/?hitId=3ZG552ORAMQWHINBPXRJ4QCSG7OV2V&workerId=A1VFOKKVJ7B9D6&assignmentId=3WETL7AQWUU6QQ29E8SD8LJ88LF53S&a=QLEW7&tp_a=QLEW7&b=3WETL7AQWUU6QQ29E8SD8LJ88LF53S&tp_b=3WETL7AQWUU6QQ29E8SD8LJ88LF53S&c=365717&tp_c=365717","heads":10,"tails":0,"studentIndex":15,"studentTrueHypers":{"a":2,"b":8},"studentGuess":0.6,"delta":0.20000000000000007,"totalExamples":10,"bonus":0,"bonusSoFar":2.76},{"rt":18757,"response":{"heads":"10","tails":"0"},"type":"response","condition":"nonSeqPartial","trueTheta":0.8,"classrooms":["C","D"],"studentTrueClassroom":"D","exampleSet":"first","trial_type":"survey-html-form","trial_index":164,"time_elapsed":2015932,"internal_node_id":"0.0-133.0-0.0","params":{"nStudents":24,"maxFlips":30,"completionMinutes":45,"basePay":8,"maxBonus":9,"perTrialBonus":0.5,"perTrialBonusThreshold":0.05,"exampleCost":0.01},"classroomParams":{"A":{"a":1,"b":4},"B":{"a":4,"b":1},"C":{"a":2,"b":8},"D":{"a":8,"b":2}},"conditions":["nonSeqFull","nonSeqPartial","seqNoFeedback","seqFeedback"],"classroomPairings":[["A","B"],["C","D"]],"coinWeights":[0.2,0.5,0.8],"subjectId":"A1VFOKKVJ7B9D6","assignmentId":"3WETL7AQWUU6QQ29E8SD8LJ88LF53S","hitId":"3ZG552ORAMQWHINBPXRJ4QCSG7OV2V","url":"https://gershmanlab.com/experiments/alicia/teaching/experiment/?hitId=3ZG552ORAMQWHINBPXRJ4QCSG7OV2V&workerId=A1VFOKKVJ7B9D6&assignmentId=3WETL7AQWUU6QQ29E8SD8LJ88LF53S&a=QLEW7&tp_a=QLEW7&b=3WETL7AQWUU6QQ29E8SD8LJ88LF53S&tp_b=3WETL7AQWUU6QQ29E8SD8LJ88LF53S&c=365717&tp_c=365717","heads":10,"tails":0,"studentIndex":16,"studentTrueHypers":{"a":8,"b":2},"studentGuess":0.9,"delta":0.09999999999999998,"totalExamples":10,"bonus":0,"bonusSoFar":2.76},{"rt":7918,"response":{"heads":"6","tails":"1"},"type":"response","condition":"nonSeqPartial","trueTheta":0.8,"classrooms":["A","B"],"studentTrueClassroom":"B","exampleSet":"first","trial_type":"survey-html-form","trial_index":170,"time_elapsed":2040927,"internal_node_id":"0.0-139.0-0.0","params":{"nStudents":24,"maxFlips":30,"completionMinutes":45,"basePay":8,"maxBonus":9,"perTrialBonus":0.5,"perTrialBonusThreshold":0.05,"exampleCost":0.01},"classroomParams":{"A":{"a":1,"b":4},"B":{"a":4,"b":1},"C":{"a":2,"b":8},"D":{"a":8,"b":2}},"conditions":["nonSeqFull","nonSeqPartial","seqNoFeedback","seqFeedback"],"classroomPairings":[["A","B"],["C","D"]],"coinWeights":[0.2,0.5,0.8],"subjectId":"A1VFOKKVJ7B9D6","assignmentId":"3WETL7AQWUU6QQ29E8SD8LJ88LF53S","hitId":"3ZG552ORAMQWHINBPXRJ4QCSG7OV2V","url":"https://gershmanlab.com/experiments/alicia/teaching/experiment/?hitId=3ZG552ORAMQWHINBPXRJ4QCSG7OV2V&workerId=A1VFOKKVJ7B9D6&assignmentId=3WETL7AQWUU6QQ29E8SD8LJ88LF53S&a=QLEW7&tp_a=QLEW7&b=3WETL7AQWUU6QQ29E8SD8LJ88LF53S&tp_b=3WETL7AQWUU6QQ29E8SD8LJ88LF53S&c=365717&tp_c=365717","heads":6,"tails":1,"studentIndex":17,"studentTrueHypers":{"a":4,"b":1},"studentGuess":0.8333333333333334,"delta":0.033333333333333326,"totalExamples":7,"bonus":0.43,"bonusSoFar":3.19},{"rt":4806,"response":{"heads":"6","tails":"1"},"type":"response","condition":"seqNoFeedback","trueTheta":0.8,"classrooms":["C","D"],"studentTrueClassroom":"D","exampleSet":"first","trial_type":"survey-html-form","trial_index":176,"time_elapsed":2060412,"internal_node_id":"0.0-145.0-0.0","params":{"nStudents":24,"maxFlips":30,"completionMinutes":45,"basePay":8,"maxBonus":9,"perTrialBonus":0.5,"perTrialBonusThreshold":0.05,"exampleCost":0.01},"classroomParams":{"A":{"a":1,"b":4},"B":{"a":4,"b":1},"C":{"a":2,"b":8},"D":{"a":8,"b":2}},"conditions":["nonSeqFull","nonSeqPartial","seqNoFeedback","seqFeedback"],"classroomPairings":[["A","B"],["C","D"]],"coinWeights":[0.2,0.5,0.8],"subjectId":"A1VFOKKVJ7B9D6","assignmentId":"3WETL7AQWUU6QQ29E8SD8LJ88LF53S","hitId":"3ZG552ORAMQWHINBPXRJ4QCSG7OV2V","url":"https://gershmanlab.com/experiments/alicia/teaching/experiment/?hitId=3ZG552ORAMQWHINBPXRJ4QCSG7OV2V&workerId=A1VFOKKVJ7B9D6&assignmentId=3WETL7AQWUU6QQ29E8SD8LJ88LF53S&a=QLEW7&tp_a=QLEW7&b=3WETL7AQWUU6QQ29E8SD8LJ88LF53S&tp_b=3WETL7AQWUU6QQ29E8SD8LJ88LF53S&c=365717&tp_c=365717","heads":6,"tails":1,"studentIndex":18,"studentTrueHypers":{"a":8,"b":2},"studentGuess":0.8235294117647058,"delta":0.0235294117647058,"totalExamples":7,"bonusSoFar":3.19},{"rt":9813,"response":{"heads":"5","tails":"1"},"type":"response","condition":"seqNoFeedback","trueTheta":0.8,"classrooms":["C","D"],"studentTrueClassroom":"D","exampleSet":"second","trial_type":"survey-html-form","trial_index":179,"time_elapsed":2078246,"internal_node_id":"0.0-148.0-0.0","params":{"nStudents":24,"maxFlips":30,"completionMinutes":45,"basePay":8,"maxBonus":9,"perTrialBonus":0.5,"perTrialBonusThreshold":0.05,"exampleCost":0.01},"classroomParams":{"A":{"a":1,"b":4},"B":{"a":4,"b":1},"C":{"a":2,"b":8},"D":{"a":8,"b":2}},"conditions":["nonSeqFull","nonSeqPartial","seqNoFeedback","seqFeedback"],"classroomPairings":[["A","B"],["C","D"]],"coinWeights":[0.2,0.5,0.8],"subjectId":"A1VFOKKVJ7B9D6","assignmentId":"3WETL7AQWUU6QQ29E8SD8LJ88LF53S","hitId":"3ZG552ORAMQWHINBPXRJ4QCSG7OV2V","url":"https://gershmanlab.com/experiments/alicia/teaching/experiment/?hitId=3ZG552ORAMQWHINBPXRJ4QCSG7OV2V&workerId=A1VFOKKVJ7B9D6&assignmentId=3WETL7AQWUU6QQ29E8SD8LJ88LF53S&a=QLEW7&tp_a=QLEW7&b=3WETL7AQWUU6QQ29E8SD8LJ88LF53S&tp_b=3WETL7AQWUU6QQ29E8SD8LJ88LF53S&c=365717&tp_c=365717","firstResponseHeads":6,"firstResponseTails":1,"secondResponseHeads":5,"secondResponseTails":1,"totalHeads":11,"totalTails":2,"studentIndex":18,"studentTrueHypers":{"a":8,"b":2},"studentGuess":0.8260869565217391,"delta":0.02608695652173909,"bonus":0.37,"bonusSoFar":3.56,"totalExamples":13},{"rt":19271,"response":{"heads":"1","tails":"5"},"type":"response","condition":"seqFeedback","trueTheta":0.2,"classrooms":["C","D"],"studentTrueClassroom":"C","exampleSet":"first","trial_type":"survey-html-form","trial_index":185,"time_elapsed":2111393,"internal_node_id":"0.0-154.0-0.0","params":{"nStudents":24,"maxFlips":30,"completionMinutes":45,"basePay":8,"maxBonus":9,"perTrialBonus":0.5,"perTrialBonusThreshold":0.05,"exampleCost":0.01},"classroomParams":{"A":{"a":1,"b":4},"B":{"a":4,"b":1},"C":{"a":2,"b":8},"D":{"a":8,"b":2}},"conditions":["nonSeqFull","nonSeqPartial","seqNoFeedback","seqFeedback"],"classroomPairings":[["A","B"],["C","D"]],"coinWeights":[0.2,0.5,0.8],"subjectId":"A1VFOKKVJ7B9D6","assignmentId":"3WETL7AQWUU6QQ29E8SD8LJ88LF53S","hitId":"3ZG552ORAMQWHINBPXRJ4QCSG7OV2V","url":"https://gershmanlab.com/experiments/alicia/teaching/experiment/?hitId=3ZG552ORAMQWHINBPXRJ4QCSG7OV2V&workerId=A1VFOKKVJ7B9D6&assignmentId=3WETL7AQWUU6QQ29E8SD8LJ88LF53S&a=QLEW7&tp_a=QLEW7&b=3WETL7AQWUU6QQ29E8SD8LJ88LF53S&tp_b=3WETL7AQWUU6QQ29E8SD8LJ88LF53S&c=365717&tp_c=365717","heads":1,"tails":5,"studentIndex":19,"studentTrueHypers":{"a":2,"b":8},"studentGuess":0.1875,"delta":0.012500000000000011,"totalExamples":6,"bonusSoFar":3.56},{"rt":4484,"response":{"heads":"5","tails":"1"},"type":"response","condition":"seqFeedback","trueTheta":0.2,"classrooms":["C","D"],"studentTrueClassroom":"C","exampleSet":"second","trial_type":"survey-html-form","trial_index":189,"time_elapsed":2124625,"internal_node_id":"0.0-158.0-0.0","params":{"nStudents":24,"maxFlips":30,"completionMinutes":45,"basePay":8,"maxBonus":9,"perTrialBonus":0.5,"perTrialBonusThreshold":0.05,"exampleCost":0.01},"classroomParams":{"A":{"a":1,"b":4},"B":{"a":4,"b":1},"C":{"a":2,"b":8},"D":{"a":8,"b":2}},"conditions":["nonSeqFull","nonSeqPartial","seqNoFeedback","seqFeedback"],"classroomPairings":[["A","B"],["C","D"]],"coinWeights":[0.2,0.5,0.8],"subjectId":"A1VFOKKVJ7B9D6","assignmentId":"3WETL7AQWUU6QQ29E8SD8LJ88LF53S","hitId":"3ZG552ORAMQWHINBPXRJ4QCSG7OV2V","url":"https://gershmanlab.com/experiments/alicia/teaching/experiment/?hitId=3ZG552ORAMQWHINBPXRJ4QCSG7OV2V&workerId=A1VFOKKVJ7B9D6&assignmentId=3WETL7AQWUU6QQ29E8SD8LJ88LF53S&a=QLEW7&tp_a=QLEW7&b=3WETL7AQWUU6QQ29E8SD8LJ88LF53S&tp_b=3WETL7AQWUU6QQ29E8SD8LJ88LF53S&c=365717&tp_c=365717","firstResponseHeads":1,"firstResponseTails":5,"secondResponseHeads":5,"secondResponseTails":1,"totalHeads":6,"totalTails":6,"studentIndex":19,"studentTrueHypers":{"a":2,"b":8},"studentGuess":0.36363636363636365,"delta":0.16363636363636364,"bonus":0,"bonusSoFar":3.56,"totalExamples":12},{"rt":7420,"response":{"heads":"6","tails":"1"},"type":"response","condition":"seqFeedback","trueTheta":0.8,"classrooms":["A","B"],"studentTrueClassroom":"A","exampleSet":"first","trial_type":"survey-html-form","trial_index":195,"time_elapsed":2144047,"internal_node_id":"0.0-164.0-0.0","params":{"nStudents":24,"maxFlips":30,"completionMinutes":45,"basePay":8,"maxBonus":9,"perTrialBonus":0.5,"perTrialBonusThreshold":0.05,"exampleCost":0.01},"classroomParams":{"A":{"a":1,"b":4},"B":{"a":4,"b":1},"C":{"a":2,"b":8},"D":{"a":8,"b":2}},"conditions":["nonSeqFull","nonSeqPartial","seqNoFeedback","seqFeedback"],"classroomPairings":[["A","B"],["C","D"]],"coinWeights":[0.2,0.5,0.8],"subjectId":"A1VFOKKVJ7B9D6","assignmentId":"3WETL7AQWUU6QQ29E8SD8LJ88LF53S","hitId":"3ZG552ORAMQWHINBPXRJ4QCSG7OV2V","url":"https://gershmanlab.com/experiments/alicia/teaching/experiment/?hitId=3ZG552ORAMQWHINBPXRJ4QCSG7OV2V&workerId=A1VFOKKVJ7B9D6&assignmentId=3WETL7AQWUU6QQ29E8SD8LJ88LF53S&a=QLEW7&tp_a=QLEW7&b=3WETL7AQWUU6QQ29E8SD8LJ88LF53S&tp_b=3WETL7AQWUU6QQ29E8SD8LJ88LF53S&c=365717&tp_c=365717","heads":6,"tails":1,"studentIndex":20,"studentTrueHypers":{"a":1,"b":4},"studentGuess":0.5833333333333334,"delta":0.21666666666666667,"totalExamples":7,"bonusSoFar":3.56},{"rt":6884,"response":{"heads":"5","tails":"1"},"type":"response","condition":"seqFeedback","trueTheta":0.8,"classrooms":["A","B"],"studentTrueClassroom":"A","exampleSet":"second","trial_type":"survey-html-form","trial_index":199,"time_elapsed":2167862,"internal_node_id":"0.0-168.0-0.0","params":{"nStudents":24,"maxFlips":30,"completionMinutes":45,"basePay":8,"maxBonus":9,"perTrialBonus":0.5,"perTrialBonusThreshold":0.05,"exampleCost":0.01},"classroomParams":{"A":{"a":1,"b":4},"B":{"a":4,"b":1},"C":{"a":2,"b":8},"D":{"a":8,"b":2}},"conditions":["nonSeqFull","nonSeqPartial","seqNoFeedback","seqFeedback"],"classroomPairings":[["A","B"],["C","D"]],"coinWeights":[0.2,0.5,0.8],"subjectId":"A1VFOKKVJ7B9D6","assignmentId":"3WETL7AQWUU6QQ29E8SD8LJ88LF53S","hitId":"3ZG552ORAMQWHINBPXRJ4QCSG7OV2V","url":"https://gershmanlab.com/experiments/alicia/teaching/experiment/?hitId=3ZG552ORAMQWHINBPXRJ4QCSG7OV2V&workerId=A1VFOKKVJ7B9D6&assignmentId=3WETL7AQWUU6QQ29E8SD8LJ88LF53S&a=QLEW7&tp_a=QLEW7&b=3WETL7AQWUU6QQ29E8SD8LJ88LF53S&tp_b=3WETL7AQWUU6QQ29E8SD8LJ88LF53S&c=365717&tp_c=365717","firstResponseHeads":6,"firstResponseTails":1,"secondResponseHeads":5,"secondResponseTails":1,"totalHeads":11,"totalTails":2,"studentIndex":20,"studentTrueHypers":{"a":1,"b":4},"studentGuess":0.6666666666666666,"delta":0.13333333333333341,"bonus":0,"bonusSoFar":3.56,"totalExamples":13},{"rt":11696,"response":{"heads":"1","tails":"10"},"type":"response","condition":"nonSeqFull","trueTheta":0.2,"classrooms":["C","D"],"studentTrueClassroom":"D","exampleSet":"first","trial_type":"survey-html-form","trial_index":205,"time_elapsed":2192452,"internal_node_id":"0.0-174.0-0.0","params":{"nStudents":24,"maxFlips":30,"completionMinutes":45,"basePay":8,"maxBonus":9,"perTrialBonus":0.5,"perTrialBonusThreshold":0.05,"exampleCost":0.01},"classroomParams":{"A":{"a":1,"b":4},"B":{"a":4,"b":1},"C":{"a":2,"b":8},"D":{"a":8,"b":2}},"conditions":["nonSeqFull","nonSeqPartial","seqNoFeedback","seqFeedback"],"classroomPairings":[["A","B"],["C","D"]],"coinWeights":[0.2,0.5,0.8],"subjectId":"A1VFOKKVJ7B9D6","assignmentId":"3WETL7AQWUU6QQ29E8SD8LJ88LF53S","hitId":"3ZG552ORAMQWHINBPXRJ4QCSG7OV2V","url":"https://gershmanlab.com/experiments/alicia/teaching/experiment/?hitId=3ZG552ORAMQWHINBPXRJ4QCSG7OV2V&workerId=A1VFOKKVJ7B9D6&assignmentId=3WETL7AQWUU6QQ29E8SD8LJ88LF53S&a=QLEW7&tp_a=QLEW7&b=3WETL7AQWUU6QQ29E8SD8LJ88LF53S&tp_b=3WETL7AQWUU6QQ29E8SD8LJ88LF53S&c=365717&tp_c=365717","heads":1,"tails":10,"studentIndex":21,"studentTrueHypers":{"a":8,"b":2},"studentGuess":0.42857142857142855,"delta":0.22857142857142854,"totalExamples":11,"bonus":0,"bonusSoFar":3.56},{"rt":7865,"response":{"heads":"2","tails":"8"},"type":"response","condition":"nonSeqFull","trueTheta":0.5,"classrooms":["C","D"],"studentTrueClassroom":"D","exampleSet":"first","trial_type":"survey-html-form","trial_index":211,"time_elapsed":2211513,"internal_node_id":"0.0-180.0-0.0","params":{"nStudents":24,"maxFlips":30,"completionMinutes":45,"basePay":8,"maxBonus":9,"perTrialBonus":0.5,"perTrialBonusThreshold":0.05,"exampleCost":0.01},"classroomParams":{"A":{"a":1,"b":4},"B":{"a":4,"b":1},"C":{"a":2,"b":8},"D":{"a":8,"b":2}},"conditions":["nonSeqFull","nonSeqPartial","seqNoFeedback","seqFeedback"],"classroomPairings":[["A","B"],["C","D"]],"coinWeights":[0.2,0.5,0.8],"subjectId":"A1VFOKKVJ7B9D6","assignmentId":"3WETL7AQWUU6QQ29E8SD8LJ88LF53S","hitId":"3ZG552ORAMQWHINBPXRJ4QCSG7OV2V","url":"https://gershmanlab.com/experiments/alicia/teaching/experiment/?hitId=3ZG552ORAMQWHINBPXRJ4QCSG7OV2V&workerId=A1VFOKKVJ7B9D6&assignmentId=3WETL7AQWUU6QQ29E8SD8LJ88LF53S&a=QLEW7&tp_a=QLEW7&b=3WETL7AQWUU6QQ29E8SD8LJ88LF53S&tp_b=3WETL7AQWUU6QQ29E8SD8LJ88LF53S&c=365717&tp_c=365717","heads":2,"tails":8,"studentIndex":22,"studentTrueHypers":{"a":8,"b":2},"studentGuess":0.5,"delta":0,"totalExamples":10,"bonus":0.4,"bonusSoFar":3.96},{"rt":14289,"response":{"heads":"1","tails":"5"},"type":"response","condition":"nonSeqPartial","trueTheta":0.2,"classrooms":["C","D"],"studentTrueClassroom":"D","exampleSet":"first","trial_type":"survey-html-form","trial_index":217,"time_elapsed":2239433,"internal_node_id":"0.0-186.0-0.0","params":{"nStudents":24,"maxFlips":30,"completionMinutes":45,"basePay":8,"maxBonus":9,"perTrialBonus":0.5,"perTrialBonusThreshold":0.05,"exampleCost":0.01},"classroomParams":{"A":{"a":1,"b":4},"B":{"a":4,"b":1},"C":{"a":2,"b":8},"D":{"a":8,"b":2}},"conditions":["nonSeqFull","nonSeqPartial","seqNoFeedback","seqFeedback"],"classroomPairings":[["A","B"],["C","D"]],"coinWeights":[0.2,0.5,0.8],"subjectId":"A1VFOKKVJ7B9D6","assignmentId":"3WETL7AQWUU6QQ29E8SD8LJ88LF53S","hitId":"3ZG552ORAMQWHINBPXRJ4QCSG7OV2V","url":"https://gershmanlab.com/experiments/alicia/teaching/experiment/?hitId=3ZG552ORAMQWHINBPXRJ4QCSG7OV2V&workerId=A1VFOKKVJ7B9D6&assignmentId=3WETL7AQWUU6QQ29E8SD8LJ88LF53S&a=QLEW7&tp_a=QLEW7&b=3WETL7AQWUU6QQ29E8SD8LJ88LF53S&tp_b=3WETL7AQWUU6QQ29E8SD8LJ88LF53S&c=365717&tp_c=365717","heads":1,"tails":5,"studentIndex":23,"studentTrueHypers":{"a":8,"b":2},"studentGuess":0.5625,"delta":0.3625,"totalExamples":6,"bonus":0,"bonusSoFar":3.96},{"rt":8964,"response":{"gender":"female","age":"46","understood":"yes","comments":""},"type":"response","trial_type":"survey-html-form","trial_index":221,"time_elapsed":2256704,"internal_node_id":"0.0-191.0","params":{"nStudents":24,"maxFlips":30,"completionMinutes":45,"basePay":8,"maxBonus":9,"perTrialBonus":0.5,"perTrialBonusThreshold":0.05,"exampleCost":0.01},"classroomParams":{"A":{"a":1,"b":4},"B":{"a":4,"b":1},"C":{"a":2,"b":8},"D":{"a":8,"b":2}},"conditions":["nonSeqFull","nonSeqPartial","seqNoFeedback","seqFeedback"],"classroomPairings":[["A","B"],["C","D"]],"coinWeights":[0.2,0.5,0.8],"subjectId":"A1VFOKKVJ7B9D6","assignmentId":"3WETL7AQWUU6QQ29E8SD8LJ88LF53S","hitId":"3ZG552ORAMQWHINBPXRJ4QCSG7OV2V","url":"https://gershmanlab.com/experiments/alicia/teaching/experiment/?hitId=3ZG552ORAMQWHINBPXRJ4QCSG7OV2V&workerId=A1VFOKKVJ7B9D6&assignmentId=3WETL7AQWUU6QQ29E8SD8LJ88LF53S&a=QLEW7&tp_a=QLEW7&b=3WETL7AQWUU6QQ29E8SD8LJ88LF53S&tp_b=3WETL7AQWUU6QQ29E8SD8LJ88LF53S&c=365717&tp_c=365717","totalBonus":3.96}]