[{"rt":57254,"response":{"heads":"1","tails":"2"},"type":"response","condition":"nonSeqPartial","trueTheta":0.2,"classrooms":["A","B"],"studentTrueClassroom":"B","exampleSet":"first","trial_type":"survey-html-form","trial_index":13,"time_elapsed":933584,"internal_node_id":"0.0-6.0-0.0","params":{"nStudents":24,"maxFlips":30,"completionMinutes":45,"basePay":8,"maxBonus":9,"perTrialBonus":0.5,"perTrialBonusThreshold":0.05,"exampleCost":0.01},"classroomParams":{"A":{"a":1,"b":4},"B":{"a":4,"b":1},"C":{"a":2,"b":8},"D":{"a":8,"b":2}},"conditions":["nonSeqFull","nonSeqPartial","seqNoFeedback","seqFeedback"],"classroomPairings":[["A","B"],["C","D"]],"coinWeights":[0.2,0.5,0.8],"subjectId":"A1W7I6FN183I8F","assignmentId":"39LOEL67OTRPD8LBC6ZGK5TZADV83G","hitId":"3E9VAUV7BW02QFDK7N7IH7ZKACRYAN","url":"https://gershmanlab.com/experiments/alicia/teaching/experiment/?hitId=3E9VAUV7BW02QFDK7N7IH7ZKACRYAN&workerId=A1W7I6FN183I8F&assignmentId=39LOEL67OTRPD8LBC6ZGK5TZADV83G&a=7EL99&tp_a=7EL99&b=39LOEL67OTRPD8LBC6ZGK5TZADV83G&tp_b=39LOEL67OTRPD8LBC6ZGK5TZADV83G&c=365799&tp_c=365799","heads":1,"tails":2,"studentIndex":0,"studentTrueHypers":{"a":4,"b":1},"studentGuess":0.625,"delta":0.425,"totalExamples":3,"bonus":0,"bonusSoFar":0},{"rt":8224,"response":{"heads":"10","tails":"1"},"type":"response","condition":"seqNoFeedback","trueTheta":0.8,"classrooms":["C","D"],"studentTrueClassroom":"C","exampleSet":"first","trial_type":"survey-html-form","trial_index":19,"time_elapsed":957918,"internal_node_id":"0.0-12.0-0.0","params":{"nStudents":24,"maxFlips":30,"completionMinutes":45,"basePay":8,"maxBonus":9,"perTrialBonus":0.5,"perTrialBonusThreshold":0.05,"exampleCost":0.01},"classroomParams":{"A":{"a":1,"b":4},"B":{"a":4,"b":1},"C":{"a":2,"b":8},"D":{"a":8,"b":2}},"conditions":["nonSeqFull","nonSeqPartial","seqNoFeedback","seqFeedback"],"classroomPairings":[["A","B"],["C","D"]],"coinWeights":[0.2,0.5,0.8],"subjectId":"A1W7I6FN183I8F","assignmentId":"39LOEL67OTRPD8LBC6ZGK5TZADV83G","hitId":"3E9VAUV7BW02QFDK7N7IH7ZKACRYAN","url":"https://gershmanlab.com/experiments/alicia/teaching/experiment/?hitId=3E9VAUV7BW02QFDK7N7IH7ZKACRYAN&workerId=A1W7I6FN183I8F&assignmentId=39LOEL67OTRPD8LBC6ZGK5TZADV83G&a=7EL99&tp_a=7EL99&b=39LOEL67OTRPD8LBC6ZGK5TZADV83G&tp_b=39LOEL67OTRPD8LBC6ZGK5TZADV83G&c=365799&tp_c=365799","heads":10,"tails":1,"studentIndex":1,"studentTrueHypers":{"a":2,"b":8},"studentGuess":0.5714285714285714,"delta":0.22857142857142865,"totalExamples":11,"bonusSoFar":0},{"rt":13796,"response":{"heads":"10","tails":"1"},"type":"response","condition":"seqNoFeedback","trueTheta":0.8,"classrooms":["C","D"],"studentTrueClassroom":"C","exampleSet":"second","trial_type":"survey-html-form","trial_index":22,"time_elapsed":977237,"internal_node_id":"0.0-15.0-0.0","params":{"nStudents":24,"maxFlips":30,"completionMinutes":45,"basePay":8,"maxBonus":9,"perTrialBonus":0.5,"perTrialBonusThreshold":0.05,"exampleCost":0.01},"classroomParams":{"A":{"a":1,"b":4},"B":{"a":4,"b":1},"C":{"a":2,"b":8},"D":{"a":8,"b":2}},"conditions":["nonSeqFull","nonSeqPartial","seqNoFeedback","seqFeedback"],"classroomPairings":[["A","B"],["C","D"]],"coinWeights":[0.2,0.5,0.8],"subjectId":"A1W7I6FN183I8F","assignmentId":"39LOEL67OTRPD8LBC6ZGK5TZADV83G","hitId":"3E9VAUV7BW02QFDK7N7IH7ZKACRYAN","url":"https://gershmanlab.com/experiments/alicia/teaching/experiment/?hitId=3E9VAUV7BW02QFDK7N7IH7ZKACRYAN&workerId=A1W7I6FN183I8F&assignmentId=39LOEL67OTRPD8LBC6ZGK5TZADV83G&a=7EL99&tp_a=7EL99&b=39LOEL67OTRPD8LBC6ZGK5TZADV83G&tp_b=39LOEL67OTRPD8LBC6ZGK5TZADV83G&c=365799&tp_c=365799","firstResponseHeads":10,"firstResponseTails":1,"secondResponseHeads":10,"secondResponseTails":1,"totalHeads":20,"totalTails":2,"studentIndex":1,"studentTrueHypers":{"a":2,"b":8},"studentGuess":0.6875,"delta":0.11250000000000004,"bonus":0,"bonusSoFar":0,"totalExamples":22},{"rt":10006,"response":{"heads":"15","tails":"15"},"type":"response","condition":"seqFeedback","trueTheta":0.5,"classrooms":["A","B"],"studentTrueClassroom":"A","exampleSet":"first","trial_type":"survey-html-form","trial_index":28,"time_elapsed":1002078,"internal_node_id":"0.0-21.0-0.0","params":{"nStudents":24,"maxFlips":30,"completionMinutes":45,"basePay":8,"maxBonus":9,"perTrialBonus":0.5,"perTrialBonusThreshold":0.05,"exampleCost":0.01},"classroomParams":{"A":{"a":1,"b":4},"B":{"a":4,"b":1},"C":{"a":2,"b":8},"D":{"a":8,"b":2}},"conditions":["nonSeqFull","nonSeqPartial","seqNoFeedback","seqFeedback"],"classroomPairings":[["A","B"],["C","D"]],"coinWeights":[0.2,0.5,0.8],"subjectId":"A1W7I6FN183I8F","assignmentId":"39LOEL67OTRPD8LBC6ZGK5TZADV83G","hitId":"3E9VAUV7BW02QFDK7N7IH7ZKACRYAN","url":"https://gershmanlab.com/experiments/alicia/teaching/experiment/?hitId=3E9VAUV7BW02QFDK7N7IH7ZKACRYAN&workerId=A1W7I6FN183I8F&assignmentId=39LOEL67OTRPD8LBC6ZGK5TZADV83G&a=7EL99&tp_a=7EL99&b=39LOEL67OTRPD8LBC6ZGK5TZADV83G&tp_b=39LOEL67OTRPD8LBC6ZGK5TZADV83G&c=365799&tp_c=365799","heads":15,"tails":15,"studentIndex":2,"studentTrueHypers":{"a":1,"b":4},"studentGuess":0.45714285714285713,"delta":0.04285714285714287,"totalExamples":30,"bonusSoFar":0},{"rt":8734,"response":{"heads":"15","tails":"15"},"type":"response","condition":"seqFeedback","trueTheta":0.5,"classrooms":["A","B"],"studentTrueClassroom":"A","exampleSet":"second","trial_type":"survey-html-form","trial_index":32,"time_elapsed":1024309,"internal_node_id":"0.0-25.0-0.0","params":{"nStudents":24,"maxFlips":30,"completionMinutes":45,"basePay":8,"maxBonus":9,"perTrialBonus":0.5,"perTrialBonusThreshold":0.05,"exampleCost":0.01},"classroomParams":{"A":{"a":1,"b":4},"B":{"a":4,"b":1},"C":{"a":2,"b":8},"D":{"a":8,"b":2}},"conditions":["nonSeqFull","nonSeqPartial","seqNoFeedback","seqFeedback"],"classroomPairings":[["A","B"],["C","D"]],"coinWeights":[0.2,0.5,0.8],"subjectId":"A1W7I6FN183I8F","assignmentId":"39LOEL67OTRPD8LBC6ZGK5TZADV83G","hitId":"3E9VAUV7BW02QFDK7N7IH7ZKACRYAN","url":"https://gershmanlab.com/experiments/alicia/teaching/experiment/?hitId=3E9VAUV7BW02QFDK7N7IH7ZKACRYAN&workerId=A1W7I6FN183I8F&assignmentId=39LOEL67OTRPD8LBC6ZGK5TZADV83G&a=7EL99&tp_a=7EL99&b=39LOEL67OTRPD8LBC6ZGK5TZADV83G&tp_b=39LOEL67OTRPD8LBC6ZGK5TZADV83G&c=365799&tp_c=365799","firstResponseHeads":15,"firstResponseTails":15,"secondResponseHeads":15,"secondResponseTails":15,"totalHeads":30,"totalTails":30,"studentIndex":2,"studentTrueHypers":{"a":1,"b":4},"studentGuess":0.47692307692307695,"delta":0.02307692307692305,"bonus":0,"bonusSoFar":0,"totalExamples":60},{"rt":729,"response":{"heads":"0","tails":"0"},"type":"response","condition":"nonSeqPartial","trueTheta":0.8,"classrooms":["C","D"],"studentTrueClassroom":"D","exampleSet":"first","trial_type":"survey-html-form","trial_index":38,"time_elapsed":1038079,"internal_node_id":"0.0-31.0-0.0","params":{"nStudents":24,"maxFlips":30,"completionMinutes":45,"basePay":8,"maxBonus":9,"perTrialBonus":0.5,"perTrialBonusThreshold":0.05,"exampleCost":0.01},"classroomParams":{"A":{"a":1,"b":4},"B":{"a":4,"b":1},"C":{"a":2,"b":8},"D":{"a":8,"b":2}},"conditions":["nonSeqFull","nonSeqPartial","seqNoFeedback","seqFeedback"],"classroomPairings":[["A","B"],["C","D"]],"coinWeights":[0.2,0.5,0.8],"subjectId":"A1W7I6FN183I8F","assignmentId":"39LOEL67OTRPD8LBC6ZGK5TZADV83G","hitId":"3E9VAUV7BW02QFDK7N7IH7ZKACRYAN","url":"https://gershmanlab.com/experiments/alicia/teaching/experiment/?hitId=3E9VAUV7BW02QFDK7N7IH7ZKACRYAN&workerId=A1W7I6FN183I8F&assignmentId=39LOEL67OTRPD8LBC6ZGK5TZADV83G&a=7EL99&tp_a=7EL99&b=39LOEL67OTRPD8LBC6ZGK5TZADV83G&tp_b=39LOEL67OTRPD8LBC6ZGK5TZADV83G&c=365799&tp_c=365799","heads":0,"tails":0,"studentIndex":3,"studentTrueHypers":{"a":8,"b":2},"studentGuess":0.8,"delta":0,"totalExamples":0,"bonus":0.5,"bonusSoFar":0.5},{"rt":3852,"response":{"heads":"1","tails":"0"},"type":"response","condition":"nonSeqPartial","trueTheta":0.8,"classrooms":["C","D"],"studentTrueClassroom":"D","exampleSet":"first","trial_type":"survey-html-form","trial_index":39,"time_elapsed":1041933,"internal_node_id":"0.0-31.1-0.1","params":{"nStudents":24,"maxFlips":30,"completionMinutes":45,"basePay":8,"maxBonus":9,"perTrialBonus":0.5,"perTrialBonusThreshold":0.05,"exampleCost":0.01},"classroomParams":{"A":{"a":1,"b":4},"B":{"a":4,"b":1},"C":{"a":2,"b":8},"D":{"a":8,"b":2}},"conditions":["nonSeqFull","nonSeqPartial","seqNoFeedback","seqFeedback"],"classroomPairings":[["A","B"],["C","D"]],"coinWeights":[0.2,0.5,0.8],"subjectId":"A1W7I6FN183I8F","assignmentId":"39LOEL67OTRPD8LBC6ZGK5TZADV83G","hitId":"3E9VAUV7BW02QFDK7N7IH7ZKACRYAN","url":"https://gershmanlab.com/experiments/alicia/teaching/experiment/?hitId=3E9VAUV7BW02QFDK7N7IH7ZKACRYAN&workerId=A1W7I6FN183I8F&assignmentId=39LOEL67OTRPD8LBC6ZGK5TZADV83G&a=7EL99&tp_a=7EL99&b=39LOEL67OTRPD8LBC6ZGK5TZADV83G&tp_b=39LOEL67OTRPD8LBC6ZGK5TZADV83G&c=365799&tp_c=365799","heads":1,"tails":0,"studentIndex":3,"studentTrueHypers":{"a":8,"b":2},"studentGuess":0.8181818181818182,"delta":0.018181818181818188,"totalExamples":1,"bonus":0.49,"bonusSoFar":0.99},{"rt":1669,"response":{"heads":"0","tails":"1"},"type":"response","condition":"nonSeqFull","trueTheta":0.2,"classrooms":["C","D"],"studentTrueClassroom":"D","exampleSet":"first","trial_type":"survey-html-form","trial_index":45,"time_elapsed":1058693,"internal_node_id":"0.0-37.0-0.0","params":{"nStudents":24,"maxFlips":30,"completionMinutes":45,"basePay":8,"maxBonus":9,"perTrialBonus":0.5,"perTrialBonusThreshold":0.05,"exampleCost":0.01},"classroomParams":{"A":{"a":1,"b":4},"B":{"a":4,"b":1},"C":{"a":2,"b":8},"D":{"a":8,"b":2}},"conditions":["nonSeqFull","nonSeqPartial","seqNoFeedback","seqFeedback"],"classroomPairings":[["A","B"],["C","D"]],"coinWeights":[0.2,0.5,0.8],"subjectId":"A1W7I6FN183I8F","assignmentId":"39LOEL67OTRPD8LBC6ZGK5TZADV83G","hitId":"3E9VAUV7BW02QFDK7N7IH7ZKACRYAN","url":"https://gershmanlab.com/experiments/alicia/teaching/experiment/?hitId=3E9VAUV7BW02QFDK7N7IH7ZKACRYAN&workerId=A1W7I6FN183I8F&assignmentId=39LOEL67OTRPD8LBC6ZGK5TZADV83G&a=7EL99&tp_a=7EL99&b=39LOEL67OTRPD8LBC6ZGK5TZADV83G&tp_b=39LOEL67OTRPD8LBC6ZGK5TZADV83G&c=365799&tp_c=365799","heads":0,"tails":1,"studentIndex":4,"studentTrueHypers":{"a":8,"b":2},"studentGuess":0.7272727272727273,"delta":0.5272727272727273,"totalExamples":1,"bonus":0,"bonusSoFar":0.99},{"rt":2103,"response":{"heads":"1","tails":"1"},"type":"response","condition":"nonSeqFull","trueTheta":0.5,"classrooms":["A","B"],"studentTrueClassroom":"B","exampleSet":"first","trial_type":"survey-html-form","trial_index":51,"time_elapsed":1073590,"internal_node_id":"0.0-43.0-0.0","params":{"nStudents":24,"maxFlips":30,"completionMinutes":45,"basePay":8,"maxBonus":9,"perTrialBonus":0.5,"perTrialBonusThreshold":0.05,"exampleCost":0.01},"classroomParams":{"A":{"a":1,"b":4},"B":{"a":4,"b":1},"C":{"a":2,"b":8},"D":{"a":8,"b":2}},"conditions":["nonSeqFull","nonSeqPartial","seqNoFeedback","seqFeedback"],"classroomPairings":[["A","B"],["C","D"]],"coinWeights":[0.2,0.5,0.8],"subjectId":"A1W7I6FN183I8F","assignmentId":"39LOEL67OTRPD8LBC6ZGK5TZADV83G","hitId":"3E9VAUV7BW02QFDK7N7IH7ZKACRYAN","url":"https://gershmanlab.com/experiments/alicia/teaching/experiment/?hitId=3E9VAUV7BW02QFDK7N7IH7ZKACRYAN&workerId=A1W7I6FN183I8F&assignmentId=39LOEL67OTRPD8LBC6ZGK5TZADV83G&a=7EL99&tp_a=7EL99&b=39LOEL67OTRPD8LBC6ZGK5TZADV83G&tp_b=39LOEL67OTRPD8LBC6ZGK5TZADV83G&c=365799&tp_c=365799","heads":1,"tails":1,"studentIndex":5,"studentTrueHypers":{"a":4,"b":1},"studentGuess":0.7142857142857143,"delta":0.2142857142857143,"totalExamples":2,"bonus":0,"bonusSoFar":0.99},{"rt":1397,"response":{"heads":"1","tails":"0"},"type":"response","condition":"nonSeqFull","trueTheta":0.8,"classrooms":["C","D"],"studentTrueClassroom":"D","exampleSet":"first","trial_type":"survey-html-form","trial_index":57,"time_elapsed":1090757,"internal_node_id":"0.0-49.0-0.0","params":{"nStudents":24,"maxFlips":30,"completionMinutes":45,"basePay":8,"maxBonus":9,"perTrialBonus":0.5,"perTrialBonusThreshold":0.05,"exampleCost":0.01},"classroomParams":{"A":{"a":1,"b":4},"B":{"a":4,"b":1},"C":{"a":2,"b":8},"D":{"a":8,"b":2}},"conditions":["nonSeqFull","nonSeqPartial","seqNoFeedback","seqFeedback"],"classroomPairings":[["A","B"],["C","D"]],"coinWeights":[0.2,0.5,0.8],"subjectId":"A1W7I6FN183I8F","assignmentId":"39LOEL67OTRPD8LBC6ZGK5TZADV83G","hitId":"3E9VAUV7BW02QFDK7N7IH7ZKACRYAN","url":"https://gershmanlab.com/experiments/alicia/teaching/experiment/?hitId=3E9VAUV7BW02QFDK7N7IH7ZKACRYAN&workerId=A1W7I6FN183I8F&assignmentId=39LOEL67OTRPD8LBC6ZGK5TZADV83G&a=7EL99&tp_a=7EL99&b=39LOEL67OTRPD8LBC6ZGK5TZADV83G&tp_b=39LOEL67OTRPD8LBC6ZGK5TZADV83G&c=365799&tp_c=365799","heads":1,"tails":0,"studentIndex":6,"studentTrueHypers":{"a":8,"b":2},"studentGuess":0.8181818181818182,"delta":0.018181818181818188,"totalExamples":1,"bonus":0.49,"bonusSoFar":1.48},{"rt":1928,"response":{"heads":"0","tails":"1"},"type":"response","condition":"seqNoFeedback","trueTheta":0.2,"classrooms":["C","D"],"studentTrueClassroom":"D","exampleSet":"first","trial_type":"survey-html-form","trial_index":63,"time_elapsed":1104420,"internal_node_id":"0.0-55.0-0.0","params":{"nStudents":24,"maxFlips":30,"completionMinutes":45,"basePay":8,"maxBonus":9,"perTrialBonus":0.5,"perTrialBonusThreshold":0.05,"exampleCost":0.01},"classroomParams":{"A":{"a":1,"b":4},"B":{"a":4,"b":1},"C":{"a":2,"b":8},"D":{"a":8,"b":2}},"conditions":["nonSeqFull","nonSeqPartial","seqNoFeedback","seqFeedback"],"classroomPairings":[["A","B"],["C","D"]],"coinWeights":[0.2,0.5,0.8],"subjectId":"A1W7I6FN183I8F","assignmentId":"39LOEL67OTRPD8LBC6ZGK5TZADV83G","hitId":"3E9VAUV7BW02QFDK7N7IH7ZKACRYAN","url":"https://gershmanlab.com/experiments/alicia/teaching/experiment/?hitId=3E9VAUV7BW02QFDK7N7IH7ZKACRYAN&workerId=A1W7I6FN183I8F&assignmentId=39LOEL67OTRPD8LBC6ZGK5TZADV83G&a=7EL99&tp_a=7EL99&b=39LOEL67OTRPD8LBC6ZGK5TZADV83G&tp_b=39LOEL67OTRPD8LBC6ZGK5TZADV83G&c=365799&tp_c=365799","heads":0,"tails":1,"studentIndex":7,"studentTrueHypers":{"a":8,"b":2},"studentGuess":0.7272727272727273,"delta":0.5272727272727273,"totalExamples":1,"bonusSoFar":1.48},{"rt":4785,"response":{"heads":"0","tails":"1"},"type":"response","condition":"seqNoFeedback","trueTheta":0.2,"classrooms":["C","D"],"studentTrueClassroom":"D","exampleSet":"second","trial_type":"survey-html-form","trial_index":66,"time_elapsed":1114716,"internal_node_id":"0.0-58.0-0.0","params":{"nStudents":24,"maxFlips":30,"completionMinutes":45,"basePay":8,"maxBonus":9,"perTrialBonus":0.5,"perTrialBonusThreshold":0.05,"exampleCost":0.01},"classroomParams":{"A":{"a":1,"b":4},"B":{"a":4,"b":1},"C":{"a":2,"b":8},"D":{"a":8,"b":2}},"conditions":["nonSeqFull","nonSeqPartial","seqNoFeedback","seqFeedback"],"classroomPairings":[["A","B"],["C","D"]],"coinWeights":[0.2,0.5,0.8],"subjectId":"A1W7I6FN183I8F","assignmentId":"39LOEL67OTRPD8LBC6ZGK5TZADV83G","hitId":"3E9VAUV7BW02QFDK7N7IH7ZKACRYAN","url":"https://gershmanlab.com/experiments/alicia/teaching/experiment/?hitId=3E9VAUV7BW02QFDK7N7IH7ZKACRYAN&workerId=A1W7I6FN183I8F&assignmentId=39LOEL67OTRPD8LBC6ZGK5TZADV83G&a=7EL99&tp_a=7EL99&b=39LOEL67OTRPD8LBC6ZGK5TZADV83G&tp_b=39LOEL67OTRPD8LBC6ZGK5TZADV83G&c=365799&tp_c=365799","firstResponseHeads":0,"firstResponseTails":1,"secondResponseHeads":0,"secondResponseTails":1,"totalHeads":0,"totalTails":2,"studentIndex":7,"studentTrueHypers":{"a":8,"b":2},"studentGuess":0.6666666666666666,"delta":0.4666666666666666,"bonus":0,"bonusSoFar":1.48,"totalExamples":2},{"rt":3431,"response":{"heads":"1","tails":"1"},"type":"response","condition":"nonSeqPartial","trueTheta":0.5,"classrooms":["C","D"],"studentTrueClassroom":"D","exampleSet":"first","trial_type":"survey-html-form","trial_index":72,"time_elapsed":1131614,"internal_node_id":"0.0-64.0-0.0","params":{"nStudents":24,"maxFlips":30,"completionMinutes":45,"basePay":8,"maxBonus":9,"perTrialBonus":0.5,"perTrialBonusThreshold":0.05,"exampleCost":0.01},"classroomParams":{"A":{"a":1,"b":4},"B":{"a":4,"b":1},"C":{"a":2,"b":8},"D":{"a":8,"b":2}},"conditions":["nonSeqFull","nonSeqPartial","seqNoFeedback","seqFeedback"],"classroomPairings":[["A","B"],["C","D"]],"coinWeights":[0.2,0.5,0.8],"subjectId":"A1W7I6FN183I8F","assignmentId":"39LOEL67OTRPD8LBC6ZGK5TZADV83G","hitId":"3E9VAUV7BW02QFDK7N7IH7ZKACRYAN","url":"https://gershmanlab.com/experiments/alicia/teaching/experiment/?hitId=3E9VAUV7BW02QFDK7N7IH7ZKACRYAN&workerId=A1W7I6FN183I8F&assignmentId=39LOEL67OTRPD8LBC6ZGK5TZADV83G&a=7EL99&tp_a=7EL99&b=39LOEL67OTRPD8LBC6ZGK5TZADV83G&tp_b=39LOEL67OTRPD8LBC6ZGK5TZADV83G&c=365799&tp_c=365799","heads":1,"tails":1,"studentIndex":8,"studentTrueHypers":{"a":8,"b":2},"studentGuess":0.75,"delta":0.25,"totalExamples":2,"bonus":0,"bonusSoFar":1.48},{"rt":5286,"response":{"heads":"1","tails":"0"},"type":"response","condition":"nonSeqFull","trueTheta":0.8,"classrooms":["A","B"],"studentTrueClassroom":"B","exampleSet":"first","trial_type":"survey-html-form","trial_index":78,"time_elapsed":1155773,"internal_node_id":"0.0-70.0-0.0","params":{"nStudents":24,"maxFlips":30,"completionMinutes":45,"basePay":8,"maxBonus":9,"perTrialBonus":0.5,"perTrialBonusThreshold":0.05,"exampleCost":0.01},"classroomParams":{"A":{"a":1,"b":4},"B":{"a":4,"b":1},"C":{"a":2,"b":8},"D":{"a":8,"b":2}},"conditions":["nonSeqFull","nonSeqPartial","seqNoFeedback","seqFeedback"],"classroomPairings":[["A","B"],["C","D"]],"coinWeights":[0.2,0.5,0.8],"subjectId":"A1W7I6FN183I8F","assignmentId":"39LOEL67OTRPD8LBC6ZGK5TZADV83G","hitId":"3E9VAUV7BW02QFDK7N7IH7ZKACRYAN","url":"https://gershmanlab.com/experiments/alicia/teaching/experiment/?hitId=3E9VAUV7BW02QFDK7N7IH7ZKACRYAN&workerId=A1W7I6FN183I8F&assignmentId=39LOEL67OTRPD8LBC6ZGK5TZADV83G&a=7EL99&tp_a=7EL99&b=39LOEL67OTRPD8LBC6ZGK5TZADV83G&tp_b=39LOEL67OTRPD8LBC6ZGK5TZADV83G&c=365799&tp_c=365799","heads":1,"tails":0,"studentIndex":9,"studentTrueHypers":{"a":4,"b":1},"studentGuess":0.8333333333333334,"delta":0.033333333333333326,"totalExamples":1,"bonus":0.49,"bonusSoFar":1.97},{"rt":10630,"response":{"heads":"6","tails":"0"},"type":"response","condition":"seqFeedback","trueTheta":0.8,"classrooms":["A","B"],"studentTrueClassroom":"A","exampleSet":"first","trial_type":"survey-html-form","trial_index":84,"time_elapsed":1184701,"internal_node_id":"0.0-76.0-0.0","params":{"nStudents":24,"maxFlips":30,"completionMinutes":45,"basePay":8,"maxBonus":9,"perTrialBonus":0.5,"perTrialBonusThreshold":0.05,"exampleCost":0.01},"classroomParams":{"A":{"a":1,"b":4},"B":{"a":4,"b":1},"C":{"a":2,"b":8},"D":{"a":8,"b":2}},"conditions":["nonSeqFull","nonSeqPartial","seqNoFeedback","seqFeedback"],"classroomPairings":[["A","B"],["C","D"]],"coinWeights":[0.2,0.5,0.8],"subjectId":"A1W7I6FN183I8F","assignmentId":"39LOEL67OTRPD8LBC6ZGK5TZADV83G","hitId":"3E9VAUV7BW02QFDK7N7IH7ZKACRYAN","url":"https://gershmanlab.com/experiments/alicia/teaching/experiment/?hitId=3E9VAUV7BW02QFDK7N7IH7ZKACRYAN&workerId=A1W7I6FN183I8F&assignmentId=39LOEL67OTRPD8LBC6ZGK5TZADV83G&a=7EL99&tp_a=7EL99&b=39LOEL67OTRPD8LBC6ZGK5TZADV83G&tp_b=39LOEL67OTRPD8LBC6ZGK5TZADV83G&c=365799&tp_c=365799","heads":6,"tails":0,"studentIndex":10,"studentTrueHypers":{"a":1,"b":4},"studentGuess":0.6363636363636364,"delta":0.1636363636363637,"totalExamples":6,"bonusSoFar":1.97},{"rt":3435,"response":{"heads":"4","tails":"0"},"type":"response","condition":"seqFeedback","trueTheta":0.8,"classrooms":["A","B"],"studentTrueClassroom":"A","exampleSet":"second","trial_type":"survey-html-form","trial_index":88,"time_elapsed":1198828,"internal_node_id":"0.0-80.0-0.0","params":{"nStudents":24,"maxFlips":30,"completionMinutes":45,"basePay":8,"maxBonus":9,"perTrialBonus":0.5,"perTrialBonusThreshold":0.05,"exampleCost":0.01},"classroomParams":{"A":{"a":1,"b":4},"B":{"a":4,"b":1},"C":{"a":2,"b":8},"D":{"a":8,"b":2}},"conditions":["nonSeqFull","nonSeqPartial","seqNoFeedback","seqFeedback"],"classroomPairings":[["A","B"],["C","D"]],"coinWeights":[0.2,0.5,0.8],"subjectId":"A1W7I6FN183I8F","assignmentId":"39LOEL67OTRPD8LBC6ZGK5TZADV83G","hitId":"3E9VAUV7BW02QFDK7N7IH7ZKACRYAN","url":"https://gershmanlab.com/experiments/alicia/teaching/experiment/?hitId=3E9VAUV7BW02QFDK7N7IH7ZKACRYAN&workerId=A1W7I6FN183I8F&assignmentId=39LOEL67OTRPD8LBC6ZGK5TZADV83G&a=7EL99&tp_a=7EL99&b=39LOEL67OTRPD8LBC6ZGK5TZADV83G&tp_b=39LOEL67OTRPD8LBC6ZGK5TZADV83G&c=365799&tp_c=365799","firstResponseHeads":6,"firstResponseTails":0,"secondResponseHeads":4,"secondResponseTails":0,"totalHeads":10,"totalTails":0,"studentIndex":10,"studentTrueHypers":{"a":1,"b":4},"studentGuess":0.7333333333333333,"delta":0.06666666666666676,"bonus":0,"bonusSoFar":1.97,"totalExamples":10},{"rt":3095,"response":{"heads":"1","tails":"0"},"type":"response","condition":"seqNoFeedback","trueTheta":0.8,"classrooms":["A","B"],"studentTrueClassroom":"A","exampleSet":"first","trial_type":"survey-html-form","trial_index":94,"time_elapsed":1218079,"internal_node_id":"0.0-86.0-0.0","params":{"nStudents":24,"maxFlips":30,"completionMinutes":45,"basePay":8,"maxBonus":9,"perTrialBonus":0.5,"perTrialBonusThreshold":0.05,"exampleCost":0.01},"classroomParams":{"A":{"a":1,"b":4},"B":{"a":4,"b":1},"C":{"a":2,"b":8},"D":{"a":8,"b":2}},"conditions":["nonSeqFull","nonSeqPartial","seqNoFeedback","seqFeedback"],"classroomPairings":[["A","B"],["C","D"]],"coinWeights":[0.2,0.5,0.8],"subjectId":"A1W7I6FN183I8F","assignmentId":"39LOEL67OTRPD8LBC6ZGK5TZADV83G","hitId":"3E9VAUV7BW02QFDK7N7IH7ZKACRYAN","url":"https://gershmanlab.com/experiments/alicia/teaching/experiment/?hitId=3E9VAUV7BW02QFDK7N7IH7ZKACRYAN&workerId=A1W7I6FN183I8F&assignmentId=39LOEL67OTRPD8LBC6ZGK5TZADV83G&a=7EL99&tp_a=7EL99&b=39LOEL67OTRPD8LBC6ZGK5TZADV83G&tp_b=39LOEL67OTRPD8LBC6ZGK5TZADV83G&c=365799&tp_c=365799","heads":1,"tails":0,"studentIndex":11,"studentTrueHypers":{"a":1,"b":4},"studentGuess":0.3333333333333333,"delta":0.46666666666666673,"totalExamples":1,"bonusSoFar":1.97},{"rt":6083,"response":{"heads":"1","tails":"0"},"type":"response","condition":"seqNoFeedback","trueTheta":0.8,"classrooms":["A","B"],"studentTrueClassroom":"A","exampleSet":"second","trial_type":"survey-html-form","trial_index":97,"time_elapsed":1231172,"internal_node_id":"0.0-89.0-0.0","params":{"nStudents":24,"maxFlips":30,"completionMinutes":45,"basePay":8,"maxBonus":9,"perTrialBonus":0.5,"perTrialBonusThreshold":0.05,"exampleCost":0.01},"classroomParams":{"A":{"a":1,"b":4},"B":{"a":4,"b":1},"C":{"a":2,"b":8},"D":{"a":8,"b":2}},"conditions":["nonSeqFull","nonSeqPartial","seqNoFeedback","seqFeedback"],"classroomPairings":[["A","B"],["C","D"]],"coinWeights":[0.2,0.5,0.8],"subjectId":"A1W7I6FN183I8F","assignmentId":"39LOEL67OTRPD8LBC6ZGK5TZADV83G","hitId":"3E9VAUV7BW02QFDK7N7IH7ZKACRYAN","url":"https://gershmanlab.com/experiments/alicia/teaching/experiment/?hitId=3E9VAUV7BW02QFDK7N7IH7ZKACRYAN&workerId=A1W7I6FN183I8F&assignmentId=39LOEL67OTRPD8LBC6ZGK5TZADV83G&a=7EL99&tp_a=7EL99&b=39LOEL67OTRPD8LBC6ZGK5TZADV83G&tp_b=39LOEL67OTRPD8LBC6ZGK5TZADV83G&c=365799&tp_c=365799","firstResponseHeads":1,"firstResponseTails":0,"secondResponseHeads":1,"secondResponseTails":0,"totalHeads":2,"totalTails":0,"studentIndex":11,"studentTrueHypers":{"a":1,"b":4},"studentGuess":0.42857142857142855,"delta":0.3714285714285715,"bonus":0,"bonusSoFar":1.97,"totalExamples":2},{"rt":1511,"response":{"heads":"0","tails":"1"},"type":"response","condition":"nonSeqFull","trueTheta":0.2,"classrooms":["A","B"],"studentTrueClassroom":"A","exampleSet":"first","trial_type":"survey-html-form","trial_index":103,"time_elapsed":1246028,"internal_node_id":"0.0-95.0-0.0","params":{"nStudents":24,"maxFlips":30,"completionMinutes":45,"basePay":8,"maxBonus":9,"perTrialBonus":0.5,"perTrialBonusThreshold":0.05,"exampleCost":0.01},"classroomParams":{"A":{"a":1,"b":4},"B":{"a":4,"b":1},"C":{"a":2,"b":8},"D":{"a":8,"b":2}},"conditions":["nonSeqFull","nonSeqPartial","seqNoFeedback","seqFeedback"],"classroomPairings":[["A","B"],["C","D"]],"coinWeights":[0.2,0.5,0.8],"subjectId":"A1W7I6FN183I8F","assignmentId":"39LOEL67OTRPD8LBC6ZGK5TZADV83G","hitId":"3E9VAUV7BW02QFDK7N7IH7ZKACRYAN","url":"https://gershmanlab.com/experiments/alicia/teaching/experiment/?hitId=3E9VAUV7BW02QFDK7N7IH7ZKACRYAN&workerId=A1W7I6FN183I8F&assignmentId=39LOEL67OTRPD8LBC6ZGK5TZADV83G&a=7EL99&tp_a=7EL99&b=39LOEL67OTRPD8LBC6ZGK5TZADV83G&tp_b=39LOEL67OTRPD8LBC6ZGK5TZADV83G&c=365799&tp_c=365799","heads":0,"tails":1,"studentIndex":12,"studentTrueHypers":{"a":1,"b":4},"studentGuess":0.16666666666666666,"delta":0.033333333333333354,"totalExamples":1,"bonus":0.49,"bonusSoFar":2.46},{"rt":3200,"response":{"heads":"1","tails":"0"},"type":"response","condition":"seqFeedback","trueTheta":0.8,"classrooms":["C","D"],"studentTrueClassroom":"C","exampleSet":"first","trial_type":"survey-html-form","trial_index":109,"time_elapsed":1260788,"internal_node_id":"0.0-101.0-0.0","params":{"nStudents":24,"maxFlips":30,"completionMinutes":45,"basePay":8,"maxBonus":9,"perTrialBonus":0.5,"perTrialBonusThreshold":0.05,"exampleCost":0.01},"classroomParams":{"A":{"a":1,"b":4},"B":{"a":4,"b":1},"C":{"a":2,"b":8},"D":{"a":8,"b":2}},"conditions":["nonSeqFull","nonSeqPartial","seqNoFeedback","seqFeedback"],"classroomPairings":[["A","B"],["C","D"]],"coinWeights":[0.2,0.5,0.8],"subjectId":"A1W7I6FN183I8F","assignmentId":"39LOEL67OTRPD8LBC6ZGK5TZADV83G","hitId":"3E9VAUV7BW02QFDK7N7IH7ZKACRYAN","url":"https://gershmanlab.com/experiments/alicia/teaching/experiment/?hitId=3E9VAUV7BW02QFDK7N7IH7ZKACRYAN&workerId=A1W7I6FN183I8F&assignmentId=39LOEL67OTRPD8LBC6ZGK5TZADV83G&a=7EL99&tp_a=7EL99&b=39LOEL67OTRPD8LBC6ZGK5TZADV83G&tp_b=39LOEL67OTRPD8LBC6ZGK5TZADV83G&c=365799&tp_c=365799","heads":1,"tails":0,"studentIndex":13,"studentTrueHypers":{"a":2,"b":8},"studentGuess":0.2727272727272727,"delta":0.5272727272727273,"totalExamples":1,"bonusSoFar":2.46},{"rt":6521,"response":{"heads":"5","tails":"0"},"type":"response","condition":"seqFeedback","trueTheta":0.8,"classrooms":["C","D"],"studentTrueClassroom":"C","exampleSet":"second","trial_type":"survey-html-form","trial_index":113,"time_elapsed":1275821,"internal_node_id":"0.0-105.0-0.0","params":{"nStudents":24,"maxFlips":30,"completionMinutes":45,"basePay":8,"maxBonus":9,"perTrialBonus":0.5,"perTrialBonusThreshold":0.05,"exampleCost":0.01},"classroomParams":{"A":{"a":1,"b":4},"B":{"a":4,"b":1},"C":{"a":2,"b":8},"D":{"a":8,"b":2}},"conditions":["nonSeqFull","nonSeqPartial","seqNoFeedback","seqFeedback"],"classroomPairings":[["A","B"],["C","D"]],"coinWeights":[0.2,0.5,0.8],"subjectId":"A1W7I6FN183I8F","assignmentId":"39LOEL67OTRPD8LBC6ZGK5TZADV83G","hitId":"3E9VAUV7BW02QFDK7N7IH7ZKACRYAN","url":"https://gershmanlab.com/experiments/alicia/teaching/experiment/?hitId=3E9VAUV7BW02QFDK7N7IH7ZKACRYAN&workerId=A1W7I6FN183I8F&assignmentId=39LOEL67OTRPD8LBC6ZGK5TZADV83G&a=7EL99&tp_a=7EL99&b=39LOEL67OTRPD8LBC6ZGK5TZADV83G&tp_b=39LOEL67OTRPD8LBC6ZGK5TZADV83G&c=365799&tp_c=365799","firstResponseHeads":1,"firstResponseTails":0,"secondResponseHeads":5,"secondResponseTails":0,"totalHeads":6,"totalTails":0,"studentIndex":13,"studentTrueHypers":{"a":2,"b":8},"studentGuess":0.5,"delta":0.30000000000000004,"bonus":0,"bonusSoFar":2.46,"totalExamples":6},{"rt":2223,"response":{"heads":"0","tails":"1"},"type":"response","condition":"seqNoFeedback","trueTheta":0.2,"classrooms":["A","B"],"studentTrueClassroom":"B","exampleSet":"first","trial_type":"survey-html-form","trial_index":119,"time_elapsed":1292924,"internal_node_id":"0.0-111.0-0.0","params":{"nStudents":24,"maxFlips":30,"completionMinutes":45,"basePay":8,"maxBonus":9,"perTrialBonus":0.5,"perTrialBonusThreshold":0.05,"exampleCost":0.01},"classroomParams":{"A":{"a":1,"b":4},"B":{"a":4,"b":1},"C":{"a":2,"b":8},"D":{"a":8,"b":2}},"conditions":["nonSeqFull","nonSeqPartial","seqNoFeedback","seqFeedback"],"classroomPairings":[["A","B"],["C","D"]],"coinWeights":[0.2,0.5,0.8],"subjectId":"A1W7I6FN183I8F","assignmentId":"39LOEL67OTRPD8LBC6ZGK5TZADV83G","hitId":"3E9VAUV7BW02QFDK7N7IH7ZKACRYAN","url":"https://gershmanlab.com/experiments/alicia/teaching/experiment/?hitId=3E9VAUV7BW02QFDK7N7IH7ZKACRYAN&workerId=A1W7I6FN183I8F&assignmentId=39LOEL67OTRPD8LBC6ZGK5TZADV83G&a=7EL99&tp_a=7EL99&b=39LOEL67OTRPD8LBC6ZGK5TZADV83G&tp_b=39LOEL67OTRPD8LBC6ZGK5TZADV83G&c=365799&tp_c=365799","heads":0,"tails":1,"studentIndex":14,"studentTrueHypers":{"a":4,"b":1},"studentGuess":0.6666666666666666,"delta":0.4666666666666666,"totalExamples":1,"bonusSoFar":2.46},{"rt":3043,"response":{"heads":"0","tails":"1"},"type":"response","condition":"seqNoFeedback","trueTheta":0.2,"classrooms":["A","B"],"studentTrueClassroom":"B","exampleSet":"second","trial_type":"survey-html-form","trial_index":122,"time_elapsed":1302477,"internal_node_id":"0.0-114.0-0.0","params":{"nStudents":24,"maxFlips":30,"completionMinutes":45,"basePay":8,"maxBonus":9,"perTrialBonus":0.5,"perTrialBonusThreshold":0.05,"exampleCost":0.01},"classroomParams":{"A":{"a":1,"b":4},"B":{"a":4,"b":1},"C":{"a":2,"b":8},"D":{"a":8,"b":2}},"conditions":["nonSeqFull","nonSeqPartial","seqNoFeedback","seqFeedback"],"classroomPairings":[["A","B"],["C","D"]],"coinWeights":[0.2,0.5,0.8],"subjectId":"A1W7I6FN183I8F","assignmentId":"39LOEL67OTRPD8LBC6ZGK5TZADV83G","hitId":"3E9VAUV7BW02QFDK7N7IH7ZKACRYAN","url":"https://gershmanlab.com/experiments/alicia/teaching/experiment/?hitId=3E9VAUV7BW02QFDK7N7IH7ZKACRYAN&workerId=A1W7I6FN183I8F&assignmentId=39LOEL67OTRPD8LBC6ZGK5TZADV83G&a=7EL99&tp_a=7EL99&b=39LOEL67OTRPD8LBC6ZGK5TZADV83G&tp_b=39LOEL67OTRPD8LBC6ZGK5TZADV83G&c=365799&tp_c=365799","firstResponseHeads":0,"firstResponseTails":1,"secondResponseHeads":0,"secondResponseTails":1,"totalHeads":0,"totalTails":2,"studentIndex":14,"studentTrueHypers":{"a":4,"b":1},"studentGuess":0.5714285714285714,"delta":0.3714285714285714,"bonus":0,"bonusSoFar":2.46,"totalExamples":2},{"rt":2481,"response":{"heads":"1","tails":"1"},"type":"response","condition":"nonSeqFull","trueTheta":0.5,"classrooms":["C","D"],"studentTrueClassroom":"D","exampleSet":"first","trial_type":"survey-html-form","trial_index":128,"time_elapsed":1318222,"internal_node_id":"0.0-120.0-0.0","params":{"nStudents":24,"maxFlips":30,"completionMinutes":45,"basePay":8,"maxBonus":9,"perTrialBonus":0.5,"perTrialBonusThreshold":0.05,"exampleCost":0.01},"classroomParams":{"A":{"a":1,"b":4},"B":{"a":4,"b":1},"C":{"a":2,"b":8},"D":{"a":8,"b":2}},"conditions":["nonSeqFull","nonSeqPartial","seqNoFeedback","seqFeedback"],"classroomPairings":[["A","B"],["C","D"]],"coinWeights":[0.2,0.5,0.8],"subjectId":"A1W7I6FN183I8F","assignmentId":"39LOEL67OTRPD8LBC6ZGK5TZADV83G","hitId":"3E9VAUV7BW02QFDK7N7IH7ZKACRYAN","url":"https://gershmanlab.com/experiments/alicia/teaching/experiment/?hitId=3E9VAUV7BW02QFDK7N7IH7ZKACRYAN&workerId=A1W7I6FN183I8F&assignmentId=39LOEL67OTRPD8LBC6ZGK5TZADV83G&a=7EL99&tp_a=7EL99&b=39LOEL67OTRPD8LBC6ZGK5TZADV83G&tp_b=39LOEL67OTRPD8LBC6ZGK5TZADV83G&c=365799&tp_c=365799","heads":1,"tails":1,"studentIndex":15,"studentTrueHypers":{"a":8,"b":2},"studentGuess":0.75,"delta":0.25,"totalExamples":2,"bonus":0,"bonusSoFar":2.46},{"rt":1591,"response":{"heads":"1","tails":"0"},"type":"response","condition":"nonSeqPartial","trueTheta":0.8,"classrooms":["A","B"],"studentTrueClassroom":"B","exampleSet":"first","trial_type":"survey-html-form","trial_index":134,"time_elapsed":1330053,"internal_node_id":"0.0-126.0-0.0","params":{"nStudents":24,"maxFlips":30,"completionMinutes":45,"basePay":8,"maxBonus":9,"perTrialBonus":0.5,"perTrialBonusThreshold":0.05,"exampleCost":0.01},"classroomParams":{"A":{"a":1,"b":4},"B":{"a":4,"b":1},"C":{"a":2,"b":8},"D":{"a":8,"b":2}},"conditions":["nonSeqFull","nonSeqPartial","seqNoFeedback","seqFeedback"],"classroomPairings":[["A","B"],["C","D"]],"coinWeights":[0.2,0.5,0.8],"subjectId":"A1W7I6FN183I8F","assignmentId":"39LOEL67OTRPD8LBC6ZGK5TZADV83G","hitId":"3E9VAUV7BW02QFDK7N7IH7ZKACRYAN","url":"https://gershmanlab.com/experiments/alicia/teaching/experiment/?hitId=3E9VAUV7BW02QFDK7N7IH7ZKACRYAN&workerId=A1W7I6FN183I8F&assignmentId=39LOEL67OTRPD8LBC6ZGK5TZADV83G&a=7EL99&tp_a=7EL99&b=39LOEL67OTRPD8LBC6ZGK5TZADV83G&tp_b=39LOEL67OTRPD8LBC6ZGK5TZADV83G&c=365799&tp_c=365799","heads":1,"tails":0,"studentIndex":16,"studentTrueHypers":{"a":4,"b":1},"studentGuess":0.8333333333333334,"delta":0.033333333333333326,"totalExamples":1,"bonus":0.49,"bonusSoFar":2.95},{"rt":2077,"response":{"heads":"0","tails":"1"},"type":"response","condition":"nonSeqPartial","trueTheta":0.2,"classrooms":["C","D"],"studentTrueClassroom":"C","exampleSet":"first","trial_type":"survey-html-form","trial_index":140,"time_elapsed":1345677,"internal_node_id":"0.0-132.0-0.0","params":{"nStudents":24,"maxFlips":30,"completionMinutes":45,"basePay":8,"maxBonus":9,"perTrialBonus":0.5,"perTrialBonusThreshold":0.05,"exampleCost":0.01},"classroomParams":{"A":{"a":1,"b":4},"B":{"a":4,"b":1},"C":{"a":2,"b":8},"D":{"a":8,"b":2}},"conditions":["nonSeqFull","nonSeqPartial","seqNoFeedback","seqFeedback"],"classroomPairings":[["A","B"],["C","D"]],"coinWeights":[0.2,0.5,0.8],"subjectId":"A1W7I6FN183I8F","assignmentId":"39LOEL67OTRPD8LBC6ZGK5TZADV83G","hitId":"3E9VAUV7BW02QFDK7N7IH7ZKACRYAN","url":"https://gershmanlab.com/experiments/alicia/teaching/experiment/?hitId=3E9VAUV7BW02QFDK7N7IH7ZKACRYAN&workerId=A1W7I6FN183I8F&assignmentId=39LOEL67OTRPD8LBC6ZGK5TZADV83G&a=7EL99&tp_a=7EL99&b=39LOEL67OTRPD8LBC6ZGK5TZADV83G&tp_b=39LOEL67OTRPD8LBC6ZGK5TZADV83G&c=365799&tp_c=365799","heads":0,"tails":1,"studentIndex":17,"studentTrueHypers":{"a":2,"b":8},"studentGuess":0.18181818181818182,"delta":0.018181818181818188,"totalExamples":1,"bonus":0.49,"bonusSoFar":3.44},{"rt":4252,"response":{"heads":"1","tails":"1"},"type":"response","condition":"seqFeedback","trueTheta":0.5,"classrooms":["C","D"],"studentTrueClassroom":"C","exampleSet":"first","trial_type":"survey-html-form","trial_index":146,"time_elapsed":1362132,"internal_node_id":"0.0-138.0-0.0","params":{"nStudents":24,"maxFlips":30,"completionMinutes":45,"basePay":8,"maxBonus":9,"perTrialBonus":0.5,"perTrialBonusThreshold":0.05,"exampleCost":0.01},"classroomParams":{"A":{"a":1,"b":4},"B":{"a":4,"b":1},"C":{"a":2,"b":8},"D":{"a":8,"b":2}},"conditions":["nonSeqFull","nonSeqPartial","seqNoFeedback","seqFeedback"],"classroomPairings":[["A","B"],["C","D"]],"coinWeights":[0.2,0.5,0.8],"subjectId":"A1W7I6FN183I8F","assignmentId":"39LOEL67OTRPD8LBC6ZGK5TZADV83G","hitId":"3E9VAUV7BW02QFDK7N7IH7ZKACRYAN","url":"https://gershmanlab.com/experiments/alicia/teaching/experiment/?hitId=3E9VAUV7BW02QFDK7N7IH7ZKACRYAN&workerId=A1W7I6FN183I8F&assignmentId=39LOEL67OTRPD8LBC6ZGK5TZADV83G&a=7EL99&tp_a=7EL99&b=39LOEL67OTRPD8LBC6ZGK5TZADV83G&tp_b=39LOEL67OTRPD8LBC6ZGK5TZADV83G&c=365799&tp_c=365799","heads":1,"tails":1,"studentIndex":18,"studentTrueHypers":{"a":2,"b":8},"studentGuess":0.25,"delta":0.25,"totalExamples":2,"bonusSoFar":3.44},{"rt":4492,"response":{"heads":"1","tails":"1"},"type":"response","condition":"seqFeedback","trueTheta":0.5,"classrooms":["C","D"],"studentTrueClassroom":"C","exampleSet":"second","trial_type":"survey-html-form","trial_index":150,"time_elapsed":1375116,"internal_node_id":"0.0-142.0-0.0","params":{"nStudents":24,"maxFlips":30,"completionMinutes":45,"basePay":8,"maxBonus":9,"perTrialBonus":0.5,"perTrialBonusThreshold":0.05,"exampleCost":0.01},"classroomParams":{"A":{"a":1,"b":4},"B":{"a":4,"b":1},"C":{"a":2,"b":8},"D":{"a":8,"b":2}},"conditions":["nonSeqFull","nonSeqPartial","seqNoFeedback","seqFeedback"],"classroomPairings":[["A","B"],["C","D"]],"coinWeights":[0.2,0.5,0.8],"subjectId":"A1W7I6FN183I8F","assignmentId":"39LOEL67OTRPD8LBC6ZGK5TZADV83G","hitId":"3E9VAUV7BW02QFDK7N7IH7ZKACRYAN","url":"https://gershmanlab.com/experiments/alicia/teaching/experiment/?hitId=3E9VAUV7BW02QFDK7N7IH7ZKACRYAN&workerId=A1W7I6FN183I8F&assignmentId=39LOEL67OTRPD8LBC6ZGK5TZADV83G&a=7EL99&tp_a=7EL99&b=39LOEL67OTRPD8LBC6ZGK5TZADV83G&tp_b=39LOEL67OTRPD8LBC6ZGK5TZADV83G&c=365799&tp_c=365799","firstResponseHeads":1,"firstResponseTails":1,"secondResponseHeads":1,"secondResponseTails":1,"totalHeads":2,"totalTails":2,"studentIndex":18,"studentTrueHypers":{"a":2,"b":8},"studentGuess":0.2857142857142857,"delta":0.2142857142857143,"bonus":0,"bonusSoFar":3.44,"totalExamples":4},{"rt":1476,"response":{"heads":"0","tails":"1"},"type":"response","condition":"seqFeedback","trueTheta":0.2,"classrooms":["A","B"],"studentTrueClassroom":"B","exampleSet":"first","trial_type":"survey-html-form","trial_index":156,"time_elapsed":1388540,"internal_node_id":"0.0-148.0-0.0","params":{"nStudents":24,"maxFlips":30,"completionMinutes":45,"basePay":8,"maxBonus":9,"perTrialBonus":0.5,"perTrialBonusThreshold":0.05,"exampleCost":0.01},"classroomParams":{"A":{"a":1,"b":4},"B":{"a":4,"b":1},"C":{"a":2,"b":8},"D":{"a":8,"b":2}},"conditions":["nonSeqFull","nonSeqPartial","seqNoFeedback","seqFeedback"],"classroomPairings":[["A","B"],["C","D"]],"coinWeights":[0.2,0.5,0.8],"subjectId":"A1W7I6FN183I8F","assignmentId":"39LOEL67OTRPD8LBC6ZGK5TZADV83G","hitId":"3E9VAUV7BW02QFDK7N7IH7ZKACRYAN","url":"https://gershmanlab.com/experiments/alicia/teaching/experiment/?hitId=3E9VAUV7BW02QFDK7N7IH7ZKACRYAN&workerId=A1W7I6FN183I8F&assignmentId=39LOEL67OTRPD8LBC6ZGK5TZADV83G&a=7EL99&tp_a=7EL99&b=39LOEL67OTRPD8LBC6ZGK5TZADV83G&tp_b=39LOEL67OTRPD8LBC6ZGK5TZADV83G&c=365799&tp_c=365799","heads":0,"tails":1,"studentIndex":19,"studentTrueHypers":{"a":4,"b":1},"studentGuess":0.6666666666666666,"delta":0.4666666666666666,"totalExamples":1,"bonusSoFar":3.44},{"rt":2244,"response":{"heads":"0","tails":"3"},"type":"response","condition":"seqFeedback","trueTheta":0.2,"classrooms":["A","B"],"studentTrueClassroom":"B","exampleSet":"second","trial_type":"survey-html-form","trial_index":160,"time_elapsed":1398260,"internal_node_id":"0.0-152.0-0.0","params":{"nStudents":24,"maxFlips":30,"completionMinutes":45,"basePay":8,"maxBonus":9,"perTrialBonus":0.5,"perTrialBonusThreshold":0.05,"exampleCost":0.01},"classroomParams":{"A":{"a":1,"b":4},"B":{"a":4,"b":1},"C":{"a":2,"b":8},"D":{"a":8,"b":2}},"conditions":["nonSeqFull","nonSeqPartial","seqNoFeedback","seqFeedback"],"classroomPairings":[["A","B"],["C","D"]],"coinWeights":[0.2,0.5,0.8],"subjectId":"A1W7I6FN183I8F","assignmentId":"39LOEL67OTRPD8LBC6ZGK5TZADV83G","hitId":"3E9VAUV7BW02QFDK7N7IH7ZKACRYAN","url":"https://gershmanlab.com/experiments/alicia/teaching/experiment/?hitId=3E9VAUV7BW02QFDK7N7IH7ZKACRYAN&workerId=A1W7I6FN183I8F&assignmentId=39LOEL67OTRPD8LBC6ZGK5TZADV83G&a=7EL99&tp_a=7EL99&b=39LOEL67OTRPD8LBC6ZGK5TZADV83G&tp_b=39LOEL67OTRPD8LBC6ZGK5TZADV83G&c=365799&tp_c=365799","firstResponseHeads":0,"firstResponseTails":1,"secondResponseHeads":0,"secondResponseTails":3,"totalHeads":0,"totalTails":4,"studentIndex":19,"studentTrueHypers":{"a":4,"b":1},"studentGuess":0.4444444444444444,"delta":0.2444444444444444,"bonus":0,"bonusSoFar":3.44,"totalExamples":4},{"rt":7094,"response":{"heads":"1","tails":"1"},"type":"response","condition":"seqNoFeedback","trueTheta":0.5,"classrooms":["C","D"],"studentTrueClassroom":"C","exampleSet":"first","trial_type":"survey-html-form","trial_index":166,"time_elapsed":1416500,"internal_node_id":"0.0-158.0-0.0","params":{"nStudents":24,"maxFlips":30,"completionMinutes":45,"basePay":8,"maxBonus":9,"perTrialBonus":0.5,"perTrialBonusThreshold":0.05,"exampleCost":0.01},"classroomParams":{"A":{"a":1,"b":4},"B":{"a":4,"b":1},"C":{"a":2,"b":8},"D":{"a":8,"b":2}},"conditions":["nonSeqFull","nonSeqPartial","seqNoFeedback","seqFeedback"],"classroomPairings":[["A","B"],["C","D"]],"coinWeights":[0.2,0.5,0.8],"subjectId":"A1W7I6FN183I8F","assignmentId":"39LOEL67OTRPD8LBC6ZGK5TZADV83G","hitId":"3E9VAUV7BW02QFDK7N7IH7ZKACRYAN","url":"https://gershmanlab.com/experiments/alicia/teaching/experiment/?hitId=3E9VAUV7BW02QFDK7N7IH7ZKACRYAN&workerId=A1W7I6FN183I8F&assignmentId=39LOEL67OTRPD8LBC6ZGK5TZADV83G&a=7EL99&tp_a=7EL99&b=39LOEL67OTRPD8LBC6ZGK5TZADV83G&tp_b=39LOEL67OTRPD8LBC6ZGK5TZADV83G&c=365799&tp_c=365799","heads":1,"tails":1,"studentIndex":20,"studentTrueHypers":{"a":2,"b":8},"studentGuess":0.25,"delta":0.25,"totalExamples":2,"bonusSoFar":3.44},{"rt":4737,"response":{"heads":"1","tails":"1"},"type":"response","condition":"seqNoFeedback","trueTheta":0.5,"classrooms":["C","D"],"studentTrueClassroom":"C","exampleSet":"second","trial_type":"survey-html-form","trial_index":169,"time_elapsed":1427004,"internal_node_id":"0.0-161.0-0.0","params":{"nStudents":24,"maxFlips":30,"completionMinutes":45,"basePay":8,"maxBonus":9,"perTrialBonus":0.5,"perTrialBonusThreshold":0.05,"exampleCost":0.01},"classroomParams":{"A":{"a":1,"b":4},"B":{"a":4,"b":1},"C":{"a":2,"b":8},"D":{"a":8,"b":2}},"conditions":["nonSeqFull","nonSeqPartial","seqNoFeedback","seqFeedback"],"classroomPairings":[["A","B"],["C","D"]],"coinWeights":[0.2,0.5,0.8],"subjectId":"A1W7I6FN183I8F","assignmentId":"39LOEL67OTRPD8LBC6ZGK5TZADV83G","hitId":"3E9VAUV7BW02QFDK7N7IH7ZKACRYAN","url":"https://gershmanlab.com/experiments/alicia/teaching/experiment/?hitId=3E9VAUV7BW02QFDK7N7IH7ZKACRYAN&workerId=A1W7I6FN183I8F&assignmentId=39LOEL67OTRPD8LBC6ZGK5TZADV83G&a=7EL99&tp_a=7EL99&b=39LOEL67OTRPD8LBC6ZGK5TZADV83G&tp_b=39LOEL67OTRPD8LBC6ZGK5TZADV83G&c=365799&tp_c=365799","firstResponseHeads":1,"firstResponseTails":1,"secondResponseHeads":1,"secondResponseTails":1,"totalHeads":2,"totalTails":2,"studentIndex":20,"studentTrueHypers":{"a":2,"b":8},"studentGuess":0.2857142857142857,"delta":0.2142857142857143,"bonus":0,"bonusSoFar":3.44,"totalExamples":4},{"rt":3189,"response":{"heads":"1","tails":"1"},"type":"response","condition":"nonSeqPartial","trueTheta":0.5,"classrooms":["A","B"],"studentTrueClassroom":"B","exampleSet":"first","trial_type":"survey-html-form","trial_index":175,"time_elapsed":1441564,"internal_node_id":"0.0-167.0-0.0","params":{"nStudents":24,"maxFlips":30,"completionMinutes":45,"basePay":8,"maxBonus":9,"perTrialBonus":0.5,"perTrialBonusThreshold":0.05,"exampleCost":0.01},"classroomParams":{"A":{"a":1,"b":4},"B":{"a":4,"b":1},"C":{"a":2,"b":8},"D":{"a":8,"b":2}},"conditions":["nonSeqFull","nonSeqPartial","seqNoFeedback","seqFeedback"],"classroomPairings":[["A","B"],["C","D"]],"coinWeights":[0.2,0.5,0.8],"subjectId":"A1W7I6FN183I8F","assignmentId":"39LOEL67OTRPD8LBC6ZGK5TZADV83G","hitId":"3E9VAUV7BW02QFDK7N7IH7ZKACRYAN","url":"https://gershmanlab.com/experiments/alicia/teaching/experiment/?hitId=3E9VAUV7BW02QFDK7N7IH7ZKACRYAN&workerId=A1W7I6FN183I8F&assignmentId=39LOEL67OTRPD8LBC6ZGK5TZADV83G&a=7EL99&tp_a=7EL99&b=39LOEL67OTRPD8LBC6ZGK5TZADV83G&tp_b=39LOEL67OTRPD8LBC6ZGK5TZADV83G&c=365799&tp_c=365799","heads":1,"tails":1,"studentIndex":21,"studentTrueHypers":{"a":4,"b":1},"studentGuess":0.7142857142857143,"delta":0.2142857142857143,"totalExamples":2,"bonus":0,"bonusSoFar":3.44},{"rt":3646,"response":{"heads":"1","tails":"1"},"type":"response","condition":"seqNoFeedback","trueTheta":0.5,"classrooms":["A","B"],"studentTrueClassroom":"B","exampleSet":"first","trial_type":"survey-html-form","trial_index":181,"time_elapsed":1455927,"internal_node_id":"0.0-173.0-0.0","params":{"nStudents":24,"maxFlips":30,"completionMinutes":45,"basePay":8,"maxBonus":9,"perTrialBonus":0.5,"perTrialBonusThreshold":0.05,"exampleCost":0.01},"classroomParams":{"A":{"a":1,"b":4},"B":{"a":4,"b":1},"C":{"a":2,"b":8},"D":{"a":8,"b":2}},"conditions":["nonSeqFull","nonSeqPartial","seqNoFeedback","seqFeedback"],"classroomPairings":[["A","B"],["C","D"]],"coinWeights":[0.2,0.5,0.8],"subjectId":"A1W7I6FN183I8F","assignmentId":"39LOEL67OTRPD8LBC6ZGK5TZADV83G","hitId":"3E9VAUV7BW02QFDK7N7IH7ZKACRYAN","url":"https://gershmanlab.com/experiments/alicia/teaching/experiment/?hitId=3E9VAUV7BW02QFDK7N7IH7ZKACRYAN&workerId=A1W7I6FN183I8F&assignmentId=39LOEL67OTRPD8LBC6ZGK5TZADV83G&a=7EL99&tp_a=7EL99&b=39LOEL67OTRPD8LBC6ZGK5TZADV83G&tp_b=39LOEL67OTRPD8LBC6ZGK5TZADV83G&c=365799&tp_c=365799","heads":1,"tails":1,"studentIndex":22,"studentTrueHypers":{"a":4,"b":1},"studentGuess":0.7142857142857143,"delta":0.2142857142857143,"totalExamples":2,"bonusSoFar":3.44},{"rt":3406,"response":{"heads":"1","tails":"1"},"type":"response","condition":"seqNoFeedback","trueTheta":0.5,"classrooms":["A","B"],"studentTrueClassroom":"B","exampleSet":"second","trial_type":"survey-html-form","trial_index":184,"time_elapsed":1464588,"internal_node_id":"0.0-176.0-0.0","params":{"nStudents":24,"maxFlips":30,"completionMinutes":45,"basePay":8,"maxBonus":9,"perTrialBonus":0.5,"perTrialBonusThreshold":0.05,"exampleCost":0.01},"classroomParams":{"A":{"a":1,"b":4},"B":{"a":4,"b":1},"C":{"a":2,"b":8},"D":{"a":8,"b":2}},"conditions":["nonSeqFull","nonSeqPartial","seqNoFeedback","seqFeedback"],"classroomPairings":[["A","B"],["C","D"]],"coinWeights":[0.2,0.5,0.8],"subjectId":"A1W7I6FN183I8F","assignmentId":"39LOEL67OTRPD8LBC6ZGK5TZADV83G","hitId":"3E9VAUV7BW02QFDK7N7IH7ZKACRYAN","url":"https://gershmanlab.com/experiments/alicia/teaching/experiment/?hitId=3E9VAUV7BW02QFDK7N7IH7ZKACRYAN&workerId=A1W7I6FN183I8F&assignmentId=39LOEL67OTRPD8LBC6ZGK5TZADV83G&a=7EL99&tp_a=7EL99&b=39LOEL67OTRPD8LBC6ZGK5TZADV83G&tp_b=39LOEL67OTRPD8LBC6ZGK5TZADV83G&c=365799&tp_c=365799","firstResponseHeads":1,"firstResponseTails":1,"secondResponseHeads":1,"secondResponseTails":1,"totalHeads":2,"totalTails":2,"studentIndex":22,"studentTrueHypers":{"a":4,"b":1},"studentGuess":0.6666666666666666,"delta":0.16666666666666663,"bonus":0,"bonusSoFar":3.44,"totalExamples":4},{"rt":3775,"response":{"heads":"0","tails":"1"},"type":"response","condition":"seqFeedback","trueTheta":0.2,"classrooms":["C","D"],"studentTrueClassroom":"D","exampleSet":"first","trial_type":"survey-html-form","trial_index":190,"time_elapsed":1479124,"internal_node_id":"0.0-182.0-0.0","params":{"nStudents":24,"maxFlips":30,"completionMinutes":45,"basePay":8,"maxBonus":9,"perTrialBonus":0.5,"perTrialBonusThreshold":0.05,"exampleCost":0.01},"classroomParams":{"A":{"a":1,"b":4},"B":{"a":4,"b":1},"C":{"a":2,"b":8},"D":{"a":8,"b":2}},"conditions":["nonSeqFull","nonSeqPartial","seqNoFeedback","seqFeedback"],"classroomPairings":[["A","B"],["C","D"]],"coinWeights":[0.2,0.5,0.8],"subjectId":"A1W7I6FN183I8F","assignmentId":"39LOEL67OTRPD8LBC6ZGK5TZADV83G","hitId":"3E9VAUV7BW02QFDK7N7IH7ZKACRYAN","url":"https://gershmanlab.com/experiments/alicia/teaching/experiment/?hitId=3E9VAUV7BW02QFDK7N7IH7ZKACRYAN&workerId=A1W7I6FN183I8F&assignmentId=39LOEL67OTRPD8LBC6ZGK5TZADV83G&a=7EL99&tp_a=7EL99&b=39LOEL67OTRPD8LBC6ZGK5TZADV83G&tp_b=39LOEL67OTRPD8LBC6ZGK5TZADV83G&c=365799&tp_c=365799","heads":0,"tails":1,"studentIndex":23,"studentTrueHypers":{"a":8,"b":2},"studentGuess":0.7272727272727273,"delta":0.5272727272727273,"totalExamples":1,"bonusSoFar":3.44},{"rt":3407,"response":{"heads":"0","tails":"21"},"type":"response","condition":"seqFeedback","trueTheta":0.2,"classrooms":["C","D"],"studentTrueClassroom":"D","exampleSet":"second","trial_type":"survey-html-form","trial_index":194,"time_elapsed":1493036,"internal_node_id":"0.0-186.0-0.0","params":{"nStudents":24,"maxFlips":30,"completionMinutes":45,"basePay":8,"maxBonus":9,"perTrialBonus":0.5,"perTrialBonusThreshold":0.05,"exampleCost":0.01},"classroomParams":{"A":{"a":1,"b":4},"B":{"a":4,"b":1},"C":{"a":2,"b":8},"D":{"a":8,"b":2}},"conditions":["nonSeqFull","nonSeqPartial","seqNoFeedback","seqFeedback"],"classroomPairings":[["A","B"],["C","D"]],"coinWeights":[0.2,0.5,0.8],"subjectId":"A1W7I6FN183I8F","assignmentId":"39LOEL67OTRPD8LBC6ZGK5TZADV83G","hitId":"3E9VAUV7BW02QFDK7N7IH7ZKACRYAN","url":"https://gershmanlab.com/experiments/alicia/teaching/experiment/?hitId=3E9VAUV7BW02QFDK7N7IH7ZKACRYAN&workerId=A1W7I6FN183I8F&assignmentId=39LOEL67OTRPD8LBC6ZGK5TZADV83G&a=7EL99&tp_a=7EL99&b=39LOEL67OTRPD8LBC6ZGK5TZADV83G&tp_b=39LOEL67OTRPD8LBC6ZGK5TZADV83G&c=365799&tp_c=365799","firstResponseHeads":0,"firstResponseTails":1,"secondResponseHeads":0,"secondResponseTails":21,"totalHeads":0,"totalTails":22,"studentIndex":23,"studentTrueHypers":{"a":8,"b":2},"studentGuess":0.25,"delta":0.04999999999999999,"bonus":0.28,"bonusSoFar":3.72,"totalExamples":22},{"rt":33857,"response":{"gender":"male","age":"32","understood":"yes","comments":"This was an interesting premise, though I did find some of the students frustrating to deal with."},"type":"response","trial_type":"survey-html-form","trial_index":198,"time_elapsed":1539892,"internal_node_id":"0.0-191.0","params":{"nStudents":24,"maxFlips":30,"completionMinutes":45,"basePay":8,"maxBonus":9,"perTrialBonus":0.5,"perTrialBonusThreshold":0.05,"exampleCost":0.01},"classroomParams":{"A":{"a":1,"b":4},"B":{"a":4,"b":1},"C":{"a":2,"b":8},"D":{"a":8,"b":2}},"conditions":["nonSeqFull","nonSeqPartial","seqNoFeedback","seqFeedback"],"classroomPairings":[["A","B"],["C","D"]],"coinWeights":[0.2,0.5,0.8],"subjectId":"A1W7I6FN183I8F","assignmentId":"39LOEL67OTRPD8LBC6ZGK5TZADV83G","hitId":"3E9VAUV7BW02QFDK7N7IH7ZKACRYAN","url":"https://gershmanlab.com/experiments/alicia/teaching/experiment/?hitId=3E9VAUV7BW02QFDK7N7IH7ZKACRYAN&workerId=A1W7I6FN183I8F&assignmentId=39LOEL67OTRPD8LBC6ZGK5TZADV83G&a=7EL99&tp_a=7EL99&b=39LOEL67OTRPD8LBC6ZGK5TZADV83G&tp_b=39LOEL67OTRPD8LBC6ZGK5TZADV83G&c=365799&tp_c=365799","totalBonus":3.72}]