[{"rt":22534,"response":{"heads":"3","tails":"0"},"type":"response","condition":"nonSeqFull","trueTheta":0.8,"classrooms":["A","B"],"studentTrueClassroom":"A","exampleSet":"first","trial_type":"survey-html-form","trial_index":10,"time_elapsed":314156,"internal_node_id":"0.0-6.0-0.0","params":{"nStudents":24,"maxFlips":30,"completionMinutes":45,"basePay":8,"maxBonus":9,"perTrialBonus":0.5,"perTrialBonusThreshold":0.05,"exampleCost":0.01},"classroomParams":{"A":{"a":1,"b":4},"B":{"a":4,"b":1},"C":{"a":2,"b":8},"D":{"a":8,"b":2}},"conditions":["nonSeqFull","nonSeqPartial","seqNoFeedback","seqFeedback"],"classroomPairings":[["A","B"],["C","D"]],"coinWeights":[0.2,0.5,0.8],"subjectId":"A1WH32GYQOHIRQ","assignmentId":"33LK57MYLUR8HL7DBB0U5XYF10LSZD","hitId":"3FJ2RVH25ZSYKBA8MWMNC8NVPF629N","url":"https://gershmanlab.com/experiments/alicia/teaching/experiment/?hitId=3FJ2RVH25ZSYKBA8MWMNC8NVPF629N&workerId=A1WH32GYQOHIRQ&assignmentId=33LK57MYLUR8HL7DBB0U5XYF10LSZD&a=Y5L37&tp_a=Y5L37&b=33LK57MYLUR8HL7DBB0U5XYF10LSZD&tp_b=33LK57MYLUR8HL7DBB0U5XYF10LSZD&c=365717&tp_c=365717","heads":3,"tails":0,"studentIndex":0,"studentTrueHypers":{"a":1,"b":4},"studentGuess":0.5,"delta":0.30000000000000004,"totalExamples":3,"bonus":0,"bonusSoFar":0},{"rt":13501,"response":{"heads":"2","tails":"3"},"type":"response","condition":"seqNoFeedback","trueTheta":0.2,"classrooms":["A","B"],"studentTrueClassroom":"B","exampleSet":"first","trial_type":"survey-html-form","trial_index":16,"time_elapsed":348737,"internal_node_id":"0.0-12.0-0.0","params":{"nStudents":24,"maxFlips":30,"completionMinutes":45,"basePay":8,"maxBonus":9,"perTrialBonus":0.5,"perTrialBonusThreshold":0.05,"exampleCost":0.01},"classroomParams":{"A":{"a":1,"b":4},"B":{"a":4,"b":1},"C":{"a":2,"b":8},"D":{"a":8,"b":2}},"conditions":["nonSeqFull","nonSeqPartial","seqNoFeedback","seqFeedback"],"classroomPairings":[["A","B"],["C","D"]],"coinWeights":[0.2,0.5,0.8],"subjectId":"A1WH32GYQOHIRQ","assignmentId":"33LK57MYLUR8HL7DBB0U5XYF10LSZD","hitId":"3FJ2RVH25ZSYKBA8MWMNC8NVPF629N","url":"https://gershmanlab.com/experiments/alicia/teaching/experiment/?hitId=3FJ2RVH25ZSYKBA8MWMNC8NVPF629N&workerId=A1WH32GYQOHIRQ&assignmentId=33LK57MYLUR8HL7DBB0U5XYF10LSZD&a=Y5L37&tp_a=Y5L37&b=33LK57MYLUR8HL7DBB0U5XYF10LSZD&tp_b=33LK57MYLUR8HL7DBB0U5XYF10LSZD&c=365717&tp_c=365717","heads":2,"tails":3,"studentIndex":1,"studentTrueHypers":{"a":4,"b":1},"studentGuess":0.6,"delta":0.39999999999999997,"totalExamples":5,"bonusSoFar":0},{"rt":21097,"response":{"heads":"4","tails":"1"},"type":"response","condition":"seqNoFeedback","trueTheta":0.2,"classrooms":["A","B"],"studentTrueClassroom":"B","exampleSet":"second","trial_type":"survey-html-form","trial_index":19,"time_elapsed":376593,"internal_node_id":"0.0-15.0-0.0","params":{"nStudents":24,"maxFlips":30,"completionMinutes":45,"basePay":8,"maxBonus":9,"perTrialBonus":0.5,"perTrialBonusThreshold":0.05,"exampleCost":0.01},"classroomParams":{"A":{"a":1,"b":4},"B":{"a":4,"b":1},"C":{"a":2,"b":8},"D":{"a":8,"b":2}},"conditions":["nonSeqFull","nonSeqPartial","seqNoFeedback","seqFeedback"],"classroomPairings":[["A","B"],["C","D"]],"coinWeights":[0.2,0.5,0.8],"subjectId":"A1WH32GYQOHIRQ","assignmentId":"33LK57MYLUR8HL7DBB0U5XYF10LSZD","hitId":"3FJ2RVH25ZSYKBA8MWMNC8NVPF629N","url":"https://gershmanlab.com/experiments/alicia/teaching/experiment/?hitId=3FJ2RVH25ZSYKBA8MWMNC8NVPF629N&workerId=A1WH32GYQOHIRQ&assignmentId=33LK57MYLUR8HL7DBB0U5XYF10LSZD&a=Y5L37&tp_a=Y5L37&b=33LK57MYLUR8HL7DBB0U5XYF10LSZD&tp_b=33LK57MYLUR8HL7DBB0U5XYF10LSZD&c=365717&tp_c=365717","firstResponseHeads":2,"firstResponseTails":3,"secondResponseHeads":4,"secondResponseTails":1,"totalHeads":6,"totalTails":4,"studentIndex":1,"studentTrueHypers":{"a":4,"b":1},"studentGuess":0.6666666666666666,"delta":0.4666666666666666,"bonus":0,"bonusSoFar":0,"totalExamples":10},{"rt":14870,"response":{"heads":"5","tails":"5"},"type":"response","condition":"nonSeqPartial","trueTheta":0.2,"classrooms":["C","D"],"studentTrueClassroom":"D","exampleSet":"first","trial_type":"survey-html-form","trial_index":25,"time_elapsed":423266,"internal_node_id":"0.0-21.0-0.0","params":{"nStudents":24,"maxFlips":30,"completionMinutes":45,"basePay":8,"maxBonus":9,"perTrialBonus":0.5,"perTrialBonusThreshold":0.05,"exampleCost":0.01},"classroomParams":{"A":{"a":1,"b":4},"B":{"a":4,"b":1},"C":{"a":2,"b":8},"D":{"a":8,"b":2}},"conditions":["nonSeqFull","nonSeqPartial","seqNoFeedback","seqFeedback"],"classroomPairings":[["A","B"],["C","D"]],"coinWeights":[0.2,0.5,0.8],"subjectId":"A1WH32GYQOHIRQ","assignmentId":"33LK57MYLUR8HL7DBB0U5XYF10LSZD","hitId":"3FJ2RVH25ZSYKBA8MWMNC8NVPF629N","url":"https://gershmanlab.com/experiments/alicia/teaching/experiment/?hitId=3FJ2RVH25ZSYKBA8MWMNC8NVPF629N&workerId=A1WH32GYQOHIRQ&assignmentId=33LK57MYLUR8HL7DBB0U5XYF10LSZD&a=Y5L37&tp_a=Y5L37&b=33LK57MYLUR8HL7DBB0U5XYF10LSZD&tp_b=33LK57MYLUR8HL7DBB0U5XYF10LSZD&c=365717&tp_c=365717","heads":5,"tails":5,"studentIndex":2,"studentTrueHypers":{"a":8,"b":2},"studentGuess":0.65,"delta":0.45,"totalExamples":10,"bonus":0,"bonusSoFar":0},{"rt":7998,"response":{"heads":"2","tails":"2"},"type":"response","condition":"nonSeqPartial","trueTheta":0.5,"classrooms":["C","D"],"studentTrueClassroom":"C","exampleSet":"first","trial_type":"survey-html-form","trial_index":31,"time_elapsed":446772,"internal_node_id":"0.0-27.0-0.0","params":{"nStudents":24,"maxFlips":30,"completionMinutes":45,"basePay":8,"maxBonus":9,"perTrialBonus":0.5,"perTrialBonusThreshold":0.05,"exampleCost":0.01},"classroomParams":{"A":{"a":1,"b":4},"B":{"a":4,"b":1},"C":{"a":2,"b":8},"D":{"a":8,"b":2}},"conditions":["nonSeqFull","nonSeqPartial","seqNoFeedback","seqFeedback"],"classroomPairings":[["A","B"],["C","D"]],"coinWeights":[0.2,0.5,0.8],"subjectId":"A1WH32GYQOHIRQ","assignmentId":"33LK57MYLUR8HL7DBB0U5XYF10LSZD","hitId":"3FJ2RVH25ZSYKBA8MWMNC8NVPF629N","url":"https://gershmanlab.com/experiments/alicia/teaching/experiment/?hitId=3FJ2RVH25ZSYKBA8MWMNC8NVPF629N&workerId=A1WH32GYQOHIRQ&assignmentId=33LK57MYLUR8HL7DBB0U5XYF10LSZD&a=Y5L37&tp_a=Y5L37&b=33LK57MYLUR8HL7DBB0U5XYF10LSZD&tp_b=33LK57MYLUR8HL7DBB0U5XYF10LSZD&c=365717&tp_c=365717","heads":2,"tails":2,"studentIndex":3,"studentTrueHypers":{"a":2,"b":8},"studentGuess":0.2857142857142857,"delta":0.2142857142857143,"totalExamples":4,"bonus":0,"bonusSoFar":0},{"rt":17815,"response":{"heads":"9","tails":"6"},"type":"response","condition":"nonSeqFull","trueTheta":0.5,"classrooms":["A","B"],"studentTrueClassroom":"A","exampleSet":"first","trial_type":"survey-html-form","trial_index":37,"time_elapsed":494473,"internal_node_id":"0.0-33.0-0.0","params":{"nStudents":24,"maxFlips":30,"completionMinutes":45,"basePay":8,"maxBonus":9,"perTrialBonus":0.5,"perTrialBonusThreshold":0.05,"exampleCost":0.01},"classroomParams":{"A":{"a":1,"b":4},"B":{"a":4,"b":1},"C":{"a":2,"b":8},"D":{"a":8,"b":2}},"conditions":["nonSeqFull","nonSeqPartial","seqNoFeedback","seqFeedback"],"classroomPairings":[["A","B"],["C","D"]],"coinWeights":[0.2,0.5,0.8],"subjectId":"A1WH32GYQOHIRQ","assignmentId":"33LK57MYLUR8HL7DBB0U5XYF10LSZD","hitId":"3FJ2RVH25ZSYKBA8MWMNC8NVPF629N","url":"https://gershmanlab.com/experiments/alicia/teaching/experiment/?hitId=3FJ2RVH25ZSYKBA8MWMNC8NVPF629N&workerId=A1WH32GYQOHIRQ&assignmentId=33LK57MYLUR8HL7DBB0U5XYF10LSZD&a=Y5L37&tp_a=Y5L37&b=33LK57MYLUR8HL7DBB0U5XYF10LSZD&tp_b=33LK57MYLUR8HL7DBB0U5XYF10LSZD&c=365717&tp_c=365717","heads":9,"tails":6,"studentIndex":4,"studentTrueHypers":{"a":1,"b":4},"studentGuess":0.5,"delta":0,"totalExamples":15,"bonus":0.35,"bonusSoFar":0.35},{"rt":19186,"response":{"heads":"5","tails":"5"},"type":"response","condition":"seqNoFeedback","trueTheta":0.8,"classrooms":["A","B"],"studentTrueClassroom":"A","exampleSet":"first","trial_type":"survey-html-form","trial_index":43,"time_elapsed":552115,"internal_node_id":"0.0-39.0-0.0","params":{"nStudents":24,"maxFlips":30,"completionMinutes":45,"basePay":8,"maxBonus":9,"perTrialBonus":0.5,"perTrialBonusThreshold":0.05,"exampleCost":0.01},"classroomParams":{"A":{"a":1,"b":4},"B":{"a":4,"b":1},"C":{"a":2,"b":8},"D":{"a":8,"b":2}},"conditions":["nonSeqFull","nonSeqPartial","seqNoFeedback","seqFeedback"],"classroomPairings":[["A","B"],["C","D"]],"coinWeights":[0.2,0.5,0.8],"subjectId":"A1WH32GYQOHIRQ","assignmentId":"33LK57MYLUR8HL7DBB0U5XYF10LSZD","hitId":"3FJ2RVH25ZSYKBA8MWMNC8NVPF629N","url":"https://gershmanlab.com/experiments/alicia/teaching/experiment/?hitId=3FJ2RVH25ZSYKBA8MWMNC8NVPF629N&workerId=A1WH32GYQOHIRQ&assignmentId=33LK57MYLUR8HL7DBB0U5XYF10LSZD&a=Y5L37&tp_a=Y5L37&b=33LK57MYLUR8HL7DBB0U5XYF10LSZD&tp_b=33LK57MYLUR8HL7DBB0U5XYF10LSZD&c=365717&tp_c=365717","heads":5,"tails":5,"studentIndex":5,"studentTrueHypers":{"a":1,"b":4},"studentGuess":0.4,"delta":0.4,"totalExamples":10,"bonusSoFar":0.35},{"rt":36546,"response":{"heads":"5","tails":"5"},"type":"response","condition":"seqNoFeedback","trueTheta":0.8,"classrooms":["A","B"],"studentTrueClassroom":"A","exampleSet":"second","trial_type":"survey-html-form","trial_index":46,"time_elapsed":597568,"internal_node_id":"0.0-42.0-0.0","params":{"nStudents":24,"maxFlips":30,"completionMinutes":45,"basePay":8,"maxBonus":9,"perTrialBonus":0.5,"perTrialBonusThreshold":0.05,"exampleCost":0.01},"classroomParams":{"A":{"a":1,"b":4},"B":{"a":4,"b":1},"C":{"a":2,"b":8},"D":{"a":8,"b":2}},"conditions":["nonSeqFull","nonSeqPartial","seqNoFeedback","seqFeedback"],"classroomPairings":[["A","B"],["C","D"]],"coinWeights":[0.2,0.5,0.8],"subjectId":"A1WH32GYQOHIRQ","assignmentId":"33LK57MYLUR8HL7DBB0U5XYF10LSZD","hitId":"3FJ2RVH25ZSYKBA8MWMNC8NVPF629N","url":"https://gershmanlab.com/experiments/alicia/teaching/experiment/?hitId=3FJ2RVH25ZSYKBA8MWMNC8NVPF629N&workerId=A1WH32GYQOHIRQ&assignmentId=33LK57MYLUR8HL7DBB0U5XYF10LSZD&a=Y5L37&tp_a=Y5L37&b=33LK57MYLUR8HL7DBB0U5XYF10LSZD&tp_b=33LK57MYLUR8HL7DBB0U5XYF10LSZD&c=365717&tp_c=365717","firstResponseHeads":5,"firstResponseTails":5,"secondResponseHeads":5,"secondResponseTails":5,"totalHeads":10,"totalTails":10,"studentIndex":5,"studentTrueHypers":{"a":1,"b":4},"studentGuess":0.44,"delta":0.36000000000000004,"bonus":0,"bonusSoFar":0.35,"totalExamples":20},{"rt":14615,"response":{"heads":"3","tails":"3"},"type":"response","condition":"nonSeqPartial","trueTheta":0.2,"classrooms":["A","B"],"studentTrueClassroom":"A","exampleSet":"first","trial_type":"survey-html-form","trial_index":52,"time_elapsed":629978,"internal_node_id":"0.0-48.0-0.0","params":{"nStudents":24,"maxFlips":30,"completionMinutes":45,"basePay":8,"maxBonus":9,"perTrialBonus":0.5,"perTrialBonusThreshold":0.05,"exampleCost":0.01},"classroomParams":{"A":{"a":1,"b":4},"B":{"a":4,"b":1},"C":{"a":2,"b":8},"D":{"a":8,"b":2}},"conditions":["nonSeqFull","nonSeqPartial","seqNoFeedback","seqFeedback"],"classroomPairings":[["A","B"],["C","D"]],"coinWeights":[0.2,0.5,0.8],"subjectId":"A1WH32GYQOHIRQ","assignmentId":"33LK57MYLUR8HL7DBB0U5XYF10LSZD","hitId":"3FJ2RVH25ZSYKBA8MWMNC8NVPF629N","url":"https://gershmanlab.com/experiments/alicia/teaching/experiment/?hitId=3FJ2RVH25ZSYKBA8MWMNC8NVPF629N&workerId=A1WH32GYQOHIRQ&assignmentId=33LK57MYLUR8HL7DBB0U5XYF10LSZD&a=Y5L37&tp_a=Y5L37&b=33LK57MYLUR8HL7DBB0U5XYF10LSZD&tp_b=33LK57MYLUR8HL7DBB0U5XYF10LSZD&c=365717&tp_c=365717","heads":3,"tails":3,"studentIndex":6,"studentTrueHypers":{"a":1,"b":4},"studentGuess":0.36363636363636365,"delta":0.16363636363636364,"totalExamples":6,"bonus":0,"bonusSoFar":0.35},{"rt":13543,"response":{"heads":"3","tails":"1"},"type":"response","condition":"seqNoFeedback","trueTheta":0.8,"classrooms":["C","D"],"studentTrueClassroom":"D","exampleSet":"first","trial_type":"survey-html-form","trial_index":58,"time_elapsed":666349,"internal_node_id":"0.0-54.0-0.0","params":{"nStudents":24,"maxFlips":30,"completionMinutes":45,"basePay":8,"maxBonus":9,"perTrialBonus":0.5,"perTrialBonusThreshold":0.05,"exampleCost":0.01},"classroomParams":{"A":{"a":1,"b":4},"B":{"a":4,"b":1},"C":{"a":2,"b":8},"D":{"a":8,"b":2}},"conditions":["nonSeqFull","nonSeqPartial","seqNoFeedback","seqFeedback"],"classroomPairings":[["A","B"],["C","D"]],"coinWeights":[0.2,0.5,0.8],"subjectId":"A1WH32GYQOHIRQ","assignmentId":"33LK57MYLUR8HL7DBB0U5XYF10LSZD","hitId":"3FJ2RVH25ZSYKBA8MWMNC8NVPF629N","url":"https://gershmanlab.com/experiments/alicia/teaching/experiment/?hitId=3FJ2RVH25ZSYKBA8MWMNC8NVPF629N&workerId=A1WH32GYQOHIRQ&assignmentId=33LK57MYLUR8HL7DBB0U5XYF10LSZD&a=Y5L37&tp_a=Y5L37&b=33LK57MYLUR8HL7DBB0U5XYF10LSZD&tp_b=33LK57MYLUR8HL7DBB0U5XYF10LSZD&c=365717&tp_c=365717","heads":3,"tails":1,"studentIndex":7,"studentTrueHypers":{"a":8,"b":2},"studentGuess":0.7857142857142857,"delta":0.014285714285714346,"totalExamples":4,"bonusSoFar":0.35},{"rt":38069,"response":{"heads":"3","tails":"1"},"type":"response","condition":"seqNoFeedback","trueTheta":0.8,"classrooms":["C","D"],"studentTrueClassroom":"D","exampleSet":"second","trial_type":"survey-html-form","trial_index":61,"time_elapsed":713130,"internal_node_id":"0.0-57.0-0.0","params":{"nStudents":24,"maxFlips":30,"completionMinutes":45,"basePay":8,"maxBonus":9,"perTrialBonus":0.5,"perTrialBonusThreshold":0.05,"exampleCost":0.01},"classroomParams":{"A":{"a":1,"b":4},"B":{"a":4,"b":1},"C":{"a":2,"b":8},"D":{"a":8,"b":2}},"conditions":["nonSeqFull","nonSeqPartial","seqNoFeedback","seqFeedback"],"classroomPairings":[["A","B"],["C","D"]],"coinWeights":[0.2,0.5,0.8],"subjectId":"A1WH32GYQOHIRQ","assignmentId":"33LK57MYLUR8HL7DBB0U5XYF10LSZD","hitId":"3FJ2RVH25ZSYKBA8MWMNC8NVPF629N","url":"https://gershmanlab.com/experiments/alicia/teaching/experiment/?hitId=3FJ2RVH25ZSYKBA8MWMNC8NVPF629N&workerId=A1WH32GYQOHIRQ&assignmentId=33LK57MYLUR8HL7DBB0U5XYF10LSZD&a=Y5L37&tp_a=Y5L37&b=33LK57MYLUR8HL7DBB0U5XYF10LSZD&tp_b=33LK57MYLUR8HL7DBB0U5XYF10LSZD&c=365717&tp_c=365717","firstResponseHeads":3,"firstResponseTails":1,"secondResponseHeads":3,"secondResponseTails":1,"totalHeads":6,"totalTails":2,"studentIndex":7,"studentTrueHypers":{"a":8,"b":2},"studentGuess":0.7777777777777778,"delta":0.022222222222222254,"bonus":0.42,"bonusSoFar":0.77,"totalExamples":8},{"rt":9744,"response":{"heads":"2","tails":"8"},"type":"response","condition":"nonSeqFull","trueTheta":0.5,"classrooms":["C","D"],"studentTrueClassroom":"D","exampleSet":"first","trial_type":"survey-html-form","trial_index":67,"time_elapsed":741768,"internal_node_id":"0.0-63.0-0.0","params":{"nStudents":24,"maxFlips":30,"completionMinutes":45,"basePay":8,"maxBonus":9,"perTrialBonus":0.5,"perTrialBonusThreshold":0.05,"exampleCost":0.01},"classroomParams":{"A":{"a":1,"b":4},"B":{"a":4,"b":1},"C":{"a":2,"b":8},"D":{"a":8,"b":2}},"conditions":["nonSeqFull","nonSeqPartial","seqNoFeedback","seqFeedback"],"classroomPairings":[["A","B"],["C","D"]],"coinWeights":[0.2,0.5,0.8],"subjectId":"A1WH32GYQOHIRQ","assignmentId":"33LK57MYLUR8HL7DBB0U5XYF10LSZD","hitId":"3FJ2RVH25ZSYKBA8MWMNC8NVPF629N","url":"https://gershmanlab.com/experiments/alicia/teaching/experiment/?hitId=3FJ2RVH25ZSYKBA8MWMNC8NVPF629N&workerId=A1WH32GYQOHIRQ&assignmentId=33LK57MYLUR8HL7DBB0U5XYF10LSZD&a=Y5L37&tp_a=Y5L37&b=33LK57MYLUR8HL7DBB0U5XYF10LSZD&tp_b=33LK57MYLUR8HL7DBB0U5XYF10LSZD&c=365717&tp_c=365717","heads":2,"tails":8,"studentIndex":8,"studentTrueHypers":{"a":8,"b":2},"studentGuess":0.5,"delta":0,"totalExamples":10,"bonus":0.4,"bonusSoFar":1.17},{"rt":8275,"response":{"heads":"5","tails":"5"},"type":"response","condition":"nonSeqPartial","trueTheta":0.8,"classrooms":["A","B"],"studentTrueClassroom":"A","exampleSet":"first","trial_type":"survey-html-form","trial_index":73,"time_elapsed":773137,"internal_node_id":"0.0-69.0-0.0","params":{"nStudents":24,"maxFlips":30,"completionMinutes":45,"basePay":8,"maxBonus":9,"perTrialBonus":0.5,"perTrialBonusThreshold":0.05,"exampleCost":0.01},"classroomParams":{"A":{"a":1,"b":4},"B":{"a":4,"b":1},"C":{"a":2,"b":8},"D":{"a":8,"b":2}},"conditions":["nonSeqFull","nonSeqPartial","seqNoFeedback","seqFeedback"],"classroomPairings":[["A","B"],["C","D"]],"coinWeights":[0.2,0.5,0.8],"subjectId":"A1WH32GYQOHIRQ","assignmentId":"33LK57MYLUR8HL7DBB0U5XYF10LSZD","hitId":"3FJ2RVH25ZSYKBA8MWMNC8NVPF629N","url":"https://gershmanlab.com/experiments/alicia/teaching/experiment/?hitId=3FJ2RVH25ZSYKBA8MWMNC8NVPF629N&workerId=A1WH32GYQOHIRQ&assignmentId=33LK57MYLUR8HL7DBB0U5XYF10LSZD&a=Y5L37&tp_a=Y5L37&b=33LK57MYLUR8HL7DBB0U5XYF10LSZD&tp_b=33LK57MYLUR8HL7DBB0U5XYF10LSZD&c=365717&tp_c=365717","heads":5,"tails":5,"studentIndex":9,"studentTrueHypers":{"a":1,"b":4},"studentGuess":0.4,"delta":0.4,"totalExamples":10,"bonus":0,"bonusSoFar":1.17},{"rt":12754,"response":{"heads":"3","tails":"1"},"type":"response","condition":"nonSeqFull","trueTheta":0.2,"classrooms":["A","B"],"studentTrueClassroom":"A","exampleSet":"first","trial_type":"survey-html-form","trial_index":79,"time_elapsed":809285,"internal_node_id":"0.0-75.0-0.0","params":{"nStudents":24,"maxFlips":30,"completionMinutes":45,"basePay":8,"maxBonus":9,"perTrialBonus":0.5,"perTrialBonusThreshold":0.05,"exampleCost":0.01},"classroomParams":{"A":{"a":1,"b":4},"B":{"a":4,"b":1},"C":{"a":2,"b":8},"D":{"a":8,"b":2}},"conditions":["nonSeqFull","nonSeqPartial","seqNoFeedback","seqFeedback"],"classroomPairings":[["A","B"],["C","D"]],"coinWeights":[0.2,0.5,0.8],"subjectId":"A1WH32GYQOHIRQ","assignmentId":"33LK57MYLUR8HL7DBB0U5XYF10LSZD","hitId":"3FJ2RVH25ZSYKBA8MWMNC8NVPF629N","url":"https://gershmanlab.com/experiments/alicia/teaching/experiment/?hitId=3FJ2RVH25ZSYKBA8MWMNC8NVPF629N&workerId=A1WH32GYQOHIRQ&assignmentId=33LK57MYLUR8HL7DBB0U5XYF10LSZD&a=Y5L37&tp_a=Y5L37&b=33LK57MYLUR8HL7DBB0U5XYF10LSZD&tp_b=33LK57MYLUR8HL7DBB0U5XYF10LSZD&c=365717&tp_c=365717","heads":3,"tails":1,"studentIndex":10,"studentTrueHypers":{"a":1,"b":4},"studentGuess":0.4444444444444444,"delta":0.2444444444444444,"totalExamples":4,"bonus":0,"bonusSoFar":1.17},{"rt":9840,"response":{"heads":"2","tails":"8"},"type":"response","condition":"nonSeqFull","trueTheta":0.8,"classrooms":["C","D"],"studentTrueClassroom":"D","exampleSet":"first","trial_type":"survey-html-form","trial_index":85,"time_elapsed":837559,"internal_node_id":"0.0-81.0-0.0","params":{"nStudents":24,"maxFlips":30,"completionMinutes":45,"basePay":8,"maxBonus":9,"perTrialBonus":0.5,"perTrialBonusThreshold":0.05,"exampleCost":0.01},"classroomParams":{"A":{"a":1,"b":4},"B":{"a":4,"b":1},"C":{"a":2,"b":8},"D":{"a":8,"b":2}},"conditions":["nonSeqFull","nonSeqPartial","seqNoFeedback","seqFeedback"],"classroomPairings":[["A","B"],["C","D"]],"coinWeights":[0.2,0.5,0.8],"subjectId":"A1WH32GYQOHIRQ","assignmentId":"33LK57MYLUR8HL7DBB0U5XYF10LSZD","hitId":"3FJ2RVH25ZSYKBA8MWMNC8NVPF629N","url":"https://gershmanlab.com/experiments/alicia/teaching/experiment/?hitId=3FJ2RVH25ZSYKBA8MWMNC8NVPF629N&workerId=A1WH32GYQOHIRQ&assignmentId=33LK57MYLUR8HL7DBB0U5XYF10LSZD&a=Y5L37&tp_a=Y5L37&b=33LK57MYLUR8HL7DBB0U5XYF10LSZD&tp_b=33LK57MYLUR8HL7DBB0U5XYF10LSZD&c=365717&tp_c=365717","heads":2,"tails":8,"studentIndex":11,"studentTrueHypers":{"a":8,"b":2},"studentGuess":0.5,"delta":0.30000000000000004,"totalExamples":10,"bonus":0,"bonusSoFar":1.17},{"rt":10992,"response":{"heads":"1","tails":"1"},"type":"response","condition":"seqNoFeedback","trueTheta":0.2,"classrooms":["C","D"],"studentTrueClassroom":"C","exampleSet":"first","trial_type":"survey-html-form","trial_index":91,"time_elapsed":884340,"internal_node_id":"0.0-87.0-0.0","params":{"nStudents":24,"maxFlips":30,"completionMinutes":45,"basePay":8,"maxBonus":9,"perTrialBonus":0.5,"perTrialBonusThreshold":0.05,"exampleCost":0.01},"classroomParams":{"A":{"a":1,"b":4},"B":{"a":4,"b":1},"C":{"a":2,"b":8},"D":{"a":8,"b":2}},"conditions":["nonSeqFull","nonSeqPartial","seqNoFeedback","seqFeedback"],"classroomPairings":[["A","B"],["C","D"]],"coinWeights":[0.2,0.5,0.8],"subjectId":"A1WH32GYQOHIRQ","assignmentId":"33LK57MYLUR8HL7DBB0U5XYF10LSZD","hitId":"3FJ2RVH25ZSYKBA8MWMNC8NVPF629N","url":"https://gershmanlab.com/experiments/alicia/teaching/experiment/?hitId=3FJ2RVH25ZSYKBA8MWMNC8NVPF629N&workerId=A1WH32GYQOHIRQ&assignmentId=33LK57MYLUR8HL7DBB0U5XYF10LSZD&a=Y5L37&tp_a=Y5L37&b=33LK57MYLUR8HL7DBB0U5XYF10LSZD&tp_b=33LK57MYLUR8HL7DBB0U5XYF10LSZD&c=365717&tp_c=365717","heads":1,"tails":1,"studentIndex":12,"studentTrueHypers":{"a":2,"b":8},"studentGuess":0.25,"delta":0.04999999999999999,"totalExamples":2,"bonusSoFar":1.17},{"rt":13902,"response":{"heads":"5","tails":"5"},"type":"response","condition":"seqNoFeedback","trueTheta":0.2,"classrooms":["C","D"],"studentTrueClassroom":"C","exampleSet":"second","trial_type":"survey-html-form","trial_index":94,"time_elapsed":904253,"internal_node_id":"0.0-90.0-0.0","params":{"nStudents":24,"maxFlips":30,"completionMinutes":45,"basePay":8,"maxBonus":9,"perTrialBonus":0.5,"perTrialBonusThreshold":0.05,"exampleCost":0.01},"classroomParams":{"A":{"a":1,"b":4},"B":{"a":4,"b":1},"C":{"a":2,"b":8},"D":{"a":8,"b":2}},"conditions":["nonSeqFull","nonSeqPartial","seqNoFeedback","seqFeedback"],"classroomPairings":[["A","B"],["C","D"]],"coinWeights":[0.2,0.5,0.8],"subjectId":"A1WH32GYQOHIRQ","assignmentId":"33LK57MYLUR8HL7DBB0U5XYF10LSZD","hitId":"3FJ2RVH25ZSYKBA8MWMNC8NVPF629N","url":"https://gershmanlab.com/experiments/alicia/teaching/experiment/?hitId=3FJ2RVH25ZSYKBA8MWMNC8NVPF629N&workerId=A1WH32GYQOHIRQ&assignmentId=33LK57MYLUR8HL7DBB0U5XYF10LSZD&a=Y5L37&tp_a=Y5L37&b=33LK57MYLUR8HL7DBB0U5XYF10LSZD&tp_b=33LK57MYLUR8HL7DBB0U5XYF10LSZD&c=365717&tp_c=365717","firstResponseHeads":1,"firstResponseTails":1,"secondResponseHeads":5,"secondResponseTails":5,"totalHeads":6,"totalTails":6,"studentIndex":12,"studentTrueHypers":{"a":2,"b":8},"studentGuess":0.36363636363636365,"delta":0.16363636363636364,"bonus":0,"bonusSoFar":1.17,"totalExamples":12},{"rt":7618,"response":{"heads":"5","tails":"5"},"type":"response","condition":"seqFeedback","trueTheta":0.8,"classrooms":["A","B"],"studentTrueClassroom":"A","exampleSet":"first","trial_type":"survey-html-form","trial_index":100,"time_elapsed":951413,"internal_node_id":"0.0-96.0-0.0","params":{"nStudents":24,"maxFlips":30,"completionMinutes":45,"basePay":8,"maxBonus":9,"perTrialBonus":0.5,"perTrialBonusThreshold":0.05,"exampleCost":0.01},"classroomParams":{"A":{"a":1,"b":4},"B":{"a":4,"b":1},"C":{"a":2,"b":8},"D":{"a":8,"b":2}},"conditions":["nonSeqFull","nonSeqPartial","seqNoFeedback","seqFeedback"],"classroomPairings":[["A","B"],["C","D"]],"coinWeights":[0.2,0.5,0.8],"subjectId":"A1WH32GYQOHIRQ","assignmentId":"33LK57MYLUR8HL7DBB0U5XYF10LSZD","hitId":"3FJ2RVH25ZSYKBA8MWMNC8NVPF629N","url":"https://gershmanlab.com/experiments/alicia/teaching/experiment/?hitId=3FJ2RVH25ZSYKBA8MWMNC8NVPF629N&workerId=A1WH32GYQOHIRQ&assignmentId=33LK57MYLUR8HL7DBB0U5XYF10LSZD&a=Y5L37&tp_a=Y5L37&b=33LK57MYLUR8HL7DBB0U5XYF10LSZD&tp_b=33LK57MYLUR8HL7DBB0U5XYF10LSZD&c=365717&tp_c=365717","heads":5,"tails":5,"studentIndex":13,"studentTrueHypers":{"a":1,"b":4},"studentGuess":0.4,"delta":0.4,"totalExamples":10,"bonusSoFar":1.17},{"rt":5370,"response":{"heads":"5","tails":"5"},"type":"response","condition":"seqFeedback","trueTheta":0.8,"classrooms":["A","B"],"studentTrueClassroom":"A","exampleSet":"second","trial_type":"survey-html-form","trial_index":104,"time_elapsed":979780,"internal_node_id":"0.0-100.0-0.0","params":{"nStudents":24,"maxFlips":30,"completionMinutes":45,"basePay":8,"maxBonus":9,"perTrialBonus":0.5,"perTrialBonusThreshold":0.05,"exampleCost":0.01},"classroomParams":{"A":{"a":1,"b":4},"B":{"a":4,"b":1},"C":{"a":2,"b":8},"D":{"a":8,"b":2}},"conditions":["nonSeqFull","nonSeqPartial","seqNoFeedback","seqFeedback"],"classroomPairings":[["A","B"],["C","D"]],"coinWeights":[0.2,0.5,0.8],"subjectId":"A1WH32GYQOHIRQ","assignmentId":"33LK57MYLUR8HL7DBB0U5XYF10LSZD","hitId":"3FJ2RVH25ZSYKBA8MWMNC8NVPF629N","url":"https://gershmanlab.com/experiments/alicia/teaching/experiment/?hitId=3FJ2RVH25ZSYKBA8MWMNC8NVPF629N&workerId=A1WH32GYQOHIRQ&assignmentId=33LK57MYLUR8HL7DBB0U5XYF10LSZD&a=Y5L37&tp_a=Y5L37&b=33LK57MYLUR8HL7DBB0U5XYF10LSZD&tp_b=33LK57MYLUR8HL7DBB0U5XYF10LSZD&c=365717&tp_c=365717","firstResponseHeads":5,"firstResponseTails":5,"secondResponseHeads":5,"secondResponseTails":5,"totalHeads":10,"totalTails":10,"studentIndex":13,"studentTrueHypers":{"a":1,"b":4},"studentGuess":0.44,"delta":0.36000000000000004,"bonus":0,"bonusSoFar":1.17,"totalExamples":20},{"rt":13612,"response":{"heads":"5","tails":"1"},"type":"response","condition":"seqNoFeedback","trueTheta":0.5,"classrooms":["A","B"],"studentTrueClassroom":"B","exampleSet":"first","trial_type":"survey-html-form","trial_index":110,"time_elapsed":1013494,"internal_node_id":"0.0-106.0-0.0","params":{"nStudents":24,"maxFlips":30,"completionMinutes":45,"basePay":8,"maxBonus":9,"perTrialBonus":0.5,"perTrialBonusThreshold":0.05,"exampleCost":0.01},"classroomParams":{"A":{"a":1,"b":4},"B":{"a":4,"b":1},"C":{"a":2,"b":8},"D":{"a":8,"b":2}},"conditions":["nonSeqFull","nonSeqPartial","seqNoFeedback","seqFeedback"],"classroomPairings":[["A","B"],["C","D"]],"coinWeights":[0.2,0.5,0.8],"subjectId":"A1WH32GYQOHIRQ","assignmentId":"33LK57MYLUR8HL7DBB0U5XYF10LSZD","hitId":"3FJ2RVH25ZSYKBA8MWMNC8NVPF629N","url":"https://gershmanlab.com/experiments/alicia/teaching/experiment/?hitId=3FJ2RVH25ZSYKBA8MWMNC8NVPF629N&workerId=A1WH32GYQOHIRQ&assignmentId=33LK57MYLUR8HL7DBB0U5XYF10LSZD&a=Y5L37&tp_a=Y5L37&b=33LK57MYLUR8HL7DBB0U5XYF10LSZD&tp_b=33LK57MYLUR8HL7DBB0U5XYF10LSZD&c=365717&tp_c=365717","heads":5,"tails":1,"studentIndex":14,"studentTrueHypers":{"a":4,"b":1},"studentGuess":0.8181818181818182,"delta":0.31818181818181823,"totalExamples":6,"bonusSoFar":1.17},{"rt":15045,"response":{"heads":"5","tails":"5"},"type":"response","condition":"seqNoFeedback","trueTheta":0.5,"classrooms":["A","B"],"studentTrueClassroom":"B","exampleSet":"second","trial_type":"survey-html-form","trial_index":113,"time_elapsed":1034940,"internal_node_id":"0.0-109.0-0.0","params":{"nStudents":24,"maxFlips":30,"completionMinutes":45,"basePay":8,"maxBonus":9,"perTrialBonus":0.5,"perTrialBonusThreshold":0.05,"exampleCost":0.01},"classroomParams":{"A":{"a":1,"b":4},"B":{"a":4,"b":1},"C":{"a":2,"b":8},"D":{"a":8,"b":2}},"conditions":["nonSeqFull","nonSeqPartial","seqNoFeedback","seqFeedback"],"classroomPairings":[["A","B"],["C","D"]],"coinWeights":[0.2,0.5,0.8],"subjectId":"A1WH32GYQOHIRQ","assignmentId":"33LK57MYLUR8HL7DBB0U5XYF10LSZD","hitId":"3FJ2RVH25ZSYKBA8MWMNC8NVPF629N","url":"https://gershmanlab.com/experiments/alicia/teaching/experiment/?hitId=3FJ2RVH25ZSYKBA8MWMNC8NVPF629N&workerId=A1WH32GYQOHIRQ&assignmentId=33LK57MYLUR8HL7DBB0U5XYF10LSZD&a=Y5L37&tp_a=Y5L37&b=33LK57MYLUR8HL7DBB0U5XYF10LSZD&tp_b=33LK57MYLUR8HL7DBB0U5XYF10LSZD&c=365717&tp_c=365717","firstResponseHeads":5,"firstResponseTails":1,"secondResponseHeads":5,"secondResponseTails":5,"totalHeads":10,"totalTails":6,"studentIndex":14,"studentTrueHypers":{"a":4,"b":1},"studentGuess":0.6666666666666666,"delta":0.16666666666666663,"bonus":0,"bonusSoFar":1.17,"totalExamples":16},{"rt":7382,"response":{"heads":"2","tails":"5"},"type":"response","condition":"seqFeedback","trueTheta":0.2,"classrooms":["A","B"],"studentTrueClassroom":"A","exampleSet":"first","trial_type":"survey-html-form","trial_index":119,"time_elapsed":1057774,"internal_node_id":"0.0-115.0-0.0","params":{"nStudents":24,"maxFlips":30,"completionMinutes":45,"basePay":8,"maxBonus":9,"perTrialBonus":0.5,"perTrialBonusThreshold":0.05,"exampleCost":0.01},"classroomParams":{"A":{"a":1,"b":4},"B":{"a":4,"b":1},"C":{"a":2,"b":8},"D":{"a":8,"b":2}},"conditions":["nonSeqFull","nonSeqPartial","seqNoFeedback","seqFeedback"],"classroomPairings":[["A","B"],["C","D"]],"coinWeights":[0.2,0.5,0.8],"subjectId":"A1WH32GYQOHIRQ","assignmentId":"33LK57MYLUR8HL7DBB0U5XYF10LSZD","hitId":"3FJ2RVH25ZSYKBA8MWMNC8NVPF629N","url":"https://gershmanlab.com/experiments/alicia/teaching/experiment/?hitId=3FJ2RVH25ZSYKBA8MWMNC8NVPF629N&workerId=A1WH32GYQOHIRQ&assignmentId=33LK57MYLUR8HL7DBB0U5XYF10LSZD&a=Y5L37&tp_a=Y5L37&b=33LK57MYLUR8HL7DBB0U5XYF10LSZD&tp_b=33LK57MYLUR8HL7DBB0U5XYF10LSZD&c=365717&tp_c=365717","heads":2,"tails":5,"studentIndex":15,"studentTrueHypers":{"a":1,"b":4},"studentGuess":0.25,"delta":0.04999999999999999,"totalExamples":7,"bonusSoFar":1.17},{"rt":7170,"response":{"heads":"0","tails":"5"},"type":"response","condition":"seqFeedback","trueTheta":0.2,"classrooms":["A","B"],"studentTrueClassroom":"A","exampleSet":"second","trial_type":"survey-html-form","trial_index":123,"time_elapsed":1082125,"internal_node_id":"0.0-119.0-0.0","params":{"nStudents":24,"maxFlips":30,"completionMinutes":45,"basePay":8,"maxBonus":9,"perTrialBonus":0.5,"perTrialBonusThreshold":0.05,"exampleCost":0.01},"classroomParams":{"A":{"a":1,"b":4},"B":{"a":4,"b":1},"C":{"a":2,"b":8},"D":{"a":8,"b":2}},"conditions":["nonSeqFull","nonSeqPartial","seqNoFeedback","seqFeedback"],"classroomPairings":[["A","B"],["C","D"]],"coinWeights":[0.2,0.5,0.8],"subjectId":"A1WH32GYQOHIRQ","assignmentId":"33LK57MYLUR8HL7DBB0U5XYF10LSZD","hitId":"3FJ2RVH25ZSYKBA8MWMNC8NVPF629N","url":"https://gershmanlab.com/experiments/alicia/teaching/experiment/?hitId=3FJ2RVH25ZSYKBA8MWMNC8NVPF629N&workerId=A1WH32GYQOHIRQ&assignmentId=33LK57MYLUR8HL7DBB0U5XYF10LSZD&a=Y5L37&tp_a=Y5L37&b=33LK57MYLUR8HL7DBB0U5XYF10LSZD&tp_b=33LK57MYLUR8HL7DBB0U5XYF10LSZD&c=365717&tp_c=365717","firstResponseHeads":2,"firstResponseTails":5,"secondResponseHeads":0,"secondResponseTails":5,"totalHeads":2,"totalTails":10,"studentIndex":15,"studentTrueHypers":{"a":1,"b":4},"studentGuess":0.17647058823529413,"delta":0.023529411764705882,"bonus":0.38,"bonusSoFar":1.55,"totalExamples":12},{"rt":5946,"response":{"heads":"5","tails":"1"},"type":"response","condition":"seqNoFeedback","trueTheta":0.5,"classrooms":["C","D"],"studentTrueClassroom":"D","exampleSet":"first","trial_type":"survey-html-form","trial_index":129,"time_elapsed":1103466,"internal_node_id":"0.0-125.0-0.0","params":{"nStudents":24,"maxFlips":30,"completionMinutes":45,"basePay":8,"maxBonus":9,"perTrialBonus":0.5,"perTrialBonusThreshold":0.05,"exampleCost":0.01},"classroomParams":{"A":{"a":1,"b":4},"B":{"a":4,"b":1},"C":{"a":2,"b":8},"D":{"a":8,"b":2}},"conditions":["nonSeqFull","nonSeqPartial","seqNoFeedback","seqFeedback"],"classroomPairings":[["A","B"],["C","D"]],"coinWeights":[0.2,0.5,0.8],"subjectId":"A1WH32GYQOHIRQ","assignmentId":"33LK57MYLUR8HL7DBB0U5XYF10LSZD","hitId":"3FJ2RVH25ZSYKBA8MWMNC8NVPF629N","url":"https://gershmanlab.com/experiments/alicia/teaching/experiment/?hitId=3FJ2RVH25ZSYKBA8MWMNC8NVPF629N&workerId=A1WH32GYQOHIRQ&assignmentId=33LK57MYLUR8HL7DBB0U5XYF10LSZD&a=Y5L37&tp_a=Y5L37&b=33LK57MYLUR8HL7DBB0U5XYF10LSZD&tp_b=33LK57MYLUR8HL7DBB0U5XYF10LSZD&c=365717&tp_c=365717","heads":5,"tails":1,"studentIndex":16,"studentTrueHypers":{"a":8,"b":2},"studentGuess":0.8125,"delta":0.3125,"totalExamples":6,"bonusSoFar":1.55},{"rt":12905,"response":{"heads":"1","tails":"5"},"type":"response","condition":"seqNoFeedback","trueTheta":0.5,"classrooms":["C","D"],"studentTrueClassroom":"D","exampleSet":"second","trial_type":"survey-html-form","trial_index":132,"time_elapsed":1122630,"internal_node_id":"0.0-128.0-0.0","params":{"nStudents":24,"maxFlips":30,"completionMinutes":45,"basePay":8,"maxBonus":9,"perTrialBonus":0.5,"perTrialBonusThreshold":0.05,"exampleCost":0.01},"classroomParams":{"A":{"a":1,"b":4},"B":{"a":4,"b":1},"C":{"a":2,"b":8},"D":{"a":8,"b":2}},"conditions":["nonSeqFull","nonSeqPartial","seqNoFeedback","seqFeedback"],"classroomPairings":[["A","B"],["C","D"]],"coinWeights":[0.2,0.5,0.8],"subjectId":"A1WH32GYQOHIRQ","assignmentId":"33LK57MYLUR8HL7DBB0U5XYF10LSZD","hitId":"3FJ2RVH25ZSYKBA8MWMNC8NVPF629N","url":"https://gershmanlab.com/experiments/alicia/teaching/experiment/?hitId=3FJ2RVH25ZSYKBA8MWMNC8NVPF629N&workerId=A1WH32GYQOHIRQ&assignmentId=33LK57MYLUR8HL7DBB0U5XYF10LSZD&a=Y5L37&tp_a=Y5L37&b=33LK57MYLUR8HL7DBB0U5XYF10LSZD&tp_b=33LK57MYLUR8HL7DBB0U5XYF10LSZD&c=365717&tp_c=365717","firstResponseHeads":5,"firstResponseTails":1,"secondResponseHeads":1,"secondResponseTails":5,"totalHeads":6,"totalTails":6,"studentIndex":16,"studentTrueHypers":{"a":8,"b":2},"studentGuess":0.6363636363636364,"delta":0.13636363636363635,"bonus":0,"bonusSoFar":1.55,"totalExamples":12},{"rt":8270,"response":{"heads":"5","tails":"5"},"type":"response","condition":"seqFeedback","trueTheta":0.5,"classrooms":["A","B"],"studentTrueClassroom":"B","exampleSet":"first","trial_type":"survey-html-form","trial_index":138,"time_elapsed":1153835,"internal_node_id":"0.0-134.0-0.0","params":{"nStudents":24,"maxFlips":30,"completionMinutes":45,"basePay":8,"maxBonus":9,"perTrialBonus":0.5,"perTrialBonusThreshold":0.05,"exampleCost":0.01},"classroomParams":{"A":{"a":1,"b":4},"B":{"a":4,"b":1},"C":{"a":2,"b":8},"D":{"a":8,"b":2}},"conditions":["nonSeqFull","nonSeqPartial","seqNoFeedback","seqFeedback"],"classroomPairings":[["A","B"],["C","D"]],"coinWeights":[0.2,0.5,0.8],"subjectId":"A1WH32GYQOHIRQ","assignmentId":"33LK57MYLUR8HL7DBB0U5XYF10LSZD","hitId":"3FJ2RVH25ZSYKBA8MWMNC8NVPF629N","url":"https://gershmanlab.com/experiments/alicia/teaching/experiment/?hitId=3FJ2RVH25ZSYKBA8MWMNC8NVPF629N&workerId=A1WH32GYQOHIRQ&assignmentId=33LK57MYLUR8HL7DBB0U5XYF10LSZD&a=Y5L37&tp_a=Y5L37&b=33LK57MYLUR8HL7DBB0U5XYF10LSZD&tp_b=33LK57MYLUR8HL7DBB0U5XYF10LSZD&c=365717&tp_c=365717","heads":5,"tails":5,"studentIndex":17,"studentTrueHypers":{"a":4,"b":1},"studentGuess":0.6,"delta":0.09999999999999998,"totalExamples":10,"bonusSoFar":1.55},{"rt":10683,"response":{"heads":"1","tails":"5"},"type":"response","condition":"seqFeedback","trueTheta":0.5,"classrooms":["A","B"],"studentTrueClassroom":"B","exampleSet":"second","trial_type":"survey-html-form","trial_index":142,"time_elapsed":1183402,"internal_node_id":"0.0-138.0-0.0","params":{"nStudents":24,"maxFlips":30,"completionMinutes":45,"basePay":8,"maxBonus":9,"perTrialBonus":0.5,"perTrialBonusThreshold":0.05,"exampleCost":0.01},"classroomParams":{"A":{"a":1,"b":4},"B":{"a":4,"b":1},"C":{"a":2,"b":8},"D":{"a":8,"b":2}},"conditions":["nonSeqFull","nonSeqPartial","seqNoFeedback","seqFeedback"],"classroomPairings":[["A","B"],["C","D"]],"coinWeights":[0.2,0.5,0.8],"subjectId":"A1WH32GYQOHIRQ","assignmentId":"33LK57MYLUR8HL7DBB0U5XYF10LSZD","hitId":"3FJ2RVH25ZSYKBA8MWMNC8NVPF629N","url":"https://gershmanlab.com/experiments/alicia/teaching/experiment/?hitId=3FJ2RVH25ZSYKBA8MWMNC8NVPF629N&workerId=A1WH32GYQOHIRQ&assignmentId=33LK57MYLUR8HL7DBB0U5XYF10LSZD&a=Y5L37&tp_a=Y5L37&b=33LK57MYLUR8HL7DBB0U5XYF10LSZD&tp_b=33LK57MYLUR8HL7DBB0U5XYF10LSZD&c=365717&tp_c=365717","firstResponseHeads":5,"firstResponseTails":5,"secondResponseHeads":1,"secondResponseTails":5,"totalHeads":6,"totalTails":10,"studentIndex":17,"studentTrueHypers":{"a":4,"b":1},"studentGuess":0.47619047619047616,"delta":0.023809523809523836,"bonus":0.34,"bonusSoFar":1.89,"totalExamples":16},{"rt":12771,"response":{"heads":"5","tails":"5"},"type":"response","condition":"nonSeqPartial","trueTheta":0.5,"classrooms":["A","B"],"studentTrueClassroom":"A","exampleSet":"first","trial_type":"survey-html-form","trial_index":148,"time_elapsed":1215636,"internal_node_id":"0.0-144.0-0.0","params":{"nStudents":24,"maxFlips":30,"completionMinutes":45,"basePay":8,"maxBonus":9,"perTrialBonus":0.5,"perTrialBonusThreshold":0.05,"exampleCost":0.01},"classroomParams":{"A":{"a":1,"b":4},"B":{"a":4,"b":1},"C":{"a":2,"b":8},"D":{"a":8,"b":2}},"conditions":["nonSeqFull","nonSeqPartial","seqNoFeedback","seqFeedback"],"classroomPairings":[["A","B"],["C","D"]],"coinWeights":[0.2,0.5,0.8],"subjectId":"A1WH32GYQOHIRQ","assignmentId":"33LK57MYLUR8HL7DBB0U5XYF10LSZD","hitId":"3FJ2RVH25ZSYKBA8MWMNC8NVPF629N","url":"https://gershmanlab.com/experiments/alicia/teaching/experiment/?hitId=3FJ2RVH25ZSYKBA8MWMNC8NVPF629N&workerId=A1WH32GYQOHIRQ&assignmentId=33LK57MYLUR8HL7DBB0U5XYF10LSZD&a=Y5L37&tp_a=Y5L37&b=33LK57MYLUR8HL7DBB0U5XYF10LSZD&tp_b=33LK57MYLUR8HL7DBB0U5XYF10LSZD&c=365717&tp_c=365717","heads":5,"tails":5,"studentIndex":18,"studentTrueHypers":{"a":1,"b":4},"studentGuess":0.4,"delta":0.09999999999999998,"totalExamples":10,"bonus":0,"bonusSoFar":1.89},{"rt":8091,"response":{"heads":"5","tails":"5"},"type":"response","condition":"seqFeedback","trueTheta":0.5,"classrooms":["C","D"],"studentTrueClassroom":"D","exampleSet":"first","trial_type":"survey-html-form","trial_index":154,"time_elapsed":1240459,"internal_node_id":"0.0-150.0-0.0","params":{"nStudents":24,"maxFlips":30,"completionMinutes":45,"basePay":8,"maxBonus":9,"perTrialBonus":0.5,"perTrialBonusThreshold":0.05,"exampleCost":0.01},"classroomParams":{"A":{"a":1,"b":4},"B":{"a":4,"b":1},"C":{"a":2,"b":8},"D":{"a":8,"b":2}},"conditions":["nonSeqFull","nonSeqPartial","seqNoFeedback","seqFeedback"],"classroomPairings":[["A","B"],["C","D"]],"coinWeights":[0.2,0.5,0.8],"subjectId":"A1WH32GYQOHIRQ","assignmentId":"33LK57MYLUR8HL7DBB0U5XYF10LSZD","hitId":"3FJ2RVH25ZSYKBA8MWMNC8NVPF629N","url":"https://gershmanlab.com/experiments/alicia/teaching/experiment/?hitId=3FJ2RVH25ZSYKBA8MWMNC8NVPF629N&workerId=A1WH32GYQOHIRQ&assignmentId=33LK57MYLUR8HL7DBB0U5XYF10LSZD&a=Y5L37&tp_a=Y5L37&b=33LK57MYLUR8HL7DBB0U5XYF10LSZD&tp_b=33LK57MYLUR8HL7DBB0U5XYF10LSZD&c=365717&tp_c=365717","heads":5,"tails":5,"studentIndex":19,"studentTrueHypers":{"a":8,"b":2},"studentGuess":0.65,"delta":0.15000000000000002,"totalExamples":10,"bonusSoFar":1.89},{"rt":10958,"response":{"heads":"0","tails":"5"},"type":"response","condition":"seqFeedback","trueTheta":0.5,"classrooms":["C","D"],"studentTrueClassroom":"D","exampleSet":"second","trial_type":"survey-html-form","trial_index":158,"time_elapsed":1279945,"internal_node_id":"0.0-154.0-0.0","params":{"nStudents":24,"maxFlips":30,"completionMinutes":45,"basePay":8,"maxBonus":9,"perTrialBonus":0.5,"perTrialBonusThreshold":0.05,"exampleCost":0.01},"classroomParams":{"A":{"a":1,"b":4},"B":{"a":4,"b":1},"C":{"a":2,"b":8},"D":{"a":8,"b":2}},"conditions":["nonSeqFull","nonSeqPartial","seqNoFeedback","seqFeedback"],"classroomPairings":[["A","B"],["C","D"]],"coinWeights":[0.2,0.5,0.8],"subjectId":"A1WH32GYQOHIRQ","assignmentId":"33LK57MYLUR8HL7DBB0U5XYF10LSZD","hitId":"3FJ2RVH25ZSYKBA8MWMNC8NVPF629N","url":"https://gershmanlab.com/experiments/alicia/teaching/experiment/?hitId=3FJ2RVH25ZSYKBA8MWMNC8NVPF629N&workerId=A1WH32GYQOHIRQ&assignmentId=33LK57MYLUR8HL7DBB0U5XYF10LSZD&a=Y5L37&tp_a=Y5L37&b=33LK57MYLUR8HL7DBB0U5XYF10LSZD&tp_b=33LK57MYLUR8HL7DBB0U5XYF10LSZD&c=365717&tp_c=365717","firstResponseHeads":5,"firstResponseTails":5,"secondResponseHeads":0,"secondResponseTails":5,"totalHeads":5,"totalTails":10,"studentIndex":19,"studentTrueHypers":{"a":8,"b":2},"studentGuess":0.52,"delta":0.020000000000000018,"bonus":0.35,"bonusSoFar":2.24,"totalExamples":15},{"rt":8659,"response":{"heads":"5","tails":"2"},"type":"response","condition":"seqFeedback","trueTheta":0.8,"classrooms":["C","D"],"studentTrueClassroom":"D","exampleSet":"first","trial_type":"survey-html-form","trial_index":164,"time_elapsed":1305388,"internal_node_id":"0.0-160.0-0.0","params":{"nStudents":24,"maxFlips":30,"completionMinutes":45,"basePay":8,"maxBonus":9,"perTrialBonus":0.5,"perTrialBonusThreshold":0.05,"exampleCost":0.01},"classroomParams":{"A":{"a":1,"b":4},"B":{"a":4,"b":1},"C":{"a":2,"b":8},"D":{"a":8,"b":2}},"conditions":["nonSeqFull","nonSeqPartial","seqNoFeedback","seqFeedback"],"classroomPairings":[["A","B"],["C","D"]],"coinWeights":[0.2,0.5,0.8],"subjectId":"A1WH32GYQOHIRQ","assignmentId":"33LK57MYLUR8HL7DBB0U5XYF10LSZD","hitId":"3FJ2RVH25ZSYKBA8MWMNC8NVPF629N","url":"https://gershmanlab.com/experiments/alicia/teaching/experiment/?hitId=3FJ2RVH25ZSYKBA8MWMNC8NVPF629N&workerId=A1WH32GYQOHIRQ&assignmentId=33LK57MYLUR8HL7DBB0U5XYF10LSZD&a=Y5L37&tp_a=Y5L37&b=33LK57MYLUR8HL7DBB0U5XYF10LSZD&tp_b=33LK57MYLUR8HL7DBB0U5XYF10LSZD&c=365717&tp_c=365717","heads":5,"tails":2,"studentIndex":20,"studentTrueHypers":{"a":8,"b":2},"studentGuess":0.7647058823529411,"delta":0.03529411764705892,"totalExamples":7,"bonusSoFar":2.24},{"rt":7789,"response":{"heads":"3","tails":"0"},"type":"response","condition":"seqFeedback","trueTheta":0.8,"classrooms":["C","D"],"studentTrueClassroom":"D","exampleSet":"second","trial_type":"survey-html-form","trial_index":168,"time_elapsed":1324319,"internal_node_id":"0.0-164.0-0.0","params":{"nStudents":24,"maxFlips":30,"completionMinutes":45,"basePay":8,"maxBonus":9,"perTrialBonus":0.5,"perTrialBonusThreshold":0.05,"exampleCost":0.01},"classroomParams":{"A":{"a":1,"b":4},"B":{"a":4,"b":1},"C":{"a":2,"b":8},"D":{"a":8,"b":2}},"conditions":["nonSeqFull","nonSeqPartial","seqNoFeedback","seqFeedback"],"classroomPairings":[["A","B"],["C","D"]],"coinWeights":[0.2,0.5,0.8],"subjectId":"A1WH32GYQOHIRQ","assignmentId":"33LK57MYLUR8HL7DBB0U5XYF10LSZD","hitId":"3FJ2RVH25ZSYKBA8MWMNC8NVPF629N","url":"https://gershmanlab.com/experiments/alicia/teaching/experiment/?hitId=3FJ2RVH25ZSYKBA8MWMNC8NVPF629N&workerId=A1WH32GYQOHIRQ&assignmentId=33LK57MYLUR8HL7DBB0U5XYF10LSZD&a=Y5L37&tp_a=Y5L37&b=33LK57MYLUR8HL7DBB0U5XYF10LSZD&tp_b=33LK57MYLUR8HL7DBB0U5XYF10LSZD&c=365717&tp_c=365717","firstResponseHeads":5,"firstResponseTails":2,"secondResponseHeads":3,"secondResponseTails":0,"totalHeads":8,"totalTails":2,"studentIndex":20,"studentTrueHypers":{"a":8,"b":2},"studentGuess":0.8,"delta":0,"bonus":0.4,"bonusSoFar":2.64,"totalExamples":10},{"rt":9790,"response":{"heads":"0","tails":"10"},"type":"response","condition":"nonSeqFull","trueTheta":0.2,"classrooms":["C","D"],"studentTrueClassroom":"D","exampleSet":"first","trial_type":"survey-html-form","trial_index":174,"time_elapsed":1349371,"internal_node_id":"0.0-170.0-0.0","params":{"nStudents":24,"maxFlips":30,"completionMinutes":45,"basePay":8,"maxBonus":9,"perTrialBonus":0.5,"perTrialBonusThreshold":0.05,"exampleCost":0.01},"classroomParams":{"A":{"a":1,"b":4},"B":{"a":4,"b":1},"C":{"a":2,"b":8},"D":{"a":8,"b":2}},"conditions":["nonSeqFull","nonSeqPartial","seqNoFeedback","seqFeedback"],"classroomPairings":[["A","B"],["C","D"]],"coinWeights":[0.2,0.5,0.8],"subjectId":"A1WH32GYQOHIRQ","assignmentId":"33LK57MYLUR8HL7DBB0U5XYF10LSZD","hitId":"3FJ2RVH25ZSYKBA8MWMNC8NVPF629N","url":"https://gershmanlab.com/experiments/alicia/teaching/experiment/?hitId=3FJ2RVH25ZSYKBA8MWMNC8NVPF629N&workerId=A1WH32GYQOHIRQ&assignmentId=33LK57MYLUR8HL7DBB0U5XYF10LSZD&a=Y5L37&tp_a=Y5L37&b=33LK57MYLUR8HL7DBB0U5XYF10LSZD&tp_b=33LK57MYLUR8HL7DBB0U5XYF10LSZD&c=365717&tp_c=365717","heads":0,"tails":10,"studentIndex":21,"studentTrueHypers":{"a":8,"b":2},"studentGuess":0.4,"delta":0.2,"totalExamples":10,"bonus":0,"bonusSoFar":2.64},{"rt":12300,"response":{"heads":"1","tails":"5"},"type":"response","condition":"seqFeedback","trueTheta":0.2,"classrooms":["C","D"],"studentTrueClassroom":"C","exampleSet":"first","trial_type":"survey-html-form","trial_index":180,"time_elapsed":1380310,"internal_node_id":"0.0-176.0-0.0","params":{"nStudents":24,"maxFlips":30,"completionMinutes":45,"basePay":8,"maxBonus":9,"perTrialBonus":0.5,"perTrialBonusThreshold":0.05,"exampleCost":0.01},"classroomParams":{"A":{"a":1,"b":4},"B":{"a":4,"b":1},"C":{"a":2,"b":8},"D":{"a":8,"b":2}},"conditions":["nonSeqFull","nonSeqPartial","seqNoFeedback","seqFeedback"],"classroomPairings":[["A","B"],["C","D"]],"coinWeights":[0.2,0.5,0.8],"subjectId":"A1WH32GYQOHIRQ","assignmentId":"33LK57MYLUR8HL7DBB0U5XYF10LSZD","hitId":"3FJ2RVH25ZSYKBA8MWMNC8NVPF629N","url":"https://gershmanlab.com/experiments/alicia/teaching/experiment/?hitId=3FJ2RVH25ZSYKBA8MWMNC8NVPF629N&workerId=A1WH32GYQOHIRQ&assignmentId=33LK57MYLUR8HL7DBB0U5XYF10LSZD&a=Y5L37&tp_a=Y5L37&b=33LK57MYLUR8HL7DBB0U5XYF10LSZD&tp_b=33LK57MYLUR8HL7DBB0U5XYF10LSZD&c=365717&tp_c=365717","heads":1,"tails":5,"studentIndex":22,"studentTrueHypers":{"a":2,"b":8},"studentGuess":0.1875,"delta":0.012500000000000011,"totalExamples":6,"bonusSoFar":2.64},{"rt":11348,"response":{"heads":"2","tails":"5"},"type":"response","condition":"seqFeedback","trueTheta":0.2,"classrooms":["C","D"],"studentTrueClassroom":"C","exampleSet":"second","trial_type":"survey-html-form","trial_index":184,"time_elapsed":1427922,"internal_node_id":"0.0-180.0-0.0","params":{"nStudents":24,"maxFlips":30,"completionMinutes":45,"basePay":8,"maxBonus":9,"perTrialBonus":0.5,"perTrialBonusThreshold":0.05,"exampleCost":0.01},"classroomParams":{"A":{"a":1,"b":4},"B":{"a":4,"b":1},"C":{"a":2,"b":8},"D":{"a":8,"b":2}},"conditions":["nonSeqFull","nonSeqPartial","seqNoFeedback","seqFeedback"],"classroomPairings":[["A","B"],["C","D"]],"coinWeights":[0.2,0.5,0.8],"subjectId":"A1WH32GYQOHIRQ","assignmentId":"33LK57MYLUR8HL7DBB0U5XYF10LSZD","hitId":"3FJ2RVH25ZSYKBA8MWMNC8NVPF629N","url":"https://gershmanlab.com/experiments/alicia/teaching/experiment/?hitId=3FJ2RVH25ZSYKBA8MWMNC8NVPF629N&workerId=A1WH32GYQOHIRQ&assignmentId=33LK57MYLUR8HL7DBB0U5XYF10LSZD&a=Y5L37&tp_a=Y5L37&b=33LK57MYLUR8HL7DBB0U5XYF10LSZD&tp_b=33LK57MYLUR8HL7DBB0U5XYF10LSZD&c=365717&tp_c=365717","firstResponseHeads":1,"firstResponseTails":5,"secondResponseHeads":2,"secondResponseTails":5,"totalHeads":3,"totalTails":10,"studentIndex":22,"studentTrueHypers":{"a":2,"b":8},"studentGuess":0.21739130434782608,"delta":0.01739130434782607,"bonus":0.37,"bonusSoFar":3.01,"totalExamples":13},{"rt":4791,"response":{"heads":"5","tails":"5"},"type":"response","condition":"nonSeqPartial","trueTheta":0.8,"classrooms":["C","D"],"studentTrueClassroom":"D","exampleSet":"first","trial_type":"survey-html-form","trial_index":190,"time_elapsed":1451305,"internal_node_id":"0.0-186.0-0.0","params":{"nStudents":24,"maxFlips":30,"completionMinutes":45,"basePay":8,"maxBonus":9,"perTrialBonus":0.5,"perTrialBonusThreshold":0.05,"exampleCost":0.01},"classroomParams":{"A":{"a":1,"b":4},"B":{"a":4,"b":1},"C":{"a":2,"b":8},"D":{"a":8,"b":2}},"conditions":["nonSeqFull","nonSeqPartial","seqNoFeedback","seqFeedback"],"classroomPairings":[["A","B"],["C","D"]],"coinWeights":[0.2,0.5,0.8],"subjectId":"A1WH32GYQOHIRQ","assignmentId":"33LK57MYLUR8HL7DBB0U5XYF10LSZD","hitId":"3FJ2RVH25ZSYKBA8MWMNC8NVPF629N","url":"https://gershmanlab.com/experiments/alicia/teaching/experiment/?hitId=3FJ2RVH25ZSYKBA8MWMNC8NVPF629N&workerId=A1WH32GYQOHIRQ&assignmentId=33LK57MYLUR8HL7DBB0U5XYF10LSZD&a=Y5L37&tp_a=Y5L37&b=33LK57MYLUR8HL7DBB0U5XYF10LSZD&tp_b=33LK57MYLUR8HL7DBB0U5XYF10LSZD&c=365717&tp_c=365717","heads":5,"tails":5,"studentIndex":23,"studentTrueHypers":{"a":8,"b":2},"studentGuess":0.65,"delta":0.15000000000000002,"totalExamples":10,"bonus":0,"bonusSoFar":3.01},{"rt":11171,"response":{"gender":"female","age":"57","understood":"yes","comments":""},"type":"response","trial_type":"survey-html-form","trial_index":194,"time_elapsed":1471331,"internal_node_id":"0.0-191.0","params":{"nStudents":24,"maxFlips":30,"completionMinutes":45,"basePay":8,"maxBonus":9,"perTrialBonus":0.5,"perTrialBonusThreshold":0.05,"exampleCost":0.01},"classroomParams":{"A":{"a":1,"b":4},"B":{"a":4,"b":1},"C":{"a":2,"b":8},"D":{"a":8,"b":2}},"conditions":["nonSeqFull","nonSeqPartial","seqNoFeedback","seqFeedback"],"classroomPairings":[["A","B"],["C","D"]],"coinWeights":[0.2,0.5,0.8],"subjectId":"A1WH32GYQOHIRQ","assignmentId":"33LK57MYLUR8HL7DBB0U5XYF10LSZD","hitId":"3FJ2RVH25ZSYKBA8MWMNC8NVPF629N","url":"https://gershmanlab.com/experiments/alicia/teaching/experiment/?hitId=3FJ2RVH25ZSYKBA8MWMNC8NVPF629N&workerId=A1WH32GYQOHIRQ&assignmentId=33LK57MYLUR8HL7DBB0U5XYF10LSZD&a=Y5L37&tp_a=Y5L37&b=33LK57MYLUR8HL7DBB0U5XYF10LSZD&tp_b=33LK57MYLUR8HL7DBB0U5XYF10LSZD&c=365717&tp_c=365717","totalBonus":3.01}]