[{"rt":80837,"response":{"heads":"3","tails":"7"},"type":"response","condition":"nonSeqPartial","trueTheta":0.2,"classrooms":["C","D"],"studentTrueClassroom":"D","exampleSet":"first","trial_type":"survey-html-form","trial_index":22,"time_elapsed":1614428,"internal_node_id":"0.0-6.0-0.0","params":{"nStudents":24,"maxFlips":30,"completionMinutes":45,"basePay":8,"maxBonus":9,"perTrialBonus":0.5,"perTrialBonusThreshold":0.05,"exampleCost":0.01},"classroomParams":{"A":{"a":1,"b":4},"B":{"a":4,"b":1},"C":{"a":2,"b":8},"D":{"a":8,"b":2}},"conditions":["nonSeqFull","nonSeqPartial","seqNoFeedback","seqFeedback"],"classroomPairings":[["A","B"],["C","D"]],"coinWeights":[0.2,0.5,0.8],"subjectId":"A1WJGO38GJ99ZS","assignmentId":"3ZR9AIQJUCVSDFZCHGRK1VFN5D004N","hitId":"34KYK9TV2RUAD363EVFPUWVPB97SBP","url":"https://gershmanlab.com/experiments/alicia/teaching/experiment/?hitId=34KYK9TV2RUAD363EVFPUWVPB97SBP&workerId=A1WJGO38GJ99ZS&assignmentId=3ZR9AIQJUCVSDFZCHGRK1VFN5D004N&a=JARZ7&tp_a=JARZ7&b=3ZR9AIQJUCVSDFZCHGRK1VFN5D004N&tp_b=3ZR9AIQJUCVSDFZCHGRK1VFN5D004N&c=365717&tp_c=365717","heads":3,"tails":7,"studentIndex":0,"studentTrueHypers":{"a":8,"b":2},"studentGuess":0.55,"delta":0.35000000000000003,"totalExamples":10,"bonus":0,"bonusSoFar":0},{"rt":29781,"response":{"heads":"5","tails":"5"},"type":"response","condition":"nonSeqPartial","trueTheta":0.5,"classrooms":["C","D"],"studentTrueClassroom":"C","exampleSet":"first","trial_type":"survey-html-form","trial_index":28,"time_elapsed":1668116,"internal_node_id":"0.0-12.0-0.0","params":{"nStudents":24,"maxFlips":30,"completionMinutes":45,"basePay":8,"maxBonus":9,"perTrialBonus":0.5,"perTrialBonusThreshold":0.05,"exampleCost":0.01},"classroomParams":{"A":{"a":1,"b":4},"B":{"a":4,"b":1},"C":{"a":2,"b":8},"D":{"a":8,"b":2}},"conditions":["nonSeqFull","nonSeqPartial","seqNoFeedback","seqFeedback"],"classroomPairings":[["A","B"],["C","D"]],"coinWeights":[0.2,0.5,0.8],"subjectId":"A1WJGO38GJ99ZS","assignmentId":"3ZR9AIQJUCVSDFZCHGRK1VFN5D004N","hitId":"34KYK9TV2RUAD363EVFPUWVPB97SBP","url":"https://gershmanlab.com/experiments/alicia/teaching/experiment/?hitId=34KYK9TV2RUAD363EVFPUWVPB97SBP&workerId=A1WJGO38GJ99ZS&assignmentId=3ZR9AIQJUCVSDFZCHGRK1VFN5D004N&a=JARZ7&tp_a=JARZ7&b=3ZR9AIQJUCVSDFZCHGRK1VFN5D004N&tp_b=3ZR9AIQJUCVSDFZCHGRK1VFN5D004N&c=365717&tp_c=365717","heads":5,"tails":5,"studentIndex":1,"studentTrueHypers":{"a":2,"b":8},"studentGuess":0.35,"delta":0.15000000000000002,"totalExamples":10,"bonus":0,"bonusSoFar":0},{"rt":13751,"response":{"heads":"1","tails":"1"},"type":"response","condition":"nonSeqFull","trueTheta":0.5,"classrooms":["A","B"],"studentTrueClassroom":"B","exampleSet":"first","trial_type":"survey-html-form","trial_index":34,"time_elapsed":1700078,"internal_node_id":"0.0-18.0-0.0","params":{"nStudents":24,"maxFlips":30,"completionMinutes":45,"basePay":8,"maxBonus":9,"perTrialBonus":0.5,"perTrialBonusThreshold":0.05,"exampleCost":0.01},"classroomParams":{"A":{"a":1,"b":4},"B":{"a":4,"b":1},"C":{"a":2,"b":8},"D":{"a":8,"b":2}},"conditions":["nonSeqFull","nonSeqPartial","seqNoFeedback","seqFeedback"],"classroomPairings":[["A","B"],["C","D"]],"coinWeights":[0.2,0.5,0.8],"subjectId":"A1WJGO38GJ99ZS","assignmentId":"3ZR9AIQJUCVSDFZCHGRK1VFN5D004N","hitId":"34KYK9TV2RUAD363EVFPUWVPB97SBP","url":"https://gershmanlab.com/experiments/alicia/teaching/experiment/?hitId=34KYK9TV2RUAD363EVFPUWVPB97SBP&workerId=A1WJGO38GJ99ZS&assignmentId=3ZR9AIQJUCVSDFZCHGRK1VFN5D004N&a=JARZ7&tp_a=JARZ7&b=3ZR9AIQJUCVSDFZCHGRK1VFN5D004N&tp_b=3ZR9AIQJUCVSDFZCHGRK1VFN5D004N&c=365717&tp_c=365717","heads":1,"tails":1,"studentIndex":2,"studentTrueHypers":{"a":4,"b":1},"studentGuess":0.7142857142857143,"delta":0.2142857142857143,"totalExamples":2,"bonus":0,"bonusSoFar":0},{"rt":5663,"response":{"heads":"2","tails":"2"},"type":"response","condition":"seqFeedback","trueTheta":0.5,"classrooms":["C","D"],"studentTrueClassroom":"D","exampleSet":"first","trial_type":"survey-html-form","trial_index":40,"time_elapsed":1732787,"internal_node_id":"0.0-24.0-0.0","params":{"nStudents":24,"maxFlips":30,"completionMinutes":45,"basePay":8,"maxBonus":9,"perTrialBonus":0.5,"perTrialBonusThreshold":0.05,"exampleCost":0.01},"classroomParams":{"A":{"a":1,"b":4},"B":{"a":4,"b":1},"C":{"a":2,"b":8},"D":{"a":8,"b":2}},"conditions":["nonSeqFull","nonSeqPartial","seqNoFeedback","seqFeedback"],"classroomPairings":[["A","B"],["C","D"]],"coinWeights":[0.2,0.5,0.8],"subjectId":"A1WJGO38GJ99ZS","assignmentId":"3ZR9AIQJUCVSDFZCHGRK1VFN5D004N","hitId":"34KYK9TV2RUAD363EVFPUWVPB97SBP","url":"https://gershmanlab.com/experiments/alicia/teaching/experiment/?hitId=34KYK9TV2RUAD363EVFPUWVPB97SBP&workerId=A1WJGO38GJ99ZS&assignmentId=3ZR9AIQJUCVSDFZCHGRK1VFN5D004N&a=JARZ7&tp_a=JARZ7&b=3ZR9AIQJUCVSDFZCHGRK1VFN5D004N&tp_b=3ZR9AIQJUCVSDFZCHGRK1VFN5D004N&c=365717&tp_c=365717","heads":2,"tails":2,"studentIndex":3,"studentTrueHypers":{"a":8,"b":2},"studentGuess":0.7142857142857143,"delta":0.2142857142857143,"totalExamples":4,"bonusSoFar":0},{"rt":8164,"response":{"heads":"4","tails":"4"},"type":"response","condition":"seqFeedback","trueTheta":0.5,"classrooms":["C","D"],"studentTrueClassroom":"D","exampleSet":"second","trial_type":"survey-html-form","trial_index":44,"time_elapsed":1753436,"internal_node_id":"0.0-28.0-0.0","params":{"nStudents":24,"maxFlips":30,"completionMinutes":45,"basePay":8,"maxBonus":9,"perTrialBonus":0.5,"perTrialBonusThreshold":0.05,"exampleCost":0.01},"classroomParams":{"A":{"a":1,"b":4},"B":{"a":4,"b":1},"C":{"a":2,"b":8},"D":{"a":8,"b":2}},"conditions":["nonSeqFull","nonSeqPartial","seqNoFeedback","seqFeedback"],"classroomPairings":[["A","B"],["C","D"]],"coinWeights":[0.2,0.5,0.8],"subjectId":"A1WJGO38GJ99ZS","assignmentId":"3ZR9AIQJUCVSDFZCHGRK1VFN5D004N","hitId":"34KYK9TV2RUAD363EVFPUWVPB97SBP","url":"https://gershmanlab.com/experiments/alicia/teaching/experiment/?hitId=34KYK9TV2RUAD363EVFPUWVPB97SBP&workerId=A1WJGO38GJ99ZS&assignmentId=3ZR9AIQJUCVSDFZCHGRK1VFN5D004N&a=JARZ7&tp_a=JARZ7&b=3ZR9AIQJUCVSDFZCHGRK1VFN5D004N&tp_b=3ZR9AIQJUCVSDFZCHGRK1VFN5D004N&c=365717&tp_c=365717","firstResponseHeads":2,"firstResponseTails":2,"secondResponseHeads":4,"secondResponseTails":4,"totalHeads":6,"totalTails":6,"studentIndex":3,"studentTrueHypers":{"a":8,"b":2},"studentGuess":0.6363636363636364,"delta":0.13636363636363635,"bonus":0,"bonusSoFar":0,"totalExamples":12},{"rt":9428,"response":{"heads":"8","tails":"2"},"type":"response","condition":"seqNoFeedback","trueTheta":0.8,"classrooms":["C","D"],"studentTrueClassroom":"D","exampleSet":"first","trial_type":"survey-html-form","trial_index":50,"time_elapsed":1781610,"internal_node_id":"0.0-34.0-0.0","params":{"nStudents":24,"maxFlips":30,"completionMinutes":45,"basePay":8,"maxBonus":9,"perTrialBonus":0.5,"perTrialBonusThreshold":0.05,"exampleCost":0.01},"classroomParams":{"A":{"a":1,"b":4},"B":{"a":4,"b":1},"C":{"a":2,"b":8},"D":{"a":8,"b":2}},"conditions":["nonSeqFull","nonSeqPartial","seqNoFeedback","seqFeedback"],"classroomPairings":[["A","B"],["C","D"]],"coinWeights":[0.2,0.5,0.8],"subjectId":"A1WJGO38GJ99ZS","assignmentId":"3ZR9AIQJUCVSDFZCHGRK1VFN5D004N","hitId":"34KYK9TV2RUAD363EVFPUWVPB97SBP","url":"https://gershmanlab.com/experiments/alicia/teaching/experiment/?hitId=34KYK9TV2RUAD363EVFPUWVPB97SBP&workerId=A1WJGO38GJ99ZS&assignmentId=3ZR9AIQJUCVSDFZCHGRK1VFN5D004N&a=JARZ7&tp_a=JARZ7&b=3ZR9AIQJUCVSDFZCHGRK1VFN5D004N&tp_b=3ZR9AIQJUCVSDFZCHGRK1VFN5D004N&c=365717&tp_c=365717","heads":8,"tails":2,"studentIndex":4,"studentTrueHypers":{"a":8,"b":2},"studentGuess":0.8,"delta":0,"totalExamples":10,"bonusSoFar":0},{"rt":10700,"response":{"heads":"8","tails":"2"},"type":"response","condition":"seqNoFeedback","trueTheta":0.8,"classrooms":["C","D"],"studentTrueClassroom":"D","exampleSet":"second","trial_type":"survey-html-form","trial_index":53,"time_elapsed":1798070,"internal_node_id":"0.0-37.0-0.0","params":{"nStudents":24,"maxFlips":30,"completionMinutes":45,"basePay":8,"maxBonus":9,"perTrialBonus":0.5,"perTrialBonusThreshold":0.05,"exampleCost":0.01},"classroomParams":{"A":{"a":1,"b":4},"B":{"a":4,"b":1},"C":{"a":2,"b":8},"D":{"a":8,"b":2}},"conditions":["nonSeqFull","nonSeqPartial","seqNoFeedback","seqFeedback"],"classroomPairings":[["A","B"],["C","D"]],"coinWeights":[0.2,0.5,0.8],"subjectId":"A1WJGO38GJ99ZS","assignmentId":"3ZR9AIQJUCVSDFZCHGRK1VFN5D004N","hitId":"34KYK9TV2RUAD363EVFPUWVPB97SBP","url":"https://gershmanlab.com/experiments/alicia/teaching/experiment/?hitId=34KYK9TV2RUAD363EVFPUWVPB97SBP&workerId=A1WJGO38GJ99ZS&assignmentId=3ZR9AIQJUCVSDFZCHGRK1VFN5D004N&a=JARZ7&tp_a=JARZ7&b=3ZR9AIQJUCVSDFZCHGRK1VFN5D004N&tp_b=3ZR9AIQJUCVSDFZCHGRK1VFN5D004N&c=365717&tp_c=365717","firstResponseHeads":8,"firstResponseTails":2,"secondResponseHeads":8,"secondResponseTails":2,"totalHeads":16,"totalTails":4,"studentIndex":4,"studentTrueHypers":{"a":8,"b":2},"studentGuess":0.8,"delta":0,"bonus":0.3,"bonusSoFar":0.3,"totalExamples":20},{"rt":12495,"response":{"heads":"8","tails":"2"},"type":"response","condition":"nonSeqFull","trueTheta":0.8,"classrooms":["A","B"],"studentTrueClassroom":"A","exampleSet":"first","trial_type":"survey-html-form","trial_index":59,"time_elapsed":1825836,"internal_node_id":"0.0-43.0-0.0","params":{"nStudents":24,"maxFlips":30,"completionMinutes":45,"basePay":8,"maxBonus":9,"perTrialBonus":0.5,"perTrialBonusThreshold":0.05,"exampleCost":0.01},"classroomParams":{"A":{"a":1,"b":4},"B":{"a":4,"b":1},"C":{"a":2,"b":8},"D":{"a":8,"b":2}},"conditions":["nonSeqFull","nonSeqPartial","seqNoFeedback","seqFeedback"],"classroomPairings":[["A","B"],["C","D"]],"coinWeights":[0.2,0.5,0.8],"subjectId":"A1WJGO38GJ99ZS","assignmentId":"3ZR9AIQJUCVSDFZCHGRK1VFN5D004N","hitId":"34KYK9TV2RUAD363EVFPUWVPB97SBP","url":"https://gershmanlab.com/experiments/alicia/teaching/experiment/?hitId=34KYK9TV2RUAD363EVFPUWVPB97SBP&workerId=A1WJGO38GJ99ZS&assignmentId=3ZR9AIQJUCVSDFZCHGRK1VFN5D004N&a=JARZ7&tp_a=JARZ7&b=3ZR9AIQJUCVSDFZCHGRK1VFN5D004N&tp_b=3ZR9AIQJUCVSDFZCHGRK1VFN5D004N&c=365717&tp_c=365717","heads":8,"tails":2,"studentIndex":5,"studentTrueHypers":{"a":1,"b":4},"studentGuess":0.6,"delta":0.20000000000000007,"totalExamples":10,"bonus":0,"bonusSoFar":0.3},{"rt":16553,"response":{"heads":"0","tails":"2"},"type":"response","condition":"seqFeedback","trueTheta":0.2,"classrooms":["A","B"],"studentTrueClassroom":"B","exampleSet":"first","trial_type":"survey-html-form","trial_index":65,"time_elapsed":1862474,"internal_node_id":"0.0-49.0-0.0","params":{"nStudents":24,"maxFlips":30,"completionMinutes":45,"basePay":8,"maxBonus":9,"perTrialBonus":0.5,"perTrialBonusThreshold":0.05,"exampleCost":0.01},"classroomParams":{"A":{"a":1,"b":4},"B":{"a":4,"b":1},"C":{"a":2,"b":8},"D":{"a":8,"b":2}},"conditions":["nonSeqFull","nonSeqPartial","seqNoFeedback","seqFeedback"],"classroomPairings":[["A","B"],["C","D"]],"coinWeights":[0.2,0.5,0.8],"subjectId":"A1WJGO38GJ99ZS","assignmentId":"3ZR9AIQJUCVSDFZCHGRK1VFN5D004N","hitId":"34KYK9TV2RUAD363EVFPUWVPB97SBP","url":"https://gershmanlab.com/experiments/alicia/teaching/experiment/?hitId=34KYK9TV2RUAD363EVFPUWVPB97SBP&workerId=A1WJGO38GJ99ZS&assignmentId=3ZR9AIQJUCVSDFZCHGRK1VFN5D004N&a=JARZ7&tp_a=JARZ7&b=3ZR9AIQJUCVSDFZCHGRK1VFN5D004N&tp_b=3ZR9AIQJUCVSDFZCHGRK1VFN5D004N&c=365717&tp_c=365717","heads":0,"tails":2,"studentIndex":6,"studentTrueHypers":{"a":4,"b":1},"studentGuess":0.5714285714285714,"delta":0.3714285714285714,"totalExamples":2,"bonusSoFar":0.3},{"rt":5949,"response":{"heads":"0","tails":"1"},"type":"response","condition":"seqFeedback","trueTheta":0.2,"classrooms":["A","B"],"studentTrueClassroom":"B","exampleSet":"second","trial_type":"survey-html-form","trial_index":69,"time_elapsed":1882346,"internal_node_id":"0.0-53.0-0.0","params":{"nStudents":24,"maxFlips":30,"completionMinutes":45,"basePay":8,"maxBonus":9,"perTrialBonus":0.5,"perTrialBonusThreshold":0.05,"exampleCost":0.01},"classroomParams":{"A":{"a":1,"b":4},"B":{"a":4,"b":1},"C":{"a":2,"b":8},"D":{"a":8,"b":2}},"conditions":["nonSeqFull","nonSeqPartial","seqNoFeedback","seqFeedback"],"classroomPairings":[["A","B"],["C","D"]],"coinWeights":[0.2,0.5,0.8],"subjectId":"A1WJGO38GJ99ZS","assignmentId":"3ZR9AIQJUCVSDFZCHGRK1VFN5D004N","hitId":"34KYK9TV2RUAD363EVFPUWVPB97SBP","url":"https://gershmanlab.com/experiments/alicia/teaching/experiment/?hitId=34KYK9TV2RUAD363EVFPUWVPB97SBP&workerId=A1WJGO38GJ99ZS&assignmentId=3ZR9AIQJUCVSDFZCHGRK1VFN5D004N&a=JARZ7&tp_a=JARZ7&b=3ZR9AIQJUCVSDFZCHGRK1VFN5D004N&tp_b=3ZR9AIQJUCVSDFZCHGRK1VFN5D004N&c=365717&tp_c=365717","firstResponseHeads":0,"firstResponseTails":2,"secondResponseHeads":0,"secondResponseTails":1,"totalHeads":0,"totalTails":3,"studentIndex":6,"studentTrueHypers":{"a":4,"b":1},"studentGuess":0.5,"delta":0.3,"bonus":0,"bonusSoFar":0.3,"totalExamples":3},{"rt":14795,"response":{"heads":"11","tails":"1"},"type":"response","condition":"nonSeqFull","trueTheta":0.2,"classrooms":["A","B"],"studentTrueClassroom":"B","exampleSet":"first","trial_type":"survey-html-form","trial_index":75,"time_elapsed":1920232,"internal_node_id":"0.0-59.0-0.0","params":{"nStudents":24,"maxFlips":30,"completionMinutes":45,"basePay":8,"maxBonus":9,"perTrialBonus":0.5,"perTrialBonusThreshold":0.05,"exampleCost":0.01},"classroomParams":{"A":{"a":1,"b":4},"B":{"a":4,"b":1},"C":{"a":2,"b":8},"D":{"a":8,"b":2}},"conditions":["nonSeqFull","nonSeqPartial","seqNoFeedback","seqFeedback"],"classroomPairings":[["A","B"],["C","D"]],"coinWeights":[0.2,0.5,0.8],"subjectId":"A1WJGO38GJ99ZS","assignmentId":"3ZR9AIQJUCVSDFZCHGRK1VFN5D004N","hitId":"34KYK9TV2RUAD363EVFPUWVPB97SBP","url":"https://gershmanlab.com/experiments/alicia/teaching/experiment/?hitId=34KYK9TV2RUAD363EVFPUWVPB97SBP&workerId=A1WJGO38GJ99ZS&assignmentId=3ZR9AIQJUCVSDFZCHGRK1VFN5D004N&a=JARZ7&tp_a=JARZ7&b=3ZR9AIQJUCVSDFZCHGRK1VFN5D004N&tp_b=3ZR9AIQJUCVSDFZCHGRK1VFN5D004N&c=365717&tp_c=365717","heads":11,"tails":1,"studentIndex":7,"studentTrueHypers":{"a":4,"b":1},"studentGuess":0.8823529411764706,"delta":0.6823529411764706,"totalExamples":12,"bonus":0,"bonusSoFar":0.3},{"rt":6541,"response":{"heads":"5","tails":"5"},"type":"response","condition":"nonSeqPartial","trueTheta":0.5,"classrooms":["A","B"],"studentTrueClassroom":"A","exampleSet":"first","trial_type":"survey-html-form","trial_index":81,"time_elapsed":1940554,"internal_node_id":"0.0-65.0-0.0","params":{"nStudents":24,"maxFlips":30,"completionMinutes":45,"basePay":8,"maxBonus":9,"perTrialBonus":0.5,"perTrialBonusThreshold":0.05,"exampleCost":0.01},"classroomParams":{"A":{"a":1,"b":4},"B":{"a":4,"b":1},"C":{"a":2,"b":8},"D":{"a":8,"b":2}},"conditions":["nonSeqFull","nonSeqPartial","seqNoFeedback","seqFeedback"],"classroomPairings":[["A","B"],["C","D"]],"coinWeights":[0.2,0.5,0.8],"subjectId":"A1WJGO38GJ99ZS","assignmentId":"3ZR9AIQJUCVSDFZCHGRK1VFN5D004N","hitId":"34KYK9TV2RUAD363EVFPUWVPB97SBP","url":"https://gershmanlab.com/experiments/alicia/teaching/experiment/?hitId=34KYK9TV2RUAD363EVFPUWVPB97SBP&workerId=A1WJGO38GJ99ZS&assignmentId=3ZR9AIQJUCVSDFZCHGRK1VFN5D004N&a=JARZ7&tp_a=JARZ7&b=3ZR9AIQJUCVSDFZCHGRK1VFN5D004N&tp_b=3ZR9AIQJUCVSDFZCHGRK1VFN5D004N&c=365717&tp_c=365717","heads":5,"tails":5,"studentIndex":8,"studentTrueHypers":{"a":1,"b":4},"studentGuess":0.4,"delta":0.09999999999999998,"totalExamples":10,"bonus":0,"bonusSoFar":0.3},{"rt":22167,"response":{"heads":"8","tails":"0"},"type":"response","condition":"nonSeqFull","trueTheta":0.8,"classrooms":["C","D"],"studentTrueClassroom":"C","exampleSet":"first","trial_type":"survey-html-form","trial_index":87,"time_elapsed":1984495,"internal_node_id":"0.0-71.0-0.0","params":{"nStudents":24,"maxFlips":30,"completionMinutes":45,"basePay":8,"maxBonus":9,"perTrialBonus":0.5,"perTrialBonusThreshold":0.05,"exampleCost":0.01},"classroomParams":{"A":{"a":1,"b":4},"B":{"a":4,"b":1},"C":{"a":2,"b":8},"D":{"a":8,"b":2}},"conditions":["nonSeqFull","nonSeqPartial","seqNoFeedback","seqFeedback"],"classroomPairings":[["A","B"],["C","D"]],"coinWeights":[0.2,0.5,0.8],"subjectId":"A1WJGO38GJ99ZS","assignmentId":"3ZR9AIQJUCVSDFZCHGRK1VFN5D004N","hitId":"34KYK9TV2RUAD363EVFPUWVPB97SBP","url":"https://gershmanlab.com/experiments/alicia/teaching/experiment/?hitId=34KYK9TV2RUAD363EVFPUWVPB97SBP&workerId=A1WJGO38GJ99ZS&assignmentId=3ZR9AIQJUCVSDFZCHGRK1VFN5D004N&a=JARZ7&tp_a=JARZ7&b=3ZR9AIQJUCVSDFZCHGRK1VFN5D004N&tp_b=3ZR9AIQJUCVSDFZCHGRK1VFN5D004N&c=365717&tp_c=365717","heads":8,"tails":0,"studentIndex":9,"studentTrueHypers":{"a":2,"b":8},"studentGuess":0.5555555555555556,"delta":0.24444444444444446,"totalExamples":8,"bonus":0,"bonusSoFar":0.3},{"rt":10219,"response":{"heads":"3","tails":"3"},"type":"response","condition":"seqNoFeedback","trueTheta":0.5,"classrooms":["A","B"],"studentTrueClassroom":"A","exampleSet":"first","trial_type":"survey-html-form","trial_index":93,"time_elapsed":2008342,"internal_node_id":"0.0-77.0-0.0","params":{"nStudents":24,"maxFlips":30,"completionMinutes":45,"basePay":8,"maxBonus":9,"perTrialBonus":0.5,"perTrialBonusThreshold":0.05,"exampleCost":0.01},"classroomParams":{"A":{"a":1,"b":4},"B":{"a":4,"b":1},"C":{"a":2,"b":8},"D":{"a":8,"b":2}},"conditions":["nonSeqFull","nonSeqPartial","seqNoFeedback","seqFeedback"],"classroomPairings":[["A","B"],["C","D"]],"coinWeights":[0.2,0.5,0.8],"subjectId":"A1WJGO38GJ99ZS","assignmentId":"3ZR9AIQJUCVSDFZCHGRK1VFN5D004N","hitId":"34KYK9TV2RUAD363EVFPUWVPB97SBP","url":"https://gershmanlab.com/experiments/alicia/teaching/experiment/?hitId=34KYK9TV2RUAD363EVFPUWVPB97SBP&workerId=A1WJGO38GJ99ZS&assignmentId=3ZR9AIQJUCVSDFZCHGRK1VFN5D004N&a=JARZ7&tp_a=JARZ7&b=3ZR9AIQJUCVSDFZCHGRK1VFN5D004N&tp_b=3ZR9AIQJUCVSDFZCHGRK1VFN5D004N&c=365717&tp_c=365717","heads":3,"tails":3,"studentIndex":10,"studentTrueHypers":{"a":1,"b":4},"studentGuess":0.36363636363636365,"delta":0.13636363636363635,"totalExamples":6,"bonusSoFar":0.3},{"rt":6168,"response":{"heads":"2","tails":"2"},"type":"response","condition":"seqNoFeedback","trueTheta":0.5,"classrooms":["A","B"],"studentTrueClassroom":"A","exampleSet":"second","trial_type":"survey-html-form","trial_index":96,"time_elapsed":2021534,"internal_node_id":"0.0-80.0-0.0","params":{"nStudents":24,"maxFlips":30,"completionMinutes":45,"basePay":8,"maxBonus":9,"perTrialBonus":0.5,"perTrialBonusThreshold":0.05,"exampleCost":0.01},"classroomParams":{"A":{"a":1,"b":4},"B":{"a":4,"b":1},"C":{"a":2,"b":8},"D":{"a":8,"b":2}},"conditions":["nonSeqFull","nonSeqPartial","seqNoFeedback","seqFeedback"],"classroomPairings":[["A","B"],["C","D"]],"coinWeights":[0.2,0.5,0.8],"subjectId":"A1WJGO38GJ99ZS","assignmentId":"3ZR9AIQJUCVSDFZCHGRK1VFN5D004N","hitId":"34KYK9TV2RUAD363EVFPUWVPB97SBP","url":"https://gershmanlab.com/experiments/alicia/teaching/experiment/?hitId=34KYK9TV2RUAD363EVFPUWVPB97SBP&workerId=A1WJGO38GJ99ZS&assignmentId=3ZR9AIQJUCVSDFZCHGRK1VFN5D004N&a=JARZ7&tp_a=JARZ7&b=3ZR9AIQJUCVSDFZCHGRK1VFN5D004N&tp_b=3ZR9AIQJUCVSDFZCHGRK1VFN5D004N&c=365717&tp_c=365717","firstResponseHeads":3,"firstResponseTails":3,"secondResponseHeads":2,"secondResponseTails":2,"totalHeads":5,"totalTails":5,"studentIndex":10,"studentTrueHypers":{"a":1,"b":4},"studentGuess":0.4,"delta":0.09999999999999998,"bonus":0,"bonusSoFar":0.3,"totalExamples":10},{"rt":29209,"response":{"heads":"10","tails":"0"},"type":"response","condition":"nonSeqPartial","trueTheta":0.8,"classrooms":["C","D"],"studentTrueClassroom":"D","exampleSet":"first","trial_type":"survey-html-form","trial_index":102,"time_elapsed":2067644,"internal_node_id":"0.0-86.0-0.0","params":{"nStudents":24,"maxFlips":30,"completionMinutes":45,"basePay":8,"maxBonus":9,"perTrialBonus":0.5,"perTrialBonusThreshold":0.05,"exampleCost":0.01},"classroomParams":{"A":{"a":1,"b":4},"B":{"a":4,"b":1},"C":{"a":2,"b":8},"D":{"a":8,"b":2}},"conditions":["nonSeqFull","nonSeqPartial","seqNoFeedback","seqFeedback"],"classroomPairings":[["A","B"],["C","D"]],"coinWeights":[0.2,0.5,0.8],"subjectId":"A1WJGO38GJ99ZS","assignmentId":"3ZR9AIQJUCVSDFZCHGRK1VFN5D004N","hitId":"34KYK9TV2RUAD363EVFPUWVPB97SBP","url":"https://gershmanlab.com/experiments/alicia/teaching/experiment/?hitId=34KYK9TV2RUAD363EVFPUWVPB97SBP&workerId=A1WJGO38GJ99ZS&assignmentId=3ZR9AIQJUCVSDFZCHGRK1VFN5D004N&a=JARZ7&tp_a=JARZ7&b=3ZR9AIQJUCVSDFZCHGRK1VFN5D004N&tp_b=3ZR9AIQJUCVSDFZCHGRK1VFN5D004N&c=365717&tp_c=365717","heads":10,"tails":0,"studentIndex":11,"studentTrueHypers":{"a":8,"b":2},"studentGuess":0.9,"delta":0.09999999999999998,"totalExamples":10,"bonus":0,"bonusSoFar":0.3},{"rt":7804,"response":{"heads":"6","tails":"6"},"type":"response","condition":"seqNoFeedback","trueTheta":0.5,"classrooms":["C","D"],"studentTrueClassroom":"D","exampleSet":"first","trial_type":"survey-html-form","trial_index":108,"time_elapsed":2091730,"internal_node_id":"0.0-92.0-0.0","params":{"nStudents":24,"maxFlips":30,"completionMinutes":45,"basePay":8,"maxBonus":9,"perTrialBonus":0.5,"perTrialBonusThreshold":0.05,"exampleCost":0.01},"classroomParams":{"A":{"a":1,"b":4},"B":{"a":4,"b":1},"C":{"a":2,"b":8},"D":{"a":8,"b":2}},"conditions":["nonSeqFull","nonSeqPartial","seqNoFeedback","seqFeedback"],"classroomPairings":[["A","B"],["C","D"]],"coinWeights":[0.2,0.5,0.8],"subjectId":"A1WJGO38GJ99ZS","assignmentId":"3ZR9AIQJUCVSDFZCHGRK1VFN5D004N","hitId":"34KYK9TV2RUAD363EVFPUWVPB97SBP","url":"https://gershmanlab.com/experiments/alicia/teaching/experiment/?hitId=34KYK9TV2RUAD363EVFPUWVPB97SBP&workerId=A1WJGO38GJ99ZS&assignmentId=3ZR9AIQJUCVSDFZCHGRK1VFN5D004N&a=JARZ7&tp_a=JARZ7&b=3ZR9AIQJUCVSDFZCHGRK1VFN5D004N&tp_b=3ZR9AIQJUCVSDFZCHGRK1VFN5D004N&c=365717&tp_c=365717","heads":6,"tails":6,"studentIndex":12,"studentTrueHypers":{"a":8,"b":2},"studentGuess":0.6363636363636364,"delta":0.13636363636363635,"totalExamples":12,"bonusSoFar":0.3},{"rt":7805,"response":{"heads":"6","tails":"6"},"type":"response","condition":"seqNoFeedback","trueTheta":0.5,"classrooms":["C","D"],"studentTrueClassroom":"D","exampleSet":"second","trial_type":"survey-html-form","trial_index":111,"time_elapsed":2104822,"internal_node_id":"0.0-95.0-0.0","params":{"nStudents":24,"maxFlips":30,"completionMinutes":45,"basePay":8,"maxBonus":9,"perTrialBonus":0.5,"perTrialBonusThreshold":0.05,"exampleCost":0.01},"classroomParams":{"A":{"a":1,"b":4},"B":{"a":4,"b":1},"C":{"a":2,"b":8},"D":{"a":8,"b":2}},"conditions":["nonSeqFull","nonSeqPartial","seqNoFeedback","seqFeedback"],"classroomPairings":[["A","B"],["C","D"]],"coinWeights":[0.2,0.5,0.8],"subjectId":"A1WJGO38GJ99ZS","assignmentId":"3ZR9AIQJUCVSDFZCHGRK1VFN5D004N","hitId":"34KYK9TV2RUAD363EVFPUWVPB97SBP","url":"https://gershmanlab.com/experiments/alicia/teaching/experiment/?hitId=34KYK9TV2RUAD363EVFPUWVPB97SBP&workerId=A1WJGO38GJ99ZS&assignmentId=3ZR9AIQJUCVSDFZCHGRK1VFN5D004N&a=JARZ7&tp_a=JARZ7&b=3ZR9AIQJUCVSDFZCHGRK1VFN5D004N&tp_b=3ZR9AIQJUCVSDFZCHGRK1VFN5D004N&c=365717&tp_c=365717","firstResponseHeads":6,"firstResponseTails":6,"secondResponseHeads":6,"secondResponseTails":6,"totalHeads":12,"totalTails":12,"studentIndex":12,"studentTrueHypers":{"a":8,"b":2},"studentGuess":0.5882352941176471,"delta":0.08823529411764708,"bonus":0,"bonusSoFar":0.3,"totalExamples":24},{"rt":8385,"response":{"heads":"6","tails":"6"},"type":"response","condition":"nonSeqFull","trueTheta":0.5,"classrooms":["C","D"],"studentTrueClassroom":"C","exampleSet":"first","trial_type":"survey-html-form","trial_index":117,"time_elapsed":2128250,"internal_node_id":"0.0-101.0-0.0","params":{"nStudents":24,"maxFlips":30,"completionMinutes":45,"basePay":8,"maxBonus":9,"perTrialBonus":0.5,"perTrialBonusThreshold":0.05,"exampleCost":0.01},"classroomParams":{"A":{"a":1,"b":4},"B":{"a":4,"b":1},"C":{"a":2,"b":8},"D":{"a":8,"b":2}},"conditions":["nonSeqFull","nonSeqPartial","seqNoFeedback","seqFeedback"],"classroomPairings":[["A","B"],["C","D"]],"coinWeights":[0.2,0.5,0.8],"subjectId":"A1WJGO38GJ99ZS","assignmentId":"3ZR9AIQJUCVSDFZCHGRK1VFN5D004N","hitId":"34KYK9TV2RUAD363EVFPUWVPB97SBP","url":"https://gershmanlab.com/experiments/alicia/teaching/experiment/?hitId=34KYK9TV2RUAD363EVFPUWVPB97SBP&workerId=A1WJGO38GJ99ZS&assignmentId=3ZR9AIQJUCVSDFZCHGRK1VFN5D004N&a=JARZ7&tp_a=JARZ7&b=3ZR9AIQJUCVSDFZCHGRK1VFN5D004N&tp_b=3ZR9AIQJUCVSDFZCHGRK1VFN5D004N&c=365717&tp_c=365717","heads":6,"tails":6,"studentIndex":13,"studentTrueHypers":{"a":2,"b":8},"studentGuess":0.36363636363636365,"delta":0.13636363636363635,"totalExamples":12,"bonus":0,"bonusSoFar":0.3},{"rt":7340,"response":{"heads":"1","tails":"1"},"type":"response","condition":"seqFeedback","trueTheta":0.2,"classrooms":["C","D"],"studentTrueClassroom":"C","exampleSet":"first","trial_type":"survey-html-form","trial_index":123,"time_elapsed":2152701,"internal_node_id":"0.0-107.0-0.0","params":{"nStudents":24,"maxFlips":30,"completionMinutes":45,"basePay":8,"maxBonus":9,"perTrialBonus":0.5,"perTrialBonusThreshold":0.05,"exampleCost":0.01},"classroomParams":{"A":{"a":1,"b":4},"B":{"a":4,"b":1},"C":{"a":2,"b":8},"D":{"a":8,"b":2}},"conditions":["nonSeqFull","nonSeqPartial","seqNoFeedback","seqFeedback"],"classroomPairings":[["A","B"],["C","D"]],"coinWeights":[0.2,0.5,0.8],"subjectId":"A1WJGO38GJ99ZS","assignmentId":"3ZR9AIQJUCVSDFZCHGRK1VFN5D004N","hitId":"34KYK9TV2RUAD363EVFPUWVPB97SBP","url":"https://gershmanlab.com/experiments/alicia/teaching/experiment/?hitId=34KYK9TV2RUAD363EVFPUWVPB97SBP&workerId=A1WJGO38GJ99ZS&assignmentId=3ZR9AIQJUCVSDFZCHGRK1VFN5D004N&a=JARZ7&tp_a=JARZ7&b=3ZR9AIQJUCVSDFZCHGRK1VFN5D004N&tp_b=3ZR9AIQJUCVSDFZCHGRK1VFN5D004N&c=365717&tp_c=365717","heads":1,"tails":1,"studentIndex":14,"studentTrueHypers":{"a":2,"b":8},"studentGuess":0.25,"delta":0.04999999999999999,"totalExamples":2,"bonusSoFar":0.3},{"rt":11690,"response":{"heads":"1","tails":"0"},"type":"response","condition":"seqFeedback","trueTheta":0.2,"classrooms":["C","D"],"studentTrueClassroom":"C","exampleSet":"second","trial_type":"survey-html-form","trial_index":127,"time_elapsed":2178596,"internal_node_id":"0.0-111.0-0.0","params":{"nStudents":24,"maxFlips":30,"completionMinutes":45,"basePay":8,"maxBonus":9,"perTrialBonus":0.5,"perTrialBonusThreshold":0.05,"exampleCost":0.01},"classroomParams":{"A":{"a":1,"b":4},"B":{"a":4,"b":1},"C":{"a":2,"b":8},"D":{"a":8,"b":2}},"conditions":["nonSeqFull","nonSeqPartial","seqNoFeedback","seqFeedback"],"classroomPairings":[["A","B"],["C","D"]],"coinWeights":[0.2,0.5,0.8],"subjectId":"A1WJGO38GJ99ZS","assignmentId":"3ZR9AIQJUCVSDFZCHGRK1VFN5D004N","hitId":"34KYK9TV2RUAD363EVFPUWVPB97SBP","url":"https://gershmanlab.com/experiments/alicia/teaching/experiment/?hitId=34KYK9TV2RUAD363EVFPUWVPB97SBP&workerId=A1WJGO38GJ99ZS&assignmentId=3ZR9AIQJUCVSDFZCHGRK1VFN5D004N&a=JARZ7&tp_a=JARZ7&b=3ZR9AIQJUCVSDFZCHGRK1VFN5D004N&tp_b=3ZR9AIQJUCVSDFZCHGRK1VFN5D004N&c=365717&tp_c=365717","firstResponseHeads":1,"firstResponseTails":1,"secondResponseHeads":1,"secondResponseTails":0,"totalHeads":2,"totalTails":1,"studentIndex":14,"studentTrueHypers":{"a":2,"b":8},"studentGuess":0.3076923076923077,"delta":0.1076923076923077,"bonus":0,"bonusSoFar":0.3,"totalExamples":3},{"rt":11737,"response":{"heads":"3","tails":"3"},"type":"response","condition":"seqFeedback","trueTheta":0.5,"classrooms":["A","B"],"studentTrueClassroom":"B","exampleSet":"first","trial_type":"survey-html-form","trial_index":133,"time_elapsed":2217880,"internal_node_id":"0.0-117.0-0.0","params":{"nStudents":24,"maxFlips":30,"completionMinutes":45,"basePay":8,"maxBonus":9,"perTrialBonus":0.5,"perTrialBonusThreshold":0.05,"exampleCost":0.01},"classroomParams":{"A":{"a":1,"b":4},"B":{"a":4,"b":1},"C":{"a":2,"b":8},"D":{"a":8,"b":2}},"conditions":["nonSeqFull","nonSeqPartial","seqNoFeedback","seqFeedback"],"classroomPairings":[["A","B"],["C","D"]],"coinWeights":[0.2,0.5,0.8],"subjectId":"A1WJGO38GJ99ZS","assignmentId":"3ZR9AIQJUCVSDFZCHGRK1VFN5D004N","hitId":"34KYK9TV2RUAD363EVFPUWVPB97SBP","url":"https://gershmanlab.com/experiments/alicia/teaching/experiment/?hitId=34KYK9TV2RUAD363EVFPUWVPB97SBP&workerId=A1WJGO38GJ99ZS&assignmentId=3ZR9AIQJUCVSDFZCHGRK1VFN5D004N&a=JARZ7&tp_a=JARZ7&b=3ZR9AIQJUCVSDFZCHGRK1VFN5D004N&tp_b=3ZR9AIQJUCVSDFZCHGRK1VFN5D004N&c=365717&tp_c=365717","heads":3,"tails":3,"studentIndex":15,"studentTrueHypers":{"a":4,"b":1},"studentGuess":0.6363636363636364,"delta":0.13636363636363635,"totalExamples":6,"bonusSoFar":0.3},{"rt":4723,"response":{"heads":"2","tails":"2"},"type":"response","condition":"seqFeedback","trueTheta":0.5,"classrooms":["A","B"],"studentTrueClassroom":"B","exampleSet":"second","trial_type":"survey-html-form","trial_index":137,"time_elapsed":2239030,"internal_node_id":"0.0-121.0-0.0","params":{"nStudents":24,"maxFlips":30,"completionMinutes":45,"basePay":8,"maxBonus":9,"perTrialBonus":0.5,"perTrialBonusThreshold":0.05,"exampleCost":0.01},"classroomParams":{"A":{"a":1,"b":4},"B":{"a":4,"b":1},"C":{"a":2,"b":8},"D":{"a":8,"b":2}},"conditions":["nonSeqFull","nonSeqPartial","seqNoFeedback","seqFeedback"],"classroomPairings":[["A","B"],["C","D"]],"coinWeights":[0.2,0.5,0.8],"subjectId":"A1WJGO38GJ99ZS","assignmentId":"3ZR9AIQJUCVSDFZCHGRK1VFN5D004N","hitId":"34KYK9TV2RUAD363EVFPUWVPB97SBP","url":"https://gershmanlab.com/experiments/alicia/teaching/experiment/?hitId=34KYK9TV2RUAD363EVFPUWVPB97SBP&workerId=A1WJGO38GJ99ZS&assignmentId=3ZR9AIQJUCVSDFZCHGRK1VFN5D004N&a=JARZ7&tp_a=JARZ7&b=3ZR9AIQJUCVSDFZCHGRK1VFN5D004N&tp_b=3ZR9AIQJUCVSDFZCHGRK1VFN5D004N&c=365717&tp_c=365717","firstResponseHeads":3,"firstResponseTails":3,"secondResponseHeads":2,"secondResponseTails":2,"totalHeads":5,"totalTails":5,"studentIndex":15,"studentTrueHypers":{"a":4,"b":1},"studentGuess":0.6,"delta":0.09999999999999998,"bonus":0,"bonusSoFar":0.3,"totalExamples":10},{"rt":5458,"response":{"heads":"8","tails":"0"},"type":"response","condition":"nonSeqPartial","trueTheta":0.8,"classrooms":["A","B"],"studentTrueClassroom":"A","exampleSet":"first","trial_type":"survey-html-form","trial_index":143,"time_elapsed":2258542,"internal_node_id":"0.0-127.0-0.0","params":{"nStudents":24,"maxFlips":30,"completionMinutes":45,"basePay":8,"maxBonus":9,"perTrialBonus":0.5,"perTrialBonusThreshold":0.05,"exampleCost":0.01},"classroomParams":{"A":{"a":1,"b":4},"B":{"a":4,"b":1},"C":{"a":2,"b":8},"D":{"a":8,"b":2}},"conditions":["nonSeqFull","nonSeqPartial","seqNoFeedback","seqFeedback"],"classroomPairings":[["A","B"],["C","D"]],"coinWeights":[0.2,0.5,0.8],"subjectId":"A1WJGO38GJ99ZS","assignmentId":"3ZR9AIQJUCVSDFZCHGRK1VFN5D004N","hitId":"34KYK9TV2RUAD363EVFPUWVPB97SBP","url":"https://gershmanlab.com/experiments/alicia/teaching/experiment/?hitId=34KYK9TV2RUAD363EVFPUWVPB97SBP&workerId=A1WJGO38GJ99ZS&assignmentId=3ZR9AIQJUCVSDFZCHGRK1VFN5D004N&a=JARZ7&tp_a=JARZ7&b=3ZR9AIQJUCVSDFZCHGRK1VFN5D004N&tp_b=3ZR9AIQJUCVSDFZCHGRK1VFN5D004N&c=365717&tp_c=365717","heads":8,"tails":0,"studentIndex":16,"studentTrueHypers":{"a":1,"b":4},"studentGuess":0.6923076923076923,"delta":0.10769230769230775,"totalExamples":8,"bonus":0,"bonusSoFar":0.3},{"rt":8491,"response":{"heads":"9","tails":"1"},"type":"response","condition":"seqFeedback","trueTheta":0.8,"classrooms":["A","B"],"studentTrueClassroom":"B","exampleSet":"first","trial_type":"survey-html-form","trial_index":149,"time_elapsed":2280282,"internal_node_id":"0.0-133.0-0.0","params":{"nStudents":24,"maxFlips":30,"completionMinutes":45,"basePay":8,"maxBonus":9,"perTrialBonus":0.5,"perTrialBonusThreshold":0.05,"exampleCost":0.01},"classroomParams":{"A":{"a":1,"b":4},"B":{"a":4,"b":1},"C":{"a":2,"b":8},"D":{"a":8,"b":2}},"conditions":["nonSeqFull","nonSeqPartial","seqNoFeedback","seqFeedback"],"classroomPairings":[["A","B"],["C","D"]],"coinWeights":[0.2,0.5,0.8],"subjectId":"A1WJGO38GJ99ZS","assignmentId":"3ZR9AIQJUCVSDFZCHGRK1VFN5D004N","hitId":"34KYK9TV2RUAD363EVFPUWVPB97SBP","url":"https://gershmanlab.com/experiments/alicia/teaching/experiment/?hitId=34KYK9TV2RUAD363EVFPUWVPB97SBP&workerId=A1WJGO38GJ99ZS&assignmentId=3ZR9AIQJUCVSDFZCHGRK1VFN5D004N&a=JARZ7&tp_a=JARZ7&b=3ZR9AIQJUCVSDFZCHGRK1VFN5D004N&tp_b=3ZR9AIQJUCVSDFZCHGRK1VFN5D004N&c=365717&tp_c=365717","heads":9,"tails":1,"studentIndex":17,"studentTrueHypers":{"a":4,"b":1},"studentGuess":0.8666666666666667,"delta":0.06666666666666665,"totalExamples":10,"bonusSoFar":0.3},{"rt":15213,"response":{"heads":"10","tails":"2"},"type":"response","condition":"seqFeedback","trueTheta":0.8,"classrooms":["A","B"],"studentTrueClassroom":"B","exampleSet":"second","trial_type":"survey-html-form","trial_index":153,"time_elapsed":2307684,"internal_node_id":"0.0-137.0-0.0","params":{"nStudents":24,"maxFlips":30,"completionMinutes":45,"basePay":8,"maxBonus":9,"perTrialBonus":0.5,"perTrialBonusThreshold":0.05,"exampleCost":0.01},"classroomParams":{"A":{"a":1,"b":4},"B":{"a":4,"b":1},"C":{"a":2,"b":8},"D":{"a":8,"b":2}},"conditions":["nonSeqFull","nonSeqPartial","seqNoFeedback","seqFeedback"],"classroomPairings":[["A","B"],["C","D"]],"coinWeights":[0.2,0.5,0.8],"subjectId":"A1WJGO38GJ99ZS","assignmentId":"3ZR9AIQJUCVSDFZCHGRK1VFN5D004N","hitId":"34KYK9TV2RUAD363EVFPUWVPB97SBP","url":"https://gershmanlab.com/experiments/alicia/teaching/experiment/?hitId=34KYK9TV2RUAD363EVFPUWVPB97SBP&workerId=A1WJGO38GJ99ZS&assignmentId=3ZR9AIQJUCVSDFZCHGRK1VFN5D004N&a=JARZ7&tp_a=JARZ7&b=3ZR9AIQJUCVSDFZCHGRK1VFN5D004N&tp_b=3ZR9AIQJUCVSDFZCHGRK1VFN5D004N&c=365717&tp_c=365717","firstResponseHeads":9,"firstResponseTails":1,"secondResponseHeads":10,"secondResponseTails":2,"totalHeads":19,"totalTails":3,"studentIndex":17,"studentTrueHypers":{"a":4,"b":1},"studentGuess":0.8518518518518519,"delta":0.051851851851851816,"bonus":0,"bonusSoFar":0.3,"totalExamples":22},{"rt":9344,"response":{"heads":"9","tails":"0"},"type":"response","condition":"seqFeedback","trueTheta":0.8,"classrooms":["C","D"],"studentTrueClassroom":"D","exampleSet":"first","trial_type":"survey-html-form","trial_index":159,"time_elapsed":2332157,"internal_node_id":"0.0-143.0-0.0","params":{"nStudents":24,"maxFlips":30,"completionMinutes":45,"basePay":8,"maxBonus":9,"perTrialBonus":0.5,"perTrialBonusThreshold":0.05,"exampleCost":0.01},"classroomParams":{"A":{"a":1,"b":4},"B":{"a":4,"b":1},"C":{"a":2,"b":8},"D":{"a":8,"b":2}},"conditions":["nonSeqFull","nonSeqPartial","seqNoFeedback","seqFeedback"],"classroomPairings":[["A","B"],["C","D"]],"coinWeights":[0.2,0.5,0.8],"subjectId":"A1WJGO38GJ99ZS","assignmentId":"3ZR9AIQJUCVSDFZCHGRK1VFN5D004N","hitId":"34KYK9TV2RUAD363EVFPUWVPB97SBP","url":"https://gershmanlab.com/experiments/alicia/teaching/experiment/?hitId=34KYK9TV2RUAD363EVFPUWVPB97SBP&workerId=A1WJGO38GJ99ZS&assignmentId=3ZR9AIQJUCVSDFZCHGRK1VFN5D004N&a=JARZ7&tp_a=JARZ7&b=3ZR9AIQJUCVSDFZCHGRK1VFN5D004N&tp_b=3ZR9AIQJUCVSDFZCHGRK1VFN5D004N&c=365717&tp_c=365717","heads":9,"tails":0,"studentIndex":18,"studentTrueHypers":{"a":8,"b":2},"studentGuess":0.8947368421052632,"delta":0.09473684210526312,"totalExamples":9,"bonusSoFar":0.3},{"rt":8057,"response":{"heads":"9","tails":"1"},"type":"response","condition":"seqFeedback","trueTheta":0.8,"classrooms":["C","D"],"studentTrueClassroom":"D","exampleSet":"second","trial_type":"survey-html-form","trial_index":163,"time_elapsed":2349104,"internal_node_id":"0.0-147.0-0.0","params":{"nStudents":24,"maxFlips":30,"completionMinutes":45,"basePay":8,"maxBonus":9,"perTrialBonus":0.5,"perTrialBonusThreshold":0.05,"exampleCost":0.01},"classroomParams":{"A":{"a":1,"b":4},"B":{"a":4,"b":1},"C":{"a":2,"b":8},"D":{"a":8,"b":2}},"conditions":["nonSeqFull","nonSeqPartial","seqNoFeedback","seqFeedback"],"classroomPairings":[["A","B"],["C","D"]],"coinWeights":[0.2,0.5,0.8],"subjectId":"A1WJGO38GJ99ZS","assignmentId":"3ZR9AIQJUCVSDFZCHGRK1VFN5D004N","hitId":"34KYK9TV2RUAD363EVFPUWVPB97SBP","url":"https://gershmanlab.com/experiments/alicia/teaching/experiment/?hitId=34KYK9TV2RUAD363EVFPUWVPB97SBP&workerId=A1WJGO38GJ99ZS&assignmentId=3ZR9AIQJUCVSDFZCHGRK1VFN5D004N&a=JARZ7&tp_a=JARZ7&b=3ZR9AIQJUCVSDFZCHGRK1VFN5D004N&tp_b=3ZR9AIQJUCVSDFZCHGRK1VFN5D004N&c=365717&tp_c=365717","firstResponseHeads":9,"firstResponseTails":0,"secondResponseHeads":9,"secondResponseTails":1,"totalHeads":18,"totalTails":1,"studentIndex":18,"studentTrueHypers":{"a":8,"b":2},"studentGuess":0.896551724137931,"delta":0.096551724137931,"bonus":0,"bonusSoFar":0.3,"totalExamples":19},{"rt":4931,"response":{"heads":"8","tails":"0"},"type":"response","condition":"seqNoFeedback","trueTheta":0.8,"classrooms":["A","B"],"studentTrueClassroom":"A","exampleSet":"first","trial_type":"survey-html-form","trial_index":169,"time_elapsed":2366970,"internal_node_id":"0.0-153.0-0.0","params":{"nStudents":24,"maxFlips":30,"completionMinutes":45,"basePay":8,"maxBonus":9,"perTrialBonus":0.5,"perTrialBonusThreshold":0.05,"exampleCost":0.01},"classroomParams":{"A":{"a":1,"b":4},"B":{"a":4,"b":1},"C":{"a":2,"b":8},"D":{"a":8,"b":2}},"conditions":["nonSeqFull","nonSeqPartial","seqNoFeedback","seqFeedback"],"classroomPairings":[["A","B"],["C","D"]],"coinWeights":[0.2,0.5,0.8],"subjectId":"A1WJGO38GJ99ZS","assignmentId":"3ZR9AIQJUCVSDFZCHGRK1VFN5D004N","hitId":"34KYK9TV2RUAD363EVFPUWVPB97SBP","url":"https://gershmanlab.com/experiments/alicia/teaching/experiment/?hitId=34KYK9TV2RUAD363EVFPUWVPB97SBP&workerId=A1WJGO38GJ99ZS&assignmentId=3ZR9AIQJUCVSDFZCHGRK1VFN5D004N&a=JARZ7&tp_a=JARZ7&b=3ZR9AIQJUCVSDFZCHGRK1VFN5D004N&tp_b=3ZR9AIQJUCVSDFZCHGRK1VFN5D004N&c=365717&tp_c=365717","heads":8,"tails":0,"studentIndex":19,"studentTrueHypers":{"a":1,"b":4},"studentGuess":0.6923076923076923,"delta":0.10769230769230775,"totalExamples":8,"bonusSoFar":0.3},{"rt":6029,"response":{"heads":"8","tails":"0"},"type":"response","condition":"seqNoFeedback","trueTheta":0.8,"classrooms":["A","B"],"studentTrueClassroom":"A","exampleSet":"second","trial_type":"survey-html-form","trial_index":172,"time_elapsed":2381023,"internal_node_id":"0.0-156.0-0.0","params":{"nStudents":24,"maxFlips":30,"completionMinutes":45,"basePay":8,"maxBonus":9,"perTrialBonus":0.5,"perTrialBonusThreshold":0.05,"exampleCost":0.01},"classroomParams":{"A":{"a":1,"b":4},"B":{"a":4,"b":1},"C":{"a":2,"b":8},"D":{"a":8,"b":2}},"conditions":["nonSeqFull","nonSeqPartial","seqNoFeedback","seqFeedback"],"classroomPairings":[["A","B"],["C","D"]],"coinWeights":[0.2,0.5,0.8],"subjectId":"A1WJGO38GJ99ZS","assignmentId":"3ZR9AIQJUCVSDFZCHGRK1VFN5D004N","hitId":"34KYK9TV2RUAD363EVFPUWVPB97SBP","url":"https://gershmanlab.com/experiments/alicia/teaching/experiment/?hitId=34KYK9TV2RUAD363EVFPUWVPB97SBP&workerId=A1WJGO38GJ99ZS&assignmentId=3ZR9AIQJUCVSDFZCHGRK1VFN5D004N&a=JARZ7&tp_a=JARZ7&b=3ZR9AIQJUCVSDFZCHGRK1VFN5D004N&tp_b=3ZR9AIQJUCVSDFZCHGRK1VFN5D004N&c=365717&tp_c=365717","firstResponseHeads":8,"firstResponseTails":0,"secondResponseHeads":8,"secondResponseTails":0,"totalHeads":16,"totalTails":0,"studentIndex":19,"studentTrueHypers":{"a":1,"b":4},"studentGuess":0.8095238095238095,"delta":0.00952380952380949,"bonus":0.34,"bonusSoFar":0.64,"totalExamples":16},{"rt":6177,"response":{"heads":"2","tails":"0"},"type":"response","condition":"nonSeqPartial","trueTheta":0.2,"classrooms":["A","B"],"studentTrueClassroom":"B","exampleSet":"first","trial_type":"survey-html-form","trial_index":178,"time_elapsed":2402512,"internal_node_id":"0.0-162.0-0.0","params":{"nStudents":24,"maxFlips":30,"completionMinutes":45,"basePay":8,"maxBonus":9,"perTrialBonus":0.5,"perTrialBonusThreshold":0.05,"exampleCost":0.01},"classroomParams":{"A":{"a":1,"b":4},"B":{"a":4,"b":1},"C":{"a":2,"b":8},"D":{"a":8,"b":2}},"conditions":["nonSeqFull","nonSeqPartial","seqNoFeedback","seqFeedback"],"classroomPairings":[["A","B"],["C","D"]],"coinWeights":[0.2,0.5,0.8],"subjectId":"A1WJGO38GJ99ZS","assignmentId":"3ZR9AIQJUCVSDFZCHGRK1VFN5D004N","hitId":"34KYK9TV2RUAD363EVFPUWVPB97SBP","url":"https://gershmanlab.com/experiments/alicia/teaching/experiment/?hitId=34KYK9TV2RUAD363EVFPUWVPB97SBP&workerId=A1WJGO38GJ99ZS&assignmentId=3ZR9AIQJUCVSDFZCHGRK1VFN5D004N&a=JARZ7&tp_a=JARZ7&b=3ZR9AIQJUCVSDFZCHGRK1VFN5D004N&tp_b=3ZR9AIQJUCVSDFZCHGRK1VFN5D004N&c=365717&tp_c=365717","heads":2,"tails":0,"studentIndex":20,"studentTrueHypers":{"a":4,"b":1},"studentGuess":0.8571428571428571,"delta":0.657142857142857,"totalExamples":2,"bonus":0,"bonusSoFar":0.64},{"rt":2615,"response":{"heads":"0","tails":"2"},"type":"response","condition":"seqNoFeedback","trueTheta":0.2,"classrooms":["A","B"],"studentTrueClassroom":"B","exampleSet":"first","trial_type":"survey-html-form","trial_index":184,"time_elapsed":2422988,"internal_node_id":"0.0-168.0-0.0","params":{"nStudents":24,"maxFlips":30,"completionMinutes":45,"basePay":8,"maxBonus":9,"perTrialBonus":0.5,"perTrialBonusThreshold":0.05,"exampleCost":0.01},"classroomParams":{"A":{"a":1,"b":4},"B":{"a":4,"b":1},"C":{"a":2,"b":8},"D":{"a":8,"b":2}},"conditions":["nonSeqFull","nonSeqPartial","seqNoFeedback","seqFeedback"],"classroomPairings":[["A","B"],["C","D"]],"coinWeights":[0.2,0.5,0.8],"subjectId":"A1WJGO38GJ99ZS","assignmentId":"3ZR9AIQJUCVSDFZCHGRK1VFN5D004N","hitId":"34KYK9TV2RUAD363EVFPUWVPB97SBP","url":"https://gershmanlab.com/experiments/alicia/teaching/experiment/?hitId=34KYK9TV2RUAD363EVFPUWVPB97SBP&workerId=A1WJGO38GJ99ZS&assignmentId=3ZR9AIQJUCVSDFZCHGRK1VFN5D004N&a=JARZ7&tp_a=JARZ7&b=3ZR9AIQJUCVSDFZCHGRK1VFN5D004N&tp_b=3ZR9AIQJUCVSDFZCHGRK1VFN5D004N&c=365717&tp_c=365717","heads":0,"tails":2,"studentIndex":21,"studentTrueHypers":{"a":4,"b":1},"studentGuess":0.5714285714285714,"delta":0.3714285714285714,"totalExamples":2,"bonusSoFar":0.64},{"rt":3268,"response":{"heads":"0","tails":"2"},"type":"response","condition":"seqNoFeedback","trueTheta":0.2,"classrooms":["A","B"],"studentTrueClassroom":"B","exampleSet":"second","trial_type":"survey-html-form","trial_index":187,"time_elapsed":2434285,"internal_node_id":"0.0-171.0-0.0","params":{"nStudents":24,"maxFlips":30,"completionMinutes":45,"basePay":8,"maxBonus":9,"perTrialBonus":0.5,"perTrialBonusThreshold":0.05,"exampleCost":0.01},"classroomParams":{"A":{"a":1,"b":4},"B":{"a":4,"b":1},"C":{"a":2,"b":8},"D":{"a":8,"b":2}},"conditions":["nonSeqFull","nonSeqPartial","seqNoFeedback","seqFeedback"],"classroomPairings":[["A","B"],["C","D"]],"coinWeights":[0.2,0.5,0.8],"subjectId":"A1WJGO38GJ99ZS","assignmentId":"3ZR9AIQJUCVSDFZCHGRK1VFN5D004N","hitId":"34KYK9TV2RUAD363EVFPUWVPB97SBP","url":"https://gershmanlab.com/experiments/alicia/teaching/experiment/?hitId=34KYK9TV2RUAD363EVFPUWVPB97SBP&workerId=A1WJGO38GJ99ZS&assignmentId=3ZR9AIQJUCVSDFZCHGRK1VFN5D004N&a=JARZ7&tp_a=JARZ7&b=3ZR9AIQJUCVSDFZCHGRK1VFN5D004N&tp_b=3ZR9AIQJUCVSDFZCHGRK1VFN5D004N&c=365717&tp_c=365717","firstResponseHeads":0,"firstResponseTails":2,"secondResponseHeads":0,"secondResponseTails":2,"totalHeads":0,"totalTails":4,"studentIndex":21,"studentTrueHypers":{"a":4,"b":1},"studentGuess":0.4444444444444444,"delta":0.2444444444444444,"bonus":0,"bonusSoFar":0.64,"totalExamples":4},{"rt":2755,"response":{"heads":"0","tails":"1"},"type":"response","condition":"nonSeqFull","trueTheta":0.2,"classrooms":["C","D"],"studentTrueClassroom":"C","exampleSet":"first","trial_type":"survey-html-form","trial_index":193,"time_elapsed":2455442,"internal_node_id":"0.0-177.0-0.0","params":{"nStudents":24,"maxFlips":30,"completionMinutes":45,"basePay":8,"maxBonus":9,"perTrialBonus":0.5,"perTrialBonusThreshold":0.05,"exampleCost":0.01},"classroomParams":{"A":{"a":1,"b":4},"B":{"a":4,"b":1},"C":{"a":2,"b":8},"D":{"a":8,"b":2}},"conditions":["nonSeqFull","nonSeqPartial","seqNoFeedback","seqFeedback"],"classroomPairings":[["A","B"],["C","D"]],"coinWeights":[0.2,0.5,0.8],"subjectId":"A1WJGO38GJ99ZS","assignmentId":"3ZR9AIQJUCVSDFZCHGRK1VFN5D004N","hitId":"34KYK9TV2RUAD363EVFPUWVPB97SBP","url":"https://gershmanlab.com/experiments/alicia/teaching/experiment/?hitId=34KYK9TV2RUAD363EVFPUWVPB97SBP&workerId=A1WJGO38GJ99ZS&assignmentId=3ZR9AIQJUCVSDFZCHGRK1VFN5D004N&a=JARZ7&tp_a=JARZ7&b=3ZR9AIQJUCVSDFZCHGRK1VFN5D004N&tp_b=3ZR9AIQJUCVSDFZCHGRK1VFN5D004N&c=365717&tp_c=365717","heads":0,"tails":1,"studentIndex":22,"studentTrueHypers":{"a":2,"b":8},"studentGuess":0.18181818181818182,"delta":0.018181818181818188,"totalExamples":1,"bonus":0.49,"bonusSoFar":1.13},{"rt":3915,"response":{"heads":"0","tails":"1"},"type":"response","condition":"seqNoFeedback","trueTheta":0.2,"classrooms":["C","D"],"studentTrueClassroom":"D","exampleSet":"first","trial_type":"survey-html-form","trial_index":199,"time_elapsed":2472140,"internal_node_id":"0.0-183.0-0.0","params":{"nStudents":24,"maxFlips":30,"completionMinutes":45,"basePay":8,"maxBonus":9,"perTrialBonus":0.5,"perTrialBonusThreshold":0.05,"exampleCost":0.01},"classroomParams":{"A":{"a":1,"b":4},"B":{"a":4,"b":1},"C":{"a":2,"b":8},"D":{"a":8,"b":2}},"conditions":["nonSeqFull","nonSeqPartial","seqNoFeedback","seqFeedback"],"classroomPairings":[["A","B"],["C","D"]],"coinWeights":[0.2,0.5,0.8],"subjectId":"A1WJGO38GJ99ZS","assignmentId":"3ZR9AIQJUCVSDFZCHGRK1VFN5D004N","hitId":"34KYK9TV2RUAD363EVFPUWVPB97SBP","url":"https://gershmanlab.com/experiments/alicia/teaching/experiment/?hitId=34KYK9TV2RUAD363EVFPUWVPB97SBP&workerId=A1WJGO38GJ99ZS&assignmentId=3ZR9AIQJUCVSDFZCHGRK1VFN5D004N&a=JARZ7&tp_a=JARZ7&b=3ZR9AIQJUCVSDFZCHGRK1VFN5D004N&tp_b=3ZR9AIQJUCVSDFZCHGRK1VFN5D004N&c=365717&tp_c=365717","heads":0,"tails":1,"studentIndex":23,"studentTrueHypers":{"a":8,"b":2},"studentGuess":0.7272727272727273,"delta":0.5272727272727273,"totalExamples":1,"bonusSoFar":1.13},{"rt":4723,"response":{"heads":"0","tails":"1"},"type":"response","condition":"seqNoFeedback","trueTheta":0.2,"classrooms":["C","D"],"studentTrueClassroom":"D","exampleSet":"second","trial_type":"survey-html-form","trial_index":202,"time_elapsed":2484132,"internal_node_id":"0.0-186.0-0.0","params":{"nStudents":24,"maxFlips":30,"completionMinutes":45,"basePay":8,"maxBonus":9,"perTrialBonus":0.5,"perTrialBonusThreshold":0.05,"exampleCost":0.01},"classroomParams":{"A":{"a":1,"b":4},"B":{"a":4,"b":1},"C":{"a":2,"b":8},"D":{"a":8,"b":2}},"conditions":["nonSeqFull","nonSeqPartial","seqNoFeedback","seqFeedback"],"classroomPairings":[["A","B"],["C","D"]],"coinWeights":[0.2,0.5,0.8],"subjectId":"A1WJGO38GJ99ZS","assignmentId":"3ZR9AIQJUCVSDFZCHGRK1VFN5D004N","hitId":"34KYK9TV2RUAD363EVFPUWVPB97SBP","url":"https://gershmanlab.com/experiments/alicia/teaching/experiment/?hitId=34KYK9TV2RUAD363EVFPUWVPB97SBP&workerId=A1WJGO38GJ99ZS&assignmentId=3ZR9AIQJUCVSDFZCHGRK1VFN5D004N&a=JARZ7&tp_a=JARZ7&b=3ZR9AIQJUCVSDFZCHGRK1VFN5D004N&tp_b=3ZR9AIQJUCVSDFZCHGRK1VFN5D004N&c=365717&tp_c=365717","firstResponseHeads":0,"firstResponseTails":1,"secondResponseHeads":0,"secondResponseTails":1,"totalHeads":0,"totalTails":2,"studentIndex":23,"studentTrueHypers":{"a":8,"b":2},"studentGuess":0.6666666666666666,"delta":0.4666666666666666,"bonus":0,"bonusSoFar":1.13,"totalExamples":2},{"rt":9076,"response":{"gender":"female","age":"31","understood":"yes","comments":""},"type":"response","trial_type":"survey-html-form","trial_index":206,"time_elapsed":2503099,"internal_node_id":"0.0-191.0","params":{"nStudents":24,"maxFlips":30,"completionMinutes":45,"basePay":8,"maxBonus":9,"perTrialBonus":0.5,"perTrialBonusThreshold":0.05,"exampleCost":0.01},"classroomParams":{"A":{"a":1,"b":4},"B":{"a":4,"b":1},"C":{"a":2,"b":8},"D":{"a":8,"b":2}},"conditions":["nonSeqFull","nonSeqPartial","seqNoFeedback","seqFeedback"],"classroomPairings":[["A","B"],["C","D"]],"coinWeights":[0.2,0.5,0.8],"subjectId":"A1WJGO38GJ99ZS","assignmentId":"3ZR9AIQJUCVSDFZCHGRK1VFN5D004N","hitId":"34KYK9TV2RUAD363EVFPUWVPB97SBP","url":"https://gershmanlab.com/experiments/alicia/teaching/experiment/?hitId=34KYK9TV2RUAD363EVFPUWVPB97SBP&workerId=A1WJGO38GJ99ZS&assignmentId=3ZR9AIQJUCVSDFZCHGRK1VFN5D004N&a=JARZ7&tp_a=JARZ7&b=3ZR9AIQJUCVSDFZCHGRK1VFN5D004N&tp_b=3ZR9AIQJUCVSDFZCHGRK1VFN5D004N&c=365717&tp_c=365717","totalBonus":1.13}]