[{"rt":20573,"response":{"heads":"1","tails":"0"},"type":"response","condition":"seqFeedback","trueTheta":0.8,"classrooms":["C","D"],"studentTrueClassroom":"D","exampleSet":"first","trial_type":"survey-html-form","trial_index":76,"time_elapsed":1510551,"internal_node_id":"0.0-6.0-0.0","params":{"nStudents":24,"maxFlips":30,"completionMinutes":45,"basePay":8,"maxBonus":9,"perTrialBonus":0.5,"perTrialBonusThreshold":0.05,"exampleCost":0.01},"classroomParams":{"A":{"a":1,"b":4},"B":{"a":4,"b":1},"C":{"a":2,"b":8},"D":{"a":8,"b":2}},"conditions":["nonSeqFull","nonSeqPartial","seqNoFeedback","seqFeedback"],"classroomPairings":[["A","B"],["C","D"]],"coinWeights":[0.2,0.5,0.8],"subjectId":"A1YSYI926BBOHW","assignmentId":"3KAKFY4PGVOI2EXOLSB7XUNDD85I31","hitId":"3J94SKDEKIB2MY6CGVTNWB9X0ALD5P","url":"https://gershmanlab.com/experiments/alicia/teaching/experiment/?hitId=3J94SKDEKIB2MY6CGVTNWB9X0ALD5P&workerId=A1YSYI926BBOHW&assignmentId=3KAKFY4PGVOI2EXOLSB7XUNDD85I31&a=PFAK9&tp_a=PFAK9&b=3KAKFY4PGVOI2EXOLSB7XUNDD85I31&tp_b=3KAKFY4PGVOI2EXOLSB7XUNDD85I31&c=365799&tp_c=365799","heads":1,"tails":0,"studentIndex":0,"studentTrueHypers":{"a":8,"b":2},"studentGuess":0.8181818181818182,"delta":0.018181818181818188,"totalExamples":1,"bonusSoFar":0},{"rt":10932,"response":{"heads":"8","tails":"0"},"type":"response","condition":"seqFeedback","trueTheta":0.8,"classrooms":["C","D"],"studentTrueClassroom":"D","exampleSet":"second","trial_type":"survey-html-form","trial_index":80,"time_elapsed":1536539,"internal_node_id":"0.0-10.0-0.0","params":{"nStudents":24,"maxFlips":30,"completionMinutes":45,"basePay":8,"maxBonus":9,"perTrialBonus":0.5,"perTrialBonusThreshold":0.05,"exampleCost":0.01},"classroomParams":{"A":{"a":1,"b":4},"B":{"a":4,"b":1},"C":{"a":2,"b":8},"D":{"a":8,"b":2}},"conditions":["nonSeqFull","nonSeqPartial","seqNoFeedback","seqFeedback"],"classroomPairings":[["A","B"],["C","D"]],"coinWeights":[0.2,0.5,0.8],"subjectId":"A1YSYI926BBOHW","assignmentId":"3KAKFY4PGVOI2EXOLSB7XUNDD85I31","hitId":"3J94SKDEKIB2MY6CGVTNWB9X0ALD5P","url":"https://gershmanlab.com/experiments/alicia/teaching/experiment/?hitId=3J94SKDEKIB2MY6CGVTNWB9X0ALD5P&workerId=A1YSYI926BBOHW&assignmentId=3KAKFY4PGVOI2EXOLSB7XUNDD85I31&a=PFAK9&tp_a=PFAK9&b=3KAKFY4PGVOI2EXOLSB7XUNDD85I31&tp_b=3KAKFY4PGVOI2EXOLSB7XUNDD85I31&c=365799&tp_c=365799","firstResponseHeads":1,"firstResponseTails":0,"secondResponseHeads":8,"secondResponseTails":0,"totalHeads":9,"totalTails":0,"studentIndex":0,"studentTrueHypers":{"a":8,"b":2},"studentGuess":0.8947368421052632,"delta":0.09473684210526312,"bonus":0,"bonusSoFar":0,"totalExamples":9},{"rt":4746,"response":{"heads":"8","tails":"0"},"type":"response","condition":"nonSeqFull","trueTheta":0.8,"classrooms":["C","D"],"studentTrueClassroom":"C","exampleSet":"first","trial_type":"survey-html-form","trial_index":86,"time_elapsed":1568040,"internal_node_id":"0.0-16.0-0.0","params":{"nStudents":24,"maxFlips":30,"completionMinutes":45,"basePay":8,"maxBonus":9,"perTrialBonus":0.5,"perTrialBonusThreshold":0.05,"exampleCost":0.01},"classroomParams":{"A":{"a":1,"b":4},"B":{"a":4,"b":1},"C":{"a":2,"b":8},"D":{"a":8,"b":2}},"conditions":["nonSeqFull","nonSeqPartial","seqNoFeedback","seqFeedback"],"classroomPairings":[["A","B"],["C","D"]],"coinWeights":[0.2,0.5,0.8],"subjectId":"A1YSYI926BBOHW","assignmentId":"3KAKFY4PGVOI2EXOLSB7XUNDD85I31","hitId":"3J94SKDEKIB2MY6CGVTNWB9X0ALD5P","url":"https://gershmanlab.com/experiments/alicia/teaching/experiment/?hitId=3J94SKDEKIB2MY6CGVTNWB9X0ALD5P&workerId=A1YSYI926BBOHW&assignmentId=3KAKFY4PGVOI2EXOLSB7XUNDD85I31&a=PFAK9&tp_a=PFAK9&b=3KAKFY4PGVOI2EXOLSB7XUNDD85I31&tp_b=3KAKFY4PGVOI2EXOLSB7XUNDD85I31&c=365799&tp_c=365799","heads":8,"tails":0,"studentIndex":1,"studentTrueHypers":{"a":2,"b":8},"studentGuess":0.5555555555555556,"delta":0.24444444444444446,"totalExamples":8,"bonus":0,"bonusSoFar":0},{"rt":3066,"response":{"heads":"5","tails":"5"},"type":"response","condition":"nonSeqPartial","trueTheta":0.5,"classrooms":["C","D"],"studentTrueClassroom":"C","exampleSet":"first","trial_type":"survey-html-form","trial_index":92,"time_elapsed":1591215,"internal_node_id":"0.0-22.0-0.0","params":{"nStudents":24,"maxFlips":30,"completionMinutes":45,"basePay":8,"maxBonus":9,"perTrialBonus":0.5,"perTrialBonusThreshold":0.05,"exampleCost":0.01},"classroomParams":{"A":{"a":1,"b":4},"B":{"a":4,"b":1},"C":{"a":2,"b":8},"D":{"a":8,"b":2}},"conditions":["nonSeqFull","nonSeqPartial","seqNoFeedback","seqFeedback"],"classroomPairings":[["A","B"],["C","D"]],"coinWeights":[0.2,0.5,0.8],"subjectId":"A1YSYI926BBOHW","assignmentId":"3KAKFY4PGVOI2EXOLSB7XUNDD85I31","hitId":"3J94SKDEKIB2MY6CGVTNWB9X0ALD5P","url":"https://gershmanlab.com/experiments/alicia/teaching/experiment/?hitId=3J94SKDEKIB2MY6CGVTNWB9X0ALD5P&workerId=A1YSYI926BBOHW&assignmentId=3KAKFY4PGVOI2EXOLSB7XUNDD85I31&a=PFAK9&tp_a=PFAK9&b=3KAKFY4PGVOI2EXOLSB7XUNDD85I31&tp_b=3KAKFY4PGVOI2EXOLSB7XUNDD85I31&c=365799&tp_c=365799","heads":5,"tails":5,"studentIndex":2,"studentTrueHypers":{"a":2,"b":8},"studentGuess":0.35,"delta":0.15000000000000002,"totalExamples":10,"bonus":0,"bonusSoFar":0},{"rt":4847,"response":{"heads":"5","tails":"5"},"type":"response","condition":"nonSeqFull","trueTheta":0.5,"classrooms":["A","B"],"studentTrueClassroom":"B","exampleSet":"first","trial_type":"survey-html-form","trial_index":98,"time_elapsed":1613109,"internal_node_id":"0.0-28.0-0.0","params":{"nStudents":24,"maxFlips":30,"completionMinutes":45,"basePay":8,"maxBonus":9,"perTrialBonus":0.5,"perTrialBonusThreshold":0.05,"exampleCost":0.01},"classroomParams":{"A":{"a":1,"b":4},"B":{"a":4,"b":1},"C":{"a":2,"b":8},"D":{"a":8,"b":2}},"conditions":["nonSeqFull","nonSeqPartial","seqNoFeedback","seqFeedback"],"classroomPairings":[["A","B"],["C","D"]],"coinWeights":[0.2,0.5,0.8],"subjectId":"A1YSYI926BBOHW","assignmentId":"3KAKFY4PGVOI2EXOLSB7XUNDD85I31","hitId":"3J94SKDEKIB2MY6CGVTNWB9X0ALD5P","url":"https://gershmanlab.com/experiments/alicia/teaching/experiment/?hitId=3J94SKDEKIB2MY6CGVTNWB9X0ALD5P&workerId=A1YSYI926BBOHW&assignmentId=3KAKFY4PGVOI2EXOLSB7XUNDD85I31&a=PFAK9&tp_a=PFAK9&b=3KAKFY4PGVOI2EXOLSB7XUNDD85I31&tp_b=3KAKFY4PGVOI2EXOLSB7XUNDD85I31&c=365799&tp_c=365799","heads":5,"tails":5,"studentIndex":3,"studentTrueHypers":{"a":4,"b":1},"studentGuess":0.6,"delta":0.09999999999999998,"totalExamples":10,"bonus":0,"bonusSoFar":0},{"rt":3362,"response":{"heads":"5","tails":"5"},"type":"response","condition":"seqNoFeedback","trueTheta":0.5,"classrooms":["C","D"],"studentTrueClassroom":"D","exampleSet":"first","trial_type":"survey-html-form","trial_index":104,"time_elapsed":1627960,"internal_node_id":"0.0-34.0-0.0","params":{"nStudents":24,"maxFlips":30,"completionMinutes":45,"basePay":8,"maxBonus":9,"perTrialBonus":0.5,"perTrialBonusThreshold":0.05,"exampleCost":0.01},"classroomParams":{"A":{"a":1,"b":4},"B":{"a":4,"b":1},"C":{"a":2,"b":8},"D":{"a":8,"b":2}},"conditions":["nonSeqFull","nonSeqPartial","seqNoFeedback","seqFeedback"],"classroomPairings":[["A","B"],["C","D"]],"coinWeights":[0.2,0.5,0.8],"subjectId":"A1YSYI926BBOHW","assignmentId":"3KAKFY4PGVOI2EXOLSB7XUNDD85I31","hitId":"3J94SKDEKIB2MY6CGVTNWB9X0ALD5P","url":"https://gershmanlab.com/experiments/alicia/teaching/experiment/?hitId=3J94SKDEKIB2MY6CGVTNWB9X0ALD5P&workerId=A1YSYI926BBOHW&assignmentId=3KAKFY4PGVOI2EXOLSB7XUNDD85I31&a=PFAK9&tp_a=PFAK9&b=3KAKFY4PGVOI2EXOLSB7XUNDD85I31&tp_b=3KAKFY4PGVOI2EXOLSB7XUNDD85I31&c=365799&tp_c=365799","heads":5,"tails":5,"studentIndex":4,"studentTrueHypers":{"a":8,"b":2},"studentGuess":0.65,"delta":0.15000000000000002,"totalExamples":10,"bonusSoFar":0},{"rt":11691,"response":{"heads":"5","tails":"5"},"type":"response","condition":"seqNoFeedback","trueTheta":0.5,"classrooms":["C","D"],"studentTrueClassroom":"D","exampleSet":"second","trial_type":"survey-html-form","trial_index":107,"time_elapsed":1645162,"internal_node_id":"0.0-37.0-0.0","params":{"nStudents":24,"maxFlips":30,"completionMinutes":45,"basePay":8,"maxBonus":9,"perTrialBonus":0.5,"perTrialBonusThreshold":0.05,"exampleCost":0.01},"classroomParams":{"A":{"a":1,"b":4},"B":{"a":4,"b":1},"C":{"a":2,"b":8},"D":{"a":8,"b":2}},"conditions":["nonSeqFull","nonSeqPartial","seqNoFeedback","seqFeedback"],"classroomPairings":[["A","B"],["C","D"]],"coinWeights":[0.2,0.5,0.8],"subjectId":"A1YSYI926BBOHW","assignmentId":"3KAKFY4PGVOI2EXOLSB7XUNDD85I31","hitId":"3J94SKDEKIB2MY6CGVTNWB9X0ALD5P","url":"https://gershmanlab.com/experiments/alicia/teaching/experiment/?hitId=3J94SKDEKIB2MY6CGVTNWB9X0ALD5P&workerId=A1YSYI926BBOHW&assignmentId=3KAKFY4PGVOI2EXOLSB7XUNDD85I31&a=PFAK9&tp_a=PFAK9&b=3KAKFY4PGVOI2EXOLSB7XUNDD85I31&tp_b=3KAKFY4PGVOI2EXOLSB7XUNDD85I31&c=365799&tp_c=365799","firstResponseHeads":5,"firstResponseTails":5,"secondResponseHeads":5,"secondResponseTails":5,"totalHeads":10,"totalTails":10,"studentIndex":4,"studentTrueHypers":{"a":8,"b":2},"studentGuess":0.6,"delta":0.09999999999999998,"bonus":0,"bonusSoFar":0,"totalExamples":20},{"rt":3425,"response":{"heads":"2","tails":"8"},"type":"response","condition":"seqNoFeedback","trueTheta":0.2,"classrooms":["A","B"],"studentTrueClassroom":"B","exampleSet":"first","trial_type":"survey-html-form","trial_index":113,"time_elapsed":1678200,"internal_node_id":"0.0-43.0-0.0","params":{"nStudents":24,"maxFlips":30,"completionMinutes":45,"basePay":8,"maxBonus":9,"perTrialBonus":0.5,"perTrialBonusThreshold":0.05,"exampleCost":0.01},"classroomParams":{"A":{"a":1,"b":4},"B":{"a":4,"b":1},"C":{"a":2,"b":8},"D":{"a":8,"b":2}},"conditions":["nonSeqFull","nonSeqPartial","seqNoFeedback","seqFeedback"],"classroomPairings":[["A","B"],["C","D"]],"coinWeights":[0.2,0.5,0.8],"subjectId":"A1YSYI926BBOHW","assignmentId":"3KAKFY4PGVOI2EXOLSB7XUNDD85I31","hitId":"3J94SKDEKIB2MY6CGVTNWB9X0ALD5P","url":"https://gershmanlab.com/experiments/alicia/teaching/experiment/?hitId=3J94SKDEKIB2MY6CGVTNWB9X0ALD5P&workerId=A1YSYI926BBOHW&assignmentId=3KAKFY4PGVOI2EXOLSB7XUNDD85I31&a=PFAK9&tp_a=PFAK9&b=3KAKFY4PGVOI2EXOLSB7XUNDD85I31&tp_b=3KAKFY4PGVOI2EXOLSB7XUNDD85I31&c=365799&tp_c=365799","heads":2,"tails":8,"studentIndex":5,"studentTrueHypers":{"a":4,"b":1},"studentGuess":0.4,"delta":0.2,"totalExamples":10,"bonusSoFar":0},{"rt":9928,"response":{"heads":"2","tails":"8"},"type":"response","condition":"seqNoFeedback","trueTheta":0.2,"classrooms":["A","B"],"studentTrueClassroom":"B","exampleSet":"second","trial_type":"survey-html-form","trial_index":116,"time_elapsed":1694635,"internal_node_id":"0.0-46.0-0.0","params":{"nStudents":24,"maxFlips":30,"completionMinutes":45,"basePay":8,"maxBonus":9,"perTrialBonus":0.5,"perTrialBonusThreshold":0.05,"exampleCost":0.01},"classroomParams":{"A":{"a":1,"b":4},"B":{"a":4,"b":1},"C":{"a":2,"b":8},"D":{"a":8,"b":2}},"conditions":["nonSeqFull","nonSeqPartial","seqNoFeedback","seqFeedback"],"classroomPairings":[["A","B"],["C","D"]],"coinWeights":[0.2,0.5,0.8],"subjectId":"A1YSYI926BBOHW","assignmentId":"3KAKFY4PGVOI2EXOLSB7XUNDD85I31","hitId":"3J94SKDEKIB2MY6CGVTNWB9X0ALD5P","url":"https://gershmanlab.com/experiments/alicia/teaching/experiment/?hitId=3J94SKDEKIB2MY6CGVTNWB9X0ALD5P&workerId=A1YSYI926BBOHW&assignmentId=3KAKFY4PGVOI2EXOLSB7XUNDD85I31&a=PFAK9&tp_a=PFAK9&b=3KAKFY4PGVOI2EXOLSB7XUNDD85I31&tp_b=3KAKFY4PGVOI2EXOLSB7XUNDD85I31&c=365799&tp_c=365799","firstResponseHeads":2,"firstResponseTails":8,"secondResponseHeads":2,"secondResponseTails":8,"totalHeads":4,"totalTails":16,"studentIndex":5,"studentTrueHypers":{"a":4,"b":1},"studentGuess":0.32,"delta":0.12,"bonus":0,"bonusSoFar":0,"totalExamples":20},{"rt":3835,"response":{"heads":"4","tails":"1"},"type":"response","condition":"nonSeqPartial","trueTheta":0.8,"classrooms":["A","B"],"studentTrueClassroom":"A","exampleSet":"first","trial_type":"survey-html-form","trial_index":122,"time_elapsed":1712474,"internal_node_id":"0.0-52.0-0.0","params":{"nStudents":24,"maxFlips":30,"completionMinutes":45,"basePay":8,"maxBonus":9,"perTrialBonus":0.5,"perTrialBonusThreshold":0.05,"exampleCost":0.01},"classroomParams":{"A":{"a":1,"b":4},"B":{"a":4,"b":1},"C":{"a":2,"b":8},"D":{"a":8,"b":2}},"conditions":["nonSeqFull","nonSeqPartial","seqNoFeedback","seqFeedback"],"classroomPairings":[["A","B"],["C","D"]],"coinWeights":[0.2,0.5,0.8],"subjectId":"A1YSYI926BBOHW","assignmentId":"3KAKFY4PGVOI2EXOLSB7XUNDD85I31","hitId":"3J94SKDEKIB2MY6CGVTNWB9X0ALD5P","url":"https://gershmanlab.com/experiments/alicia/teaching/experiment/?hitId=3J94SKDEKIB2MY6CGVTNWB9X0ALD5P&workerId=A1YSYI926BBOHW&assignmentId=3KAKFY4PGVOI2EXOLSB7XUNDD85I31&a=PFAK9&tp_a=PFAK9&b=3KAKFY4PGVOI2EXOLSB7XUNDD85I31&tp_b=3KAKFY4PGVOI2EXOLSB7XUNDD85I31&c=365799&tp_c=365799","heads":4,"tails":1,"studentIndex":6,"studentTrueHypers":{"a":1,"b":4},"studentGuess":0.5,"delta":0.30000000000000004,"totalExamples":5,"bonus":0,"bonusSoFar":0},{"rt":2610,"response":{"heads":"2","tails":"8"},"type":"response","condition":"seqNoFeedback","trueTheta":0.2,"classrooms":["C","D"],"studentTrueClassroom":"D","exampleSet":"first","trial_type":"survey-html-form","trial_index":128,"time_elapsed":1725673,"internal_node_id":"0.0-58.0-0.0","params":{"nStudents":24,"maxFlips":30,"completionMinutes":45,"basePay":8,"maxBonus":9,"perTrialBonus":0.5,"perTrialBonusThreshold":0.05,"exampleCost":0.01},"classroomParams":{"A":{"a":1,"b":4},"B":{"a":4,"b":1},"C":{"a":2,"b":8},"D":{"a":8,"b":2}},"conditions":["nonSeqFull","nonSeqPartial","seqNoFeedback","seqFeedback"],"classroomPairings":[["A","B"],["C","D"]],"coinWeights":[0.2,0.5,0.8],"subjectId":"A1YSYI926BBOHW","assignmentId":"3KAKFY4PGVOI2EXOLSB7XUNDD85I31","hitId":"3J94SKDEKIB2MY6CGVTNWB9X0ALD5P","url":"https://gershmanlab.com/experiments/alicia/teaching/experiment/?hitId=3J94SKDEKIB2MY6CGVTNWB9X0ALD5P&workerId=A1YSYI926BBOHW&assignmentId=3KAKFY4PGVOI2EXOLSB7XUNDD85I31&a=PFAK9&tp_a=PFAK9&b=3KAKFY4PGVOI2EXOLSB7XUNDD85I31&tp_b=3KAKFY4PGVOI2EXOLSB7XUNDD85I31&c=365799&tp_c=365799","heads":2,"tails":8,"studentIndex":7,"studentTrueHypers":{"a":8,"b":2},"studentGuess":0.5,"delta":0.3,"totalExamples":10,"bonusSoFar":0},{"rt":5233,"response":{"heads":"2","tails":"8"},"type":"response","condition":"seqNoFeedback","trueTheta":0.2,"classrooms":["C","D"],"studentTrueClassroom":"D","exampleSet":"second","trial_type":"survey-html-form","trial_index":131,"time_elapsed":1738916,"internal_node_id":"0.0-61.0-0.0","params":{"nStudents":24,"maxFlips":30,"completionMinutes":45,"basePay":8,"maxBonus":9,"perTrialBonus":0.5,"perTrialBonusThreshold":0.05,"exampleCost":0.01},"classroomParams":{"A":{"a":1,"b":4},"B":{"a":4,"b":1},"C":{"a":2,"b":8},"D":{"a":8,"b":2}},"conditions":["nonSeqFull","nonSeqPartial","seqNoFeedback","seqFeedback"],"classroomPairings":[["A","B"],["C","D"]],"coinWeights":[0.2,0.5,0.8],"subjectId":"A1YSYI926BBOHW","assignmentId":"3KAKFY4PGVOI2EXOLSB7XUNDD85I31","hitId":"3J94SKDEKIB2MY6CGVTNWB9X0ALD5P","url":"https://gershmanlab.com/experiments/alicia/teaching/experiment/?hitId=3J94SKDEKIB2MY6CGVTNWB9X0ALD5P&workerId=A1YSYI926BBOHW&assignmentId=3KAKFY4PGVOI2EXOLSB7XUNDD85I31&a=PFAK9&tp_a=PFAK9&b=3KAKFY4PGVOI2EXOLSB7XUNDD85I31&tp_b=3KAKFY4PGVOI2EXOLSB7XUNDD85I31&c=365799&tp_c=365799","firstResponseHeads":2,"firstResponseTails":8,"secondResponseHeads":2,"secondResponseTails":8,"totalHeads":4,"totalTails":16,"studentIndex":7,"studentTrueHypers":{"a":8,"b":2},"studentGuess":0.4,"delta":0.2,"bonus":0,"bonusSoFar":0,"totalExamples":20},{"rt":5839,"response":{"heads":"5","tails":"5"},"type":"response","condition":"seqFeedback","trueTheta":0.5,"classrooms":["A","B"],"studentTrueClassroom":"A","exampleSet":"first","trial_type":"survey-html-form","trial_index":137,"time_elapsed":1764271,"internal_node_id":"0.0-67.0-0.0","params":{"nStudents":24,"maxFlips":30,"completionMinutes":45,"basePay":8,"maxBonus":9,"perTrialBonus":0.5,"perTrialBonusThreshold":0.05,"exampleCost":0.01},"classroomParams":{"A":{"a":1,"b":4},"B":{"a":4,"b":1},"C":{"a":2,"b":8},"D":{"a":8,"b":2}},"conditions":["nonSeqFull","nonSeqPartial","seqNoFeedback","seqFeedback"],"classroomPairings":[["A","B"],["C","D"]],"coinWeights":[0.2,0.5,0.8],"subjectId":"A1YSYI926BBOHW","assignmentId":"3KAKFY4PGVOI2EXOLSB7XUNDD85I31","hitId":"3J94SKDEKIB2MY6CGVTNWB9X0ALD5P","url":"https://gershmanlab.com/experiments/alicia/teaching/experiment/?hitId=3J94SKDEKIB2MY6CGVTNWB9X0ALD5P&workerId=A1YSYI926BBOHW&assignmentId=3KAKFY4PGVOI2EXOLSB7XUNDD85I31&a=PFAK9&tp_a=PFAK9&b=3KAKFY4PGVOI2EXOLSB7XUNDD85I31&tp_b=3KAKFY4PGVOI2EXOLSB7XUNDD85I31&c=365799&tp_c=365799","heads":5,"tails":5,"studentIndex":8,"studentTrueHypers":{"a":1,"b":4},"studentGuess":0.4,"delta":0.09999999999999998,"totalExamples":10,"bonusSoFar":0},{"rt":3478,"response":{"heads":"5","tails":"5"},"type":"response","condition":"seqFeedback","trueTheta":0.5,"classrooms":["A","B"],"studentTrueClassroom":"A","exampleSet":"second","trial_type":"survey-html-form","trial_index":141,"time_elapsed":1774879,"internal_node_id":"0.0-71.0-0.0","params":{"nStudents":24,"maxFlips":30,"completionMinutes":45,"basePay":8,"maxBonus":9,"perTrialBonus":0.5,"perTrialBonusThreshold":0.05,"exampleCost":0.01},"classroomParams":{"A":{"a":1,"b":4},"B":{"a":4,"b":1},"C":{"a":2,"b":8},"D":{"a":8,"b":2}},"conditions":["nonSeqFull","nonSeqPartial","seqNoFeedback","seqFeedback"],"classroomPairings":[["A","B"],["C","D"]],"coinWeights":[0.2,0.5,0.8],"subjectId":"A1YSYI926BBOHW","assignmentId":"3KAKFY4PGVOI2EXOLSB7XUNDD85I31","hitId":"3J94SKDEKIB2MY6CGVTNWB9X0ALD5P","url":"https://gershmanlab.com/experiments/alicia/teaching/experiment/?hitId=3J94SKDEKIB2MY6CGVTNWB9X0ALD5P&workerId=A1YSYI926BBOHW&assignmentId=3KAKFY4PGVOI2EXOLSB7XUNDD85I31&a=PFAK9&tp_a=PFAK9&b=3KAKFY4PGVOI2EXOLSB7XUNDD85I31&tp_b=3KAKFY4PGVOI2EXOLSB7XUNDD85I31&c=365799&tp_c=365799","firstResponseHeads":5,"firstResponseTails":5,"secondResponseHeads":5,"secondResponseTails":5,"totalHeads":10,"totalTails":10,"studentIndex":8,"studentTrueHypers":{"a":1,"b":4},"studentGuess":0.44,"delta":0.06,"bonus":0,"bonusSoFar":0,"totalExamples":20},{"rt":5208,"response":{"heads":"5","tails":"5"},"type":"response","condition":"seqNoFeedback","trueTheta":0.5,"classrooms":["A","B"],"studentTrueClassroom":"A","exampleSet":"first","trial_type":"survey-html-form","trial_index":147,"time_elapsed":1792464,"internal_node_id":"0.0-77.0-0.0","params":{"nStudents":24,"maxFlips":30,"completionMinutes":45,"basePay":8,"maxBonus":9,"perTrialBonus":0.5,"perTrialBonusThreshold":0.05,"exampleCost":0.01},"classroomParams":{"A":{"a":1,"b":4},"B":{"a":4,"b":1},"C":{"a":2,"b":8},"D":{"a":8,"b":2}},"conditions":["nonSeqFull","nonSeqPartial","seqNoFeedback","seqFeedback"],"classroomPairings":[["A","B"],["C","D"]],"coinWeights":[0.2,0.5,0.8],"subjectId":"A1YSYI926BBOHW","assignmentId":"3KAKFY4PGVOI2EXOLSB7XUNDD85I31","hitId":"3J94SKDEKIB2MY6CGVTNWB9X0ALD5P","url":"https://gershmanlab.com/experiments/alicia/teaching/experiment/?hitId=3J94SKDEKIB2MY6CGVTNWB9X0ALD5P&workerId=A1YSYI926BBOHW&assignmentId=3KAKFY4PGVOI2EXOLSB7XUNDD85I31&a=PFAK9&tp_a=PFAK9&b=3KAKFY4PGVOI2EXOLSB7XUNDD85I31&tp_b=3KAKFY4PGVOI2EXOLSB7XUNDD85I31&c=365799&tp_c=365799","heads":5,"tails":5,"studentIndex":9,"studentTrueHypers":{"a":1,"b":4},"studentGuess":0.4,"delta":0.09999999999999998,"totalExamples":10,"bonusSoFar":0},{"rt":13617,"response":{"heads":"5","tails":"5"},"type":"response","condition":"seqNoFeedback","trueTheta":0.5,"classrooms":["A","B"],"studentTrueClassroom":"A","exampleSet":"second","trial_type":"survey-html-form","trial_index":150,"time_elapsed":1812838,"internal_node_id":"0.0-80.0-0.0","params":{"nStudents":24,"maxFlips":30,"completionMinutes":45,"basePay":8,"maxBonus":9,"perTrialBonus":0.5,"perTrialBonusThreshold":0.05,"exampleCost":0.01},"classroomParams":{"A":{"a":1,"b":4},"B":{"a":4,"b":1},"C":{"a":2,"b":8},"D":{"a":8,"b":2}},"conditions":["nonSeqFull","nonSeqPartial","seqNoFeedback","seqFeedback"],"classroomPairings":[["A","B"],["C","D"]],"coinWeights":[0.2,0.5,0.8],"subjectId":"A1YSYI926BBOHW","assignmentId":"3KAKFY4PGVOI2EXOLSB7XUNDD85I31","hitId":"3J94SKDEKIB2MY6CGVTNWB9X0ALD5P","url":"https://gershmanlab.com/experiments/alicia/teaching/experiment/?hitId=3J94SKDEKIB2MY6CGVTNWB9X0ALD5P&workerId=A1YSYI926BBOHW&assignmentId=3KAKFY4PGVOI2EXOLSB7XUNDD85I31&a=PFAK9&tp_a=PFAK9&b=3KAKFY4PGVOI2EXOLSB7XUNDD85I31&tp_b=3KAKFY4PGVOI2EXOLSB7XUNDD85I31&c=365799&tp_c=365799","firstResponseHeads":5,"firstResponseTails":5,"secondResponseHeads":5,"secondResponseTails":5,"totalHeads":10,"totalTails":10,"studentIndex":9,"studentTrueHypers":{"a":1,"b":4},"studentGuess":0.44,"delta":0.06,"bonus":0,"bonusSoFar":0,"totalExamples":20},{"rt":2181,"response":{"heads":"1","tails":"0"},"type":"response","condition":"seqFeedback","trueTheta":0.2,"classrooms":["C","D"],"studentTrueClassroom":"D","exampleSet":"first","trial_type":"survey-html-form","trial_index":156,"time_elapsed":1831964,"internal_node_id":"0.0-86.0-0.0","params":{"nStudents":24,"maxFlips":30,"completionMinutes":45,"basePay":8,"maxBonus":9,"perTrialBonus":0.5,"perTrialBonusThreshold":0.05,"exampleCost":0.01},"classroomParams":{"A":{"a":1,"b":4},"B":{"a":4,"b":1},"C":{"a":2,"b":8},"D":{"a":8,"b":2}},"conditions":["nonSeqFull","nonSeqPartial","seqNoFeedback","seqFeedback"],"classroomPairings":[["A","B"],["C","D"]],"coinWeights":[0.2,0.5,0.8],"subjectId":"A1YSYI926BBOHW","assignmentId":"3KAKFY4PGVOI2EXOLSB7XUNDD85I31","hitId":"3J94SKDEKIB2MY6CGVTNWB9X0ALD5P","url":"https://gershmanlab.com/experiments/alicia/teaching/experiment/?hitId=3J94SKDEKIB2MY6CGVTNWB9X0ALD5P&workerId=A1YSYI926BBOHW&assignmentId=3KAKFY4PGVOI2EXOLSB7XUNDD85I31&a=PFAK9&tp_a=PFAK9&b=3KAKFY4PGVOI2EXOLSB7XUNDD85I31&tp_b=3KAKFY4PGVOI2EXOLSB7XUNDD85I31&c=365799&tp_c=365799","heads":1,"tails":0,"studentIndex":10,"studentTrueHypers":{"a":8,"b":2},"studentGuess":0.8181818181818182,"delta":0.6181818181818182,"totalExamples":1,"bonusSoFar":0},{"rt":6279,"response":{"heads":"1","tails":"8"},"type":"response","condition":"seqFeedback","trueTheta":0.2,"classrooms":["C","D"],"studentTrueClassroom":"D","exampleSet":"second","trial_type":"survey-html-form","trial_index":160,"time_elapsed":1850224,"internal_node_id":"0.0-90.0-0.0","params":{"nStudents":24,"maxFlips":30,"completionMinutes":45,"basePay":8,"maxBonus":9,"perTrialBonus":0.5,"perTrialBonusThreshold":0.05,"exampleCost":0.01},"classroomParams":{"A":{"a":1,"b":4},"B":{"a":4,"b":1},"C":{"a":2,"b":8},"D":{"a":8,"b":2}},"conditions":["nonSeqFull","nonSeqPartial","seqNoFeedback","seqFeedback"],"classroomPairings":[["A","B"],["C","D"]],"coinWeights":[0.2,0.5,0.8],"subjectId":"A1YSYI926BBOHW","assignmentId":"3KAKFY4PGVOI2EXOLSB7XUNDD85I31","hitId":"3J94SKDEKIB2MY6CGVTNWB9X0ALD5P","url":"https://gershmanlab.com/experiments/alicia/teaching/experiment/?hitId=3J94SKDEKIB2MY6CGVTNWB9X0ALD5P&workerId=A1YSYI926BBOHW&assignmentId=3KAKFY4PGVOI2EXOLSB7XUNDD85I31&a=PFAK9&tp_a=PFAK9&b=3KAKFY4PGVOI2EXOLSB7XUNDD85I31&tp_b=3KAKFY4PGVOI2EXOLSB7XUNDD85I31&c=365799&tp_c=365799","firstResponseHeads":1,"firstResponseTails":0,"secondResponseHeads":1,"secondResponseTails":8,"totalHeads":2,"totalTails":8,"studentIndex":10,"studentTrueHypers":{"a":8,"b":2},"studentGuess":0.5,"delta":0.3,"bonus":0,"bonusSoFar":0,"totalExamples":10},{"rt":4150,"response":{"heads":"5","tails":"5"},"type":"response","condition":"seqFeedback","trueTheta":0.5,"classrooms":["C","D"],"studentTrueClassroom":"D","exampleSet":"first","trial_type":"survey-html-form","trial_index":166,"time_elapsed":1865850,"internal_node_id":"0.0-96.0-0.0","params":{"nStudents":24,"maxFlips":30,"completionMinutes":45,"basePay":8,"maxBonus":9,"perTrialBonus":0.5,"perTrialBonusThreshold":0.05,"exampleCost":0.01},"classroomParams":{"A":{"a":1,"b":4},"B":{"a":4,"b":1},"C":{"a":2,"b":8},"D":{"a":8,"b":2}},"conditions":["nonSeqFull","nonSeqPartial","seqNoFeedback","seqFeedback"],"classroomPairings":[["A","B"],["C","D"]],"coinWeights":[0.2,0.5,0.8],"subjectId":"A1YSYI926BBOHW","assignmentId":"3KAKFY4PGVOI2EXOLSB7XUNDD85I31","hitId":"3J94SKDEKIB2MY6CGVTNWB9X0ALD5P","url":"https://gershmanlab.com/experiments/alicia/teaching/experiment/?hitId=3J94SKDEKIB2MY6CGVTNWB9X0ALD5P&workerId=A1YSYI926BBOHW&assignmentId=3KAKFY4PGVOI2EXOLSB7XUNDD85I31&a=PFAK9&tp_a=PFAK9&b=3KAKFY4PGVOI2EXOLSB7XUNDD85I31&tp_b=3KAKFY4PGVOI2EXOLSB7XUNDD85I31&c=365799&tp_c=365799","heads":5,"tails":5,"studentIndex":11,"studentTrueHypers":{"a":8,"b":2},"studentGuess":0.65,"delta":0.15000000000000002,"totalExamples":10,"bonusSoFar":0},{"rt":6532,"response":{"heads":"4","tails":"6"},"type":"response","condition":"seqFeedback","trueTheta":0.5,"classrooms":["C","D"],"studentTrueClassroom":"D","exampleSet":"second","trial_type":"survey-html-form","trial_index":170,"time_elapsed":1880904,"internal_node_id":"0.0-100.0-0.0","params":{"nStudents":24,"maxFlips":30,"completionMinutes":45,"basePay":8,"maxBonus":9,"perTrialBonus":0.5,"perTrialBonusThreshold":0.05,"exampleCost":0.01},"classroomParams":{"A":{"a":1,"b":4},"B":{"a":4,"b":1},"C":{"a":2,"b":8},"D":{"a":8,"b":2}},"conditions":["nonSeqFull","nonSeqPartial","seqNoFeedback","seqFeedback"],"classroomPairings":[["A","B"],["C","D"]],"coinWeights":[0.2,0.5,0.8],"subjectId":"A1YSYI926BBOHW","assignmentId":"3KAKFY4PGVOI2EXOLSB7XUNDD85I31","hitId":"3J94SKDEKIB2MY6CGVTNWB9X0ALD5P","url":"https://gershmanlab.com/experiments/alicia/teaching/experiment/?hitId=3J94SKDEKIB2MY6CGVTNWB9X0ALD5P&workerId=A1YSYI926BBOHW&assignmentId=3KAKFY4PGVOI2EXOLSB7XUNDD85I31&a=PFAK9&tp_a=PFAK9&b=3KAKFY4PGVOI2EXOLSB7XUNDD85I31&tp_b=3KAKFY4PGVOI2EXOLSB7XUNDD85I31&c=365799&tp_c=365799","firstResponseHeads":5,"firstResponseTails":5,"secondResponseHeads":4,"secondResponseTails":6,"totalHeads":9,"totalTails":11,"studentIndex":11,"studentTrueHypers":{"a":8,"b":2},"studentGuess":0.5666666666666667,"delta":0.06666666666666665,"bonus":0,"bonusSoFar":0,"totalExamples":20},{"rt":3853,"response":{"heads":"2","tails":"8"},"type":"response","condition":"nonSeqFull","trueTheta":0.2,"classrooms":["C","D"],"studentTrueClassroom":"D","exampleSet":"first","trial_type":"survey-html-form","trial_index":176,"time_elapsed":1898199,"internal_node_id":"0.0-106.0-0.0","params":{"nStudents":24,"maxFlips":30,"completionMinutes":45,"basePay":8,"maxBonus":9,"perTrialBonus":0.5,"perTrialBonusThreshold":0.05,"exampleCost":0.01},"classroomParams":{"A":{"a":1,"b":4},"B":{"a":4,"b":1},"C":{"a":2,"b":8},"D":{"a":8,"b":2}},"conditions":["nonSeqFull","nonSeqPartial","seqNoFeedback","seqFeedback"],"classroomPairings":[["A","B"],["C","D"]],"coinWeights":[0.2,0.5,0.8],"subjectId":"A1YSYI926BBOHW","assignmentId":"3KAKFY4PGVOI2EXOLSB7XUNDD85I31","hitId":"3J94SKDEKIB2MY6CGVTNWB9X0ALD5P","url":"https://gershmanlab.com/experiments/alicia/teaching/experiment/?hitId=3J94SKDEKIB2MY6CGVTNWB9X0ALD5P&workerId=A1YSYI926BBOHW&assignmentId=3KAKFY4PGVOI2EXOLSB7XUNDD85I31&a=PFAK9&tp_a=PFAK9&b=3KAKFY4PGVOI2EXOLSB7XUNDD85I31&tp_b=3KAKFY4PGVOI2EXOLSB7XUNDD85I31&c=365799&tp_c=365799","heads":2,"tails":8,"studentIndex":12,"studentTrueHypers":{"a":8,"b":2},"studentGuess":0.5,"delta":0.3,"totalExamples":10,"bonus":0,"bonusSoFar":0},{"rt":2606,"response":{"heads":"1","tails":"8"},"type":"response","condition":"nonSeqPartial","trueTheta":0.2,"classrooms":["A","B"],"studentTrueClassroom":"B","exampleSet":"first","trial_type":"survey-html-form","trial_index":182,"time_elapsed":1914030,"internal_node_id":"0.0-112.0-0.0","params":{"nStudents":24,"maxFlips":30,"completionMinutes":45,"basePay":8,"maxBonus":9,"perTrialBonus":0.5,"perTrialBonusThreshold":0.05,"exampleCost":0.01},"classroomParams":{"A":{"a":1,"b":4},"B":{"a":4,"b":1},"C":{"a":2,"b":8},"D":{"a":8,"b":2}},"conditions":["nonSeqFull","nonSeqPartial","seqNoFeedback","seqFeedback"],"classroomPairings":[["A","B"],["C","D"]],"coinWeights":[0.2,0.5,0.8],"subjectId":"A1YSYI926BBOHW","assignmentId":"3KAKFY4PGVOI2EXOLSB7XUNDD85I31","hitId":"3J94SKDEKIB2MY6CGVTNWB9X0ALD5P","url":"https://gershmanlab.com/experiments/alicia/teaching/experiment/?hitId=3J94SKDEKIB2MY6CGVTNWB9X0ALD5P&workerId=A1YSYI926BBOHW&assignmentId=3KAKFY4PGVOI2EXOLSB7XUNDD85I31&a=PFAK9&tp_a=PFAK9&b=3KAKFY4PGVOI2EXOLSB7XUNDD85I31&tp_b=3KAKFY4PGVOI2EXOLSB7XUNDD85I31&c=365799&tp_c=365799","heads":1,"tails":8,"studentIndex":13,"studentTrueHypers":{"a":4,"b":1},"studentGuess":0.35714285714285715,"delta":0.15714285714285714,"totalExamples":9,"bonus":0,"bonusSoFar":0},{"rt":6292,"response":{"heads":"1","tails":"4"},"type":"response","condition":"nonSeqPartial","trueTheta":0.5,"classrooms":["A","B"],"studentTrueClassroom":"B","exampleSet":"first","trial_type":"survey-html-form","trial_index":188,"time_elapsed":1931736,"internal_node_id":"0.0-118.0-0.0","params":{"nStudents":24,"maxFlips":30,"completionMinutes":45,"basePay":8,"maxBonus":9,"perTrialBonus":0.5,"perTrialBonusThreshold":0.05,"exampleCost":0.01},"classroomParams":{"A":{"a":1,"b":4},"B":{"a":4,"b":1},"C":{"a":2,"b":8},"D":{"a":8,"b":2}},"conditions":["nonSeqFull","nonSeqPartial","seqNoFeedback","seqFeedback"],"classroomPairings":[["A","B"],["C","D"]],"coinWeights":[0.2,0.5,0.8],"subjectId":"A1YSYI926BBOHW","assignmentId":"3KAKFY4PGVOI2EXOLSB7XUNDD85I31","hitId":"3J94SKDEKIB2MY6CGVTNWB9X0ALD5P","url":"https://gershmanlab.com/experiments/alicia/teaching/experiment/?hitId=3J94SKDEKIB2MY6CGVTNWB9X0ALD5P&workerId=A1YSYI926BBOHW&assignmentId=3KAKFY4PGVOI2EXOLSB7XUNDD85I31&a=PFAK9&tp_a=PFAK9&b=3KAKFY4PGVOI2EXOLSB7XUNDD85I31&tp_b=3KAKFY4PGVOI2EXOLSB7XUNDD85I31&c=365799&tp_c=365799","heads":1,"tails":4,"studentIndex":14,"studentTrueHypers":{"a":4,"b":1},"studentGuess":0.5,"delta":0,"totalExamples":5,"bonus":0.45,"bonusSoFar":0.45},{"rt":11306,"response":{"heads":"16","tails":"0"},"type":"response","condition":"seqNoFeedback","trueTheta":0.8,"classrooms":["C","D"],"studentTrueClassroom":"C","exampleSet":"first","trial_type":"survey-html-form","trial_index":194,"time_elapsed":1956868,"internal_node_id":"0.0-124.0-0.0","params":{"nStudents":24,"maxFlips":30,"completionMinutes":45,"basePay":8,"maxBonus":9,"perTrialBonus":0.5,"perTrialBonusThreshold":0.05,"exampleCost":0.01},"classroomParams":{"A":{"a":1,"b":4},"B":{"a":4,"b":1},"C":{"a":2,"b":8},"D":{"a":8,"b":2}},"conditions":["nonSeqFull","nonSeqPartial","seqNoFeedback","seqFeedback"],"classroomPairings":[["A","B"],["C","D"]],"coinWeights":[0.2,0.5,0.8],"subjectId":"A1YSYI926BBOHW","assignmentId":"3KAKFY4PGVOI2EXOLSB7XUNDD85I31","hitId":"3J94SKDEKIB2MY6CGVTNWB9X0ALD5P","url":"https://gershmanlab.com/experiments/alicia/teaching/experiment/?hitId=3J94SKDEKIB2MY6CGVTNWB9X0ALD5P&workerId=A1YSYI926BBOHW&assignmentId=3KAKFY4PGVOI2EXOLSB7XUNDD85I31&a=PFAK9&tp_a=PFAK9&b=3KAKFY4PGVOI2EXOLSB7XUNDD85I31&tp_b=3KAKFY4PGVOI2EXOLSB7XUNDD85I31&c=365799&tp_c=365799","heads":16,"tails":0,"studentIndex":15,"studentTrueHypers":{"a":2,"b":8},"studentGuess":0.6923076923076923,"delta":0.10769230769230775,"totalExamples":16,"bonusSoFar":0.45},{"rt":8077,"response":{"heads":"8","tails":"0"},"type":"response","condition":"seqNoFeedback","trueTheta":0.8,"classrooms":["C","D"],"studentTrueClassroom":"C","exampleSet":"second","trial_type":"survey-html-form","trial_index":197,"time_elapsed":1971703,"internal_node_id":"0.0-127.0-0.0","params":{"nStudents":24,"maxFlips":30,"completionMinutes":45,"basePay":8,"maxBonus":9,"perTrialBonus":0.5,"perTrialBonusThreshold":0.05,"exampleCost":0.01},"classroomParams":{"A":{"a":1,"b":4},"B":{"a":4,"b":1},"C":{"a":2,"b":8},"D":{"a":8,"b":2}},"conditions":["nonSeqFull","nonSeqPartial","seqNoFeedback","seqFeedback"],"classroomPairings":[["A","B"],["C","D"]],"coinWeights":[0.2,0.5,0.8],"subjectId":"A1YSYI926BBOHW","assignmentId":"3KAKFY4PGVOI2EXOLSB7XUNDD85I31","hitId":"3J94SKDEKIB2MY6CGVTNWB9X0ALD5P","url":"https://gershmanlab.com/experiments/alicia/teaching/experiment/?hitId=3J94SKDEKIB2MY6CGVTNWB9X0ALD5P&workerId=A1YSYI926BBOHW&assignmentId=3KAKFY4PGVOI2EXOLSB7XUNDD85I31&a=PFAK9&tp_a=PFAK9&b=3KAKFY4PGVOI2EXOLSB7XUNDD85I31&tp_b=3KAKFY4PGVOI2EXOLSB7XUNDD85I31&c=365799&tp_c=365799","firstResponseHeads":16,"firstResponseTails":0,"secondResponseHeads":8,"secondResponseTails":0,"totalHeads":24,"totalTails":0,"studentIndex":15,"studentTrueHypers":{"a":2,"b":8},"studentGuess":0.7647058823529411,"delta":0.03529411764705892,"bonus":0.26,"bonusSoFar":0.71,"totalExamples":24},{"rt":3968,"response":{"heads":"1","tails":"7"},"type":"response","condition":"nonSeqFull","trueTheta":0.2,"classrooms":["A","B"],"studentTrueClassroom":"B","exampleSet":"first","trial_type":"survey-html-form","trial_index":203,"time_elapsed":1988776,"internal_node_id":"0.0-133.0-0.0","params":{"nStudents":24,"maxFlips":30,"completionMinutes":45,"basePay":8,"maxBonus":9,"perTrialBonus":0.5,"perTrialBonusThreshold":0.05,"exampleCost":0.01},"classroomParams":{"A":{"a":1,"b":4},"B":{"a":4,"b":1},"C":{"a":2,"b":8},"D":{"a":8,"b":2}},"conditions":["nonSeqFull","nonSeqPartial","seqNoFeedback","seqFeedback"],"classroomPairings":[["A","B"],["C","D"]],"coinWeights":[0.2,0.5,0.8],"subjectId":"A1YSYI926BBOHW","assignmentId":"3KAKFY4PGVOI2EXOLSB7XUNDD85I31","hitId":"3J94SKDEKIB2MY6CGVTNWB9X0ALD5P","url":"https://gershmanlab.com/experiments/alicia/teaching/experiment/?hitId=3J94SKDEKIB2MY6CGVTNWB9X0ALD5P&workerId=A1YSYI926BBOHW&assignmentId=3KAKFY4PGVOI2EXOLSB7XUNDD85I31&a=PFAK9&tp_a=PFAK9&b=3KAKFY4PGVOI2EXOLSB7XUNDD85I31&tp_b=3KAKFY4PGVOI2EXOLSB7XUNDD85I31&c=365799&tp_c=365799","heads":1,"tails":7,"studentIndex":16,"studentTrueHypers":{"a":4,"b":1},"studentGuess":0.38461538461538464,"delta":0.18461538461538463,"totalExamples":8,"bonus":0,"bonusSoFar":0.71},{"rt":13411,"response":{"heads":"16","tails":"0"},"type":"response","condition":"nonSeqFull","trueTheta":0.8,"classrooms":["A","B"],"studentTrueClassroom":"A","exampleSet":"first","trial_type":"survey-html-form","trial_index":209,"time_elapsed":2013937,"internal_node_id":"0.0-139.0-0.0","params":{"nStudents":24,"maxFlips":30,"completionMinutes":45,"basePay":8,"maxBonus":9,"perTrialBonus":0.5,"perTrialBonusThreshold":0.05,"exampleCost":0.01},"classroomParams":{"A":{"a":1,"b":4},"B":{"a":4,"b":1},"C":{"a":2,"b":8},"D":{"a":8,"b":2}},"conditions":["nonSeqFull","nonSeqPartial","seqNoFeedback","seqFeedback"],"classroomPairings":[["A","B"],["C","D"]],"coinWeights":[0.2,0.5,0.8],"subjectId":"A1YSYI926BBOHW","assignmentId":"3KAKFY4PGVOI2EXOLSB7XUNDD85I31","hitId":"3J94SKDEKIB2MY6CGVTNWB9X0ALD5P","url":"https://gershmanlab.com/experiments/alicia/teaching/experiment/?hitId=3J94SKDEKIB2MY6CGVTNWB9X0ALD5P&workerId=A1YSYI926BBOHW&assignmentId=3KAKFY4PGVOI2EXOLSB7XUNDD85I31&a=PFAK9&tp_a=PFAK9&b=3KAKFY4PGVOI2EXOLSB7XUNDD85I31&tp_b=3KAKFY4PGVOI2EXOLSB7XUNDD85I31&c=365799&tp_c=365799","heads":16,"tails":0,"studentIndex":17,"studentTrueHypers":{"a":1,"b":4},"studentGuess":0.8095238095238095,"delta":0.00952380952380949,"totalExamples":16,"bonus":0.34,"bonusSoFar":1.05},{"rt":3615,"response":{"heads":"1","tails":"4"},"type":"response","condition":"seqFeedback","trueTheta":0.2,"classrooms":["A","B"],"studentTrueClassroom":"A","exampleSet":"first","trial_type":"survey-html-form","trial_index":215,"time_elapsed":2029606,"internal_node_id":"0.0-145.0-0.0","params":{"nStudents":24,"maxFlips":30,"completionMinutes":45,"basePay":8,"maxBonus":9,"perTrialBonus":0.5,"perTrialBonusThreshold":0.05,"exampleCost":0.01},"classroomParams":{"A":{"a":1,"b":4},"B":{"a":4,"b":1},"C":{"a":2,"b":8},"D":{"a":8,"b":2}},"conditions":["nonSeqFull","nonSeqPartial","seqNoFeedback","seqFeedback"],"classroomPairings":[["A","B"],["C","D"]],"coinWeights":[0.2,0.5,0.8],"subjectId":"A1YSYI926BBOHW","assignmentId":"3KAKFY4PGVOI2EXOLSB7XUNDD85I31","hitId":"3J94SKDEKIB2MY6CGVTNWB9X0ALD5P","url":"https://gershmanlab.com/experiments/alicia/teaching/experiment/?hitId=3J94SKDEKIB2MY6CGVTNWB9X0ALD5P&workerId=A1YSYI926BBOHW&assignmentId=3KAKFY4PGVOI2EXOLSB7XUNDD85I31&a=PFAK9&tp_a=PFAK9&b=3KAKFY4PGVOI2EXOLSB7XUNDD85I31&tp_b=3KAKFY4PGVOI2EXOLSB7XUNDD85I31&c=365799&tp_c=365799","heads":1,"tails":4,"studentIndex":18,"studentTrueHypers":{"a":1,"b":4},"studentGuess":0.2,"delta":0,"totalExamples":5,"bonusSoFar":1.05},{"rt":3463,"response":{"heads":"0","tails":"0"},"type":"response","condition":"seqFeedback","trueTheta":0.2,"classrooms":["A","B"],"studentTrueClassroom":"A","exampleSet":"second","trial_type":"survey-html-form","trial_index":219,"time_elapsed":2042744,"internal_node_id":"0.0-149.0-0.0","params":{"nStudents":24,"maxFlips":30,"completionMinutes":45,"basePay":8,"maxBonus":9,"perTrialBonus":0.5,"perTrialBonusThreshold":0.05,"exampleCost":0.01},"classroomParams":{"A":{"a":1,"b":4},"B":{"a":4,"b":1},"C":{"a":2,"b":8},"D":{"a":8,"b":2}},"conditions":["nonSeqFull","nonSeqPartial","seqNoFeedback","seqFeedback"],"classroomPairings":[["A","B"],["C","D"]],"coinWeights":[0.2,0.5,0.8],"subjectId":"A1YSYI926BBOHW","assignmentId":"3KAKFY4PGVOI2EXOLSB7XUNDD85I31","hitId":"3J94SKDEKIB2MY6CGVTNWB9X0ALD5P","url":"https://gershmanlab.com/experiments/alicia/teaching/experiment/?hitId=3J94SKDEKIB2MY6CGVTNWB9X0ALD5P&workerId=A1YSYI926BBOHW&assignmentId=3KAKFY4PGVOI2EXOLSB7XUNDD85I31&a=PFAK9&tp_a=PFAK9&b=3KAKFY4PGVOI2EXOLSB7XUNDD85I31&tp_b=3KAKFY4PGVOI2EXOLSB7XUNDD85I31&c=365799&tp_c=365799","firstResponseHeads":1,"firstResponseTails":4,"secondResponseHeads":0,"secondResponseTails":0,"totalHeads":1,"totalTails":4,"studentIndex":18,"studentTrueHypers":{"a":1,"b":4},"studentGuess":0.2,"delta":0,"bonus":0.45,"bonusSoFar":1.5,"totalExamples":5},{"rt":7627,"response":{"heads":"1","tails":"5"},"type":"response","condition":"seqFeedback","trueTheta":0.2,"classrooms":["A","B"],"studentTrueClassroom":"A","exampleSet":"second","trial_type":"survey-html-form","trial_index":220,"time_elapsed":2050373,"internal_node_id":"0.0-149.1-0.1","params":{"nStudents":24,"maxFlips":30,"completionMinutes":45,"basePay":8,"maxBonus":9,"perTrialBonus":0.5,"perTrialBonusThreshold":0.05,"exampleCost":0.01},"classroomParams":{"A":{"a":1,"b":4},"B":{"a":4,"b":1},"C":{"a":2,"b":8},"D":{"a":8,"b":2}},"conditions":["nonSeqFull","nonSeqPartial","seqNoFeedback","seqFeedback"],"classroomPairings":[["A","B"],["C","D"]],"coinWeights":[0.2,0.5,0.8],"subjectId":"A1YSYI926BBOHW","assignmentId":"3KAKFY4PGVOI2EXOLSB7XUNDD85I31","hitId":"3J94SKDEKIB2MY6CGVTNWB9X0ALD5P","url":"https://gershmanlab.com/experiments/alicia/teaching/experiment/?hitId=3J94SKDEKIB2MY6CGVTNWB9X0ALD5P&workerId=A1YSYI926BBOHW&assignmentId=3KAKFY4PGVOI2EXOLSB7XUNDD85I31&a=PFAK9&tp_a=PFAK9&b=3KAKFY4PGVOI2EXOLSB7XUNDD85I31&tp_b=3KAKFY4PGVOI2EXOLSB7XUNDD85I31&c=365799&tp_c=365799","firstResponseHeads":1,"firstResponseTails":4,"secondResponseHeads":1,"secondResponseTails":5,"totalHeads":2,"totalTails":9,"studentIndex":18,"studentTrueHypers":{"a":1,"b":4},"studentGuess":0.1875,"delta":0.012500000000000011,"bonus":0.39,"bonusSoFar":1.89,"totalExamples":11},{"rt":3919,"response":{"heads":"9","tails":"1"},"type":"response","condition":"nonSeqPartial","trueTheta":0.8,"classrooms":["C","D"],"studentTrueClassroom":"C","exampleSet":"first","trial_type":"survey-html-form","trial_index":226,"time_elapsed":2070281,"internal_node_id":"0.0-155.0-0.0","params":{"nStudents":24,"maxFlips":30,"completionMinutes":45,"basePay":8,"maxBonus":9,"perTrialBonus":0.5,"perTrialBonusThreshold":0.05,"exampleCost":0.01},"classroomParams":{"A":{"a":1,"b":4},"B":{"a":4,"b":1},"C":{"a":2,"b":8},"D":{"a":8,"b":2}},"conditions":["nonSeqFull","nonSeqPartial","seqNoFeedback","seqFeedback"],"classroomPairings":[["A","B"],["C","D"]],"coinWeights":[0.2,0.5,0.8],"subjectId":"A1YSYI926BBOHW","assignmentId":"3KAKFY4PGVOI2EXOLSB7XUNDD85I31","hitId":"3J94SKDEKIB2MY6CGVTNWB9X0ALD5P","url":"https://gershmanlab.com/experiments/alicia/teaching/experiment/?hitId=3J94SKDEKIB2MY6CGVTNWB9X0ALD5P&workerId=A1YSYI926BBOHW&assignmentId=3KAKFY4PGVOI2EXOLSB7XUNDD85I31&a=PFAK9&tp_a=PFAK9&b=3KAKFY4PGVOI2EXOLSB7XUNDD85I31&tp_b=3KAKFY4PGVOI2EXOLSB7XUNDD85I31&c=365799&tp_c=365799","heads":9,"tails":1,"studentIndex":19,"studentTrueHypers":{"a":2,"b":8},"studentGuess":0.55,"delta":0.25,"totalExamples":10,"bonus":0,"bonusSoFar":1.89},{"rt":2945,"response":{"heads":"12","tails":"0"},"type":"response","condition":"seqNoFeedback","trueTheta":0.8,"classrooms":["A","B"],"studentTrueClassroom":"A","exampleSet":"first","trial_type":"survey-html-form","trial_index":232,"time_elapsed":2085464,"internal_node_id":"0.0-161.0-0.0","params":{"nStudents":24,"maxFlips":30,"completionMinutes":45,"basePay":8,"maxBonus":9,"perTrialBonus":0.5,"perTrialBonusThreshold":0.05,"exampleCost":0.01},"classroomParams":{"A":{"a":1,"b":4},"B":{"a":4,"b":1},"C":{"a":2,"b":8},"D":{"a":8,"b":2}},"conditions":["nonSeqFull","nonSeqPartial","seqNoFeedback","seqFeedback"],"classroomPairings":[["A","B"],["C","D"]],"coinWeights":[0.2,0.5,0.8],"subjectId":"A1YSYI926BBOHW","assignmentId":"3KAKFY4PGVOI2EXOLSB7XUNDD85I31","hitId":"3J94SKDEKIB2MY6CGVTNWB9X0ALD5P","url":"https://gershmanlab.com/experiments/alicia/teaching/experiment/?hitId=3J94SKDEKIB2MY6CGVTNWB9X0ALD5P&workerId=A1YSYI926BBOHW&assignmentId=3KAKFY4PGVOI2EXOLSB7XUNDD85I31&a=PFAK9&tp_a=PFAK9&b=3KAKFY4PGVOI2EXOLSB7XUNDD85I31&tp_b=3KAKFY4PGVOI2EXOLSB7XUNDD85I31&c=365799&tp_c=365799","heads":12,"tails":0,"studentIndex":20,"studentTrueHypers":{"a":1,"b":4},"studentGuess":0.7647058823529411,"delta":0.03529411764705892,"totalExamples":12,"bonusSoFar":1.89},{"rt":5885,"response":{"heads":"12","tails":"0"},"type":"response","condition":"seqNoFeedback","trueTheta":0.8,"classrooms":["A","B"],"studentTrueClassroom":"A","exampleSet":"second","trial_type":"survey-html-form","trial_index":235,"time_elapsed":2097606,"internal_node_id":"0.0-164.0-0.0","params":{"nStudents":24,"maxFlips":30,"completionMinutes":45,"basePay":8,"maxBonus":9,"perTrialBonus":0.5,"perTrialBonusThreshold":0.05,"exampleCost":0.01},"classroomParams":{"A":{"a":1,"b":4},"B":{"a":4,"b":1},"C":{"a":2,"b":8},"D":{"a":8,"b":2}},"conditions":["nonSeqFull","nonSeqPartial","seqNoFeedback","seqFeedback"],"classroomPairings":[["A","B"],["C","D"]],"coinWeights":[0.2,0.5,0.8],"subjectId":"A1YSYI926BBOHW","assignmentId":"3KAKFY4PGVOI2EXOLSB7XUNDD85I31","hitId":"3J94SKDEKIB2MY6CGVTNWB9X0ALD5P","url":"https://gershmanlab.com/experiments/alicia/teaching/experiment/?hitId=3J94SKDEKIB2MY6CGVTNWB9X0ALD5P&workerId=A1YSYI926BBOHW&assignmentId=3KAKFY4PGVOI2EXOLSB7XUNDD85I31&a=PFAK9&tp_a=PFAK9&b=3KAKFY4PGVOI2EXOLSB7XUNDD85I31&tp_b=3KAKFY4PGVOI2EXOLSB7XUNDD85I31&c=365799&tp_c=365799","firstResponseHeads":12,"firstResponseTails":0,"secondResponseHeads":12,"secondResponseTails":0,"totalHeads":24,"totalTails":0,"studentIndex":20,"studentTrueHypers":{"a":1,"b":4},"studentGuess":0.8620689655172413,"delta":0.06206896551724128,"bonus":0,"bonusSoFar":1.89,"totalExamples":24},{"rt":4439,"response":{"heads":"10","tails":"0"},"type":"response","condition":"seqFeedback","trueTheta":0.8,"classrooms":["A","B"],"studentTrueClassroom":"A","exampleSet":"first","trial_type":"survey-html-form","trial_index":241,"time_elapsed":2135300,"internal_node_id":"0.0-170.0-0.0","params":{"nStudents":24,"maxFlips":30,"completionMinutes":45,"basePay":8,"maxBonus":9,"perTrialBonus":0.5,"perTrialBonusThreshold":0.05,"exampleCost":0.01},"classroomParams":{"A":{"a":1,"b":4},"B":{"a":4,"b":1},"C":{"a":2,"b":8},"D":{"a":8,"b":2}},"conditions":["nonSeqFull","nonSeqPartial","seqNoFeedback","seqFeedback"],"classroomPairings":[["A","B"],["C","D"]],"coinWeights":[0.2,0.5,0.8],"subjectId":"A1YSYI926BBOHW","assignmentId":"3KAKFY4PGVOI2EXOLSB7XUNDD85I31","hitId":"3J94SKDEKIB2MY6CGVTNWB9X0ALD5P","url":"https://gershmanlab.com/experiments/alicia/teaching/experiment/?hitId=3J94SKDEKIB2MY6CGVTNWB9X0ALD5P&workerId=A1YSYI926BBOHW&assignmentId=3KAKFY4PGVOI2EXOLSB7XUNDD85I31&a=PFAK9&tp_a=PFAK9&b=3KAKFY4PGVOI2EXOLSB7XUNDD85I31&tp_b=3KAKFY4PGVOI2EXOLSB7XUNDD85I31&c=365799&tp_c=365799","heads":10,"tails":0,"studentIndex":21,"studentTrueHypers":{"a":1,"b":4},"studentGuess":0.7333333333333333,"delta":0.06666666666666676,"totalExamples":10,"bonusSoFar":1.89},{"rt":3305,"response":{"heads":"8","tails":"0"},"type":"response","condition":"seqFeedback","trueTheta":0.8,"classrooms":["A","B"],"studentTrueClassroom":"A","exampleSet":"second","trial_type":"survey-html-form","trial_index":245,"time_elapsed":2146167,"internal_node_id":"0.0-174.0-0.0","params":{"nStudents":24,"maxFlips":30,"completionMinutes":45,"basePay":8,"maxBonus":9,"perTrialBonus":0.5,"perTrialBonusThreshold":0.05,"exampleCost":0.01},"classroomParams":{"A":{"a":1,"b":4},"B":{"a":4,"b":1},"C":{"a":2,"b":8},"D":{"a":8,"b":2}},"conditions":["nonSeqFull","nonSeqPartial","seqNoFeedback","seqFeedback"],"classroomPairings":[["A","B"],["C","D"]],"coinWeights":[0.2,0.5,0.8],"subjectId":"A1YSYI926BBOHW","assignmentId":"3KAKFY4PGVOI2EXOLSB7XUNDD85I31","hitId":"3J94SKDEKIB2MY6CGVTNWB9X0ALD5P","url":"https://gershmanlab.com/experiments/alicia/teaching/experiment/?hitId=3J94SKDEKIB2MY6CGVTNWB9X0ALD5P&workerId=A1YSYI926BBOHW&assignmentId=3KAKFY4PGVOI2EXOLSB7XUNDD85I31&a=PFAK9&tp_a=PFAK9&b=3KAKFY4PGVOI2EXOLSB7XUNDD85I31&tp_b=3KAKFY4PGVOI2EXOLSB7XUNDD85I31&c=365799&tp_c=365799","firstResponseHeads":10,"firstResponseTails":0,"secondResponseHeads":8,"secondResponseTails":0,"totalHeads":18,"totalTails":0,"studentIndex":21,"studentTrueHypers":{"a":1,"b":4},"studentGuess":0.8260869565217391,"delta":0.02608695652173909,"bonus":0.32,"bonusSoFar":2.21,"totalExamples":18},{"rt":5000,"response":{"heads":"2","tails":"8"},"type":"response","condition":"nonSeqFull","trueTheta":0.5,"classrooms":["C","D"],"studentTrueClassroom":"D","exampleSet":"first","trial_type":"survey-html-form","trial_index":251,"time_elapsed":2167902,"internal_node_id":"0.0-180.0-0.0","params":{"nStudents":24,"maxFlips":30,"completionMinutes":45,"basePay":8,"maxBonus":9,"perTrialBonus":0.5,"perTrialBonusThreshold":0.05,"exampleCost":0.01},"classroomParams":{"A":{"a":1,"b":4},"B":{"a":4,"b":1},"C":{"a":2,"b":8},"D":{"a":8,"b":2}},"conditions":["nonSeqFull","nonSeqPartial","seqNoFeedback","seqFeedback"],"classroomPairings":[["A","B"],["C","D"]],"coinWeights":[0.2,0.5,0.8],"subjectId":"A1YSYI926BBOHW","assignmentId":"3KAKFY4PGVOI2EXOLSB7XUNDD85I31","hitId":"3J94SKDEKIB2MY6CGVTNWB9X0ALD5P","url":"https://gershmanlab.com/experiments/alicia/teaching/experiment/?hitId=3J94SKDEKIB2MY6CGVTNWB9X0ALD5P&workerId=A1YSYI926BBOHW&assignmentId=3KAKFY4PGVOI2EXOLSB7XUNDD85I31&a=PFAK9&tp_a=PFAK9&b=3KAKFY4PGVOI2EXOLSB7XUNDD85I31&tp_b=3KAKFY4PGVOI2EXOLSB7XUNDD85I31&c=365799&tp_c=365799","heads":2,"tails":8,"studentIndex":22,"studentTrueHypers":{"a":8,"b":2},"studentGuess":0.5,"delta":0,"totalExamples":10,"bonus":0.4,"bonusSoFar":2.61},{"rt":3985,"response":{"heads":"2","tails":"8"},"type":"response","condition":"nonSeqPartial","trueTheta":0.2,"classrooms":["C","D"],"studentTrueClassroom":"C","exampleSet":"first","trial_type":"survey-html-form","trial_index":257,"time_elapsed":2187603,"internal_node_id":"0.0-186.0-0.0","params":{"nStudents":24,"maxFlips":30,"completionMinutes":45,"basePay":8,"maxBonus":9,"perTrialBonus":0.5,"perTrialBonusThreshold":0.05,"exampleCost":0.01},"classroomParams":{"A":{"a":1,"b":4},"B":{"a":4,"b":1},"C":{"a":2,"b":8},"D":{"a":8,"b":2}},"conditions":["nonSeqFull","nonSeqPartial","seqNoFeedback","seqFeedback"],"classroomPairings":[["A","B"],["C","D"]],"coinWeights":[0.2,0.5,0.8],"subjectId":"A1YSYI926BBOHW","assignmentId":"3KAKFY4PGVOI2EXOLSB7XUNDD85I31","hitId":"3J94SKDEKIB2MY6CGVTNWB9X0ALD5P","url":"https://gershmanlab.com/experiments/alicia/teaching/experiment/?hitId=3J94SKDEKIB2MY6CGVTNWB9X0ALD5P&workerId=A1YSYI926BBOHW&assignmentId=3KAKFY4PGVOI2EXOLSB7XUNDD85I31&a=PFAK9&tp_a=PFAK9&b=3KAKFY4PGVOI2EXOLSB7XUNDD85I31&tp_b=3KAKFY4PGVOI2EXOLSB7XUNDD85I31&c=365799&tp_c=365799","heads":2,"tails":8,"studentIndex":23,"studentTrueHypers":{"a":2,"b":8},"studentGuess":0.2,"delta":0,"totalExamples":10,"bonus":0.4,"bonusSoFar":3.01},{"rt":5440,"response":{"gender":"male","age":"38","understood":"yes","comments":""},"type":"response","trial_type":"survey-html-form","trial_index":261,"time_elapsed":2203724,"internal_node_id":"0.0-191.0","params":{"nStudents":24,"maxFlips":30,"completionMinutes":45,"basePay":8,"maxBonus":9,"perTrialBonus":0.5,"perTrialBonusThreshold":0.05,"exampleCost":0.01},"classroomParams":{"A":{"a":1,"b":4},"B":{"a":4,"b":1},"C":{"a":2,"b":8},"D":{"a":8,"b":2}},"conditions":["nonSeqFull","nonSeqPartial","seqNoFeedback","seqFeedback"],"classroomPairings":[["A","B"],["C","D"]],"coinWeights":[0.2,0.5,0.8],"subjectId":"A1YSYI926BBOHW","assignmentId":"3KAKFY4PGVOI2EXOLSB7XUNDD85I31","hitId":"3J94SKDEKIB2MY6CGVTNWB9X0ALD5P","url":"https://gershmanlab.com/experiments/alicia/teaching/experiment/?hitId=3J94SKDEKIB2MY6CGVTNWB9X0ALD5P&workerId=A1YSYI926BBOHW&assignmentId=3KAKFY4PGVOI2EXOLSB7XUNDD85I31&a=PFAK9&tp_a=PFAK9&b=3KAKFY4PGVOI2EXOLSB7XUNDD85I31&tp_b=3KAKFY4PGVOI2EXOLSB7XUNDD85I31&c=365799&tp_c=365799","totalBonus":3.01}]