[{"rt":24919,"response":{"heads":"2","tails":"2"},"type":"response","condition":"nonSeqPartial","trueTheta":0.5,"classrooms":["C","D"],"studentTrueClassroom":"D","exampleSet":"first","trial_type":"survey-html-form","trial_index":7,"time_elapsed":253657,"internal_node_id":"0.0-6.0-0.0","params":{"nStudents":24,"maxFlips":30,"completionMinutes":45,"basePay":8,"maxBonus":9,"perTrialBonus":0.5,"perTrialBonusThreshold":0.05,"exampleCost":0.01},"classroomParams":{"A":{"a":1,"b":4},"B":{"a":4,"b":1},"C":{"a":2,"b":8},"D":{"a":8,"b":2}},"conditions":["nonSeqFull","nonSeqPartial","seqNoFeedback","seqFeedback"],"classroomPairings":[["A","B"],["C","D"]],"coinWeights":[0.2,0.5,0.8],"subjectId":"A2196WCNDZULFS","assignmentId":"3OLF68YTNANYC8UJTZKWH5OR3Q5AFY","hitId":"363A7XIFV48LMLIF2CKYA8VQSVQAVR","url":"https://gershmanlab.com/experiments/alicia/teaching/experiment/?hitId=363A7XIFV48LMLIF2CKYA8VQSVQAVR&workerId=A2196WCNDZULFS&assignmentId=3OLF68YTNANYC8UJTZKWH5OR3Q5AFY&a=T6LO9&tp_a=T6LO9&b=3OLF68YTNANYC8UJTZKWH5OR3Q5AFY&tp_b=3OLF68YTNANYC8UJTZKWH5OR3Q5AFY&c=365799&tp_c=365799","heads":2,"tails":2,"studentIndex":0,"studentTrueHypers":{"a":8,"b":2},"studentGuess":0.7142857142857143,"delta":0.2142857142857143,"totalExamples":4,"bonus":0,"bonusSoFar":0},{"rt":317152,"response":{"heads":"0","tails":"6"},"type":"response","condition":"seqFeedback","trueTheta":0.2,"classrooms":["A","B"],"studentTrueClassroom":"B","exampleSet":"first","trial_type":"survey-html-form","trial_index":13,"time_elapsed":599368,"internal_node_id":"0.0-12.0-0.0","params":{"nStudents":24,"maxFlips":30,"completionMinutes":45,"basePay":8,"maxBonus":9,"perTrialBonus":0.5,"perTrialBonusThreshold":0.05,"exampleCost":0.01},"classroomParams":{"A":{"a":1,"b":4},"B":{"a":4,"b":1},"C":{"a":2,"b":8},"D":{"a":8,"b":2}},"conditions":["nonSeqFull","nonSeqPartial","seqNoFeedback","seqFeedback"],"classroomPairings":[["A","B"],["C","D"]],"coinWeights":[0.2,0.5,0.8],"subjectId":"A2196WCNDZULFS","assignmentId":"3OLF68YTNANYC8UJTZKWH5OR3Q5AFY","hitId":"363A7XIFV48LMLIF2CKYA8VQSVQAVR","url":"https://gershmanlab.com/experiments/alicia/teaching/experiment/?hitId=363A7XIFV48LMLIF2CKYA8VQSVQAVR&workerId=A2196WCNDZULFS&assignmentId=3OLF68YTNANYC8UJTZKWH5OR3Q5AFY&a=T6LO9&tp_a=T6LO9&b=3OLF68YTNANYC8UJTZKWH5OR3Q5AFY&tp_b=3OLF68YTNANYC8UJTZKWH5OR3Q5AFY&c=365799&tp_c=365799","heads":0,"tails":6,"studentIndex":1,"studentTrueHypers":{"a":4,"b":1},"studentGuess":0.36363636363636365,"delta":0.16363636363636364,"totalExamples":6,"bonusSoFar":0},{"rt":8726,"response":{"heads":"0","tails":"8"},"type":"response","condition":"seqFeedback","trueTheta":0.2,"classrooms":["A","B"],"studentTrueClassroom":"B","exampleSet":"second","trial_type":"survey-html-form","trial_index":17,"time_elapsed":620432,"internal_node_id":"0.0-16.0-0.0","params":{"nStudents":24,"maxFlips":30,"completionMinutes":45,"basePay":8,"maxBonus":9,"perTrialBonus":0.5,"perTrialBonusThreshold":0.05,"exampleCost":0.01},"classroomParams":{"A":{"a":1,"b":4},"B":{"a":4,"b":1},"C":{"a":2,"b":8},"D":{"a":8,"b":2}},"conditions":["nonSeqFull","nonSeqPartial","seqNoFeedback","seqFeedback"],"classroomPairings":[["A","B"],["C","D"]],"coinWeights":[0.2,0.5,0.8],"subjectId":"A2196WCNDZULFS","assignmentId":"3OLF68YTNANYC8UJTZKWH5OR3Q5AFY","hitId":"363A7XIFV48LMLIF2CKYA8VQSVQAVR","url":"https://gershmanlab.com/experiments/alicia/teaching/experiment/?hitId=363A7XIFV48LMLIF2CKYA8VQSVQAVR&workerId=A2196WCNDZULFS&assignmentId=3OLF68YTNANYC8UJTZKWH5OR3Q5AFY&a=T6LO9&tp_a=T6LO9&b=3OLF68YTNANYC8UJTZKWH5OR3Q5AFY&tp_b=3OLF68YTNANYC8UJTZKWH5OR3Q5AFY&c=365799&tp_c=365799","firstResponseHeads":0,"firstResponseTails":6,"secondResponseHeads":0,"secondResponseTails":8,"totalHeads":0,"totalTails":14,"studentIndex":1,"studentTrueHypers":{"a":4,"b":1},"studentGuess":0.21052631578947367,"delta":0.010526315789473661,"bonus":0.36,"bonusSoFar":0.36,"totalExamples":14},{"rt":17272,"response":{"heads":"8","tails":"2"},"type":"response","condition":"seqNoFeedback","trueTheta":0.8,"classrooms":["C","D"],"studentTrueClassroom":"D","exampleSet":"first","trial_type":"survey-html-form","trial_index":23,"time_elapsed":659959,"internal_node_id":"0.0-22.0-0.0","params":{"nStudents":24,"maxFlips":30,"completionMinutes":45,"basePay":8,"maxBonus":9,"perTrialBonus":0.5,"perTrialBonusThreshold":0.05,"exampleCost":0.01},"classroomParams":{"A":{"a":1,"b":4},"B":{"a":4,"b":1},"C":{"a":2,"b":8},"D":{"a":8,"b":2}},"conditions":["nonSeqFull","nonSeqPartial","seqNoFeedback","seqFeedback"],"classroomPairings":[["A","B"],["C","D"]],"coinWeights":[0.2,0.5,0.8],"subjectId":"A2196WCNDZULFS","assignmentId":"3OLF68YTNANYC8UJTZKWH5OR3Q5AFY","hitId":"363A7XIFV48LMLIF2CKYA8VQSVQAVR","url":"https://gershmanlab.com/experiments/alicia/teaching/experiment/?hitId=363A7XIFV48LMLIF2CKYA8VQSVQAVR&workerId=A2196WCNDZULFS&assignmentId=3OLF68YTNANYC8UJTZKWH5OR3Q5AFY&a=T6LO9&tp_a=T6LO9&b=3OLF68YTNANYC8UJTZKWH5OR3Q5AFY&tp_b=3OLF68YTNANYC8UJTZKWH5OR3Q5AFY&c=365799&tp_c=365799","heads":8,"tails":2,"studentIndex":2,"studentTrueHypers":{"a":8,"b":2},"studentGuess":0.8,"delta":0,"totalExamples":10,"bonusSoFar":0.36},{"rt":22348,"response":{"heads":"8","tails":"2"},"type":"response","condition":"seqNoFeedback","trueTheta":0.8,"classrooms":["C","D"],"studentTrueClassroom":"D","exampleSet":"second","trial_type":"survey-html-form","trial_index":26,"time_elapsed":688567,"internal_node_id":"0.0-25.0-0.0","params":{"nStudents":24,"maxFlips":30,"completionMinutes":45,"basePay":8,"maxBonus":9,"perTrialBonus":0.5,"perTrialBonusThreshold":0.05,"exampleCost":0.01},"classroomParams":{"A":{"a":1,"b":4},"B":{"a":4,"b":1},"C":{"a":2,"b":8},"D":{"a":8,"b":2}},"conditions":["nonSeqFull","nonSeqPartial","seqNoFeedback","seqFeedback"],"classroomPairings":[["A","B"],["C","D"]],"coinWeights":[0.2,0.5,0.8],"subjectId":"A2196WCNDZULFS","assignmentId":"3OLF68YTNANYC8UJTZKWH5OR3Q5AFY","hitId":"363A7XIFV48LMLIF2CKYA8VQSVQAVR","url":"https://gershmanlab.com/experiments/alicia/teaching/experiment/?hitId=363A7XIFV48LMLIF2CKYA8VQSVQAVR&workerId=A2196WCNDZULFS&assignmentId=3OLF68YTNANYC8UJTZKWH5OR3Q5AFY&a=T6LO9&tp_a=T6LO9&b=3OLF68YTNANYC8UJTZKWH5OR3Q5AFY&tp_b=3OLF68YTNANYC8UJTZKWH5OR3Q5AFY&c=365799&tp_c=365799","firstResponseHeads":8,"firstResponseTails":2,"secondResponseHeads":8,"secondResponseTails":2,"totalHeads":16,"totalTails":4,"studentIndex":2,"studentTrueHypers":{"a":8,"b":2},"studentGuess":0.8,"delta":0,"bonus":0.3,"bonusSoFar":0.66,"totalExamples":20},{"rt":16623,"response":{"heads":"8","tails":"2"},"type":"response","condition":"nonSeqPartial","trueTheta":0.8,"classrooms":["A","B"],"studentTrueClassroom":"A","exampleSet":"first","trial_type":"survey-html-form","trial_index":32,"time_elapsed":722094,"internal_node_id":"0.0-31.0-0.0","params":{"nStudents":24,"maxFlips":30,"completionMinutes":45,"basePay":8,"maxBonus":9,"perTrialBonus":0.5,"perTrialBonusThreshold":0.05,"exampleCost":0.01},"classroomParams":{"A":{"a":1,"b":4},"B":{"a":4,"b":1},"C":{"a":2,"b":8},"D":{"a":8,"b":2}},"conditions":["nonSeqFull","nonSeqPartial","seqNoFeedback","seqFeedback"],"classroomPairings":[["A","B"],["C","D"]],"coinWeights":[0.2,0.5,0.8],"subjectId":"A2196WCNDZULFS","assignmentId":"3OLF68YTNANYC8UJTZKWH5OR3Q5AFY","hitId":"363A7XIFV48LMLIF2CKYA8VQSVQAVR","url":"https://gershmanlab.com/experiments/alicia/teaching/experiment/?hitId=363A7XIFV48LMLIF2CKYA8VQSVQAVR&workerId=A2196WCNDZULFS&assignmentId=3OLF68YTNANYC8UJTZKWH5OR3Q5AFY&a=T6LO9&tp_a=T6LO9&b=3OLF68YTNANYC8UJTZKWH5OR3Q5AFY&tp_b=3OLF68YTNANYC8UJTZKWH5OR3Q5AFY&c=365799&tp_c=365799","heads":8,"tails":2,"studentIndex":3,"studentTrueHypers":{"a":1,"b":4},"studentGuess":0.6,"delta":0.20000000000000007,"totalExamples":10,"bonus":0,"bonusSoFar":0.66},{"rt":29951,"response":{"heads":"0","tails":"2"},"type":"response","condition":"nonSeqPartial","trueTheta":0.2,"classrooms":["C","D"],"studentTrueClassroom":"D","exampleSet":"first","trial_type":"survey-html-form","trial_index":38,"time_elapsed":772028,"internal_node_id":"0.0-37.0-0.0","params":{"nStudents":24,"maxFlips":30,"completionMinutes":45,"basePay":8,"maxBonus":9,"perTrialBonus":0.5,"perTrialBonusThreshold":0.05,"exampleCost":0.01},"classroomParams":{"A":{"a":1,"b":4},"B":{"a":4,"b":1},"C":{"a":2,"b":8},"D":{"a":8,"b":2}},"conditions":["nonSeqFull","nonSeqPartial","seqNoFeedback","seqFeedback"],"classroomPairings":[["A","B"],["C","D"]],"coinWeights":[0.2,0.5,0.8],"subjectId":"A2196WCNDZULFS","assignmentId":"3OLF68YTNANYC8UJTZKWH5OR3Q5AFY","hitId":"363A7XIFV48LMLIF2CKYA8VQSVQAVR","url":"https://gershmanlab.com/experiments/alicia/teaching/experiment/?hitId=363A7XIFV48LMLIF2CKYA8VQSVQAVR&workerId=A2196WCNDZULFS&assignmentId=3OLF68YTNANYC8UJTZKWH5OR3Q5AFY&a=T6LO9&tp_a=T6LO9&b=3OLF68YTNANYC8UJTZKWH5OR3Q5AFY&tp_b=3OLF68YTNANYC8UJTZKWH5OR3Q5AFY&c=365799&tp_c=365799","heads":0,"tails":2,"studentIndex":4,"studentTrueHypers":{"a":8,"b":2},"studentGuess":0.6666666666666666,"delta":0.4666666666666666,"totalExamples":2,"bonus":0,"bonusSoFar":0.66},{"rt":41167,"response":{"heads":"8","tails":"2"},"type":"response","condition":"nonSeqFull","trueTheta":0.5,"classrooms":["C","D"],"studentTrueClassroom":"C","exampleSet":"first","trial_type":"survey-html-form","trial_index":44,"time_elapsed":829299,"internal_node_id":"0.0-43.0-0.0","params":{"nStudents":24,"maxFlips":30,"completionMinutes":45,"basePay":8,"maxBonus":9,"perTrialBonus":0.5,"perTrialBonusThreshold":0.05,"exampleCost":0.01},"classroomParams":{"A":{"a":1,"b":4},"B":{"a":4,"b":1},"C":{"a":2,"b":8},"D":{"a":8,"b":2}},"conditions":["nonSeqFull","nonSeqPartial","seqNoFeedback","seqFeedback"],"classroomPairings":[["A","B"],["C","D"]],"coinWeights":[0.2,0.5,0.8],"subjectId":"A2196WCNDZULFS","assignmentId":"3OLF68YTNANYC8UJTZKWH5OR3Q5AFY","hitId":"363A7XIFV48LMLIF2CKYA8VQSVQAVR","url":"https://gershmanlab.com/experiments/alicia/teaching/experiment/?hitId=363A7XIFV48LMLIF2CKYA8VQSVQAVR&workerId=A2196WCNDZULFS&assignmentId=3OLF68YTNANYC8UJTZKWH5OR3Q5AFY&a=T6LO9&tp_a=T6LO9&b=3OLF68YTNANYC8UJTZKWH5OR3Q5AFY&tp_b=3OLF68YTNANYC8UJTZKWH5OR3Q5AFY&c=365799&tp_c=365799","heads":8,"tails":2,"studentIndex":5,"studentTrueHypers":{"a":2,"b":8},"studentGuess":0.5,"delta":0,"totalExamples":10,"bonus":0.4,"bonusSoFar":1.06},{"rt":37631,"response":{"heads":"8","tails":"2"},"type":"response","condition":"nonSeqFull","trueTheta":0.8,"classrooms":["A","B"],"studentTrueClassroom":"A","exampleSet":"first","trial_type":"survey-html-form","trial_index":50,"time_elapsed":887065,"internal_node_id":"0.0-49.0-0.0","params":{"nStudents":24,"maxFlips":30,"completionMinutes":45,"basePay":8,"maxBonus":9,"perTrialBonus":0.5,"perTrialBonusThreshold":0.05,"exampleCost":0.01},"classroomParams":{"A":{"a":1,"b":4},"B":{"a":4,"b":1},"C":{"a":2,"b":8},"D":{"a":8,"b":2}},"conditions":["nonSeqFull","nonSeqPartial","seqNoFeedback","seqFeedback"],"classroomPairings":[["A","B"],["C","D"]],"coinWeights":[0.2,0.5,0.8],"subjectId":"A2196WCNDZULFS","assignmentId":"3OLF68YTNANYC8UJTZKWH5OR3Q5AFY","hitId":"363A7XIFV48LMLIF2CKYA8VQSVQAVR","url":"https://gershmanlab.com/experiments/alicia/teaching/experiment/?hitId=363A7XIFV48LMLIF2CKYA8VQSVQAVR&workerId=A2196WCNDZULFS&assignmentId=3OLF68YTNANYC8UJTZKWH5OR3Q5AFY&a=T6LO9&tp_a=T6LO9&b=3OLF68YTNANYC8UJTZKWH5OR3Q5AFY&tp_b=3OLF68YTNANYC8UJTZKWH5OR3Q5AFY&c=365799&tp_c=365799","heads":8,"tails":2,"studentIndex":6,"studentTrueHypers":{"a":1,"b":4},"studentGuess":0.6,"delta":0.20000000000000007,"totalExamples":10,"bonus":0,"bonusSoFar":1.06},{"rt":39143,"response":{"heads":"10","tails":"1"},"type":"response","condition":"seqNoFeedback","trueTheta":0.2,"classrooms":["A","B"],"studentTrueClassroom":"A","exampleSet":"first","trial_type":"survey-html-form","trial_index":56,"time_elapsed":948223,"internal_node_id":"0.0-55.0-0.0","params":{"nStudents":24,"maxFlips":30,"completionMinutes":45,"basePay":8,"maxBonus":9,"perTrialBonus":0.5,"perTrialBonusThreshold":0.05,"exampleCost":0.01},"classroomParams":{"A":{"a":1,"b":4},"B":{"a":4,"b":1},"C":{"a":2,"b":8},"D":{"a":8,"b":2}},"conditions":["nonSeqFull","nonSeqPartial","seqNoFeedback","seqFeedback"],"classroomPairings":[["A","B"],["C","D"]],"coinWeights":[0.2,0.5,0.8],"subjectId":"A2196WCNDZULFS","assignmentId":"3OLF68YTNANYC8UJTZKWH5OR3Q5AFY","hitId":"363A7XIFV48LMLIF2CKYA8VQSVQAVR","url":"https://gershmanlab.com/experiments/alicia/teaching/experiment/?hitId=363A7XIFV48LMLIF2CKYA8VQSVQAVR&workerId=A2196WCNDZULFS&assignmentId=3OLF68YTNANYC8UJTZKWH5OR3Q5AFY&a=T6LO9&tp_a=T6LO9&b=3OLF68YTNANYC8UJTZKWH5OR3Q5AFY&tp_b=3OLF68YTNANYC8UJTZKWH5OR3Q5AFY&c=365799&tp_c=365799","heads":10,"tails":1,"studentIndex":7,"studentTrueHypers":{"a":1,"b":4},"studentGuess":0.6875,"delta":0.4875,"totalExamples":11,"bonusSoFar":1.06},{"rt":22225,"response":{"heads":"2","tails":"10"},"type":"response","condition":"seqNoFeedback","trueTheta":0.2,"classrooms":["A","B"],"studentTrueClassroom":"A","exampleSet":"second","trial_type":"survey-html-form","trial_index":59,"time_elapsed":977464,"internal_node_id":"0.0-58.0-0.0","params":{"nStudents":24,"maxFlips":30,"completionMinutes":45,"basePay":8,"maxBonus":9,"perTrialBonus":0.5,"perTrialBonusThreshold":0.05,"exampleCost":0.01},"classroomParams":{"A":{"a":1,"b":4},"B":{"a":4,"b":1},"C":{"a":2,"b":8},"D":{"a":8,"b":2}},"conditions":["nonSeqFull","nonSeqPartial","seqNoFeedback","seqFeedback"],"classroomPairings":[["A","B"],["C","D"]],"coinWeights":[0.2,0.5,0.8],"subjectId":"A2196WCNDZULFS","assignmentId":"3OLF68YTNANYC8UJTZKWH5OR3Q5AFY","hitId":"363A7XIFV48LMLIF2CKYA8VQSVQAVR","url":"https://gershmanlab.com/experiments/alicia/teaching/experiment/?hitId=363A7XIFV48LMLIF2CKYA8VQSVQAVR&workerId=A2196WCNDZULFS&assignmentId=3OLF68YTNANYC8UJTZKWH5OR3Q5AFY&a=T6LO9&tp_a=T6LO9&b=3OLF68YTNANYC8UJTZKWH5OR3Q5AFY&tp_b=3OLF68YTNANYC8UJTZKWH5OR3Q5AFY&c=365799&tp_c=365799","firstResponseHeads":10,"firstResponseTails":1,"secondResponseHeads":2,"secondResponseTails":10,"totalHeads":12,"totalTails":11,"studentIndex":7,"studentTrueHypers":{"a":1,"b":4},"studentGuess":0.4642857142857143,"delta":0.2642857142857143,"bonus":0,"bonusSoFar":1.06,"totalExamples":23},{"rt":22039,"response":{"heads":"15","tails":"2"},"type":"response","condition":"nonSeqPartial","trueTheta":0.8,"classrooms":["C","D"],"studentTrueClassroom":"D","exampleSet":"first","trial_type":"survey-html-form","trial_index":65,"time_elapsed":1015343,"internal_node_id":"0.0-64.0-0.0","params":{"nStudents":24,"maxFlips":30,"completionMinutes":45,"basePay":8,"maxBonus":9,"perTrialBonus":0.5,"perTrialBonusThreshold":0.05,"exampleCost":0.01},"classroomParams":{"A":{"a":1,"b":4},"B":{"a":4,"b":1},"C":{"a":2,"b":8},"D":{"a":8,"b":2}},"conditions":["nonSeqFull","nonSeqPartial","seqNoFeedback","seqFeedback"],"classroomPairings":[["A","B"],["C","D"]],"coinWeights":[0.2,0.5,0.8],"subjectId":"A2196WCNDZULFS","assignmentId":"3OLF68YTNANYC8UJTZKWH5OR3Q5AFY","hitId":"363A7XIFV48LMLIF2CKYA8VQSVQAVR","url":"https://gershmanlab.com/experiments/alicia/teaching/experiment/?hitId=363A7XIFV48LMLIF2CKYA8VQSVQAVR&workerId=A2196WCNDZULFS&assignmentId=3OLF68YTNANYC8UJTZKWH5OR3Q5AFY&a=T6LO9&tp_a=T6LO9&b=3OLF68YTNANYC8UJTZKWH5OR3Q5AFY&tp_b=3OLF68YTNANYC8UJTZKWH5OR3Q5AFY&c=365799&tp_c=365799","heads":15,"tails":2,"studentIndex":8,"studentTrueHypers":{"a":8,"b":2},"studentGuess":0.8518518518518519,"delta":0.051851851851851816,"totalExamples":17,"bonus":0,"bonusSoFar":1.06},{"rt":23040,"response":{"heads":"0","tails":"8"},"type":"response","condition":"nonSeqFull","trueTheta":0.2,"classrooms":["A","B"],"studentTrueClassroom":"B","exampleSet":"first","trial_type":"survey-html-form","trial_index":71,"time_elapsed":1059127,"internal_node_id":"0.0-70.0-0.0","params":{"nStudents":24,"maxFlips":30,"completionMinutes":45,"basePay":8,"maxBonus":9,"perTrialBonus":0.5,"perTrialBonusThreshold":0.05,"exampleCost":0.01},"classroomParams":{"A":{"a":1,"b":4},"B":{"a":4,"b":1},"C":{"a":2,"b":8},"D":{"a":8,"b":2}},"conditions":["nonSeqFull","nonSeqPartial","seqNoFeedback","seqFeedback"],"classroomPairings":[["A","B"],["C","D"]],"coinWeights":[0.2,0.5,0.8],"subjectId":"A2196WCNDZULFS","assignmentId":"3OLF68YTNANYC8UJTZKWH5OR3Q5AFY","hitId":"363A7XIFV48LMLIF2CKYA8VQSVQAVR","url":"https://gershmanlab.com/experiments/alicia/teaching/experiment/?hitId=363A7XIFV48LMLIF2CKYA8VQSVQAVR&workerId=A2196WCNDZULFS&assignmentId=3OLF68YTNANYC8UJTZKWH5OR3Q5AFY&a=T6LO9&tp_a=T6LO9&b=3OLF68YTNANYC8UJTZKWH5OR3Q5AFY&tp_b=3OLF68YTNANYC8UJTZKWH5OR3Q5AFY&c=365799&tp_c=365799","heads":0,"tails":8,"studentIndex":9,"studentTrueHypers":{"a":4,"b":1},"studentGuess":0.3076923076923077,"delta":0.1076923076923077,"totalExamples":8,"bonus":0,"bonusSoFar":1.06},{"rt":15543,"response":{"heads":"8","tails":"2"},"type":"response","condition":"seqFeedback","trueTheta":0.8,"classrooms":["A","B"],"studentTrueClassroom":"B","exampleSet":"first","trial_type":"survey-html-form","trial_index":77,"time_elapsed":1095253,"internal_node_id":"0.0-76.0-0.0","params":{"nStudents":24,"maxFlips":30,"completionMinutes":45,"basePay":8,"maxBonus":9,"perTrialBonus":0.5,"perTrialBonusThreshold":0.05,"exampleCost":0.01},"classroomParams":{"A":{"a":1,"b":4},"B":{"a":4,"b":1},"C":{"a":2,"b":8},"D":{"a":8,"b":2}},"conditions":["nonSeqFull","nonSeqPartial","seqNoFeedback","seqFeedback"],"classroomPairings":[["A","B"],["C","D"]],"coinWeights":[0.2,0.5,0.8],"subjectId":"A2196WCNDZULFS","assignmentId":"3OLF68YTNANYC8UJTZKWH5OR3Q5AFY","hitId":"363A7XIFV48LMLIF2CKYA8VQSVQAVR","url":"https://gershmanlab.com/experiments/alicia/teaching/experiment/?hitId=363A7XIFV48LMLIF2CKYA8VQSVQAVR&workerId=A2196WCNDZULFS&assignmentId=3OLF68YTNANYC8UJTZKWH5OR3Q5AFY&a=T6LO9&tp_a=T6LO9&b=3OLF68YTNANYC8UJTZKWH5OR3Q5AFY&tp_b=3OLF68YTNANYC8UJTZKWH5OR3Q5AFY&c=365799&tp_c=365799","heads":8,"tails":2,"studentIndex":10,"studentTrueHypers":{"a":4,"b":1},"studentGuess":0.8,"delta":0,"totalExamples":10,"bonusSoFar":1.06},{"rt":8293,"response":{"heads":"8","tails":"2"},"type":"response","condition":"seqFeedback","trueTheta":0.8,"classrooms":["A","B"],"studentTrueClassroom":"B","exampleSet":"second","trial_type":"survey-html-form","trial_index":81,"time_elapsed":1114781,"internal_node_id":"0.0-80.0-0.0","params":{"nStudents":24,"maxFlips":30,"completionMinutes":45,"basePay":8,"maxBonus":9,"perTrialBonus":0.5,"perTrialBonusThreshold":0.05,"exampleCost":0.01},"classroomParams":{"A":{"a":1,"b":4},"B":{"a":4,"b":1},"C":{"a":2,"b":8},"D":{"a":8,"b":2}},"conditions":["nonSeqFull","nonSeqPartial","seqNoFeedback","seqFeedback"],"classroomPairings":[["A","B"],["C","D"]],"coinWeights":[0.2,0.5,0.8],"subjectId":"A2196WCNDZULFS","assignmentId":"3OLF68YTNANYC8UJTZKWH5OR3Q5AFY","hitId":"363A7XIFV48LMLIF2CKYA8VQSVQAVR","url":"https://gershmanlab.com/experiments/alicia/teaching/experiment/?hitId=363A7XIFV48LMLIF2CKYA8VQSVQAVR&workerId=A2196WCNDZULFS&assignmentId=3OLF68YTNANYC8UJTZKWH5OR3Q5AFY&a=T6LO9&tp_a=T6LO9&b=3OLF68YTNANYC8UJTZKWH5OR3Q5AFY&tp_b=3OLF68YTNANYC8UJTZKWH5OR3Q5AFY&c=365799&tp_c=365799","firstResponseHeads":8,"firstResponseTails":2,"secondResponseHeads":8,"secondResponseTails":2,"totalHeads":16,"totalTails":4,"studentIndex":10,"studentTrueHypers":{"a":4,"b":1},"studentGuess":0.8,"delta":0,"bonus":0.3,"bonusSoFar":1.36,"totalExamples":20},{"rt":13719,"response":{"heads":"8","tails":"2"},"type":"response","condition":"seqNoFeedback","trueTheta":0.8,"classrooms":["A","B"],"studentTrueClassroom":"B","exampleSet":"first","trial_type":"survey-html-form","trial_index":87,"time_elapsed":1149932,"internal_node_id":"0.0-86.0-0.0","params":{"nStudents":24,"maxFlips":30,"completionMinutes":45,"basePay":8,"maxBonus":9,"perTrialBonus":0.5,"perTrialBonusThreshold":0.05,"exampleCost":0.01},"classroomParams":{"A":{"a":1,"b":4},"B":{"a":4,"b":1},"C":{"a":2,"b":8},"D":{"a":8,"b":2}},"conditions":["nonSeqFull","nonSeqPartial","seqNoFeedback","seqFeedback"],"classroomPairings":[["A","B"],["C","D"]],"coinWeights":[0.2,0.5,0.8],"subjectId":"A2196WCNDZULFS","assignmentId":"3OLF68YTNANYC8UJTZKWH5OR3Q5AFY","hitId":"363A7XIFV48LMLIF2CKYA8VQSVQAVR","url":"https://gershmanlab.com/experiments/alicia/teaching/experiment/?hitId=363A7XIFV48LMLIF2CKYA8VQSVQAVR&workerId=A2196WCNDZULFS&assignmentId=3OLF68YTNANYC8UJTZKWH5OR3Q5AFY&a=T6LO9&tp_a=T6LO9&b=3OLF68YTNANYC8UJTZKWH5OR3Q5AFY&tp_b=3OLF68YTNANYC8UJTZKWH5OR3Q5AFY&c=365799&tp_c=365799","heads":8,"tails":2,"studentIndex":11,"studentTrueHypers":{"a":4,"b":1},"studentGuess":0.8,"delta":0,"totalExamples":10,"bonusSoFar":1.36},{"rt":16901,"response":{"heads":"8","tails":"2"},"type":"response","condition":"seqNoFeedback","trueTheta":0.8,"classrooms":["A","B"],"studentTrueClassroom":"B","exampleSet":"second","trial_type":"survey-html-form","trial_index":90,"time_elapsed":1173595,"internal_node_id":"0.0-89.0-0.0","params":{"nStudents":24,"maxFlips":30,"completionMinutes":45,"basePay":8,"maxBonus":9,"perTrialBonus":0.5,"perTrialBonusThreshold":0.05,"exampleCost":0.01},"classroomParams":{"A":{"a":1,"b":4},"B":{"a":4,"b":1},"C":{"a":2,"b":8},"D":{"a":8,"b":2}},"conditions":["nonSeqFull","nonSeqPartial","seqNoFeedback","seqFeedback"],"classroomPairings":[["A","B"],["C","D"]],"coinWeights":[0.2,0.5,0.8],"subjectId":"A2196WCNDZULFS","assignmentId":"3OLF68YTNANYC8UJTZKWH5OR3Q5AFY","hitId":"363A7XIFV48LMLIF2CKYA8VQSVQAVR","url":"https://gershmanlab.com/experiments/alicia/teaching/experiment/?hitId=363A7XIFV48LMLIF2CKYA8VQSVQAVR&workerId=A2196WCNDZULFS&assignmentId=3OLF68YTNANYC8UJTZKWH5OR3Q5AFY&a=T6LO9&tp_a=T6LO9&b=3OLF68YTNANYC8UJTZKWH5OR3Q5AFY&tp_b=3OLF68YTNANYC8UJTZKWH5OR3Q5AFY&c=365799&tp_c=365799","firstResponseHeads":8,"firstResponseTails":2,"secondResponseHeads":8,"secondResponseTails":2,"totalHeads":16,"totalTails":4,"studentIndex":11,"studentTrueHypers":{"a":4,"b":1},"studentGuess":0.8,"delta":0,"bonus":0.3,"bonusSoFar":1.66,"totalExamples":20},{"rt":24696,"response":{"heads":"2","tails":"10"},"type":"response","condition":"nonSeqPartial","trueTheta":0.2,"classrooms":["A","B"],"studentTrueClassroom":"B","exampleSet":"first","trial_type":"survey-html-form","trial_index":96,"time_elapsed":1219794,"internal_node_id":"0.0-95.0-0.0","params":{"nStudents":24,"maxFlips":30,"completionMinutes":45,"basePay":8,"maxBonus":9,"perTrialBonus":0.5,"perTrialBonusThreshold":0.05,"exampleCost":0.01},"classroomParams":{"A":{"a":1,"b":4},"B":{"a":4,"b":1},"C":{"a":2,"b":8},"D":{"a":8,"b":2}},"conditions":["nonSeqFull","nonSeqPartial","seqNoFeedback","seqFeedback"],"classroomPairings":[["A","B"],["C","D"]],"coinWeights":[0.2,0.5,0.8],"subjectId":"A2196WCNDZULFS","assignmentId":"3OLF68YTNANYC8UJTZKWH5OR3Q5AFY","hitId":"363A7XIFV48LMLIF2CKYA8VQSVQAVR","url":"https://gershmanlab.com/experiments/alicia/teaching/experiment/?hitId=363A7XIFV48LMLIF2CKYA8VQSVQAVR&workerId=A2196WCNDZULFS&assignmentId=3OLF68YTNANYC8UJTZKWH5OR3Q5AFY&a=T6LO9&tp_a=T6LO9&b=3OLF68YTNANYC8UJTZKWH5OR3Q5AFY&tp_b=3OLF68YTNANYC8UJTZKWH5OR3Q5AFY&c=365799&tp_c=365799","heads":2,"tails":10,"studentIndex":12,"studentTrueHypers":{"a":4,"b":1},"studentGuess":0.35294117647058826,"delta":0.15294117647058825,"totalExamples":12,"bonus":0,"bonusSoFar":1.66},{"rt":9407,"response":{"heads":"5","tails":"5"},"type":"response","condition":"seqFeedback","trueTheta":0.5,"classrooms":["C","D"],"studentTrueClassroom":"C","exampleSet":"first","trial_type":"survey-html-form","trial_index":102,"time_elapsed":1246170,"internal_node_id":"0.0-101.0-0.0","params":{"nStudents":24,"maxFlips":30,"completionMinutes":45,"basePay":8,"maxBonus":9,"perTrialBonus":0.5,"perTrialBonusThreshold":0.05,"exampleCost":0.01},"classroomParams":{"A":{"a":1,"b":4},"B":{"a":4,"b":1},"C":{"a":2,"b":8},"D":{"a":8,"b":2}},"conditions":["nonSeqFull","nonSeqPartial","seqNoFeedback","seqFeedback"],"classroomPairings":[["A","B"],["C","D"]],"coinWeights":[0.2,0.5,0.8],"subjectId":"A2196WCNDZULFS","assignmentId":"3OLF68YTNANYC8UJTZKWH5OR3Q5AFY","hitId":"363A7XIFV48LMLIF2CKYA8VQSVQAVR","url":"https://gershmanlab.com/experiments/alicia/teaching/experiment/?hitId=363A7XIFV48LMLIF2CKYA8VQSVQAVR&workerId=A2196WCNDZULFS&assignmentId=3OLF68YTNANYC8UJTZKWH5OR3Q5AFY&a=T6LO9&tp_a=T6LO9&b=3OLF68YTNANYC8UJTZKWH5OR3Q5AFY&tp_b=3OLF68YTNANYC8UJTZKWH5OR3Q5AFY&c=365799&tp_c=365799","heads":5,"tails":5,"studentIndex":13,"studentTrueHypers":{"a":2,"b":8},"studentGuess":0.35,"delta":0.15000000000000002,"totalExamples":10,"bonusSoFar":1.66},{"rt":18725,"response":{"heads":"7","tails":"3"},"type":"response","condition":"seqFeedback","trueTheta":0.5,"classrooms":["C","D"],"studentTrueClassroom":"C","exampleSet":"second","trial_type":"survey-html-form","trial_index":106,"time_elapsed":1281769,"internal_node_id":"0.0-105.0-0.0","params":{"nStudents":24,"maxFlips":30,"completionMinutes":45,"basePay":8,"maxBonus":9,"perTrialBonus":0.5,"perTrialBonusThreshold":0.05,"exampleCost":0.01},"classroomParams":{"A":{"a":1,"b":4},"B":{"a":4,"b":1},"C":{"a":2,"b":8},"D":{"a":8,"b":2}},"conditions":["nonSeqFull","nonSeqPartial","seqNoFeedback","seqFeedback"],"classroomPairings":[["A","B"],["C","D"]],"coinWeights":[0.2,0.5,0.8],"subjectId":"A2196WCNDZULFS","assignmentId":"3OLF68YTNANYC8UJTZKWH5OR3Q5AFY","hitId":"363A7XIFV48LMLIF2CKYA8VQSVQAVR","url":"https://gershmanlab.com/experiments/alicia/teaching/experiment/?hitId=363A7XIFV48LMLIF2CKYA8VQSVQAVR&workerId=A2196WCNDZULFS&assignmentId=3OLF68YTNANYC8UJTZKWH5OR3Q5AFY&a=T6LO9&tp_a=T6LO9&b=3OLF68YTNANYC8UJTZKWH5OR3Q5AFY&tp_b=3OLF68YTNANYC8UJTZKWH5OR3Q5AFY&c=365799&tp_c=365799","firstResponseHeads":5,"firstResponseTails":5,"secondResponseHeads":7,"secondResponseTails":3,"totalHeads":12,"totalTails":8,"studentIndex":13,"studentTrueHypers":{"a":2,"b":8},"studentGuess":0.4666666666666667,"delta":0.033333333333333326,"bonus":0.3,"bonusSoFar":1.96,"totalExamples":20},{"rt":11615,"response":{"heads":"5","tails":"5"},"type":"response","condition":"seqFeedback","trueTheta":0.5,"classrooms":["A","B"],"studentTrueClassroom":"B","exampleSet":"first","trial_type":"survey-html-form","trial_index":112,"time_elapsed":1311337,"internal_node_id":"0.0-111.0-0.0","params":{"nStudents":24,"maxFlips":30,"completionMinutes":45,"basePay":8,"maxBonus":9,"perTrialBonus":0.5,"perTrialBonusThreshold":0.05,"exampleCost":0.01},"classroomParams":{"A":{"a":1,"b":4},"B":{"a":4,"b":1},"C":{"a":2,"b":8},"D":{"a":8,"b":2}},"conditions":["nonSeqFull","nonSeqPartial","seqNoFeedback","seqFeedback"],"classroomPairings":[["A","B"],["C","D"]],"coinWeights":[0.2,0.5,0.8],"subjectId":"A2196WCNDZULFS","assignmentId":"3OLF68YTNANYC8UJTZKWH5OR3Q5AFY","hitId":"363A7XIFV48LMLIF2CKYA8VQSVQAVR","url":"https://gershmanlab.com/experiments/alicia/teaching/experiment/?hitId=363A7XIFV48LMLIF2CKYA8VQSVQAVR&workerId=A2196WCNDZULFS&assignmentId=3OLF68YTNANYC8UJTZKWH5OR3Q5AFY&a=T6LO9&tp_a=T6LO9&b=3OLF68YTNANYC8UJTZKWH5OR3Q5AFY&tp_b=3OLF68YTNANYC8UJTZKWH5OR3Q5AFY&c=365799&tp_c=365799","heads":5,"tails":5,"studentIndex":14,"studentTrueHypers":{"a":4,"b":1},"studentGuess":0.6,"delta":0.09999999999999998,"totalExamples":10,"bonusSoFar":1.96},{"rt":11560,"response":{"heads":"4","tails":"6"},"type":"response","condition":"seqFeedback","trueTheta":0.5,"classrooms":["A","B"],"studentTrueClassroom":"B","exampleSet":"second","trial_type":"survey-html-form","trial_index":116,"time_elapsed":1335207,"internal_node_id":"0.0-115.0-0.0","params":{"nStudents":24,"maxFlips":30,"completionMinutes":45,"basePay":8,"maxBonus":9,"perTrialBonus":0.5,"perTrialBonusThreshold":0.05,"exampleCost":0.01},"classroomParams":{"A":{"a":1,"b":4},"B":{"a":4,"b":1},"C":{"a":2,"b":8},"D":{"a":8,"b":2}},"conditions":["nonSeqFull","nonSeqPartial","seqNoFeedback","seqFeedback"],"classroomPairings":[["A","B"],["C","D"]],"coinWeights":[0.2,0.5,0.8],"subjectId":"A2196WCNDZULFS","assignmentId":"3OLF68YTNANYC8UJTZKWH5OR3Q5AFY","hitId":"363A7XIFV48LMLIF2CKYA8VQSVQAVR","url":"https://gershmanlab.com/experiments/alicia/teaching/experiment/?hitId=363A7XIFV48LMLIF2CKYA8VQSVQAVR&workerId=A2196WCNDZULFS&assignmentId=3OLF68YTNANYC8UJTZKWH5OR3Q5AFY&a=T6LO9&tp_a=T6LO9&b=3OLF68YTNANYC8UJTZKWH5OR3Q5AFY&tp_b=3OLF68YTNANYC8UJTZKWH5OR3Q5AFY&c=365799&tp_c=365799","firstResponseHeads":5,"firstResponseTails":5,"secondResponseHeads":4,"secondResponseTails":6,"totalHeads":9,"totalTails":11,"studentIndex":14,"studentTrueHypers":{"a":4,"b":1},"studentGuess":0.52,"delta":0.020000000000000018,"bonus":0.3,"bonusSoFar":2.26,"totalExamples":20},{"rt":12720,"response":{"heads":"0","tails":"5"},"type":"response","condition":"seqNoFeedback","trueTheta":0.2,"classrooms":["C","D"],"studentTrueClassroom":"C","exampleSet":"first","trial_type":"survey-html-form","trial_index":122,"time_elapsed":1363359,"internal_node_id":"0.0-121.0-0.0","params":{"nStudents":24,"maxFlips":30,"completionMinutes":45,"basePay":8,"maxBonus":9,"perTrialBonus":0.5,"perTrialBonusThreshold":0.05,"exampleCost":0.01},"classroomParams":{"A":{"a":1,"b":4},"B":{"a":4,"b":1},"C":{"a":2,"b":8},"D":{"a":8,"b":2}},"conditions":["nonSeqFull","nonSeqPartial","seqNoFeedback","seqFeedback"],"classroomPairings":[["A","B"],["C","D"]],"coinWeights":[0.2,0.5,0.8],"subjectId":"A2196WCNDZULFS","assignmentId":"3OLF68YTNANYC8UJTZKWH5OR3Q5AFY","hitId":"363A7XIFV48LMLIF2CKYA8VQSVQAVR","url":"https://gershmanlab.com/experiments/alicia/teaching/experiment/?hitId=363A7XIFV48LMLIF2CKYA8VQSVQAVR&workerId=A2196WCNDZULFS&assignmentId=3OLF68YTNANYC8UJTZKWH5OR3Q5AFY&a=T6LO9&tp_a=T6LO9&b=3OLF68YTNANYC8UJTZKWH5OR3Q5AFY&tp_b=3OLF68YTNANYC8UJTZKWH5OR3Q5AFY&c=365799&tp_c=365799","heads":0,"tails":5,"studentIndex":15,"studentTrueHypers":{"a":2,"b":8},"studentGuess":0.13333333333333333,"delta":0.06666666666666668,"totalExamples":5,"bonusSoFar":2.26},{"rt":10295,"response":{"heads":"0","tails":"5"},"type":"response","condition":"seqNoFeedback","trueTheta":0.2,"classrooms":["C","D"],"studentTrueClassroom":"C","exampleSet":"second","trial_type":"survey-html-form","trial_index":125,"time_elapsed":1381406,"internal_node_id":"0.0-124.0-0.0","params":{"nStudents":24,"maxFlips":30,"completionMinutes":45,"basePay":8,"maxBonus":9,"perTrialBonus":0.5,"perTrialBonusThreshold":0.05,"exampleCost":0.01},"classroomParams":{"A":{"a":1,"b":4},"B":{"a":4,"b":1},"C":{"a":2,"b":8},"D":{"a":8,"b":2}},"conditions":["nonSeqFull","nonSeqPartial","seqNoFeedback","seqFeedback"],"classroomPairings":[["A","B"],["C","D"]],"coinWeights":[0.2,0.5,0.8],"subjectId":"A2196WCNDZULFS","assignmentId":"3OLF68YTNANYC8UJTZKWH5OR3Q5AFY","hitId":"363A7XIFV48LMLIF2CKYA8VQSVQAVR","url":"https://gershmanlab.com/experiments/alicia/teaching/experiment/?hitId=363A7XIFV48LMLIF2CKYA8VQSVQAVR&workerId=A2196WCNDZULFS&assignmentId=3OLF68YTNANYC8UJTZKWH5OR3Q5AFY&a=T6LO9&tp_a=T6LO9&b=3OLF68YTNANYC8UJTZKWH5OR3Q5AFY&tp_b=3OLF68YTNANYC8UJTZKWH5OR3Q5AFY&c=365799&tp_c=365799","firstResponseHeads":0,"firstResponseTails":5,"secondResponseHeads":0,"secondResponseTails":5,"totalHeads":0,"totalTails":10,"studentIndex":15,"studentTrueHypers":{"a":2,"b":8},"studentGuess":0.1,"delta":0.1,"bonus":0,"bonusSoFar":2.26,"totalExamples":10},{"rt":18151,"response":{"heads":"1","tails":"1"},"type":"response","condition":"seqNoFeedback","trueTheta":0.5,"classrooms":["C","D"],"studentTrueClassroom":"C","exampleSet":"first","trial_type":"survey-html-form","trial_index":131,"time_elapsed":1418342,"internal_node_id":"0.0-130.0-0.0","params":{"nStudents":24,"maxFlips":30,"completionMinutes":45,"basePay":8,"maxBonus":9,"perTrialBonus":0.5,"perTrialBonusThreshold":0.05,"exampleCost":0.01},"classroomParams":{"A":{"a":1,"b":4},"B":{"a":4,"b":1},"C":{"a":2,"b":8},"D":{"a":8,"b":2}},"conditions":["nonSeqFull","nonSeqPartial","seqNoFeedback","seqFeedback"],"classroomPairings":[["A","B"],["C","D"]],"coinWeights":[0.2,0.5,0.8],"subjectId":"A2196WCNDZULFS","assignmentId":"3OLF68YTNANYC8UJTZKWH5OR3Q5AFY","hitId":"363A7XIFV48LMLIF2CKYA8VQSVQAVR","url":"https://gershmanlab.com/experiments/alicia/teaching/experiment/?hitId=363A7XIFV48LMLIF2CKYA8VQSVQAVR&workerId=A2196WCNDZULFS&assignmentId=3OLF68YTNANYC8UJTZKWH5OR3Q5AFY&a=T6LO9&tp_a=T6LO9&b=3OLF68YTNANYC8UJTZKWH5OR3Q5AFY&tp_b=3OLF68YTNANYC8UJTZKWH5OR3Q5AFY&c=365799&tp_c=365799","heads":1,"tails":1,"studentIndex":16,"studentTrueHypers":{"a":2,"b":8},"studentGuess":0.25,"delta":0.25,"totalExamples":2,"bonusSoFar":2.26},{"rt":18542,"response":{"heads":"2","tails":"2"},"type":"response","condition":"seqNoFeedback","trueTheta":0.5,"classrooms":["C","D"],"studentTrueClassroom":"C","exampleSet":"second","trial_type":"survey-html-form","trial_index":134,"time_elapsed":1442892,"internal_node_id":"0.0-133.0-0.0","params":{"nStudents":24,"maxFlips":30,"completionMinutes":45,"basePay":8,"maxBonus":9,"perTrialBonus":0.5,"perTrialBonusThreshold":0.05,"exampleCost":0.01},"classroomParams":{"A":{"a":1,"b":4},"B":{"a":4,"b":1},"C":{"a":2,"b":8},"D":{"a":8,"b":2}},"conditions":["nonSeqFull","nonSeqPartial","seqNoFeedback","seqFeedback"],"classroomPairings":[["A","B"],["C","D"]],"coinWeights":[0.2,0.5,0.8],"subjectId":"A2196WCNDZULFS","assignmentId":"3OLF68YTNANYC8UJTZKWH5OR3Q5AFY","hitId":"363A7XIFV48LMLIF2CKYA8VQSVQAVR","url":"https://gershmanlab.com/experiments/alicia/teaching/experiment/?hitId=363A7XIFV48LMLIF2CKYA8VQSVQAVR&workerId=A2196WCNDZULFS&assignmentId=3OLF68YTNANYC8UJTZKWH5OR3Q5AFY&a=T6LO9&tp_a=T6LO9&b=3OLF68YTNANYC8UJTZKWH5OR3Q5AFY&tp_b=3OLF68YTNANYC8UJTZKWH5OR3Q5AFY&c=365799&tp_c=365799","firstResponseHeads":1,"firstResponseTails":1,"secondResponseHeads":2,"secondResponseTails":2,"totalHeads":3,"totalTails":3,"studentIndex":16,"studentTrueHypers":{"a":2,"b":8},"studentGuess":0.3125,"delta":0.1875,"bonus":0,"bonusSoFar":2.26,"totalExamples":6},{"rt":16920,"response":{"heads":"8","tails":"2"},"type":"response","condition":"seqFeedback","trueTheta":0.8,"classrooms":["C","D"],"studentTrueClassroom":"D","exampleSet":"first","trial_type":"survey-html-form","trial_index":140,"time_elapsed":1481916,"internal_node_id":"0.0-139.0-0.0","params":{"nStudents":24,"maxFlips":30,"completionMinutes":45,"basePay":8,"maxBonus":9,"perTrialBonus":0.5,"perTrialBonusThreshold":0.05,"exampleCost":0.01},"classroomParams":{"A":{"a":1,"b":4},"B":{"a":4,"b":1},"C":{"a":2,"b":8},"D":{"a":8,"b":2}},"conditions":["nonSeqFull","nonSeqPartial","seqNoFeedback","seqFeedback"],"classroomPairings":[["A","B"],["C","D"]],"coinWeights":[0.2,0.5,0.8],"subjectId":"A2196WCNDZULFS","assignmentId":"3OLF68YTNANYC8UJTZKWH5OR3Q5AFY","hitId":"363A7XIFV48LMLIF2CKYA8VQSVQAVR","url":"https://gershmanlab.com/experiments/alicia/teaching/experiment/?hitId=363A7XIFV48LMLIF2CKYA8VQSVQAVR&workerId=A2196WCNDZULFS&assignmentId=3OLF68YTNANYC8UJTZKWH5OR3Q5AFY&a=T6LO9&tp_a=T6LO9&b=3OLF68YTNANYC8UJTZKWH5OR3Q5AFY&tp_b=3OLF68YTNANYC8UJTZKWH5OR3Q5AFY&c=365799&tp_c=365799","heads":8,"tails":2,"studentIndex":17,"studentTrueHypers":{"a":8,"b":2},"studentGuess":0.8,"delta":0,"totalExamples":10,"bonusSoFar":2.26},{"rt":6527,"response":{"heads":"8","tails":"2"},"type":"response","condition":"seqFeedback","trueTheta":0.8,"classrooms":["C","D"],"studentTrueClassroom":"D","exampleSet":"second","trial_type":"survey-html-form","trial_index":144,"time_elapsed":1499979,"internal_node_id":"0.0-143.0-0.0","params":{"nStudents":24,"maxFlips":30,"completionMinutes":45,"basePay":8,"maxBonus":9,"perTrialBonus":0.5,"perTrialBonusThreshold":0.05,"exampleCost":0.01},"classroomParams":{"A":{"a":1,"b":4},"B":{"a":4,"b":1},"C":{"a":2,"b":8},"D":{"a":8,"b":2}},"conditions":["nonSeqFull","nonSeqPartial","seqNoFeedback","seqFeedback"],"classroomPairings":[["A","B"],["C","D"]],"coinWeights":[0.2,0.5,0.8],"subjectId":"A2196WCNDZULFS","assignmentId":"3OLF68YTNANYC8UJTZKWH5OR3Q5AFY","hitId":"363A7XIFV48LMLIF2CKYA8VQSVQAVR","url":"https://gershmanlab.com/experiments/alicia/teaching/experiment/?hitId=363A7XIFV48LMLIF2CKYA8VQSVQAVR&workerId=A2196WCNDZULFS&assignmentId=3OLF68YTNANYC8UJTZKWH5OR3Q5AFY&a=T6LO9&tp_a=T6LO9&b=3OLF68YTNANYC8UJTZKWH5OR3Q5AFY&tp_b=3OLF68YTNANYC8UJTZKWH5OR3Q5AFY&c=365799&tp_c=365799","firstResponseHeads":8,"firstResponseTails":2,"secondResponseHeads":8,"secondResponseTails":2,"totalHeads":16,"totalTails":4,"studentIndex":17,"studentTrueHypers":{"a":8,"b":2},"studentGuess":0.8,"delta":0,"bonus":0.3,"bonusSoFar":2.56,"totalExamples":20},{"rt":12360,"response":{"heads":"2","tails":"2"},"type":"response","condition":"seqNoFeedback","trueTheta":0.5,"classrooms":["A","B"],"studentTrueClassroom":"B","exampleSet":"first","trial_type":"survey-html-form","trial_index":150,"time_elapsed":1530451,"internal_node_id":"0.0-149.0-0.0","params":{"nStudents":24,"maxFlips":30,"completionMinutes":45,"basePay":8,"maxBonus":9,"perTrialBonus":0.5,"perTrialBonusThreshold":0.05,"exampleCost":0.01},"classroomParams":{"A":{"a":1,"b":4},"B":{"a":4,"b":1},"C":{"a":2,"b":8},"D":{"a":8,"b":2}},"conditions":["nonSeqFull","nonSeqPartial","seqNoFeedback","seqFeedback"],"classroomPairings":[["A","B"],["C","D"]],"coinWeights":[0.2,0.5,0.8],"subjectId":"A2196WCNDZULFS","assignmentId":"3OLF68YTNANYC8UJTZKWH5OR3Q5AFY","hitId":"363A7XIFV48LMLIF2CKYA8VQSVQAVR","url":"https://gershmanlab.com/experiments/alicia/teaching/experiment/?hitId=363A7XIFV48LMLIF2CKYA8VQSVQAVR&workerId=A2196WCNDZULFS&assignmentId=3OLF68YTNANYC8UJTZKWH5OR3Q5AFY&a=T6LO9&tp_a=T6LO9&b=3OLF68YTNANYC8UJTZKWH5OR3Q5AFY&tp_b=3OLF68YTNANYC8UJTZKWH5OR3Q5AFY&c=365799&tp_c=365799","heads":2,"tails":2,"studentIndex":18,"studentTrueHypers":{"a":4,"b":1},"studentGuess":0.6666666666666666,"delta":0.16666666666666663,"totalExamples":4,"bonusSoFar":2.56},{"rt":10071,"response":{"heads":"3","tails":"3"},"type":"response","condition":"seqNoFeedback","trueTheta":0.5,"classrooms":["A","B"],"studentTrueClassroom":"B","exampleSet":"second","trial_type":"survey-html-form","trial_index":153,"time_elapsed":1547299,"internal_node_id":"0.0-152.0-0.0","params":{"nStudents":24,"maxFlips":30,"completionMinutes":45,"basePay":8,"maxBonus":9,"perTrialBonus":0.5,"perTrialBonusThreshold":0.05,"exampleCost":0.01},"classroomParams":{"A":{"a":1,"b":4},"B":{"a":4,"b":1},"C":{"a":2,"b":8},"D":{"a":8,"b":2}},"conditions":["nonSeqFull","nonSeqPartial","seqNoFeedback","seqFeedback"],"classroomPairings":[["A","B"],["C","D"]],"coinWeights":[0.2,0.5,0.8],"subjectId":"A2196WCNDZULFS","assignmentId":"3OLF68YTNANYC8UJTZKWH5OR3Q5AFY","hitId":"363A7XIFV48LMLIF2CKYA8VQSVQAVR","url":"https://gershmanlab.com/experiments/alicia/teaching/experiment/?hitId=363A7XIFV48LMLIF2CKYA8VQSVQAVR&workerId=A2196WCNDZULFS&assignmentId=3OLF68YTNANYC8UJTZKWH5OR3Q5AFY&a=T6LO9&tp_a=T6LO9&b=3OLF68YTNANYC8UJTZKWH5OR3Q5AFY&tp_b=3OLF68YTNANYC8UJTZKWH5OR3Q5AFY&c=365799&tp_c=365799","firstResponseHeads":2,"firstResponseTails":2,"secondResponseHeads":3,"secondResponseTails":3,"totalHeads":5,"totalTails":5,"studentIndex":18,"studentTrueHypers":{"a":4,"b":1},"studentGuess":0.6,"delta":0.09999999999999998,"bonus":0,"bonusSoFar":2.56,"totalExamples":10},{"rt":33735,"response":{"heads":"0","tails":"20"},"type":"response","condition":"nonSeqFull","trueTheta":0.2,"classrooms":["C","D"],"studentTrueClassroom":"D","exampleSet":"first","trial_type":"survey-html-form","trial_index":159,"time_elapsed":1597866,"internal_node_id":"0.0-158.0-0.0","params":{"nStudents":24,"maxFlips":30,"completionMinutes":45,"basePay":8,"maxBonus":9,"perTrialBonus":0.5,"perTrialBonusThreshold":0.05,"exampleCost":0.01},"classroomParams":{"A":{"a":1,"b":4},"B":{"a":4,"b":1},"C":{"a":2,"b":8},"D":{"a":8,"b":2}},"conditions":["nonSeqFull","nonSeqPartial","seqNoFeedback","seqFeedback"],"classroomPairings":[["A","B"],["C","D"]],"coinWeights":[0.2,0.5,0.8],"subjectId":"A2196WCNDZULFS","assignmentId":"3OLF68YTNANYC8UJTZKWH5OR3Q5AFY","hitId":"363A7XIFV48LMLIF2CKYA8VQSVQAVR","url":"https://gershmanlab.com/experiments/alicia/teaching/experiment/?hitId=363A7XIFV48LMLIF2CKYA8VQSVQAVR&workerId=A2196WCNDZULFS&assignmentId=3OLF68YTNANYC8UJTZKWH5OR3Q5AFY&a=T6LO9&tp_a=T6LO9&b=3OLF68YTNANYC8UJTZKWH5OR3Q5AFY&tp_b=3OLF68YTNANYC8UJTZKWH5OR3Q5AFY&c=365799&tp_c=365799","heads":0,"tails":20,"studentIndex":19,"studentTrueHypers":{"a":8,"b":2},"studentGuess":0.26666666666666666,"delta":0.06666666666666665,"totalExamples":20,"bonus":0,"bonusSoFar":2.56},{"rt":14143,"response":{"heads":"0","tails":"12"},"type":"response","condition":"seqFeedback","trueTheta":0.2,"classrooms":["C","D"],"studentTrueClassroom":"D","exampleSet":"first","trial_type":"survey-html-form","trial_index":165,"time_elapsed":1629808,"internal_node_id":"0.0-164.0-0.0","params":{"nStudents":24,"maxFlips":30,"completionMinutes":45,"basePay":8,"maxBonus":9,"perTrialBonus":0.5,"perTrialBonusThreshold":0.05,"exampleCost":0.01},"classroomParams":{"A":{"a":1,"b":4},"B":{"a":4,"b":1},"C":{"a":2,"b":8},"D":{"a":8,"b":2}},"conditions":["nonSeqFull","nonSeqPartial","seqNoFeedback","seqFeedback"],"classroomPairings":[["A","B"],["C","D"]],"coinWeights":[0.2,0.5,0.8],"subjectId":"A2196WCNDZULFS","assignmentId":"3OLF68YTNANYC8UJTZKWH5OR3Q5AFY","hitId":"363A7XIFV48LMLIF2CKYA8VQSVQAVR","url":"https://gershmanlab.com/experiments/alicia/teaching/experiment/?hitId=363A7XIFV48LMLIF2CKYA8VQSVQAVR&workerId=A2196WCNDZULFS&assignmentId=3OLF68YTNANYC8UJTZKWH5OR3Q5AFY&a=T6LO9&tp_a=T6LO9&b=3OLF68YTNANYC8UJTZKWH5OR3Q5AFY&tp_b=3OLF68YTNANYC8UJTZKWH5OR3Q5AFY&c=365799&tp_c=365799","heads":0,"tails":12,"studentIndex":20,"studentTrueHypers":{"a":8,"b":2},"studentGuess":0.36363636363636365,"delta":0.16363636363636364,"totalExamples":12,"bonusSoFar":2.56},{"rt":8680,"response":{"heads":"0","tails":"17"},"type":"response","condition":"seqFeedback","trueTheta":0.2,"classrooms":["C","D"],"studentTrueClassroom":"D","exampleSet":"second","trial_type":"survey-html-form","trial_index":169,"time_elapsed":1649937,"internal_node_id":"0.0-168.0-0.0","params":{"nStudents":24,"maxFlips":30,"completionMinutes":45,"basePay":8,"maxBonus":9,"perTrialBonus":0.5,"perTrialBonusThreshold":0.05,"exampleCost":0.01},"classroomParams":{"A":{"a":1,"b":4},"B":{"a":4,"b":1},"C":{"a":2,"b":8},"D":{"a":8,"b":2}},"conditions":["nonSeqFull","nonSeqPartial","seqNoFeedback","seqFeedback"],"classroomPairings":[["A","B"],["C","D"]],"coinWeights":[0.2,0.5,0.8],"subjectId":"A2196WCNDZULFS","assignmentId":"3OLF68YTNANYC8UJTZKWH5OR3Q5AFY","hitId":"363A7XIFV48LMLIF2CKYA8VQSVQAVR","url":"https://gershmanlab.com/experiments/alicia/teaching/experiment/?hitId=363A7XIFV48LMLIF2CKYA8VQSVQAVR&workerId=A2196WCNDZULFS&assignmentId=3OLF68YTNANYC8UJTZKWH5OR3Q5AFY&a=T6LO9&tp_a=T6LO9&b=3OLF68YTNANYC8UJTZKWH5OR3Q5AFY&tp_b=3OLF68YTNANYC8UJTZKWH5OR3Q5AFY&c=365799&tp_c=365799","firstResponseHeads":0,"firstResponseTails":12,"secondResponseHeads":0,"secondResponseTails":17,"totalHeads":0,"totalTails":29,"studentIndex":20,"studentTrueHypers":{"a":8,"b":2},"studentGuess":0.20512820512820512,"delta":0.00512820512820511,"bonus":0.21,"bonusSoFar":2.77,"totalExamples":29},{"rt":25431,"response":{"heads":"4","tails":"4"},"type":"response","condition":"nonSeqPartial","trueTheta":0.5,"classrooms":["A","B"],"studentTrueClassroom":"B","exampleSet":"first","trial_type":"survey-html-form","trial_index":175,"time_elapsed":1693631,"internal_node_id":"0.0-174.0-0.0","params":{"nStudents":24,"maxFlips":30,"completionMinutes":45,"basePay":8,"maxBonus":9,"perTrialBonus":0.5,"perTrialBonusThreshold":0.05,"exampleCost":0.01},"classroomParams":{"A":{"a":1,"b":4},"B":{"a":4,"b":1},"C":{"a":2,"b":8},"D":{"a":8,"b":2}},"conditions":["nonSeqFull","nonSeqPartial","seqNoFeedback","seqFeedback"],"classroomPairings":[["A","B"],["C","D"]],"coinWeights":[0.2,0.5,0.8],"subjectId":"A2196WCNDZULFS","assignmentId":"3OLF68YTNANYC8UJTZKWH5OR3Q5AFY","hitId":"363A7XIFV48LMLIF2CKYA8VQSVQAVR","url":"https://gershmanlab.com/experiments/alicia/teaching/experiment/?hitId=363A7XIFV48LMLIF2CKYA8VQSVQAVR&workerId=A2196WCNDZULFS&assignmentId=3OLF68YTNANYC8UJTZKWH5OR3Q5AFY&a=T6LO9&tp_a=T6LO9&b=3OLF68YTNANYC8UJTZKWH5OR3Q5AFY&tp_b=3OLF68YTNANYC8UJTZKWH5OR3Q5AFY&c=365799&tp_c=365799","heads":4,"tails":4,"studentIndex":21,"studentTrueHypers":{"a":4,"b":1},"studentGuess":0.6153846153846154,"delta":0.11538461538461542,"totalExamples":8,"bonus":0,"bonusSoFar":2.77},{"rt":36551,"response":{"heads":"20","tails":"0"},"type":"response","condition":"nonSeqFull","trueTheta":0.8,"classrooms":["C","D"],"studentTrueClassroom":"C","exampleSet":"first","trial_type":"survey-html-form","trial_index":181,"time_elapsed":1745725,"internal_node_id":"0.0-180.0-0.0","params":{"nStudents":24,"maxFlips":30,"completionMinutes":45,"basePay":8,"maxBonus":9,"perTrialBonus":0.5,"perTrialBonusThreshold":0.05,"exampleCost":0.01},"classroomParams":{"A":{"a":1,"b":4},"B":{"a":4,"b":1},"C":{"a":2,"b":8},"D":{"a":8,"b":2}},"conditions":["nonSeqFull","nonSeqPartial","seqNoFeedback","seqFeedback"],"classroomPairings":[["A","B"],["C","D"]],"coinWeights":[0.2,0.5,0.8],"subjectId":"A2196WCNDZULFS","assignmentId":"3OLF68YTNANYC8UJTZKWH5OR3Q5AFY","hitId":"363A7XIFV48LMLIF2CKYA8VQSVQAVR","url":"https://gershmanlab.com/experiments/alicia/teaching/experiment/?hitId=363A7XIFV48LMLIF2CKYA8VQSVQAVR&workerId=A2196WCNDZULFS&assignmentId=3OLF68YTNANYC8UJTZKWH5OR3Q5AFY&a=T6LO9&tp_a=T6LO9&b=3OLF68YTNANYC8UJTZKWH5OR3Q5AFY&tp_b=3OLF68YTNANYC8UJTZKWH5OR3Q5AFY&c=365799&tp_c=365799","heads":20,"tails":0,"studentIndex":22,"studentTrueHypers":{"a":2,"b":8},"studentGuess":0.7333333333333333,"delta":0.06666666666666676,"totalExamples":20,"bonus":0,"bonusSoFar":2.77},{"rt":14655,"response":{"heads":"4","tails":"1"},"type":"response","condition":"nonSeqFull","trueTheta":0.5,"classrooms":["A","B"],"studentTrueClassroom":"A","exampleSet":"first","trial_type":"survey-html-form","trial_index":187,"time_elapsed":1776509,"internal_node_id":"0.0-186.0-0.0","params":{"nStudents":24,"maxFlips":30,"completionMinutes":45,"basePay":8,"maxBonus":9,"perTrialBonus":0.5,"perTrialBonusThreshold":0.05,"exampleCost":0.01},"classroomParams":{"A":{"a":1,"b":4},"B":{"a":4,"b":1},"C":{"a":2,"b":8},"D":{"a":8,"b":2}},"conditions":["nonSeqFull","nonSeqPartial","seqNoFeedback","seqFeedback"],"classroomPairings":[["A","B"],["C","D"]],"coinWeights":[0.2,0.5,0.8],"subjectId":"A2196WCNDZULFS","assignmentId":"3OLF68YTNANYC8UJTZKWH5OR3Q5AFY","hitId":"363A7XIFV48LMLIF2CKYA8VQSVQAVR","url":"https://gershmanlab.com/experiments/alicia/teaching/experiment/?hitId=363A7XIFV48LMLIF2CKYA8VQSVQAVR&workerId=A2196WCNDZULFS&assignmentId=3OLF68YTNANYC8UJTZKWH5OR3Q5AFY&a=T6LO9&tp_a=T6LO9&b=3OLF68YTNANYC8UJTZKWH5OR3Q5AFY&tp_b=3OLF68YTNANYC8UJTZKWH5OR3Q5AFY&c=365799&tp_c=365799","heads":4,"tails":1,"studentIndex":23,"studentTrueHypers":{"a":1,"b":4},"studentGuess":0.5,"delta":0,"totalExamples":5,"bonus":0.45,"bonusSoFar":3.22},{"rt":42542,"response":{"gender":"female","age":"41","understood":"yes","comments":"That was so hard for me, sorry I performed so poorly. I just could not figure out the best strategy."},"type":"response","trial_type":"survey-html-form","trial_index":191,"time_elapsed":1828748,"internal_node_id":"0.0-191.0","params":{"nStudents":24,"maxFlips":30,"completionMinutes":45,"basePay":8,"maxBonus":9,"perTrialBonus":0.5,"perTrialBonusThreshold":0.05,"exampleCost":0.01},"classroomParams":{"A":{"a":1,"b":4},"B":{"a":4,"b":1},"C":{"a":2,"b":8},"D":{"a":8,"b":2}},"conditions":["nonSeqFull","nonSeqPartial","seqNoFeedback","seqFeedback"],"classroomPairings":[["A","B"],["C","D"]],"coinWeights":[0.2,0.5,0.8],"subjectId":"A2196WCNDZULFS","assignmentId":"3OLF68YTNANYC8UJTZKWH5OR3Q5AFY","hitId":"363A7XIFV48LMLIF2CKYA8VQSVQAVR","url":"https://gershmanlab.com/experiments/alicia/teaching/experiment/?hitId=363A7XIFV48LMLIF2CKYA8VQSVQAVR&workerId=A2196WCNDZULFS&assignmentId=3OLF68YTNANYC8UJTZKWH5OR3Q5AFY&a=T6LO9&tp_a=T6LO9&b=3OLF68YTNANYC8UJTZKWH5OR3Q5AFY&tp_b=3OLF68YTNANYC8UJTZKWH5OR3Q5AFY&c=365799&tp_c=365799","totalBonus":3.22}]