[{"rt":21352,"response":{"heads":"2","tails":"3"},"type":"response","condition":"nonSeqFull","trueTheta":0.2,"classrooms":["C","D"],"studentTrueClassroom":"D","exampleSet":"first","trial_type":"survey-html-form","trial_index":7,"time_elapsed":497490,"internal_node_id":"0.0-6.0-0.0","params":{"nStudents":24,"maxFlips":30,"completionMinutes":45,"basePay":8,"maxBonus":9,"perTrialBonus":0.5,"perTrialBonusThreshold":0.05,"exampleCost":0.01},"classroomParams":{"A":{"a":1,"b":4},"B":{"a":4,"b":1},"C":{"a":2,"b":8},"D":{"a":8,"b":2}},"conditions":["nonSeqFull","nonSeqPartial","seqNoFeedback","seqFeedback"],"classroomPairings":[["A","B"],["C","D"]],"coinWeights":[0.2,0.5,0.8],"subjectId":"A235DXY5FJN0IW","assignmentId":"3FTYUGLFSV748I467XYPLU5KZZOD5K","hitId":"3NI0WFPPI9246I5W92FX9A3E2GN605","url":"https://gershmanlab.com/experiments/alicia/teaching/experiment/?hitId=3NI0WFPPI9246I5W92FX9A3E2GN605&workerId=A235DXY5FJN0IW&assignmentId=3FTYUGLFSV748I467XYPLU5KZZOD5K&a=FUTF9&tp_a=FUTF9&b=3FTYUGLFSV748I467XYPLU5KZZOD5K&tp_b=3FTYUGLFSV748I467XYPLU5KZZOD5K&c=365799&tp_c=365799","heads":2,"tails":3,"studentIndex":0,"studentTrueHypers":{"a":8,"b":2},"studentGuess":0.6666666666666666,"delta":0.4666666666666666,"totalExamples":5,"bonus":0,"bonusSoFar":0},{"rt":11814,"response":{"heads":"10","tails":"10"},"type":"response","condition":"nonSeqPartial","trueTheta":0.8,"classrooms":["C","D"],"studentTrueClassroom":"C","exampleSet":"first","trial_type":"survey-html-form","trial_index":13,"time_elapsed":528599,"internal_node_id":"0.0-12.0-0.0","params":{"nStudents":24,"maxFlips":30,"completionMinutes":45,"basePay":8,"maxBonus":9,"perTrialBonus":0.5,"perTrialBonusThreshold":0.05,"exampleCost":0.01},"classroomParams":{"A":{"a":1,"b":4},"B":{"a":4,"b":1},"C":{"a":2,"b":8},"D":{"a":8,"b":2}},"conditions":["nonSeqFull","nonSeqPartial","seqNoFeedback","seqFeedback"],"classroomPairings":[["A","B"],["C","D"]],"coinWeights":[0.2,0.5,0.8],"subjectId":"A235DXY5FJN0IW","assignmentId":"3FTYUGLFSV748I467XYPLU5KZZOD5K","hitId":"3NI0WFPPI9246I5W92FX9A3E2GN605","url":"https://gershmanlab.com/experiments/alicia/teaching/experiment/?hitId=3NI0WFPPI9246I5W92FX9A3E2GN605&workerId=A235DXY5FJN0IW&assignmentId=3FTYUGLFSV748I467XYPLU5KZZOD5K&a=FUTF9&tp_a=FUTF9&b=3FTYUGLFSV748I467XYPLU5KZZOD5K&tp_b=3FTYUGLFSV748I467XYPLU5KZZOD5K&c=365799&tp_c=365799","heads":10,"tails":10,"studentIndex":1,"studentTrueHypers":{"a":2,"b":8},"studentGuess":0.4,"delta":0.4,"totalExamples":20,"bonus":0,"bonusSoFar":0},{"rt":29097,"response":{"heads":"12","tails":"18"},"type":"response","condition":"nonSeqPartial","trueTheta":0.2,"classrooms":["C","D"],"studentTrueClassroom":"C","exampleSet":"first","trial_type":"survey-html-form","trial_index":19,"time_elapsed":593085,"internal_node_id":"0.0-18.0-0.0","params":{"nStudents":24,"maxFlips":30,"completionMinutes":45,"basePay":8,"maxBonus":9,"perTrialBonus":0.5,"perTrialBonusThreshold":0.05,"exampleCost":0.01},"classroomParams":{"A":{"a":1,"b":4},"B":{"a":4,"b":1},"C":{"a":2,"b":8},"D":{"a":8,"b":2}},"conditions":["nonSeqFull","nonSeqPartial","seqNoFeedback","seqFeedback"],"classroomPairings":[["A","B"],["C","D"]],"coinWeights":[0.2,0.5,0.8],"subjectId":"A235DXY5FJN0IW","assignmentId":"3FTYUGLFSV748I467XYPLU5KZZOD5K","hitId":"3NI0WFPPI9246I5W92FX9A3E2GN605","url":"https://gershmanlab.com/experiments/alicia/teaching/experiment/?hitId=3NI0WFPPI9246I5W92FX9A3E2GN605&workerId=A235DXY5FJN0IW&assignmentId=3FTYUGLFSV748I467XYPLU5KZZOD5K&a=FUTF9&tp_a=FUTF9&b=3FTYUGLFSV748I467XYPLU5KZZOD5K&tp_b=3FTYUGLFSV748I467XYPLU5KZZOD5K&c=365799&tp_c=365799","heads":12,"tails":18,"studentIndex":2,"studentTrueHypers":{"a":2,"b":8},"studentGuess":0.35,"delta":0.14999999999999997,"totalExamples":30,"bonus":0,"bonusSoFar":0},{"rt":22383,"response":{"heads":"05","tails":"05"},"type":"response","condition":"seqFeedback","trueTheta":0.8,"classrooms":["C","D"],"studentTrueClassroom":"D","exampleSet":"first","trial_type":"survey-html-form","trial_index":25,"time_elapsed":673660,"internal_node_id":"0.0-24.0-0.0","params":{"nStudents":24,"maxFlips":30,"completionMinutes":45,"basePay":8,"maxBonus":9,"perTrialBonus":0.5,"perTrialBonusThreshold":0.05,"exampleCost":0.01},"classroomParams":{"A":{"a":1,"b":4},"B":{"a":4,"b":1},"C":{"a":2,"b":8},"D":{"a":8,"b":2}},"conditions":["nonSeqFull","nonSeqPartial","seqNoFeedback","seqFeedback"],"classroomPairings":[["A","B"],["C","D"]],"coinWeights":[0.2,0.5,0.8],"subjectId":"A235DXY5FJN0IW","assignmentId":"3FTYUGLFSV748I467XYPLU5KZZOD5K","hitId":"3NI0WFPPI9246I5W92FX9A3E2GN605","url":"https://gershmanlab.com/experiments/alicia/teaching/experiment/?hitId=3NI0WFPPI9246I5W92FX9A3E2GN605&workerId=A235DXY5FJN0IW&assignmentId=3FTYUGLFSV748I467XYPLU5KZZOD5K&a=FUTF9&tp_a=FUTF9&b=3FTYUGLFSV748I467XYPLU5KZZOD5K&tp_b=3FTYUGLFSV748I467XYPLU5KZZOD5K&c=365799&tp_c=365799","heads":5,"tails":5,"studentIndex":3,"studentTrueHypers":{"a":8,"b":2},"studentGuess":0.65,"delta":0.15000000000000002,"totalExamples":10,"bonusSoFar":0},{"rt":56872,"response":{"heads":"04","tails":"08"},"type":"response","condition":"seqFeedback","trueTheta":0.8,"classrooms":["C","D"],"studentTrueClassroom":"D","exampleSet":"second","trial_type":"survey-html-form","trial_index":29,"time_elapsed":767305,"internal_node_id":"0.0-28.0-0.0","params":{"nStudents":24,"maxFlips":30,"completionMinutes":45,"basePay":8,"maxBonus":9,"perTrialBonus":0.5,"perTrialBonusThreshold":0.05,"exampleCost":0.01},"classroomParams":{"A":{"a":1,"b":4},"B":{"a":4,"b":1},"C":{"a":2,"b":8},"D":{"a":8,"b":2}},"conditions":["nonSeqFull","nonSeqPartial","seqNoFeedback","seqFeedback"],"classroomPairings":[["A","B"],["C","D"]],"coinWeights":[0.2,0.5,0.8],"subjectId":"A235DXY5FJN0IW","assignmentId":"3FTYUGLFSV748I467XYPLU5KZZOD5K","hitId":"3NI0WFPPI9246I5W92FX9A3E2GN605","url":"https://gershmanlab.com/experiments/alicia/teaching/experiment/?hitId=3NI0WFPPI9246I5W92FX9A3E2GN605&workerId=A235DXY5FJN0IW&assignmentId=3FTYUGLFSV748I467XYPLU5KZZOD5K&a=FUTF9&tp_a=FUTF9&b=3FTYUGLFSV748I467XYPLU5KZZOD5K&tp_b=3FTYUGLFSV748I467XYPLU5KZZOD5K&c=365799&tp_c=365799","firstResponseHeads":5,"firstResponseTails":5,"secondResponseHeads":4,"secondResponseTails":8,"totalHeads":9,"totalTails":13,"studentIndex":3,"studentTrueHypers":{"a":8,"b":2},"studentGuess":0.53125,"delta":0.26875000000000004,"bonus":0,"bonusSoFar":0,"totalExamples":22},{"rt":17703,"response":{"heads":"07","tails":"03"},"type":"response","condition":"nonSeqPartial","trueTheta":0.5,"classrooms":["C","D"],"studentTrueClassroom":"D","exampleSet":"first","trial_type":"survey-html-form","trial_index":35,"time_elapsed":915180,"internal_node_id":"0.0-34.0-0.0","params":{"nStudents":24,"maxFlips":30,"completionMinutes":45,"basePay":8,"maxBonus":9,"perTrialBonus":0.5,"perTrialBonusThreshold":0.05,"exampleCost":0.01},"classroomParams":{"A":{"a":1,"b":4},"B":{"a":4,"b":1},"C":{"a":2,"b":8},"D":{"a":8,"b":2}},"conditions":["nonSeqFull","nonSeqPartial","seqNoFeedback","seqFeedback"],"classroomPairings":[["A","B"],["C","D"]],"coinWeights":[0.2,0.5,0.8],"subjectId":"A235DXY5FJN0IW","assignmentId":"3FTYUGLFSV748I467XYPLU5KZZOD5K","hitId":"3NI0WFPPI9246I5W92FX9A3E2GN605","url":"https://gershmanlab.com/experiments/alicia/teaching/experiment/?hitId=3NI0WFPPI9246I5W92FX9A3E2GN605&workerId=A235DXY5FJN0IW&assignmentId=3FTYUGLFSV748I467XYPLU5KZZOD5K&a=FUTF9&tp_a=FUTF9&b=3FTYUGLFSV748I467XYPLU5KZZOD5K&tp_b=3FTYUGLFSV748I467XYPLU5KZZOD5K&c=365799&tp_c=365799","heads":7,"tails":3,"studentIndex":4,"studentTrueHypers":{"a":8,"b":2},"studentGuess":0.75,"delta":0.25,"totalExamples":10,"bonus":0,"bonusSoFar":0},{"rt":811188,"response":{"heads":"14","tails":"7"},"type":"response","condition":"seqNoFeedback","trueTheta":0.5,"classrooms":["A","B"],"studentTrueClassroom":"A","exampleSet":"first","trial_type":"survey-html-form","trial_index":41,"time_elapsed":1737380,"internal_node_id":"0.0-40.0-0.0","params":{"nStudents":24,"maxFlips":30,"completionMinutes":45,"basePay":8,"maxBonus":9,"perTrialBonus":0.5,"perTrialBonusThreshold":0.05,"exampleCost":0.01},"classroomParams":{"A":{"a":1,"b":4},"B":{"a":4,"b":1},"C":{"a":2,"b":8},"D":{"a":8,"b":2}},"conditions":["nonSeqFull","nonSeqPartial","seqNoFeedback","seqFeedback"],"classroomPairings":[["A","B"],["C","D"]],"coinWeights":[0.2,0.5,0.8],"subjectId":"A235DXY5FJN0IW","assignmentId":"3FTYUGLFSV748I467XYPLU5KZZOD5K","hitId":"3NI0WFPPI9246I5W92FX9A3E2GN605","url":"https://gershmanlab.com/experiments/alicia/teaching/experiment/?hitId=3NI0WFPPI9246I5W92FX9A3E2GN605&workerId=A235DXY5FJN0IW&assignmentId=3FTYUGLFSV748I467XYPLU5KZZOD5K&a=FUTF9&tp_a=FUTF9&b=3FTYUGLFSV748I467XYPLU5KZZOD5K&tp_b=3FTYUGLFSV748I467XYPLU5KZZOD5K&c=365799&tp_c=365799","heads":14,"tails":7,"studentIndex":5,"studentTrueHypers":{"a":1,"b":4},"studentGuess":0.5769230769230769,"delta":0.07692307692307687,"totalExamples":21,"bonusSoFar":0},{"rt":8798,"response":{"heads":"4","tails":"3"},"type":"response","condition":"seqNoFeedback","trueTheta":0.5,"classrooms":["A","B"],"studentTrueClassroom":"A","exampleSet":"second","trial_type":"survey-html-form","trial_index":44,"time_elapsed":1751694,"internal_node_id":"0.0-43.0-0.0","params":{"nStudents":24,"maxFlips":30,"completionMinutes":45,"basePay":8,"maxBonus":9,"perTrialBonus":0.5,"perTrialBonusThreshold":0.05,"exampleCost":0.01},"classroomParams":{"A":{"a":1,"b":4},"B":{"a":4,"b":1},"C":{"a":2,"b":8},"D":{"a":8,"b":2}},"conditions":["nonSeqFull","nonSeqPartial","seqNoFeedback","seqFeedback"],"classroomPairings":[["A","B"],["C","D"]],"coinWeights":[0.2,0.5,0.8],"subjectId":"A235DXY5FJN0IW","assignmentId":"3FTYUGLFSV748I467XYPLU5KZZOD5K","hitId":"3NI0WFPPI9246I5W92FX9A3E2GN605","url":"https://gershmanlab.com/experiments/alicia/teaching/experiment/?hitId=3NI0WFPPI9246I5W92FX9A3E2GN605&workerId=A235DXY5FJN0IW&assignmentId=3FTYUGLFSV748I467XYPLU5KZZOD5K&a=FUTF9&tp_a=FUTF9&b=3FTYUGLFSV748I467XYPLU5KZZOD5K&tp_b=3FTYUGLFSV748I467XYPLU5KZZOD5K&c=365799&tp_c=365799","firstResponseHeads":14,"firstResponseTails":7,"secondResponseHeads":4,"secondResponseTails":3,"totalHeads":18,"totalTails":10,"studentIndex":5,"studentTrueHypers":{"a":1,"b":4},"studentGuess":0.5757575757575758,"delta":0.0757575757575758,"bonus":0,"bonusSoFar":0,"totalExamples":28},{"rt":7323,"response":{"heads":"2","tails":"08"},"type":"response","condition":"seqFeedback","trueTheta":0.5,"classrooms":["C","D"],"studentTrueClassroom":"D","exampleSet":"first","trial_type":"survey-html-form","trial_index":50,"time_elapsed":1773002,"internal_node_id":"0.0-49.0-0.0","params":{"nStudents":24,"maxFlips":30,"completionMinutes":45,"basePay":8,"maxBonus":9,"perTrialBonus":0.5,"perTrialBonusThreshold":0.05,"exampleCost":0.01},"classroomParams":{"A":{"a":1,"b":4},"B":{"a":4,"b":1},"C":{"a":2,"b":8},"D":{"a":8,"b":2}},"conditions":["nonSeqFull","nonSeqPartial","seqNoFeedback","seqFeedback"],"classroomPairings":[["A","B"],["C","D"]],"coinWeights":[0.2,0.5,0.8],"subjectId":"A235DXY5FJN0IW","assignmentId":"3FTYUGLFSV748I467XYPLU5KZZOD5K","hitId":"3NI0WFPPI9246I5W92FX9A3E2GN605","url":"https://gershmanlab.com/experiments/alicia/teaching/experiment/?hitId=3NI0WFPPI9246I5W92FX9A3E2GN605&workerId=A235DXY5FJN0IW&assignmentId=3FTYUGLFSV748I467XYPLU5KZZOD5K&a=FUTF9&tp_a=FUTF9&b=3FTYUGLFSV748I467XYPLU5KZZOD5K&tp_b=3FTYUGLFSV748I467XYPLU5KZZOD5K&c=365799&tp_c=365799","heads":2,"tails":8,"studentIndex":6,"studentTrueHypers":{"a":8,"b":2},"studentGuess":0.5,"delta":0,"totalExamples":10,"bonusSoFar":0},{"rt":6634,"response":{"heads":"2","tails":"8"},"type":"response","condition":"seqFeedback","trueTheta":0.5,"classrooms":["C","D"],"studentTrueClassroom":"D","exampleSet":"second","trial_type":"survey-html-form","trial_index":54,"time_elapsed":1796091,"internal_node_id":"0.0-53.0-0.0","params":{"nStudents":24,"maxFlips":30,"completionMinutes":45,"basePay":8,"maxBonus":9,"perTrialBonus":0.5,"perTrialBonusThreshold":0.05,"exampleCost":0.01},"classroomParams":{"A":{"a":1,"b":4},"B":{"a":4,"b":1},"C":{"a":2,"b":8},"D":{"a":8,"b":2}},"conditions":["nonSeqFull","nonSeqPartial","seqNoFeedback","seqFeedback"],"classroomPairings":[["A","B"],["C","D"]],"coinWeights":[0.2,0.5,0.8],"subjectId":"A235DXY5FJN0IW","assignmentId":"3FTYUGLFSV748I467XYPLU5KZZOD5K","hitId":"3NI0WFPPI9246I5W92FX9A3E2GN605","url":"https://gershmanlab.com/experiments/alicia/teaching/experiment/?hitId=3NI0WFPPI9246I5W92FX9A3E2GN605&workerId=A235DXY5FJN0IW&assignmentId=3FTYUGLFSV748I467XYPLU5KZZOD5K&a=FUTF9&tp_a=FUTF9&b=3FTYUGLFSV748I467XYPLU5KZZOD5K&tp_b=3FTYUGLFSV748I467XYPLU5KZZOD5K&c=365799&tp_c=365799","firstResponseHeads":2,"firstResponseTails":8,"secondResponseHeads":2,"secondResponseTails":8,"totalHeads":4,"totalTails":16,"studentIndex":6,"studentTrueHypers":{"a":8,"b":2},"studentGuess":0.4,"delta":0.09999999999999998,"bonus":0,"bonusSoFar":0,"totalExamples":20},{"rt":9216,"response":{"heads":"010","tails":"10"},"type":"response","condition":"seqNoFeedback","trueTheta":0.5,"classrooms":["C","D"],"studentTrueClassroom":"D","exampleSet":"first","trial_type":"survey-html-form","trial_index":60,"time_elapsed":1821736,"internal_node_id":"0.0-59.0-0.0","params":{"nStudents":24,"maxFlips":30,"completionMinutes":45,"basePay":8,"maxBonus":9,"perTrialBonus":0.5,"perTrialBonusThreshold":0.05,"exampleCost":0.01},"classroomParams":{"A":{"a":1,"b":4},"B":{"a":4,"b":1},"C":{"a":2,"b":8},"D":{"a":8,"b":2}},"conditions":["nonSeqFull","nonSeqPartial","seqNoFeedback","seqFeedback"],"classroomPairings":[["A","B"],["C","D"]],"coinWeights":[0.2,0.5,0.8],"subjectId":"A235DXY5FJN0IW","assignmentId":"3FTYUGLFSV748I467XYPLU5KZZOD5K","hitId":"3NI0WFPPI9246I5W92FX9A3E2GN605","url":"https://gershmanlab.com/experiments/alicia/teaching/experiment/?hitId=3NI0WFPPI9246I5W92FX9A3E2GN605&workerId=A235DXY5FJN0IW&assignmentId=3FTYUGLFSV748I467XYPLU5KZZOD5K&a=FUTF9&tp_a=FUTF9&b=3FTYUGLFSV748I467XYPLU5KZZOD5K&tp_b=3FTYUGLFSV748I467XYPLU5KZZOD5K&c=365799&tp_c=365799","heads":10,"tails":10,"studentIndex":7,"studentTrueHypers":{"a":8,"b":2},"studentGuess":0.6,"delta":0.09999999999999998,"totalExamples":20,"bonusSoFar":0},{"rt":11882,"response":{"heads":"20","tails":"10"},"type":"response","condition":"seqNoFeedback","trueTheta":0.5,"classrooms":["C","D"],"studentTrueClassroom":"D","exampleSet":"second","trial_type":"survey-html-form","trial_index":63,"time_elapsed":1841141,"internal_node_id":"0.0-62.0-0.0","params":{"nStudents":24,"maxFlips":30,"completionMinutes":45,"basePay":8,"maxBonus":9,"perTrialBonus":0.5,"perTrialBonusThreshold":0.05,"exampleCost":0.01},"classroomParams":{"A":{"a":1,"b":4},"B":{"a":4,"b":1},"C":{"a":2,"b":8},"D":{"a":8,"b":2}},"conditions":["nonSeqFull","nonSeqPartial","seqNoFeedback","seqFeedback"],"classroomPairings":[["A","B"],["C","D"]],"coinWeights":[0.2,0.5,0.8],"subjectId":"A235DXY5FJN0IW","assignmentId":"3FTYUGLFSV748I467XYPLU5KZZOD5K","hitId":"3NI0WFPPI9246I5W92FX9A3E2GN605","url":"https://gershmanlab.com/experiments/alicia/teaching/experiment/?hitId=3NI0WFPPI9246I5W92FX9A3E2GN605&workerId=A235DXY5FJN0IW&assignmentId=3FTYUGLFSV748I467XYPLU5KZZOD5K&a=FUTF9&tp_a=FUTF9&b=3FTYUGLFSV748I467XYPLU5KZZOD5K&tp_b=3FTYUGLFSV748I467XYPLU5KZZOD5K&c=365799&tp_c=365799","firstResponseHeads":10,"firstResponseTails":10,"secondResponseHeads":20,"secondResponseTails":10,"totalHeads":30,"totalTails":20,"studentIndex":7,"studentTrueHypers":{"a":8,"b":2},"studentGuess":0.6333333333333333,"delta":0.1333333333333333,"bonus":0,"bonusSoFar":0,"totalExamples":50},{"rt":9490,"response":{"heads":"01","tails":"04"},"type":"response","condition":"nonSeqFull","trueTheta":0.5,"classrooms":["A","B"],"studentTrueClassroom":"A","exampleSet":"first","trial_type":"survey-html-form","trial_index":69,"time_elapsed":1866646,"internal_node_id":"0.0-68.0-0.0","params":{"nStudents":24,"maxFlips":30,"completionMinutes":45,"basePay":8,"maxBonus":9,"perTrialBonus":0.5,"perTrialBonusThreshold":0.05,"exampleCost":0.01},"classroomParams":{"A":{"a":1,"b":4},"B":{"a":4,"b":1},"C":{"a":2,"b":8},"D":{"a":8,"b":2}},"conditions":["nonSeqFull","nonSeqPartial","seqNoFeedback","seqFeedback"],"classroomPairings":[["A","B"],["C","D"]],"coinWeights":[0.2,0.5,0.8],"subjectId":"A235DXY5FJN0IW","assignmentId":"3FTYUGLFSV748I467XYPLU5KZZOD5K","hitId":"3NI0WFPPI9246I5W92FX9A3E2GN605","url":"https://gershmanlab.com/experiments/alicia/teaching/experiment/?hitId=3NI0WFPPI9246I5W92FX9A3E2GN605&workerId=A235DXY5FJN0IW&assignmentId=3FTYUGLFSV748I467XYPLU5KZZOD5K&a=FUTF9&tp_a=FUTF9&b=3FTYUGLFSV748I467XYPLU5KZZOD5K&tp_b=3FTYUGLFSV748I467XYPLU5KZZOD5K&c=365799&tp_c=365799","heads":1,"tails":4,"studentIndex":8,"studentTrueHypers":{"a":1,"b":4},"studentGuess":0.2,"delta":0.3,"totalExamples":5,"bonus":0,"bonusSoFar":0},{"rt":6410,"response":{"heads":"05","tails":"08"},"type":"response","condition":"nonSeqFull","trueTheta":0.8,"classrooms":["A","B"],"studentTrueClassroom":"B","exampleSet":"first","trial_type":"survey-html-form","trial_index":75,"time_elapsed":1888636,"internal_node_id":"0.0-74.0-0.0","params":{"nStudents":24,"maxFlips":30,"completionMinutes":45,"basePay":8,"maxBonus":9,"perTrialBonus":0.5,"perTrialBonusThreshold":0.05,"exampleCost":0.01},"classroomParams":{"A":{"a":1,"b":4},"B":{"a":4,"b":1},"C":{"a":2,"b":8},"D":{"a":8,"b":2}},"conditions":["nonSeqFull","nonSeqPartial","seqNoFeedback","seqFeedback"],"classroomPairings":[["A","B"],["C","D"]],"coinWeights":[0.2,0.5,0.8],"subjectId":"A235DXY5FJN0IW","assignmentId":"3FTYUGLFSV748I467XYPLU5KZZOD5K","hitId":"3NI0WFPPI9246I5W92FX9A3E2GN605","url":"https://gershmanlab.com/experiments/alicia/teaching/experiment/?hitId=3NI0WFPPI9246I5W92FX9A3E2GN605&workerId=A235DXY5FJN0IW&assignmentId=3FTYUGLFSV748I467XYPLU5KZZOD5K&a=FUTF9&tp_a=FUTF9&b=3FTYUGLFSV748I467XYPLU5KZZOD5K&tp_b=3FTYUGLFSV748I467XYPLU5KZZOD5K&c=365799&tp_c=365799","heads":5,"tails":8,"studentIndex":9,"studentTrueHypers":{"a":4,"b":1},"studentGuess":0.5,"delta":0.30000000000000004,"totalExamples":13,"bonus":0,"bonusSoFar":0},{"rt":14249,"response":{"heads":"20","tails":"10"},"type":"response","condition":"seqFeedback","trueTheta":0.2,"classrooms":["A","B"],"studentTrueClassroom":"B","exampleSet":"first","trial_type":"survey-html-form","trial_index":81,"time_elapsed":1919967,"internal_node_id":"0.0-80.0-0.0","params":{"nStudents":24,"maxFlips":30,"completionMinutes":45,"basePay":8,"maxBonus":9,"perTrialBonus":0.5,"perTrialBonusThreshold":0.05,"exampleCost":0.01},"classroomParams":{"A":{"a":1,"b":4},"B":{"a":4,"b":1},"C":{"a":2,"b":8},"D":{"a":8,"b":2}},"conditions":["nonSeqFull","nonSeqPartial","seqNoFeedback","seqFeedback"],"classroomPairings":[["A","B"],["C","D"]],"coinWeights":[0.2,0.5,0.8],"subjectId":"A235DXY5FJN0IW","assignmentId":"3FTYUGLFSV748I467XYPLU5KZZOD5K","hitId":"3NI0WFPPI9246I5W92FX9A3E2GN605","url":"https://gershmanlab.com/experiments/alicia/teaching/experiment/?hitId=3NI0WFPPI9246I5W92FX9A3E2GN605&workerId=A235DXY5FJN0IW&assignmentId=3FTYUGLFSV748I467XYPLU5KZZOD5K&a=FUTF9&tp_a=FUTF9&b=3FTYUGLFSV748I467XYPLU5KZZOD5K&tp_b=3FTYUGLFSV748I467XYPLU5KZZOD5K&c=365799&tp_c=365799","heads":20,"tails":10,"studentIndex":10,"studentTrueHypers":{"a":4,"b":1},"studentGuess":0.6857142857142857,"delta":0.4857142857142857,"totalExamples":30,"bonusSoFar":0},{"rt":7887,"response":{"heads":"1","tails":"4"},"type":"response","condition":"seqFeedback","trueTheta":0.2,"classrooms":["A","B"],"studentTrueClassroom":"B","exampleSet":"second","trial_type":"survey-html-form","trial_index":85,"time_elapsed":1936816,"internal_node_id":"0.0-84.0-0.0","params":{"nStudents":24,"maxFlips":30,"completionMinutes":45,"basePay":8,"maxBonus":9,"perTrialBonus":0.5,"perTrialBonusThreshold":0.05,"exampleCost":0.01},"classroomParams":{"A":{"a":1,"b":4},"B":{"a":4,"b":1},"C":{"a":2,"b":8},"D":{"a":8,"b":2}},"conditions":["nonSeqFull","nonSeqPartial","seqNoFeedback","seqFeedback"],"classroomPairings":[["A","B"],["C","D"]],"coinWeights":[0.2,0.5,0.8],"subjectId":"A235DXY5FJN0IW","assignmentId":"3FTYUGLFSV748I467XYPLU5KZZOD5K","hitId":"3NI0WFPPI9246I5W92FX9A3E2GN605","url":"https://gershmanlab.com/experiments/alicia/teaching/experiment/?hitId=3NI0WFPPI9246I5W92FX9A3E2GN605&workerId=A235DXY5FJN0IW&assignmentId=3FTYUGLFSV748I467XYPLU5KZZOD5K&a=FUTF9&tp_a=FUTF9&b=3FTYUGLFSV748I467XYPLU5KZZOD5K&tp_b=3FTYUGLFSV748I467XYPLU5KZZOD5K&c=365799&tp_c=365799","firstResponseHeads":20,"firstResponseTails":10,"secondResponseHeads":1,"secondResponseTails":4,"totalHeads":21,"totalTails":14,"studentIndex":10,"studentTrueHypers":{"a":4,"b":1},"studentGuess":0.625,"delta":0.425,"bonus":0,"bonusSoFar":0,"totalExamples":35},{"rt":5095,"response":{"heads":"04","tails":"06"},"type":"response","condition":"seqNoFeedback","trueTheta":0.2,"classrooms":["A","B"],"studentTrueClassroom":"A","exampleSet":"first","trial_type":"survey-html-form","trial_index":91,"time_elapsed":1983810,"internal_node_id":"0.0-90.0-0.0","params":{"nStudents":24,"maxFlips":30,"completionMinutes":45,"basePay":8,"maxBonus":9,"perTrialBonus":0.5,"perTrialBonusThreshold":0.05,"exampleCost":0.01},"classroomParams":{"A":{"a":1,"b":4},"B":{"a":4,"b":1},"C":{"a":2,"b":8},"D":{"a":8,"b":2}},"conditions":["nonSeqFull","nonSeqPartial","seqNoFeedback","seqFeedback"],"classroomPairings":[["A","B"],["C","D"]],"coinWeights":[0.2,0.5,0.8],"subjectId":"A235DXY5FJN0IW","assignmentId":"3FTYUGLFSV748I467XYPLU5KZZOD5K","hitId":"3NI0WFPPI9246I5W92FX9A3E2GN605","url":"https://gershmanlab.com/experiments/alicia/teaching/experiment/?hitId=3NI0WFPPI9246I5W92FX9A3E2GN605&workerId=A235DXY5FJN0IW&assignmentId=3FTYUGLFSV748I467XYPLU5KZZOD5K&a=FUTF9&tp_a=FUTF9&b=3FTYUGLFSV748I467XYPLU5KZZOD5K&tp_b=3FTYUGLFSV748I467XYPLU5KZZOD5K&c=365799&tp_c=365799","heads":4,"tails":6,"studentIndex":11,"studentTrueHypers":{"a":1,"b":4},"studentGuess":0.3333333333333333,"delta":0.1333333333333333,"totalExamples":10,"bonusSoFar":0},{"rt":22197,"response":{"heads":"4","tails":"01"},"type":"response","condition":"seqNoFeedback","trueTheta":0.2,"classrooms":["A","B"],"studentTrueClassroom":"A","exampleSet":"second","trial_type":"survey-html-form","trial_index":94,"time_elapsed":2013271,"internal_node_id":"0.0-93.0-0.0","params":{"nStudents":24,"maxFlips":30,"completionMinutes":45,"basePay":8,"maxBonus":9,"perTrialBonus":0.5,"perTrialBonusThreshold":0.05,"exampleCost":0.01},"classroomParams":{"A":{"a":1,"b":4},"B":{"a":4,"b":1},"C":{"a":2,"b":8},"D":{"a":8,"b":2}},"conditions":["nonSeqFull","nonSeqPartial","seqNoFeedback","seqFeedback"],"classroomPairings":[["A","B"],["C","D"]],"coinWeights":[0.2,0.5,0.8],"subjectId":"A235DXY5FJN0IW","assignmentId":"3FTYUGLFSV748I467XYPLU5KZZOD5K","hitId":"3NI0WFPPI9246I5W92FX9A3E2GN605","url":"https://gershmanlab.com/experiments/alicia/teaching/experiment/?hitId=3NI0WFPPI9246I5W92FX9A3E2GN605&workerId=A235DXY5FJN0IW&assignmentId=3FTYUGLFSV748I467XYPLU5KZZOD5K&a=FUTF9&tp_a=FUTF9&b=3FTYUGLFSV748I467XYPLU5KZZOD5K&tp_b=3FTYUGLFSV748I467XYPLU5KZZOD5K&c=365799&tp_c=365799","firstResponseHeads":4,"firstResponseTails":6,"secondResponseHeads":4,"secondResponseTails":1,"totalHeads":8,"totalTails":7,"studentIndex":11,"studentTrueHypers":{"a":1,"b":4},"studentGuess":0.45,"delta":0.25,"bonus":0,"bonusSoFar":0,"totalExamples":15},{"rt":6179,"response":{"heads":"25","tails":"05"},"type":"response","condition":"seqNoFeedback","trueTheta":0.8,"classrooms":["C","D"],"studentTrueClassroom":"D","exampleSet":"first","trial_type":"survey-html-form","trial_index":100,"time_elapsed":2034927,"internal_node_id":"0.0-99.0-0.0","params":{"nStudents":24,"maxFlips":30,"completionMinutes":45,"basePay":8,"maxBonus":9,"perTrialBonus":0.5,"perTrialBonusThreshold":0.05,"exampleCost":0.01},"classroomParams":{"A":{"a":1,"b":4},"B":{"a":4,"b":1},"C":{"a":2,"b":8},"D":{"a":8,"b":2}},"conditions":["nonSeqFull","nonSeqPartial","seqNoFeedback","seqFeedback"],"classroomPairings":[["A","B"],["C","D"]],"coinWeights":[0.2,0.5,0.8],"subjectId":"A235DXY5FJN0IW","assignmentId":"3FTYUGLFSV748I467XYPLU5KZZOD5K","hitId":"3NI0WFPPI9246I5W92FX9A3E2GN605","url":"https://gershmanlab.com/experiments/alicia/teaching/experiment/?hitId=3NI0WFPPI9246I5W92FX9A3E2GN605&workerId=A235DXY5FJN0IW&assignmentId=3FTYUGLFSV748I467XYPLU5KZZOD5K&a=FUTF9&tp_a=FUTF9&b=3FTYUGLFSV748I467XYPLU5KZZOD5K&tp_b=3FTYUGLFSV748I467XYPLU5KZZOD5K&c=365799&tp_c=365799","heads":25,"tails":5,"studentIndex":12,"studentTrueHypers":{"a":8,"b":2},"studentGuess":0.825,"delta":0.02499999999999991,"totalExamples":30,"bonusSoFar":0},{"rt":14590,"response":{"heads":"08","tails":"02"},"type":"response","condition":"seqNoFeedback","trueTheta":0.8,"classrooms":["C","D"],"studentTrueClassroom":"D","exampleSet":"second","trial_type":"survey-html-form","trial_index":103,"time_elapsed":2057292,"internal_node_id":"0.0-102.0-0.0","params":{"nStudents":24,"maxFlips":30,"completionMinutes":45,"basePay":8,"maxBonus":9,"perTrialBonus":0.5,"perTrialBonusThreshold":0.05,"exampleCost":0.01},"classroomParams":{"A":{"a":1,"b":4},"B":{"a":4,"b":1},"C":{"a":2,"b":8},"D":{"a":8,"b":2}},"conditions":["nonSeqFull","nonSeqPartial","seqNoFeedback","seqFeedback"],"classroomPairings":[["A","B"],["C","D"]],"coinWeights":[0.2,0.5,0.8],"subjectId":"A235DXY5FJN0IW","assignmentId":"3FTYUGLFSV748I467XYPLU5KZZOD5K","hitId":"3NI0WFPPI9246I5W92FX9A3E2GN605","url":"https://gershmanlab.com/experiments/alicia/teaching/experiment/?hitId=3NI0WFPPI9246I5W92FX9A3E2GN605&workerId=A235DXY5FJN0IW&assignmentId=3FTYUGLFSV748I467XYPLU5KZZOD5K&a=FUTF9&tp_a=FUTF9&b=3FTYUGLFSV748I467XYPLU5KZZOD5K&tp_b=3FTYUGLFSV748I467XYPLU5KZZOD5K&c=365799&tp_c=365799","firstResponseHeads":25,"firstResponseTails":5,"secondResponseHeads":8,"secondResponseTails":2,"totalHeads":33,"totalTails":7,"studentIndex":12,"studentTrueHypers":{"a":8,"b":2},"studentGuess":0.82,"delta":0.019999999999999907,"bonus":0.1,"bonusSoFar":0.1,"totalExamples":40},{"rt":7830,"response":{"heads":"25","tails":"5"},"type":"response","condition":"nonSeqFull","trueTheta":0.8,"classrooms":["C","D"],"studentTrueClassroom":"D","exampleSet":"first","trial_type":"survey-html-form","trial_index":109,"time_elapsed":2088829,"internal_node_id":"0.0-108.0-0.0","params":{"nStudents":24,"maxFlips":30,"completionMinutes":45,"basePay":8,"maxBonus":9,"perTrialBonus":0.5,"perTrialBonusThreshold":0.05,"exampleCost":0.01},"classroomParams":{"A":{"a":1,"b":4},"B":{"a":4,"b":1},"C":{"a":2,"b":8},"D":{"a":8,"b":2}},"conditions":["nonSeqFull","nonSeqPartial","seqNoFeedback","seqFeedback"],"classroomPairings":[["A","B"],["C","D"]],"coinWeights":[0.2,0.5,0.8],"subjectId":"A235DXY5FJN0IW","assignmentId":"3FTYUGLFSV748I467XYPLU5KZZOD5K","hitId":"3NI0WFPPI9246I5W92FX9A3E2GN605","url":"https://gershmanlab.com/experiments/alicia/teaching/experiment/?hitId=3NI0WFPPI9246I5W92FX9A3E2GN605&workerId=A235DXY5FJN0IW&assignmentId=3FTYUGLFSV748I467XYPLU5KZZOD5K&a=FUTF9&tp_a=FUTF9&b=3FTYUGLFSV748I467XYPLU5KZZOD5K&tp_b=3FTYUGLFSV748I467XYPLU5KZZOD5K&c=365799&tp_c=365799","heads":25,"tails":5,"studentIndex":13,"studentTrueHypers":{"a":8,"b":2},"studentGuess":0.825,"delta":0.02499999999999991,"totalExamples":30,"bonus":0.2,"bonusSoFar":0.3},{"rt":5215,"response":{"heads":"25","tails":"05"},"type":"response","condition":"nonSeqFull","trueTheta":0.5,"classrooms":["C","D"],"studentTrueClassroom":"C","exampleSet":"first","trial_type":"survey-html-form","trial_index":115,"time_elapsed":2107724,"internal_node_id":"0.0-114.0-0.0","params":{"nStudents":24,"maxFlips":30,"completionMinutes":45,"basePay":8,"maxBonus":9,"perTrialBonus":0.5,"perTrialBonusThreshold":0.05,"exampleCost":0.01},"classroomParams":{"A":{"a":1,"b":4},"B":{"a":4,"b":1},"C":{"a":2,"b":8},"D":{"a":8,"b":2}},"conditions":["nonSeqFull","nonSeqPartial","seqNoFeedback","seqFeedback"],"classroomPairings":[["A","B"],["C","D"]],"coinWeights":[0.2,0.5,0.8],"subjectId":"A235DXY5FJN0IW","assignmentId":"3FTYUGLFSV748I467XYPLU5KZZOD5K","hitId":"3NI0WFPPI9246I5W92FX9A3E2GN605","url":"https://gershmanlab.com/experiments/alicia/teaching/experiment/?hitId=3NI0WFPPI9246I5W92FX9A3E2GN605&workerId=A235DXY5FJN0IW&assignmentId=3FTYUGLFSV748I467XYPLU5KZZOD5K&a=FUTF9&tp_a=FUTF9&b=3FTYUGLFSV748I467XYPLU5KZZOD5K&tp_b=3FTYUGLFSV748I467XYPLU5KZZOD5K&c=365799&tp_c=365799","heads":25,"tails":5,"studentIndex":14,"studentTrueHypers":{"a":2,"b":8},"studentGuess":0.675,"delta":0.17500000000000004,"totalExamples":30,"bonus":0,"bonusSoFar":0.3},{"rt":10373,"response":{"heads":"25","tails":"05"},"type":"response","condition":"nonSeqPartial","trueTheta":0.8,"classrooms":["A","B"],"studentTrueClassroom":"A","exampleSet":"first","trial_type":"survey-html-form","trial_index":121,"time_elapsed":2140717,"internal_node_id":"0.0-120.0-0.0","params":{"nStudents":24,"maxFlips":30,"completionMinutes":45,"basePay":8,"maxBonus":9,"perTrialBonus":0.5,"perTrialBonusThreshold":0.05,"exampleCost":0.01},"classroomParams":{"A":{"a":1,"b":4},"B":{"a":4,"b":1},"C":{"a":2,"b":8},"D":{"a":8,"b":2}},"conditions":["nonSeqFull","nonSeqPartial","seqNoFeedback","seqFeedback"],"classroomPairings":[["A","B"],["C","D"]],"coinWeights":[0.2,0.5,0.8],"subjectId":"A235DXY5FJN0IW","assignmentId":"3FTYUGLFSV748I467XYPLU5KZZOD5K","hitId":"3NI0WFPPI9246I5W92FX9A3E2GN605","url":"https://gershmanlab.com/experiments/alicia/teaching/experiment/?hitId=3NI0WFPPI9246I5W92FX9A3E2GN605&workerId=A235DXY5FJN0IW&assignmentId=3FTYUGLFSV748I467XYPLU5KZZOD5K&a=FUTF9&tp_a=FUTF9&b=3FTYUGLFSV748I467XYPLU5KZZOD5K&tp_b=3FTYUGLFSV748I467XYPLU5KZZOD5K&c=365799&tp_c=365799","heads":25,"tails":5,"studentIndex":15,"studentTrueHypers":{"a":1,"b":4},"studentGuess":0.7428571428571429,"delta":0.05714285714285716,"totalExamples":30,"bonus":0,"bonusSoFar":0.3},{"rt":4605,"response":{"heads":"25","tails":"05"},"type":"response","condition":"seqNoFeedback","trueTheta":0.2,"classrooms":["C","D"],"studentTrueClassroom":"D","exampleSet":"first","trial_type":"survey-html-form","trial_index":127,"time_elapsed":2157214,"internal_node_id":"0.0-126.0-0.0","params":{"nStudents":24,"maxFlips":30,"completionMinutes":45,"basePay":8,"maxBonus":9,"perTrialBonus":0.5,"perTrialBonusThreshold":0.05,"exampleCost":0.01},"classroomParams":{"A":{"a":1,"b":4},"B":{"a":4,"b":1},"C":{"a":2,"b":8},"D":{"a":8,"b":2}},"conditions":["nonSeqFull","nonSeqPartial","seqNoFeedback","seqFeedback"],"classroomPairings":[["A","B"],["C","D"]],"coinWeights":[0.2,0.5,0.8],"subjectId":"A235DXY5FJN0IW","assignmentId":"3FTYUGLFSV748I467XYPLU5KZZOD5K","hitId":"3NI0WFPPI9246I5W92FX9A3E2GN605","url":"https://gershmanlab.com/experiments/alicia/teaching/experiment/?hitId=3NI0WFPPI9246I5W92FX9A3E2GN605&workerId=A235DXY5FJN0IW&assignmentId=3FTYUGLFSV748I467XYPLU5KZZOD5K&a=FUTF9&tp_a=FUTF9&b=3FTYUGLFSV748I467XYPLU5KZZOD5K&tp_b=3FTYUGLFSV748I467XYPLU5KZZOD5K&c=365799&tp_c=365799","heads":25,"tails":5,"studentIndex":16,"studentTrueHypers":{"a":8,"b":2},"studentGuess":0.825,"delta":0.625,"totalExamples":30,"bonusSoFar":0.3},{"rt":7733,"response":{"heads":"25","tails":"05"},"type":"response","condition":"seqNoFeedback","trueTheta":0.2,"classrooms":["C","D"],"studentTrueClassroom":"D","exampleSet":"second","trial_type":"survey-html-form","trial_index":130,"time_elapsed":2172462,"internal_node_id":"0.0-129.0-0.0","params":{"nStudents":24,"maxFlips":30,"completionMinutes":45,"basePay":8,"maxBonus":9,"perTrialBonus":0.5,"perTrialBonusThreshold":0.05,"exampleCost":0.01},"classroomParams":{"A":{"a":1,"b":4},"B":{"a":4,"b":1},"C":{"a":2,"b":8},"D":{"a":8,"b":2}},"conditions":["nonSeqFull","nonSeqPartial","seqNoFeedback","seqFeedback"],"classroomPairings":[["A","B"],["C","D"]],"coinWeights":[0.2,0.5,0.8],"subjectId":"A235DXY5FJN0IW","assignmentId":"3FTYUGLFSV748I467XYPLU5KZZOD5K","hitId":"3NI0WFPPI9246I5W92FX9A3E2GN605","url":"https://gershmanlab.com/experiments/alicia/teaching/experiment/?hitId=3NI0WFPPI9246I5W92FX9A3E2GN605&workerId=A235DXY5FJN0IW&assignmentId=3FTYUGLFSV748I467XYPLU5KZZOD5K&a=FUTF9&tp_a=FUTF9&b=3FTYUGLFSV748I467XYPLU5KZZOD5K&tp_b=3FTYUGLFSV748I467XYPLU5KZZOD5K&c=365799&tp_c=365799","firstResponseHeads":25,"firstResponseTails":5,"secondResponseHeads":25,"secondResponseTails":5,"totalHeads":50,"totalTails":10,"studentIndex":16,"studentTrueHypers":{"a":8,"b":2},"studentGuess":0.8285714285714286,"delta":0.6285714285714286,"bonus":0,"bonusSoFar":0.3,"totalExamples":60},{"rt":8646,"response":{"heads":"15","tails":"05"},"type":"response","condition":"nonSeqPartial","trueTheta":0.2,"classrooms":["A","B"],"studentTrueClassroom":"B","exampleSet":"first","trial_type":"survey-html-form","trial_index":136,"time_elapsed":2194265,"internal_node_id":"0.0-135.0-0.0","params":{"nStudents":24,"maxFlips":30,"completionMinutes":45,"basePay":8,"maxBonus":9,"perTrialBonus":0.5,"perTrialBonusThreshold":0.05,"exampleCost":0.01},"classroomParams":{"A":{"a":1,"b":4},"B":{"a":4,"b":1},"C":{"a":2,"b":8},"D":{"a":8,"b":2}},"conditions":["nonSeqFull","nonSeqPartial","seqNoFeedback","seqFeedback"],"classroomPairings":[["A","B"],["C","D"]],"coinWeights":[0.2,0.5,0.8],"subjectId":"A235DXY5FJN0IW","assignmentId":"3FTYUGLFSV748I467XYPLU5KZZOD5K","hitId":"3NI0WFPPI9246I5W92FX9A3E2GN605","url":"https://gershmanlab.com/experiments/alicia/teaching/experiment/?hitId=3NI0WFPPI9246I5W92FX9A3E2GN605&workerId=A235DXY5FJN0IW&assignmentId=3FTYUGLFSV748I467XYPLU5KZZOD5K&a=FUTF9&tp_a=FUTF9&b=3FTYUGLFSV748I467XYPLU5KZZOD5K&tp_b=3FTYUGLFSV748I467XYPLU5KZZOD5K&c=365799&tp_c=365799","heads":15,"tails":5,"studentIndex":17,"studentTrueHypers":{"a":4,"b":1},"studentGuess":0.76,"delta":0.56,"totalExamples":20,"bonus":0,"bonusSoFar":0.3},{"rt":17900,"response":{"heads":"025","tails":"05"},"type":"response","condition":"seqFeedback","trueTheta":0.8,"classrooms":["A","B"],"studentTrueClassroom":"A","exampleSet":"first","trial_type":"survey-html-form","trial_index":142,"time_elapsed":2227884,"internal_node_id":"0.0-141.0-0.0","params":{"nStudents":24,"maxFlips":30,"completionMinutes":45,"basePay":8,"maxBonus":9,"perTrialBonus":0.5,"perTrialBonusThreshold":0.05,"exampleCost":0.01},"classroomParams":{"A":{"a":1,"b":4},"B":{"a":4,"b":1},"C":{"a":2,"b":8},"D":{"a":8,"b":2}},"conditions":["nonSeqFull","nonSeqPartial","seqNoFeedback","seqFeedback"],"classroomPairings":[["A","B"],["C","D"]],"coinWeights":[0.2,0.5,0.8],"subjectId":"A235DXY5FJN0IW","assignmentId":"3FTYUGLFSV748I467XYPLU5KZZOD5K","hitId":"3NI0WFPPI9246I5W92FX9A3E2GN605","url":"https://gershmanlab.com/experiments/alicia/teaching/experiment/?hitId=3NI0WFPPI9246I5W92FX9A3E2GN605&workerId=A235DXY5FJN0IW&assignmentId=3FTYUGLFSV748I467XYPLU5KZZOD5K&a=FUTF9&tp_a=FUTF9&b=3FTYUGLFSV748I467XYPLU5KZZOD5K&tp_b=3FTYUGLFSV748I467XYPLU5KZZOD5K&c=365799&tp_c=365799","heads":25,"tails":5,"studentIndex":18,"studentTrueHypers":{"a":1,"b":4},"studentGuess":0.7428571428571429,"delta":0.05714285714285716,"totalExamples":30,"bonusSoFar":0.3},{"rt":4045,"response":{"heads":"25","tails":"05"},"type":"response","condition":"seqFeedback","trueTheta":0.8,"classrooms":["A","B"],"studentTrueClassroom":"A","exampleSet":"second","trial_type":"survey-html-form","trial_index":146,"time_elapsed":2240089,"internal_node_id":"0.0-145.0-0.0","params":{"nStudents":24,"maxFlips":30,"completionMinutes":45,"basePay":8,"maxBonus":9,"perTrialBonus":0.5,"perTrialBonusThreshold":0.05,"exampleCost":0.01},"classroomParams":{"A":{"a":1,"b":4},"B":{"a":4,"b":1},"C":{"a":2,"b":8},"D":{"a":8,"b":2}},"conditions":["nonSeqFull","nonSeqPartial","seqNoFeedback","seqFeedback"],"classroomPairings":[["A","B"],["C","D"]],"coinWeights":[0.2,0.5,0.8],"subjectId":"A235DXY5FJN0IW","assignmentId":"3FTYUGLFSV748I467XYPLU5KZZOD5K","hitId":"3NI0WFPPI9246I5W92FX9A3E2GN605","url":"https://gershmanlab.com/experiments/alicia/teaching/experiment/?hitId=3NI0WFPPI9246I5W92FX9A3E2GN605&workerId=A235DXY5FJN0IW&assignmentId=3FTYUGLFSV748I467XYPLU5KZZOD5K&a=FUTF9&tp_a=FUTF9&b=3FTYUGLFSV748I467XYPLU5KZZOD5K&tp_b=3FTYUGLFSV748I467XYPLU5KZZOD5K&c=365799&tp_c=365799","firstResponseHeads":25,"firstResponseTails":5,"secondResponseHeads":25,"secondResponseTails":5,"totalHeads":50,"totalTails":10,"studentIndex":18,"studentTrueHypers":{"a":1,"b":4},"studentGuess":0.7846153846153846,"delta":0.015384615384615441,"bonus":0,"bonusSoFar":0.3,"totalExamples":60},{"rt":21950,"response":{"heads":"025","tails":"05"},"type":"response","condition":"seqFeedback","trueTheta":0.2,"classrooms":["C","D"],"studentTrueClassroom":"D","exampleSet":"first","trial_type":"survey-html-form","trial_index":152,"time_elapsed":2276653,"internal_node_id":"0.0-151.0-0.0","params":{"nStudents":24,"maxFlips":30,"completionMinutes":45,"basePay":8,"maxBonus":9,"perTrialBonus":0.5,"perTrialBonusThreshold":0.05,"exampleCost":0.01},"classroomParams":{"A":{"a":1,"b":4},"B":{"a":4,"b":1},"C":{"a":2,"b":8},"D":{"a":8,"b":2}},"conditions":["nonSeqFull","nonSeqPartial","seqNoFeedback","seqFeedback"],"classroomPairings":[["A","B"],["C","D"]],"coinWeights":[0.2,0.5,0.8],"subjectId":"A235DXY5FJN0IW","assignmentId":"3FTYUGLFSV748I467XYPLU5KZZOD5K","hitId":"3NI0WFPPI9246I5W92FX9A3E2GN605","url":"https://gershmanlab.com/experiments/alicia/teaching/experiment/?hitId=3NI0WFPPI9246I5W92FX9A3E2GN605&workerId=A235DXY5FJN0IW&assignmentId=3FTYUGLFSV748I467XYPLU5KZZOD5K&a=FUTF9&tp_a=FUTF9&b=3FTYUGLFSV748I467XYPLU5KZZOD5K&tp_b=3FTYUGLFSV748I467XYPLU5KZZOD5K&c=365799&tp_c=365799","heads":25,"tails":5,"studentIndex":19,"studentTrueHypers":{"a":8,"b":2},"studentGuess":0.825,"delta":0.625,"totalExamples":30,"bonusSoFar":0.3},{"rt":7487,"response":{"heads":"025","tails":"05"},"type":"response","condition":"seqFeedback","trueTheta":0.2,"classrooms":["C","D"],"studentTrueClassroom":"D","exampleSet":"second","trial_type":"survey-html-form","trial_index":156,"time_elapsed":2293366,"internal_node_id":"0.0-155.0-0.0","params":{"nStudents":24,"maxFlips":30,"completionMinutes":45,"basePay":8,"maxBonus":9,"perTrialBonus":0.5,"perTrialBonusThreshold":0.05,"exampleCost":0.01},"classroomParams":{"A":{"a":1,"b":4},"B":{"a":4,"b":1},"C":{"a":2,"b":8},"D":{"a":8,"b":2}},"conditions":["nonSeqFull","nonSeqPartial","seqNoFeedback","seqFeedback"],"classroomPairings":[["A","B"],["C","D"]],"coinWeights":[0.2,0.5,0.8],"subjectId":"A235DXY5FJN0IW","assignmentId":"3FTYUGLFSV748I467XYPLU5KZZOD5K","hitId":"3NI0WFPPI9246I5W92FX9A3E2GN605","url":"https://gershmanlab.com/experiments/alicia/teaching/experiment/?hitId=3NI0WFPPI9246I5W92FX9A3E2GN605&workerId=A235DXY5FJN0IW&assignmentId=3FTYUGLFSV748I467XYPLU5KZZOD5K&a=FUTF9&tp_a=FUTF9&b=3FTYUGLFSV748I467XYPLU5KZZOD5K&tp_b=3FTYUGLFSV748I467XYPLU5KZZOD5K&c=365799&tp_c=365799","firstResponseHeads":25,"firstResponseTails":5,"secondResponseHeads":25,"secondResponseTails":5,"totalHeads":50,"totalTails":10,"studentIndex":19,"studentTrueHypers":{"a":8,"b":2},"studentGuess":0.8285714285714286,"delta":0.6285714285714286,"bonus":0,"bonusSoFar":0.3,"totalExamples":60},{"rt":5144,"response":{"heads":"25","tails":"05"},"type":"response","condition":"seqFeedback","trueTheta":0.5,"classrooms":["A","B"],"studentTrueClassroom":"A","exampleSet":"first","trial_type":"survey-html-form","trial_index":162,"time_elapsed":2322765,"internal_node_id":"0.0-161.0-0.0","params":{"nStudents":24,"maxFlips":30,"completionMinutes":45,"basePay":8,"maxBonus":9,"perTrialBonus":0.5,"perTrialBonusThreshold":0.05,"exampleCost":0.01},"classroomParams":{"A":{"a":1,"b":4},"B":{"a":4,"b":1},"C":{"a":2,"b":8},"D":{"a":8,"b":2}},"conditions":["nonSeqFull","nonSeqPartial","seqNoFeedback","seqFeedback"],"classroomPairings":[["A","B"],["C","D"]],"coinWeights":[0.2,0.5,0.8],"subjectId":"A235DXY5FJN0IW","assignmentId":"3FTYUGLFSV748I467XYPLU5KZZOD5K","hitId":"3NI0WFPPI9246I5W92FX9A3E2GN605","url":"https://gershmanlab.com/experiments/alicia/teaching/experiment/?hitId=3NI0WFPPI9246I5W92FX9A3E2GN605&workerId=A235DXY5FJN0IW&assignmentId=3FTYUGLFSV748I467XYPLU5KZZOD5K&a=FUTF9&tp_a=FUTF9&b=3FTYUGLFSV748I467XYPLU5KZZOD5K&tp_b=3FTYUGLFSV748I467XYPLU5KZZOD5K&c=365799&tp_c=365799","heads":25,"tails":5,"studentIndex":20,"studentTrueHypers":{"a":1,"b":4},"studentGuess":0.7428571428571429,"delta":0.24285714285714288,"totalExamples":30,"bonusSoFar":0.3},{"rt":5039,"response":{"heads":"025","tails":"05"},"type":"response","condition":"seqFeedback","trueTheta":0.5,"classrooms":["A","B"],"studentTrueClassroom":"A","exampleSet":"second","trial_type":"survey-html-form","trial_index":166,"time_elapsed":2342910,"internal_node_id":"0.0-165.0-0.0","params":{"nStudents":24,"maxFlips":30,"completionMinutes":45,"basePay":8,"maxBonus":9,"perTrialBonus":0.5,"perTrialBonusThreshold":0.05,"exampleCost":0.01},"classroomParams":{"A":{"a":1,"b":4},"B":{"a":4,"b":1},"C":{"a":2,"b":8},"D":{"a":8,"b":2}},"conditions":["nonSeqFull","nonSeqPartial","seqNoFeedback","seqFeedback"],"classroomPairings":[["A","B"],["C","D"]],"coinWeights":[0.2,0.5,0.8],"subjectId":"A235DXY5FJN0IW","assignmentId":"3FTYUGLFSV748I467XYPLU5KZZOD5K","hitId":"3NI0WFPPI9246I5W92FX9A3E2GN605","url":"https://gershmanlab.com/experiments/alicia/teaching/experiment/?hitId=3NI0WFPPI9246I5W92FX9A3E2GN605&workerId=A235DXY5FJN0IW&assignmentId=3FTYUGLFSV748I467XYPLU5KZZOD5K&a=FUTF9&tp_a=FUTF9&b=3FTYUGLFSV748I467XYPLU5KZZOD5K&tp_b=3FTYUGLFSV748I467XYPLU5KZZOD5K&c=365799&tp_c=365799","firstResponseHeads":25,"firstResponseTails":5,"secondResponseHeads":25,"secondResponseTails":5,"totalHeads":50,"totalTails":10,"studentIndex":20,"studentTrueHypers":{"a":1,"b":4},"studentGuess":0.7846153846153846,"delta":0.2846153846153846,"bonus":0,"bonusSoFar":0.3,"totalExamples":60},{"rt":6293,"response":{"heads":"25","tails":"5"},"type":"response","condition":"nonSeqPartial","trueTheta":0.5,"classrooms":["A","B"],"studentTrueClassroom":"B","exampleSet":"first","trial_type":"survey-html-form","trial_index":172,"time_elapsed":2369055,"internal_node_id":"0.0-171.0-0.0","params":{"nStudents":24,"maxFlips":30,"completionMinutes":45,"basePay":8,"maxBonus":9,"perTrialBonus":0.5,"perTrialBonusThreshold":0.05,"exampleCost":0.01},"classroomParams":{"A":{"a":1,"b":4},"B":{"a":4,"b":1},"C":{"a":2,"b":8},"D":{"a":8,"b":2}},"conditions":["nonSeqFull","nonSeqPartial","seqNoFeedback","seqFeedback"],"classroomPairings":[["A","B"],["C","D"]],"coinWeights":[0.2,0.5,0.8],"subjectId":"A235DXY5FJN0IW","assignmentId":"3FTYUGLFSV748I467XYPLU5KZZOD5K","hitId":"3NI0WFPPI9246I5W92FX9A3E2GN605","url":"https://gershmanlab.com/experiments/alicia/teaching/experiment/?hitId=3NI0WFPPI9246I5W92FX9A3E2GN605&workerId=A235DXY5FJN0IW&assignmentId=3FTYUGLFSV748I467XYPLU5KZZOD5K&a=FUTF9&tp_a=FUTF9&b=3FTYUGLFSV748I467XYPLU5KZZOD5K&tp_b=3FTYUGLFSV748I467XYPLU5KZZOD5K&c=365799&tp_c=365799","heads":25,"tails":5,"studentIndex":21,"studentTrueHypers":{"a":4,"b":1},"studentGuess":0.8285714285714286,"delta":0.3285714285714286,"totalExamples":30,"bonus":0,"bonusSoFar":0.3},{"rt":6003,"response":{"heads":"25","tails":"05"},"type":"response","condition":"seqNoFeedback","trueTheta":0.8,"classrooms":["A","B"],"studentTrueClassroom":"A","exampleSet":"first","trial_type":"survey-html-form","trial_index":178,"time_elapsed":2386266,"internal_node_id":"0.0-177.0-0.0","params":{"nStudents":24,"maxFlips":30,"completionMinutes":45,"basePay":8,"maxBonus":9,"perTrialBonus":0.5,"perTrialBonusThreshold":0.05,"exampleCost":0.01},"classroomParams":{"A":{"a":1,"b":4},"B":{"a":4,"b":1},"C":{"a":2,"b":8},"D":{"a":8,"b":2}},"conditions":["nonSeqFull","nonSeqPartial","seqNoFeedback","seqFeedback"],"classroomPairings":[["A","B"],["C","D"]],"coinWeights":[0.2,0.5,0.8],"subjectId":"A235DXY5FJN0IW","assignmentId":"3FTYUGLFSV748I467XYPLU5KZZOD5K","hitId":"3NI0WFPPI9246I5W92FX9A3E2GN605","url":"https://gershmanlab.com/experiments/alicia/teaching/experiment/?hitId=3NI0WFPPI9246I5W92FX9A3E2GN605&workerId=A235DXY5FJN0IW&assignmentId=3FTYUGLFSV748I467XYPLU5KZZOD5K&a=FUTF9&tp_a=FUTF9&b=3FTYUGLFSV748I467XYPLU5KZZOD5K&tp_b=3FTYUGLFSV748I467XYPLU5KZZOD5K&c=365799&tp_c=365799","heads":25,"tails":5,"studentIndex":22,"studentTrueHypers":{"a":1,"b":4},"studentGuess":0.7428571428571429,"delta":0.05714285714285716,"totalExamples":30,"bonusSoFar":0.3},{"rt":19161,"response":{"heads":"25","tails":"05"},"type":"response","condition":"seqNoFeedback","trueTheta":0.8,"classrooms":["A","B"],"studentTrueClassroom":"A","exampleSet":"second","trial_type":"survey-html-form","trial_index":181,"time_elapsed":2411440,"internal_node_id":"0.0-180.0-0.0","params":{"nStudents":24,"maxFlips":30,"completionMinutes":45,"basePay":8,"maxBonus":9,"perTrialBonus":0.5,"perTrialBonusThreshold":0.05,"exampleCost":0.01},"classroomParams":{"A":{"a":1,"b":4},"B":{"a":4,"b":1},"C":{"a":2,"b":8},"D":{"a":8,"b":2}},"conditions":["nonSeqFull","nonSeqPartial","seqNoFeedback","seqFeedback"],"classroomPairings":[["A","B"],["C","D"]],"coinWeights":[0.2,0.5,0.8],"subjectId":"A235DXY5FJN0IW","assignmentId":"3FTYUGLFSV748I467XYPLU5KZZOD5K","hitId":"3NI0WFPPI9246I5W92FX9A3E2GN605","url":"https://gershmanlab.com/experiments/alicia/teaching/experiment/?hitId=3NI0WFPPI9246I5W92FX9A3E2GN605&workerId=A235DXY5FJN0IW&assignmentId=3FTYUGLFSV748I467XYPLU5KZZOD5K&a=FUTF9&tp_a=FUTF9&b=3FTYUGLFSV748I467XYPLU5KZZOD5K&tp_b=3FTYUGLFSV748I467XYPLU5KZZOD5K&c=365799&tp_c=365799","firstResponseHeads":25,"firstResponseTails":5,"secondResponseHeads":25,"secondResponseTails":5,"totalHeads":50,"totalTails":10,"studentIndex":22,"studentTrueHypers":{"a":1,"b":4},"studentGuess":0.7846153846153846,"delta":0.015384615384615441,"bonus":0,"bonusSoFar":0.3,"totalExamples":60},{"rt":4545,"response":{"heads":"0","tails":"0"},"type":"response","condition":"nonSeqFull","trueTheta":0.2,"classrooms":["A","B"],"studentTrueClassroom":"A","exampleSet":"first","trial_type":"survey-html-form","trial_index":187,"time_elapsed":2506055,"internal_node_id":"0.0-186.0-0.0","params":{"nStudents":24,"maxFlips":30,"completionMinutes":45,"basePay":8,"maxBonus":9,"perTrialBonus":0.5,"perTrialBonusThreshold":0.05,"exampleCost":0.01},"classroomParams":{"A":{"a":1,"b":4},"B":{"a":4,"b":1},"C":{"a":2,"b":8},"D":{"a":8,"b":2}},"conditions":["nonSeqFull","nonSeqPartial","seqNoFeedback","seqFeedback"],"classroomPairings":[["A","B"],["C","D"]],"coinWeights":[0.2,0.5,0.8],"subjectId":"A235DXY5FJN0IW","assignmentId":"3FTYUGLFSV748I467XYPLU5KZZOD5K","hitId":"3NI0WFPPI9246I5W92FX9A3E2GN605","url":"https://gershmanlab.com/experiments/alicia/teaching/experiment/?hitId=3NI0WFPPI9246I5W92FX9A3E2GN605&workerId=A235DXY5FJN0IW&assignmentId=3FTYUGLFSV748I467XYPLU5KZZOD5K&a=FUTF9&tp_a=FUTF9&b=3FTYUGLFSV748I467XYPLU5KZZOD5K&tp_b=3FTYUGLFSV748I467XYPLU5KZZOD5K&c=365799&tp_c=365799","heads":0,"tails":0,"studentIndex":23,"studentTrueHypers":{"a":1,"b":4},"studentGuess":0.2,"delta":0,"totalExamples":0,"bonus":0.5,"bonusSoFar":0.8},{"rt":11015,"response":{"heads":"25","tails":"05"},"type":"response","condition":"nonSeqFull","trueTheta":0.2,"classrooms":["A","B"],"studentTrueClassroom":"A","exampleSet":"first","trial_type":"survey-html-form","trial_index":188,"time_elapsed":2517072,"internal_node_id":"0.0-186.1-0.1","params":{"nStudents":24,"maxFlips":30,"completionMinutes":45,"basePay":8,"maxBonus":9,"perTrialBonus":0.5,"perTrialBonusThreshold":0.05,"exampleCost":0.01},"classroomParams":{"A":{"a":1,"b":4},"B":{"a":4,"b":1},"C":{"a":2,"b":8},"D":{"a":8,"b":2}},"conditions":["nonSeqFull","nonSeqPartial","seqNoFeedback","seqFeedback"],"classroomPairings":[["A","B"],["C","D"]],"coinWeights":[0.2,0.5,0.8],"subjectId":"A235DXY5FJN0IW","assignmentId":"3FTYUGLFSV748I467XYPLU5KZZOD5K","hitId":"3NI0WFPPI9246I5W92FX9A3E2GN605","url":"https://gershmanlab.com/experiments/alicia/teaching/experiment/?hitId=3NI0WFPPI9246I5W92FX9A3E2GN605&workerId=A235DXY5FJN0IW&assignmentId=3FTYUGLFSV748I467XYPLU5KZZOD5K&a=FUTF9&tp_a=FUTF9&b=3FTYUGLFSV748I467XYPLU5KZZOD5K&tp_b=3FTYUGLFSV748I467XYPLU5KZZOD5K&c=365799&tp_c=365799","heads":25,"tails":5,"studentIndex":23,"studentTrueHypers":{"a":1,"b":4},"studentGuess":0.7428571428571429,"delta":0.5428571428571429,"totalExamples":30,"bonus":0,"bonusSoFar":0.8},{"rt":22113,"response":{"gender":"female","age":"28","understood":"yes","comments":""},"type":"response","trial_type":"survey-html-form","trial_index":192,"time_elapsed":2546543,"internal_node_id":"0.0-191.0","params":{"nStudents":24,"maxFlips":30,"completionMinutes":45,"basePay":8,"maxBonus":9,"perTrialBonus":0.5,"perTrialBonusThreshold":0.05,"exampleCost":0.01},"classroomParams":{"A":{"a":1,"b":4},"B":{"a":4,"b":1},"C":{"a":2,"b":8},"D":{"a":8,"b":2}},"conditions":["nonSeqFull","nonSeqPartial","seqNoFeedback","seqFeedback"],"classroomPairings":[["A","B"],["C","D"]],"coinWeights":[0.2,0.5,0.8],"subjectId":"A235DXY5FJN0IW","assignmentId":"3FTYUGLFSV748I467XYPLU5KZZOD5K","hitId":"3NI0WFPPI9246I5W92FX9A3E2GN605","url":"https://gershmanlab.com/experiments/alicia/teaching/experiment/?hitId=3NI0WFPPI9246I5W92FX9A3E2GN605&workerId=A235DXY5FJN0IW&assignmentId=3FTYUGLFSV748I467XYPLU5KZZOD5K&a=FUTF9&tp_a=FUTF9&b=3FTYUGLFSV748I467XYPLU5KZZOD5K&tp_b=3FTYUGLFSV748I467XYPLU5KZZOD5K&c=365799&tp_c=365799","totalBonus":0.8}]