[{"rt":44949,"response":{"heads":"2","tails":"1"},"type":"response","condition":"nonSeqPartial","trueTheta":0.5,"classrooms":["C","D"],"studentTrueClassroom":"D","exampleSet":"first","trial_type":"survey-html-form","trial_index":22,"time_elapsed":619777,"internal_node_id":"0.0-6.0-0.0","params":{"nStudents":24,"maxFlips":30,"completionMinutes":45,"basePay":8,"maxBonus":9,"perTrialBonus":0.5,"perTrialBonusThreshold":0.05,"exampleCost":0.01},"classroomParams":{"A":{"a":1,"b":4},"B":{"a":4,"b":1},"C":{"a":2,"b":8},"D":{"a":8,"b":2}},"conditions":["nonSeqFull","nonSeqPartial","seqNoFeedback","seqFeedback"],"classroomPairings":[["A","B"],["C","D"]],"coinWeights":[0.2,0.5,0.8],"subjectId":"A255A9FFZD8PQW","assignmentId":"3ZSY5X72NYXKH2TTUDP8ZPMFVVKRO9","hitId":"32TZXEA1OL6QYKM0MXQIQH2ABHN14I","url":"https://gershmanlab.com/experiments/alicia/teaching/experiment/?hitId=32TZXEA1OL6QYKM0MXQIQH2ABHN14I&workerId=A255A9FFZD8PQW&assignmentId=3ZSY5X72NYXKH2TTUDP8ZPMFVVKRO9&a=25SZ9&tp_a=25SZ9&b=3ZSY5X72NYXKH2TTUDP8ZPMFVVKRO9&tp_b=3ZSY5X72NYXKH2TTUDP8ZPMFVVKRO9&c=365799&tp_c=365799","heads":2,"tails":1,"studentIndex":0,"studentTrueHypers":{"a":8,"b":2},"studentGuess":0.7692307692307693,"delta":0.2692307692307693,"totalExamples":3,"bonus":0,"bonusSoFar":0},{"rt":11102,"response":{"heads":"1","tails":"2"},"type":"response","condition":"seqFeedback","trueTheta":0.2,"classrooms":["C","D"],"studentTrueClassroom":"C","exampleSet":"first","trial_type":"survey-html-form","trial_index":28,"time_elapsed":645961,"internal_node_id":"0.0-12.0-0.0","params":{"nStudents":24,"maxFlips":30,"completionMinutes":45,"basePay":8,"maxBonus":9,"perTrialBonus":0.5,"perTrialBonusThreshold":0.05,"exampleCost":0.01},"classroomParams":{"A":{"a":1,"b":4},"B":{"a":4,"b":1},"C":{"a":2,"b":8},"D":{"a":8,"b":2}},"conditions":["nonSeqFull","nonSeqPartial","seqNoFeedback","seqFeedback"],"classroomPairings":[["A","B"],["C","D"]],"coinWeights":[0.2,0.5,0.8],"subjectId":"A255A9FFZD8PQW","assignmentId":"3ZSY5X72NYXKH2TTUDP8ZPMFVVKRO9","hitId":"32TZXEA1OL6QYKM0MXQIQH2ABHN14I","url":"https://gershmanlab.com/experiments/alicia/teaching/experiment/?hitId=32TZXEA1OL6QYKM0MXQIQH2ABHN14I&workerId=A255A9FFZD8PQW&assignmentId=3ZSY5X72NYXKH2TTUDP8ZPMFVVKRO9&a=25SZ9&tp_a=25SZ9&b=3ZSY5X72NYXKH2TTUDP8ZPMFVVKRO9&tp_b=3ZSY5X72NYXKH2TTUDP8ZPMFVVKRO9&c=365799&tp_c=365799","heads":1,"tails":2,"studentIndex":1,"studentTrueHypers":{"a":2,"b":8},"studentGuess":0.23076923076923078,"delta":0.03076923076923077,"totalExamples":3,"bonusSoFar":0},{"rt":15685,"response":{"heads":"2","tails":"1"},"type":"response","condition":"seqFeedback","trueTheta":0.2,"classrooms":["C","D"],"studentTrueClassroom":"C","exampleSet":"second","trial_type":"survey-html-form","trial_index":32,"time_elapsed":677911,"internal_node_id":"0.0-16.0-0.0","params":{"nStudents":24,"maxFlips":30,"completionMinutes":45,"basePay":8,"maxBonus":9,"perTrialBonus":0.5,"perTrialBonusThreshold":0.05,"exampleCost":0.01},"classroomParams":{"A":{"a":1,"b":4},"B":{"a":4,"b":1},"C":{"a":2,"b":8},"D":{"a":8,"b":2}},"conditions":["nonSeqFull","nonSeqPartial","seqNoFeedback","seqFeedback"],"classroomPairings":[["A","B"],["C","D"]],"coinWeights":[0.2,0.5,0.8],"subjectId":"A255A9FFZD8PQW","assignmentId":"3ZSY5X72NYXKH2TTUDP8ZPMFVVKRO9","hitId":"32TZXEA1OL6QYKM0MXQIQH2ABHN14I","url":"https://gershmanlab.com/experiments/alicia/teaching/experiment/?hitId=32TZXEA1OL6QYKM0MXQIQH2ABHN14I&workerId=A255A9FFZD8PQW&assignmentId=3ZSY5X72NYXKH2TTUDP8ZPMFVVKRO9&a=25SZ9&tp_a=25SZ9&b=3ZSY5X72NYXKH2TTUDP8ZPMFVVKRO9&tp_b=3ZSY5X72NYXKH2TTUDP8ZPMFVVKRO9&c=365799&tp_c=365799","firstResponseHeads":1,"firstResponseTails":2,"secondResponseHeads":2,"secondResponseTails":1,"totalHeads":3,"totalTails":3,"studentIndex":1,"studentTrueHypers":{"a":2,"b":8},"studentGuess":0.3125,"delta":0.11249999999999999,"bonus":0,"bonusSoFar":0,"totalExamples":6},{"rt":8125,"response":{"heads":"8","tails":"10"},"type":"response","condition":"nonSeqPartial","trueTheta":0.8,"classrooms":["A","B"],"studentTrueClassroom":"A","exampleSet":"first","trial_type":"survey-html-form","trial_index":38,"time_elapsed":701760,"internal_node_id":"0.0-22.0-0.0","params":{"nStudents":24,"maxFlips":30,"completionMinutes":45,"basePay":8,"maxBonus":9,"perTrialBonus":0.5,"perTrialBonusThreshold":0.05,"exampleCost":0.01},"classroomParams":{"A":{"a":1,"b":4},"B":{"a":4,"b":1},"C":{"a":2,"b":8},"D":{"a":8,"b":2}},"conditions":["nonSeqFull","nonSeqPartial","seqNoFeedback","seqFeedback"],"classroomPairings":[["A","B"],["C","D"]],"coinWeights":[0.2,0.5,0.8],"subjectId":"A255A9FFZD8PQW","assignmentId":"3ZSY5X72NYXKH2TTUDP8ZPMFVVKRO9","hitId":"32TZXEA1OL6QYKM0MXQIQH2ABHN14I","url":"https://gershmanlab.com/experiments/alicia/teaching/experiment/?hitId=32TZXEA1OL6QYKM0MXQIQH2ABHN14I&workerId=A255A9FFZD8PQW&assignmentId=3ZSY5X72NYXKH2TTUDP8ZPMFVVKRO9&a=25SZ9&tp_a=25SZ9&b=3ZSY5X72NYXKH2TTUDP8ZPMFVVKRO9&tp_b=3ZSY5X72NYXKH2TTUDP8ZPMFVVKRO9&c=365799&tp_c=365799","heads":8,"tails":10,"studentIndex":2,"studentTrueHypers":{"a":1,"b":4},"studentGuess":0.391304347826087,"delta":0.40869565217391307,"totalExamples":18,"bonus":0,"bonusSoFar":0},{"rt":6929,"response":{"heads":"5","tails":"5"},"type":"response","condition":"seqFeedback","trueTheta":0.5,"classrooms":["A","B"],"studentTrueClassroom":"B","exampleSet":"first","trial_type":"survey-html-form","trial_index":44,"time_elapsed":721644,"internal_node_id":"0.0-28.0-0.0","params":{"nStudents":24,"maxFlips":30,"completionMinutes":45,"basePay":8,"maxBonus":9,"perTrialBonus":0.5,"perTrialBonusThreshold":0.05,"exampleCost":0.01},"classroomParams":{"A":{"a":1,"b":4},"B":{"a":4,"b":1},"C":{"a":2,"b":8},"D":{"a":8,"b":2}},"conditions":["nonSeqFull","nonSeqPartial","seqNoFeedback","seqFeedback"],"classroomPairings":[["A","B"],["C","D"]],"coinWeights":[0.2,0.5,0.8],"subjectId":"A255A9FFZD8PQW","assignmentId":"3ZSY5X72NYXKH2TTUDP8ZPMFVVKRO9","hitId":"32TZXEA1OL6QYKM0MXQIQH2ABHN14I","url":"https://gershmanlab.com/experiments/alicia/teaching/experiment/?hitId=32TZXEA1OL6QYKM0MXQIQH2ABHN14I&workerId=A255A9FFZD8PQW&assignmentId=3ZSY5X72NYXKH2TTUDP8ZPMFVVKRO9&a=25SZ9&tp_a=25SZ9&b=3ZSY5X72NYXKH2TTUDP8ZPMFVVKRO9&tp_b=3ZSY5X72NYXKH2TTUDP8ZPMFVVKRO9&c=365799&tp_c=365799","heads":5,"tails":5,"studentIndex":3,"studentTrueHypers":{"a":4,"b":1},"studentGuess":0.6,"delta":0.09999999999999998,"totalExamples":10,"bonusSoFar":0},{"rt":8094,"response":{"heads":"3","tails":"3"},"type":"response","condition":"seqFeedback","trueTheta":0.5,"classrooms":["A","B"],"studentTrueClassroom":"B","exampleSet":"second","trial_type":"survey-html-form","trial_index":48,"time_elapsed":739782,"internal_node_id":"0.0-32.0-0.0","params":{"nStudents":24,"maxFlips":30,"completionMinutes":45,"basePay":8,"maxBonus":9,"perTrialBonus":0.5,"perTrialBonusThreshold":0.05,"exampleCost":0.01},"classroomParams":{"A":{"a":1,"b":4},"B":{"a":4,"b":1},"C":{"a":2,"b":8},"D":{"a":8,"b":2}},"conditions":["nonSeqFull","nonSeqPartial","seqNoFeedback","seqFeedback"],"classroomPairings":[["A","B"],["C","D"]],"coinWeights":[0.2,0.5,0.8],"subjectId":"A255A9FFZD8PQW","assignmentId":"3ZSY5X72NYXKH2TTUDP8ZPMFVVKRO9","hitId":"32TZXEA1OL6QYKM0MXQIQH2ABHN14I","url":"https://gershmanlab.com/experiments/alicia/teaching/experiment/?hitId=32TZXEA1OL6QYKM0MXQIQH2ABHN14I&workerId=A255A9FFZD8PQW&assignmentId=3ZSY5X72NYXKH2TTUDP8ZPMFVVKRO9&a=25SZ9&tp_a=25SZ9&b=3ZSY5X72NYXKH2TTUDP8ZPMFVVKRO9&tp_b=3ZSY5X72NYXKH2TTUDP8ZPMFVVKRO9&c=365799&tp_c=365799","firstResponseHeads":5,"firstResponseTails":5,"secondResponseHeads":3,"secondResponseTails":3,"totalHeads":8,"totalTails":8,"studentIndex":3,"studentTrueHypers":{"a":4,"b":1},"studentGuess":0.5714285714285714,"delta":0.0714285714285714,"bonus":0,"bonusSoFar":0,"totalExamples":16},{"rt":9610,"response":{"heads":"2","tails":"1"},"type":"response","condition":"nonSeqFull","trueTheta":0.2,"classrooms":["C","D"],"studentTrueClassroom":"D","exampleSet":"first","trial_type":"survey-html-form","trial_index":54,"time_elapsed":764955,"internal_node_id":"0.0-38.0-0.0","params":{"nStudents":24,"maxFlips":30,"completionMinutes":45,"basePay":8,"maxBonus":9,"perTrialBonus":0.5,"perTrialBonusThreshold":0.05,"exampleCost":0.01},"classroomParams":{"A":{"a":1,"b":4},"B":{"a":4,"b":1},"C":{"a":2,"b":8},"D":{"a":8,"b":2}},"conditions":["nonSeqFull","nonSeqPartial","seqNoFeedback","seqFeedback"],"classroomPairings":[["A","B"],["C","D"]],"coinWeights":[0.2,0.5,0.8],"subjectId":"A255A9FFZD8PQW","assignmentId":"3ZSY5X72NYXKH2TTUDP8ZPMFVVKRO9","hitId":"32TZXEA1OL6QYKM0MXQIQH2ABHN14I","url":"https://gershmanlab.com/experiments/alicia/teaching/experiment/?hitId=32TZXEA1OL6QYKM0MXQIQH2ABHN14I&workerId=A255A9FFZD8PQW&assignmentId=3ZSY5X72NYXKH2TTUDP8ZPMFVVKRO9&a=25SZ9&tp_a=25SZ9&b=3ZSY5X72NYXKH2TTUDP8ZPMFVVKRO9&tp_b=3ZSY5X72NYXKH2TTUDP8ZPMFVVKRO9&c=365799&tp_c=365799","heads":2,"tails":1,"studentIndex":4,"studentTrueHypers":{"a":8,"b":2},"studentGuess":0.7692307692307693,"delta":0.5692307692307692,"totalExamples":3,"bonus":0,"bonusSoFar":0},{"rt":10011,"response":{"heads":"8","tails":"10"},"type":"response","condition":"nonSeqFull","trueTheta":0.8,"classrooms":["A","B"],"studentTrueClassroom":"B","exampleSet":"first","trial_type":"survey-html-form","trial_index":60,"time_elapsed":787280,"internal_node_id":"0.0-44.0-0.0","params":{"nStudents":24,"maxFlips":30,"completionMinutes":45,"basePay":8,"maxBonus":9,"perTrialBonus":0.5,"perTrialBonusThreshold":0.05,"exampleCost":0.01},"classroomParams":{"A":{"a":1,"b":4},"B":{"a":4,"b":1},"C":{"a":2,"b":8},"D":{"a":8,"b":2}},"conditions":["nonSeqFull","nonSeqPartial","seqNoFeedback","seqFeedback"],"classroomPairings":[["A","B"],["C","D"]],"coinWeights":[0.2,0.5,0.8],"subjectId":"A255A9FFZD8PQW","assignmentId":"3ZSY5X72NYXKH2TTUDP8ZPMFVVKRO9","hitId":"32TZXEA1OL6QYKM0MXQIQH2ABHN14I","url":"https://gershmanlab.com/experiments/alicia/teaching/experiment/?hitId=32TZXEA1OL6QYKM0MXQIQH2ABHN14I&workerId=A255A9FFZD8PQW&assignmentId=3ZSY5X72NYXKH2TTUDP8ZPMFVVKRO9&a=25SZ9&tp_a=25SZ9&b=3ZSY5X72NYXKH2TTUDP8ZPMFVVKRO9&tp_b=3ZSY5X72NYXKH2TTUDP8ZPMFVVKRO9&c=365799&tp_c=365799","heads":8,"tails":10,"studentIndex":5,"studentTrueHypers":{"a":4,"b":1},"studentGuess":0.5217391304347826,"delta":0.27826086956521745,"totalExamples":18,"bonus":0,"bonusSoFar":0},{"rt":8193,"response":{"heads":"5","tails":"5"},"type":"response","condition":"seqNoFeedback","trueTheta":0.5,"classrooms":["C","D"],"studentTrueClassroom":"D","exampleSet":"first","trial_type":"survey-html-form","trial_index":66,"time_elapsed":808464,"internal_node_id":"0.0-50.0-0.0","params":{"nStudents":24,"maxFlips":30,"completionMinutes":45,"basePay":8,"maxBonus":9,"perTrialBonus":0.5,"perTrialBonusThreshold":0.05,"exampleCost":0.01},"classroomParams":{"A":{"a":1,"b":4},"B":{"a":4,"b":1},"C":{"a":2,"b":8},"D":{"a":8,"b":2}},"conditions":["nonSeqFull","nonSeqPartial","seqNoFeedback","seqFeedback"],"classroomPairings":[["A","B"],["C","D"]],"coinWeights":[0.2,0.5,0.8],"subjectId":"A255A9FFZD8PQW","assignmentId":"3ZSY5X72NYXKH2TTUDP8ZPMFVVKRO9","hitId":"32TZXEA1OL6QYKM0MXQIQH2ABHN14I","url":"https://gershmanlab.com/experiments/alicia/teaching/experiment/?hitId=32TZXEA1OL6QYKM0MXQIQH2ABHN14I&workerId=A255A9FFZD8PQW&assignmentId=3ZSY5X72NYXKH2TTUDP8ZPMFVVKRO9&a=25SZ9&tp_a=25SZ9&b=3ZSY5X72NYXKH2TTUDP8ZPMFVVKRO9&tp_b=3ZSY5X72NYXKH2TTUDP8ZPMFVVKRO9&c=365799&tp_c=365799","heads":5,"tails":5,"studentIndex":6,"studentTrueHypers":{"a":8,"b":2},"studentGuess":0.65,"delta":0.15000000000000002,"totalExamples":10,"bonusSoFar":0},{"rt":13510,"response":{"heads":"5","tails":"10"},"type":"response","condition":"seqNoFeedback","trueTheta":0.5,"classrooms":["C","D"],"studentTrueClassroom":"D","exampleSet":"second","trial_type":"survey-html-form","trial_index":69,"time_elapsed":829494,"internal_node_id":"0.0-53.0-0.0","params":{"nStudents":24,"maxFlips":30,"completionMinutes":45,"basePay":8,"maxBonus":9,"perTrialBonus":0.5,"perTrialBonusThreshold":0.05,"exampleCost":0.01},"classroomParams":{"A":{"a":1,"b":4},"B":{"a":4,"b":1},"C":{"a":2,"b":8},"D":{"a":8,"b":2}},"conditions":["nonSeqFull","nonSeqPartial","seqNoFeedback","seqFeedback"],"classroomPairings":[["A","B"],["C","D"]],"coinWeights":[0.2,0.5,0.8],"subjectId":"A255A9FFZD8PQW","assignmentId":"3ZSY5X72NYXKH2TTUDP8ZPMFVVKRO9","hitId":"32TZXEA1OL6QYKM0MXQIQH2ABHN14I","url":"https://gershmanlab.com/experiments/alicia/teaching/experiment/?hitId=32TZXEA1OL6QYKM0MXQIQH2ABHN14I&workerId=A255A9FFZD8PQW&assignmentId=3ZSY5X72NYXKH2TTUDP8ZPMFVVKRO9&a=25SZ9&tp_a=25SZ9&b=3ZSY5X72NYXKH2TTUDP8ZPMFVVKRO9&tp_b=3ZSY5X72NYXKH2TTUDP8ZPMFVVKRO9&c=365799&tp_c=365799","firstResponseHeads":5,"firstResponseTails":5,"secondResponseHeads":5,"secondResponseTails":10,"totalHeads":10,"totalTails":15,"studentIndex":6,"studentTrueHypers":{"a":8,"b":2},"studentGuess":0.5142857142857142,"delta":0.014285714285714235,"bonus":0.25,"bonusSoFar":0.25,"totalExamples":25},{"rt":5779,"response":{"heads":"8","tails":"10"},"type":"response","condition":"seqNoFeedback","trueTheta":0.8,"classrooms":["A","B"],"studentTrueClassroom":"B","exampleSet":"first","trial_type":"survey-html-form","trial_index":75,"time_elapsed":851688,"internal_node_id":"0.0-59.0-0.0","params":{"nStudents":24,"maxFlips":30,"completionMinutes":45,"basePay":8,"maxBonus":9,"perTrialBonus":0.5,"perTrialBonusThreshold":0.05,"exampleCost":0.01},"classroomParams":{"A":{"a":1,"b":4},"B":{"a":4,"b":1},"C":{"a":2,"b":8},"D":{"a":8,"b":2}},"conditions":["nonSeqFull","nonSeqPartial","seqNoFeedback","seqFeedback"],"classroomPairings":[["A","B"],["C","D"]],"coinWeights":[0.2,0.5,0.8],"subjectId":"A255A9FFZD8PQW","assignmentId":"3ZSY5X72NYXKH2TTUDP8ZPMFVVKRO9","hitId":"32TZXEA1OL6QYKM0MXQIQH2ABHN14I","url":"https://gershmanlab.com/experiments/alicia/teaching/experiment/?hitId=32TZXEA1OL6QYKM0MXQIQH2ABHN14I&workerId=A255A9FFZD8PQW&assignmentId=3ZSY5X72NYXKH2TTUDP8ZPMFVVKRO9&a=25SZ9&tp_a=25SZ9&b=3ZSY5X72NYXKH2TTUDP8ZPMFVVKRO9&tp_b=3ZSY5X72NYXKH2TTUDP8ZPMFVVKRO9&c=365799&tp_c=365799","heads":8,"tails":10,"studentIndex":7,"studentTrueHypers":{"a":4,"b":1},"studentGuess":0.5217391304347826,"delta":0.27826086956521745,"totalExamples":18,"bonusSoFar":0.25},{"rt":6283,"response":{"heads":"10","tails":"8"},"type":"response","condition":"seqNoFeedback","trueTheta":0.8,"classrooms":["A","B"],"studentTrueClassroom":"B","exampleSet":"second","trial_type":"survey-html-form","trial_index":78,"time_elapsed":864985,"internal_node_id":"0.0-62.0-0.0","params":{"nStudents":24,"maxFlips":30,"completionMinutes":45,"basePay":8,"maxBonus":9,"perTrialBonus":0.5,"perTrialBonusThreshold":0.05,"exampleCost":0.01},"classroomParams":{"A":{"a":1,"b":4},"B":{"a":4,"b":1},"C":{"a":2,"b":8},"D":{"a":8,"b":2}},"conditions":["nonSeqFull","nonSeqPartial","seqNoFeedback","seqFeedback"],"classroomPairings":[["A","B"],["C","D"]],"coinWeights":[0.2,0.5,0.8],"subjectId":"A255A9FFZD8PQW","assignmentId":"3ZSY5X72NYXKH2TTUDP8ZPMFVVKRO9","hitId":"32TZXEA1OL6QYKM0MXQIQH2ABHN14I","url":"https://gershmanlab.com/experiments/alicia/teaching/experiment/?hitId=32TZXEA1OL6QYKM0MXQIQH2ABHN14I&workerId=A255A9FFZD8PQW&assignmentId=3ZSY5X72NYXKH2TTUDP8ZPMFVVKRO9&a=25SZ9&tp_a=25SZ9&b=3ZSY5X72NYXKH2TTUDP8ZPMFVVKRO9&tp_b=3ZSY5X72NYXKH2TTUDP8ZPMFVVKRO9&c=365799&tp_c=365799","firstResponseHeads":8,"firstResponseTails":10,"secondResponseHeads":10,"secondResponseTails":8,"totalHeads":18,"totalTails":18,"studentIndex":7,"studentTrueHypers":{"a":4,"b":1},"studentGuess":0.5365853658536586,"delta":0.2634146341463415,"bonus":0,"bonusSoFar":0.25,"totalExamples":36},{"rt":8165,"response":{"heads":"2","tails":"10"},"type":"response","condition":"seqNoFeedback","trueTheta":0.2,"classrooms":["C","D"],"studentTrueClassroom":"D","exampleSet":"first","trial_type":"survey-html-form","trial_index":84,"time_elapsed":890192,"internal_node_id":"0.0-68.0-0.0","params":{"nStudents":24,"maxFlips":30,"completionMinutes":45,"basePay":8,"maxBonus":9,"perTrialBonus":0.5,"perTrialBonusThreshold":0.05,"exampleCost":0.01},"classroomParams":{"A":{"a":1,"b":4},"B":{"a":4,"b":1},"C":{"a":2,"b":8},"D":{"a":8,"b":2}},"conditions":["nonSeqFull","nonSeqPartial","seqNoFeedback","seqFeedback"],"classroomPairings":[["A","B"],["C","D"]],"coinWeights":[0.2,0.5,0.8],"subjectId":"A255A9FFZD8PQW","assignmentId":"3ZSY5X72NYXKH2TTUDP8ZPMFVVKRO9","hitId":"32TZXEA1OL6QYKM0MXQIQH2ABHN14I","url":"https://gershmanlab.com/experiments/alicia/teaching/experiment/?hitId=32TZXEA1OL6QYKM0MXQIQH2ABHN14I&workerId=A255A9FFZD8PQW&assignmentId=3ZSY5X72NYXKH2TTUDP8ZPMFVVKRO9&a=25SZ9&tp_a=25SZ9&b=3ZSY5X72NYXKH2TTUDP8ZPMFVVKRO9&tp_b=3ZSY5X72NYXKH2TTUDP8ZPMFVVKRO9&c=365799&tp_c=365799","heads":2,"tails":10,"studentIndex":8,"studentTrueHypers":{"a":8,"b":2},"studentGuess":0.45454545454545453,"delta":0.2545454545454545,"totalExamples":12,"bonusSoFar":0.25},{"rt":6145,"response":{"heads":"10","tails":"2"},"type":"response","condition":"seqNoFeedback","trueTheta":0.2,"classrooms":["C","D"],"studentTrueClassroom":"D","exampleSet":"second","trial_type":"survey-html-form","trial_index":87,"time_elapsed":902364,"internal_node_id":"0.0-71.0-0.0","params":{"nStudents":24,"maxFlips":30,"completionMinutes":45,"basePay":8,"maxBonus":9,"perTrialBonus":0.5,"perTrialBonusThreshold":0.05,"exampleCost":0.01},"classroomParams":{"A":{"a":1,"b":4},"B":{"a":4,"b":1},"C":{"a":2,"b":8},"D":{"a":8,"b":2}},"conditions":["nonSeqFull","nonSeqPartial","seqNoFeedback","seqFeedback"],"classroomPairings":[["A","B"],["C","D"]],"coinWeights":[0.2,0.5,0.8],"subjectId":"A255A9FFZD8PQW","assignmentId":"3ZSY5X72NYXKH2TTUDP8ZPMFVVKRO9","hitId":"32TZXEA1OL6QYKM0MXQIQH2ABHN14I","url":"https://gershmanlab.com/experiments/alicia/teaching/experiment/?hitId=32TZXEA1OL6QYKM0MXQIQH2ABHN14I&workerId=A255A9FFZD8PQW&assignmentId=3ZSY5X72NYXKH2TTUDP8ZPMFVVKRO9&a=25SZ9&tp_a=25SZ9&b=3ZSY5X72NYXKH2TTUDP8ZPMFVVKRO9&tp_b=3ZSY5X72NYXKH2TTUDP8ZPMFVVKRO9&c=365799&tp_c=365799","firstResponseHeads":2,"firstResponseTails":10,"secondResponseHeads":10,"secondResponseTails":2,"totalHeads":12,"totalTails":12,"studentIndex":8,"studentTrueHypers":{"a":8,"b":2},"studentGuess":0.5882352941176471,"delta":0.38823529411764707,"bonus":0,"bonusSoFar":0.25,"totalExamples":24},{"rt":5123,"response":{"heads":"8","tails":"10"},"type":"response","condition":"nonSeqFull","trueTheta":0.8,"classrooms":["C","D"],"studentTrueClassroom":"C","exampleSet":"first","trial_type":"survey-html-form","trial_index":93,"time_elapsed":920673,"internal_node_id":"0.0-77.0-0.0","params":{"nStudents":24,"maxFlips":30,"completionMinutes":45,"basePay":8,"maxBonus":9,"perTrialBonus":0.5,"perTrialBonusThreshold":0.05,"exampleCost":0.01},"classroomParams":{"A":{"a":1,"b":4},"B":{"a":4,"b":1},"C":{"a":2,"b":8},"D":{"a":8,"b":2}},"conditions":["nonSeqFull","nonSeqPartial","seqNoFeedback","seqFeedback"],"classroomPairings":[["A","B"],["C","D"]],"coinWeights":[0.2,0.5,0.8],"subjectId":"A255A9FFZD8PQW","assignmentId":"3ZSY5X72NYXKH2TTUDP8ZPMFVVKRO9","hitId":"32TZXEA1OL6QYKM0MXQIQH2ABHN14I","url":"https://gershmanlab.com/experiments/alicia/teaching/experiment/?hitId=32TZXEA1OL6QYKM0MXQIQH2ABHN14I&workerId=A255A9FFZD8PQW&assignmentId=3ZSY5X72NYXKH2TTUDP8ZPMFVVKRO9&a=25SZ9&tp_a=25SZ9&b=3ZSY5X72NYXKH2TTUDP8ZPMFVVKRO9&tp_b=3ZSY5X72NYXKH2TTUDP8ZPMFVVKRO9&c=365799&tp_c=365799","heads":8,"tails":10,"studentIndex":9,"studentTrueHypers":{"a":2,"b":8},"studentGuess":0.35714285714285715,"delta":0.4428571428571429,"totalExamples":18,"bonus":0,"bonusSoFar":0.25},{"rt":4470,"response":{"heads":"5","tails":"5"},"type":"response","condition":"seqNoFeedback","trueTheta":0.5,"classrooms":["A","B"],"studentTrueClassroom":"A","exampleSet":"first","trial_type":"survey-html-form","trial_index":99,"time_elapsed":939266,"internal_node_id":"0.0-83.0-0.0","params":{"nStudents":24,"maxFlips":30,"completionMinutes":45,"basePay":8,"maxBonus":9,"perTrialBonus":0.5,"perTrialBonusThreshold":0.05,"exampleCost":0.01},"classroomParams":{"A":{"a":1,"b":4},"B":{"a":4,"b":1},"C":{"a":2,"b":8},"D":{"a":8,"b":2}},"conditions":["nonSeqFull","nonSeqPartial","seqNoFeedback","seqFeedback"],"classroomPairings":[["A","B"],["C","D"]],"coinWeights":[0.2,0.5,0.8],"subjectId":"A255A9FFZD8PQW","assignmentId":"3ZSY5X72NYXKH2TTUDP8ZPMFVVKRO9","hitId":"32TZXEA1OL6QYKM0MXQIQH2ABHN14I","url":"https://gershmanlab.com/experiments/alicia/teaching/experiment/?hitId=32TZXEA1OL6QYKM0MXQIQH2ABHN14I&workerId=A255A9FFZD8PQW&assignmentId=3ZSY5X72NYXKH2TTUDP8ZPMFVVKRO9&a=25SZ9&tp_a=25SZ9&b=3ZSY5X72NYXKH2TTUDP8ZPMFVVKRO9&tp_b=3ZSY5X72NYXKH2TTUDP8ZPMFVVKRO9&c=365799&tp_c=365799","heads":5,"tails":5,"studentIndex":10,"studentTrueHypers":{"a":1,"b":4},"studentGuess":0.4,"delta":0.09999999999999998,"totalExamples":10,"bonusSoFar":0.25},{"rt":7535,"response":{"heads":"10","tails":"10"},"type":"response","condition":"seqNoFeedback","trueTheta":0.5,"classrooms":["A","B"],"studentTrueClassroom":"A","exampleSet":"second","trial_type":"survey-html-form","trial_index":102,"time_elapsed":954325,"internal_node_id":"0.0-86.0-0.0","params":{"nStudents":24,"maxFlips":30,"completionMinutes":45,"basePay":8,"maxBonus":9,"perTrialBonus":0.5,"perTrialBonusThreshold":0.05,"exampleCost":0.01},"classroomParams":{"A":{"a":1,"b":4},"B":{"a":4,"b":1},"C":{"a":2,"b":8},"D":{"a":8,"b":2}},"conditions":["nonSeqFull","nonSeqPartial","seqNoFeedback","seqFeedback"],"classroomPairings":[["A","B"],["C","D"]],"coinWeights":[0.2,0.5,0.8],"subjectId":"A255A9FFZD8PQW","assignmentId":"3ZSY5X72NYXKH2TTUDP8ZPMFVVKRO9","hitId":"32TZXEA1OL6QYKM0MXQIQH2ABHN14I","url":"https://gershmanlab.com/experiments/alicia/teaching/experiment/?hitId=32TZXEA1OL6QYKM0MXQIQH2ABHN14I&workerId=A255A9FFZD8PQW&assignmentId=3ZSY5X72NYXKH2TTUDP8ZPMFVVKRO9&a=25SZ9&tp_a=25SZ9&b=3ZSY5X72NYXKH2TTUDP8ZPMFVVKRO9&tp_b=3ZSY5X72NYXKH2TTUDP8ZPMFVVKRO9&c=365799&tp_c=365799","firstResponseHeads":5,"firstResponseTails":5,"secondResponseHeads":10,"secondResponseTails":10,"totalHeads":15,"totalTails":15,"studentIndex":10,"studentTrueHypers":{"a":1,"b":4},"studentGuess":0.45714285714285713,"delta":0.04285714285714287,"bonus":0.2,"bonusSoFar":0.45,"totalExamples":30},{"rt":5547,"response":{"heads":"12","tails":"10"},"type":"response","condition":"seqFeedback","trueTheta":0.8,"classrooms":["C","D"],"studentTrueClassroom":"D","exampleSet":"first","trial_type":"survey-html-form","trial_index":108,"time_elapsed":975258,"internal_node_id":"0.0-92.0-0.0","params":{"nStudents":24,"maxFlips":30,"completionMinutes":45,"basePay":8,"maxBonus":9,"perTrialBonus":0.5,"perTrialBonusThreshold":0.05,"exampleCost":0.01},"classroomParams":{"A":{"a":1,"b":4},"B":{"a":4,"b":1},"C":{"a":2,"b":8},"D":{"a":8,"b":2}},"conditions":["nonSeqFull","nonSeqPartial","seqNoFeedback","seqFeedback"],"classroomPairings":[["A","B"],["C","D"]],"coinWeights":[0.2,0.5,0.8],"subjectId":"A255A9FFZD8PQW","assignmentId":"3ZSY5X72NYXKH2TTUDP8ZPMFVVKRO9","hitId":"32TZXEA1OL6QYKM0MXQIQH2ABHN14I","url":"https://gershmanlab.com/experiments/alicia/teaching/experiment/?hitId=32TZXEA1OL6QYKM0MXQIQH2ABHN14I&workerId=A255A9FFZD8PQW&assignmentId=3ZSY5X72NYXKH2TTUDP8ZPMFVVKRO9&a=25SZ9&tp_a=25SZ9&b=3ZSY5X72NYXKH2TTUDP8ZPMFVVKRO9&tp_b=3ZSY5X72NYXKH2TTUDP8ZPMFVVKRO9&c=365799&tp_c=365799","heads":12,"tails":10,"studentIndex":11,"studentTrueHypers":{"a":8,"b":2},"studentGuess":0.625,"delta":0.17500000000000004,"totalExamples":22,"bonusSoFar":0.45},{"rt":11353,"response":{"heads":"12","tails":"8"},"type":"response","condition":"seqFeedback","trueTheta":0.8,"classrooms":["C","D"],"studentTrueClassroom":"D","exampleSet":"second","trial_type":"survey-html-form","trial_index":112,"time_elapsed":994936,"internal_node_id":"0.0-96.0-0.0","params":{"nStudents":24,"maxFlips":30,"completionMinutes":45,"basePay":8,"maxBonus":9,"perTrialBonus":0.5,"perTrialBonusThreshold":0.05,"exampleCost":0.01},"classroomParams":{"A":{"a":1,"b":4},"B":{"a":4,"b":1},"C":{"a":2,"b":8},"D":{"a":8,"b":2}},"conditions":["nonSeqFull","nonSeqPartial","seqNoFeedback","seqFeedback"],"classroomPairings":[["A","B"],["C","D"]],"coinWeights":[0.2,0.5,0.8],"subjectId":"A255A9FFZD8PQW","assignmentId":"3ZSY5X72NYXKH2TTUDP8ZPMFVVKRO9","hitId":"32TZXEA1OL6QYKM0MXQIQH2ABHN14I","url":"https://gershmanlab.com/experiments/alicia/teaching/experiment/?hitId=32TZXEA1OL6QYKM0MXQIQH2ABHN14I&workerId=A255A9FFZD8PQW&assignmentId=3ZSY5X72NYXKH2TTUDP8ZPMFVVKRO9&a=25SZ9&tp_a=25SZ9&b=3ZSY5X72NYXKH2TTUDP8ZPMFVVKRO9&tp_b=3ZSY5X72NYXKH2TTUDP8ZPMFVVKRO9&c=365799&tp_c=365799","firstResponseHeads":12,"firstResponseTails":10,"secondResponseHeads":12,"secondResponseTails":8,"totalHeads":24,"totalTails":18,"studentIndex":11,"studentTrueHypers":{"a":8,"b":2},"studentGuess":0.6153846153846154,"delta":0.18461538461538463,"bonus":0,"bonusSoFar":0.45,"totalExamples":42},{"rt":6209,"response":{"heads":"12","tails":"10"},"type":"response","condition":"seqNoFeedback","trueTheta":0.8,"classrooms":["C","D"],"studentTrueClassroom":"C","exampleSet":"first","trial_type":"survey-html-form","trial_index":118,"time_elapsed":1016066,"internal_node_id":"0.0-102.0-0.0","params":{"nStudents":24,"maxFlips":30,"completionMinutes":45,"basePay":8,"maxBonus":9,"perTrialBonus":0.5,"perTrialBonusThreshold":0.05,"exampleCost":0.01},"classroomParams":{"A":{"a":1,"b":4},"B":{"a":4,"b":1},"C":{"a":2,"b":8},"D":{"a":8,"b":2}},"conditions":["nonSeqFull","nonSeqPartial","seqNoFeedback","seqFeedback"],"classroomPairings":[["A","B"],["C","D"]],"coinWeights":[0.2,0.5,0.8],"subjectId":"A255A9FFZD8PQW","assignmentId":"3ZSY5X72NYXKH2TTUDP8ZPMFVVKRO9","hitId":"32TZXEA1OL6QYKM0MXQIQH2ABHN14I","url":"https://gershmanlab.com/experiments/alicia/teaching/experiment/?hitId=32TZXEA1OL6QYKM0MXQIQH2ABHN14I&workerId=A255A9FFZD8PQW&assignmentId=3ZSY5X72NYXKH2TTUDP8ZPMFVVKRO9&a=25SZ9&tp_a=25SZ9&b=3ZSY5X72NYXKH2TTUDP8ZPMFVVKRO9&tp_b=3ZSY5X72NYXKH2TTUDP8ZPMFVVKRO9&c=365799&tp_c=365799","heads":12,"tails":10,"studentIndex":12,"studentTrueHypers":{"a":2,"b":8},"studentGuess":0.4375,"delta":0.36250000000000004,"totalExamples":22,"bonusSoFar":0.45},{"rt":8089,"response":{"heads":"18","tails":"10"},"type":"response","condition":"seqNoFeedback","trueTheta":0.8,"classrooms":["C","D"],"studentTrueClassroom":"C","exampleSet":"second","trial_type":"survey-html-form","trial_index":121,"time_elapsed":1031918,"internal_node_id":"0.0-105.0-0.0","params":{"nStudents":24,"maxFlips":30,"completionMinutes":45,"basePay":8,"maxBonus":9,"perTrialBonus":0.5,"perTrialBonusThreshold":0.05,"exampleCost":0.01},"classroomParams":{"A":{"a":1,"b":4},"B":{"a":4,"b":1},"C":{"a":2,"b":8},"D":{"a":8,"b":2}},"conditions":["nonSeqFull","nonSeqPartial","seqNoFeedback","seqFeedback"],"classroomPairings":[["A","B"],["C","D"]],"coinWeights":[0.2,0.5,0.8],"subjectId":"A255A9FFZD8PQW","assignmentId":"3ZSY5X72NYXKH2TTUDP8ZPMFVVKRO9","hitId":"32TZXEA1OL6QYKM0MXQIQH2ABHN14I","url":"https://gershmanlab.com/experiments/alicia/teaching/experiment/?hitId=32TZXEA1OL6QYKM0MXQIQH2ABHN14I&workerId=A255A9FFZD8PQW&assignmentId=3ZSY5X72NYXKH2TTUDP8ZPMFVVKRO9&a=25SZ9&tp_a=25SZ9&b=3ZSY5X72NYXKH2TTUDP8ZPMFVVKRO9&tp_b=3ZSY5X72NYXKH2TTUDP8ZPMFVVKRO9&c=365799&tp_c=365799","firstResponseHeads":12,"firstResponseTails":10,"secondResponseHeads":18,"secondResponseTails":10,"totalHeads":30,"totalTails":20,"studentIndex":12,"studentTrueHypers":{"a":2,"b":8},"studentGuess":0.5333333333333333,"delta":0.2666666666666667,"bonus":0,"bonusSoFar":0.45,"totalExamples":50},{"rt":3997,"response":{"heads":"2","tails":"1"},"type":"response","condition":"nonSeqPartial","trueTheta":0.2,"classrooms":["C","D"],"studentTrueClassroom":"D","exampleSet":"first","trial_type":"survey-html-form","trial_index":127,"time_elapsed":1051611,"internal_node_id":"0.0-111.0-0.0","params":{"nStudents":24,"maxFlips":30,"completionMinutes":45,"basePay":8,"maxBonus":9,"perTrialBonus":0.5,"perTrialBonusThreshold":0.05,"exampleCost":0.01},"classroomParams":{"A":{"a":1,"b":4},"B":{"a":4,"b":1},"C":{"a":2,"b":8},"D":{"a":8,"b":2}},"conditions":["nonSeqFull","nonSeqPartial","seqNoFeedback","seqFeedback"],"classroomPairings":[["A","B"],["C","D"]],"coinWeights":[0.2,0.5,0.8],"subjectId":"A255A9FFZD8PQW","assignmentId":"3ZSY5X72NYXKH2TTUDP8ZPMFVVKRO9","hitId":"32TZXEA1OL6QYKM0MXQIQH2ABHN14I","url":"https://gershmanlab.com/experiments/alicia/teaching/experiment/?hitId=32TZXEA1OL6QYKM0MXQIQH2ABHN14I&workerId=A255A9FFZD8PQW&assignmentId=3ZSY5X72NYXKH2TTUDP8ZPMFVVKRO9&a=25SZ9&tp_a=25SZ9&b=3ZSY5X72NYXKH2TTUDP8ZPMFVVKRO9&tp_b=3ZSY5X72NYXKH2TTUDP8ZPMFVVKRO9&c=365799&tp_c=365799","heads":2,"tails":1,"studentIndex":13,"studentTrueHypers":{"a":8,"b":2},"studentGuess":0.7692307692307693,"delta":0.5692307692307692,"totalExamples":3,"bonus":0,"bonusSoFar":0.45},{"rt":5755,"response":{"heads":"10","tails":"5"},"type":"response","condition":"nonSeqFull","trueTheta":0.5,"classrooms":["A","B"],"studentTrueClassroom":"A","exampleSet":"first","trial_type":"survey-html-form","trial_index":133,"time_elapsed":1070237,"internal_node_id":"0.0-117.0-0.0","params":{"nStudents":24,"maxFlips":30,"completionMinutes":45,"basePay":8,"maxBonus":9,"perTrialBonus":0.5,"perTrialBonusThreshold":0.05,"exampleCost":0.01},"classroomParams":{"A":{"a":1,"b":4},"B":{"a":4,"b":1},"C":{"a":2,"b":8},"D":{"a":8,"b":2}},"conditions":["nonSeqFull","nonSeqPartial","seqNoFeedback","seqFeedback"],"classroomPairings":[["A","B"],["C","D"]],"coinWeights":[0.2,0.5,0.8],"subjectId":"A255A9FFZD8PQW","assignmentId":"3ZSY5X72NYXKH2TTUDP8ZPMFVVKRO9","hitId":"32TZXEA1OL6QYKM0MXQIQH2ABHN14I","url":"https://gershmanlab.com/experiments/alicia/teaching/experiment/?hitId=32TZXEA1OL6QYKM0MXQIQH2ABHN14I&workerId=A255A9FFZD8PQW&assignmentId=3ZSY5X72NYXKH2TTUDP8ZPMFVVKRO9&a=25SZ9&tp_a=25SZ9&b=3ZSY5X72NYXKH2TTUDP8ZPMFVVKRO9&tp_b=3ZSY5X72NYXKH2TTUDP8ZPMFVVKRO9&c=365799&tp_c=365799","heads":10,"tails":5,"studentIndex":14,"studentTrueHypers":{"a":1,"b":4},"studentGuess":0.55,"delta":0.050000000000000044,"totalExamples":15,"bonus":0,"bonusSoFar":0.45},{"rt":13222,"response":{"heads":"10","tails":"2"},"type":"response","condition":"seqFeedback","trueTheta":0.8,"classrooms":["A","B"],"studentTrueClassroom":"B","exampleSet":"first","trial_type":"survey-html-form","trial_index":139,"time_elapsed":1100077,"internal_node_id":"0.0-123.0-0.0","params":{"nStudents":24,"maxFlips":30,"completionMinutes":45,"basePay":8,"maxBonus":9,"perTrialBonus":0.5,"perTrialBonusThreshold":0.05,"exampleCost":0.01},"classroomParams":{"A":{"a":1,"b":4},"B":{"a":4,"b":1},"C":{"a":2,"b":8},"D":{"a":8,"b":2}},"conditions":["nonSeqFull","nonSeqPartial","seqNoFeedback","seqFeedback"],"classroomPairings":[["A","B"],["C","D"]],"coinWeights":[0.2,0.5,0.8],"subjectId":"A255A9FFZD8PQW","assignmentId":"3ZSY5X72NYXKH2TTUDP8ZPMFVVKRO9","hitId":"32TZXEA1OL6QYKM0MXQIQH2ABHN14I","url":"https://gershmanlab.com/experiments/alicia/teaching/experiment/?hitId=32TZXEA1OL6QYKM0MXQIQH2ABHN14I&workerId=A255A9FFZD8PQW&assignmentId=3ZSY5X72NYXKH2TTUDP8ZPMFVVKRO9&a=25SZ9&tp_a=25SZ9&b=3ZSY5X72NYXKH2TTUDP8ZPMFVVKRO9&tp_b=3ZSY5X72NYXKH2TTUDP8ZPMFVVKRO9&c=365799&tp_c=365799","heads":10,"tails":2,"studentIndex":15,"studentTrueHypers":{"a":4,"b":1},"studentGuess":0.8235294117647058,"delta":0.0235294117647058,"totalExamples":12,"bonusSoFar":0.45},{"rt":5836,"response":{"heads":"10","tails":"2"},"type":"response","condition":"seqFeedback","trueTheta":0.8,"classrooms":["A","B"],"studentTrueClassroom":"B","exampleSet":"second","trial_type":"survey-html-form","trial_index":143,"time_elapsed":1118975,"internal_node_id":"0.0-127.0-0.0","params":{"nStudents":24,"maxFlips":30,"completionMinutes":45,"basePay":8,"maxBonus":9,"perTrialBonus":0.5,"perTrialBonusThreshold":0.05,"exampleCost":0.01},"classroomParams":{"A":{"a":1,"b":4},"B":{"a":4,"b":1},"C":{"a":2,"b":8},"D":{"a":8,"b":2}},"conditions":["nonSeqFull","nonSeqPartial","seqNoFeedback","seqFeedback"],"classroomPairings":[["A","B"],["C","D"]],"coinWeights":[0.2,0.5,0.8],"subjectId":"A255A9FFZD8PQW","assignmentId":"3ZSY5X72NYXKH2TTUDP8ZPMFVVKRO9","hitId":"32TZXEA1OL6QYKM0MXQIQH2ABHN14I","url":"https://gershmanlab.com/experiments/alicia/teaching/experiment/?hitId=32TZXEA1OL6QYKM0MXQIQH2ABHN14I&workerId=A255A9FFZD8PQW&assignmentId=3ZSY5X72NYXKH2TTUDP8ZPMFVVKRO9&a=25SZ9&tp_a=25SZ9&b=3ZSY5X72NYXKH2TTUDP8ZPMFVVKRO9&tp_b=3ZSY5X72NYXKH2TTUDP8ZPMFVVKRO9&c=365799&tp_c=365799","firstResponseHeads":10,"firstResponseTails":2,"secondResponseHeads":10,"secondResponseTails":2,"totalHeads":20,"totalTails":4,"studentIndex":15,"studentTrueHypers":{"a":4,"b":1},"studentGuess":0.8275862068965517,"delta":0.027586206896551668,"bonus":0.26,"bonusSoFar":0.71,"totalExamples":24},{"rt":9209,"response":{"heads":"10","tails":"5"},"type":"response","condition":"nonSeqPartial","trueTheta":0.5,"classrooms":["A","B"],"studentTrueClassroom":"A","exampleSet":"first","trial_type":"survey-html-form","trial_index":149,"time_elapsed":1149223,"internal_node_id":"0.0-133.0-0.0","params":{"nStudents":24,"maxFlips":30,"completionMinutes":45,"basePay":8,"maxBonus":9,"perTrialBonus":0.5,"perTrialBonusThreshold":0.05,"exampleCost":0.01},"classroomParams":{"A":{"a":1,"b":4},"B":{"a":4,"b":1},"C":{"a":2,"b":8},"D":{"a":8,"b":2}},"conditions":["nonSeqFull","nonSeqPartial","seqNoFeedback","seqFeedback"],"classroomPairings":[["A","B"],["C","D"]],"coinWeights":[0.2,0.5,0.8],"subjectId":"A255A9FFZD8PQW","assignmentId":"3ZSY5X72NYXKH2TTUDP8ZPMFVVKRO9","hitId":"32TZXEA1OL6QYKM0MXQIQH2ABHN14I","url":"https://gershmanlab.com/experiments/alicia/teaching/experiment/?hitId=32TZXEA1OL6QYKM0MXQIQH2ABHN14I&workerId=A255A9FFZD8PQW&assignmentId=3ZSY5X72NYXKH2TTUDP8ZPMFVVKRO9&a=25SZ9&tp_a=25SZ9&b=3ZSY5X72NYXKH2TTUDP8ZPMFVVKRO9&tp_b=3ZSY5X72NYXKH2TTUDP8ZPMFVVKRO9&c=365799&tp_c=365799","heads":10,"tails":5,"studentIndex":16,"studentTrueHypers":{"a":1,"b":4},"studentGuess":0.55,"delta":0.050000000000000044,"totalExamples":15,"bonus":0,"bonusSoFar":0.71},{"rt":7117,"response":{"heads":"2","tails":"10"},"type":"response","condition":"nonSeqFull","trueTheta":0.2,"classrooms":["A","B"],"studentTrueClassroom":"A","exampleSet":"first","trial_type":"survey-html-form","trial_index":155,"time_elapsed":1172859,"internal_node_id":"0.0-139.0-0.0","params":{"nStudents":24,"maxFlips":30,"completionMinutes":45,"basePay":8,"maxBonus":9,"perTrialBonus":0.5,"perTrialBonusThreshold":0.05,"exampleCost":0.01},"classroomParams":{"A":{"a":1,"b":4},"B":{"a":4,"b":1},"C":{"a":2,"b":8},"D":{"a":8,"b":2}},"conditions":["nonSeqFull","nonSeqPartial","seqNoFeedback","seqFeedback"],"classroomPairings":[["A","B"],["C","D"]],"coinWeights":[0.2,0.5,0.8],"subjectId":"A255A9FFZD8PQW","assignmentId":"3ZSY5X72NYXKH2TTUDP8ZPMFVVKRO9","hitId":"32TZXEA1OL6QYKM0MXQIQH2ABHN14I","url":"https://gershmanlab.com/experiments/alicia/teaching/experiment/?hitId=32TZXEA1OL6QYKM0MXQIQH2ABHN14I&workerId=A255A9FFZD8PQW&assignmentId=3ZSY5X72NYXKH2TTUDP8ZPMFVVKRO9&a=25SZ9&tp_a=25SZ9&b=3ZSY5X72NYXKH2TTUDP8ZPMFVVKRO9&tp_b=3ZSY5X72NYXKH2TTUDP8ZPMFVVKRO9&c=365799&tp_c=365799","heads":2,"tails":10,"studentIndex":17,"studentTrueHypers":{"a":1,"b":4},"studentGuess":0.17647058823529413,"delta":0.023529411764705882,"totalExamples":12,"bonus":0.38,"bonusSoFar":1.09},{"rt":6676,"response":{"heads":"10","tails":"8"},"type":"response","condition":"nonSeqPartial","trueTheta":0.8,"classrooms":["C","D"],"studentTrueClassroom":"C","exampleSet":"first","trial_type":"survey-html-form","trial_index":161,"time_elapsed":1196150,"internal_node_id":"0.0-145.0-0.0","params":{"nStudents":24,"maxFlips":30,"completionMinutes":45,"basePay":8,"maxBonus":9,"perTrialBonus":0.5,"perTrialBonusThreshold":0.05,"exampleCost":0.01},"classroomParams":{"A":{"a":1,"b":4},"B":{"a":4,"b":1},"C":{"a":2,"b":8},"D":{"a":8,"b":2}},"conditions":["nonSeqFull","nonSeqPartial","seqNoFeedback","seqFeedback"],"classroomPairings":[["A","B"],["C","D"]],"coinWeights":[0.2,0.5,0.8],"subjectId":"A255A9FFZD8PQW","assignmentId":"3ZSY5X72NYXKH2TTUDP8ZPMFVVKRO9","hitId":"32TZXEA1OL6QYKM0MXQIQH2ABHN14I","url":"https://gershmanlab.com/experiments/alicia/teaching/experiment/?hitId=32TZXEA1OL6QYKM0MXQIQH2ABHN14I&workerId=A255A9FFZD8PQW&assignmentId=3ZSY5X72NYXKH2TTUDP8ZPMFVVKRO9&a=25SZ9&tp_a=25SZ9&b=3ZSY5X72NYXKH2TTUDP8ZPMFVVKRO9&tp_b=3ZSY5X72NYXKH2TTUDP8ZPMFVVKRO9&c=365799&tp_c=365799","heads":10,"tails":8,"studentIndex":18,"studentTrueHypers":{"a":2,"b":8},"studentGuess":0.42857142857142855,"delta":0.3714285714285715,"totalExamples":18,"bonus":0,"bonusSoFar":1.09},{"rt":4515,"response":{"heads":"5","tails":"5"},"type":"response","condition":"nonSeqFull","trueTheta":0.5,"classrooms":["C","D"],"studentTrueClassroom":"D","exampleSet":"first","trial_type":"survey-html-form","trial_index":167,"time_elapsed":1215429,"internal_node_id":"0.0-151.0-0.0","params":{"nStudents":24,"maxFlips":30,"completionMinutes":45,"basePay":8,"maxBonus":9,"perTrialBonus":0.5,"perTrialBonusThreshold":0.05,"exampleCost":0.01},"classroomParams":{"A":{"a":1,"b":4},"B":{"a":4,"b":1},"C":{"a":2,"b":8},"D":{"a":8,"b":2}},"conditions":["nonSeqFull","nonSeqPartial","seqNoFeedback","seqFeedback"],"classroomPairings":[["A","B"],["C","D"]],"coinWeights":[0.2,0.5,0.8],"subjectId":"A255A9FFZD8PQW","assignmentId":"3ZSY5X72NYXKH2TTUDP8ZPMFVVKRO9","hitId":"32TZXEA1OL6QYKM0MXQIQH2ABHN14I","url":"https://gershmanlab.com/experiments/alicia/teaching/experiment/?hitId=32TZXEA1OL6QYKM0MXQIQH2ABHN14I&workerId=A255A9FFZD8PQW&assignmentId=3ZSY5X72NYXKH2TTUDP8ZPMFVVKRO9&a=25SZ9&tp_a=25SZ9&b=3ZSY5X72NYXKH2TTUDP8ZPMFVVKRO9&tp_b=3ZSY5X72NYXKH2TTUDP8ZPMFVVKRO9&c=365799&tp_c=365799","heads":5,"tails":5,"studentIndex":19,"studentTrueHypers":{"a":8,"b":2},"studentGuess":0.65,"delta":0.15000000000000002,"totalExamples":10,"bonus":0,"bonusSoFar":1.09},{"rt":5577,"response":{"heads":"5","tails":"5"},"type":"response","condition":"seqFeedback","trueTheta":0.2,"classrooms":["A","B"],"studentTrueClassroom":"B","exampleSet":"first","trial_type":"survey-html-form","trial_index":173,"time_elapsed":1232943,"internal_node_id":"0.0-157.0-0.0","params":{"nStudents":24,"maxFlips":30,"completionMinutes":45,"basePay":8,"maxBonus":9,"perTrialBonus":0.5,"perTrialBonusThreshold":0.05,"exampleCost":0.01},"classroomParams":{"A":{"a":1,"b":4},"B":{"a":4,"b":1},"C":{"a":2,"b":8},"D":{"a":8,"b":2}},"conditions":["nonSeqFull","nonSeqPartial","seqNoFeedback","seqFeedback"],"classroomPairings":[["A","B"],["C","D"]],"coinWeights":[0.2,0.5,0.8],"subjectId":"A255A9FFZD8PQW","assignmentId":"3ZSY5X72NYXKH2TTUDP8ZPMFVVKRO9","hitId":"32TZXEA1OL6QYKM0MXQIQH2ABHN14I","url":"https://gershmanlab.com/experiments/alicia/teaching/experiment/?hitId=32TZXEA1OL6QYKM0MXQIQH2ABHN14I&workerId=A255A9FFZD8PQW&assignmentId=3ZSY5X72NYXKH2TTUDP8ZPMFVVKRO9&a=25SZ9&tp_a=25SZ9&b=3ZSY5X72NYXKH2TTUDP8ZPMFVVKRO9&tp_b=3ZSY5X72NYXKH2TTUDP8ZPMFVVKRO9&c=365799&tp_c=365799","heads":5,"tails":5,"studentIndex":20,"studentTrueHypers":{"a":4,"b":1},"studentGuess":0.6,"delta":0.39999999999999997,"totalExamples":10,"bonusSoFar":1.09},{"rt":9066,"response":{"heads":"2","tails":"10"},"type":"response","condition":"seqFeedback","trueTheta":0.2,"classrooms":["A","B"],"studentTrueClassroom":"B","exampleSet":"second","trial_type":"survey-html-form","trial_index":177,"time_elapsed":1251530,"internal_node_id":"0.0-161.0-0.0","params":{"nStudents":24,"maxFlips":30,"completionMinutes":45,"basePay":8,"maxBonus":9,"perTrialBonus":0.5,"perTrialBonusThreshold":0.05,"exampleCost":0.01},"classroomParams":{"A":{"a":1,"b":4},"B":{"a":4,"b":1},"C":{"a":2,"b":8},"D":{"a":8,"b":2}},"conditions":["nonSeqFull","nonSeqPartial","seqNoFeedback","seqFeedback"],"classroomPairings":[["A","B"],["C","D"]],"coinWeights":[0.2,0.5,0.8],"subjectId":"A255A9FFZD8PQW","assignmentId":"3ZSY5X72NYXKH2TTUDP8ZPMFVVKRO9","hitId":"32TZXEA1OL6QYKM0MXQIQH2ABHN14I","url":"https://gershmanlab.com/experiments/alicia/teaching/experiment/?hitId=32TZXEA1OL6QYKM0MXQIQH2ABHN14I&workerId=A255A9FFZD8PQW&assignmentId=3ZSY5X72NYXKH2TTUDP8ZPMFVVKRO9&a=25SZ9&tp_a=25SZ9&b=3ZSY5X72NYXKH2TTUDP8ZPMFVVKRO9&tp_b=3ZSY5X72NYXKH2TTUDP8ZPMFVVKRO9&c=365799&tp_c=365799","firstResponseHeads":5,"firstResponseTails":5,"secondResponseHeads":2,"secondResponseTails":10,"totalHeads":7,"totalTails":15,"studentIndex":20,"studentTrueHypers":{"a":4,"b":1},"studentGuess":0.4074074074074074,"delta":0.20740740740740737,"bonus":0,"bonusSoFar":1.09,"totalExamples":22},{"rt":4485,"response":{"heads":"2","tails":"10"},"type":"response","condition":"nonSeqPartial","trueTheta":0.2,"classrooms":["A","B"],"studentTrueClassroom":"A","exampleSet":"first","trial_type":"survey-html-form","trial_index":183,"time_elapsed":1270153,"internal_node_id":"0.0-167.0-0.0","params":{"nStudents":24,"maxFlips":30,"completionMinutes":45,"basePay":8,"maxBonus":9,"perTrialBonus":0.5,"perTrialBonusThreshold":0.05,"exampleCost":0.01},"classroomParams":{"A":{"a":1,"b":4},"B":{"a":4,"b":1},"C":{"a":2,"b":8},"D":{"a":8,"b":2}},"conditions":["nonSeqFull","nonSeqPartial","seqNoFeedback","seqFeedback"],"classroomPairings":[["A","B"],["C","D"]],"coinWeights":[0.2,0.5,0.8],"subjectId":"A255A9FFZD8PQW","assignmentId":"3ZSY5X72NYXKH2TTUDP8ZPMFVVKRO9","hitId":"32TZXEA1OL6QYKM0MXQIQH2ABHN14I","url":"https://gershmanlab.com/experiments/alicia/teaching/experiment/?hitId=32TZXEA1OL6QYKM0MXQIQH2ABHN14I&workerId=A255A9FFZD8PQW&assignmentId=3ZSY5X72NYXKH2TTUDP8ZPMFVVKRO9&a=25SZ9&tp_a=25SZ9&b=3ZSY5X72NYXKH2TTUDP8ZPMFVVKRO9&tp_b=3ZSY5X72NYXKH2TTUDP8ZPMFVVKRO9&c=365799&tp_c=365799","heads":2,"tails":10,"studentIndex":21,"studentTrueHypers":{"a":1,"b":4},"studentGuess":0.17647058823529413,"delta":0.023529411764705882,"totalExamples":12,"bonus":0.38,"bonusSoFar":1.47},{"rt":4783,"response":{"heads":"5","tails":"10"},"type":"response","condition":"seqFeedback","trueTheta":0.5,"classrooms":["C","D"],"studentTrueClassroom":"D","exampleSet":"first","trial_type":"survey-html-form","trial_index":189,"time_elapsed":1289829,"internal_node_id":"0.0-173.0-0.0","params":{"nStudents":24,"maxFlips":30,"completionMinutes":45,"basePay":8,"maxBonus":9,"perTrialBonus":0.5,"perTrialBonusThreshold":0.05,"exampleCost":0.01},"classroomParams":{"A":{"a":1,"b":4},"B":{"a":4,"b":1},"C":{"a":2,"b":8},"D":{"a":8,"b":2}},"conditions":["nonSeqFull","nonSeqPartial","seqNoFeedback","seqFeedback"],"classroomPairings":[["A","B"],["C","D"]],"coinWeights":[0.2,0.5,0.8],"subjectId":"A255A9FFZD8PQW","assignmentId":"3ZSY5X72NYXKH2TTUDP8ZPMFVVKRO9","hitId":"32TZXEA1OL6QYKM0MXQIQH2ABHN14I","url":"https://gershmanlab.com/experiments/alicia/teaching/experiment/?hitId=32TZXEA1OL6QYKM0MXQIQH2ABHN14I&workerId=A255A9FFZD8PQW&assignmentId=3ZSY5X72NYXKH2TTUDP8ZPMFVVKRO9&a=25SZ9&tp_a=25SZ9&b=3ZSY5X72NYXKH2TTUDP8ZPMFVVKRO9&tp_b=3ZSY5X72NYXKH2TTUDP8ZPMFVVKRO9&c=365799&tp_c=365799","heads":5,"tails":10,"studentIndex":22,"studentTrueHypers":{"a":8,"b":2},"studentGuess":0.52,"delta":0.020000000000000018,"totalExamples":15,"bonusSoFar":1.47},{"rt":6913,"response":{"heads":"5","tails":"5"},"type":"response","condition":"seqFeedback","trueTheta":0.5,"classrooms":["C","D"],"studentTrueClassroom":"D","exampleSet":"second","trial_type":"survey-html-form","trial_index":193,"time_elapsed":1307177,"internal_node_id":"0.0-177.0-0.0","params":{"nStudents":24,"maxFlips":30,"completionMinutes":45,"basePay":8,"maxBonus":9,"perTrialBonus":0.5,"perTrialBonusThreshold":0.05,"exampleCost":0.01},"classroomParams":{"A":{"a":1,"b":4},"B":{"a":4,"b":1},"C":{"a":2,"b":8},"D":{"a":8,"b":2}},"conditions":["nonSeqFull","nonSeqPartial","seqNoFeedback","seqFeedback"],"classroomPairings":[["A","B"],["C","D"]],"coinWeights":[0.2,0.5,0.8],"subjectId":"A255A9FFZD8PQW","assignmentId":"3ZSY5X72NYXKH2TTUDP8ZPMFVVKRO9","hitId":"32TZXEA1OL6QYKM0MXQIQH2ABHN14I","url":"https://gershmanlab.com/experiments/alicia/teaching/experiment/?hitId=32TZXEA1OL6QYKM0MXQIQH2ABHN14I&workerId=A255A9FFZD8PQW&assignmentId=3ZSY5X72NYXKH2TTUDP8ZPMFVVKRO9&a=25SZ9&tp_a=25SZ9&b=3ZSY5X72NYXKH2TTUDP8ZPMFVVKRO9&tp_b=3ZSY5X72NYXKH2TTUDP8ZPMFVVKRO9&c=365799&tp_c=365799","firstResponseHeads":5,"firstResponseTails":10,"secondResponseHeads":5,"secondResponseTails":5,"totalHeads":10,"totalTails":15,"studentIndex":22,"studentTrueHypers":{"a":8,"b":2},"studentGuess":0.5142857142857142,"delta":0.014285714285714235,"bonus":0.25,"bonusSoFar":1.72,"totalExamples":25},{"rt":5577,"response":{"heads":"2","tails":"10"},"type":"response","condition":"seqNoFeedback","trueTheta":0.2,"classrooms":["A","B"],"studentTrueClassroom":"A","exampleSet":"first","trial_type":"survey-html-form","trial_index":199,"time_elapsed":1328088,"internal_node_id":"0.0-183.0-0.0","params":{"nStudents":24,"maxFlips":30,"completionMinutes":45,"basePay":8,"maxBonus":9,"perTrialBonus":0.5,"perTrialBonusThreshold":0.05,"exampleCost":0.01},"classroomParams":{"A":{"a":1,"b":4},"B":{"a":4,"b":1},"C":{"a":2,"b":8},"D":{"a":8,"b":2}},"conditions":["nonSeqFull","nonSeqPartial","seqNoFeedback","seqFeedback"],"classroomPairings":[["A","B"],["C","D"]],"coinWeights":[0.2,0.5,0.8],"subjectId":"A255A9FFZD8PQW","assignmentId":"3ZSY5X72NYXKH2TTUDP8ZPMFVVKRO9","hitId":"32TZXEA1OL6QYKM0MXQIQH2ABHN14I","url":"https://gershmanlab.com/experiments/alicia/teaching/experiment/?hitId=32TZXEA1OL6QYKM0MXQIQH2ABHN14I&workerId=A255A9FFZD8PQW&assignmentId=3ZSY5X72NYXKH2TTUDP8ZPMFVVKRO9&a=25SZ9&tp_a=25SZ9&b=3ZSY5X72NYXKH2TTUDP8ZPMFVVKRO9&tp_b=3ZSY5X72NYXKH2TTUDP8ZPMFVVKRO9&c=365799&tp_c=365799","heads":2,"tails":10,"studentIndex":23,"studentTrueHypers":{"a":1,"b":4},"studentGuess":0.17647058823529413,"delta":0.023529411764705882,"totalExamples":12,"bonusSoFar":1.72},{"rt":9372,"response":{"heads":"2","tails":"10"},"type":"response","condition":"seqNoFeedback","trueTheta":0.2,"classrooms":["A","B"],"studentTrueClassroom":"A","exampleSet":"second","trial_type":"survey-html-form","trial_index":202,"time_elapsed":1345231,"internal_node_id":"0.0-186.0-0.0","params":{"nStudents":24,"maxFlips":30,"completionMinutes":45,"basePay":8,"maxBonus":9,"perTrialBonus":0.5,"perTrialBonusThreshold":0.05,"exampleCost":0.01},"classroomParams":{"A":{"a":1,"b":4},"B":{"a":4,"b":1},"C":{"a":2,"b":8},"D":{"a":8,"b":2}},"conditions":["nonSeqFull","nonSeqPartial","seqNoFeedback","seqFeedback"],"classroomPairings":[["A","B"],["C","D"]],"coinWeights":[0.2,0.5,0.8],"subjectId":"A255A9FFZD8PQW","assignmentId":"3ZSY5X72NYXKH2TTUDP8ZPMFVVKRO9","hitId":"32TZXEA1OL6QYKM0MXQIQH2ABHN14I","url":"https://gershmanlab.com/experiments/alicia/teaching/experiment/?hitId=32TZXEA1OL6QYKM0MXQIQH2ABHN14I&workerId=A255A9FFZD8PQW&assignmentId=3ZSY5X72NYXKH2TTUDP8ZPMFVVKRO9&a=25SZ9&tp_a=25SZ9&b=3ZSY5X72NYXKH2TTUDP8ZPMFVVKRO9&tp_b=3ZSY5X72NYXKH2TTUDP8ZPMFVVKRO9&c=365799&tp_c=365799","firstResponseHeads":2,"firstResponseTails":10,"secondResponseHeads":2,"secondResponseTails":10,"totalHeads":4,"totalTails":20,"studentIndex":23,"studentTrueHypers":{"a":1,"b":4},"studentGuess":0.1724137931034483,"delta":0.027586206896551724,"bonus":0.26,"bonusSoFar":1.98,"totalExamples":24},{"rt":11797,"response":{"gender":"female","age":"32","understood":"yes","comments":""},"type":"response","trial_type":"survey-html-form","trial_index":206,"time_elapsed":1368917,"internal_node_id":"0.0-191.0","params":{"nStudents":24,"maxFlips":30,"completionMinutes":45,"basePay":8,"maxBonus":9,"perTrialBonus":0.5,"perTrialBonusThreshold":0.05,"exampleCost":0.01},"classroomParams":{"A":{"a":1,"b":4},"B":{"a":4,"b":1},"C":{"a":2,"b":8},"D":{"a":8,"b":2}},"conditions":["nonSeqFull","nonSeqPartial","seqNoFeedback","seqFeedback"],"classroomPairings":[["A","B"],["C","D"]],"coinWeights":[0.2,0.5,0.8],"subjectId":"A255A9FFZD8PQW","assignmentId":"3ZSY5X72NYXKH2TTUDP8ZPMFVVKRO9","hitId":"32TZXEA1OL6QYKM0MXQIQH2ABHN14I","url":"https://gershmanlab.com/experiments/alicia/teaching/experiment/?hitId=32TZXEA1OL6QYKM0MXQIQH2ABHN14I&workerId=A255A9FFZD8PQW&assignmentId=3ZSY5X72NYXKH2TTUDP8ZPMFVVKRO9&a=25SZ9&tp_a=25SZ9&b=3ZSY5X72NYXKH2TTUDP8ZPMFVVKRO9&tp_b=3ZSY5X72NYXKH2TTUDP8ZPMFVVKRO9&c=365799&tp_c=365799","totalBonus":1.98}]