[{"rt":82382,"response":{"heads":"4","tails":"2"},"type":"response","condition":"nonSeqPartial","trueTheta":0.2,"classrooms":["C","D"],"studentTrueClassroom":"C","exampleSet":"first","trial_type":"survey-html-form","trial_index":13,"time_elapsed":1194085,"internal_node_id":"0.0-6.0-0.0","params":{"nStudents":24,"maxFlips":30,"completionMinutes":45,"basePay":8,"maxBonus":9,"perTrialBonus":0.5,"perTrialBonusThreshold":0.05,"exampleCost":0.01},"classroomParams":{"A":{"a":1,"b":4},"B":{"a":4,"b":1},"C":{"a":2,"b":8},"D":{"a":8,"b":2}},"conditions":["nonSeqFull","nonSeqPartial","seqNoFeedback","seqFeedback"],"classroomPairings":[["A","B"],["C","D"]],"coinWeights":[0.2,0.5,0.8],"subjectId":"A25FH7PXC446RG","assignmentId":"3MYYFCXHJ4TPOJAXVIGNMN23CWB4GK","hitId":"3SD15I2WD2G0NA4TSPXGB81L5S7630","url":"https://gershmanlab.com/experiments/alicia/teaching/experiment/?hitId=3SD15I2WD2G0NA4TSPXGB81L5S7630&workerId=A25FH7PXC446RG&assignmentId=3MYYFCXHJ4TPOJAXVIGNMN23CWB4GK&a=HFYM9&tp_a=HFYM9&b=3MYYFCXHJ4TPOJAXVIGNMN23CWB4GK&tp_b=3MYYFCXHJ4TPOJAXVIGNMN23CWB4GK&c=365799&tp_c=365799","heads":4,"tails":2,"studentIndex":0,"studentTrueHypers":{"a":2,"b":8},"studentGuess":0.375,"delta":0.175,"totalExamples":6,"bonus":0,"bonusSoFar":0},{"rt":33341,"response":{"heads":"1","tails":"3"},"type":"response","condition":"seqFeedback","trueTheta":0.8,"classrooms":["A","B"],"studentTrueClassroom":"B","exampleSet":"first","trial_type":"survey-html-form","trial_index":19,"time_elapsed":1262375,"internal_node_id":"0.0-12.0-0.0","params":{"nStudents":24,"maxFlips":30,"completionMinutes":45,"basePay":8,"maxBonus":9,"perTrialBonus":0.5,"perTrialBonusThreshold":0.05,"exampleCost":0.01},"classroomParams":{"A":{"a":1,"b":4},"B":{"a":4,"b":1},"C":{"a":2,"b":8},"D":{"a":8,"b":2}},"conditions":["nonSeqFull","nonSeqPartial","seqNoFeedback","seqFeedback"],"classroomPairings":[["A","B"],["C","D"]],"coinWeights":[0.2,0.5,0.8],"subjectId":"A25FH7PXC446RG","assignmentId":"3MYYFCXHJ4TPOJAXVIGNMN23CWB4GK","hitId":"3SD15I2WD2G0NA4TSPXGB81L5S7630","url":"https://gershmanlab.com/experiments/alicia/teaching/experiment/?hitId=3SD15I2WD2G0NA4TSPXGB81L5S7630&workerId=A25FH7PXC446RG&assignmentId=3MYYFCXHJ4TPOJAXVIGNMN23CWB4GK&a=HFYM9&tp_a=HFYM9&b=3MYYFCXHJ4TPOJAXVIGNMN23CWB4GK&tp_b=3MYYFCXHJ4TPOJAXVIGNMN23CWB4GK&c=365799&tp_c=365799","heads":1,"tails":3,"studentIndex":1,"studentTrueHypers":{"a":4,"b":1},"studentGuess":0.5555555555555556,"delta":0.24444444444444446,"totalExamples":4,"bonusSoFar":0},{"rt":134845,"response":{"heads":"8","tails":"4"},"type":"response","condition":"seqFeedback","trueTheta":0.8,"classrooms":["A","B"],"studentTrueClassroom":"B","exampleSet":"second","trial_type":"survey-html-form","trial_index":23,"time_elapsed":1433037,"internal_node_id":"0.0-16.0-0.0","params":{"nStudents":24,"maxFlips":30,"completionMinutes":45,"basePay":8,"maxBonus":9,"perTrialBonus":0.5,"perTrialBonusThreshold":0.05,"exampleCost":0.01},"classroomParams":{"A":{"a":1,"b":4},"B":{"a":4,"b":1},"C":{"a":2,"b":8},"D":{"a":8,"b":2}},"conditions":["nonSeqFull","nonSeqPartial","seqNoFeedback","seqFeedback"],"classroomPairings":[["A","B"],["C","D"]],"coinWeights":[0.2,0.5,0.8],"subjectId":"A25FH7PXC446RG","assignmentId":"3MYYFCXHJ4TPOJAXVIGNMN23CWB4GK","hitId":"3SD15I2WD2G0NA4TSPXGB81L5S7630","url":"https://gershmanlab.com/experiments/alicia/teaching/experiment/?hitId=3SD15I2WD2G0NA4TSPXGB81L5S7630&workerId=A25FH7PXC446RG&assignmentId=3MYYFCXHJ4TPOJAXVIGNMN23CWB4GK&a=HFYM9&tp_a=HFYM9&b=3MYYFCXHJ4TPOJAXVIGNMN23CWB4GK&tp_b=3MYYFCXHJ4TPOJAXVIGNMN23CWB4GK&c=365799&tp_c=365799","firstResponseHeads":1,"firstResponseTails":3,"secondResponseHeads":8,"secondResponseTails":4,"totalHeads":9,"totalTails":7,"studentIndex":1,"studentTrueHypers":{"a":4,"b":1},"studentGuess":0.6190476190476191,"delta":0.18095238095238098,"bonus":0,"bonusSoFar":0,"totalExamples":16},{"rt":41594,"response":{"heads":"15","tails":"8"},"type":"response","condition":"seqNoFeedback","trueTheta":0.8,"classrooms":["C","D"],"studentTrueClassroom":"D","exampleSet":"first","trial_type":"survey-html-form","trial_index":29,"time_elapsed":1916833,"internal_node_id":"0.0-22.0-0.0","params":{"nStudents":24,"maxFlips":30,"completionMinutes":45,"basePay":8,"maxBonus":9,"perTrialBonus":0.5,"perTrialBonusThreshold":0.05,"exampleCost":0.01},"classroomParams":{"A":{"a":1,"b":4},"B":{"a":4,"b":1},"C":{"a":2,"b":8},"D":{"a":8,"b":2}},"conditions":["nonSeqFull","nonSeqPartial","seqNoFeedback","seqFeedback"],"classroomPairings":[["A","B"],["C","D"]],"coinWeights":[0.2,0.5,0.8],"subjectId":"A25FH7PXC446RG","assignmentId":"3MYYFCXHJ4TPOJAXVIGNMN23CWB4GK","hitId":"3SD15I2WD2G0NA4TSPXGB81L5S7630","url":"https://gershmanlab.com/experiments/alicia/teaching/experiment/?hitId=3SD15I2WD2G0NA4TSPXGB81L5S7630&workerId=A25FH7PXC446RG&assignmentId=3MYYFCXHJ4TPOJAXVIGNMN23CWB4GK&a=HFYM9&tp_a=HFYM9&b=3MYYFCXHJ4TPOJAXVIGNMN23CWB4GK&tp_b=3MYYFCXHJ4TPOJAXVIGNMN23CWB4GK&c=365799&tp_c=365799","heads":15,"tails":8,"studentIndex":2,"studentTrueHypers":{"a":8,"b":2},"studentGuess":0.696969696969697,"delta":0.10303030303030303,"totalExamples":23,"bonusSoFar":0},{"rt":20666,"response":{"heads":"20","tails":"10"},"type":"response","condition":"seqNoFeedback","trueTheta":0.8,"classrooms":["C","D"],"studentTrueClassroom":"D","exampleSet":"second","trial_type":"survey-html-form","trial_index":32,"time_elapsed":1943526,"internal_node_id":"0.0-25.0-0.0","params":{"nStudents":24,"maxFlips":30,"completionMinutes":45,"basePay":8,"maxBonus":9,"perTrialBonus":0.5,"perTrialBonusThreshold":0.05,"exampleCost":0.01},"classroomParams":{"A":{"a":1,"b":4},"B":{"a":4,"b":1},"C":{"a":2,"b":8},"D":{"a":8,"b":2}},"conditions":["nonSeqFull","nonSeqPartial","seqNoFeedback","seqFeedback"],"classroomPairings":[["A","B"],["C","D"]],"coinWeights":[0.2,0.5,0.8],"subjectId":"A25FH7PXC446RG","assignmentId":"3MYYFCXHJ4TPOJAXVIGNMN23CWB4GK","hitId":"3SD15I2WD2G0NA4TSPXGB81L5S7630","url":"https://gershmanlab.com/experiments/alicia/teaching/experiment/?hitId=3SD15I2WD2G0NA4TSPXGB81L5S7630&workerId=A25FH7PXC446RG&assignmentId=3MYYFCXHJ4TPOJAXVIGNMN23CWB4GK&a=HFYM9&tp_a=HFYM9&b=3MYYFCXHJ4TPOJAXVIGNMN23CWB4GK&tp_b=3MYYFCXHJ4TPOJAXVIGNMN23CWB4GK&c=365799&tp_c=365799","firstResponseHeads":15,"firstResponseTails":8,"secondResponseHeads":20,"secondResponseTails":10,"totalHeads":35,"totalTails":18,"studentIndex":2,"studentTrueHypers":{"a":8,"b":2},"studentGuess":0.6825396825396826,"delta":0.11746031746031749,"bonus":0,"bonusSoFar":0,"totalExamples":53},{"rt":23666,"response":{"heads":"16","tails":"15"},"type":"response","condition":"nonSeqFull","trueTheta":0.5,"classrooms":["A","B"],"studentTrueClassroom":"A","exampleSet":"first","trial_type":"survey-html-form","trial_index":38,"time_elapsed":1990570,"internal_node_id":"0.0-31.0-0.0","params":{"nStudents":24,"maxFlips":30,"completionMinutes":45,"basePay":8,"maxBonus":9,"perTrialBonus":0.5,"perTrialBonusThreshold":0.05,"exampleCost":0.01},"classroomParams":{"A":{"a":1,"b":4},"B":{"a":4,"b":1},"C":{"a":2,"b":8},"D":{"a":8,"b":2}},"conditions":["nonSeqFull","nonSeqPartial","seqNoFeedback","seqFeedback"],"classroomPairings":[["A","B"],["C","D"]],"coinWeights":[0.2,0.5,0.8],"subjectId":"A25FH7PXC446RG","assignmentId":"3MYYFCXHJ4TPOJAXVIGNMN23CWB4GK","hitId":"3SD15I2WD2G0NA4TSPXGB81L5S7630","url":"https://gershmanlab.com/experiments/alicia/teaching/experiment/?hitId=3SD15I2WD2G0NA4TSPXGB81L5S7630&workerId=A25FH7PXC446RG&assignmentId=3MYYFCXHJ4TPOJAXVIGNMN23CWB4GK&a=HFYM9&tp_a=HFYM9&b=3MYYFCXHJ4TPOJAXVIGNMN23CWB4GK&tp_b=3MYYFCXHJ4TPOJAXVIGNMN23CWB4GK&c=365799&tp_c=365799","heads":16,"tails":15,"studentIndex":3,"studentTrueHypers":{"a":1,"b":4},"studentGuess":0.4722222222222222,"delta":0.02777777777777779,"totalExamples":31,"bonus":0.19,"bonusSoFar":0.19},{"rt":28876,"response":{"heads":"15","tails":"12"},"type":"response","condition":"nonSeqFull","trueTheta":0.5,"classrooms":["A","B"],"studentTrueClassroom":"A","exampleSet":"first","trial_type":"survey-html-form","trial_index":39,"time_elapsed":2019448,"internal_node_id":"0.0-31.1-0.1","params":{"nStudents":24,"maxFlips":30,"completionMinutes":45,"basePay":8,"maxBonus":9,"perTrialBonus":0.5,"perTrialBonusThreshold":0.05,"exampleCost":0.01},"classroomParams":{"A":{"a":1,"b":4},"B":{"a":4,"b":1},"C":{"a":2,"b":8},"D":{"a":8,"b":2}},"conditions":["nonSeqFull","nonSeqPartial","seqNoFeedback","seqFeedback"],"classroomPairings":[["A","B"],["C","D"]],"coinWeights":[0.2,0.5,0.8],"subjectId":"A25FH7PXC446RG","assignmentId":"3MYYFCXHJ4TPOJAXVIGNMN23CWB4GK","hitId":"3SD15I2WD2G0NA4TSPXGB81L5S7630","url":"https://gershmanlab.com/experiments/alicia/teaching/experiment/?hitId=3SD15I2WD2G0NA4TSPXGB81L5S7630&workerId=A25FH7PXC446RG&assignmentId=3MYYFCXHJ4TPOJAXVIGNMN23CWB4GK&a=HFYM9&tp_a=HFYM9&b=3MYYFCXHJ4TPOJAXVIGNMN23CWB4GK&tp_b=3MYYFCXHJ4TPOJAXVIGNMN23CWB4GK&c=365799&tp_c=365799","heads":15,"tails":12,"studentIndex":3,"studentTrueHypers":{"a":1,"b":4},"studentGuess":0.5,"delta":0,"totalExamples":27,"bonus":0.23,"bonusSoFar":0.42},{"rt":12773,"response":{"heads":"17","tails":"13"},"type":"response","condition":"nonSeqPartial","trueTheta":0.5,"classrooms":["C","D"],"studentTrueClassroom":"C","exampleSet":"first","trial_type":"survey-html-form","trial_index":45,"time_elapsed":2073615,"internal_node_id":"0.0-37.0-0.0","params":{"nStudents":24,"maxFlips":30,"completionMinutes":45,"basePay":8,"maxBonus":9,"perTrialBonus":0.5,"perTrialBonusThreshold":0.05,"exampleCost":0.01},"classroomParams":{"A":{"a":1,"b":4},"B":{"a":4,"b":1},"C":{"a":2,"b":8},"D":{"a":8,"b":2}},"conditions":["nonSeqFull","nonSeqPartial","seqNoFeedback","seqFeedback"],"classroomPairings":[["A","B"],["C","D"]],"coinWeights":[0.2,0.5,0.8],"subjectId":"A25FH7PXC446RG","assignmentId":"3MYYFCXHJ4TPOJAXVIGNMN23CWB4GK","hitId":"3SD15I2WD2G0NA4TSPXGB81L5S7630","url":"https://gershmanlab.com/experiments/alicia/teaching/experiment/?hitId=3SD15I2WD2G0NA4TSPXGB81L5S7630&workerId=A25FH7PXC446RG&assignmentId=3MYYFCXHJ4TPOJAXVIGNMN23CWB4GK&a=HFYM9&tp_a=HFYM9&b=3MYYFCXHJ4TPOJAXVIGNMN23CWB4GK&tp_b=3MYYFCXHJ4TPOJAXVIGNMN23CWB4GK&c=365799&tp_c=365799","heads":17,"tails":13,"studentIndex":4,"studentTrueHypers":{"a":2,"b":8},"studentGuess":0.475,"delta":0.025000000000000022,"totalExamples":30,"bonus":0.2,"bonusSoFar":0.62},{"rt":29908,"response":{"heads":"19","tails":"11"},"type":"response","condition":"seqFeedback","trueTheta":0.5,"classrooms":["A","B"],"studentTrueClassroom":"A","exampleSet":"first","trial_type":"survey-html-form","trial_index":51,"time_elapsed":2161586,"internal_node_id":"0.0-43.0-0.0","params":{"nStudents":24,"maxFlips":30,"completionMinutes":45,"basePay":8,"maxBonus":9,"perTrialBonus":0.5,"perTrialBonusThreshold":0.05,"exampleCost":0.01},"classroomParams":{"A":{"a":1,"b":4},"B":{"a":4,"b":1},"C":{"a":2,"b":8},"D":{"a":8,"b":2}},"conditions":["nonSeqFull","nonSeqPartial","seqNoFeedback","seqFeedback"],"classroomPairings":[["A","B"],["C","D"]],"coinWeights":[0.2,0.5,0.8],"subjectId":"A25FH7PXC446RG","assignmentId":"3MYYFCXHJ4TPOJAXVIGNMN23CWB4GK","hitId":"3SD15I2WD2G0NA4TSPXGB81L5S7630","url":"https://gershmanlab.com/experiments/alicia/teaching/experiment/?hitId=3SD15I2WD2G0NA4TSPXGB81L5S7630&workerId=A25FH7PXC446RG&assignmentId=3MYYFCXHJ4TPOJAXVIGNMN23CWB4GK&a=HFYM9&tp_a=HFYM9&b=3MYYFCXHJ4TPOJAXVIGNMN23CWB4GK&tp_b=3MYYFCXHJ4TPOJAXVIGNMN23CWB4GK&c=365799&tp_c=365799","heads":19,"tails":11,"studentIndex":5,"studentTrueHypers":{"a":1,"b":4},"studentGuess":0.5714285714285714,"delta":0.0714285714285714,"totalExamples":30,"bonusSoFar":0.62},{"rt":21618,"response":{"heads":"17","tails":"13"},"type":"response","condition":"seqFeedback","trueTheta":0.5,"classrooms":["A","B"],"studentTrueClassroom":"A","exampleSet":"second","trial_type":"survey-html-form","trial_index":55,"time_elapsed":2197687,"internal_node_id":"0.0-47.0-0.0","params":{"nStudents":24,"maxFlips":30,"completionMinutes":45,"basePay":8,"maxBonus":9,"perTrialBonus":0.5,"perTrialBonusThreshold":0.05,"exampleCost":0.01},"classroomParams":{"A":{"a":1,"b":4},"B":{"a":4,"b":1},"C":{"a":2,"b":8},"D":{"a":8,"b":2}},"conditions":["nonSeqFull","nonSeqPartial","seqNoFeedback","seqFeedback"],"classroomPairings":[["A","B"],["C","D"]],"coinWeights":[0.2,0.5,0.8],"subjectId":"A25FH7PXC446RG","assignmentId":"3MYYFCXHJ4TPOJAXVIGNMN23CWB4GK","hitId":"3SD15I2WD2G0NA4TSPXGB81L5S7630","url":"https://gershmanlab.com/experiments/alicia/teaching/experiment/?hitId=3SD15I2WD2G0NA4TSPXGB81L5S7630&workerId=A25FH7PXC446RG&assignmentId=3MYYFCXHJ4TPOJAXVIGNMN23CWB4GK&a=HFYM9&tp_a=HFYM9&b=3MYYFCXHJ4TPOJAXVIGNMN23CWB4GK&tp_b=3MYYFCXHJ4TPOJAXVIGNMN23CWB4GK&c=365799&tp_c=365799","firstResponseHeads":19,"firstResponseTails":11,"secondResponseHeads":17,"secondResponseTails":13,"totalHeads":36,"totalTails":24,"studentIndex":5,"studentTrueHypers":{"a":1,"b":4},"studentGuess":0.5692307692307692,"delta":0.0692307692307692,"bonus":0,"bonusSoFar":0.62,"totalExamples":60},{"rt":27698,"response":{"heads":"16","tails":"14"},"type":"response","condition":"nonSeqPartial","trueTheta":0.5,"classrooms":["A","B"],"studentTrueClassroom":"A","exampleSet":"first","trial_type":"survey-html-form","trial_index":61,"time_elapsed":2239502,"internal_node_id":"0.0-53.0-0.0","params":{"nStudents":24,"maxFlips":30,"completionMinutes":45,"basePay":8,"maxBonus":9,"perTrialBonus":0.5,"perTrialBonusThreshold":0.05,"exampleCost":0.01},"classroomParams":{"A":{"a":1,"b":4},"B":{"a":4,"b":1},"C":{"a":2,"b":8},"D":{"a":8,"b":2}},"conditions":["nonSeqFull","nonSeqPartial","seqNoFeedback","seqFeedback"],"classroomPairings":[["A","B"],["C","D"]],"coinWeights":[0.2,0.5,0.8],"subjectId":"A25FH7PXC446RG","assignmentId":"3MYYFCXHJ4TPOJAXVIGNMN23CWB4GK","hitId":"3SD15I2WD2G0NA4TSPXGB81L5S7630","url":"https://gershmanlab.com/experiments/alicia/teaching/experiment/?hitId=3SD15I2WD2G0NA4TSPXGB81L5S7630&workerId=A25FH7PXC446RG&assignmentId=3MYYFCXHJ4TPOJAXVIGNMN23CWB4GK&a=HFYM9&tp_a=HFYM9&b=3MYYFCXHJ4TPOJAXVIGNMN23CWB4GK&tp_b=3MYYFCXHJ4TPOJAXVIGNMN23CWB4GK&c=365799&tp_c=365799","heads":16,"tails":14,"studentIndex":6,"studentTrueHypers":{"a":1,"b":4},"studentGuess":0.4857142857142857,"delta":0.01428571428571429,"totalExamples":30,"bonus":0.2,"bonusSoFar":0.82},{"rt":11787,"response":{"heads":"22","tails":"8"},"type":"response","condition":"nonSeqPartial","trueTheta":0.8,"classrooms":["A","B"],"studentTrueClassroom":"B","exampleSet":"first","trial_type":"survey-html-form","trial_index":67,"time_elapsed":2267573,"internal_node_id":"0.0-59.0-0.0","params":{"nStudents":24,"maxFlips":30,"completionMinutes":45,"basePay":8,"maxBonus":9,"perTrialBonus":0.5,"perTrialBonusThreshold":0.05,"exampleCost":0.01},"classroomParams":{"A":{"a":1,"b":4},"B":{"a":4,"b":1},"C":{"a":2,"b":8},"D":{"a":8,"b":2}},"conditions":["nonSeqFull","nonSeqPartial","seqNoFeedback","seqFeedback"],"classroomPairings":[["A","B"],["C","D"]],"coinWeights":[0.2,0.5,0.8],"subjectId":"A25FH7PXC446RG","assignmentId":"3MYYFCXHJ4TPOJAXVIGNMN23CWB4GK","hitId":"3SD15I2WD2G0NA4TSPXGB81L5S7630","url":"https://gershmanlab.com/experiments/alicia/teaching/experiment/?hitId=3SD15I2WD2G0NA4TSPXGB81L5S7630&workerId=A25FH7PXC446RG&assignmentId=3MYYFCXHJ4TPOJAXVIGNMN23CWB4GK&a=HFYM9&tp_a=HFYM9&b=3MYYFCXHJ4TPOJAXVIGNMN23CWB4GK&tp_b=3MYYFCXHJ4TPOJAXVIGNMN23CWB4GK&c=365799&tp_c=365799","heads":22,"tails":8,"studentIndex":7,"studentTrueHypers":{"a":4,"b":1},"studentGuess":0.7428571428571429,"delta":0.05714285714285716,"totalExamples":30,"bonus":0,"bonusSoFar":0.82},{"rt":10376,"response":{"heads":"26","tails":"4"},"type":"response","condition":"nonSeqPartial","trueTheta":0.8,"classrooms":["C","D"],"studentTrueClassroom":"D","exampleSet":"first","trial_type":"survey-html-form","trial_index":73,"time_elapsed":2292448,"internal_node_id":"0.0-65.0-0.0","params":{"nStudents":24,"maxFlips":30,"completionMinutes":45,"basePay":8,"maxBonus":9,"perTrialBonus":0.5,"perTrialBonusThreshold":0.05,"exampleCost":0.01},"classroomParams":{"A":{"a":1,"b":4},"B":{"a":4,"b":1},"C":{"a":2,"b":8},"D":{"a":8,"b":2}},"conditions":["nonSeqFull","nonSeqPartial","seqNoFeedback","seqFeedback"],"classroomPairings":[["A","B"],["C","D"]],"coinWeights":[0.2,0.5,0.8],"subjectId":"A25FH7PXC446RG","assignmentId":"3MYYFCXHJ4TPOJAXVIGNMN23CWB4GK","hitId":"3SD15I2WD2G0NA4TSPXGB81L5S7630","url":"https://gershmanlab.com/experiments/alicia/teaching/experiment/?hitId=3SD15I2WD2G0NA4TSPXGB81L5S7630&workerId=A25FH7PXC446RG&assignmentId=3MYYFCXHJ4TPOJAXVIGNMN23CWB4GK&a=HFYM9&tp_a=HFYM9&b=3MYYFCXHJ4TPOJAXVIGNMN23CWB4GK&tp_b=3MYYFCXHJ4TPOJAXVIGNMN23CWB4GK&c=365799&tp_c=365799","heads":26,"tails":4,"studentIndex":8,"studentTrueHypers":{"a":8,"b":2},"studentGuess":0.85,"delta":0.04999999999999993,"totalExamples":30,"bonus":0.2,"bonusSoFar":1.02},{"rt":16325,"response":{"heads":"4","tails":"26"},"type":"response","condition":"nonSeqFull","trueTheta":0.2,"classrooms":["A","B"],"studentTrueClassroom":"A","exampleSet":"first","trial_type":"survey-html-form","trial_index":79,"time_elapsed":2323351,"internal_node_id":"0.0-71.0-0.0","params":{"nStudents":24,"maxFlips":30,"completionMinutes":45,"basePay":8,"maxBonus":9,"perTrialBonus":0.5,"perTrialBonusThreshold":0.05,"exampleCost":0.01},"classroomParams":{"A":{"a":1,"b":4},"B":{"a":4,"b":1},"C":{"a":2,"b":8},"D":{"a":8,"b":2}},"conditions":["nonSeqFull","nonSeqPartial","seqNoFeedback","seqFeedback"],"classroomPairings":[["A","B"],["C","D"]],"coinWeights":[0.2,0.5,0.8],"subjectId":"A25FH7PXC446RG","assignmentId":"3MYYFCXHJ4TPOJAXVIGNMN23CWB4GK","hitId":"3SD15I2WD2G0NA4TSPXGB81L5S7630","url":"https://gershmanlab.com/experiments/alicia/teaching/experiment/?hitId=3SD15I2WD2G0NA4TSPXGB81L5S7630&workerId=A25FH7PXC446RG&assignmentId=3MYYFCXHJ4TPOJAXVIGNMN23CWB4GK&a=HFYM9&tp_a=HFYM9&b=3MYYFCXHJ4TPOJAXVIGNMN23CWB4GK&tp_b=3MYYFCXHJ4TPOJAXVIGNMN23CWB4GK&c=365799&tp_c=365799","heads":4,"tails":26,"studentIndex":9,"studentTrueHypers":{"a":1,"b":4},"studentGuess":0.14285714285714285,"delta":0.05714285714285716,"totalExamples":30,"bonus":0,"bonusSoFar":1.02},{"rt":17339,"response":{"heads":"1","tails":"26"},"type":"response","condition":"seqNoFeedback","trueTheta":0.2,"classrooms":["A","B"],"studentTrueClassroom":"B","exampleSet":"first","trial_type":"survey-html-form","trial_index":85,"time_elapsed":2356519,"internal_node_id":"0.0-77.0-0.0","params":{"nStudents":24,"maxFlips":30,"completionMinutes":45,"basePay":8,"maxBonus":9,"perTrialBonus":0.5,"perTrialBonusThreshold":0.05,"exampleCost":0.01},"classroomParams":{"A":{"a":1,"b":4},"B":{"a":4,"b":1},"C":{"a":2,"b":8},"D":{"a":8,"b":2}},"conditions":["nonSeqFull","nonSeqPartial","seqNoFeedback","seqFeedback"],"classroomPairings":[["A","B"],["C","D"]],"coinWeights":[0.2,0.5,0.8],"subjectId":"A25FH7PXC446RG","assignmentId":"3MYYFCXHJ4TPOJAXVIGNMN23CWB4GK","hitId":"3SD15I2WD2G0NA4TSPXGB81L5S7630","url":"https://gershmanlab.com/experiments/alicia/teaching/experiment/?hitId=3SD15I2WD2G0NA4TSPXGB81L5S7630&workerId=A25FH7PXC446RG&assignmentId=3MYYFCXHJ4TPOJAXVIGNMN23CWB4GK&a=HFYM9&tp_a=HFYM9&b=3MYYFCXHJ4TPOJAXVIGNMN23CWB4GK&tp_b=3MYYFCXHJ4TPOJAXVIGNMN23CWB4GK&c=365799&tp_c=365799","heads":1,"tails":26,"studentIndex":10,"studentTrueHypers":{"a":4,"b":1},"studentGuess":0.15625,"delta":0.04375000000000001,"totalExamples":27,"bonusSoFar":1.02},{"rt":33906,"response":{"heads":"2","tails":"26"},"type":"response","condition":"seqNoFeedback","trueTheta":0.2,"classrooms":["A","B"],"studentTrueClassroom":"B","exampleSet":"second","trial_type":"survey-html-form","trial_index":88,"time_elapsed":2397435,"internal_node_id":"0.0-80.0-0.0","params":{"nStudents":24,"maxFlips":30,"completionMinutes":45,"basePay":8,"maxBonus":9,"perTrialBonus":0.5,"perTrialBonusThreshold":0.05,"exampleCost":0.01},"classroomParams":{"A":{"a":1,"b":4},"B":{"a":4,"b":1},"C":{"a":2,"b":8},"D":{"a":8,"b":2}},"conditions":["nonSeqFull","nonSeqPartial","seqNoFeedback","seqFeedback"],"classroomPairings":[["A","B"],["C","D"]],"coinWeights":[0.2,0.5,0.8],"subjectId":"A25FH7PXC446RG","assignmentId":"3MYYFCXHJ4TPOJAXVIGNMN23CWB4GK","hitId":"3SD15I2WD2G0NA4TSPXGB81L5S7630","url":"https://gershmanlab.com/experiments/alicia/teaching/experiment/?hitId=3SD15I2WD2G0NA4TSPXGB81L5S7630&workerId=A25FH7PXC446RG&assignmentId=3MYYFCXHJ4TPOJAXVIGNMN23CWB4GK&a=HFYM9&tp_a=HFYM9&b=3MYYFCXHJ4TPOJAXVIGNMN23CWB4GK&tp_b=3MYYFCXHJ4TPOJAXVIGNMN23CWB4GK&c=365799&tp_c=365799","firstResponseHeads":1,"firstResponseTails":26,"secondResponseHeads":2,"secondResponseTails":26,"totalHeads":3,"totalTails":52,"studentIndex":10,"studentTrueHypers":{"a":4,"b":1},"studentGuess":0.11666666666666667,"delta":0.08333333333333334,"bonus":0,"bonusSoFar":1.02,"totalExamples":55},{"rt":19259,"response":{"heads":"8","tails":"22"},"type":"response","condition":"nonSeqPartial","trueTheta":0.2,"classrooms":["A","B"],"studentTrueClassroom":"B","exampleSet":"first","trial_type":"survey-html-form","trial_index":94,"time_elapsed":2431684,"internal_node_id":"0.0-86.0-0.0","params":{"nStudents":24,"maxFlips":30,"completionMinutes":45,"basePay":8,"maxBonus":9,"perTrialBonus":0.5,"perTrialBonusThreshold":0.05,"exampleCost":0.01},"classroomParams":{"A":{"a":1,"b":4},"B":{"a":4,"b":1},"C":{"a":2,"b":8},"D":{"a":8,"b":2}},"conditions":["nonSeqFull","nonSeqPartial","seqNoFeedback","seqFeedback"],"classroomPairings":[["A","B"],["C","D"]],"coinWeights":[0.2,0.5,0.8],"subjectId":"A25FH7PXC446RG","assignmentId":"3MYYFCXHJ4TPOJAXVIGNMN23CWB4GK","hitId":"3SD15I2WD2G0NA4TSPXGB81L5S7630","url":"https://gershmanlab.com/experiments/alicia/teaching/experiment/?hitId=3SD15I2WD2G0NA4TSPXGB81L5S7630&workerId=A25FH7PXC446RG&assignmentId=3MYYFCXHJ4TPOJAXVIGNMN23CWB4GK&a=HFYM9&tp_a=HFYM9&b=3MYYFCXHJ4TPOJAXVIGNMN23CWB4GK&tp_b=3MYYFCXHJ4TPOJAXVIGNMN23CWB4GK&c=365799&tp_c=365799","heads":8,"tails":22,"studentIndex":11,"studentTrueHypers":{"a":4,"b":1},"studentGuess":0.34285714285714286,"delta":0.14285714285714285,"totalExamples":30,"bonus":0,"bonusSoFar":1.02},{"rt":11570,"response":{"heads":"27","tails":"3"},"type":"response","condition":"nonSeqFull","trueTheta":0.8,"classrooms":["A","B"],"studentTrueClassroom":"A","exampleSet":"first","trial_type":"survey-html-form","trial_index":100,"time_elapsed":2454971,"internal_node_id":"0.0-92.0-0.0","params":{"nStudents":24,"maxFlips":30,"completionMinutes":45,"basePay":8,"maxBonus":9,"perTrialBonus":0.5,"perTrialBonusThreshold":0.05,"exampleCost":0.01},"classroomParams":{"A":{"a":1,"b":4},"B":{"a":4,"b":1},"C":{"a":2,"b":8},"D":{"a":8,"b":2}},"conditions":["nonSeqFull","nonSeqPartial","seqNoFeedback","seqFeedback"],"classroomPairings":[["A","B"],["C","D"]],"coinWeights":[0.2,0.5,0.8],"subjectId":"A25FH7PXC446RG","assignmentId":"3MYYFCXHJ4TPOJAXVIGNMN23CWB4GK","hitId":"3SD15I2WD2G0NA4TSPXGB81L5S7630","url":"https://gershmanlab.com/experiments/alicia/teaching/experiment/?hitId=3SD15I2WD2G0NA4TSPXGB81L5S7630&workerId=A25FH7PXC446RG&assignmentId=3MYYFCXHJ4TPOJAXVIGNMN23CWB4GK&a=HFYM9&tp_a=HFYM9&b=3MYYFCXHJ4TPOJAXVIGNMN23CWB4GK&tp_b=3MYYFCXHJ4TPOJAXVIGNMN23CWB4GK&c=365799&tp_c=365799","heads":27,"tails":3,"studentIndex":12,"studentTrueHypers":{"a":1,"b":4},"studentGuess":0.8,"delta":0,"totalExamples":30,"bonus":0.2,"bonusSoFar":1.22},{"rt":14877,"response":{"heads":"20","tails":"10"},"type":"response","condition":"nonSeqFull","trueTheta":0.5,"classrooms":["C","D"],"studentTrueClassroom":"C","exampleSet":"first","trial_type":"survey-html-form","trial_index":106,"time_elapsed":2492655,"internal_node_id":"0.0-98.0-0.0","params":{"nStudents":24,"maxFlips":30,"completionMinutes":45,"basePay":8,"maxBonus":9,"perTrialBonus":0.5,"perTrialBonusThreshold":0.05,"exampleCost":0.01},"classroomParams":{"A":{"a":1,"b":4},"B":{"a":4,"b":1},"C":{"a":2,"b":8},"D":{"a":8,"b":2}},"conditions":["nonSeqFull","nonSeqPartial","seqNoFeedback","seqFeedback"],"classroomPairings":[["A","B"],["C","D"]],"coinWeights":[0.2,0.5,0.8],"subjectId":"A25FH7PXC446RG","assignmentId":"3MYYFCXHJ4TPOJAXVIGNMN23CWB4GK","hitId":"3SD15I2WD2G0NA4TSPXGB81L5S7630","url":"https://gershmanlab.com/experiments/alicia/teaching/experiment/?hitId=3SD15I2WD2G0NA4TSPXGB81L5S7630&workerId=A25FH7PXC446RG&assignmentId=3MYYFCXHJ4TPOJAXVIGNMN23CWB4GK&a=HFYM9&tp_a=HFYM9&b=3MYYFCXHJ4TPOJAXVIGNMN23CWB4GK&tp_b=3MYYFCXHJ4TPOJAXVIGNMN23CWB4GK&c=365799&tp_c=365799","heads":20,"tails":10,"studentIndex":13,"studentTrueHypers":{"a":2,"b":8},"studentGuess":0.55,"delta":0.050000000000000044,"totalExamples":30,"bonus":0,"bonusSoFar":1.22},{"rt":23347,"response":{"heads":"21","tails":"9"},"type":"response","condition":"seqNoFeedback","trueTheta":0.5,"classrooms":["A","B"],"studentTrueClassroom":"A","exampleSet":"first","trial_type":"survey-html-form","trial_index":112,"time_elapsed":2530497,"internal_node_id":"0.0-104.0-0.0","params":{"nStudents":24,"maxFlips":30,"completionMinutes":45,"basePay":8,"maxBonus":9,"perTrialBonus":0.5,"perTrialBonusThreshold":0.05,"exampleCost":0.01},"classroomParams":{"A":{"a":1,"b":4},"B":{"a":4,"b":1},"C":{"a":2,"b":8},"D":{"a":8,"b":2}},"conditions":["nonSeqFull","nonSeqPartial","seqNoFeedback","seqFeedback"],"classroomPairings":[["A","B"],["C","D"]],"coinWeights":[0.2,0.5,0.8],"subjectId":"A25FH7PXC446RG","assignmentId":"3MYYFCXHJ4TPOJAXVIGNMN23CWB4GK","hitId":"3SD15I2WD2G0NA4TSPXGB81L5S7630","url":"https://gershmanlab.com/experiments/alicia/teaching/experiment/?hitId=3SD15I2WD2G0NA4TSPXGB81L5S7630&workerId=A25FH7PXC446RG&assignmentId=3MYYFCXHJ4TPOJAXVIGNMN23CWB4GK&a=HFYM9&tp_a=HFYM9&b=3MYYFCXHJ4TPOJAXVIGNMN23CWB4GK&tp_b=3MYYFCXHJ4TPOJAXVIGNMN23CWB4GK&c=365799&tp_c=365799","heads":21,"tails":9,"studentIndex":14,"studentTrueHypers":{"a":1,"b":4},"studentGuess":0.6285714285714286,"delta":0.12857142857142856,"totalExamples":30,"bonusSoFar":1.22},{"rt":26516,"response":{"heads":"23","tails":"7"},"type":"response","condition":"seqNoFeedback","trueTheta":0.5,"classrooms":["A","B"],"studentTrueClassroom":"A","exampleSet":"second","trial_type":"survey-html-form","trial_index":115,"time_elapsed":2564281,"internal_node_id":"0.0-107.0-0.0","params":{"nStudents":24,"maxFlips":30,"completionMinutes":45,"basePay":8,"maxBonus":9,"perTrialBonus":0.5,"perTrialBonusThreshold":0.05,"exampleCost":0.01},"classroomParams":{"A":{"a":1,"b":4},"B":{"a":4,"b":1},"C":{"a":2,"b":8},"D":{"a":8,"b":2}},"conditions":["nonSeqFull","nonSeqPartial","seqNoFeedback","seqFeedback"],"classroomPairings":[["A","B"],["C","D"]],"coinWeights":[0.2,0.5,0.8],"subjectId":"A25FH7PXC446RG","assignmentId":"3MYYFCXHJ4TPOJAXVIGNMN23CWB4GK","hitId":"3SD15I2WD2G0NA4TSPXGB81L5S7630","url":"https://gershmanlab.com/experiments/alicia/teaching/experiment/?hitId=3SD15I2WD2G0NA4TSPXGB81L5S7630&workerId=A25FH7PXC446RG&assignmentId=3MYYFCXHJ4TPOJAXVIGNMN23CWB4GK&a=HFYM9&tp_a=HFYM9&b=3MYYFCXHJ4TPOJAXVIGNMN23CWB4GK&tp_b=3MYYFCXHJ4TPOJAXVIGNMN23CWB4GK&c=365799&tp_c=365799","firstResponseHeads":21,"firstResponseTails":9,"secondResponseHeads":23,"secondResponseTails":7,"totalHeads":44,"totalTails":16,"studentIndex":14,"studentTrueHypers":{"a":1,"b":4},"studentGuess":0.6923076923076923,"delta":0.1923076923076923,"bonus":0,"bonusSoFar":1.22,"totalExamples":60},{"rt":13175,"response":{"heads":"18","tails":"12"},"type":"response","condition":"seqFeedback","trueTheta":0.5,"classrooms":["C","D"],"studentTrueClassroom":"D","exampleSet":"first","trial_type":"survey-html-form","trial_index":121,"time_elapsed":2592597,"internal_node_id":"0.0-113.0-0.0","params":{"nStudents":24,"maxFlips":30,"completionMinutes":45,"basePay":8,"maxBonus":9,"perTrialBonus":0.5,"perTrialBonusThreshold":0.05,"exampleCost":0.01},"classroomParams":{"A":{"a":1,"b":4},"B":{"a":4,"b":1},"C":{"a":2,"b":8},"D":{"a":8,"b":2}},"conditions":["nonSeqFull","nonSeqPartial","seqNoFeedback","seqFeedback"],"classroomPairings":[["A","B"],["C","D"]],"coinWeights":[0.2,0.5,0.8],"subjectId":"A25FH7PXC446RG","assignmentId":"3MYYFCXHJ4TPOJAXVIGNMN23CWB4GK","hitId":"3SD15I2WD2G0NA4TSPXGB81L5S7630","url":"https://gershmanlab.com/experiments/alicia/teaching/experiment/?hitId=3SD15I2WD2G0NA4TSPXGB81L5S7630&workerId=A25FH7PXC446RG&assignmentId=3MYYFCXHJ4TPOJAXVIGNMN23CWB4GK&a=HFYM9&tp_a=HFYM9&b=3MYYFCXHJ4TPOJAXVIGNMN23CWB4GK&tp_b=3MYYFCXHJ4TPOJAXVIGNMN23CWB4GK&c=365799&tp_c=365799","heads":18,"tails":12,"studentIndex":15,"studentTrueHypers":{"a":8,"b":2},"studentGuess":0.65,"delta":0.15000000000000002,"totalExamples":30,"bonusSoFar":1.22},{"rt":16305,"response":{"heads":"15","tails":"15"},"type":"response","condition":"seqFeedback","trueTheta":0.5,"classrooms":["C","D"],"studentTrueClassroom":"D","exampleSet":"second","trial_type":"survey-html-form","trial_index":125,"time_elapsed":2617971,"internal_node_id":"0.0-117.0-0.0","params":{"nStudents":24,"maxFlips":30,"completionMinutes":45,"basePay":8,"maxBonus":9,"perTrialBonus":0.5,"perTrialBonusThreshold":0.05,"exampleCost":0.01},"classroomParams":{"A":{"a":1,"b":4},"B":{"a":4,"b":1},"C":{"a":2,"b":8},"D":{"a":8,"b":2}},"conditions":["nonSeqFull","nonSeqPartial","seqNoFeedback","seqFeedback"],"classroomPairings":[["A","B"],["C","D"]],"coinWeights":[0.2,0.5,0.8],"subjectId":"A25FH7PXC446RG","assignmentId":"3MYYFCXHJ4TPOJAXVIGNMN23CWB4GK","hitId":"3SD15I2WD2G0NA4TSPXGB81L5S7630","url":"https://gershmanlab.com/experiments/alicia/teaching/experiment/?hitId=3SD15I2WD2G0NA4TSPXGB81L5S7630&workerId=A25FH7PXC446RG&assignmentId=3MYYFCXHJ4TPOJAXVIGNMN23CWB4GK&a=HFYM9&tp_a=HFYM9&b=3MYYFCXHJ4TPOJAXVIGNMN23CWB4GK&tp_b=3MYYFCXHJ4TPOJAXVIGNMN23CWB4GK&c=365799&tp_c=365799","firstResponseHeads":18,"firstResponseTails":12,"secondResponseHeads":15,"secondResponseTails":15,"totalHeads":33,"totalTails":27,"studentIndex":15,"studentTrueHypers":{"a":8,"b":2},"studentGuess":0.5857142857142857,"delta":0.08571428571428574,"bonus":0,"bonusSoFar":1.22,"totalExamples":60},{"rt":16209,"response":{"heads":"3","tails":"27"},"type":"response","condition":"seqFeedback","trueTheta":0.2,"classrooms":["A","B"],"studentTrueClassroom":"B","exampleSet":"first","trial_type":"survey-html-form","trial_index":131,"time_elapsed":2647902,"internal_node_id":"0.0-123.0-0.0","params":{"nStudents":24,"maxFlips":30,"completionMinutes":45,"basePay":8,"maxBonus":9,"perTrialBonus":0.5,"perTrialBonusThreshold":0.05,"exampleCost":0.01},"classroomParams":{"A":{"a":1,"b":4},"B":{"a":4,"b":1},"C":{"a":2,"b":8},"D":{"a":8,"b":2}},"conditions":["nonSeqFull","nonSeqPartial","seqNoFeedback","seqFeedback"],"classroomPairings":[["A","B"],["C","D"]],"coinWeights":[0.2,0.5,0.8],"subjectId":"A25FH7PXC446RG","assignmentId":"3MYYFCXHJ4TPOJAXVIGNMN23CWB4GK","hitId":"3SD15I2WD2G0NA4TSPXGB81L5S7630","url":"https://gershmanlab.com/experiments/alicia/teaching/experiment/?hitId=3SD15I2WD2G0NA4TSPXGB81L5S7630&workerId=A25FH7PXC446RG&assignmentId=3MYYFCXHJ4TPOJAXVIGNMN23CWB4GK&a=HFYM9&tp_a=HFYM9&b=3MYYFCXHJ4TPOJAXVIGNMN23CWB4GK&tp_b=3MYYFCXHJ4TPOJAXVIGNMN23CWB4GK&c=365799&tp_c=365799","heads":3,"tails":27,"studentIndex":16,"studentTrueHypers":{"a":4,"b":1},"studentGuess":0.2,"delta":0,"totalExamples":30,"bonusSoFar":1.22},{"rt":12629,"response":{"heads":"3","tails":"27"},"type":"response","condition":"seqFeedback","trueTheta":0.2,"classrooms":["A","B"],"studentTrueClassroom":"B","exampleSet":"second","trial_type":"survey-html-form","trial_index":135,"time_elapsed":2672290,"internal_node_id":"0.0-127.0-0.0","params":{"nStudents":24,"maxFlips":30,"completionMinutes":45,"basePay":8,"maxBonus":9,"perTrialBonus":0.5,"perTrialBonusThreshold":0.05,"exampleCost":0.01},"classroomParams":{"A":{"a":1,"b":4},"B":{"a":4,"b":1},"C":{"a":2,"b":8},"D":{"a":8,"b":2}},"conditions":["nonSeqFull","nonSeqPartial","seqNoFeedback","seqFeedback"],"classroomPairings":[["A","B"],["C","D"]],"coinWeights":[0.2,0.5,0.8],"subjectId":"A25FH7PXC446RG","assignmentId":"3MYYFCXHJ4TPOJAXVIGNMN23CWB4GK","hitId":"3SD15I2WD2G0NA4TSPXGB81L5S7630","url":"https://gershmanlab.com/experiments/alicia/teaching/experiment/?hitId=3SD15I2WD2G0NA4TSPXGB81L5S7630&workerId=A25FH7PXC446RG&assignmentId=3MYYFCXHJ4TPOJAXVIGNMN23CWB4GK&a=HFYM9&tp_a=HFYM9&b=3MYYFCXHJ4TPOJAXVIGNMN23CWB4GK&tp_b=3MYYFCXHJ4TPOJAXVIGNMN23CWB4GK&c=365799&tp_c=365799","firstResponseHeads":3,"firstResponseTails":27,"secondResponseHeads":3,"secondResponseTails":27,"totalHeads":6,"totalTails":54,"studentIndex":16,"studentTrueHypers":{"a":4,"b":1},"studentGuess":0.15384615384615385,"delta":0.046153846153846156,"bonus":0,"bonusSoFar":1.22,"totalExamples":60},{"rt":14604,"response":{"heads":"3","tails":"27"},"type":"response","condition":"seqNoFeedback","trueTheta":0.2,"classrooms":["C","D"],"studentTrueClassroom":"D","exampleSet":"first","trial_type":"survey-html-form","trial_index":141,"time_elapsed":2706951,"internal_node_id":"0.0-133.0-0.0","params":{"nStudents":24,"maxFlips":30,"completionMinutes":45,"basePay":8,"maxBonus":9,"perTrialBonus":0.5,"perTrialBonusThreshold":0.05,"exampleCost":0.01},"classroomParams":{"A":{"a":1,"b":4},"B":{"a":4,"b":1},"C":{"a":2,"b":8},"D":{"a":8,"b":2}},"conditions":["nonSeqFull","nonSeqPartial","seqNoFeedback","seqFeedback"],"classroomPairings":[["A","B"],["C","D"]],"coinWeights":[0.2,0.5,0.8],"subjectId":"A25FH7PXC446RG","assignmentId":"3MYYFCXHJ4TPOJAXVIGNMN23CWB4GK","hitId":"3SD15I2WD2G0NA4TSPXGB81L5S7630","url":"https://gershmanlab.com/experiments/alicia/teaching/experiment/?hitId=3SD15I2WD2G0NA4TSPXGB81L5S7630&workerId=A25FH7PXC446RG&assignmentId=3MYYFCXHJ4TPOJAXVIGNMN23CWB4GK&a=HFYM9&tp_a=HFYM9&b=3MYYFCXHJ4TPOJAXVIGNMN23CWB4GK&tp_b=3MYYFCXHJ4TPOJAXVIGNMN23CWB4GK&c=365799&tp_c=365799","heads":3,"tails":27,"studentIndex":17,"studentTrueHypers":{"a":8,"b":2},"studentGuess":0.275,"delta":0.07500000000000001,"totalExamples":30,"bonusSoFar":1.22},{"rt":17978,"response":{"heads":"2","tails":"28"},"type":"response","condition":"seqNoFeedback","trueTheta":0.2,"classrooms":["C","D"],"studentTrueClassroom":"D","exampleSet":"second","trial_type":"survey-html-form","trial_index":144,"time_elapsed":2732194,"internal_node_id":"0.0-136.0-0.0","params":{"nStudents":24,"maxFlips":30,"completionMinutes":45,"basePay":8,"maxBonus":9,"perTrialBonus":0.5,"perTrialBonusThreshold":0.05,"exampleCost":0.01},"classroomParams":{"A":{"a":1,"b":4},"B":{"a":4,"b":1},"C":{"a":2,"b":8},"D":{"a":8,"b":2}},"conditions":["nonSeqFull","nonSeqPartial","seqNoFeedback","seqFeedback"],"classroomPairings":[["A","B"],["C","D"]],"coinWeights":[0.2,0.5,0.8],"subjectId":"A25FH7PXC446RG","assignmentId":"3MYYFCXHJ4TPOJAXVIGNMN23CWB4GK","hitId":"3SD15I2WD2G0NA4TSPXGB81L5S7630","url":"https://gershmanlab.com/experiments/alicia/teaching/experiment/?hitId=3SD15I2WD2G0NA4TSPXGB81L5S7630&workerId=A25FH7PXC446RG&assignmentId=3MYYFCXHJ4TPOJAXVIGNMN23CWB4GK&a=HFYM9&tp_a=HFYM9&b=3MYYFCXHJ4TPOJAXVIGNMN23CWB4GK&tp_b=3MYYFCXHJ4TPOJAXVIGNMN23CWB4GK&c=365799&tp_c=365799","firstResponseHeads":3,"firstResponseTails":27,"secondResponseHeads":2,"secondResponseTails":28,"totalHeads":5,"totalTails":55,"studentIndex":17,"studentTrueHypers":{"a":8,"b":2},"studentGuess":0.18571428571428572,"delta":0.01428571428571429,"bonus":0,"bonusSoFar":1.22,"totalExamples":60},{"rt":13338,"response":{"heads":"28","tails":"2"},"type":"response","condition":"seqFeedback","trueTheta":0.8,"classrooms":["C","D"],"studentTrueClassroom":"D","exampleSet":"first","trial_type":"survey-html-form","trial_index":150,"time_elapsed":2765709,"internal_node_id":"0.0-142.0-0.0","params":{"nStudents":24,"maxFlips":30,"completionMinutes":45,"basePay":8,"maxBonus":9,"perTrialBonus":0.5,"perTrialBonusThreshold":0.05,"exampleCost":0.01},"classroomParams":{"A":{"a":1,"b":4},"B":{"a":4,"b":1},"C":{"a":2,"b":8},"D":{"a":8,"b":2}},"conditions":["nonSeqFull","nonSeqPartial","seqNoFeedback","seqFeedback"],"classroomPairings":[["A","B"],["C","D"]],"coinWeights":[0.2,0.5,0.8],"subjectId":"A25FH7PXC446RG","assignmentId":"3MYYFCXHJ4TPOJAXVIGNMN23CWB4GK","hitId":"3SD15I2WD2G0NA4TSPXGB81L5S7630","url":"https://gershmanlab.com/experiments/alicia/teaching/experiment/?hitId=3SD15I2WD2G0NA4TSPXGB81L5S7630&workerId=A25FH7PXC446RG&assignmentId=3MYYFCXHJ4TPOJAXVIGNMN23CWB4GK&a=HFYM9&tp_a=HFYM9&b=3MYYFCXHJ4TPOJAXVIGNMN23CWB4GK&tp_b=3MYYFCXHJ4TPOJAXVIGNMN23CWB4GK&c=365799&tp_c=365799","heads":28,"tails":2,"studentIndex":18,"studentTrueHypers":{"a":8,"b":2},"studentGuess":0.9,"delta":0.09999999999999998,"totalExamples":30,"bonusSoFar":1.22},{"rt":14001,"response":{"heads":"27","tails":"3"},"type":"response","condition":"seqFeedback","trueTheta":0.8,"classrooms":["C","D"],"studentTrueClassroom":"D","exampleSet":"second","trial_type":"survey-html-form","trial_index":154,"time_elapsed":2796783,"internal_node_id":"0.0-146.0-0.0","params":{"nStudents":24,"maxFlips":30,"completionMinutes":45,"basePay":8,"maxBonus":9,"perTrialBonus":0.5,"perTrialBonusThreshold":0.05,"exampleCost":0.01},"classroomParams":{"A":{"a":1,"b":4},"B":{"a":4,"b":1},"C":{"a":2,"b":8},"D":{"a":8,"b":2}},"conditions":["nonSeqFull","nonSeqPartial","seqNoFeedback","seqFeedback"],"classroomPairings":[["A","B"],["C","D"]],"coinWeights":[0.2,0.5,0.8],"subjectId":"A25FH7PXC446RG","assignmentId":"3MYYFCXHJ4TPOJAXVIGNMN23CWB4GK","hitId":"3SD15I2WD2G0NA4TSPXGB81L5S7630","url":"https://gershmanlab.com/experiments/alicia/teaching/experiment/?hitId=3SD15I2WD2G0NA4TSPXGB81L5S7630&workerId=A25FH7PXC446RG&assignmentId=3MYYFCXHJ4TPOJAXVIGNMN23CWB4GK&a=HFYM9&tp_a=HFYM9&b=3MYYFCXHJ4TPOJAXVIGNMN23CWB4GK&tp_b=3MYYFCXHJ4TPOJAXVIGNMN23CWB4GK&c=365799&tp_c=365799","firstResponseHeads":28,"firstResponseTails":2,"secondResponseHeads":27,"secondResponseTails":3,"totalHeads":55,"totalTails":5,"studentIndex":18,"studentTrueHypers":{"a":8,"b":2},"studentGuess":0.9,"delta":0.09999999999999998,"bonus":0,"bonusSoFar":1.22,"totalExamples":60},{"rt":9463,"response":{"heads":"2","tails":"28"},"type":"response","condition":"nonSeqFull","trueTheta":0.2,"classrooms":["C","D"],"studentTrueClassroom":"C","exampleSet":"first","trial_type":"survey-html-form","trial_index":160,"time_elapsed":2826412,"internal_node_id":"0.0-152.0-0.0","params":{"nStudents":24,"maxFlips":30,"completionMinutes":45,"basePay":8,"maxBonus":9,"perTrialBonus":0.5,"perTrialBonusThreshold":0.05,"exampleCost":0.01},"classroomParams":{"A":{"a":1,"b":4},"B":{"a":4,"b":1},"C":{"a":2,"b":8},"D":{"a":8,"b":2}},"conditions":["nonSeqFull","nonSeqPartial","seqNoFeedback","seqFeedback"],"classroomPairings":[["A","B"],["C","D"]],"coinWeights":[0.2,0.5,0.8],"subjectId":"A25FH7PXC446RG","assignmentId":"3MYYFCXHJ4TPOJAXVIGNMN23CWB4GK","hitId":"3SD15I2WD2G0NA4TSPXGB81L5S7630","url":"https://gershmanlab.com/experiments/alicia/teaching/experiment/?hitId=3SD15I2WD2G0NA4TSPXGB81L5S7630&workerId=A25FH7PXC446RG&assignmentId=3MYYFCXHJ4TPOJAXVIGNMN23CWB4GK&a=HFYM9&tp_a=HFYM9&b=3MYYFCXHJ4TPOJAXVIGNMN23CWB4GK&tp_b=3MYYFCXHJ4TPOJAXVIGNMN23CWB4GK&c=365799&tp_c=365799","heads":2,"tails":28,"studentIndex":19,"studentTrueHypers":{"a":2,"b":8},"studentGuess":0.1,"delta":0.1,"totalExamples":30,"bonus":0,"bonusSoFar":1.22},{"rt":10925,"response":{"heads":"16","tails":"15"},"type":"response","condition":"seqNoFeedback","trueTheta":0.5,"classrooms":["C","D"],"studentTrueClassroom":"D","exampleSet":"first","trial_type":"survey-html-form","trial_index":166,"time_elapsed":2851449,"internal_node_id":"0.0-158.0-0.0","params":{"nStudents":24,"maxFlips":30,"completionMinutes":45,"basePay":8,"maxBonus":9,"perTrialBonus":0.5,"perTrialBonusThreshold":0.05,"exampleCost":0.01},"classroomParams":{"A":{"a":1,"b":4},"B":{"a":4,"b":1},"C":{"a":2,"b":8},"D":{"a":8,"b":2}},"conditions":["nonSeqFull","nonSeqPartial","seqNoFeedback","seqFeedback"],"classroomPairings":[["A","B"],["C","D"]],"coinWeights":[0.2,0.5,0.8],"subjectId":"A25FH7PXC446RG","assignmentId":"3MYYFCXHJ4TPOJAXVIGNMN23CWB4GK","hitId":"3SD15I2WD2G0NA4TSPXGB81L5S7630","url":"https://gershmanlab.com/experiments/alicia/teaching/experiment/?hitId=3SD15I2WD2G0NA4TSPXGB81L5S7630&workerId=A25FH7PXC446RG&assignmentId=3MYYFCXHJ4TPOJAXVIGNMN23CWB4GK&a=HFYM9&tp_a=HFYM9&b=3MYYFCXHJ4TPOJAXVIGNMN23CWB4GK&tp_b=3MYYFCXHJ4TPOJAXVIGNMN23CWB4GK&c=365799&tp_c=365799","heads":16,"tails":15,"studentIndex":20,"studentTrueHypers":{"a":8,"b":2},"studentGuess":0.5853658536585366,"delta":0.08536585365853655,"totalExamples":31,"bonusSoFar":1.22},{"rt":10203,"response":{"heads":"16","tails":"14"},"type":"response","condition":"seqNoFeedback","trueTheta":0.5,"classrooms":["C","D"],"studentTrueClassroom":"D","exampleSet":"first","trial_type":"survey-html-form","trial_index":167,"time_elapsed":2861653,"internal_node_id":"0.0-158.1-0.1","params":{"nStudents":24,"maxFlips":30,"completionMinutes":45,"basePay":8,"maxBonus":9,"perTrialBonus":0.5,"perTrialBonusThreshold":0.05,"exampleCost":0.01},"classroomParams":{"A":{"a":1,"b":4},"B":{"a":4,"b":1},"C":{"a":2,"b":8},"D":{"a":8,"b":2}},"conditions":["nonSeqFull","nonSeqPartial","seqNoFeedback","seqFeedback"],"classroomPairings":[["A","B"],["C","D"]],"coinWeights":[0.2,0.5,0.8],"subjectId":"A25FH7PXC446RG","assignmentId":"3MYYFCXHJ4TPOJAXVIGNMN23CWB4GK","hitId":"3SD15I2WD2G0NA4TSPXGB81L5S7630","url":"https://gershmanlab.com/experiments/alicia/teaching/experiment/?hitId=3SD15I2WD2G0NA4TSPXGB81L5S7630&workerId=A25FH7PXC446RG&assignmentId=3MYYFCXHJ4TPOJAXVIGNMN23CWB4GK&a=HFYM9&tp_a=HFYM9&b=3MYYFCXHJ4TPOJAXVIGNMN23CWB4GK&tp_b=3MYYFCXHJ4TPOJAXVIGNMN23CWB4GK&c=365799&tp_c=365799","heads":16,"tails":14,"studentIndex":20,"studentTrueHypers":{"a":8,"b":2},"studentGuess":0.6,"delta":0.09999999999999998,"totalExamples":30,"bonusSoFar":1.22},{"rt":33623,"response":{"heads":"2","tails":"28"},"type":"response","condition":"seqNoFeedback","trueTheta":0.5,"classrooms":["C","D"],"studentTrueClassroom":"D","exampleSet":"second","trial_type":"survey-html-form","trial_index":170,"time_elapsed":2902035,"internal_node_id":"0.0-161.0-0.0","params":{"nStudents":24,"maxFlips":30,"completionMinutes":45,"basePay":8,"maxBonus":9,"perTrialBonus":0.5,"perTrialBonusThreshold":0.05,"exampleCost":0.01},"classroomParams":{"A":{"a":1,"b":4},"B":{"a":4,"b":1},"C":{"a":2,"b":8},"D":{"a":8,"b":2}},"conditions":["nonSeqFull","nonSeqPartial","seqNoFeedback","seqFeedback"],"classroomPairings":[["A","B"],["C","D"]],"coinWeights":[0.2,0.5,0.8],"subjectId":"A25FH7PXC446RG","assignmentId":"3MYYFCXHJ4TPOJAXVIGNMN23CWB4GK","hitId":"3SD15I2WD2G0NA4TSPXGB81L5S7630","url":"https://gershmanlab.com/experiments/alicia/teaching/experiment/?hitId=3SD15I2WD2G0NA4TSPXGB81L5S7630&workerId=A25FH7PXC446RG&assignmentId=3MYYFCXHJ4TPOJAXVIGNMN23CWB4GK&a=HFYM9&tp_a=HFYM9&b=3MYYFCXHJ4TPOJAXVIGNMN23CWB4GK&tp_b=3MYYFCXHJ4TPOJAXVIGNMN23CWB4GK&c=365799&tp_c=365799","firstResponseHeads":16,"firstResponseTails":15,"secondResponseHeads":2,"secondResponseTails":28,"totalHeads":18,"totalTails":43,"studentIndex":20,"studentTrueHypers":{"a":8,"b":2},"studentGuess":0.36619718309859156,"delta":0.13380281690140844,"bonus":0,"bonusSoFar":1.22,"totalExamples":61},{"rt":13606,"response":{"heads":"2","tails":"28"},"type":"response","condition":"seqFeedback","trueTheta":0.2,"classrooms":["C","D"],"studentTrueClassroom":"C","exampleSet":"first","trial_type":"survey-html-form","trial_index":176,"time_elapsed":2932884,"internal_node_id":"0.0-167.0-0.0","params":{"nStudents":24,"maxFlips":30,"completionMinutes":45,"basePay":8,"maxBonus":9,"perTrialBonus":0.5,"perTrialBonusThreshold":0.05,"exampleCost":0.01},"classroomParams":{"A":{"a":1,"b":4},"B":{"a":4,"b":1},"C":{"a":2,"b":8},"D":{"a":8,"b":2}},"conditions":["nonSeqFull","nonSeqPartial","seqNoFeedback","seqFeedback"],"classroomPairings":[["A","B"],["C","D"]],"coinWeights":[0.2,0.5,0.8],"subjectId":"A25FH7PXC446RG","assignmentId":"3MYYFCXHJ4TPOJAXVIGNMN23CWB4GK","hitId":"3SD15I2WD2G0NA4TSPXGB81L5S7630","url":"https://gershmanlab.com/experiments/alicia/teaching/experiment/?hitId=3SD15I2WD2G0NA4TSPXGB81L5S7630&workerId=A25FH7PXC446RG&assignmentId=3MYYFCXHJ4TPOJAXVIGNMN23CWB4GK&a=HFYM9&tp_a=HFYM9&b=3MYYFCXHJ4TPOJAXVIGNMN23CWB4GK&tp_b=3MYYFCXHJ4TPOJAXVIGNMN23CWB4GK&c=365799&tp_c=365799","heads":2,"tails":28,"studentIndex":21,"studentTrueHypers":{"a":2,"b":8},"studentGuess":0.1,"delta":0.1,"totalExamples":30,"bonusSoFar":1.22},{"rt":10687,"response":{"heads":"4","tails":"26"},"type":"response","condition":"seqFeedback","trueTheta":0.2,"classrooms":["C","D"],"studentTrueClassroom":"C","exampleSet":"second","trial_type":"survey-html-form","trial_index":180,"time_elapsed":2954936,"internal_node_id":"0.0-171.0-0.0","params":{"nStudents":24,"maxFlips":30,"completionMinutes":45,"basePay":8,"maxBonus":9,"perTrialBonus":0.5,"perTrialBonusThreshold":0.05,"exampleCost":0.01},"classroomParams":{"A":{"a":1,"b":4},"B":{"a":4,"b":1},"C":{"a":2,"b":8},"D":{"a":8,"b":2}},"conditions":["nonSeqFull","nonSeqPartial","seqNoFeedback","seqFeedback"],"classroomPairings":[["A","B"],["C","D"]],"coinWeights":[0.2,0.5,0.8],"subjectId":"A25FH7PXC446RG","assignmentId":"3MYYFCXHJ4TPOJAXVIGNMN23CWB4GK","hitId":"3SD15I2WD2G0NA4TSPXGB81L5S7630","url":"https://gershmanlab.com/experiments/alicia/teaching/experiment/?hitId=3SD15I2WD2G0NA4TSPXGB81L5S7630&workerId=A25FH7PXC446RG&assignmentId=3MYYFCXHJ4TPOJAXVIGNMN23CWB4GK&a=HFYM9&tp_a=HFYM9&b=3MYYFCXHJ4TPOJAXVIGNMN23CWB4GK&tp_b=3MYYFCXHJ4TPOJAXVIGNMN23CWB4GK&c=365799&tp_c=365799","firstResponseHeads":2,"firstResponseTails":28,"secondResponseHeads":4,"secondResponseTails":26,"totalHeads":6,"totalTails":54,"studentIndex":21,"studentTrueHypers":{"a":2,"b":8},"studentGuess":0.11428571428571428,"delta":0.08571428571428573,"bonus":0,"bonusSoFar":1.22,"totalExamples":60},{"rt":13331,"response":{"heads":"27","tails":"3"},"type":"response","condition":"seqNoFeedback","trueTheta":0.8,"classrooms":["A","B"],"studentTrueClassroom":"B","exampleSet":"first","trial_type":"survey-html-form","trial_index":186,"time_elapsed":2980312,"internal_node_id":"0.0-177.0-0.0","params":{"nStudents":24,"maxFlips":30,"completionMinutes":45,"basePay":8,"maxBonus":9,"perTrialBonus":0.5,"perTrialBonusThreshold":0.05,"exampleCost":0.01},"classroomParams":{"A":{"a":1,"b":4},"B":{"a":4,"b":1},"C":{"a":2,"b":8},"D":{"a":8,"b":2}},"conditions":["nonSeqFull","nonSeqPartial","seqNoFeedback","seqFeedback"],"classroomPairings":[["A","B"],["C","D"]],"coinWeights":[0.2,0.5,0.8],"subjectId":"A25FH7PXC446RG","assignmentId":"3MYYFCXHJ4TPOJAXVIGNMN23CWB4GK","hitId":"3SD15I2WD2G0NA4TSPXGB81L5S7630","url":"https://gershmanlab.com/experiments/alicia/teaching/experiment/?hitId=3SD15I2WD2G0NA4TSPXGB81L5S7630&workerId=A25FH7PXC446RG&assignmentId=3MYYFCXHJ4TPOJAXVIGNMN23CWB4GK&a=HFYM9&tp_a=HFYM9&b=3MYYFCXHJ4TPOJAXVIGNMN23CWB4GK&tp_b=3MYYFCXHJ4TPOJAXVIGNMN23CWB4GK&c=365799&tp_c=365799","heads":27,"tails":3,"studentIndex":22,"studentTrueHypers":{"a":4,"b":1},"studentGuess":0.8857142857142857,"delta":0.08571428571428563,"totalExamples":30,"bonusSoFar":1.22},{"rt":21259,"response":{"heads":"3","tails":"27"},"type":"response","condition":"seqNoFeedback","trueTheta":0.8,"classrooms":["A","B"],"studentTrueClassroom":"B","exampleSet":"second","trial_type":"survey-html-form","trial_index":189,"time_elapsed":3008084,"internal_node_id":"0.0-180.0-0.0","params":{"nStudents":24,"maxFlips":30,"completionMinutes":45,"basePay":8,"maxBonus":9,"perTrialBonus":0.5,"perTrialBonusThreshold":0.05,"exampleCost":0.01},"classroomParams":{"A":{"a":1,"b":4},"B":{"a":4,"b":1},"C":{"a":2,"b":8},"D":{"a":8,"b":2}},"conditions":["nonSeqFull","nonSeqPartial","seqNoFeedback","seqFeedback"],"classroomPairings":[["A","B"],["C","D"]],"coinWeights":[0.2,0.5,0.8],"subjectId":"A25FH7PXC446RG","assignmentId":"3MYYFCXHJ4TPOJAXVIGNMN23CWB4GK","hitId":"3SD15I2WD2G0NA4TSPXGB81L5S7630","url":"https://gershmanlab.com/experiments/alicia/teaching/experiment/?hitId=3SD15I2WD2G0NA4TSPXGB81L5S7630&workerId=A25FH7PXC446RG&assignmentId=3MYYFCXHJ4TPOJAXVIGNMN23CWB4GK&a=HFYM9&tp_a=HFYM9&b=3MYYFCXHJ4TPOJAXVIGNMN23CWB4GK&tp_b=3MYYFCXHJ4TPOJAXVIGNMN23CWB4GK&c=365799&tp_c=365799","firstResponseHeads":27,"firstResponseTails":3,"secondResponseHeads":3,"secondResponseTails":27,"totalHeads":30,"totalTails":30,"studentIndex":22,"studentTrueHypers":{"a":4,"b":1},"studentGuess":0.5230769230769231,"delta":0.27692307692307694,"bonus":0,"bonusSoFar":1.22,"totalExamples":60},{"rt":10285,"response":{"heads":"6","tails":"24"},"type":"response","condition":"nonSeqFull","trueTheta":0.8,"classrooms":["C","D"],"studentTrueClassroom":"C","exampleSet":"first","trial_type":"survey-html-form","trial_index":195,"time_elapsed":3037437,"internal_node_id":"0.0-186.0-0.0","params":{"nStudents":24,"maxFlips":30,"completionMinutes":45,"basePay":8,"maxBonus":9,"perTrialBonus":0.5,"perTrialBonusThreshold":0.05,"exampleCost":0.01},"classroomParams":{"A":{"a":1,"b":4},"B":{"a":4,"b":1},"C":{"a":2,"b":8},"D":{"a":8,"b":2}},"conditions":["nonSeqFull","nonSeqPartial","seqNoFeedback","seqFeedback"],"classroomPairings":[["A","B"],["C","D"]],"coinWeights":[0.2,0.5,0.8],"subjectId":"A25FH7PXC446RG","assignmentId":"3MYYFCXHJ4TPOJAXVIGNMN23CWB4GK","hitId":"3SD15I2WD2G0NA4TSPXGB81L5S7630","url":"https://gershmanlab.com/experiments/alicia/teaching/experiment/?hitId=3SD15I2WD2G0NA4TSPXGB81L5S7630&workerId=A25FH7PXC446RG&assignmentId=3MYYFCXHJ4TPOJAXVIGNMN23CWB4GK&a=HFYM9&tp_a=HFYM9&b=3MYYFCXHJ4TPOJAXVIGNMN23CWB4GK&tp_b=3MYYFCXHJ4TPOJAXVIGNMN23CWB4GK&c=365799&tp_c=365799","heads":6,"tails":24,"studentIndex":23,"studentTrueHypers":{"a":2,"b":8},"studentGuess":0.2,"delta":0.6000000000000001,"totalExamples":30,"bonus":0,"bonusSoFar":1.22},{"rt":29556,"response":{"gender":"female","age":"55","understood":"no","comments":"thank you"},"type":"response","trial_type":"survey-html-form","trial_index":199,"time_elapsed":3076738,"internal_node_id":"0.0-191.0","params":{"nStudents":24,"maxFlips":30,"completionMinutes":45,"basePay":8,"maxBonus":9,"perTrialBonus":0.5,"perTrialBonusThreshold":0.05,"exampleCost":0.01},"classroomParams":{"A":{"a":1,"b":4},"B":{"a":4,"b":1},"C":{"a":2,"b":8},"D":{"a":8,"b":2}},"conditions":["nonSeqFull","nonSeqPartial","seqNoFeedback","seqFeedback"],"classroomPairings":[["A","B"],["C","D"]],"coinWeights":[0.2,0.5,0.8],"subjectId":"A25FH7PXC446RG","assignmentId":"3MYYFCXHJ4TPOJAXVIGNMN23CWB4GK","hitId":"3SD15I2WD2G0NA4TSPXGB81L5S7630","url":"https://gershmanlab.com/experiments/alicia/teaching/experiment/?hitId=3SD15I2WD2G0NA4TSPXGB81L5S7630&workerId=A25FH7PXC446RG&assignmentId=3MYYFCXHJ4TPOJAXVIGNMN23CWB4GK&a=HFYM9&tp_a=HFYM9&b=3MYYFCXHJ4TPOJAXVIGNMN23CWB4GK&tp_b=3MYYFCXHJ4TPOJAXVIGNMN23CWB4GK&c=365799&tp_c=365799","totalBonus":1.22}]