[{"rt":27519,"response":{"heads":"1","tails":"4"},"type":"response","condition":"nonSeqFull","trueTheta":0.2,"classrooms":["A","B"],"studentTrueClassroom":"A","exampleSet":"first","trial_type":"survey-html-form","trial_index":10,"time_elapsed":417077,"internal_node_id":"0.0-6.0-0.0","params":{"nStudents":24,"maxFlips":30,"completionMinutes":45,"basePay":8,"maxBonus":9,"perTrialBonus":0.5,"perTrialBonusThreshold":0.05,"exampleCost":0.01},"classroomParams":{"A":{"a":1,"b":4},"B":{"a":4,"b":1},"C":{"a":2,"b":8},"D":{"a":8,"b":2}},"conditions":["nonSeqFull","nonSeqPartial","seqNoFeedback","seqFeedback"],"classroomPairings":[["A","B"],["C","D"]],"coinWeights":[0.2,0.5,0.8],"subjectId":"A26RO8GGTQAXGG","assignmentId":"3KOPY89HM9OEXPHU3AW79V2DQMA3JC","hitId":"34XASH8KLQ89J2U8D314D7180O4PMV","url":"https://gershmanlab.com/experiments/alicia/teaching/experiment/?hitId=34XASH8KLQ89J2U8D314D7180O4PMV&workerId=A26RO8GGTQAXGG&assignmentId=3KOPY89HM9OEXPHU3AW79V2DQMA3JC&a=HYOK7&tp_a=HYOK7&b=3KOPY89HM9OEXPHU3AW79V2DQMA3JC&tp_b=3KOPY89HM9OEXPHU3AW79V2DQMA3JC&c=365717&tp_c=365717","heads":1,"tails":4,"studentIndex":0,"studentTrueHypers":{"a":1,"b":4},"studentGuess":0.2,"delta":0,"totalExamples":5,"bonus":0.45,"bonusSoFar":0.45},{"rt":5567,"response":{"heads":"1","tails":"1"},"type":"response","condition":"seqNoFeedback","trueTheta":0.5,"classrooms":["C","D"],"studentTrueClassroom":"D","exampleSet":"first","trial_type":"survey-html-form","trial_index":16,"time_elapsed":442540,"internal_node_id":"0.0-12.0-0.0","params":{"nStudents":24,"maxFlips":30,"completionMinutes":45,"basePay":8,"maxBonus":9,"perTrialBonus":0.5,"perTrialBonusThreshold":0.05,"exampleCost":0.01},"classroomParams":{"A":{"a":1,"b":4},"B":{"a":4,"b":1},"C":{"a":2,"b":8},"D":{"a":8,"b":2}},"conditions":["nonSeqFull","nonSeqPartial","seqNoFeedback","seqFeedback"],"classroomPairings":[["A","B"],["C","D"]],"coinWeights":[0.2,0.5,0.8],"subjectId":"A26RO8GGTQAXGG","assignmentId":"3KOPY89HM9OEXPHU3AW79V2DQMA3JC","hitId":"34XASH8KLQ89J2U8D314D7180O4PMV","url":"https://gershmanlab.com/experiments/alicia/teaching/experiment/?hitId=34XASH8KLQ89J2U8D314D7180O4PMV&workerId=A26RO8GGTQAXGG&assignmentId=3KOPY89HM9OEXPHU3AW79V2DQMA3JC&a=HYOK7&tp_a=HYOK7&b=3KOPY89HM9OEXPHU3AW79V2DQMA3JC&tp_b=3KOPY89HM9OEXPHU3AW79V2DQMA3JC&c=365717&tp_c=365717","heads":1,"tails":1,"studentIndex":1,"studentTrueHypers":{"a":8,"b":2},"studentGuess":0.75,"delta":0.25,"totalExamples":2,"bonusSoFar":0.45},{"rt":15619,"response":{"heads":"1","tails":"1"},"type":"response","condition":"seqNoFeedback","trueTheta":0.5,"classrooms":["C","D"],"studentTrueClassroom":"D","exampleSet":"second","trial_type":"survey-html-form","trial_index":19,"time_elapsed":464924,"internal_node_id":"0.0-15.0-0.0","params":{"nStudents":24,"maxFlips":30,"completionMinutes":45,"basePay":8,"maxBonus":9,"perTrialBonus":0.5,"perTrialBonusThreshold":0.05,"exampleCost":0.01},"classroomParams":{"A":{"a":1,"b":4},"B":{"a":4,"b":1},"C":{"a":2,"b":8},"D":{"a":8,"b":2}},"conditions":["nonSeqFull","nonSeqPartial","seqNoFeedback","seqFeedback"],"classroomPairings":[["A","B"],["C","D"]],"coinWeights":[0.2,0.5,0.8],"subjectId":"A26RO8GGTQAXGG","assignmentId":"3KOPY89HM9OEXPHU3AW79V2DQMA3JC","hitId":"34XASH8KLQ89J2U8D314D7180O4PMV","url":"https://gershmanlab.com/experiments/alicia/teaching/experiment/?hitId=34XASH8KLQ89J2U8D314D7180O4PMV&workerId=A26RO8GGTQAXGG&assignmentId=3KOPY89HM9OEXPHU3AW79V2DQMA3JC&a=HYOK7&tp_a=HYOK7&b=3KOPY89HM9OEXPHU3AW79V2DQMA3JC&tp_b=3KOPY89HM9OEXPHU3AW79V2DQMA3JC&c=365717&tp_c=365717","firstResponseHeads":1,"firstResponseTails":1,"secondResponseHeads":1,"secondResponseTails":1,"totalHeads":2,"totalTails":2,"studentIndex":1,"studentTrueHypers":{"a":8,"b":2},"studentGuess":0.7142857142857143,"delta":0.2142857142857143,"bonus":0,"bonusSoFar":0.45,"totalExamples":4},{"rt":16295,"response":{"heads":"3","tails":"0"},"type":"response","condition":"seqNoFeedback","trueTheta":0.5,"classrooms":["A","B"],"studentTrueClassroom":"A","exampleSet":"first","trial_type":"survey-html-form","trial_index":25,"time_elapsed":501509,"internal_node_id":"0.0-21.0-0.0","params":{"nStudents":24,"maxFlips":30,"completionMinutes":45,"basePay":8,"maxBonus":9,"perTrialBonus":0.5,"perTrialBonusThreshold":0.05,"exampleCost":0.01},"classroomParams":{"A":{"a":1,"b":4},"B":{"a":4,"b":1},"C":{"a":2,"b":8},"D":{"a":8,"b":2}},"conditions":["nonSeqFull","nonSeqPartial","seqNoFeedback","seqFeedback"],"classroomPairings":[["A","B"],["C","D"]],"coinWeights":[0.2,0.5,0.8],"subjectId":"A26RO8GGTQAXGG","assignmentId":"3KOPY89HM9OEXPHU3AW79V2DQMA3JC","hitId":"34XASH8KLQ89J2U8D314D7180O4PMV","url":"https://gershmanlab.com/experiments/alicia/teaching/experiment/?hitId=34XASH8KLQ89J2U8D314D7180O4PMV&workerId=A26RO8GGTQAXGG&assignmentId=3KOPY89HM9OEXPHU3AW79V2DQMA3JC&a=HYOK7&tp_a=HYOK7&b=3KOPY89HM9OEXPHU3AW79V2DQMA3JC&tp_b=3KOPY89HM9OEXPHU3AW79V2DQMA3JC&c=365717&tp_c=365717","heads":3,"tails":0,"studentIndex":2,"studentTrueHypers":{"a":1,"b":4},"studentGuess":0.5,"delta":0,"totalExamples":3,"bonusSoFar":0.45},{"rt":6800,"response":{"heads":"1","tails":"1"},"type":"response","condition":"seqNoFeedback","trueTheta":0.5,"classrooms":["A","B"],"studentTrueClassroom":"A","exampleSet":"second","trial_type":"survey-html-form","trial_index":28,"time_elapsed":514085,"internal_node_id":"0.0-24.0-0.0","params":{"nStudents":24,"maxFlips":30,"completionMinutes":45,"basePay":8,"maxBonus":9,"perTrialBonus":0.5,"perTrialBonusThreshold":0.05,"exampleCost":0.01},"classroomParams":{"A":{"a":1,"b":4},"B":{"a":4,"b":1},"C":{"a":2,"b":8},"D":{"a":8,"b":2}},"conditions":["nonSeqFull","nonSeqPartial","seqNoFeedback","seqFeedback"],"classroomPairings":[["A","B"],["C","D"]],"coinWeights":[0.2,0.5,0.8],"subjectId":"A26RO8GGTQAXGG","assignmentId":"3KOPY89HM9OEXPHU3AW79V2DQMA3JC","hitId":"34XASH8KLQ89J2U8D314D7180O4PMV","url":"https://gershmanlab.com/experiments/alicia/teaching/experiment/?hitId=34XASH8KLQ89J2U8D314D7180O4PMV&workerId=A26RO8GGTQAXGG&assignmentId=3KOPY89HM9OEXPHU3AW79V2DQMA3JC&a=HYOK7&tp_a=HYOK7&b=3KOPY89HM9OEXPHU3AW79V2DQMA3JC&tp_b=3KOPY89HM9OEXPHU3AW79V2DQMA3JC&c=365717&tp_c=365717","firstResponseHeads":3,"firstResponseTails":0,"secondResponseHeads":1,"secondResponseTails":1,"totalHeads":4,"totalTails":1,"studentIndex":2,"studentTrueHypers":{"a":1,"b":4},"studentGuess":0.5,"delta":0,"bonus":0.45,"bonusSoFar":0.9,"totalExamples":5},{"rt":16264,"response":{"heads":"4","tails":"1"},"type":"response","condition":"seqFeedback","trueTheta":0.8,"classrooms":["A","B"],"studentTrueClassroom":"B","exampleSet":"first","trial_type":"survey-html-form","trial_index":34,"time_elapsed":550861,"internal_node_id":"0.0-30.0-0.0","params":{"nStudents":24,"maxFlips":30,"completionMinutes":45,"basePay":8,"maxBonus":9,"perTrialBonus":0.5,"perTrialBonusThreshold":0.05,"exampleCost":0.01},"classroomParams":{"A":{"a":1,"b":4},"B":{"a":4,"b":1},"C":{"a":2,"b":8},"D":{"a":8,"b":2}},"conditions":["nonSeqFull","nonSeqPartial","seqNoFeedback","seqFeedback"],"classroomPairings":[["A","B"],["C","D"]],"coinWeights":[0.2,0.5,0.8],"subjectId":"A26RO8GGTQAXGG","assignmentId":"3KOPY89HM9OEXPHU3AW79V2DQMA3JC","hitId":"34XASH8KLQ89J2U8D314D7180O4PMV","url":"https://gershmanlab.com/experiments/alicia/teaching/experiment/?hitId=34XASH8KLQ89J2U8D314D7180O4PMV&workerId=A26RO8GGTQAXGG&assignmentId=3KOPY89HM9OEXPHU3AW79V2DQMA3JC&a=HYOK7&tp_a=HYOK7&b=3KOPY89HM9OEXPHU3AW79V2DQMA3JC&tp_b=3KOPY89HM9OEXPHU3AW79V2DQMA3JC&c=365717&tp_c=365717","heads":4,"tails":1,"studentIndex":3,"studentTrueHypers":{"a":4,"b":1},"studentGuess":0.8,"delta":0,"totalExamples":5,"bonusSoFar":0.9},{"rt":5655,"response":{"heads":"0","tails":"0"},"type":"response","condition":"seqFeedback","trueTheta":0.8,"classrooms":["A","B"],"studentTrueClassroom":"B","exampleSet":"second","trial_type":"survey-html-form","trial_index":38,"time_elapsed":574230,"internal_node_id":"0.0-34.0-0.0","params":{"nStudents":24,"maxFlips":30,"completionMinutes":45,"basePay":8,"maxBonus":9,"perTrialBonus":0.5,"perTrialBonusThreshold":0.05,"exampleCost":0.01},"classroomParams":{"A":{"a":1,"b":4},"B":{"a":4,"b":1},"C":{"a":2,"b":8},"D":{"a":8,"b":2}},"conditions":["nonSeqFull","nonSeqPartial","seqNoFeedback","seqFeedback"],"classroomPairings":[["A","B"],["C","D"]],"coinWeights":[0.2,0.5,0.8],"subjectId":"A26RO8GGTQAXGG","assignmentId":"3KOPY89HM9OEXPHU3AW79V2DQMA3JC","hitId":"34XASH8KLQ89J2U8D314D7180O4PMV","url":"https://gershmanlab.com/experiments/alicia/teaching/experiment/?hitId=34XASH8KLQ89J2U8D314D7180O4PMV&workerId=A26RO8GGTQAXGG&assignmentId=3KOPY89HM9OEXPHU3AW79V2DQMA3JC&a=HYOK7&tp_a=HYOK7&b=3KOPY89HM9OEXPHU3AW79V2DQMA3JC&tp_b=3KOPY89HM9OEXPHU3AW79V2DQMA3JC&c=365717&tp_c=365717","firstResponseHeads":4,"firstResponseTails":1,"secondResponseHeads":0,"secondResponseTails":0,"totalHeads":4,"totalTails":1,"studentIndex":3,"studentTrueHypers":{"a":4,"b":1},"studentGuess":0.8,"delta":0,"bonus":0.45,"bonusSoFar":1.35,"totalExamples":5},{"rt":9828,"response":{"heads":"0","tails":"0"},"type":"response","condition":"seqFeedback","trueTheta":0.8,"classrooms":["A","B"],"studentTrueClassroom":"B","exampleSet":"second","trial_type":"survey-html-form","trial_index":39,"time_elapsed":584061,"internal_node_id":"0.0-34.1-0.1","params":{"nStudents":24,"maxFlips":30,"completionMinutes":45,"basePay":8,"maxBonus":9,"perTrialBonus":0.5,"perTrialBonusThreshold":0.05,"exampleCost":0.01},"classroomParams":{"A":{"a":1,"b":4},"B":{"a":4,"b":1},"C":{"a":2,"b":8},"D":{"a":8,"b":2}},"conditions":["nonSeqFull","nonSeqPartial","seqNoFeedback","seqFeedback"],"classroomPairings":[["A","B"],["C","D"]],"coinWeights":[0.2,0.5,0.8],"subjectId":"A26RO8GGTQAXGG","assignmentId":"3KOPY89HM9OEXPHU3AW79V2DQMA3JC","hitId":"34XASH8KLQ89J2U8D314D7180O4PMV","url":"https://gershmanlab.com/experiments/alicia/teaching/experiment/?hitId=34XASH8KLQ89J2U8D314D7180O4PMV&workerId=A26RO8GGTQAXGG&assignmentId=3KOPY89HM9OEXPHU3AW79V2DQMA3JC&a=HYOK7&tp_a=HYOK7&b=3KOPY89HM9OEXPHU3AW79V2DQMA3JC&tp_b=3KOPY89HM9OEXPHU3AW79V2DQMA3JC&c=365717&tp_c=365717","firstResponseHeads":4,"firstResponseTails":1,"secondResponseHeads":0,"secondResponseTails":0,"totalHeads":4,"totalTails":1,"studentIndex":3,"studentTrueHypers":{"a":4,"b":1},"studentGuess":0.8,"delta":0,"bonus":0.45,"bonusSoFar":1.8,"totalExamples":5},{"rt":9232,"response":{"heads":"4","tails":"1"},"type":"response","condition":"seqFeedback","trueTheta":0.8,"classrooms":["A","B"],"studentTrueClassroom":"B","exampleSet":"second","trial_type":"survey-html-form","trial_index":40,"time_elapsed":593294,"internal_node_id":"0.0-34.2-0.2","params":{"nStudents":24,"maxFlips":30,"completionMinutes":45,"basePay":8,"maxBonus":9,"perTrialBonus":0.5,"perTrialBonusThreshold":0.05,"exampleCost":0.01},"classroomParams":{"A":{"a":1,"b":4},"B":{"a":4,"b":1},"C":{"a":2,"b":8},"D":{"a":8,"b":2}},"conditions":["nonSeqFull","nonSeqPartial","seqNoFeedback","seqFeedback"],"classroomPairings":[["A","B"],["C","D"]],"coinWeights":[0.2,0.5,0.8],"subjectId":"A26RO8GGTQAXGG","assignmentId":"3KOPY89HM9OEXPHU3AW79V2DQMA3JC","hitId":"34XASH8KLQ89J2U8D314D7180O4PMV","url":"https://gershmanlab.com/experiments/alicia/teaching/experiment/?hitId=34XASH8KLQ89J2U8D314D7180O4PMV&workerId=A26RO8GGTQAXGG&assignmentId=3KOPY89HM9OEXPHU3AW79V2DQMA3JC&a=HYOK7&tp_a=HYOK7&b=3KOPY89HM9OEXPHU3AW79V2DQMA3JC&tp_b=3KOPY89HM9OEXPHU3AW79V2DQMA3JC&c=365717&tp_c=365717","firstResponseHeads":4,"firstResponseTails":1,"secondResponseHeads":4,"secondResponseTails":1,"totalHeads":8,"totalTails":2,"studentIndex":3,"studentTrueHypers":{"a":4,"b":1},"studentGuess":0.8,"delta":0,"bonus":0.4,"bonusSoFar":2.2,"totalExamples":10},{"rt":8639,"response":{"heads":"1","tails":"1"},"type":"response","condition":"seqFeedback","trueTheta":0.5,"classrooms":["C","D"],"studentTrueClassroom":"C","exampleSet":"first","trial_type":"survey-html-form","trial_index":46,"time_elapsed":617620,"internal_node_id":"0.0-40.0-0.0","params":{"nStudents":24,"maxFlips":30,"completionMinutes":45,"basePay":8,"maxBonus":9,"perTrialBonus":0.5,"perTrialBonusThreshold":0.05,"exampleCost":0.01},"classroomParams":{"A":{"a":1,"b":4},"B":{"a":4,"b":1},"C":{"a":2,"b":8},"D":{"a":8,"b":2}},"conditions":["nonSeqFull","nonSeqPartial","seqNoFeedback","seqFeedback"],"classroomPairings":[["A","B"],["C","D"]],"coinWeights":[0.2,0.5,0.8],"subjectId":"A26RO8GGTQAXGG","assignmentId":"3KOPY89HM9OEXPHU3AW79V2DQMA3JC","hitId":"34XASH8KLQ89J2U8D314D7180O4PMV","url":"https://gershmanlab.com/experiments/alicia/teaching/experiment/?hitId=34XASH8KLQ89J2U8D314D7180O4PMV&workerId=A26RO8GGTQAXGG&assignmentId=3KOPY89HM9OEXPHU3AW79V2DQMA3JC&a=HYOK7&tp_a=HYOK7&b=3KOPY89HM9OEXPHU3AW79V2DQMA3JC&tp_b=3KOPY89HM9OEXPHU3AW79V2DQMA3JC&c=365717&tp_c=365717","heads":1,"tails":1,"studentIndex":4,"studentTrueHypers":{"a":2,"b":8},"studentGuess":0.25,"delta":0.25,"totalExamples":2,"bonusSoFar":2.2},{"rt":20023,"response":{"heads":"4","tails":"1"},"type":"response","condition":"seqFeedback","trueTheta":0.5,"classrooms":["C","D"],"studentTrueClassroom":"C","exampleSet":"second","trial_type":"survey-html-form","trial_index":50,"time_elapsed":652060,"internal_node_id":"0.0-44.0-0.0","params":{"nStudents":24,"maxFlips":30,"completionMinutes":45,"basePay":8,"maxBonus":9,"perTrialBonus":0.5,"perTrialBonusThreshold":0.05,"exampleCost":0.01},"classroomParams":{"A":{"a":1,"b":4},"B":{"a":4,"b":1},"C":{"a":2,"b":8},"D":{"a":8,"b":2}},"conditions":["nonSeqFull","nonSeqPartial","seqNoFeedback","seqFeedback"],"classroomPairings":[["A","B"],["C","D"]],"coinWeights":[0.2,0.5,0.8],"subjectId":"A26RO8GGTQAXGG","assignmentId":"3KOPY89HM9OEXPHU3AW79V2DQMA3JC","hitId":"34XASH8KLQ89J2U8D314D7180O4PMV","url":"https://gershmanlab.com/experiments/alicia/teaching/experiment/?hitId=34XASH8KLQ89J2U8D314D7180O4PMV&workerId=A26RO8GGTQAXGG&assignmentId=3KOPY89HM9OEXPHU3AW79V2DQMA3JC&a=HYOK7&tp_a=HYOK7&b=3KOPY89HM9OEXPHU3AW79V2DQMA3JC&tp_b=3KOPY89HM9OEXPHU3AW79V2DQMA3JC&c=365717&tp_c=365717","firstResponseHeads":1,"firstResponseTails":1,"secondResponseHeads":4,"secondResponseTails":1,"totalHeads":5,"totalTails":2,"studentIndex":4,"studentTrueHypers":{"a":2,"b":8},"studentGuess":0.4117647058823529,"delta":0.08823529411764708,"bonus":0,"bonusSoFar":2.2,"totalExamples":7},{"rt":12287,"response":{"heads":"1","tails":"4"},"type":"response","condition":"seqNoFeedback","trueTheta":0.2,"classrooms":["A","B"],"studentTrueClassroom":"A","exampleSet":"first","trial_type":"survey-html-form","trial_index":56,"time_elapsed":678597,"internal_node_id":"0.0-50.0-0.0","params":{"nStudents":24,"maxFlips":30,"completionMinutes":45,"basePay":8,"maxBonus":9,"perTrialBonus":0.5,"perTrialBonusThreshold":0.05,"exampleCost":0.01},"classroomParams":{"A":{"a":1,"b":4},"B":{"a":4,"b":1},"C":{"a":2,"b":8},"D":{"a":8,"b":2}},"conditions":["nonSeqFull","nonSeqPartial","seqNoFeedback","seqFeedback"],"classroomPairings":[["A","B"],["C","D"]],"coinWeights":[0.2,0.5,0.8],"subjectId":"A26RO8GGTQAXGG","assignmentId":"3KOPY89HM9OEXPHU3AW79V2DQMA3JC","hitId":"34XASH8KLQ89J2U8D314D7180O4PMV","url":"https://gershmanlab.com/experiments/alicia/teaching/experiment/?hitId=34XASH8KLQ89J2U8D314D7180O4PMV&workerId=A26RO8GGTQAXGG&assignmentId=3KOPY89HM9OEXPHU3AW79V2DQMA3JC&a=HYOK7&tp_a=HYOK7&b=3KOPY89HM9OEXPHU3AW79V2DQMA3JC&tp_b=3KOPY89HM9OEXPHU3AW79V2DQMA3JC&c=365717&tp_c=365717","heads":1,"tails":4,"studentIndex":5,"studentTrueHypers":{"a":1,"b":4},"studentGuess":0.2,"delta":0,"totalExamples":5,"bonusSoFar":2.2},{"rt":17920,"response":{"heads":"1","tails":"4"},"type":"response","condition":"seqNoFeedback","trueTheta":0.2,"classrooms":["A","B"],"studentTrueClassroom":"A","exampleSet":"second","trial_type":"survey-html-form","trial_index":59,"time_elapsed":704038,"internal_node_id":"0.0-53.0-0.0","params":{"nStudents":24,"maxFlips":30,"completionMinutes":45,"basePay":8,"maxBonus":9,"perTrialBonus":0.5,"perTrialBonusThreshold":0.05,"exampleCost":0.01},"classroomParams":{"A":{"a":1,"b":4},"B":{"a":4,"b":1},"C":{"a":2,"b":8},"D":{"a":8,"b":2}},"conditions":["nonSeqFull","nonSeqPartial","seqNoFeedback","seqFeedback"],"classroomPairings":[["A","B"],["C","D"]],"coinWeights":[0.2,0.5,0.8],"subjectId":"A26RO8GGTQAXGG","assignmentId":"3KOPY89HM9OEXPHU3AW79V2DQMA3JC","hitId":"34XASH8KLQ89J2U8D314D7180O4PMV","url":"https://gershmanlab.com/experiments/alicia/teaching/experiment/?hitId=34XASH8KLQ89J2U8D314D7180O4PMV&workerId=A26RO8GGTQAXGG&assignmentId=3KOPY89HM9OEXPHU3AW79V2DQMA3JC&a=HYOK7&tp_a=HYOK7&b=3KOPY89HM9OEXPHU3AW79V2DQMA3JC&tp_b=3KOPY89HM9OEXPHU3AW79V2DQMA3JC&c=365717&tp_c=365717","firstResponseHeads":1,"firstResponseTails":4,"secondResponseHeads":1,"secondResponseTails":4,"totalHeads":2,"totalTails":8,"studentIndex":5,"studentTrueHypers":{"a":1,"b":4},"studentGuess":0.2,"delta":0,"bonus":0.4,"bonusSoFar":2.6,"totalExamples":10},{"rt":11895,"response":{"heads":"4","tails":"1"},"type":"response","condition":"nonSeqFull","trueTheta":0.8,"classrooms":["A","B"],"studentTrueClassroom":"A","exampleSet":"first","trial_type":"survey-html-form","trial_index":65,"time_elapsed":735237,"internal_node_id":"0.0-59.0-0.0","params":{"nStudents":24,"maxFlips":30,"completionMinutes":45,"basePay":8,"maxBonus":9,"perTrialBonus":0.5,"perTrialBonusThreshold":0.05,"exampleCost":0.01},"classroomParams":{"A":{"a":1,"b":4},"B":{"a":4,"b":1},"C":{"a":2,"b":8},"D":{"a":8,"b":2}},"conditions":["nonSeqFull","nonSeqPartial","seqNoFeedback","seqFeedback"],"classroomPairings":[["A","B"],["C","D"]],"coinWeights":[0.2,0.5,0.8],"subjectId":"A26RO8GGTQAXGG","assignmentId":"3KOPY89HM9OEXPHU3AW79V2DQMA3JC","hitId":"34XASH8KLQ89J2U8D314D7180O4PMV","url":"https://gershmanlab.com/experiments/alicia/teaching/experiment/?hitId=34XASH8KLQ89J2U8D314D7180O4PMV&workerId=A26RO8GGTQAXGG&assignmentId=3KOPY89HM9OEXPHU3AW79V2DQMA3JC&a=HYOK7&tp_a=HYOK7&b=3KOPY89HM9OEXPHU3AW79V2DQMA3JC&tp_b=3KOPY89HM9OEXPHU3AW79V2DQMA3JC&c=365717&tp_c=365717","heads":4,"tails":1,"studentIndex":6,"studentTrueHypers":{"a":1,"b":4},"studentGuess":0.5,"delta":0.30000000000000004,"totalExamples":5,"bonus":0,"bonusSoFar":2.6},{"rt":15191,"response":{"heads":"4","tails":"1"},"type":"response","condition":"nonSeqPartial","trueTheta":0.8,"classrooms":["A","B"],"studentTrueClassroom":"B","exampleSet":"first","trial_type":"survey-html-form","trial_index":71,"time_elapsed":767301,"internal_node_id":"0.0-65.0-0.0","params":{"nStudents":24,"maxFlips":30,"completionMinutes":45,"basePay":8,"maxBonus":9,"perTrialBonus":0.5,"perTrialBonusThreshold":0.05,"exampleCost":0.01},"classroomParams":{"A":{"a":1,"b":4},"B":{"a":4,"b":1},"C":{"a":2,"b":8},"D":{"a":8,"b":2}},"conditions":["nonSeqFull","nonSeqPartial","seqNoFeedback","seqFeedback"],"classroomPairings":[["A","B"],["C","D"]],"coinWeights":[0.2,0.5,0.8],"subjectId":"A26RO8GGTQAXGG","assignmentId":"3KOPY89HM9OEXPHU3AW79V2DQMA3JC","hitId":"34XASH8KLQ89J2U8D314D7180O4PMV","url":"https://gershmanlab.com/experiments/alicia/teaching/experiment/?hitId=34XASH8KLQ89J2U8D314D7180O4PMV&workerId=A26RO8GGTQAXGG&assignmentId=3KOPY89HM9OEXPHU3AW79V2DQMA3JC&a=HYOK7&tp_a=HYOK7&b=3KOPY89HM9OEXPHU3AW79V2DQMA3JC&tp_b=3KOPY89HM9OEXPHU3AW79V2DQMA3JC&c=365717&tp_c=365717","heads":4,"tails":1,"studentIndex":7,"studentTrueHypers":{"a":4,"b":1},"studentGuess":0.8,"delta":0,"totalExamples":5,"bonus":0.45,"bonusSoFar":3.05},{"rt":14239,"response":{"heads":"1","tails":"1"},"type":"response","condition":"nonSeqPartial","trueTheta":0.5,"classrooms":["A","B"],"studentTrueClassroom":"B","exampleSet":"first","trial_type":"survey-html-form","trial_index":77,"time_elapsed":796172,"internal_node_id":"0.0-71.0-0.0","params":{"nStudents":24,"maxFlips":30,"completionMinutes":45,"basePay":8,"maxBonus":9,"perTrialBonus":0.5,"perTrialBonusThreshold":0.05,"exampleCost":0.01},"classroomParams":{"A":{"a":1,"b":4},"B":{"a":4,"b":1},"C":{"a":2,"b":8},"D":{"a":8,"b":2}},"conditions":["nonSeqFull","nonSeqPartial","seqNoFeedback","seqFeedback"],"classroomPairings":[["A","B"],["C","D"]],"coinWeights":[0.2,0.5,0.8],"subjectId":"A26RO8GGTQAXGG","assignmentId":"3KOPY89HM9OEXPHU3AW79V2DQMA3JC","hitId":"34XASH8KLQ89J2U8D314D7180O4PMV","url":"https://gershmanlab.com/experiments/alicia/teaching/experiment/?hitId=34XASH8KLQ89J2U8D314D7180O4PMV&workerId=A26RO8GGTQAXGG&assignmentId=3KOPY89HM9OEXPHU3AW79V2DQMA3JC&a=HYOK7&tp_a=HYOK7&b=3KOPY89HM9OEXPHU3AW79V2DQMA3JC&tp_b=3KOPY89HM9OEXPHU3AW79V2DQMA3JC&c=365717&tp_c=365717","heads":1,"tails":1,"studentIndex":8,"studentTrueHypers":{"a":4,"b":1},"studentGuess":0.7142857142857143,"delta":0.2142857142857143,"totalExamples":2,"bonus":0,"bonusSoFar":3.05},{"rt":13718,"response":{"heads":"1","tails":"4"},"type":"response","condition":"nonSeqPartial","trueTheta":0.2,"classrooms":["C","D"],"studentTrueClassroom":"D","exampleSet":"first","trial_type":"survey-html-form","trial_index":83,"time_elapsed":824700,"internal_node_id":"0.0-77.0-0.0","params":{"nStudents":24,"maxFlips":30,"completionMinutes":45,"basePay":8,"maxBonus":9,"perTrialBonus":0.5,"perTrialBonusThreshold":0.05,"exampleCost":0.01},"classroomParams":{"A":{"a":1,"b":4},"B":{"a":4,"b":1},"C":{"a":2,"b":8},"D":{"a":8,"b":2}},"conditions":["nonSeqFull","nonSeqPartial","seqNoFeedback","seqFeedback"],"classroomPairings":[["A","B"],["C","D"]],"coinWeights":[0.2,0.5,0.8],"subjectId":"A26RO8GGTQAXGG","assignmentId":"3KOPY89HM9OEXPHU3AW79V2DQMA3JC","hitId":"34XASH8KLQ89J2U8D314D7180O4PMV","url":"https://gershmanlab.com/experiments/alicia/teaching/experiment/?hitId=34XASH8KLQ89J2U8D314D7180O4PMV&workerId=A26RO8GGTQAXGG&assignmentId=3KOPY89HM9OEXPHU3AW79V2DQMA3JC&a=HYOK7&tp_a=HYOK7&b=3KOPY89HM9OEXPHU3AW79V2DQMA3JC&tp_b=3KOPY89HM9OEXPHU3AW79V2DQMA3JC&c=365717&tp_c=365717","heads":1,"tails":4,"studentIndex":9,"studentTrueHypers":{"a":8,"b":2},"studentGuess":0.6,"delta":0.39999999999999997,"totalExamples":5,"bonus":0,"bonusSoFar":3.05},{"rt":15407,"response":{"heads":"4","tails":"1"},"type":"response","condition":"nonSeqFull","trueTheta":0.8,"classrooms":["C","D"],"studentTrueClassroom":"D","exampleSet":"first","trial_type":"survey-html-form","trial_index":89,"time_elapsed":853196,"internal_node_id":"0.0-83.0-0.0","params":{"nStudents":24,"maxFlips":30,"completionMinutes":45,"basePay":8,"maxBonus":9,"perTrialBonus":0.5,"perTrialBonusThreshold":0.05,"exampleCost":0.01},"classroomParams":{"A":{"a":1,"b":4},"B":{"a":4,"b":1},"C":{"a":2,"b":8},"D":{"a":8,"b":2}},"conditions":["nonSeqFull","nonSeqPartial","seqNoFeedback","seqFeedback"],"classroomPairings":[["A","B"],["C","D"]],"coinWeights":[0.2,0.5,0.8],"subjectId":"A26RO8GGTQAXGG","assignmentId":"3KOPY89HM9OEXPHU3AW79V2DQMA3JC","hitId":"34XASH8KLQ89J2U8D314D7180O4PMV","url":"https://gershmanlab.com/experiments/alicia/teaching/experiment/?hitId=34XASH8KLQ89J2U8D314D7180O4PMV&workerId=A26RO8GGTQAXGG&assignmentId=3KOPY89HM9OEXPHU3AW79V2DQMA3JC&a=HYOK7&tp_a=HYOK7&b=3KOPY89HM9OEXPHU3AW79V2DQMA3JC&tp_b=3KOPY89HM9OEXPHU3AW79V2DQMA3JC&c=365717&tp_c=365717","heads":4,"tails":1,"studentIndex":10,"studentTrueHypers":{"a":8,"b":2},"studentGuess":0.8,"delta":0,"totalExamples":5,"bonus":0.45,"bonusSoFar":3.5},{"rt":11144,"response":{"heads":"1","tails":"1"},"type":"response","condition":"seqFeedback","trueTheta":0.5,"classrooms":["A","B"],"studentTrueClassroom":"A","exampleSet":"first","trial_type":"survey-html-form","trial_index":95,"time_elapsed":879421,"internal_node_id":"0.0-89.0-0.0","params":{"nStudents":24,"maxFlips":30,"completionMinutes":45,"basePay":8,"maxBonus":9,"perTrialBonus":0.5,"perTrialBonusThreshold":0.05,"exampleCost":0.01},"classroomParams":{"A":{"a":1,"b":4},"B":{"a":4,"b":1},"C":{"a":2,"b":8},"D":{"a":8,"b":2}},"conditions":["nonSeqFull","nonSeqPartial","seqNoFeedback","seqFeedback"],"classroomPairings":[["A","B"],["C","D"]],"coinWeights":[0.2,0.5,0.8],"subjectId":"A26RO8GGTQAXGG","assignmentId":"3KOPY89HM9OEXPHU3AW79V2DQMA3JC","hitId":"34XASH8KLQ89J2U8D314D7180O4PMV","url":"https://gershmanlab.com/experiments/alicia/teaching/experiment/?hitId=34XASH8KLQ89J2U8D314D7180O4PMV&workerId=A26RO8GGTQAXGG&assignmentId=3KOPY89HM9OEXPHU3AW79V2DQMA3JC&a=HYOK7&tp_a=HYOK7&b=3KOPY89HM9OEXPHU3AW79V2DQMA3JC&tp_b=3KOPY89HM9OEXPHU3AW79V2DQMA3JC&c=365717&tp_c=365717","heads":1,"tails":1,"studentIndex":11,"studentTrueHypers":{"a":1,"b":4},"studentGuess":0.2857142857142857,"delta":0.2142857142857143,"totalExamples":2,"bonusSoFar":3.5},{"rt":14560,"response":{"heads":"4","tails":"1"},"type":"response","condition":"seqFeedback","trueTheta":0.5,"classrooms":["A","B"],"studentTrueClassroom":"A","exampleSet":"second","trial_type":"survey-html-form","trial_index":99,"time_elapsed":905612,"internal_node_id":"0.0-93.0-0.0","params":{"nStudents":24,"maxFlips":30,"completionMinutes":45,"basePay":8,"maxBonus":9,"perTrialBonus":0.5,"perTrialBonusThreshold":0.05,"exampleCost":0.01},"classroomParams":{"A":{"a":1,"b":4},"B":{"a":4,"b":1},"C":{"a":2,"b":8},"D":{"a":8,"b":2}},"conditions":["nonSeqFull","nonSeqPartial","seqNoFeedback","seqFeedback"],"classroomPairings":[["A","B"],["C","D"]],"coinWeights":[0.2,0.5,0.8],"subjectId":"A26RO8GGTQAXGG","assignmentId":"3KOPY89HM9OEXPHU3AW79V2DQMA3JC","hitId":"34XASH8KLQ89J2U8D314D7180O4PMV","url":"https://gershmanlab.com/experiments/alicia/teaching/experiment/?hitId=34XASH8KLQ89J2U8D314D7180O4PMV&workerId=A26RO8GGTQAXGG&assignmentId=3KOPY89HM9OEXPHU3AW79V2DQMA3JC&a=HYOK7&tp_a=HYOK7&b=3KOPY89HM9OEXPHU3AW79V2DQMA3JC&tp_b=3KOPY89HM9OEXPHU3AW79V2DQMA3JC&c=365717&tp_c=365717","firstResponseHeads":1,"firstResponseTails":1,"secondResponseHeads":4,"secondResponseTails":1,"totalHeads":5,"totalTails":2,"studentIndex":11,"studentTrueHypers":{"a":1,"b":4},"studentGuess":0.5,"delta":0,"bonus":0.43,"bonusSoFar":3.93,"totalExamples":7},{"rt":13031,"response":{"heads":"4","tails":"1"},"type":"response","condition":"nonSeqPartial","trueTheta":0.8,"classrooms":["C","D"],"studentTrueClassroom":"C","exampleSet":"first","trial_type":"survey-html-form","trial_index":105,"time_elapsed":939941,"internal_node_id":"0.0-99.0-0.0","params":{"nStudents":24,"maxFlips":30,"completionMinutes":45,"basePay":8,"maxBonus":9,"perTrialBonus":0.5,"perTrialBonusThreshold":0.05,"exampleCost":0.01},"classroomParams":{"A":{"a":1,"b":4},"B":{"a":4,"b":1},"C":{"a":2,"b":8},"D":{"a":8,"b":2}},"conditions":["nonSeqFull","nonSeqPartial","seqNoFeedback","seqFeedback"],"classroomPairings":[["A","B"],["C","D"]],"coinWeights":[0.2,0.5,0.8],"subjectId":"A26RO8GGTQAXGG","assignmentId":"3KOPY89HM9OEXPHU3AW79V2DQMA3JC","hitId":"34XASH8KLQ89J2U8D314D7180O4PMV","url":"https://gershmanlab.com/experiments/alicia/teaching/experiment/?hitId=34XASH8KLQ89J2U8D314D7180O4PMV&workerId=A26RO8GGTQAXGG&assignmentId=3KOPY89HM9OEXPHU3AW79V2DQMA3JC&a=HYOK7&tp_a=HYOK7&b=3KOPY89HM9OEXPHU3AW79V2DQMA3JC&tp_b=3KOPY89HM9OEXPHU3AW79V2DQMA3JC&c=365717&tp_c=365717","heads":4,"tails":1,"studentIndex":12,"studentTrueHypers":{"a":2,"b":8},"studentGuess":0.4,"delta":0.4,"totalExamples":5,"bonus":0,"bonusSoFar":3.93},{"rt":12456,"response":{"heads":"1","tails":"4"},"type":"response","condition":"seqFeedback","trueTheta":0.2,"classrooms":["A","B"],"studentTrueClassroom":"B","exampleSet":"first","trial_type":"survey-html-form","trial_index":111,"time_elapsed":967965,"internal_node_id":"0.0-105.0-0.0","params":{"nStudents":24,"maxFlips":30,"completionMinutes":45,"basePay":8,"maxBonus":9,"perTrialBonus":0.5,"perTrialBonusThreshold":0.05,"exampleCost":0.01},"classroomParams":{"A":{"a":1,"b":4},"B":{"a":4,"b":1},"C":{"a":2,"b":8},"D":{"a":8,"b":2}},"conditions":["nonSeqFull","nonSeqPartial","seqNoFeedback","seqFeedback"],"classroomPairings":[["A","B"],["C","D"]],"coinWeights":[0.2,0.5,0.8],"subjectId":"A26RO8GGTQAXGG","assignmentId":"3KOPY89HM9OEXPHU3AW79V2DQMA3JC","hitId":"34XASH8KLQ89J2U8D314D7180O4PMV","url":"https://gershmanlab.com/experiments/alicia/teaching/experiment/?hitId=34XASH8KLQ89J2U8D314D7180O4PMV&workerId=A26RO8GGTQAXGG&assignmentId=3KOPY89HM9OEXPHU3AW79V2DQMA3JC&a=HYOK7&tp_a=HYOK7&b=3KOPY89HM9OEXPHU3AW79V2DQMA3JC&tp_b=3KOPY89HM9OEXPHU3AW79V2DQMA3JC&c=365717&tp_c=365717","heads":1,"tails":4,"studentIndex":13,"studentTrueHypers":{"a":4,"b":1},"studentGuess":0.5,"delta":0.3,"totalExamples":5,"bonusSoFar":3.93},{"rt":11928,"response":{"heads":"1","tails":"4"},"type":"response","condition":"seqFeedback","trueTheta":0.2,"classrooms":["A","B"],"studentTrueClassroom":"B","exampleSet":"second","trial_type":"survey-html-form","trial_index":115,"time_elapsed":992973,"internal_node_id":"0.0-109.0-0.0","params":{"nStudents":24,"maxFlips":30,"completionMinutes":45,"basePay":8,"maxBonus":9,"perTrialBonus":0.5,"perTrialBonusThreshold":0.05,"exampleCost":0.01},"classroomParams":{"A":{"a":1,"b":4},"B":{"a":4,"b":1},"C":{"a":2,"b":8},"D":{"a":8,"b":2}},"conditions":["nonSeqFull","nonSeqPartial","seqNoFeedback","seqFeedback"],"classroomPairings":[["A","B"],["C","D"]],"coinWeights":[0.2,0.5,0.8],"subjectId":"A26RO8GGTQAXGG","assignmentId":"3KOPY89HM9OEXPHU3AW79V2DQMA3JC","hitId":"34XASH8KLQ89J2U8D314D7180O4PMV","url":"https://gershmanlab.com/experiments/alicia/teaching/experiment/?hitId=34XASH8KLQ89J2U8D314D7180O4PMV&workerId=A26RO8GGTQAXGG&assignmentId=3KOPY89HM9OEXPHU3AW79V2DQMA3JC&a=HYOK7&tp_a=HYOK7&b=3KOPY89HM9OEXPHU3AW79V2DQMA3JC&tp_b=3KOPY89HM9OEXPHU3AW79V2DQMA3JC&c=365717&tp_c=365717","firstResponseHeads":1,"firstResponseTails":4,"secondResponseHeads":1,"secondResponseTails":4,"totalHeads":2,"totalTails":8,"studentIndex":13,"studentTrueHypers":{"a":4,"b":1},"studentGuess":0.4,"delta":0.2,"bonus":0,"bonusSoFar":3.93,"totalExamples":10},{"rt":12223,"response":{"heads":"4","tails":"1"},"type":"response","condition":"seqFeedback","trueTheta":0.8,"classrooms":["C","D"],"studentTrueClassroom":"C","exampleSet":"first","trial_type":"survey-html-form","trial_index":121,"time_elapsed":1021797,"internal_node_id":"0.0-115.0-0.0","params":{"nStudents":24,"maxFlips":30,"completionMinutes":45,"basePay":8,"maxBonus":9,"perTrialBonus":0.5,"perTrialBonusThreshold":0.05,"exampleCost":0.01},"classroomParams":{"A":{"a":1,"b":4},"B":{"a":4,"b":1},"C":{"a":2,"b":8},"D":{"a":8,"b":2}},"conditions":["nonSeqFull","nonSeqPartial","seqNoFeedback","seqFeedback"],"classroomPairings":[["A","B"],["C","D"]],"coinWeights":[0.2,0.5,0.8],"subjectId":"A26RO8GGTQAXGG","assignmentId":"3KOPY89HM9OEXPHU3AW79V2DQMA3JC","hitId":"34XASH8KLQ89J2U8D314D7180O4PMV","url":"https://gershmanlab.com/experiments/alicia/teaching/experiment/?hitId=34XASH8KLQ89J2U8D314D7180O4PMV&workerId=A26RO8GGTQAXGG&assignmentId=3KOPY89HM9OEXPHU3AW79V2DQMA3JC&a=HYOK7&tp_a=HYOK7&b=3KOPY89HM9OEXPHU3AW79V2DQMA3JC&tp_b=3KOPY89HM9OEXPHU3AW79V2DQMA3JC&c=365717&tp_c=365717","heads":4,"tails":1,"studentIndex":14,"studentTrueHypers":{"a":2,"b":8},"studentGuess":0.4,"delta":0.4,"totalExamples":5,"bonusSoFar":3.93},{"rt":10086,"response":{"heads":"4","tails":"1"},"type":"response","condition":"seqFeedback","trueTheta":0.8,"classrooms":["C","D"],"studentTrueClassroom":"C","exampleSet":"second","trial_type":"survey-html-form","trial_index":125,"time_elapsed":1043612,"internal_node_id":"0.0-119.0-0.0","params":{"nStudents":24,"maxFlips":30,"completionMinutes":45,"basePay":8,"maxBonus":9,"perTrialBonus":0.5,"perTrialBonusThreshold":0.05,"exampleCost":0.01},"classroomParams":{"A":{"a":1,"b":4},"B":{"a":4,"b":1},"C":{"a":2,"b":8},"D":{"a":8,"b":2}},"conditions":["nonSeqFull","nonSeqPartial","seqNoFeedback","seqFeedback"],"classroomPairings":[["A","B"],["C","D"]],"coinWeights":[0.2,0.5,0.8],"subjectId":"A26RO8GGTQAXGG","assignmentId":"3KOPY89HM9OEXPHU3AW79V2DQMA3JC","hitId":"34XASH8KLQ89J2U8D314D7180O4PMV","url":"https://gershmanlab.com/experiments/alicia/teaching/experiment/?hitId=34XASH8KLQ89J2U8D314D7180O4PMV&workerId=A26RO8GGTQAXGG&assignmentId=3KOPY89HM9OEXPHU3AW79V2DQMA3JC&a=HYOK7&tp_a=HYOK7&b=3KOPY89HM9OEXPHU3AW79V2DQMA3JC&tp_b=3KOPY89HM9OEXPHU3AW79V2DQMA3JC&c=365717&tp_c=365717","firstResponseHeads":4,"firstResponseTails":1,"secondResponseHeads":4,"secondResponseTails":1,"totalHeads":8,"totalTails":2,"studentIndex":14,"studentTrueHypers":{"a":2,"b":8},"studentGuess":0.5,"delta":0.30000000000000004,"bonus":0,"bonusSoFar":3.93,"totalExamples":10},{"rt":9575,"response":{"heads":"4","tails":"0"},"type":"response","condition":"seqNoFeedback","trueTheta":0.8,"classrooms":["C","D"],"studentTrueClassroom":"D","exampleSet":"first","trial_type":"survey-html-form","trial_index":131,"time_elapsed":1067413,"internal_node_id":"0.0-125.0-0.0","params":{"nStudents":24,"maxFlips":30,"completionMinutes":45,"basePay":8,"maxBonus":9,"perTrialBonus":0.5,"perTrialBonusThreshold":0.05,"exampleCost":0.01},"classroomParams":{"A":{"a":1,"b":4},"B":{"a":4,"b":1},"C":{"a":2,"b":8},"D":{"a":8,"b":2}},"conditions":["nonSeqFull","nonSeqPartial","seqNoFeedback","seqFeedback"],"classroomPairings":[["A","B"],["C","D"]],"coinWeights":[0.2,0.5,0.8],"subjectId":"A26RO8GGTQAXGG","assignmentId":"3KOPY89HM9OEXPHU3AW79V2DQMA3JC","hitId":"34XASH8KLQ89J2U8D314D7180O4PMV","url":"https://gershmanlab.com/experiments/alicia/teaching/experiment/?hitId=34XASH8KLQ89J2U8D314D7180O4PMV&workerId=A26RO8GGTQAXGG&assignmentId=3KOPY89HM9OEXPHU3AW79V2DQMA3JC&a=HYOK7&tp_a=HYOK7&b=3KOPY89HM9OEXPHU3AW79V2DQMA3JC&tp_b=3KOPY89HM9OEXPHU3AW79V2DQMA3JC&c=365717&tp_c=365717","heads":4,"tails":0,"studentIndex":15,"studentTrueHypers":{"a":8,"b":2},"studentGuess":0.8571428571428571,"delta":0.05714285714285705,"totalExamples":4,"bonusSoFar":3.93},{"rt":13954,"response":{"heads":"4","tails":"0"},"type":"response","condition":"seqNoFeedback","trueTheta":0.8,"classrooms":["C","D"],"studentTrueClassroom":"D","exampleSet":"second","trial_type":"survey-html-form","trial_index":134,"time_elapsed":1087893,"internal_node_id":"0.0-128.0-0.0","params":{"nStudents":24,"maxFlips":30,"completionMinutes":45,"basePay":8,"maxBonus":9,"perTrialBonus":0.5,"perTrialBonusThreshold":0.05,"exampleCost":0.01},"classroomParams":{"A":{"a":1,"b":4},"B":{"a":4,"b":1},"C":{"a":2,"b":8},"D":{"a":8,"b":2}},"conditions":["nonSeqFull","nonSeqPartial","seqNoFeedback","seqFeedback"],"classroomPairings":[["A","B"],["C","D"]],"coinWeights":[0.2,0.5,0.8],"subjectId":"A26RO8GGTQAXGG","assignmentId":"3KOPY89HM9OEXPHU3AW79V2DQMA3JC","hitId":"34XASH8KLQ89J2U8D314D7180O4PMV","url":"https://gershmanlab.com/experiments/alicia/teaching/experiment/?hitId=34XASH8KLQ89J2U8D314D7180O4PMV&workerId=A26RO8GGTQAXGG&assignmentId=3KOPY89HM9OEXPHU3AW79V2DQMA3JC&a=HYOK7&tp_a=HYOK7&b=3KOPY89HM9OEXPHU3AW79V2DQMA3JC&tp_b=3KOPY89HM9OEXPHU3AW79V2DQMA3JC&c=365717&tp_c=365717","firstResponseHeads":4,"firstResponseTails":0,"secondResponseHeads":4,"secondResponseTails":0,"totalHeads":8,"totalTails":0,"studentIndex":15,"studentTrueHypers":{"a":8,"b":2},"studentGuess":0.8888888888888888,"delta":0.0888888888888888,"bonus":0,"bonusSoFar":3.93,"totalExamples":8},{"rt":9095,"response":{"heads":"1","tails":"4"},"type":"response","condition":"nonSeqPartial","trueTheta":0.2,"classrooms":["A","B"],"studentTrueClassroom":"B","exampleSet":"first","trial_type":"survey-html-form","trial_index":140,"time_elapsed":1115989,"internal_node_id":"0.0-134.0-0.0","params":{"nStudents":24,"maxFlips":30,"completionMinutes":45,"basePay":8,"maxBonus":9,"perTrialBonus":0.5,"perTrialBonusThreshold":0.05,"exampleCost":0.01},"classroomParams":{"A":{"a":1,"b":4},"B":{"a":4,"b":1},"C":{"a":2,"b":8},"D":{"a":8,"b":2}},"conditions":["nonSeqFull","nonSeqPartial","seqNoFeedback","seqFeedback"],"classroomPairings":[["A","B"],["C","D"]],"coinWeights":[0.2,0.5,0.8],"subjectId":"A26RO8GGTQAXGG","assignmentId":"3KOPY89HM9OEXPHU3AW79V2DQMA3JC","hitId":"34XASH8KLQ89J2U8D314D7180O4PMV","url":"https://gershmanlab.com/experiments/alicia/teaching/experiment/?hitId=34XASH8KLQ89J2U8D314D7180O4PMV&workerId=A26RO8GGTQAXGG&assignmentId=3KOPY89HM9OEXPHU3AW79V2DQMA3JC&a=HYOK7&tp_a=HYOK7&b=3KOPY89HM9OEXPHU3AW79V2DQMA3JC&tp_b=3KOPY89HM9OEXPHU3AW79V2DQMA3JC&c=365717&tp_c=365717","heads":1,"tails":4,"studentIndex":16,"studentTrueHypers":{"a":4,"b":1},"studentGuess":0.5,"delta":0.3,"totalExamples":5,"bonus":0,"bonusSoFar":3.93},{"rt":27367,"response":{"heads":"0","tails":"6"},"type":"response","condition":"nonSeqFull","trueTheta":0.2,"classrooms":["C","D"],"studentTrueClassroom":"D","exampleSet":"first","trial_type":"survey-html-form","trial_index":146,"time_elapsed":1156788,"internal_node_id":"0.0-140.0-0.0","params":{"nStudents":24,"maxFlips":30,"completionMinutes":45,"basePay":8,"maxBonus":9,"perTrialBonus":0.5,"perTrialBonusThreshold":0.05,"exampleCost":0.01},"classroomParams":{"A":{"a":1,"b":4},"B":{"a":4,"b":1},"C":{"a":2,"b":8},"D":{"a":8,"b":2}},"conditions":["nonSeqFull","nonSeqPartial","seqNoFeedback","seqFeedback"],"classroomPairings":[["A","B"],["C","D"]],"coinWeights":[0.2,0.5,0.8],"subjectId":"A26RO8GGTQAXGG","assignmentId":"3KOPY89HM9OEXPHU3AW79V2DQMA3JC","hitId":"34XASH8KLQ89J2U8D314D7180O4PMV","url":"https://gershmanlab.com/experiments/alicia/teaching/experiment/?hitId=34XASH8KLQ89J2U8D314D7180O4PMV&workerId=A26RO8GGTQAXGG&assignmentId=3KOPY89HM9OEXPHU3AW79V2DQMA3JC&a=HYOK7&tp_a=HYOK7&b=3KOPY89HM9OEXPHU3AW79V2DQMA3JC&tp_b=3KOPY89HM9OEXPHU3AW79V2DQMA3JC&c=365717&tp_c=365717","heads":0,"tails":6,"studentIndex":17,"studentTrueHypers":{"a":8,"b":2},"studentGuess":0.5,"delta":0.3,"totalExamples":6,"bonus":0,"bonusSoFar":3.93},{"rt":11414,"response":{"heads":"1","tails":"4"},"type":"response","condition":"seqNoFeedback","trueTheta":0.2,"classrooms":["C","D"],"studentTrueClassroom":"C","exampleSet":"first","trial_type":"survey-html-form","trial_index":152,"time_elapsed":1182100,"internal_node_id":"0.0-146.0-0.0","params":{"nStudents":24,"maxFlips":30,"completionMinutes":45,"basePay":8,"maxBonus":9,"perTrialBonus":0.5,"perTrialBonusThreshold":0.05,"exampleCost":0.01},"classroomParams":{"A":{"a":1,"b":4},"B":{"a":4,"b":1},"C":{"a":2,"b":8},"D":{"a":8,"b":2}},"conditions":["nonSeqFull","nonSeqPartial","seqNoFeedback","seqFeedback"],"classroomPairings":[["A","B"],["C","D"]],"coinWeights":[0.2,0.5,0.8],"subjectId":"A26RO8GGTQAXGG","assignmentId":"3KOPY89HM9OEXPHU3AW79V2DQMA3JC","hitId":"34XASH8KLQ89J2U8D314D7180O4PMV","url":"https://gershmanlab.com/experiments/alicia/teaching/experiment/?hitId=34XASH8KLQ89J2U8D314D7180O4PMV&workerId=A26RO8GGTQAXGG&assignmentId=3KOPY89HM9OEXPHU3AW79V2DQMA3JC&a=HYOK7&tp_a=HYOK7&b=3KOPY89HM9OEXPHU3AW79V2DQMA3JC&tp_b=3KOPY89HM9OEXPHU3AW79V2DQMA3JC&c=365717&tp_c=365717","heads":1,"tails":4,"studentIndex":18,"studentTrueHypers":{"a":2,"b":8},"studentGuess":0.2,"delta":0,"totalExamples":5,"bonusSoFar":3.93},{"rt":11974,"response":{"heads":"1","tails":"4"},"type":"response","condition":"seqNoFeedback","trueTheta":0.2,"classrooms":["C","D"],"studentTrueClassroom":"C","exampleSet":"second","trial_type":"survey-html-form","trial_index":155,"time_elapsed":1199836,"internal_node_id":"0.0-149.0-0.0","params":{"nStudents":24,"maxFlips":30,"completionMinutes":45,"basePay":8,"maxBonus":9,"perTrialBonus":0.5,"perTrialBonusThreshold":0.05,"exampleCost":0.01},"classroomParams":{"A":{"a":1,"b":4},"B":{"a":4,"b":1},"C":{"a":2,"b":8},"D":{"a":8,"b":2}},"conditions":["nonSeqFull","nonSeqPartial","seqNoFeedback","seqFeedback"],"classroomPairings":[["A","B"],["C","D"]],"coinWeights":[0.2,0.5,0.8],"subjectId":"A26RO8GGTQAXGG","assignmentId":"3KOPY89HM9OEXPHU3AW79V2DQMA3JC","hitId":"34XASH8KLQ89J2U8D314D7180O4PMV","url":"https://gershmanlab.com/experiments/alicia/teaching/experiment/?hitId=34XASH8KLQ89J2U8D314D7180O4PMV&workerId=A26RO8GGTQAXGG&assignmentId=3KOPY89HM9OEXPHU3AW79V2DQMA3JC&a=HYOK7&tp_a=HYOK7&b=3KOPY89HM9OEXPHU3AW79V2DQMA3JC&tp_b=3KOPY89HM9OEXPHU3AW79V2DQMA3JC&c=365717&tp_c=365717","firstResponseHeads":1,"firstResponseTails":4,"secondResponseHeads":1,"secondResponseTails":4,"totalHeads":2,"totalTails":8,"studentIndex":18,"studentTrueHypers":{"a":2,"b":8},"studentGuess":0.2,"delta":0,"bonus":0.4,"bonusSoFar":4.33,"totalExamples":10},{"rt":9631,"response":{"heads":"3","tails":"0"},"type":"response","condition":"nonSeqFull","trueTheta":0.5,"classrooms":["A","B"],"studentTrueClassroom":"A","exampleSet":"first","trial_type":"survey-html-form","trial_index":161,"time_elapsed":1223621,"internal_node_id":"0.0-155.0-0.0","params":{"nStudents":24,"maxFlips":30,"completionMinutes":45,"basePay":8,"maxBonus":9,"perTrialBonus":0.5,"perTrialBonusThreshold":0.05,"exampleCost":0.01},"classroomParams":{"A":{"a":1,"b":4},"B":{"a":4,"b":1},"C":{"a":2,"b":8},"D":{"a":8,"b":2}},"conditions":["nonSeqFull","nonSeqPartial","seqNoFeedback","seqFeedback"],"classroomPairings":[["A","B"],["C","D"]],"coinWeights":[0.2,0.5,0.8],"subjectId":"A26RO8GGTQAXGG","assignmentId":"3KOPY89HM9OEXPHU3AW79V2DQMA3JC","hitId":"34XASH8KLQ89J2U8D314D7180O4PMV","url":"https://gershmanlab.com/experiments/alicia/teaching/experiment/?hitId=34XASH8KLQ89J2U8D314D7180O4PMV&workerId=A26RO8GGTQAXGG&assignmentId=3KOPY89HM9OEXPHU3AW79V2DQMA3JC&a=HYOK7&tp_a=HYOK7&b=3KOPY89HM9OEXPHU3AW79V2DQMA3JC&tp_b=3KOPY89HM9OEXPHU3AW79V2DQMA3JC&c=365717&tp_c=365717","heads":3,"tails":0,"studentIndex":19,"studentTrueHypers":{"a":1,"b":4},"studentGuess":0.5,"delta":0,"totalExamples":3,"bonus":0.47,"bonusSoFar":4.8},{"rt":10920,"response":{"heads":"1","tails":"4"},"type":"response","condition":"seqFeedback","trueTheta":0.2,"classrooms":["C","D"],"studentTrueClassroom":"D","exampleSet":"first","trial_type":"survey-html-form","trial_index":167,"time_elapsed":1253109,"internal_node_id":"0.0-161.0-0.0","params":{"nStudents":24,"maxFlips":30,"completionMinutes":45,"basePay":8,"maxBonus":9,"perTrialBonus":0.5,"perTrialBonusThreshold":0.05,"exampleCost":0.01},"classroomParams":{"A":{"a":1,"b":4},"B":{"a":4,"b":1},"C":{"a":2,"b":8},"D":{"a":8,"b":2}},"conditions":["nonSeqFull","nonSeqPartial","seqNoFeedback","seqFeedback"],"classroomPairings":[["A","B"],["C","D"]],"coinWeights":[0.2,0.5,0.8],"subjectId":"A26RO8GGTQAXGG","assignmentId":"3KOPY89HM9OEXPHU3AW79V2DQMA3JC","hitId":"34XASH8KLQ89J2U8D314D7180O4PMV","url":"https://gershmanlab.com/experiments/alicia/teaching/experiment/?hitId=34XASH8KLQ89J2U8D314D7180O4PMV&workerId=A26RO8GGTQAXGG&assignmentId=3KOPY89HM9OEXPHU3AW79V2DQMA3JC&a=HYOK7&tp_a=HYOK7&b=3KOPY89HM9OEXPHU3AW79V2DQMA3JC&tp_b=3KOPY89HM9OEXPHU3AW79V2DQMA3JC&c=365717&tp_c=365717","heads":1,"tails":4,"studentIndex":20,"studentTrueHypers":{"a":8,"b":2},"studentGuess":0.6,"delta":0.39999999999999997,"totalExamples":5,"bonusSoFar":4.8},{"rt":13463,"response":{"heads":"0","tails":"6"},"type":"response","condition":"seqFeedback","trueTheta":0.2,"classrooms":["C","D"],"studentTrueClassroom":"D","exampleSet":"second","trial_type":"survey-html-form","trial_index":171,"time_elapsed":1277692,"internal_node_id":"0.0-165.0-0.0","params":{"nStudents":24,"maxFlips":30,"completionMinutes":45,"basePay":8,"maxBonus":9,"perTrialBonus":0.5,"perTrialBonusThreshold":0.05,"exampleCost":0.01},"classroomParams":{"A":{"a":1,"b":4},"B":{"a":4,"b":1},"C":{"a":2,"b":8},"D":{"a":8,"b":2}},"conditions":["nonSeqFull","nonSeqPartial","seqNoFeedback","seqFeedback"],"classroomPairings":[["A","B"],["C","D"]],"coinWeights":[0.2,0.5,0.8],"subjectId":"A26RO8GGTQAXGG","assignmentId":"3KOPY89HM9OEXPHU3AW79V2DQMA3JC","hitId":"34XASH8KLQ89J2U8D314D7180O4PMV","url":"https://gershmanlab.com/experiments/alicia/teaching/experiment/?hitId=34XASH8KLQ89J2U8D314D7180O4PMV&workerId=A26RO8GGTQAXGG&assignmentId=3KOPY89HM9OEXPHU3AW79V2DQMA3JC&a=HYOK7&tp_a=HYOK7&b=3KOPY89HM9OEXPHU3AW79V2DQMA3JC&tp_b=3KOPY89HM9OEXPHU3AW79V2DQMA3JC&c=365717&tp_c=365717","firstResponseHeads":1,"firstResponseTails":4,"secondResponseHeads":0,"secondResponseTails":6,"totalHeads":1,"totalTails":10,"studentIndex":20,"studentTrueHypers":{"a":8,"b":2},"studentGuess":0.42857142857142855,"delta":0.22857142857142854,"bonus":0,"bonusSoFar":4.8,"totalExamples":11},{"rt":11647,"response":{"heads":"6","tails":"0"},"type":"response","condition":"nonSeqFull","trueTheta":0.5,"classrooms":["C","D"],"studentTrueClassroom":"C","exampleSet":"first","trial_type":"survey-html-form","trial_index":177,"time_elapsed":1308316,"internal_node_id":"0.0-171.0-0.0","params":{"nStudents":24,"maxFlips":30,"completionMinutes":45,"basePay":8,"maxBonus":9,"perTrialBonus":0.5,"perTrialBonusThreshold":0.05,"exampleCost":0.01},"classroomParams":{"A":{"a":1,"b":4},"B":{"a":4,"b":1},"C":{"a":2,"b":8},"D":{"a":8,"b":2}},"conditions":["nonSeqFull","nonSeqPartial","seqNoFeedback","seqFeedback"],"classroomPairings":[["A","B"],["C","D"]],"coinWeights":[0.2,0.5,0.8],"subjectId":"A26RO8GGTQAXGG","assignmentId":"3KOPY89HM9OEXPHU3AW79V2DQMA3JC","hitId":"34XASH8KLQ89J2U8D314D7180O4PMV","url":"https://gershmanlab.com/experiments/alicia/teaching/experiment/?hitId=34XASH8KLQ89J2U8D314D7180O4PMV&workerId=A26RO8GGTQAXGG&assignmentId=3KOPY89HM9OEXPHU3AW79V2DQMA3JC&a=HYOK7&tp_a=HYOK7&b=3KOPY89HM9OEXPHU3AW79V2DQMA3JC&tp_b=3KOPY89HM9OEXPHU3AW79V2DQMA3JC&c=365717&tp_c=365717","heads":6,"tails":0,"studentIndex":21,"studentTrueHypers":{"a":2,"b":8},"studentGuess":0.5,"delta":0,"totalExamples":6,"bonus":0.44,"bonusSoFar":5.24},{"rt":12365,"response":{"heads":"4","tails":"1"},"type":"response","condition":"seqNoFeedback","trueTheta":0.8,"classrooms":["A","B"],"studentTrueClassroom":"A","exampleSet":"first","trial_type":"survey-html-form","trial_index":183,"time_elapsed":1335373,"internal_node_id":"0.0-177.0-0.0","params":{"nStudents":24,"maxFlips":30,"completionMinutes":45,"basePay":8,"maxBonus":9,"perTrialBonus":0.5,"perTrialBonusThreshold":0.05,"exampleCost":0.01},"classroomParams":{"A":{"a":1,"b":4},"B":{"a":4,"b":1},"C":{"a":2,"b":8},"D":{"a":8,"b":2}},"conditions":["nonSeqFull","nonSeqPartial","seqNoFeedback","seqFeedback"],"classroomPairings":[["A","B"],["C","D"]],"coinWeights":[0.2,0.5,0.8],"subjectId":"A26RO8GGTQAXGG","assignmentId":"3KOPY89HM9OEXPHU3AW79V2DQMA3JC","hitId":"34XASH8KLQ89J2U8D314D7180O4PMV","url":"https://gershmanlab.com/experiments/alicia/teaching/experiment/?hitId=34XASH8KLQ89J2U8D314D7180O4PMV&workerId=A26RO8GGTQAXGG&assignmentId=3KOPY89HM9OEXPHU3AW79V2DQMA3JC&a=HYOK7&tp_a=HYOK7&b=3KOPY89HM9OEXPHU3AW79V2DQMA3JC&tp_b=3KOPY89HM9OEXPHU3AW79V2DQMA3JC&c=365717&tp_c=365717","heads":4,"tails":1,"studentIndex":22,"studentTrueHypers":{"a":1,"b":4},"studentGuess":0.5,"delta":0.30000000000000004,"totalExamples":5,"bonusSoFar":5.24},{"rt":11670,"response":{"heads":"4","tails":"1"},"type":"response","condition":"seqNoFeedback","trueTheta":0.8,"classrooms":["A","B"],"studentTrueClassroom":"A","exampleSet":"second","trial_type":"survey-html-form","trial_index":186,"time_elapsed":1352797,"internal_node_id":"0.0-180.0-0.0","params":{"nStudents":24,"maxFlips":30,"completionMinutes":45,"basePay":8,"maxBonus":9,"perTrialBonus":0.5,"perTrialBonusThreshold":0.05,"exampleCost":0.01},"classroomParams":{"A":{"a":1,"b":4},"B":{"a":4,"b":1},"C":{"a":2,"b":8},"D":{"a":8,"b":2}},"conditions":["nonSeqFull","nonSeqPartial","seqNoFeedback","seqFeedback"],"classroomPairings":[["A","B"],["C","D"]],"coinWeights":[0.2,0.5,0.8],"subjectId":"A26RO8GGTQAXGG","assignmentId":"3KOPY89HM9OEXPHU3AW79V2DQMA3JC","hitId":"34XASH8KLQ89J2U8D314D7180O4PMV","url":"https://gershmanlab.com/experiments/alicia/teaching/experiment/?hitId=34XASH8KLQ89J2U8D314D7180O4PMV&workerId=A26RO8GGTQAXGG&assignmentId=3KOPY89HM9OEXPHU3AW79V2DQMA3JC&a=HYOK7&tp_a=HYOK7&b=3KOPY89HM9OEXPHU3AW79V2DQMA3JC&tp_b=3KOPY89HM9OEXPHU3AW79V2DQMA3JC&c=365717&tp_c=365717","firstResponseHeads":4,"firstResponseTails":1,"secondResponseHeads":4,"secondResponseTails":1,"totalHeads":8,"totalTails":2,"studentIndex":22,"studentTrueHypers":{"a":1,"b":4},"studentGuess":0.6,"delta":0.20000000000000007,"bonus":0,"bonusSoFar":5.24,"totalExamples":10},{"rt":8359,"response":{"heads":"1","tails":"1"},"type":"response","condition":"nonSeqPartial","trueTheta":0.5,"classrooms":["C","D"],"studentTrueClassroom":"C","exampleSet":"first","trial_type":"survey-html-form","trial_index":192,"time_elapsed":1379853,"internal_node_id":"0.0-186.0-0.0","params":{"nStudents":24,"maxFlips":30,"completionMinutes":45,"basePay":8,"maxBonus":9,"perTrialBonus":0.5,"perTrialBonusThreshold":0.05,"exampleCost":0.01},"classroomParams":{"A":{"a":1,"b":4},"B":{"a":4,"b":1},"C":{"a":2,"b":8},"D":{"a":8,"b":2}},"conditions":["nonSeqFull","nonSeqPartial","seqNoFeedback","seqFeedback"],"classroomPairings":[["A","B"],["C","D"]],"coinWeights":[0.2,0.5,0.8],"subjectId":"A26RO8GGTQAXGG","assignmentId":"3KOPY89HM9OEXPHU3AW79V2DQMA3JC","hitId":"34XASH8KLQ89J2U8D314D7180O4PMV","url":"https://gershmanlab.com/experiments/alicia/teaching/experiment/?hitId=34XASH8KLQ89J2U8D314D7180O4PMV&workerId=A26RO8GGTQAXGG&assignmentId=3KOPY89HM9OEXPHU3AW79V2DQMA3JC&a=HYOK7&tp_a=HYOK7&b=3KOPY89HM9OEXPHU3AW79V2DQMA3JC&tp_b=3KOPY89HM9OEXPHU3AW79V2DQMA3JC&c=365717&tp_c=365717","heads":1,"tails":1,"studentIndex":23,"studentTrueHypers":{"a":2,"b":8},"studentGuess":0.25,"delta":0.25,"totalExamples":2,"bonus":0,"bonusSoFar":5.24},{"rt":18999,"response":{"gender":"female","age":"58","understood":"yes","comments":""},"type":"response","trial_type":"survey-html-form","trial_index":196,"time_elapsed":1408044,"internal_node_id":"0.0-191.0","params":{"nStudents":24,"maxFlips":30,"completionMinutes":45,"basePay":8,"maxBonus":9,"perTrialBonus":0.5,"perTrialBonusThreshold":0.05,"exampleCost":0.01},"classroomParams":{"A":{"a":1,"b":4},"B":{"a":4,"b":1},"C":{"a":2,"b":8},"D":{"a":8,"b":2}},"conditions":["nonSeqFull","nonSeqPartial","seqNoFeedback","seqFeedback"],"classroomPairings":[["A","B"],["C","D"]],"coinWeights":[0.2,0.5,0.8],"subjectId":"A26RO8GGTQAXGG","assignmentId":"3KOPY89HM9OEXPHU3AW79V2DQMA3JC","hitId":"34XASH8KLQ89J2U8D314D7180O4PMV","url":"https://gershmanlab.com/experiments/alicia/teaching/experiment/?hitId=34XASH8KLQ89J2U8D314D7180O4PMV&workerId=A26RO8GGTQAXGG&assignmentId=3KOPY89HM9OEXPHU3AW79V2DQMA3JC&a=HYOK7&tp_a=HYOK7&b=3KOPY89HM9OEXPHU3AW79V2DQMA3JC&tp_b=3KOPY89HM9OEXPHU3AW79V2DQMA3JC&c=365717&tp_c=365717","totalBonus":5.24}]