[{"rt":23868,"response":{"heads":"8","tails":"2"},"type":"response","condition":"nonSeqPartial","trueTheta":0.8,"classrooms":["A","B"],"studentTrueClassroom":"B","exampleSet":"first","trial_type":"survey-html-form","trial_index":13,"time_elapsed":517742,"internal_node_id":"0.0-6.0-0.0","params":{"nStudents":24,"maxFlips":30,"completionMinutes":45,"basePay":8,"maxBonus":9,"perTrialBonus":0.5,"perTrialBonusThreshold":0.05,"exampleCost":0.01},"classroomParams":{"A":{"a":1,"b":4},"B":{"a":4,"b":1},"C":{"a":2,"b":8},"D":{"a":8,"b":2}},"conditions":["nonSeqFull","nonSeqPartial","seqNoFeedback","seqFeedback"],"classroomPairings":[["A","B"],["C","D"]],"coinWeights":[0.2,0.5,0.8],"subjectId":"A26SF9CTNKKBYB","assignmentId":"3S96KQ6I9NQ6TKFW8TGNOABYF1QDTP","hitId":"3FJ2RVH25ZSYKBA8MWMNC8NVPF629N","url":"https://gershmanlab.com/experiments/alicia/teaching/experiment/?hitId=3FJ2RVH25ZSYKBA8MWMNC8NVPF629N&workerId=A26SF9CTNKKBYB&assignmentId=3S96KQ6I9NQ6TKFW8TGNOABYF1QDTP&a=IK9S7&tp_a=IK9S7&b=3S96KQ6I9NQ6TKFW8TGNOABYF1QDTP&tp_b=3S96KQ6I9NQ6TKFW8TGNOABYF1QDTP&c=365717&tp_c=365717","heads":8,"tails":2,"studentIndex":0,"studentTrueHypers":{"a":4,"b":1},"studentGuess":0.8,"delta":0,"totalExamples":10,"bonus":0.4,"bonusSoFar":0.4},{"rt":36654,"response":{"heads":"14","tails":"10"},"type":"response","condition":"nonSeqFull","trueTheta":0.5,"classrooms":["A","B"],"studentTrueClassroom":"A","exampleSet":"first","trial_type":"survey-html-form","trial_index":19,"time_elapsed":573453,"internal_node_id":"0.0-12.0-0.0","params":{"nStudents":24,"maxFlips":30,"completionMinutes":45,"basePay":8,"maxBonus":9,"perTrialBonus":0.5,"perTrialBonusThreshold":0.05,"exampleCost":0.01},"classroomParams":{"A":{"a":1,"b":4},"B":{"a":4,"b":1},"C":{"a":2,"b":8},"D":{"a":8,"b":2}},"conditions":["nonSeqFull","nonSeqPartial","seqNoFeedback","seqFeedback"],"classroomPairings":[["A","B"],["C","D"]],"coinWeights":[0.2,0.5,0.8],"subjectId":"A26SF9CTNKKBYB","assignmentId":"3S96KQ6I9NQ6TKFW8TGNOABYF1QDTP","hitId":"3FJ2RVH25ZSYKBA8MWMNC8NVPF629N","url":"https://gershmanlab.com/experiments/alicia/teaching/experiment/?hitId=3FJ2RVH25ZSYKBA8MWMNC8NVPF629N&workerId=A26SF9CTNKKBYB&assignmentId=3S96KQ6I9NQ6TKFW8TGNOABYF1QDTP&a=IK9S7&tp_a=IK9S7&b=3S96KQ6I9NQ6TKFW8TGNOABYF1QDTP&tp_b=3S96KQ6I9NQ6TKFW8TGNOABYF1QDTP&c=365717&tp_c=365717","heads":14,"tails":10,"studentIndex":1,"studentTrueHypers":{"a":1,"b":4},"studentGuess":0.5172413793103449,"delta":0.017241379310344862,"totalExamples":24,"bonus":0.26,"bonusSoFar":0.66},{"rt":16006,"response":{"heads":"8","tails":"2"},"type":"response","condition":"seqNoFeedback","trueTheta":0.8,"classrooms":["C","D"],"studentTrueClassroom":"C","exampleSet":"first","trial_type":"survey-html-form","trial_index":25,"time_elapsed":607062,"internal_node_id":"0.0-18.0-0.0","params":{"nStudents":24,"maxFlips":30,"completionMinutes":45,"basePay":8,"maxBonus":9,"perTrialBonus":0.5,"perTrialBonusThreshold":0.05,"exampleCost":0.01},"classroomParams":{"A":{"a":1,"b":4},"B":{"a":4,"b":1},"C":{"a":2,"b":8},"D":{"a":8,"b":2}},"conditions":["nonSeqFull","nonSeqPartial","seqNoFeedback","seqFeedback"],"classroomPairings":[["A","B"],["C","D"]],"coinWeights":[0.2,0.5,0.8],"subjectId":"A26SF9CTNKKBYB","assignmentId":"3S96KQ6I9NQ6TKFW8TGNOABYF1QDTP","hitId":"3FJ2RVH25ZSYKBA8MWMNC8NVPF629N","url":"https://gershmanlab.com/experiments/alicia/teaching/experiment/?hitId=3FJ2RVH25ZSYKBA8MWMNC8NVPF629N&workerId=A26SF9CTNKKBYB&assignmentId=3S96KQ6I9NQ6TKFW8TGNOABYF1QDTP&a=IK9S7&tp_a=IK9S7&b=3S96KQ6I9NQ6TKFW8TGNOABYF1QDTP&tp_b=3S96KQ6I9NQ6TKFW8TGNOABYF1QDTP&c=365717&tp_c=365717","heads":8,"tails":2,"studentIndex":2,"studentTrueHypers":{"a":2,"b":8},"studentGuess":0.5,"delta":0.30000000000000004,"totalExamples":10,"bonusSoFar":0.66},{"rt":8659,"response":{"heads":"8","tails":"2"},"type":"response","condition":"seqNoFeedback","trueTheta":0.8,"classrooms":["C","D"],"studentTrueClassroom":"C","exampleSet":"second","trial_type":"survey-html-form","trial_index":28,"time_elapsed":622230,"internal_node_id":"0.0-21.0-0.0","params":{"nStudents":24,"maxFlips":30,"completionMinutes":45,"basePay":8,"maxBonus":9,"perTrialBonus":0.5,"perTrialBonusThreshold":0.05,"exampleCost":0.01},"classroomParams":{"A":{"a":1,"b":4},"B":{"a":4,"b":1},"C":{"a":2,"b":8},"D":{"a":8,"b":2}},"conditions":["nonSeqFull","nonSeqPartial","seqNoFeedback","seqFeedback"],"classroomPairings":[["A","B"],["C","D"]],"coinWeights":[0.2,0.5,0.8],"subjectId":"A26SF9CTNKKBYB","assignmentId":"3S96KQ6I9NQ6TKFW8TGNOABYF1QDTP","hitId":"3FJ2RVH25ZSYKBA8MWMNC8NVPF629N","url":"https://gershmanlab.com/experiments/alicia/teaching/experiment/?hitId=3FJ2RVH25ZSYKBA8MWMNC8NVPF629N&workerId=A26SF9CTNKKBYB&assignmentId=3S96KQ6I9NQ6TKFW8TGNOABYF1QDTP&a=IK9S7&tp_a=IK9S7&b=3S96KQ6I9NQ6TKFW8TGNOABYF1QDTP&tp_b=3S96KQ6I9NQ6TKFW8TGNOABYF1QDTP&c=365717&tp_c=365717","firstResponseHeads":8,"firstResponseTails":2,"secondResponseHeads":8,"secondResponseTails":2,"totalHeads":16,"totalTails":4,"studentIndex":2,"studentTrueHypers":{"a":2,"b":8},"studentGuess":0.6,"delta":0.20000000000000007,"bonus":0,"bonusSoFar":0.66,"totalExamples":20},{"rt":9837,"response":{"heads":"10","tails":"10"},"type":"response","condition":"seqFeedback","trueTheta":0.5,"classrooms":["C","D"],"studentTrueClassroom":"D","exampleSet":"first","trial_type":"survey-html-form","trial_index":34,"time_elapsed":657679,"internal_node_id":"0.0-27.0-0.0","params":{"nStudents":24,"maxFlips":30,"completionMinutes":45,"basePay":8,"maxBonus":9,"perTrialBonus":0.5,"perTrialBonusThreshold":0.05,"exampleCost":0.01},"classroomParams":{"A":{"a":1,"b":4},"B":{"a":4,"b":1},"C":{"a":2,"b":8},"D":{"a":8,"b":2}},"conditions":["nonSeqFull","nonSeqPartial","seqNoFeedback","seqFeedback"],"classroomPairings":[["A","B"],["C","D"]],"coinWeights":[0.2,0.5,0.8],"subjectId":"A26SF9CTNKKBYB","assignmentId":"3S96KQ6I9NQ6TKFW8TGNOABYF1QDTP","hitId":"3FJ2RVH25ZSYKBA8MWMNC8NVPF629N","url":"https://gershmanlab.com/experiments/alicia/teaching/experiment/?hitId=3FJ2RVH25ZSYKBA8MWMNC8NVPF629N&workerId=A26SF9CTNKKBYB&assignmentId=3S96KQ6I9NQ6TKFW8TGNOABYF1QDTP&a=IK9S7&tp_a=IK9S7&b=3S96KQ6I9NQ6TKFW8TGNOABYF1QDTP&tp_b=3S96KQ6I9NQ6TKFW8TGNOABYF1QDTP&c=365717&tp_c=365717","heads":10,"tails":10,"studentIndex":3,"studentTrueHypers":{"a":8,"b":2},"studentGuess":0.6,"delta":0.09999999999999998,"totalExamples":20,"bonusSoFar":0.66},{"rt":8199,"response":{"heads":"8","tails":"10"},"type":"response","condition":"seqFeedback","trueTheta":0.5,"classrooms":["C","D"],"studentTrueClassroom":"D","exampleSet":"second","trial_type":"survey-html-form","trial_index":38,"time_elapsed":677575,"internal_node_id":"0.0-31.0-0.0","params":{"nStudents":24,"maxFlips":30,"completionMinutes":45,"basePay":8,"maxBonus":9,"perTrialBonus":0.5,"perTrialBonusThreshold":0.05,"exampleCost":0.01},"classroomParams":{"A":{"a":1,"b":4},"B":{"a":4,"b":1},"C":{"a":2,"b":8},"D":{"a":8,"b":2}},"conditions":["nonSeqFull","nonSeqPartial","seqNoFeedback","seqFeedback"],"classroomPairings":[["A","B"],["C","D"]],"coinWeights":[0.2,0.5,0.8],"subjectId":"A26SF9CTNKKBYB","assignmentId":"3S96KQ6I9NQ6TKFW8TGNOABYF1QDTP","hitId":"3FJ2RVH25ZSYKBA8MWMNC8NVPF629N","url":"https://gershmanlab.com/experiments/alicia/teaching/experiment/?hitId=3FJ2RVH25ZSYKBA8MWMNC8NVPF629N&workerId=A26SF9CTNKKBYB&assignmentId=3S96KQ6I9NQ6TKFW8TGNOABYF1QDTP&a=IK9S7&tp_a=IK9S7&b=3S96KQ6I9NQ6TKFW8TGNOABYF1QDTP&tp_b=3S96KQ6I9NQ6TKFW8TGNOABYF1QDTP&c=365717&tp_c=365717","firstResponseHeads":10,"firstResponseTails":10,"secondResponseHeads":8,"secondResponseTails":10,"totalHeads":18,"totalTails":20,"studentIndex":3,"studentTrueHypers":{"a":8,"b":2},"studentGuess":0.5416666666666666,"delta":0.04166666666666663,"bonus":0.12,"bonusSoFar":0.78,"totalExamples":38},{"rt":20813,"response":{"heads":"15","tails":"15"},"type":"response","condition":"nonSeqPartial","trueTheta":0.5,"classrooms":["A","B"],"studentTrueClassroom":"B","exampleSet":"first","trial_type":"survey-html-form","trial_index":44,"time_elapsed":714001,"internal_node_id":"0.0-37.0-0.0","params":{"nStudents":24,"maxFlips":30,"completionMinutes":45,"basePay":8,"maxBonus":9,"perTrialBonus":0.5,"perTrialBonusThreshold":0.05,"exampleCost":0.01},"classroomParams":{"A":{"a":1,"b":4},"B":{"a":4,"b":1},"C":{"a":2,"b":8},"D":{"a":8,"b":2}},"conditions":["nonSeqFull","nonSeqPartial","seqNoFeedback","seqFeedback"],"classroomPairings":[["A","B"],["C","D"]],"coinWeights":[0.2,0.5,0.8],"subjectId":"A26SF9CTNKKBYB","assignmentId":"3S96KQ6I9NQ6TKFW8TGNOABYF1QDTP","hitId":"3FJ2RVH25ZSYKBA8MWMNC8NVPF629N","url":"https://gershmanlab.com/experiments/alicia/teaching/experiment/?hitId=3FJ2RVH25ZSYKBA8MWMNC8NVPF629N&workerId=A26SF9CTNKKBYB&assignmentId=3S96KQ6I9NQ6TKFW8TGNOABYF1QDTP&a=IK9S7&tp_a=IK9S7&b=3S96KQ6I9NQ6TKFW8TGNOABYF1QDTP&tp_b=3S96KQ6I9NQ6TKFW8TGNOABYF1QDTP&c=365717&tp_c=365717","heads":15,"tails":15,"studentIndex":4,"studentTrueHypers":{"a":4,"b":1},"studentGuess":0.5428571428571428,"delta":0.042857142857142816,"totalExamples":30,"bonus":0.2,"bonusSoFar":0.98},{"rt":17828,"response":{"heads":"20","tails":"5"},"type":"response","condition":"nonSeqPartial","trueTheta":0.8,"classrooms":["C","D"],"studentTrueClassroom":"D","exampleSet":"first","trial_type":"survey-html-form","trial_index":50,"time_elapsed":743105,"internal_node_id":"0.0-43.0-0.0","params":{"nStudents":24,"maxFlips":30,"completionMinutes":45,"basePay":8,"maxBonus":9,"perTrialBonus":0.5,"perTrialBonusThreshold":0.05,"exampleCost":0.01},"classroomParams":{"A":{"a":1,"b":4},"B":{"a":4,"b":1},"C":{"a":2,"b":8},"D":{"a":8,"b":2}},"conditions":["nonSeqFull","nonSeqPartial","seqNoFeedback","seqFeedback"],"classroomPairings":[["A","B"],["C","D"]],"coinWeights":[0.2,0.5,0.8],"subjectId":"A26SF9CTNKKBYB","assignmentId":"3S96KQ6I9NQ6TKFW8TGNOABYF1QDTP","hitId":"3FJ2RVH25ZSYKBA8MWMNC8NVPF629N","url":"https://gershmanlab.com/experiments/alicia/teaching/experiment/?hitId=3FJ2RVH25ZSYKBA8MWMNC8NVPF629N&workerId=A26SF9CTNKKBYB&assignmentId=3S96KQ6I9NQ6TKFW8TGNOABYF1QDTP&a=IK9S7&tp_a=IK9S7&b=3S96KQ6I9NQ6TKFW8TGNOABYF1QDTP&tp_b=3S96KQ6I9NQ6TKFW8TGNOABYF1QDTP&c=365717&tp_c=365717","heads":20,"tails":5,"studentIndex":5,"studentTrueHypers":{"a":8,"b":2},"studentGuess":0.8,"delta":0,"totalExamples":25,"bonus":0.25,"bonusSoFar":1.23},{"rt":8488,"response":{"heads":"15","tails":"15"},"type":"response","condition":"seqFeedback","trueTheta":0.5,"classrooms":["A","B"],"studentTrueClassroom":"B","exampleSet":"first","trial_type":"survey-html-form","trial_index":56,"time_elapsed":766585,"internal_node_id":"0.0-49.0-0.0","params":{"nStudents":24,"maxFlips":30,"completionMinutes":45,"basePay":8,"maxBonus":9,"perTrialBonus":0.5,"perTrialBonusThreshold":0.05,"exampleCost":0.01},"classroomParams":{"A":{"a":1,"b":4},"B":{"a":4,"b":1},"C":{"a":2,"b":8},"D":{"a":8,"b":2}},"conditions":["nonSeqFull","nonSeqPartial","seqNoFeedback","seqFeedback"],"classroomPairings":[["A","B"],["C","D"]],"coinWeights":[0.2,0.5,0.8],"subjectId":"A26SF9CTNKKBYB","assignmentId":"3S96KQ6I9NQ6TKFW8TGNOABYF1QDTP","hitId":"3FJ2RVH25ZSYKBA8MWMNC8NVPF629N","url":"https://gershmanlab.com/experiments/alicia/teaching/experiment/?hitId=3FJ2RVH25ZSYKBA8MWMNC8NVPF629N&workerId=A26SF9CTNKKBYB&assignmentId=3S96KQ6I9NQ6TKFW8TGNOABYF1QDTP&a=IK9S7&tp_a=IK9S7&b=3S96KQ6I9NQ6TKFW8TGNOABYF1QDTP&tp_b=3S96KQ6I9NQ6TKFW8TGNOABYF1QDTP&c=365717&tp_c=365717","heads":15,"tails":15,"studentIndex":6,"studentTrueHypers":{"a":4,"b":1},"studentGuess":0.5428571428571428,"delta":0.042857142857142816,"totalExamples":30,"bonusSoFar":1.23},{"rt":13832,"response":{"heads":"13","tails":"16"},"type":"response","condition":"seqFeedback","trueTheta":0.5,"classrooms":["A","B"],"studentTrueClassroom":"B","exampleSet":"second","trial_type":"survey-html-form","trial_index":60,"time_elapsed":791899,"internal_node_id":"0.0-53.0-0.0","params":{"nStudents":24,"maxFlips":30,"completionMinutes":45,"basePay":8,"maxBonus":9,"perTrialBonus":0.5,"perTrialBonusThreshold":0.05,"exampleCost":0.01},"classroomParams":{"A":{"a":1,"b":4},"B":{"a":4,"b":1},"C":{"a":2,"b":8},"D":{"a":8,"b":2}},"conditions":["nonSeqFull","nonSeqPartial","seqNoFeedback","seqFeedback"],"classroomPairings":[["A","B"],["C","D"]],"coinWeights":[0.2,0.5,0.8],"subjectId":"A26SF9CTNKKBYB","assignmentId":"3S96KQ6I9NQ6TKFW8TGNOABYF1QDTP","hitId":"3FJ2RVH25ZSYKBA8MWMNC8NVPF629N","url":"https://gershmanlab.com/experiments/alicia/teaching/experiment/?hitId=3FJ2RVH25ZSYKBA8MWMNC8NVPF629N&workerId=A26SF9CTNKKBYB&assignmentId=3S96KQ6I9NQ6TKFW8TGNOABYF1QDTP&a=IK9S7&tp_a=IK9S7&b=3S96KQ6I9NQ6TKFW8TGNOABYF1QDTP&tp_b=3S96KQ6I9NQ6TKFW8TGNOABYF1QDTP&c=365717&tp_c=365717","firstResponseHeads":15,"firstResponseTails":15,"secondResponseHeads":13,"secondResponseTails":16,"totalHeads":28,"totalTails":31,"studentIndex":6,"studentTrueHypers":{"a":4,"b":1},"studentGuess":0.5,"delta":0,"bonus":0,"bonusSoFar":1.23,"totalExamples":59},{"rt":14365,"response":{"heads":"2","tails":"10"},"type":"response","condition":"nonSeqPartial","trueTheta":0.2,"classrooms":["A","B"],"studentTrueClassroom":"A","exampleSet":"first","trial_type":"survey-html-form","trial_index":66,"time_elapsed":823666,"internal_node_id":"0.0-59.0-0.0","params":{"nStudents":24,"maxFlips":30,"completionMinutes":45,"basePay":8,"maxBonus":9,"perTrialBonus":0.5,"perTrialBonusThreshold":0.05,"exampleCost":0.01},"classroomParams":{"A":{"a":1,"b":4},"B":{"a":4,"b":1},"C":{"a":2,"b":8},"D":{"a":8,"b":2}},"conditions":["nonSeqFull","nonSeqPartial","seqNoFeedback","seqFeedback"],"classroomPairings":[["A","B"],["C","D"]],"coinWeights":[0.2,0.5,0.8],"subjectId":"A26SF9CTNKKBYB","assignmentId":"3S96KQ6I9NQ6TKFW8TGNOABYF1QDTP","hitId":"3FJ2RVH25ZSYKBA8MWMNC8NVPF629N","url":"https://gershmanlab.com/experiments/alicia/teaching/experiment/?hitId=3FJ2RVH25ZSYKBA8MWMNC8NVPF629N&workerId=A26SF9CTNKKBYB&assignmentId=3S96KQ6I9NQ6TKFW8TGNOABYF1QDTP&a=IK9S7&tp_a=IK9S7&b=3S96KQ6I9NQ6TKFW8TGNOABYF1QDTP&tp_b=3S96KQ6I9NQ6TKFW8TGNOABYF1QDTP&c=365717&tp_c=365717","heads":2,"tails":10,"studentIndex":7,"studentTrueHypers":{"a":1,"b":4},"studentGuess":0.17647058823529413,"delta":0.023529411764705882,"totalExamples":12,"bonus":0.38,"bonusSoFar":1.61},{"rt":5063,"response":{"heads":"15","tails":"15"},"type":"response","condition":"nonSeqFull","trueTheta":0.5,"classrooms":["C","D"],"studentTrueClassroom":"D","exampleSet":"first","trial_type":"survey-html-form","trial_index":72,"time_elapsed":841819,"internal_node_id":"0.0-65.0-0.0","params":{"nStudents":24,"maxFlips":30,"completionMinutes":45,"basePay":8,"maxBonus":9,"perTrialBonus":0.5,"perTrialBonusThreshold":0.05,"exampleCost":0.01},"classroomParams":{"A":{"a":1,"b":4},"B":{"a":4,"b":1},"C":{"a":2,"b":8},"D":{"a":8,"b":2}},"conditions":["nonSeqFull","nonSeqPartial","seqNoFeedback","seqFeedback"],"classroomPairings":[["A","B"],["C","D"]],"coinWeights":[0.2,0.5,0.8],"subjectId":"A26SF9CTNKKBYB","assignmentId":"3S96KQ6I9NQ6TKFW8TGNOABYF1QDTP","hitId":"3FJ2RVH25ZSYKBA8MWMNC8NVPF629N","url":"https://gershmanlab.com/experiments/alicia/teaching/experiment/?hitId=3FJ2RVH25ZSYKBA8MWMNC8NVPF629N&workerId=A26SF9CTNKKBYB&assignmentId=3S96KQ6I9NQ6TKFW8TGNOABYF1QDTP&a=IK9S7&tp_a=IK9S7&b=3S96KQ6I9NQ6TKFW8TGNOABYF1QDTP&tp_b=3S96KQ6I9NQ6TKFW8TGNOABYF1QDTP&c=365717&tp_c=365717","heads":15,"tails":15,"studentIndex":8,"studentTrueHypers":{"a":8,"b":2},"studentGuess":0.575,"delta":0.07499999999999996,"totalExamples":30,"bonus":0,"bonusSoFar":1.61},{"rt":37438,"response":{"heads":"8","tails":"2"},"type":"response","condition":"seqFeedback","trueTheta":0.8,"classrooms":["C","D"],"studentTrueClassroom":"C","exampleSet":"first","trial_type":"survey-html-form","trial_index":78,"time_elapsed":891941,"internal_node_id":"0.0-71.0-0.0","params":{"nStudents":24,"maxFlips":30,"completionMinutes":45,"basePay":8,"maxBonus":9,"perTrialBonus":0.5,"perTrialBonusThreshold":0.05,"exampleCost":0.01},"classroomParams":{"A":{"a":1,"b":4},"B":{"a":4,"b":1},"C":{"a":2,"b":8},"D":{"a":8,"b":2}},"conditions":["nonSeqFull","nonSeqPartial","seqNoFeedback","seqFeedback"],"classroomPairings":[["A","B"],["C","D"]],"coinWeights":[0.2,0.5,0.8],"subjectId":"A26SF9CTNKKBYB","assignmentId":"3S96KQ6I9NQ6TKFW8TGNOABYF1QDTP","hitId":"3FJ2RVH25ZSYKBA8MWMNC8NVPF629N","url":"https://gershmanlab.com/experiments/alicia/teaching/experiment/?hitId=3FJ2RVH25ZSYKBA8MWMNC8NVPF629N&workerId=A26SF9CTNKKBYB&assignmentId=3S96KQ6I9NQ6TKFW8TGNOABYF1QDTP&a=IK9S7&tp_a=IK9S7&b=3S96KQ6I9NQ6TKFW8TGNOABYF1QDTP&tp_b=3S96KQ6I9NQ6TKFW8TGNOABYF1QDTP&c=365717&tp_c=365717","heads":8,"tails":2,"studentIndex":9,"studentTrueHypers":{"a":2,"b":8},"studentGuess":0.5,"delta":0.30000000000000004,"totalExamples":10,"bonusSoFar":1.61},{"rt":26078,"response":{"heads":"14","tails":"2"},"type":"response","condition":"seqFeedback","trueTheta":0.8,"classrooms":["C","D"],"studentTrueClassroom":"C","exampleSet":"second","trial_type":"survey-html-form","trial_index":82,"time_elapsed":930501,"internal_node_id":"0.0-75.0-0.0","params":{"nStudents":24,"maxFlips":30,"completionMinutes":45,"basePay":8,"maxBonus":9,"perTrialBonus":0.5,"perTrialBonusThreshold":0.05,"exampleCost":0.01},"classroomParams":{"A":{"a":1,"b":4},"B":{"a":4,"b":1},"C":{"a":2,"b":8},"D":{"a":8,"b":2}},"conditions":["nonSeqFull","nonSeqPartial","seqNoFeedback","seqFeedback"],"classroomPairings":[["A","B"],["C","D"]],"coinWeights":[0.2,0.5,0.8],"subjectId":"A26SF9CTNKKBYB","assignmentId":"3S96KQ6I9NQ6TKFW8TGNOABYF1QDTP","hitId":"3FJ2RVH25ZSYKBA8MWMNC8NVPF629N","url":"https://gershmanlab.com/experiments/alicia/teaching/experiment/?hitId=3FJ2RVH25ZSYKBA8MWMNC8NVPF629N&workerId=A26SF9CTNKKBYB&assignmentId=3S96KQ6I9NQ6TKFW8TGNOABYF1QDTP&a=IK9S7&tp_a=IK9S7&b=3S96KQ6I9NQ6TKFW8TGNOABYF1QDTP&tp_b=3S96KQ6I9NQ6TKFW8TGNOABYF1QDTP&c=365717&tp_c=365717","firstResponseHeads":8,"firstResponseTails":2,"secondResponseHeads":14,"secondResponseTails":2,"totalHeads":22,"totalTails":4,"studentIndex":9,"studentTrueHypers":{"a":2,"b":8},"studentGuess":0.6666666666666666,"delta":0.13333333333333341,"bonus":0,"bonusSoFar":1.61,"totalExamples":26},{"rt":7549,"response":{"heads":"15","tails":"15"},"type":"response","condition":"seqNoFeedback","trueTheta":0.5,"classrooms":["A","B"],"studentTrueClassroom":"A","exampleSet":"first","trial_type":"survey-html-form","trial_index":88,"time_elapsed":951333,"internal_node_id":"0.0-81.0-0.0","params":{"nStudents":24,"maxFlips":30,"completionMinutes":45,"basePay":8,"maxBonus":9,"perTrialBonus":0.5,"perTrialBonusThreshold":0.05,"exampleCost":0.01},"classroomParams":{"A":{"a":1,"b":4},"B":{"a":4,"b":1},"C":{"a":2,"b":8},"D":{"a":8,"b":2}},"conditions":["nonSeqFull","nonSeqPartial","seqNoFeedback","seqFeedback"],"classroomPairings":[["A","B"],["C","D"]],"coinWeights":[0.2,0.5,0.8],"subjectId":"A26SF9CTNKKBYB","assignmentId":"3S96KQ6I9NQ6TKFW8TGNOABYF1QDTP","hitId":"3FJ2RVH25ZSYKBA8MWMNC8NVPF629N","url":"https://gershmanlab.com/experiments/alicia/teaching/experiment/?hitId=3FJ2RVH25ZSYKBA8MWMNC8NVPF629N&workerId=A26SF9CTNKKBYB&assignmentId=3S96KQ6I9NQ6TKFW8TGNOABYF1QDTP&a=IK9S7&tp_a=IK9S7&b=3S96KQ6I9NQ6TKFW8TGNOABYF1QDTP&tp_b=3S96KQ6I9NQ6TKFW8TGNOABYF1QDTP&c=365717&tp_c=365717","heads":15,"tails":15,"studentIndex":10,"studentTrueHypers":{"a":1,"b":4},"studentGuess":0.45714285714285713,"delta":0.04285714285714287,"totalExamples":30,"bonusSoFar":1.61},{"rt":16463,"response":{"heads":"15","tails":"15"},"type":"response","condition":"seqNoFeedback","trueTheta":0.5,"classrooms":["A","B"],"studentTrueClassroom":"A","exampleSet":"second","trial_type":"survey-html-form","trial_index":91,"time_elapsed":975303,"internal_node_id":"0.0-84.0-0.0","params":{"nStudents":24,"maxFlips":30,"completionMinutes":45,"basePay":8,"maxBonus":9,"perTrialBonus":0.5,"perTrialBonusThreshold":0.05,"exampleCost":0.01},"classroomParams":{"A":{"a":1,"b":4},"B":{"a":4,"b":1},"C":{"a":2,"b":8},"D":{"a":8,"b":2}},"conditions":["nonSeqFull","nonSeqPartial","seqNoFeedback","seqFeedback"],"classroomPairings":[["A","B"],["C","D"]],"coinWeights":[0.2,0.5,0.8],"subjectId":"A26SF9CTNKKBYB","assignmentId":"3S96KQ6I9NQ6TKFW8TGNOABYF1QDTP","hitId":"3FJ2RVH25ZSYKBA8MWMNC8NVPF629N","url":"https://gershmanlab.com/experiments/alicia/teaching/experiment/?hitId=3FJ2RVH25ZSYKBA8MWMNC8NVPF629N&workerId=A26SF9CTNKKBYB&assignmentId=3S96KQ6I9NQ6TKFW8TGNOABYF1QDTP&a=IK9S7&tp_a=IK9S7&b=3S96KQ6I9NQ6TKFW8TGNOABYF1QDTP&tp_b=3S96KQ6I9NQ6TKFW8TGNOABYF1QDTP&c=365717&tp_c=365717","firstResponseHeads":15,"firstResponseTails":15,"secondResponseHeads":15,"secondResponseTails":15,"totalHeads":30,"totalTails":30,"studentIndex":10,"studentTrueHypers":{"a":1,"b":4},"studentGuess":0.47692307692307695,"delta":0.02307692307692305,"bonus":0,"bonusSoFar":1.61,"totalExamples":60},{"rt":19797,"response":{"heads":"12","tails":"2"},"type":"response","condition":"nonSeqPartial","trueTheta":0.2,"classrooms":["C","D"],"studentTrueClassroom":"C","exampleSet":"first","trial_type":"survey-html-form","trial_index":97,"time_elapsed":1006853,"internal_node_id":"0.0-90.0-0.0","params":{"nStudents":24,"maxFlips":30,"completionMinutes":45,"basePay":8,"maxBonus":9,"perTrialBonus":0.5,"perTrialBonusThreshold":0.05,"exampleCost":0.01},"classroomParams":{"A":{"a":1,"b":4},"B":{"a":4,"b":1},"C":{"a":2,"b":8},"D":{"a":8,"b":2}},"conditions":["nonSeqFull","nonSeqPartial","seqNoFeedback","seqFeedback"],"classroomPairings":[["A","B"],["C","D"]],"coinWeights":[0.2,0.5,0.8],"subjectId":"A26SF9CTNKKBYB","assignmentId":"3S96KQ6I9NQ6TKFW8TGNOABYF1QDTP","hitId":"3FJ2RVH25ZSYKBA8MWMNC8NVPF629N","url":"https://gershmanlab.com/experiments/alicia/teaching/experiment/?hitId=3FJ2RVH25ZSYKBA8MWMNC8NVPF629N&workerId=A26SF9CTNKKBYB&assignmentId=3S96KQ6I9NQ6TKFW8TGNOABYF1QDTP&a=IK9S7&tp_a=IK9S7&b=3S96KQ6I9NQ6TKFW8TGNOABYF1QDTP&tp_b=3S96KQ6I9NQ6TKFW8TGNOABYF1QDTP&c=365717&tp_c=365717","heads":12,"tails":2,"studentIndex":11,"studentTrueHypers":{"a":2,"b":8},"studentGuess":0.5833333333333334,"delta":0.38333333333333336,"totalExamples":14,"bonus":0,"bonusSoFar":1.61},{"rt":13293,"response":{"heads":"2","tails":"8"},"type":"response","condition":"seqFeedback","trueTheta":0.2,"classrooms":["C","D"],"studentTrueClassroom":"D","exampleSet":"first","trial_type":"survey-html-form","trial_index":103,"time_elapsed":1033183,"internal_node_id":"0.0-96.0-0.0","params":{"nStudents":24,"maxFlips":30,"completionMinutes":45,"basePay":8,"maxBonus":9,"perTrialBonus":0.5,"perTrialBonusThreshold":0.05,"exampleCost":0.01},"classroomParams":{"A":{"a":1,"b":4},"B":{"a":4,"b":1},"C":{"a":2,"b":8},"D":{"a":8,"b":2}},"conditions":["nonSeqFull","nonSeqPartial","seqNoFeedback","seqFeedback"],"classroomPairings":[["A","B"],["C","D"]],"coinWeights":[0.2,0.5,0.8],"subjectId":"A26SF9CTNKKBYB","assignmentId":"3S96KQ6I9NQ6TKFW8TGNOABYF1QDTP","hitId":"3FJ2RVH25ZSYKBA8MWMNC8NVPF629N","url":"https://gershmanlab.com/experiments/alicia/teaching/experiment/?hitId=3FJ2RVH25ZSYKBA8MWMNC8NVPF629N&workerId=A26SF9CTNKKBYB&assignmentId=3S96KQ6I9NQ6TKFW8TGNOABYF1QDTP&a=IK9S7&tp_a=IK9S7&b=3S96KQ6I9NQ6TKFW8TGNOABYF1QDTP&tp_b=3S96KQ6I9NQ6TKFW8TGNOABYF1QDTP&c=365717&tp_c=365717","heads":2,"tails":8,"studentIndex":12,"studentTrueHypers":{"a":8,"b":2},"studentGuess":0.5,"delta":0.3,"totalExamples":10,"bonusSoFar":1.61},{"rt":26519,"response":{"heads":"2","tails":"18"},"type":"response","condition":"seqFeedback","trueTheta":0.2,"classrooms":["C","D"],"studentTrueClassroom":"D","exampleSet":"second","trial_type":"survey-html-form","trial_index":107,"time_elapsed":1070226,"internal_node_id":"0.0-100.0-0.0","params":{"nStudents":24,"maxFlips":30,"completionMinutes":45,"basePay":8,"maxBonus":9,"perTrialBonus":0.5,"perTrialBonusThreshold":0.05,"exampleCost":0.01},"classroomParams":{"A":{"a":1,"b":4},"B":{"a":4,"b":1},"C":{"a":2,"b":8},"D":{"a":8,"b":2}},"conditions":["nonSeqFull","nonSeqPartial","seqNoFeedback","seqFeedback"],"classroomPairings":[["A","B"],["C","D"]],"coinWeights":[0.2,0.5,0.8],"subjectId":"A26SF9CTNKKBYB","assignmentId":"3S96KQ6I9NQ6TKFW8TGNOABYF1QDTP","hitId":"3FJ2RVH25ZSYKBA8MWMNC8NVPF629N","url":"https://gershmanlab.com/experiments/alicia/teaching/experiment/?hitId=3FJ2RVH25ZSYKBA8MWMNC8NVPF629N&workerId=A26SF9CTNKKBYB&assignmentId=3S96KQ6I9NQ6TKFW8TGNOABYF1QDTP&a=IK9S7&tp_a=IK9S7&b=3S96KQ6I9NQ6TKFW8TGNOABYF1QDTP&tp_b=3S96KQ6I9NQ6TKFW8TGNOABYF1QDTP&c=365717&tp_c=365717","firstResponseHeads":2,"firstResponseTails":8,"secondResponseHeads":2,"secondResponseTails":18,"totalHeads":4,"totalTails":26,"studentIndex":12,"studentTrueHypers":{"a":8,"b":2},"studentGuess":0.3,"delta":0.09999999999999998,"bonus":0,"bonusSoFar":1.61,"totalExamples":30},{"rt":13558,"response":{"heads":"18","tails":"2"},"type":"response","condition":"seqNoFeedback","trueTheta":0.2,"classrooms":["C","D"],"studentTrueClassroom":"D","exampleSet":"first","trial_type":"survey-html-form","trial_index":113,"time_elapsed":1096425,"internal_node_id":"0.0-106.0-0.0","params":{"nStudents":24,"maxFlips":30,"completionMinutes":45,"basePay":8,"maxBonus":9,"perTrialBonus":0.5,"perTrialBonusThreshold":0.05,"exampleCost":0.01},"classroomParams":{"A":{"a":1,"b":4},"B":{"a":4,"b":1},"C":{"a":2,"b":8},"D":{"a":8,"b":2}},"conditions":["nonSeqFull","nonSeqPartial","seqNoFeedback","seqFeedback"],"classroomPairings":[["A","B"],["C","D"]],"coinWeights":[0.2,0.5,0.8],"subjectId":"A26SF9CTNKKBYB","assignmentId":"3S96KQ6I9NQ6TKFW8TGNOABYF1QDTP","hitId":"3FJ2RVH25ZSYKBA8MWMNC8NVPF629N","url":"https://gershmanlab.com/experiments/alicia/teaching/experiment/?hitId=3FJ2RVH25ZSYKBA8MWMNC8NVPF629N&workerId=A26SF9CTNKKBYB&assignmentId=3S96KQ6I9NQ6TKFW8TGNOABYF1QDTP&a=IK9S7&tp_a=IK9S7&b=3S96KQ6I9NQ6TKFW8TGNOABYF1QDTP&tp_b=3S96KQ6I9NQ6TKFW8TGNOABYF1QDTP&c=365717&tp_c=365717","heads":18,"tails":2,"studentIndex":13,"studentTrueHypers":{"a":8,"b":2},"studentGuess":0.8666666666666667,"delta":0.6666666666666667,"totalExamples":20,"bonusSoFar":1.61},{"rt":7585,"response":{"heads":"2","tails":"18"},"type":"response","condition":"seqNoFeedback","trueTheta":0.2,"classrooms":["C","D"],"studentTrueClassroom":"D","exampleSet":"second","trial_type":"survey-html-form","trial_index":116,"time_elapsed":1110769,"internal_node_id":"0.0-109.0-0.0","params":{"nStudents":24,"maxFlips":30,"completionMinutes":45,"basePay":8,"maxBonus":9,"perTrialBonus":0.5,"perTrialBonusThreshold":0.05,"exampleCost":0.01},"classroomParams":{"A":{"a":1,"b":4},"B":{"a":4,"b":1},"C":{"a":2,"b":8},"D":{"a":8,"b":2}},"conditions":["nonSeqFull","nonSeqPartial","seqNoFeedback","seqFeedback"],"classroomPairings":[["A","B"],["C","D"]],"coinWeights":[0.2,0.5,0.8],"subjectId":"A26SF9CTNKKBYB","assignmentId":"3S96KQ6I9NQ6TKFW8TGNOABYF1QDTP","hitId":"3FJ2RVH25ZSYKBA8MWMNC8NVPF629N","url":"https://gershmanlab.com/experiments/alicia/teaching/experiment/?hitId=3FJ2RVH25ZSYKBA8MWMNC8NVPF629N&workerId=A26SF9CTNKKBYB&assignmentId=3S96KQ6I9NQ6TKFW8TGNOABYF1QDTP&a=IK9S7&tp_a=IK9S7&b=3S96KQ6I9NQ6TKFW8TGNOABYF1QDTP&tp_b=3S96KQ6I9NQ6TKFW8TGNOABYF1QDTP&c=365717&tp_c=365717","firstResponseHeads":18,"firstResponseTails":2,"secondResponseHeads":2,"secondResponseTails":18,"totalHeads":20,"totalTails":20,"studentIndex":13,"studentTrueHypers":{"a":8,"b":2},"studentGuess":0.56,"delta":0.36000000000000004,"bonus":0,"bonusSoFar":1.61,"totalExamples":40},{"rt":29815,"response":{"heads":"2","tails":"16"},"type":"response","condition":"seqNoFeedback","trueTheta":0.2,"classrooms":["A","B"],"studentTrueClassroom":"A","exampleSet":"first","trial_type":"survey-html-form","trial_index":122,"time_elapsed":1150696,"internal_node_id":"0.0-115.0-0.0","params":{"nStudents":24,"maxFlips":30,"completionMinutes":45,"basePay":8,"maxBonus":9,"perTrialBonus":0.5,"perTrialBonusThreshold":0.05,"exampleCost":0.01},"classroomParams":{"A":{"a":1,"b":4},"B":{"a":4,"b":1},"C":{"a":2,"b":8},"D":{"a":8,"b":2}},"conditions":["nonSeqFull","nonSeqPartial","seqNoFeedback","seqFeedback"],"classroomPairings":[["A","B"],["C","D"]],"coinWeights":[0.2,0.5,0.8],"subjectId":"A26SF9CTNKKBYB","assignmentId":"3S96KQ6I9NQ6TKFW8TGNOABYF1QDTP","hitId":"3FJ2RVH25ZSYKBA8MWMNC8NVPF629N","url":"https://gershmanlab.com/experiments/alicia/teaching/experiment/?hitId=3FJ2RVH25ZSYKBA8MWMNC8NVPF629N&workerId=A26SF9CTNKKBYB&assignmentId=3S96KQ6I9NQ6TKFW8TGNOABYF1QDTP&a=IK9S7&tp_a=IK9S7&b=3S96KQ6I9NQ6TKFW8TGNOABYF1QDTP&tp_b=3S96KQ6I9NQ6TKFW8TGNOABYF1QDTP&c=365717&tp_c=365717","heads":2,"tails":16,"studentIndex":14,"studentTrueHypers":{"a":1,"b":4},"studentGuess":0.13043478260869565,"delta":0.06956521739130436,"totalExamples":18,"bonusSoFar":1.61},{"rt":11400,"response":{"heads":"2","tails":"18"},"type":"response","condition":"seqNoFeedback","trueTheta":0.2,"classrooms":["A","B"],"studentTrueClassroom":"A","exampleSet":"second","trial_type":"survey-html-form","trial_index":125,"time_elapsed":1169354,"internal_node_id":"0.0-118.0-0.0","params":{"nStudents":24,"maxFlips":30,"completionMinutes":45,"basePay":8,"maxBonus":9,"perTrialBonus":0.5,"perTrialBonusThreshold":0.05,"exampleCost":0.01},"classroomParams":{"A":{"a":1,"b":4},"B":{"a":4,"b":1},"C":{"a":2,"b":8},"D":{"a":8,"b":2}},"conditions":["nonSeqFull","nonSeqPartial","seqNoFeedback","seqFeedback"],"classroomPairings":[["A","B"],["C","D"]],"coinWeights":[0.2,0.5,0.8],"subjectId":"A26SF9CTNKKBYB","assignmentId":"3S96KQ6I9NQ6TKFW8TGNOABYF1QDTP","hitId":"3FJ2RVH25ZSYKBA8MWMNC8NVPF629N","url":"https://gershmanlab.com/experiments/alicia/teaching/experiment/?hitId=3FJ2RVH25ZSYKBA8MWMNC8NVPF629N&workerId=A26SF9CTNKKBYB&assignmentId=3S96KQ6I9NQ6TKFW8TGNOABYF1QDTP&a=IK9S7&tp_a=IK9S7&b=3S96KQ6I9NQ6TKFW8TGNOABYF1QDTP&tp_b=3S96KQ6I9NQ6TKFW8TGNOABYF1QDTP&c=365717&tp_c=365717","firstResponseHeads":2,"firstResponseTails":16,"secondResponseHeads":2,"secondResponseTails":18,"totalHeads":4,"totalTails":34,"studentIndex":14,"studentTrueHypers":{"a":1,"b":4},"studentGuess":0.11627906976744186,"delta":0.08372093023255815,"bonus":0,"bonusSoFar":1.61,"totalExamples":38},{"rt":37119,"response":{"heads":"17","tails":"1"},"type":"response","condition":"nonSeqFull","trueTheta":0.8,"classrooms":["C","D"],"studentTrueClassroom":"C","exampleSet":"first","trial_type":"survey-html-form","trial_index":131,"time_elapsed":1218508,"internal_node_id":"0.0-124.0-0.0","params":{"nStudents":24,"maxFlips":30,"completionMinutes":45,"basePay":8,"maxBonus":9,"perTrialBonus":0.5,"perTrialBonusThreshold":0.05,"exampleCost":0.01},"classroomParams":{"A":{"a":1,"b":4},"B":{"a":4,"b":1},"C":{"a":2,"b":8},"D":{"a":8,"b":2}},"conditions":["nonSeqFull","nonSeqPartial","seqNoFeedback","seqFeedback"],"classroomPairings":[["A","B"],["C","D"]],"coinWeights":[0.2,0.5,0.8],"subjectId":"A26SF9CTNKKBYB","assignmentId":"3S96KQ6I9NQ6TKFW8TGNOABYF1QDTP","hitId":"3FJ2RVH25ZSYKBA8MWMNC8NVPF629N","url":"https://gershmanlab.com/experiments/alicia/teaching/experiment/?hitId=3FJ2RVH25ZSYKBA8MWMNC8NVPF629N&workerId=A26SF9CTNKKBYB&assignmentId=3S96KQ6I9NQ6TKFW8TGNOABYF1QDTP&a=IK9S7&tp_a=IK9S7&b=3S96KQ6I9NQ6TKFW8TGNOABYF1QDTP&tp_b=3S96KQ6I9NQ6TKFW8TGNOABYF1QDTP&c=365717&tp_c=365717","heads":17,"tails":1,"studentIndex":15,"studentTrueHypers":{"a":2,"b":8},"studentGuess":0.6785714285714286,"delta":0.12142857142857144,"totalExamples":18,"bonus":0,"bonusSoFar":1.61},{"rt":16206,"response":{"heads":"2","tails":"8"},"type":"response","condition":"nonSeqFull","trueTheta":0.2,"classrooms":["C","D"],"studentTrueClassroom":"C","exampleSet":"first","trial_type":"survey-html-form","trial_index":137,"time_elapsed":1246980,"internal_node_id":"0.0-130.0-0.0","params":{"nStudents":24,"maxFlips":30,"completionMinutes":45,"basePay":8,"maxBonus":9,"perTrialBonus":0.5,"perTrialBonusThreshold":0.05,"exampleCost":0.01},"classroomParams":{"A":{"a":1,"b":4},"B":{"a":4,"b":1},"C":{"a":2,"b":8},"D":{"a":8,"b":2}},"conditions":["nonSeqFull","nonSeqPartial","seqNoFeedback","seqFeedback"],"classroomPairings":[["A","B"],["C","D"]],"coinWeights":[0.2,0.5,0.8],"subjectId":"A26SF9CTNKKBYB","assignmentId":"3S96KQ6I9NQ6TKFW8TGNOABYF1QDTP","hitId":"3FJ2RVH25ZSYKBA8MWMNC8NVPF629N","url":"https://gershmanlab.com/experiments/alicia/teaching/experiment/?hitId=3FJ2RVH25ZSYKBA8MWMNC8NVPF629N&workerId=A26SF9CTNKKBYB&assignmentId=3S96KQ6I9NQ6TKFW8TGNOABYF1QDTP&a=IK9S7&tp_a=IK9S7&b=3S96KQ6I9NQ6TKFW8TGNOABYF1QDTP&tp_b=3S96KQ6I9NQ6TKFW8TGNOABYF1QDTP&c=365717&tp_c=365717","heads":2,"tails":8,"studentIndex":16,"studentTrueHypers":{"a":2,"b":8},"studentGuess":0.2,"delta":0,"totalExamples":10,"bonus":0.4,"bonusSoFar":2.01},{"rt":9172,"response":{"heads":"20","tails":"2"},"type":"response","condition":"seqFeedback","trueTheta":0.8,"classrooms":["A","B"],"studentTrueClassroom":"A","exampleSet":"first","trial_type":"survey-html-form","trial_index":143,"time_elapsed":1269853,"internal_node_id":"0.0-136.0-0.0","params":{"nStudents":24,"maxFlips":30,"completionMinutes":45,"basePay":8,"maxBonus":9,"perTrialBonus":0.5,"perTrialBonusThreshold":0.05,"exampleCost":0.01},"classroomParams":{"A":{"a":1,"b":4},"B":{"a":4,"b":1},"C":{"a":2,"b":8},"D":{"a":8,"b":2}},"conditions":["nonSeqFull","nonSeqPartial","seqNoFeedback","seqFeedback"],"classroomPairings":[["A","B"],["C","D"]],"coinWeights":[0.2,0.5,0.8],"subjectId":"A26SF9CTNKKBYB","assignmentId":"3S96KQ6I9NQ6TKFW8TGNOABYF1QDTP","hitId":"3FJ2RVH25ZSYKBA8MWMNC8NVPF629N","url":"https://gershmanlab.com/experiments/alicia/teaching/experiment/?hitId=3FJ2RVH25ZSYKBA8MWMNC8NVPF629N&workerId=A26SF9CTNKKBYB&assignmentId=3S96KQ6I9NQ6TKFW8TGNOABYF1QDTP&a=IK9S7&tp_a=IK9S7&b=3S96KQ6I9NQ6TKFW8TGNOABYF1QDTP&tp_b=3S96KQ6I9NQ6TKFW8TGNOABYF1QDTP&c=365717&tp_c=365717","heads":20,"tails":2,"studentIndex":17,"studentTrueHypers":{"a":1,"b":4},"studentGuess":0.7777777777777778,"delta":0.022222222222222254,"totalExamples":22,"bonusSoFar":2.01},{"rt":16056,"response":{"heads":"20","tails":"2"},"type":"response","condition":"seqFeedback","trueTheta":0.8,"classrooms":["A","B"],"studentTrueClassroom":"A","exampleSet":"second","trial_type":"survey-html-form","trial_index":147,"time_elapsed":1304118,"internal_node_id":"0.0-140.0-0.0","params":{"nStudents":24,"maxFlips":30,"completionMinutes":45,"basePay":8,"maxBonus":9,"perTrialBonus":0.5,"perTrialBonusThreshold":0.05,"exampleCost":0.01},"classroomParams":{"A":{"a":1,"b":4},"B":{"a":4,"b":1},"C":{"a":2,"b":8},"D":{"a":8,"b":2}},"conditions":["nonSeqFull","nonSeqPartial","seqNoFeedback","seqFeedback"],"classroomPairings":[["A","B"],["C","D"]],"coinWeights":[0.2,0.5,0.8],"subjectId":"A26SF9CTNKKBYB","assignmentId":"3S96KQ6I9NQ6TKFW8TGNOABYF1QDTP","hitId":"3FJ2RVH25ZSYKBA8MWMNC8NVPF629N","url":"https://gershmanlab.com/experiments/alicia/teaching/experiment/?hitId=3FJ2RVH25ZSYKBA8MWMNC8NVPF629N&workerId=A26SF9CTNKKBYB&assignmentId=3S96KQ6I9NQ6TKFW8TGNOABYF1QDTP&a=IK9S7&tp_a=IK9S7&b=3S96KQ6I9NQ6TKFW8TGNOABYF1QDTP&tp_b=3S96KQ6I9NQ6TKFW8TGNOABYF1QDTP&c=365717&tp_c=365717","firstResponseHeads":20,"firstResponseTails":2,"secondResponseHeads":20,"secondResponseTails":2,"totalHeads":40,"totalTails":4,"studentIndex":17,"studentTrueHypers":{"a":1,"b":4},"studentGuess":0.8367346938775511,"delta":0.03673469387755102,"bonus":0.06,"bonusSoFar":2.07,"totalExamples":44},{"rt":7221,"response":{"heads":"4","tails":"4"},"type":"response","condition":"seqNoFeedback","trueTheta":0.5,"classrooms":["C","D"],"studentTrueClassroom":"C","exampleSet":"first","trial_type":"survey-html-form","trial_index":153,"time_elapsed":1326342,"internal_node_id":"0.0-146.0-0.0","params":{"nStudents":24,"maxFlips":30,"completionMinutes":45,"basePay":8,"maxBonus":9,"perTrialBonus":0.5,"perTrialBonusThreshold":0.05,"exampleCost":0.01},"classroomParams":{"A":{"a":1,"b":4},"B":{"a":4,"b":1},"C":{"a":2,"b":8},"D":{"a":8,"b":2}},"conditions":["nonSeqFull","nonSeqPartial","seqNoFeedback","seqFeedback"],"classroomPairings":[["A","B"],["C","D"]],"coinWeights":[0.2,0.5,0.8],"subjectId":"A26SF9CTNKKBYB","assignmentId":"3S96KQ6I9NQ6TKFW8TGNOABYF1QDTP","hitId":"3FJ2RVH25ZSYKBA8MWMNC8NVPF629N","url":"https://gershmanlab.com/experiments/alicia/teaching/experiment/?hitId=3FJ2RVH25ZSYKBA8MWMNC8NVPF629N&workerId=A26SF9CTNKKBYB&assignmentId=3S96KQ6I9NQ6TKFW8TGNOABYF1QDTP&a=IK9S7&tp_a=IK9S7&b=3S96KQ6I9NQ6TKFW8TGNOABYF1QDTP&tp_b=3S96KQ6I9NQ6TKFW8TGNOABYF1QDTP&c=365717&tp_c=365717","heads":4,"tails":4,"studentIndex":18,"studentTrueHypers":{"a":2,"b":8},"studentGuess":0.3333333333333333,"delta":0.16666666666666669,"totalExamples":8,"bonusSoFar":2.07},{"rt":67718,"response":{"heads":"7","tails":"1"},"type":"response","condition":"seqNoFeedback","trueTheta":0.5,"classrooms":["C","D"],"studentTrueClassroom":"C","exampleSet":"second","trial_type":"survey-html-form","trial_index":156,"time_elapsed":1401816,"internal_node_id":"0.0-149.0-0.0","params":{"nStudents":24,"maxFlips":30,"completionMinutes":45,"basePay":8,"maxBonus":9,"perTrialBonus":0.5,"perTrialBonusThreshold":0.05,"exampleCost":0.01},"classroomParams":{"A":{"a":1,"b":4},"B":{"a":4,"b":1},"C":{"a":2,"b":8},"D":{"a":8,"b":2}},"conditions":["nonSeqFull","nonSeqPartial","seqNoFeedback","seqFeedback"],"classroomPairings":[["A","B"],["C","D"]],"coinWeights":[0.2,0.5,0.8],"subjectId":"A26SF9CTNKKBYB","assignmentId":"3S96KQ6I9NQ6TKFW8TGNOABYF1QDTP","hitId":"3FJ2RVH25ZSYKBA8MWMNC8NVPF629N","url":"https://gershmanlab.com/experiments/alicia/teaching/experiment/?hitId=3FJ2RVH25ZSYKBA8MWMNC8NVPF629N&workerId=A26SF9CTNKKBYB&assignmentId=3S96KQ6I9NQ6TKFW8TGNOABYF1QDTP&a=IK9S7&tp_a=IK9S7&b=3S96KQ6I9NQ6TKFW8TGNOABYF1QDTP&tp_b=3S96KQ6I9NQ6TKFW8TGNOABYF1QDTP&c=365717&tp_c=365717","firstResponseHeads":4,"firstResponseTails":4,"secondResponseHeads":7,"secondResponseTails":1,"totalHeads":11,"totalTails":5,"studentIndex":18,"studentTrueHypers":{"a":2,"b":8},"studentGuess":0.5,"delta":0,"bonus":0.34,"bonusSoFar":2.41,"totalExamples":16},{"rt":80256,"response":{"heads":"19","tails":"1"},"type":"response","condition":"nonSeqFull","trueTheta":0.8,"classrooms":["A","B"],"studentTrueClassroom":"A","exampleSet":"first","trial_type":"survey-html-form","trial_index":162,"time_elapsed":1495299,"internal_node_id":"0.0-155.0-0.0","params":{"nStudents":24,"maxFlips":30,"completionMinutes":45,"basePay":8,"maxBonus":9,"perTrialBonus":0.5,"perTrialBonusThreshold":0.05,"exampleCost":0.01},"classroomParams":{"A":{"a":1,"b":4},"B":{"a":4,"b":1},"C":{"a":2,"b":8},"D":{"a":8,"b":2}},"conditions":["nonSeqFull","nonSeqPartial","seqNoFeedback","seqFeedback"],"classroomPairings":[["A","B"],["C","D"]],"coinWeights":[0.2,0.5,0.8],"subjectId":"A26SF9CTNKKBYB","assignmentId":"3S96KQ6I9NQ6TKFW8TGNOABYF1QDTP","hitId":"3FJ2RVH25ZSYKBA8MWMNC8NVPF629N","url":"https://gershmanlab.com/experiments/alicia/teaching/experiment/?hitId=3FJ2RVH25ZSYKBA8MWMNC8NVPF629N&workerId=A26SF9CTNKKBYB&assignmentId=3S96KQ6I9NQ6TKFW8TGNOABYF1QDTP&a=IK9S7&tp_a=IK9S7&b=3S96KQ6I9NQ6TKFW8TGNOABYF1QDTP&tp_b=3S96KQ6I9NQ6TKFW8TGNOABYF1QDTP&c=365717&tp_c=365717","heads":19,"tails":1,"studentIndex":19,"studentTrueHypers":{"a":1,"b":4},"studentGuess":0.8,"delta":0,"totalExamples":20,"bonus":0.3,"bonusSoFar":2.71},{"rt":44991,"response":{"heads":"5","tails":"1"},"type":"response","condition":"seqNoFeedback","trueTheta":0.8,"classrooms":["A","B"],"studentTrueClassroom":"B","exampleSet":"first","trial_type":"survey-html-form","trial_index":168,"time_elapsed":1552053,"internal_node_id":"0.0-161.0-0.0","params":{"nStudents":24,"maxFlips":30,"completionMinutes":45,"basePay":8,"maxBonus":9,"perTrialBonus":0.5,"perTrialBonusThreshold":0.05,"exampleCost":0.01},"classroomParams":{"A":{"a":1,"b":4},"B":{"a":4,"b":1},"C":{"a":2,"b":8},"D":{"a":8,"b":2}},"conditions":["nonSeqFull","nonSeqPartial","seqNoFeedback","seqFeedback"],"classroomPairings":[["A","B"],["C","D"]],"coinWeights":[0.2,0.5,0.8],"subjectId":"A26SF9CTNKKBYB","assignmentId":"3S96KQ6I9NQ6TKFW8TGNOABYF1QDTP","hitId":"3FJ2RVH25ZSYKBA8MWMNC8NVPF629N","url":"https://gershmanlab.com/experiments/alicia/teaching/experiment/?hitId=3FJ2RVH25ZSYKBA8MWMNC8NVPF629N&workerId=A26SF9CTNKKBYB&assignmentId=3S96KQ6I9NQ6TKFW8TGNOABYF1QDTP&a=IK9S7&tp_a=IK9S7&b=3S96KQ6I9NQ6TKFW8TGNOABYF1QDTP&tp_b=3S96KQ6I9NQ6TKFW8TGNOABYF1QDTP&c=365717&tp_c=365717","heads":5,"tails":1,"studentIndex":20,"studentTrueHypers":{"a":4,"b":1},"studentGuess":0.8181818181818182,"delta":0.018181818181818188,"totalExamples":6,"bonusSoFar":2.71},{"rt":32156,"response":{"heads":"4","tails":"1"},"type":"response","condition":"seqNoFeedback","trueTheta":0.8,"classrooms":["A","B"],"studentTrueClassroom":"B","exampleSet":"second","trial_type":"survey-html-form","trial_index":171,"time_elapsed":1590469,"internal_node_id":"0.0-164.0-0.0","params":{"nStudents":24,"maxFlips":30,"completionMinutes":45,"basePay":8,"maxBonus":9,"perTrialBonus":0.5,"perTrialBonusThreshold":0.05,"exampleCost":0.01},"classroomParams":{"A":{"a":1,"b":4},"B":{"a":4,"b":1},"C":{"a":2,"b":8},"D":{"a":8,"b":2}},"conditions":["nonSeqFull","nonSeqPartial","seqNoFeedback","seqFeedback"],"classroomPairings":[["A","B"],["C","D"]],"coinWeights":[0.2,0.5,0.8],"subjectId":"A26SF9CTNKKBYB","assignmentId":"3S96KQ6I9NQ6TKFW8TGNOABYF1QDTP","hitId":"3FJ2RVH25ZSYKBA8MWMNC8NVPF629N","url":"https://gershmanlab.com/experiments/alicia/teaching/experiment/?hitId=3FJ2RVH25ZSYKBA8MWMNC8NVPF629N&workerId=A26SF9CTNKKBYB&assignmentId=3S96KQ6I9NQ6TKFW8TGNOABYF1QDTP&a=IK9S7&tp_a=IK9S7&b=3S96KQ6I9NQ6TKFW8TGNOABYF1QDTP&tp_b=3S96KQ6I9NQ6TKFW8TGNOABYF1QDTP&c=365717&tp_c=365717","firstResponseHeads":5,"firstResponseTails":1,"secondResponseHeads":4,"secondResponseTails":1,"totalHeads":9,"totalTails":2,"studentIndex":20,"studentTrueHypers":{"a":4,"b":1},"studentGuess":0.8125,"delta":0.012499999999999956,"bonus":0.39,"bonusSoFar":3.1,"totalExamples":11},{"rt":14803,"response":{"heads":"1","tails":"4"},"type":"response","condition":"seqFeedback","trueTheta":0.2,"classrooms":["A","B"],"studentTrueClassroom":"A","exampleSet":"first","trial_type":"survey-html-form","trial_index":177,"time_elapsed":1618804,"internal_node_id":"0.0-170.0-0.0","params":{"nStudents":24,"maxFlips":30,"completionMinutes":45,"basePay":8,"maxBonus":9,"perTrialBonus":0.5,"perTrialBonusThreshold":0.05,"exampleCost":0.01},"classroomParams":{"A":{"a":1,"b":4},"B":{"a":4,"b":1},"C":{"a":2,"b":8},"D":{"a":8,"b":2}},"conditions":["nonSeqFull","nonSeqPartial","seqNoFeedback","seqFeedback"],"classroomPairings":[["A","B"],["C","D"]],"coinWeights":[0.2,0.5,0.8],"subjectId":"A26SF9CTNKKBYB","assignmentId":"3S96KQ6I9NQ6TKFW8TGNOABYF1QDTP","hitId":"3FJ2RVH25ZSYKBA8MWMNC8NVPF629N","url":"https://gershmanlab.com/experiments/alicia/teaching/experiment/?hitId=3FJ2RVH25ZSYKBA8MWMNC8NVPF629N&workerId=A26SF9CTNKKBYB&assignmentId=3S96KQ6I9NQ6TKFW8TGNOABYF1QDTP&a=IK9S7&tp_a=IK9S7&b=3S96KQ6I9NQ6TKFW8TGNOABYF1QDTP&tp_b=3S96KQ6I9NQ6TKFW8TGNOABYF1QDTP&c=365717&tp_c=365717","heads":1,"tails":4,"studentIndex":21,"studentTrueHypers":{"a":1,"b":4},"studentGuess":0.2,"delta":0,"totalExamples":5,"bonusSoFar":3.1},{"rt":29319,"response":{"heads":"3","tails":"10"},"type":"response","condition":"seqFeedback","trueTheta":0.2,"classrooms":["A","B"],"studentTrueClassroom":"A","exampleSet":"second","trial_type":"survey-html-form","trial_index":181,"time_elapsed":1661007,"internal_node_id":"0.0-174.0-0.0","params":{"nStudents":24,"maxFlips":30,"completionMinutes":45,"basePay":8,"maxBonus":9,"perTrialBonus":0.5,"perTrialBonusThreshold":0.05,"exampleCost":0.01},"classroomParams":{"A":{"a":1,"b":4},"B":{"a":4,"b":1},"C":{"a":2,"b":8},"D":{"a":8,"b":2}},"conditions":["nonSeqFull","nonSeqPartial","seqNoFeedback","seqFeedback"],"classroomPairings":[["A","B"],["C","D"]],"coinWeights":[0.2,0.5,0.8],"subjectId":"A26SF9CTNKKBYB","assignmentId":"3S96KQ6I9NQ6TKFW8TGNOABYF1QDTP","hitId":"3FJ2RVH25ZSYKBA8MWMNC8NVPF629N","url":"https://gershmanlab.com/experiments/alicia/teaching/experiment/?hitId=3FJ2RVH25ZSYKBA8MWMNC8NVPF629N&workerId=A26SF9CTNKKBYB&assignmentId=3S96KQ6I9NQ6TKFW8TGNOABYF1QDTP&a=IK9S7&tp_a=IK9S7&b=3S96KQ6I9NQ6TKFW8TGNOABYF1QDTP&tp_b=3S96KQ6I9NQ6TKFW8TGNOABYF1QDTP&c=365717&tp_c=365717","firstResponseHeads":1,"firstResponseTails":4,"secondResponseHeads":3,"secondResponseTails":10,"totalHeads":4,"totalTails":14,"studentIndex":21,"studentTrueHypers":{"a":1,"b":4},"studentGuess":0.21739130434782608,"delta":0.01739130434782607,"bonus":0.32,"bonusSoFar":3.42,"totalExamples":18},{"rt":9622,"response":{"heads":"1","tails":"5"},"type":"response","condition":"nonSeqFull","trueTheta":0.2,"classrooms":["A","B"],"studentTrueClassroom":"A","exampleSet":"first","trial_type":"survey-html-form","trial_index":187,"time_elapsed":1685968,"internal_node_id":"0.0-180.0-0.0","params":{"nStudents":24,"maxFlips":30,"completionMinutes":45,"basePay":8,"maxBonus":9,"perTrialBonus":0.5,"perTrialBonusThreshold":0.05,"exampleCost":0.01},"classroomParams":{"A":{"a":1,"b":4},"B":{"a":4,"b":1},"C":{"a":2,"b":8},"D":{"a":8,"b":2}},"conditions":["nonSeqFull","nonSeqPartial","seqNoFeedback","seqFeedback"],"classroomPairings":[["A","B"],["C","D"]],"coinWeights":[0.2,0.5,0.8],"subjectId":"A26SF9CTNKKBYB","assignmentId":"3S96KQ6I9NQ6TKFW8TGNOABYF1QDTP","hitId":"3FJ2RVH25ZSYKBA8MWMNC8NVPF629N","url":"https://gershmanlab.com/experiments/alicia/teaching/experiment/?hitId=3FJ2RVH25ZSYKBA8MWMNC8NVPF629N&workerId=A26SF9CTNKKBYB&assignmentId=3S96KQ6I9NQ6TKFW8TGNOABYF1QDTP&a=IK9S7&tp_a=IK9S7&b=3S96KQ6I9NQ6TKFW8TGNOABYF1QDTP&tp_b=3S96KQ6I9NQ6TKFW8TGNOABYF1QDTP&c=365717&tp_c=365717","heads":1,"tails":5,"studentIndex":22,"studentTrueHypers":{"a":1,"b":4},"studentGuess":0.18181818181818182,"delta":0.018181818181818188,"totalExamples":6,"bonus":0.44,"bonusSoFar":3.86},{"rt":31254,"response":{"heads":"10","tails":"4"},"type":"response","condition":"nonSeqPartial","trueTheta":0.5,"classrooms":["C","D"],"studentTrueClassroom":"D","exampleSet":"first","trial_type":"survey-html-form","trial_index":193,"time_elapsed":1727736,"internal_node_id":"0.0-186.0-0.0","params":{"nStudents":24,"maxFlips":30,"completionMinutes":45,"basePay":8,"maxBonus":9,"perTrialBonus":0.5,"perTrialBonusThreshold":0.05,"exampleCost":0.01},"classroomParams":{"A":{"a":1,"b":4},"B":{"a":4,"b":1},"C":{"a":2,"b":8},"D":{"a":8,"b":2}},"conditions":["nonSeqFull","nonSeqPartial","seqNoFeedback","seqFeedback"],"classroomPairings":[["A","B"],["C","D"]],"coinWeights":[0.2,0.5,0.8],"subjectId":"A26SF9CTNKKBYB","assignmentId":"3S96KQ6I9NQ6TKFW8TGNOABYF1QDTP","hitId":"3FJ2RVH25ZSYKBA8MWMNC8NVPF629N","url":"https://gershmanlab.com/experiments/alicia/teaching/experiment/?hitId=3FJ2RVH25ZSYKBA8MWMNC8NVPF629N&workerId=A26SF9CTNKKBYB&assignmentId=3S96KQ6I9NQ6TKFW8TGNOABYF1QDTP&a=IK9S7&tp_a=IK9S7&b=3S96KQ6I9NQ6TKFW8TGNOABYF1QDTP&tp_b=3S96KQ6I9NQ6TKFW8TGNOABYF1QDTP&c=365717&tp_c=365717","heads":10,"tails":4,"studentIndex":23,"studentTrueHypers":{"a":8,"b":2},"studentGuess":0.75,"delta":0.25,"totalExamples":14,"bonus":0,"bonusSoFar":3.86},{"rt":8684,"response":{"gender":"male","age":"24","understood":"yes","comments":""},"type":"response","trial_type":"survey-html-form","trial_index":197,"time_elapsed":1745481,"internal_node_id":"0.0-191.0","params":{"nStudents":24,"maxFlips":30,"completionMinutes":45,"basePay":8,"maxBonus":9,"perTrialBonus":0.5,"perTrialBonusThreshold":0.05,"exampleCost":0.01},"classroomParams":{"A":{"a":1,"b":4},"B":{"a":4,"b":1},"C":{"a":2,"b":8},"D":{"a":8,"b":2}},"conditions":["nonSeqFull","nonSeqPartial","seqNoFeedback","seqFeedback"],"classroomPairings":[["A","B"],["C","D"]],"coinWeights":[0.2,0.5,0.8],"subjectId":"A26SF9CTNKKBYB","assignmentId":"3S96KQ6I9NQ6TKFW8TGNOABYF1QDTP","hitId":"3FJ2RVH25ZSYKBA8MWMNC8NVPF629N","url":"https://gershmanlab.com/experiments/alicia/teaching/experiment/?hitId=3FJ2RVH25ZSYKBA8MWMNC8NVPF629N&workerId=A26SF9CTNKKBYB&assignmentId=3S96KQ6I9NQ6TKFW8TGNOABYF1QDTP&a=IK9S7&tp_a=IK9S7&b=3S96KQ6I9NQ6TKFW8TGNOABYF1QDTP&tp_b=3S96KQ6I9NQ6TKFW8TGNOABYF1QDTP&c=365717&tp_c=365717","totalBonus":3.86}]