[{"rt":49115,"response":{"heads":"8","tails":"2"},"type":"response","condition":"seqNoFeedback","trueTheta":0.8,"classrooms":["A","B"],"studentTrueClassroom":"A","exampleSet":"first","trial_type":"survey-html-form","trial_index":7,"time_elapsed":317328,"internal_node_id":"0.0-6.0-0.0","params":{"nStudents":24,"maxFlips":30,"completionMinutes":45,"basePay":8,"maxBonus":9,"perTrialBonus":0.5,"perTrialBonusThreshold":0.05,"exampleCost":0.01},"classroomParams":{"A":{"a":1,"b":4},"B":{"a":4,"b":1},"C":{"a":2,"b":8},"D":{"a":8,"b":2}},"conditions":["nonSeqFull","nonSeqPartial","seqNoFeedback","seqFeedback"],"classroomPairings":[["A","B"],["C","D"]],"coinWeights":[0.2,0.5,0.8],"subjectId":"A273DS7TQWR9M1","assignmentId":"36PW28KO40I66UUNYO0QZN3RRPQAEG","hitId":"3NI0WFPPI9246I5W92FX9A3E2GN605","url":"https://gershmanlab.com/experiments/alicia/teaching/experiment/?hitId=3NI0WFPPI9246I5W92FX9A3E2GN605&workerId=A273DS7TQWR9M1&assignmentId=36PW28KO40I66UUNYO0QZN3RRPQAEG&a=O2P69&tp_a=O2P69&b=36PW28KO40I66UUNYO0QZN3RRPQAEG&tp_b=36PW28KO40I66UUNYO0QZN3RRPQAEG&c=365799&tp_c=365799","heads":8,"tails":2,"studentIndex":0,"studentTrueHypers":{"a":1,"b":4},"studentGuess":0.6,"delta":0.20000000000000007,"totalExamples":10,"bonusSoFar":0},{"rt":17553,"response":{"heads":"8","tails":"2"},"type":"response","condition":"seqNoFeedback","trueTheta":0.8,"classrooms":["A","B"],"studentTrueClassroom":"A","exampleSet":"second","trial_type":"survey-html-form","trial_index":10,"time_elapsed":341395,"internal_node_id":"0.0-9.0-0.0","params":{"nStudents":24,"maxFlips":30,"completionMinutes":45,"basePay":8,"maxBonus":9,"perTrialBonus":0.5,"perTrialBonusThreshold":0.05,"exampleCost":0.01},"classroomParams":{"A":{"a":1,"b":4},"B":{"a":4,"b":1},"C":{"a":2,"b":8},"D":{"a":8,"b":2}},"conditions":["nonSeqFull","nonSeqPartial","seqNoFeedback","seqFeedback"],"classroomPairings":[["A","B"],["C","D"]],"coinWeights":[0.2,0.5,0.8],"subjectId":"A273DS7TQWR9M1","assignmentId":"36PW28KO40I66UUNYO0QZN3RRPQAEG","hitId":"3NI0WFPPI9246I5W92FX9A3E2GN605","url":"https://gershmanlab.com/experiments/alicia/teaching/experiment/?hitId=3NI0WFPPI9246I5W92FX9A3E2GN605&workerId=A273DS7TQWR9M1&assignmentId=36PW28KO40I66UUNYO0QZN3RRPQAEG&a=O2P69&tp_a=O2P69&b=36PW28KO40I66UUNYO0QZN3RRPQAEG&tp_b=36PW28KO40I66UUNYO0QZN3RRPQAEG&c=365799&tp_c=365799","firstResponseHeads":8,"firstResponseTails":2,"secondResponseHeads":8,"secondResponseTails":2,"totalHeads":16,"totalTails":4,"studentIndex":0,"studentTrueHypers":{"a":1,"b":4},"studentGuess":0.68,"delta":0.12,"bonus":0,"bonusSoFar":0,"totalExamples":20},{"rt":6955,"response":{"heads":"5","tails":"5"},"type":"response","condition":"nonSeqPartial","trueTheta":0.5,"classrooms":["A","B"],"studentTrueClassroom":"B","exampleSet":"first","trial_type":"survey-html-form","trial_index":16,"time_elapsed":371563,"internal_node_id":"0.0-15.0-0.0","params":{"nStudents":24,"maxFlips":30,"completionMinutes":45,"basePay":8,"maxBonus":9,"perTrialBonus":0.5,"perTrialBonusThreshold":0.05,"exampleCost":0.01},"classroomParams":{"A":{"a":1,"b":4},"B":{"a":4,"b":1},"C":{"a":2,"b":8},"D":{"a":8,"b":2}},"conditions":["nonSeqFull","nonSeqPartial","seqNoFeedback","seqFeedback"],"classroomPairings":[["A","B"],["C","D"]],"coinWeights":[0.2,0.5,0.8],"subjectId":"A273DS7TQWR9M1","assignmentId":"36PW28KO40I66UUNYO0QZN3RRPQAEG","hitId":"3NI0WFPPI9246I5W92FX9A3E2GN605","url":"https://gershmanlab.com/experiments/alicia/teaching/experiment/?hitId=3NI0WFPPI9246I5W92FX9A3E2GN605&workerId=A273DS7TQWR9M1&assignmentId=36PW28KO40I66UUNYO0QZN3RRPQAEG&a=O2P69&tp_a=O2P69&b=36PW28KO40I66UUNYO0QZN3RRPQAEG&tp_b=36PW28KO40I66UUNYO0QZN3RRPQAEG&c=365799&tp_c=365799","heads":5,"tails":5,"studentIndex":1,"studentTrueHypers":{"a":4,"b":1},"studentGuess":0.6,"delta":0.09999999999999998,"totalExamples":10,"bonus":0,"bonusSoFar":0},{"rt":12105,"response":{"heads":"2","tails":"8"},"type":"response","condition":"seqNoFeedback","trueTheta":0.2,"classrooms":["C","D"],"studentTrueClassroom":"D","exampleSet":"first","trial_type":"survey-html-form","trial_index":22,"time_elapsed":403251,"internal_node_id":"0.0-21.0-0.0","params":{"nStudents":24,"maxFlips":30,"completionMinutes":45,"basePay":8,"maxBonus":9,"perTrialBonus":0.5,"perTrialBonusThreshold":0.05,"exampleCost":0.01},"classroomParams":{"A":{"a":1,"b":4},"B":{"a":4,"b":1},"C":{"a":2,"b":8},"D":{"a":8,"b":2}},"conditions":["nonSeqFull","nonSeqPartial","seqNoFeedback","seqFeedback"],"classroomPairings":[["A","B"],["C","D"]],"coinWeights":[0.2,0.5,0.8],"subjectId":"A273DS7TQWR9M1","assignmentId":"36PW28KO40I66UUNYO0QZN3RRPQAEG","hitId":"3NI0WFPPI9246I5W92FX9A3E2GN605","url":"https://gershmanlab.com/experiments/alicia/teaching/experiment/?hitId=3NI0WFPPI9246I5W92FX9A3E2GN605&workerId=A273DS7TQWR9M1&assignmentId=36PW28KO40I66UUNYO0QZN3RRPQAEG&a=O2P69&tp_a=O2P69&b=36PW28KO40I66UUNYO0QZN3RRPQAEG&tp_b=36PW28KO40I66UUNYO0QZN3RRPQAEG&c=365799&tp_c=365799","heads":2,"tails":8,"studentIndex":2,"studentTrueHypers":{"a":8,"b":2},"studentGuess":0.5,"delta":0.3,"totalExamples":10,"bonusSoFar":0},{"rt":6821,"response":{"heads":"2","tails":"8"},"type":"response","condition":"seqNoFeedback","trueTheta":0.2,"classrooms":["C","D"],"studentTrueClassroom":"D","exampleSet":"second","trial_type":"survey-html-form","trial_index":25,"time_elapsed":416827,"internal_node_id":"0.0-24.0-0.0","params":{"nStudents":24,"maxFlips":30,"completionMinutes":45,"basePay":8,"maxBonus":9,"perTrialBonus":0.5,"perTrialBonusThreshold":0.05,"exampleCost":0.01},"classroomParams":{"A":{"a":1,"b":4},"B":{"a":4,"b":1},"C":{"a":2,"b":8},"D":{"a":8,"b":2}},"conditions":["nonSeqFull","nonSeqPartial","seqNoFeedback","seqFeedback"],"classroomPairings":[["A","B"],["C","D"]],"coinWeights":[0.2,0.5,0.8],"subjectId":"A273DS7TQWR9M1","assignmentId":"36PW28KO40I66UUNYO0QZN3RRPQAEG","hitId":"3NI0WFPPI9246I5W92FX9A3E2GN605","url":"https://gershmanlab.com/experiments/alicia/teaching/experiment/?hitId=3NI0WFPPI9246I5W92FX9A3E2GN605&workerId=A273DS7TQWR9M1&assignmentId=36PW28KO40I66UUNYO0QZN3RRPQAEG&a=O2P69&tp_a=O2P69&b=36PW28KO40I66UUNYO0QZN3RRPQAEG&tp_b=36PW28KO40I66UUNYO0QZN3RRPQAEG&c=365799&tp_c=365799","firstResponseHeads":2,"firstResponseTails":8,"secondResponseHeads":2,"secondResponseTails":8,"totalHeads":4,"totalTails":16,"studentIndex":2,"studentTrueHypers":{"a":8,"b":2},"studentGuess":0.4,"delta":0.2,"bonus":0,"bonusSoFar":0,"totalExamples":20},{"rt":61576,"response":{"heads":"4","tails":"1"},"type":"response","condition":"nonSeqFull","trueTheta":0.8,"classrooms":["A","B"],"studentTrueClassroom":"A","exampleSet":"first","trial_type":"survey-html-form","trial_index":31,"time_elapsed":492916,"internal_node_id":"0.0-30.0-0.0","params":{"nStudents":24,"maxFlips":30,"completionMinutes":45,"basePay":8,"maxBonus":9,"perTrialBonus":0.5,"perTrialBonusThreshold":0.05,"exampleCost":0.01},"classroomParams":{"A":{"a":1,"b":4},"B":{"a":4,"b":1},"C":{"a":2,"b":8},"D":{"a":8,"b":2}},"conditions":["nonSeqFull","nonSeqPartial","seqNoFeedback","seqFeedback"],"classroomPairings":[["A","B"],["C","D"]],"coinWeights":[0.2,0.5,0.8],"subjectId":"A273DS7TQWR9M1","assignmentId":"36PW28KO40I66UUNYO0QZN3RRPQAEG","hitId":"3NI0WFPPI9246I5W92FX9A3E2GN605","url":"https://gershmanlab.com/experiments/alicia/teaching/experiment/?hitId=3NI0WFPPI9246I5W92FX9A3E2GN605&workerId=A273DS7TQWR9M1&assignmentId=36PW28KO40I66UUNYO0QZN3RRPQAEG&a=O2P69&tp_a=O2P69&b=36PW28KO40I66UUNYO0QZN3RRPQAEG&tp_b=36PW28KO40I66UUNYO0QZN3RRPQAEG&c=365799&tp_c=365799","heads":4,"tails":1,"studentIndex":3,"studentTrueHypers":{"a":1,"b":4},"studentGuess":0.5,"delta":0.30000000000000004,"totalExamples":5,"bonus":0,"bonusSoFar":0},{"rt":19369,"response":{"heads":"2","tails":"8"},"type":"response","condition":"seqFeedback","trueTheta":0.2,"classrooms":["C","D"],"studentTrueClassroom":"C","exampleSet":"first","trial_type":"survey-html-form","trial_index":37,"time_elapsed":537208,"internal_node_id":"0.0-36.0-0.0","params":{"nStudents":24,"maxFlips":30,"completionMinutes":45,"basePay":8,"maxBonus":9,"perTrialBonus":0.5,"perTrialBonusThreshold":0.05,"exampleCost":0.01},"classroomParams":{"A":{"a":1,"b":4},"B":{"a":4,"b":1},"C":{"a":2,"b":8},"D":{"a":8,"b":2}},"conditions":["nonSeqFull","nonSeqPartial","seqNoFeedback","seqFeedback"],"classroomPairings":[["A","B"],["C","D"]],"coinWeights":[0.2,0.5,0.8],"subjectId":"A273DS7TQWR9M1","assignmentId":"36PW28KO40I66UUNYO0QZN3RRPQAEG","hitId":"3NI0WFPPI9246I5W92FX9A3E2GN605","url":"https://gershmanlab.com/experiments/alicia/teaching/experiment/?hitId=3NI0WFPPI9246I5W92FX9A3E2GN605&workerId=A273DS7TQWR9M1&assignmentId=36PW28KO40I66UUNYO0QZN3RRPQAEG&a=O2P69&tp_a=O2P69&b=36PW28KO40I66UUNYO0QZN3RRPQAEG&tp_b=36PW28KO40I66UUNYO0QZN3RRPQAEG&c=365799&tp_c=365799","heads":2,"tails":8,"studentIndex":4,"studentTrueHypers":{"a":2,"b":8},"studentGuess":0.2,"delta":0,"totalExamples":10,"bonusSoFar":0},{"rt":5704,"response":{"heads":"2","tails":"8"},"type":"response","condition":"seqFeedback","trueTheta":0.2,"classrooms":["C","D"],"studentTrueClassroom":"C","exampleSet":"second","trial_type":"survey-html-form","trial_index":41,"time_elapsed":553453,"internal_node_id":"0.0-40.0-0.0","params":{"nStudents":24,"maxFlips":30,"completionMinutes":45,"basePay":8,"maxBonus":9,"perTrialBonus":0.5,"perTrialBonusThreshold":0.05,"exampleCost":0.01},"classroomParams":{"A":{"a":1,"b":4},"B":{"a":4,"b":1},"C":{"a":2,"b":8},"D":{"a":8,"b":2}},"conditions":["nonSeqFull","nonSeqPartial","seqNoFeedback","seqFeedback"],"classroomPairings":[["A","B"],["C","D"]],"coinWeights":[0.2,0.5,0.8],"subjectId":"A273DS7TQWR9M1","assignmentId":"36PW28KO40I66UUNYO0QZN3RRPQAEG","hitId":"3NI0WFPPI9246I5W92FX9A3E2GN605","url":"https://gershmanlab.com/experiments/alicia/teaching/experiment/?hitId=3NI0WFPPI9246I5W92FX9A3E2GN605&workerId=A273DS7TQWR9M1&assignmentId=36PW28KO40I66UUNYO0QZN3RRPQAEG&a=O2P69&tp_a=O2P69&b=36PW28KO40I66UUNYO0QZN3RRPQAEG&tp_b=36PW28KO40I66UUNYO0QZN3RRPQAEG&c=365799&tp_c=365799","firstResponseHeads":2,"firstResponseTails":8,"secondResponseHeads":2,"secondResponseTails":8,"totalHeads":4,"totalTails":16,"studentIndex":4,"studentTrueHypers":{"a":2,"b":8},"studentGuess":0.2,"delta":0,"bonus":0.3,"bonusSoFar":0.3,"totalExamples":20},{"rt":5915,"response":{"heads":"8","tails":"2"},"type":"response","condition":"seqFeedback","trueTheta":0.8,"classrooms":["C","D"],"studentTrueClassroom":"D","exampleSet":"first","trial_type":"survey-html-form","trial_index":47,"time_elapsed":575812,"internal_node_id":"0.0-46.0-0.0","params":{"nStudents":24,"maxFlips":30,"completionMinutes":45,"basePay":8,"maxBonus":9,"perTrialBonus":0.5,"perTrialBonusThreshold":0.05,"exampleCost":0.01},"classroomParams":{"A":{"a":1,"b":4},"B":{"a":4,"b":1},"C":{"a":2,"b":8},"D":{"a":8,"b":2}},"conditions":["nonSeqFull","nonSeqPartial","seqNoFeedback","seqFeedback"],"classroomPairings":[["A","B"],["C","D"]],"coinWeights":[0.2,0.5,0.8],"subjectId":"A273DS7TQWR9M1","assignmentId":"36PW28KO40I66UUNYO0QZN3RRPQAEG","hitId":"3NI0WFPPI9246I5W92FX9A3E2GN605","url":"https://gershmanlab.com/experiments/alicia/teaching/experiment/?hitId=3NI0WFPPI9246I5W92FX9A3E2GN605&workerId=A273DS7TQWR9M1&assignmentId=36PW28KO40I66UUNYO0QZN3RRPQAEG&a=O2P69&tp_a=O2P69&b=36PW28KO40I66UUNYO0QZN3RRPQAEG&tp_b=36PW28KO40I66UUNYO0QZN3RRPQAEG&c=365799&tp_c=365799","heads":8,"tails":2,"studentIndex":5,"studentTrueHypers":{"a":8,"b":2},"studentGuess":0.8,"delta":0,"totalExamples":10,"bonusSoFar":0.3},{"rt":3292,"response":{"heads":"8","tails":"2"},"type":"response","condition":"seqFeedback","trueTheta":0.8,"classrooms":["C","D"],"studentTrueClassroom":"D","exampleSet":"second","trial_type":"survey-html-form","trial_index":51,"time_elapsed":588918,"internal_node_id":"0.0-50.0-0.0","params":{"nStudents":24,"maxFlips":30,"completionMinutes":45,"basePay":8,"maxBonus":9,"perTrialBonus":0.5,"perTrialBonusThreshold":0.05,"exampleCost":0.01},"classroomParams":{"A":{"a":1,"b":4},"B":{"a":4,"b":1},"C":{"a":2,"b":8},"D":{"a":8,"b":2}},"conditions":["nonSeqFull","nonSeqPartial","seqNoFeedback","seqFeedback"],"classroomPairings":[["A","B"],["C","D"]],"coinWeights":[0.2,0.5,0.8],"subjectId":"A273DS7TQWR9M1","assignmentId":"36PW28KO40I66UUNYO0QZN3RRPQAEG","hitId":"3NI0WFPPI9246I5W92FX9A3E2GN605","url":"https://gershmanlab.com/experiments/alicia/teaching/experiment/?hitId=3NI0WFPPI9246I5W92FX9A3E2GN605&workerId=A273DS7TQWR9M1&assignmentId=36PW28KO40I66UUNYO0QZN3RRPQAEG&a=O2P69&tp_a=O2P69&b=36PW28KO40I66UUNYO0QZN3RRPQAEG&tp_b=36PW28KO40I66UUNYO0QZN3RRPQAEG&c=365799&tp_c=365799","firstResponseHeads":8,"firstResponseTails":2,"secondResponseHeads":8,"secondResponseTails":2,"totalHeads":16,"totalTails":4,"studentIndex":5,"studentTrueHypers":{"a":8,"b":2},"studentGuess":0.8,"delta":0,"bonus":0.3,"bonusSoFar":0.6,"totalExamples":20},{"rt":5306,"response":{"heads":"2","tails":"8"},"type":"response","condition":"seqNoFeedback","trueTheta":0.2,"classrooms":["A","B"],"studentTrueClassroom":"A","exampleSet":"first","trial_type":"survey-html-form","trial_index":57,"time_elapsed":607957,"internal_node_id":"0.0-56.0-0.0","params":{"nStudents":24,"maxFlips":30,"completionMinutes":45,"basePay":8,"maxBonus":9,"perTrialBonus":0.5,"perTrialBonusThreshold":0.05,"exampleCost":0.01},"classroomParams":{"A":{"a":1,"b":4},"B":{"a":4,"b":1},"C":{"a":2,"b":8},"D":{"a":8,"b":2}},"conditions":["nonSeqFull","nonSeqPartial","seqNoFeedback","seqFeedback"],"classroomPairings":[["A","B"],["C","D"]],"coinWeights":[0.2,0.5,0.8],"subjectId":"A273DS7TQWR9M1","assignmentId":"36PW28KO40I66UUNYO0QZN3RRPQAEG","hitId":"3NI0WFPPI9246I5W92FX9A3E2GN605","url":"https://gershmanlab.com/experiments/alicia/teaching/experiment/?hitId=3NI0WFPPI9246I5W92FX9A3E2GN605&workerId=A273DS7TQWR9M1&assignmentId=36PW28KO40I66UUNYO0QZN3RRPQAEG&a=O2P69&tp_a=O2P69&b=36PW28KO40I66UUNYO0QZN3RRPQAEG&tp_b=36PW28KO40I66UUNYO0QZN3RRPQAEG&c=365799&tp_c=365799","heads":2,"tails":8,"studentIndex":6,"studentTrueHypers":{"a":1,"b":4},"studentGuess":0.2,"delta":0,"totalExamples":10,"bonusSoFar":0.6},{"rt":7223,"response":{"heads":"2","tails":"8"},"type":"response","condition":"seqNoFeedback","trueTheta":0.2,"classrooms":["A","B"],"studentTrueClassroom":"A","exampleSet":"second","trial_type":"survey-html-form","trial_index":60,"time_elapsed":621444,"internal_node_id":"0.0-59.0-0.0","params":{"nStudents":24,"maxFlips":30,"completionMinutes":45,"basePay":8,"maxBonus":9,"perTrialBonus":0.5,"perTrialBonusThreshold":0.05,"exampleCost":0.01},"classroomParams":{"A":{"a":1,"b":4},"B":{"a":4,"b":1},"C":{"a":2,"b":8},"D":{"a":8,"b":2}},"conditions":["nonSeqFull","nonSeqPartial","seqNoFeedback","seqFeedback"],"classroomPairings":[["A","B"],["C","D"]],"coinWeights":[0.2,0.5,0.8],"subjectId":"A273DS7TQWR9M1","assignmentId":"36PW28KO40I66UUNYO0QZN3RRPQAEG","hitId":"3NI0WFPPI9246I5W92FX9A3E2GN605","url":"https://gershmanlab.com/experiments/alicia/teaching/experiment/?hitId=3NI0WFPPI9246I5W92FX9A3E2GN605&workerId=A273DS7TQWR9M1&assignmentId=36PW28KO40I66UUNYO0QZN3RRPQAEG&a=O2P69&tp_a=O2P69&b=36PW28KO40I66UUNYO0QZN3RRPQAEG&tp_b=36PW28KO40I66UUNYO0QZN3RRPQAEG&c=365799&tp_c=365799","firstResponseHeads":2,"firstResponseTails":8,"secondResponseHeads":2,"secondResponseTails":8,"totalHeads":4,"totalTails":16,"studentIndex":6,"studentTrueHypers":{"a":1,"b":4},"studentGuess":0.2,"delta":0,"bonus":0.3,"bonusSoFar":0.9,"totalExamples":20},{"rt":3585,"response":{"heads":"8","tails":"2"},"type":"response","condition":"nonSeqFull","trueTheta":0.8,"classrooms":["C","D"],"studentTrueClassroom":"C","exampleSet":"first","trial_type":"survey-html-form","trial_index":66,"time_elapsed":637731,"internal_node_id":"0.0-65.0-0.0","params":{"nStudents":24,"maxFlips":30,"completionMinutes":45,"basePay":8,"maxBonus":9,"perTrialBonus":0.5,"perTrialBonusThreshold":0.05,"exampleCost":0.01},"classroomParams":{"A":{"a":1,"b":4},"B":{"a":4,"b":1},"C":{"a":2,"b":8},"D":{"a":8,"b":2}},"conditions":["nonSeqFull","nonSeqPartial","seqNoFeedback","seqFeedback"],"classroomPairings":[["A","B"],["C","D"]],"coinWeights":[0.2,0.5,0.8],"subjectId":"A273DS7TQWR9M1","assignmentId":"36PW28KO40I66UUNYO0QZN3RRPQAEG","hitId":"3NI0WFPPI9246I5W92FX9A3E2GN605","url":"https://gershmanlab.com/experiments/alicia/teaching/experiment/?hitId=3NI0WFPPI9246I5W92FX9A3E2GN605&workerId=A273DS7TQWR9M1&assignmentId=36PW28KO40I66UUNYO0QZN3RRPQAEG&a=O2P69&tp_a=O2P69&b=36PW28KO40I66UUNYO0QZN3RRPQAEG&tp_b=36PW28KO40I66UUNYO0QZN3RRPQAEG&c=365799&tp_c=365799","heads":8,"tails":2,"studentIndex":7,"studentTrueHypers":{"a":2,"b":8},"studentGuess":0.5,"delta":0.30000000000000004,"totalExamples":10,"bonus":0,"bonusSoFar":0.9},{"rt":5295,"response":{"heads":"2","tails":"8"},"type":"response","condition":"nonSeqFull","trueTheta":0.2,"classrooms":["A","B"],"studentTrueClassroom":"A","exampleSet":"first","trial_type":"survey-html-form","trial_index":72,"time_elapsed":659339,"internal_node_id":"0.0-71.0-0.0","params":{"nStudents":24,"maxFlips":30,"completionMinutes":45,"basePay":8,"maxBonus":9,"perTrialBonus":0.5,"perTrialBonusThreshold":0.05,"exampleCost":0.01},"classroomParams":{"A":{"a":1,"b":4},"B":{"a":4,"b":1},"C":{"a":2,"b":8},"D":{"a":8,"b":2}},"conditions":["nonSeqFull","nonSeqPartial","seqNoFeedback","seqFeedback"],"classroomPairings":[["A","B"],["C","D"]],"coinWeights":[0.2,0.5,0.8],"subjectId":"A273DS7TQWR9M1","assignmentId":"36PW28KO40I66UUNYO0QZN3RRPQAEG","hitId":"3NI0WFPPI9246I5W92FX9A3E2GN605","url":"https://gershmanlab.com/experiments/alicia/teaching/experiment/?hitId=3NI0WFPPI9246I5W92FX9A3E2GN605&workerId=A273DS7TQWR9M1&assignmentId=36PW28KO40I66UUNYO0QZN3RRPQAEG&a=O2P69&tp_a=O2P69&b=36PW28KO40I66UUNYO0QZN3RRPQAEG&tp_b=36PW28KO40I66UUNYO0QZN3RRPQAEG&c=365799&tp_c=365799","heads":2,"tails":8,"studentIndex":8,"studentTrueHypers":{"a":1,"b":4},"studentGuess":0.2,"delta":0,"totalExamples":10,"bonus":0.4,"bonusSoFar":1.3},{"rt":3156,"response":{"heads":"8","tails":"2"},"type":"response","condition":"nonSeqPartial","trueTheta":0.8,"classrooms":["C","D"],"studentTrueClassroom":"C","exampleSet":"first","trial_type":"survey-html-form","trial_index":78,"time_elapsed":675288,"internal_node_id":"0.0-77.0-0.0","params":{"nStudents":24,"maxFlips":30,"completionMinutes":45,"basePay":8,"maxBonus":9,"perTrialBonus":0.5,"perTrialBonusThreshold":0.05,"exampleCost":0.01},"classroomParams":{"A":{"a":1,"b":4},"B":{"a":4,"b":1},"C":{"a":2,"b":8},"D":{"a":8,"b":2}},"conditions":["nonSeqFull","nonSeqPartial","seqNoFeedback","seqFeedback"],"classroomPairings":[["A","B"],["C","D"]],"coinWeights":[0.2,0.5,0.8],"subjectId":"A273DS7TQWR9M1","assignmentId":"36PW28KO40I66UUNYO0QZN3RRPQAEG","hitId":"3NI0WFPPI9246I5W92FX9A3E2GN605","url":"https://gershmanlab.com/experiments/alicia/teaching/experiment/?hitId=3NI0WFPPI9246I5W92FX9A3E2GN605&workerId=A273DS7TQWR9M1&assignmentId=36PW28KO40I66UUNYO0QZN3RRPQAEG&a=O2P69&tp_a=O2P69&b=36PW28KO40I66UUNYO0QZN3RRPQAEG&tp_b=36PW28KO40I66UUNYO0QZN3RRPQAEG&c=365799&tp_c=365799","heads":8,"tails":2,"studentIndex":9,"studentTrueHypers":{"a":2,"b":8},"studentGuess":0.5,"delta":0.30000000000000004,"totalExamples":10,"bonus":0,"bonusSoFar":1.3},{"rt":5206,"response":{"heads":"2","tails":"8"},"type":"response","condition":"seqFeedback","trueTheta":0.2,"classrooms":["A","B"],"studentTrueClassroom":"B","exampleSet":"first","trial_type":"survey-html-form","trial_index":84,"time_elapsed":695126,"internal_node_id":"0.0-83.0-0.0","params":{"nStudents":24,"maxFlips":30,"completionMinutes":45,"basePay":8,"maxBonus":9,"perTrialBonus":0.5,"perTrialBonusThreshold":0.05,"exampleCost":0.01},"classroomParams":{"A":{"a":1,"b":4},"B":{"a":4,"b":1},"C":{"a":2,"b":8},"D":{"a":8,"b":2}},"conditions":["nonSeqFull","nonSeqPartial","seqNoFeedback","seqFeedback"],"classroomPairings":[["A","B"],["C","D"]],"coinWeights":[0.2,0.5,0.8],"subjectId":"A273DS7TQWR9M1","assignmentId":"36PW28KO40I66UUNYO0QZN3RRPQAEG","hitId":"3NI0WFPPI9246I5W92FX9A3E2GN605","url":"https://gershmanlab.com/experiments/alicia/teaching/experiment/?hitId=3NI0WFPPI9246I5W92FX9A3E2GN605&workerId=A273DS7TQWR9M1&assignmentId=36PW28KO40I66UUNYO0QZN3RRPQAEG&a=O2P69&tp_a=O2P69&b=36PW28KO40I66UUNYO0QZN3RRPQAEG&tp_b=36PW28KO40I66UUNYO0QZN3RRPQAEG&c=365799&tp_c=365799","heads":2,"tails":8,"studentIndex":10,"studentTrueHypers":{"a":4,"b":1},"studentGuess":0.4,"delta":0.2,"totalExamples":10,"bonusSoFar":1.3},{"rt":23034,"response":{"heads":"2","tails":"6"},"type":"response","condition":"seqFeedback","trueTheta":0.2,"classrooms":["A","B"],"studentTrueClassroom":"B","exampleSet":"second","trial_type":"survey-html-form","trial_index":88,"time_elapsed":730313,"internal_node_id":"0.0-87.0-0.0","params":{"nStudents":24,"maxFlips":30,"completionMinutes":45,"basePay":8,"maxBonus":9,"perTrialBonus":0.5,"perTrialBonusThreshold":0.05,"exampleCost":0.01},"classroomParams":{"A":{"a":1,"b":4},"B":{"a":4,"b":1},"C":{"a":2,"b":8},"D":{"a":8,"b":2}},"conditions":["nonSeqFull","nonSeqPartial","seqNoFeedback","seqFeedback"],"classroomPairings":[["A","B"],["C","D"]],"coinWeights":[0.2,0.5,0.8],"subjectId":"A273DS7TQWR9M1","assignmentId":"36PW28KO40I66UUNYO0QZN3RRPQAEG","hitId":"3NI0WFPPI9246I5W92FX9A3E2GN605","url":"https://gershmanlab.com/experiments/alicia/teaching/experiment/?hitId=3NI0WFPPI9246I5W92FX9A3E2GN605&workerId=A273DS7TQWR9M1&assignmentId=36PW28KO40I66UUNYO0QZN3RRPQAEG&a=O2P69&tp_a=O2P69&b=36PW28KO40I66UUNYO0QZN3RRPQAEG&tp_b=36PW28KO40I66UUNYO0QZN3RRPQAEG&c=365799&tp_c=365799","firstResponseHeads":2,"firstResponseTails":8,"secondResponseHeads":2,"secondResponseTails":6,"totalHeads":4,"totalTails":14,"studentIndex":10,"studentTrueHypers":{"a":4,"b":1},"studentGuess":0.34782608695652173,"delta":0.14782608695652172,"bonus":0,"bonusSoFar":1.3,"totalExamples":18},{"rt":2766,"response":{"heads":"5","tails":"5"},"type":"response","condition":"seqFeedback","trueTheta":0.5,"classrooms":["C","D"],"studentTrueClassroom":"D","exampleSet":"first","trial_type":"survey-html-form","trial_index":94,"time_elapsed":751362,"internal_node_id":"0.0-93.0-0.0","params":{"nStudents":24,"maxFlips":30,"completionMinutes":45,"basePay":8,"maxBonus":9,"perTrialBonus":0.5,"perTrialBonusThreshold":0.05,"exampleCost":0.01},"classroomParams":{"A":{"a":1,"b":4},"B":{"a":4,"b":1},"C":{"a":2,"b":8},"D":{"a":8,"b":2}},"conditions":["nonSeqFull","nonSeqPartial","seqNoFeedback","seqFeedback"],"classroomPairings":[["A","B"],["C","D"]],"coinWeights":[0.2,0.5,0.8],"subjectId":"A273DS7TQWR9M1","assignmentId":"36PW28KO40I66UUNYO0QZN3RRPQAEG","hitId":"3NI0WFPPI9246I5W92FX9A3E2GN605","url":"https://gershmanlab.com/experiments/alicia/teaching/experiment/?hitId=3NI0WFPPI9246I5W92FX9A3E2GN605&workerId=A273DS7TQWR9M1&assignmentId=36PW28KO40I66UUNYO0QZN3RRPQAEG&a=O2P69&tp_a=O2P69&b=36PW28KO40I66UUNYO0QZN3RRPQAEG&tp_b=36PW28KO40I66UUNYO0QZN3RRPQAEG&c=365799&tp_c=365799","heads":5,"tails":5,"studentIndex":11,"studentTrueHypers":{"a":8,"b":2},"studentGuess":0.65,"delta":0.15000000000000002,"totalExamples":10,"bonusSoFar":1.3},{"rt":11932,"response":{"heads":"5","tails":"6"},"type":"response","condition":"seqFeedback","trueTheta":0.5,"classrooms":["C","D"],"studentTrueClassroom":"D","exampleSet":"second","trial_type":"survey-html-form","trial_index":98,"time_elapsed":773798,"internal_node_id":"0.0-97.0-0.0","params":{"nStudents":24,"maxFlips":30,"completionMinutes":45,"basePay":8,"maxBonus":9,"perTrialBonus":0.5,"perTrialBonusThreshold":0.05,"exampleCost":0.01},"classroomParams":{"A":{"a":1,"b":4},"B":{"a":4,"b":1},"C":{"a":2,"b":8},"D":{"a":8,"b":2}},"conditions":["nonSeqFull","nonSeqPartial","seqNoFeedback","seqFeedback"],"classroomPairings":[["A","B"],["C","D"]],"coinWeights":[0.2,0.5,0.8],"subjectId":"A273DS7TQWR9M1","assignmentId":"36PW28KO40I66UUNYO0QZN3RRPQAEG","hitId":"3NI0WFPPI9246I5W92FX9A3E2GN605","url":"https://gershmanlab.com/experiments/alicia/teaching/experiment/?hitId=3NI0WFPPI9246I5W92FX9A3E2GN605&workerId=A273DS7TQWR9M1&assignmentId=36PW28KO40I66UUNYO0QZN3RRPQAEG&a=O2P69&tp_a=O2P69&b=36PW28KO40I66UUNYO0QZN3RRPQAEG&tp_b=36PW28KO40I66UUNYO0QZN3RRPQAEG&c=365799&tp_c=365799","firstResponseHeads":5,"firstResponseTails":5,"secondResponseHeads":5,"secondResponseTails":6,"totalHeads":10,"totalTails":11,"studentIndex":11,"studentTrueHypers":{"a":8,"b":2},"studentGuess":0.5806451612903226,"delta":0.08064516129032262,"bonus":0,"bonusSoFar":1.3,"totalExamples":21},{"rt":2635,"response":{"heads":"5","tails":"5"},"type":"response","condition":"nonSeqPartial","trueTheta":0.5,"classrooms":["C","D"],"studentTrueClassroom":"C","exampleSet":"first","trial_type":"survey-html-form","trial_index":104,"time_elapsed":789606,"internal_node_id":"0.0-103.0-0.0","params":{"nStudents":24,"maxFlips":30,"completionMinutes":45,"basePay":8,"maxBonus":9,"perTrialBonus":0.5,"perTrialBonusThreshold":0.05,"exampleCost":0.01},"classroomParams":{"A":{"a":1,"b":4},"B":{"a":4,"b":1},"C":{"a":2,"b":8},"D":{"a":8,"b":2}},"conditions":["nonSeqFull","nonSeqPartial","seqNoFeedback","seqFeedback"],"classroomPairings":[["A","B"],["C","D"]],"coinWeights":[0.2,0.5,0.8],"subjectId":"A273DS7TQWR9M1","assignmentId":"36PW28KO40I66UUNYO0QZN3RRPQAEG","hitId":"3NI0WFPPI9246I5W92FX9A3E2GN605","url":"https://gershmanlab.com/experiments/alicia/teaching/experiment/?hitId=3NI0WFPPI9246I5W92FX9A3E2GN605&workerId=A273DS7TQWR9M1&assignmentId=36PW28KO40I66UUNYO0QZN3RRPQAEG&a=O2P69&tp_a=O2P69&b=36PW28KO40I66UUNYO0QZN3RRPQAEG&tp_b=36PW28KO40I66UUNYO0QZN3RRPQAEG&c=365799&tp_c=365799","heads":5,"tails":5,"studentIndex":12,"studentTrueHypers":{"a":2,"b":8},"studentGuess":0.35,"delta":0.15000000000000002,"totalExamples":10,"bonus":0,"bonusSoFar":1.3},{"rt":2846,"response":{"heads":"5","tails":"5"},"type":"response","condition":"seqFeedback","trueTheta":0.5,"classrooms":["A","B"],"studentTrueClassroom":"B","exampleSet":"first","trial_type":"survey-html-form","trial_index":110,"time_elapsed":805685,"internal_node_id":"0.0-109.0-0.0","params":{"nStudents":24,"maxFlips":30,"completionMinutes":45,"basePay":8,"maxBonus":9,"perTrialBonus":0.5,"perTrialBonusThreshold":0.05,"exampleCost":0.01},"classroomParams":{"A":{"a":1,"b":4},"B":{"a":4,"b":1},"C":{"a":2,"b":8},"D":{"a":8,"b":2}},"conditions":["nonSeqFull","nonSeqPartial","seqNoFeedback","seqFeedback"],"classroomPairings":[["A","B"],["C","D"]],"coinWeights":[0.2,0.5,0.8],"subjectId":"A273DS7TQWR9M1","assignmentId":"36PW28KO40I66UUNYO0QZN3RRPQAEG","hitId":"3NI0WFPPI9246I5W92FX9A3E2GN605","url":"https://gershmanlab.com/experiments/alicia/teaching/experiment/?hitId=3NI0WFPPI9246I5W92FX9A3E2GN605&workerId=A273DS7TQWR9M1&assignmentId=36PW28KO40I66UUNYO0QZN3RRPQAEG&a=O2P69&tp_a=O2P69&b=36PW28KO40I66UUNYO0QZN3RRPQAEG&tp_b=36PW28KO40I66UUNYO0QZN3RRPQAEG&c=365799&tp_c=365799","heads":5,"tails":5,"studentIndex":13,"studentTrueHypers":{"a":4,"b":1},"studentGuess":0.6,"delta":0.09999999999999998,"totalExamples":10,"bonusSoFar":1.3},{"rt":5333,"response":{"heads":"4","tails":"4"},"type":"response","condition":"seqFeedback","trueTheta":0.5,"classrooms":["A","B"],"studentTrueClassroom":"B","exampleSet":"second","trial_type":"survey-html-form","trial_index":114,"time_elapsed":821023,"internal_node_id":"0.0-113.0-0.0","params":{"nStudents":24,"maxFlips":30,"completionMinutes":45,"basePay":8,"maxBonus":9,"perTrialBonus":0.5,"perTrialBonusThreshold":0.05,"exampleCost":0.01},"classroomParams":{"A":{"a":1,"b":4},"B":{"a":4,"b":1},"C":{"a":2,"b":8},"D":{"a":8,"b":2}},"conditions":["nonSeqFull","nonSeqPartial","seqNoFeedback","seqFeedback"],"classroomPairings":[["A","B"],["C","D"]],"coinWeights":[0.2,0.5,0.8],"subjectId":"A273DS7TQWR9M1","assignmentId":"36PW28KO40I66UUNYO0QZN3RRPQAEG","hitId":"3NI0WFPPI9246I5W92FX9A3E2GN605","url":"https://gershmanlab.com/experiments/alicia/teaching/experiment/?hitId=3NI0WFPPI9246I5W92FX9A3E2GN605&workerId=A273DS7TQWR9M1&assignmentId=36PW28KO40I66UUNYO0QZN3RRPQAEG&a=O2P69&tp_a=O2P69&b=36PW28KO40I66UUNYO0QZN3RRPQAEG&tp_b=36PW28KO40I66UUNYO0QZN3RRPQAEG&c=365799&tp_c=365799","firstResponseHeads":5,"firstResponseTails":5,"secondResponseHeads":4,"secondResponseTails":4,"totalHeads":9,"totalTails":9,"studentIndex":13,"studentTrueHypers":{"a":4,"b":1},"studentGuess":0.5652173913043478,"delta":0.06521739130434778,"bonus":0,"bonusSoFar":1.3,"totalExamples":18},{"rt":7347,"response":{"heads":"8","tails":"2"},"type":"response","condition":"seqNoFeedback","trueTheta":0.8,"classrooms":["C","D"],"studentTrueClassroom":"D","exampleSet":"first","trial_type":"survey-html-form","trial_index":120,"time_elapsed":842982,"internal_node_id":"0.0-119.0-0.0","params":{"nStudents":24,"maxFlips":30,"completionMinutes":45,"basePay":8,"maxBonus":9,"perTrialBonus":0.5,"perTrialBonusThreshold":0.05,"exampleCost":0.01},"classroomParams":{"A":{"a":1,"b":4},"B":{"a":4,"b":1},"C":{"a":2,"b":8},"D":{"a":8,"b":2}},"conditions":["nonSeqFull","nonSeqPartial","seqNoFeedback","seqFeedback"],"classroomPairings":[["A","B"],["C","D"]],"coinWeights":[0.2,0.5,0.8],"subjectId":"A273DS7TQWR9M1","assignmentId":"36PW28KO40I66UUNYO0QZN3RRPQAEG","hitId":"3NI0WFPPI9246I5W92FX9A3E2GN605","url":"https://gershmanlab.com/experiments/alicia/teaching/experiment/?hitId=3NI0WFPPI9246I5W92FX9A3E2GN605&workerId=A273DS7TQWR9M1&assignmentId=36PW28KO40I66UUNYO0QZN3RRPQAEG&a=O2P69&tp_a=O2P69&b=36PW28KO40I66UUNYO0QZN3RRPQAEG&tp_b=36PW28KO40I66UUNYO0QZN3RRPQAEG&c=365799&tp_c=365799","heads":8,"tails":2,"studentIndex":14,"studentTrueHypers":{"a":8,"b":2},"studentGuess":0.8,"delta":0,"totalExamples":10,"bonusSoFar":1.3},{"rt":7968,"response":{"heads":"8","tails":"2"},"type":"response","condition":"seqNoFeedback","trueTheta":0.8,"classrooms":["C","D"],"studentTrueClassroom":"D","exampleSet":"second","trial_type":"survey-html-form","trial_index":123,"time_elapsed":857718,"internal_node_id":"0.0-122.0-0.0","params":{"nStudents":24,"maxFlips":30,"completionMinutes":45,"basePay":8,"maxBonus":9,"perTrialBonus":0.5,"perTrialBonusThreshold":0.05,"exampleCost":0.01},"classroomParams":{"A":{"a":1,"b":4},"B":{"a":4,"b":1},"C":{"a":2,"b":8},"D":{"a":8,"b":2}},"conditions":["nonSeqFull","nonSeqPartial","seqNoFeedback","seqFeedback"],"classroomPairings":[["A","B"],["C","D"]],"coinWeights":[0.2,0.5,0.8],"subjectId":"A273DS7TQWR9M1","assignmentId":"36PW28KO40I66UUNYO0QZN3RRPQAEG","hitId":"3NI0WFPPI9246I5W92FX9A3E2GN605","url":"https://gershmanlab.com/experiments/alicia/teaching/experiment/?hitId=3NI0WFPPI9246I5W92FX9A3E2GN605&workerId=A273DS7TQWR9M1&assignmentId=36PW28KO40I66UUNYO0QZN3RRPQAEG&a=O2P69&tp_a=O2P69&b=36PW28KO40I66UUNYO0QZN3RRPQAEG&tp_b=36PW28KO40I66UUNYO0QZN3RRPQAEG&c=365799&tp_c=365799","firstResponseHeads":8,"firstResponseTails":2,"secondResponseHeads":8,"secondResponseTails":2,"totalHeads":16,"totalTails":4,"studentIndex":14,"studentTrueHypers":{"a":8,"b":2},"studentGuess":0.8,"delta":0,"bonus":0.3,"bonusSoFar":1.6,"totalExamples":20},{"rt":9365,"response":{"heads":"4","tails":"1"},"type":"response","condition":"seqFeedback","trueTheta":0.8,"classrooms":["A","B"],"studentTrueClassroom":"A","exampleSet":"first","trial_type":"survey-html-form","trial_index":129,"time_elapsed":883309,"internal_node_id":"0.0-128.0-0.0","params":{"nStudents":24,"maxFlips":30,"completionMinutes":45,"basePay":8,"maxBonus":9,"perTrialBonus":0.5,"perTrialBonusThreshold":0.05,"exampleCost":0.01},"classroomParams":{"A":{"a":1,"b":4},"B":{"a":4,"b":1},"C":{"a":2,"b":8},"D":{"a":8,"b":2}},"conditions":["nonSeqFull","nonSeqPartial","seqNoFeedback","seqFeedback"],"classroomPairings":[["A","B"],["C","D"]],"coinWeights":[0.2,0.5,0.8],"subjectId":"A273DS7TQWR9M1","assignmentId":"36PW28KO40I66UUNYO0QZN3RRPQAEG","hitId":"3NI0WFPPI9246I5W92FX9A3E2GN605","url":"https://gershmanlab.com/experiments/alicia/teaching/experiment/?hitId=3NI0WFPPI9246I5W92FX9A3E2GN605&workerId=A273DS7TQWR9M1&assignmentId=36PW28KO40I66UUNYO0QZN3RRPQAEG&a=O2P69&tp_a=O2P69&b=36PW28KO40I66UUNYO0QZN3RRPQAEG&tp_b=36PW28KO40I66UUNYO0QZN3RRPQAEG&c=365799&tp_c=365799","heads":4,"tails":1,"studentIndex":15,"studentTrueHypers":{"a":1,"b":4},"studentGuess":0.5,"delta":0.30000000000000004,"totalExamples":5,"bonusSoFar":1.6},{"rt":4106,"response":{"heads":"8","tails":"2"},"type":"response","condition":"seqFeedback","trueTheta":0.8,"classrooms":["A","B"],"studentTrueClassroom":"A","exampleSet":"second","trial_type":"survey-html-form","trial_index":133,"time_elapsed":898045,"internal_node_id":"0.0-132.0-0.0","params":{"nStudents":24,"maxFlips":30,"completionMinutes":45,"basePay":8,"maxBonus":9,"perTrialBonus":0.5,"perTrialBonusThreshold":0.05,"exampleCost":0.01},"classroomParams":{"A":{"a":1,"b":4},"B":{"a":4,"b":1},"C":{"a":2,"b":8},"D":{"a":8,"b":2}},"conditions":["nonSeqFull","nonSeqPartial","seqNoFeedback","seqFeedback"],"classroomPairings":[["A","B"],["C","D"]],"coinWeights":[0.2,0.5,0.8],"subjectId":"A273DS7TQWR9M1","assignmentId":"36PW28KO40I66UUNYO0QZN3RRPQAEG","hitId":"3NI0WFPPI9246I5W92FX9A3E2GN605","url":"https://gershmanlab.com/experiments/alicia/teaching/experiment/?hitId=3NI0WFPPI9246I5W92FX9A3E2GN605&workerId=A273DS7TQWR9M1&assignmentId=36PW28KO40I66UUNYO0QZN3RRPQAEG&a=O2P69&tp_a=O2P69&b=36PW28KO40I66UUNYO0QZN3RRPQAEG&tp_b=36PW28KO40I66UUNYO0QZN3RRPQAEG&c=365799&tp_c=365799","firstResponseHeads":4,"firstResponseTails":1,"secondResponseHeads":8,"secondResponseTails":2,"totalHeads":12,"totalTails":3,"studentIndex":15,"studentTrueHypers":{"a":1,"b":4},"studentGuess":0.65,"delta":0.15000000000000002,"bonus":0,"bonusSoFar":1.6,"totalExamples":15},{"rt":11946,"response":{"heads":"4","tails":"1"},"type":"response","condition":"nonSeqFull","trueTheta":0.5,"classrooms":["A","B"],"studentTrueClassroom":"B","exampleSet":"first","trial_type":"survey-html-form","trial_index":139,"time_elapsed":921013,"internal_node_id":"0.0-138.0-0.0","params":{"nStudents":24,"maxFlips":30,"completionMinutes":45,"basePay":8,"maxBonus":9,"perTrialBonus":0.5,"perTrialBonusThreshold":0.05,"exampleCost":0.01},"classroomParams":{"A":{"a":1,"b":4},"B":{"a":4,"b":1},"C":{"a":2,"b":8},"D":{"a":8,"b":2}},"conditions":["nonSeqFull","nonSeqPartial","seqNoFeedback","seqFeedback"],"classroomPairings":[["A","B"],["C","D"]],"coinWeights":[0.2,0.5,0.8],"subjectId":"A273DS7TQWR9M1","assignmentId":"36PW28KO40I66UUNYO0QZN3RRPQAEG","hitId":"3NI0WFPPI9246I5W92FX9A3E2GN605","url":"https://gershmanlab.com/experiments/alicia/teaching/experiment/?hitId=3NI0WFPPI9246I5W92FX9A3E2GN605&workerId=A273DS7TQWR9M1&assignmentId=36PW28KO40I66UUNYO0QZN3RRPQAEG&a=O2P69&tp_a=O2P69&b=36PW28KO40I66UUNYO0QZN3RRPQAEG&tp_b=36PW28KO40I66UUNYO0QZN3RRPQAEG&c=365799&tp_c=365799","heads":4,"tails":1,"studentIndex":16,"studentTrueHypers":{"a":4,"b":1},"studentGuess":0.8,"delta":0.30000000000000004,"totalExamples":5,"bonus":0,"bonusSoFar":1.6},{"rt":6518,"response":{"heads":"5","tails":"5"},"type":"response","condition":"seqNoFeedback","trueTheta":0.5,"classrooms":["C","D"],"studentTrueClassroom":"C","exampleSet":"first","trial_type":"survey-html-form","trial_index":145,"time_elapsed":940644,"internal_node_id":"0.0-144.0-0.0","params":{"nStudents":24,"maxFlips":30,"completionMinutes":45,"basePay":8,"maxBonus":9,"perTrialBonus":0.5,"perTrialBonusThreshold":0.05,"exampleCost":0.01},"classroomParams":{"A":{"a":1,"b":4},"B":{"a":4,"b":1},"C":{"a":2,"b":8},"D":{"a":8,"b":2}},"conditions":["nonSeqFull","nonSeqPartial","seqNoFeedback","seqFeedback"],"classroomPairings":[["A","B"],["C","D"]],"coinWeights":[0.2,0.5,0.8],"subjectId":"A273DS7TQWR9M1","assignmentId":"36PW28KO40I66UUNYO0QZN3RRPQAEG","hitId":"3NI0WFPPI9246I5W92FX9A3E2GN605","url":"https://gershmanlab.com/experiments/alicia/teaching/experiment/?hitId=3NI0WFPPI9246I5W92FX9A3E2GN605&workerId=A273DS7TQWR9M1&assignmentId=36PW28KO40I66UUNYO0QZN3RRPQAEG&a=O2P69&tp_a=O2P69&b=36PW28KO40I66UUNYO0QZN3RRPQAEG&tp_b=36PW28KO40I66UUNYO0QZN3RRPQAEG&c=365799&tp_c=365799","heads":5,"tails":5,"studentIndex":17,"studentTrueHypers":{"a":2,"b":8},"studentGuess":0.35,"delta":0.15000000000000002,"totalExamples":10,"bonusSoFar":1.6},{"rt":4308,"response":{"heads":"5","tails":"5"},"type":"response","condition":"seqNoFeedback","trueTheta":0.5,"classrooms":["C","D"],"studentTrueClassroom":"C","exampleSet":"second","trial_type":"survey-html-form","trial_index":148,"time_elapsed":951481,"internal_node_id":"0.0-147.0-0.0","params":{"nStudents":24,"maxFlips":30,"completionMinutes":45,"basePay":8,"maxBonus":9,"perTrialBonus":0.5,"perTrialBonusThreshold":0.05,"exampleCost":0.01},"classroomParams":{"A":{"a":1,"b":4},"B":{"a":4,"b":1},"C":{"a":2,"b":8},"D":{"a":8,"b":2}},"conditions":["nonSeqFull","nonSeqPartial","seqNoFeedback","seqFeedback"],"classroomPairings":[["A","B"],["C","D"]],"coinWeights":[0.2,0.5,0.8],"subjectId":"A273DS7TQWR9M1","assignmentId":"36PW28KO40I66UUNYO0QZN3RRPQAEG","hitId":"3NI0WFPPI9246I5W92FX9A3E2GN605","url":"https://gershmanlab.com/experiments/alicia/teaching/experiment/?hitId=3NI0WFPPI9246I5W92FX9A3E2GN605&workerId=A273DS7TQWR9M1&assignmentId=36PW28KO40I66UUNYO0QZN3RRPQAEG&a=O2P69&tp_a=O2P69&b=36PW28KO40I66UUNYO0QZN3RRPQAEG&tp_b=36PW28KO40I66UUNYO0QZN3RRPQAEG&c=365799&tp_c=365799","firstResponseHeads":5,"firstResponseTails":5,"secondResponseHeads":5,"secondResponseTails":5,"totalHeads":10,"totalTails":10,"studentIndex":17,"studentTrueHypers":{"a":2,"b":8},"studentGuess":0.4,"delta":0.09999999999999998,"bonus":0,"bonusSoFar":1.6,"totalExamples":20},{"rt":2465,"response":{"heads":"5","tails":"5"},"type":"response","condition":"seqNoFeedback","trueTheta":0.5,"classrooms":["A","B"],"studentTrueClassroom":"A","exampleSet":"first","trial_type":"survey-html-form","trial_index":154,"time_elapsed":967189,"internal_node_id":"0.0-153.0-0.0","params":{"nStudents":24,"maxFlips":30,"completionMinutes":45,"basePay":8,"maxBonus":9,"perTrialBonus":0.5,"perTrialBonusThreshold":0.05,"exampleCost":0.01},"classroomParams":{"A":{"a":1,"b":4},"B":{"a":4,"b":1},"C":{"a":2,"b":8},"D":{"a":8,"b":2}},"conditions":["nonSeqFull","nonSeqPartial","seqNoFeedback","seqFeedback"],"classroomPairings":[["A","B"],["C","D"]],"coinWeights":[0.2,0.5,0.8],"subjectId":"A273DS7TQWR9M1","assignmentId":"36PW28KO40I66UUNYO0QZN3RRPQAEG","hitId":"3NI0WFPPI9246I5W92FX9A3E2GN605","url":"https://gershmanlab.com/experiments/alicia/teaching/experiment/?hitId=3NI0WFPPI9246I5W92FX9A3E2GN605&workerId=A273DS7TQWR9M1&assignmentId=36PW28KO40I66UUNYO0QZN3RRPQAEG&a=O2P69&tp_a=O2P69&b=36PW28KO40I66UUNYO0QZN3RRPQAEG&tp_b=36PW28KO40I66UUNYO0QZN3RRPQAEG&c=365799&tp_c=365799","heads":5,"tails":5,"studentIndex":18,"studentTrueHypers":{"a":1,"b":4},"studentGuess":0.4,"delta":0.09999999999999998,"totalExamples":10,"bonusSoFar":1.6},{"rt":4349,"response":{"heads":"5","tails":"5"},"type":"response","condition":"seqNoFeedback","trueTheta":0.5,"classrooms":["A","B"],"studentTrueClassroom":"A","exampleSet":"second","trial_type":"survey-html-form","trial_index":157,"time_elapsed":979055,"internal_node_id":"0.0-156.0-0.0","params":{"nStudents":24,"maxFlips":30,"completionMinutes":45,"basePay":8,"maxBonus":9,"perTrialBonus":0.5,"perTrialBonusThreshold":0.05,"exampleCost":0.01},"classroomParams":{"A":{"a":1,"b":4},"B":{"a":4,"b":1},"C":{"a":2,"b":8},"D":{"a":8,"b":2}},"conditions":["nonSeqFull","nonSeqPartial","seqNoFeedback","seqFeedback"],"classroomPairings":[["A","B"],["C","D"]],"coinWeights":[0.2,0.5,0.8],"subjectId":"A273DS7TQWR9M1","assignmentId":"36PW28KO40I66UUNYO0QZN3RRPQAEG","hitId":"3NI0WFPPI9246I5W92FX9A3E2GN605","url":"https://gershmanlab.com/experiments/alicia/teaching/experiment/?hitId=3NI0WFPPI9246I5W92FX9A3E2GN605&workerId=A273DS7TQWR9M1&assignmentId=36PW28KO40I66UUNYO0QZN3RRPQAEG&a=O2P69&tp_a=O2P69&b=36PW28KO40I66UUNYO0QZN3RRPQAEG&tp_b=36PW28KO40I66UUNYO0QZN3RRPQAEG&c=365799&tp_c=365799","firstResponseHeads":5,"firstResponseTails":5,"secondResponseHeads":5,"secondResponseTails":5,"totalHeads":10,"totalTails":10,"studentIndex":18,"studentTrueHypers":{"a":1,"b":4},"studentGuess":0.44,"delta":0.06,"bonus":0,"bonusSoFar":1.6,"totalExamples":20},{"rt":5316,"response":{"heads":"0","tails":"2"},"type":"response","condition":"nonSeqPartial","trueTheta":0.2,"classrooms":["C","D"],"studentTrueClassroom":"C","exampleSet":"first","trial_type":"survey-html-form","trial_index":163,"time_elapsed":997966,"internal_node_id":"0.0-162.0-0.0","params":{"nStudents":24,"maxFlips":30,"completionMinutes":45,"basePay":8,"maxBonus":9,"perTrialBonus":0.5,"perTrialBonusThreshold":0.05,"exampleCost":0.01},"classroomParams":{"A":{"a":1,"b":4},"B":{"a":4,"b":1},"C":{"a":2,"b":8},"D":{"a":8,"b":2}},"conditions":["nonSeqFull","nonSeqPartial","seqNoFeedback","seqFeedback"],"classroomPairings":[["A","B"],["C","D"]],"coinWeights":[0.2,0.5,0.8],"subjectId":"A273DS7TQWR9M1","assignmentId":"36PW28KO40I66UUNYO0QZN3RRPQAEG","hitId":"3NI0WFPPI9246I5W92FX9A3E2GN605","url":"https://gershmanlab.com/experiments/alicia/teaching/experiment/?hitId=3NI0WFPPI9246I5W92FX9A3E2GN605&workerId=A273DS7TQWR9M1&assignmentId=36PW28KO40I66UUNYO0QZN3RRPQAEG&a=O2P69&tp_a=O2P69&b=36PW28KO40I66UUNYO0QZN3RRPQAEG&tp_b=36PW28KO40I66UUNYO0QZN3RRPQAEG&c=365799&tp_c=365799","heads":0,"tails":2,"studentIndex":19,"studentTrueHypers":{"a":2,"b":8},"studentGuess":0.16666666666666666,"delta":0.033333333333333354,"totalExamples":2,"bonus":0.48,"bonusSoFar":2.08},{"rt":2934,"response":{"heads":"0","tails":"2"},"type":"response","condition":"nonSeqFull","trueTheta":0.2,"classrooms":["C","D"],"studentTrueClassroom":"D","exampleSet":"first","trial_type":"survey-html-form","trial_index":169,"time_elapsed":1013842,"internal_node_id":"0.0-168.0-0.0","params":{"nStudents":24,"maxFlips":30,"completionMinutes":45,"basePay":8,"maxBonus":9,"perTrialBonus":0.5,"perTrialBonusThreshold":0.05,"exampleCost":0.01},"classroomParams":{"A":{"a":1,"b":4},"B":{"a":4,"b":1},"C":{"a":2,"b":8},"D":{"a":8,"b":2}},"conditions":["nonSeqFull","nonSeqPartial","seqNoFeedback","seqFeedback"],"classroomPairings":[["A","B"],["C","D"]],"coinWeights":[0.2,0.5,0.8],"subjectId":"A273DS7TQWR9M1","assignmentId":"36PW28KO40I66UUNYO0QZN3RRPQAEG","hitId":"3NI0WFPPI9246I5W92FX9A3E2GN605","url":"https://gershmanlab.com/experiments/alicia/teaching/experiment/?hitId=3NI0WFPPI9246I5W92FX9A3E2GN605&workerId=A273DS7TQWR9M1&assignmentId=36PW28KO40I66UUNYO0QZN3RRPQAEG&a=O2P69&tp_a=O2P69&b=36PW28KO40I66UUNYO0QZN3RRPQAEG&tp_b=36PW28KO40I66UUNYO0QZN3RRPQAEG&c=365799&tp_c=365799","heads":0,"tails":2,"studentIndex":20,"studentTrueHypers":{"a":8,"b":2},"studentGuess":0.6666666666666666,"delta":0.4666666666666666,"totalExamples":2,"bonus":0,"bonusSoFar":2.08},{"rt":2833,"response":{"heads":"0","tails":"2"},"type":"response","condition":"nonSeqPartial","trueTheta":0.2,"classrooms":["A","B"],"studentTrueClassroom":"A","exampleSet":"first","trial_type":"survey-html-form","trial_index":175,"time_elapsed":1028970,"internal_node_id":"0.0-174.0-0.0","params":{"nStudents":24,"maxFlips":30,"completionMinutes":45,"basePay":8,"maxBonus":9,"perTrialBonus":0.5,"perTrialBonusThreshold":0.05,"exampleCost":0.01},"classroomParams":{"A":{"a":1,"b":4},"B":{"a":4,"b":1},"C":{"a":2,"b":8},"D":{"a":8,"b":2}},"conditions":["nonSeqFull","nonSeqPartial","seqNoFeedback","seqFeedback"],"classroomPairings":[["A","B"],["C","D"]],"coinWeights":[0.2,0.5,0.8],"subjectId":"A273DS7TQWR9M1","assignmentId":"36PW28KO40I66UUNYO0QZN3RRPQAEG","hitId":"3NI0WFPPI9246I5W92FX9A3E2GN605","url":"https://gershmanlab.com/experiments/alicia/teaching/experiment/?hitId=3NI0WFPPI9246I5W92FX9A3E2GN605&workerId=A273DS7TQWR9M1&assignmentId=36PW28KO40I66UUNYO0QZN3RRPQAEG&a=O2P69&tp_a=O2P69&b=36PW28KO40I66UUNYO0QZN3RRPQAEG&tp_b=36PW28KO40I66UUNYO0QZN3RRPQAEG&c=365799&tp_c=365799","heads":0,"tails":2,"studentIndex":21,"studentTrueHypers":{"a":1,"b":4},"studentGuess":0.14285714285714285,"delta":0.05714285714285716,"totalExamples":2,"bonus":0,"bonusSoFar":2.08},{"rt":3726,"response":{"heads":"1","tails":"1"},"type":"response","condition":"nonSeqFull","trueTheta":0.5,"classrooms":["C","D"],"studentTrueClassroom":"C","exampleSet":"first","trial_type":"survey-html-form","trial_index":181,"time_elapsed":1045828,"internal_node_id":"0.0-180.0-0.0","params":{"nStudents":24,"maxFlips":30,"completionMinutes":45,"basePay":8,"maxBonus":9,"perTrialBonus":0.5,"perTrialBonusThreshold":0.05,"exampleCost":0.01},"classroomParams":{"A":{"a":1,"b":4},"B":{"a":4,"b":1},"C":{"a":2,"b":8},"D":{"a":8,"b":2}},"conditions":["nonSeqFull","nonSeqPartial","seqNoFeedback","seqFeedback"],"classroomPairings":[["A","B"],["C","D"]],"coinWeights":[0.2,0.5,0.8],"subjectId":"A273DS7TQWR9M1","assignmentId":"36PW28KO40I66UUNYO0QZN3RRPQAEG","hitId":"3NI0WFPPI9246I5W92FX9A3E2GN605","url":"https://gershmanlab.com/experiments/alicia/teaching/experiment/?hitId=3NI0WFPPI9246I5W92FX9A3E2GN605&workerId=A273DS7TQWR9M1&assignmentId=36PW28KO40I66UUNYO0QZN3RRPQAEG&a=O2P69&tp_a=O2P69&b=36PW28KO40I66UUNYO0QZN3RRPQAEG&tp_b=36PW28KO40I66UUNYO0QZN3RRPQAEG&c=365799&tp_c=365799","heads":1,"tails":1,"studentIndex":22,"studentTrueHypers":{"a":2,"b":8},"studentGuess":0.25,"delta":0.25,"totalExamples":2,"bonus":0,"bonusSoFar":2.08},{"rt":5295,"response":{"heads":"8","tails":"2"},"type":"response","condition":"nonSeqPartial","trueTheta":0.8,"classrooms":["A","B"],"studentTrueClassroom":"A","exampleSet":"first","trial_type":"survey-html-form","trial_index":187,"time_elapsed":1066158,"internal_node_id":"0.0-186.0-0.0","params":{"nStudents":24,"maxFlips":30,"completionMinutes":45,"basePay":8,"maxBonus":9,"perTrialBonus":0.5,"perTrialBonusThreshold":0.05,"exampleCost":0.01},"classroomParams":{"A":{"a":1,"b":4},"B":{"a":4,"b":1},"C":{"a":2,"b":8},"D":{"a":8,"b":2}},"conditions":["nonSeqFull","nonSeqPartial","seqNoFeedback","seqFeedback"],"classroomPairings":[["A","B"],["C","D"]],"coinWeights":[0.2,0.5,0.8],"subjectId":"A273DS7TQWR9M1","assignmentId":"36PW28KO40I66UUNYO0QZN3RRPQAEG","hitId":"3NI0WFPPI9246I5W92FX9A3E2GN605","url":"https://gershmanlab.com/experiments/alicia/teaching/experiment/?hitId=3NI0WFPPI9246I5W92FX9A3E2GN605&workerId=A273DS7TQWR9M1&assignmentId=36PW28KO40I66UUNYO0QZN3RRPQAEG&a=O2P69&tp_a=O2P69&b=36PW28KO40I66UUNYO0QZN3RRPQAEG&tp_b=36PW28KO40I66UUNYO0QZN3RRPQAEG&c=365799&tp_c=365799","heads":8,"tails":2,"studentIndex":23,"studentTrueHypers":{"a":1,"b":4},"studentGuess":0.6,"delta":0.20000000000000007,"totalExamples":10,"bonus":0,"bonusSoFar":2.08},{"rt":12767,"response":{"gender":"male","age":"34","understood":"yes","comments":""},"type":"response","trial_type":"survey-html-form","trial_index":191,"time_elapsed":1087520,"internal_node_id":"0.0-191.0","params":{"nStudents":24,"maxFlips":30,"completionMinutes":45,"basePay":8,"maxBonus":9,"perTrialBonus":0.5,"perTrialBonusThreshold":0.05,"exampleCost":0.01},"classroomParams":{"A":{"a":1,"b":4},"B":{"a":4,"b":1},"C":{"a":2,"b":8},"D":{"a":8,"b":2}},"conditions":["nonSeqFull","nonSeqPartial","seqNoFeedback","seqFeedback"],"classroomPairings":[["A","B"],["C","D"]],"coinWeights":[0.2,0.5,0.8],"subjectId":"A273DS7TQWR9M1","assignmentId":"36PW28KO40I66UUNYO0QZN3RRPQAEG","hitId":"3NI0WFPPI9246I5W92FX9A3E2GN605","url":"https://gershmanlab.com/experiments/alicia/teaching/experiment/?hitId=3NI0WFPPI9246I5W92FX9A3E2GN605&workerId=A273DS7TQWR9M1&assignmentId=36PW28KO40I66UUNYO0QZN3RRPQAEG&a=O2P69&tp_a=O2P69&b=36PW28KO40I66UUNYO0QZN3RRPQAEG&tp_b=36PW28KO40I66UUNYO0QZN3RRPQAEG&c=365799&tp_c=365799","totalBonus":2.08}]