[{"rt":34857,"response":{"heads":"2","tails":"8"},"type":"response","condition":"seqNoFeedback","trueTheta":0.2,"classrooms":["C","D"],"studentTrueClassroom":"C","exampleSet":"first","trial_type":"survey-html-form","trial_index":7,"time_elapsed":201080,"internal_node_id":"0.0-6.0-0.0","params":{"nStudents":24,"maxFlips":30,"completionMinutes":45,"basePay":8,"maxBonus":9,"perTrialBonus":0.5,"perTrialBonusThreshold":0.05,"exampleCost":0.01},"classroomParams":{"A":{"a":1,"b":4},"B":{"a":4,"b":1},"C":{"a":2,"b":8},"D":{"a":8,"b":2}},"conditions":["nonSeqFull","nonSeqPartial","seqNoFeedback","seqFeedback"],"classroomPairings":[["A","B"],["C","D"]],"coinWeights":[0.2,0.5,0.8],"subjectId":"A27MJOV91GA8R3","assignmentId":"3Z4XG4ZF49D1T6SPWV64RLI3H838XN","hitId":"32TZXEA1OL6QYKM0MXQIQH2ABHN14I","url":"https://gershmanlab.com/experiments/alicia/teaching/experiment/?hitId=32TZXEA1OL6QYKM0MXQIQH2ABHN14I&workerId=A27MJOV91GA8R3&assignmentId=3Z4XG4ZF49D1T6SPWV64RLI3H838XN&a=FG4Z9&tp_a=FG4Z9&b=3Z4XG4ZF49D1T6SPWV64RLI3H838XN&tp_b=3Z4XG4ZF49D1T6SPWV64RLI3H838XN&c=365799&tp_c=365799","heads":2,"tails":8,"studentIndex":0,"studentTrueHypers":{"a":2,"b":8},"studentGuess":0.2,"delta":0,"totalExamples":10,"bonusSoFar":0},{"rt":20400,"response":{"heads":"2","tails":"8"},"type":"response","condition":"seqNoFeedback","trueTheta":0.2,"classrooms":["C","D"],"studentTrueClassroom":"C","exampleSet":"second","trial_type":"survey-html-form","trial_index":10,"time_elapsed":227243,"internal_node_id":"0.0-9.0-0.0","params":{"nStudents":24,"maxFlips":30,"completionMinutes":45,"basePay":8,"maxBonus":9,"perTrialBonus":0.5,"perTrialBonusThreshold":0.05,"exampleCost":0.01},"classroomParams":{"A":{"a":1,"b":4},"B":{"a":4,"b":1},"C":{"a":2,"b":8},"D":{"a":8,"b":2}},"conditions":["nonSeqFull","nonSeqPartial","seqNoFeedback","seqFeedback"],"classroomPairings":[["A","B"],["C","D"]],"coinWeights":[0.2,0.5,0.8],"subjectId":"A27MJOV91GA8R3","assignmentId":"3Z4XG4ZF49D1T6SPWV64RLI3H838XN","hitId":"32TZXEA1OL6QYKM0MXQIQH2ABHN14I","url":"https://gershmanlab.com/experiments/alicia/teaching/experiment/?hitId=32TZXEA1OL6QYKM0MXQIQH2ABHN14I&workerId=A27MJOV91GA8R3&assignmentId=3Z4XG4ZF49D1T6SPWV64RLI3H838XN&a=FG4Z9&tp_a=FG4Z9&b=3Z4XG4ZF49D1T6SPWV64RLI3H838XN&tp_b=3Z4XG4ZF49D1T6SPWV64RLI3H838XN&c=365799&tp_c=365799","firstResponseHeads":2,"firstResponseTails":8,"secondResponseHeads":2,"secondResponseTails":8,"totalHeads":4,"totalTails":16,"studentIndex":0,"studentTrueHypers":{"a":2,"b":8},"studentGuess":0.2,"delta":0,"bonus":0.3,"bonusSoFar":0.3,"totalExamples":20},{"rt":8366,"response":{"heads":"2","tails":"2"},"type":"response","condition":"nonSeqPartial","trueTheta":0.5,"classrooms":["A","B"],"studentTrueClassroom":"B","exampleSet":"first","trial_type":"survey-html-form","trial_index":16,"time_elapsed":258331,"internal_node_id":"0.0-15.0-0.0","params":{"nStudents":24,"maxFlips":30,"completionMinutes":45,"basePay":8,"maxBonus":9,"perTrialBonus":0.5,"perTrialBonusThreshold":0.05,"exampleCost":0.01},"classroomParams":{"A":{"a":1,"b":4},"B":{"a":4,"b":1},"C":{"a":2,"b":8},"D":{"a":8,"b":2}},"conditions":["nonSeqFull","nonSeqPartial","seqNoFeedback","seqFeedback"],"classroomPairings":[["A","B"],["C","D"]],"coinWeights":[0.2,0.5,0.8],"subjectId":"A27MJOV91GA8R3","assignmentId":"3Z4XG4ZF49D1T6SPWV64RLI3H838XN","hitId":"32TZXEA1OL6QYKM0MXQIQH2ABHN14I","url":"https://gershmanlab.com/experiments/alicia/teaching/experiment/?hitId=32TZXEA1OL6QYKM0MXQIQH2ABHN14I&workerId=A27MJOV91GA8R3&assignmentId=3Z4XG4ZF49D1T6SPWV64RLI3H838XN&a=FG4Z9&tp_a=FG4Z9&b=3Z4XG4ZF49D1T6SPWV64RLI3H838XN&tp_b=3Z4XG4ZF49D1T6SPWV64RLI3H838XN&c=365799&tp_c=365799","heads":2,"tails":2,"studentIndex":1,"studentTrueHypers":{"a":4,"b":1},"studentGuess":0.6666666666666666,"delta":0.16666666666666663,"totalExamples":4,"bonus":0,"bonusSoFar":0.3},{"rt":25597,"response":{"heads":"12","tails":"12"},"type":"response","condition":"seqNoFeedback","trueTheta":0.5,"classrooms":["A","B"],"studentTrueClassroom":"A","exampleSet":"first","trial_type":"survey-html-form","trial_index":22,"time_elapsed":300262,"internal_node_id":"0.0-21.0-0.0","params":{"nStudents":24,"maxFlips":30,"completionMinutes":45,"basePay":8,"maxBonus":9,"perTrialBonus":0.5,"perTrialBonusThreshold":0.05,"exampleCost":0.01},"classroomParams":{"A":{"a":1,"b":4},"B":{"a":4,"b":1},"C":{"a":2,"b":8},"D":{"a":8,"b":2}},"conditions":["nonSeqFull","nonSeqPartial","seqNoFeedback","seqFeedback"],"classroomPairings":[["A","B"],["C","D"]],"coinWeights":[0.2,0.5,0.8],"subjectId":"A27MJOV91GA8R3","assignmentId":"3Z4XG4ZF49D1T6SPWV64RLI3H838XN","hitId":"32TZXEA1OL6QYKM0MXQIQH2ABHN14I","url":"https://gershmanlab.com/experiments/alicia/teaching/experiment/?hitId=32TZXEA1OL6QYKM0MXQIQH2ABHN14I&workerId=A27MJOV91GA8R3&assignmentId=3Z4XG4ZF49D1T6SPWV64RLI3H838XN&a=FG4Z9&tp_a=FG4Z9&b=3Z4XG4ZF49D1T6SPWV64RLI3H838XN&tp_b=3Z4XG4ZF49D1T6SPWV64RLI3H838XN&c=365799&tp_c=365799","heads":12,"tails":12,"studentIndex":2,"studentTrueHypers":{"a":1,"b":4},"studentGuess":0.4482758620689655,"delta":0.051724137931034475,"totalExamples":24,"bonusSoFar":0.3},{"rt":9356,"response":{"heads":"10","tails":"10"},"type":"response","condition":"seqNoFeedback","trueTheta":0.5,"classrooms":["A","B"],"studentTrueClassroom":"A","exampleSet":"second","trial_type":"survey-html-form","trial_index":25,"time_elapsed":316134,"internal_node_id":"0.0-24.0-0.0","params":{"nStudents":24,"maxFlips":30,"completionMinutes":45,"basePay":8,"maxBonus":9,"perTrialBonus":0.5,"perTrialBonusThreshold":0.05,"exampleCost":0.01},"classroomParams":{"A":{"a":1,"b":4},"B":{"a":4,"b":1},"C":{"a":2,"b":8},"D":{"a":8,"b":2}},"conditions":["nonSeqFull","nonSeqPartial","seqNoFeedback","seqFeedback"],"classroomPairings":[["A","B"],["C","D"]],"coinWeights":[0.2,0.5,0.8],"subjectId":"A27MJOV91GA8R3","assignmentId":"3Z4XG4ZF49D1T6SPWV64RLI3H838XN","hitId":"32TZXEA1OL6QYKM0MXQIQH2ABHN14I","url":"https://gershmanlab.com/experiments/alicia/teaching/experiment/?hitId=32TZXEA1OL6QYKM0MXQIQH2ABHN14I&workerId=A27MJOV91GA8R3&assignmentId=3Z4XG4ZF49D1T6SPWV64RLI3H838XN&a=FG4Z9&tp_a=FG4Z9&b=3Z4XG4ZF49D1T6SPWV64RLI3H838XN&tp_b=3Z4XG4ZF49D1T6SPWV64RLI3H838XN&c=365799&tp_c=365799","firstResponseHeads":12,"firstResponseTails":12,"secondResponseHeads":10,"secondResponseTails":10,"totalHeads":22,"totalTails":22,"studentIndex":2,"studentTrueHypers":{"a":1,"b":4},"studentGuess":0.46938775510204084,"delta":0.030612244897959162,"bonus":0.06,"bonusSoFar":0.36,"totalExamples":44},{"rt":5459,"response":{"heads":"8","tails":"2"},"type":"response","condition":"seqFeedback","trueTheta":0.8,"classrooms":["A","B"],"studentTrueClassroom":"A","exampleSet":"first","trial_type":"survey-html-form","trial_index":31,"time_elapsed":351930,"internal_node_id":"0.0-30.0-0.0","params":{"nStudents":24,"maxFlips":30,"completionMinutes":45,"basePay":8,"maxBonus":9,"perTrialBonus":0.5,"perTrialBonusThreshold":0.05,"exampleCost":0.01},"classroomParams":{"A":{"a":1,"b":4},"B":{"a":4,"b":1},"C":{"a":2,"b":8},"D":{"a":8,"b":2}},"conditions":["nonSeqFull","nonSeqPartial","seqNoFeedback","seqFeedback"],"classroomPairings":[["A","B"],["C","D"]],"coinWeights":[0.2,0.5,0.8],"subjectId":"A27MJOV91GA8R3","assignmentId":"3Z4XG4ZF49D1T6SPWV64RLI3H838XN","hitId":"32TZXEA1OL6QYKM0MXQIQH2ABHN14I","url":"https://gershmanlab.com/experiments/alicia/teaching/experiment/?hitId=32TZXEA1OL6QYKM0MXQIQH2ABHN14I&workerId=A27MJOV91GA8R3&assignmentId=3Z4XG4ZF49D1T6SPWV64RLI3H838XN&a=FG4Z9&tp_a=FG4Z9&b=3Z4XG4ZF49D1T6SPWV64RLI3H838XN&tp_b=3Z4XG4ZF49D1T6SPWV64RLI3H838XN&c=365799&tp_c=365799","heads":8,"tails":2,"studentIndex":3,"studentTrueHypers":{"a":1,"b":4},"studentGuess":0.6,"delta":0.20000000000000007,"totalExamples":10,"bonusSoFar":0.36},{"rt":6936,"response":{"heads":"4","tails":"1"},"type":"response","condition":"seqFeedback","trueTheta":0.8,"classrooms":["A","B"],"studentTrueClassroom":"A","exampleSet":"second","trial_type":"survey-html-form","trial_index":35,"time_elapsed":368278,"internal_node_id":"0.0-34.0-0.0","params":{"nStudents":24,"maxFlips":30,"completionMinutes":45,"basePay":8,"maxBonus":9,"perTrialBonus":0.5,"perTrialBonusThreshold":0.05,"exampleCost":0.01},"classroomParams":{"A":{"a":1,"b":4},"B":{"a":4,"b":1},"C":{"a":2,"b":8},"D":{"a":8,"b":2}},"conditions":["nonSeqFull","nonSeqPartial","seqNoFeedback","seqFeedback"],"classroomPairings":[["A","B"],["C","D"]],"coinWeights":[0.2,0.5,0.8],"subjectId":"A27MJOV91GA8R3","assignmentId":"3Z4XG4ZF49D1T6SPWV64RLI3H838XN","hitId":"32TZXEA1OL6QYKM0MXQIQH2ABHN14I","url":"https://gershmanlab.com/experiments/alicia/teaching/experiment/?hitId=32TZXEA1OL6QYKM0MXQIQH2ABHN14I&workerId=A27MJOV91GA8R3&assignmentId=3Z4XG4ZF49D1T6SPWV64RLI3H838XN&a=FG4Z9&tp_a=FG4Z9&b=3Z4XG4ZF49D1T6SPWV64RLI3H838XN&tp_b=3Z4XG4ZF49D1T6SPWV64RLI3H838XN&c=365799&tp_c=365799","firstResponseHeads":8,"firstResponseTails":2,"secondResponseHeads":4,"secondResponseTails":1,"totalHeads":12,"totalTails":3,"studentIndex":3,"studentTrueHypers":{"a":1,"b":4},"studentGuess":0.65,"delta":0.15000000000000002,"bonus":0,"bonusSoFar":0.36,"totalExamples":15},{"rt":8213,"response":{"heads":"4","tails":"1"},"type":"response","condition":"seqNoFeedback","trueTheta":0.8,"classrooms":["C","D"],"studentTrueClassroom":"C","exampleSet":"first","trial_type":"survey-html-form","trial_index":41,"time_elapsed":392109,"internal_node_id":"0.0-40.0-0.0","params":{"nStudents":24,"maxFlips":30,"completionMinutes":45,"basePay":8,"maxBonus":9,"perTrialBonus":0.5,"perTrialBonusThreshold":0.05,"exampleCost":0.01},"classroomParams":{"A":{"a":1,"b":4},"B":{"a":4,"b":1},"C":{"a":2,"b":8},"D":{"a":8,"b":2}},"conditions":["nonSeqFull","nonSeqPartial","seqNoFeedback","seqFeedback"],"classroomPairings":[["A","B"],["C","D"]],"coinWeights":[0.2,0.5,0.8],"subjectId":"A27MJOV91GA8R3","assignmentId":"3Z4XG4ZF49D1T6SPWV64RLI3H838XN","hitId":"32TZXEA1OL6QYKM0MXQIQH2ABHN14I","url":"https://gershmanlab.com/experiments/alicia/teaching/experiment/?hitId=32TZXEA1OL6QYKM0MXQIQH2ABHN14I&workerId=A27MJOV91GA8R3&assignmentId=3Z4XG4ZF49D1T6SPWV64RLI3H838XN&a=FG4Z9&tp_a=FG4Z9&b=3Z4XG4ZF49D1T6SPWV64RLI3H838XN&tp_b=3Z4XG4ZF49D1T6SPWV64RLI3H838XN&c=365799&tp_c=365799","heads":4,"tails":1,"studentIndex":4,"studentTrueHypers":{"a":2,"b":8},"studentGuess":0.4,"delta":0.4,"totalExamples":5,"bonusSoFar":0.36},{"rt":5822,"response":{"heads":"4","tails":"1"},"type":"response","condition":"seqNoFeedback","trueTheta":0.8,"classrooms":["C","D"],"studentTrueClassroom":"C","exampleSet":"second","trial_type":"survey-html-form","trial_index":44,"time_elapsed":403947,"internal_node_id":"0.0-43.0-0.0","params":{"nStudents":24,"maxFlips":30,"completionMinutes":45,"basePay":8,"maxBonus":9,"perTrialBonus":0.5,"perTrialBonusThreshold":0.05,"exampleCost":0.01},"classroomParams":{"A":{"a":1,"b":4},"B":{"a":4,"b":1},"C":{"a":2,"b":8},"D":{"a":8,"b":2}},"conditions":["nonSeqFull","nonSeqPartial","seqNoFeedback","seqFeedback"],"classroomPairings":[["A","B"],["C","D"]],"coinWeights":[0.2,0.5,0.8],"subjectId":"A27MJOV91GA8R3","assignmentId":"3Z4XG4ZF49D1T6SPWV64RLI3H838XN","hitId":"32TZXEA1OL6QYKM0MXQIQH2ABHN14I","url":"https://gershmanlab.com/experiments/alicia/teaching/experiment/?hitId=32TZXEA1OL6QYKM0MXQIQH2ABHN14I&workerId=A27MJOV91GA8R3&assignmentId=3Z4XG4ZF49D1T6SPWV64RLI3H838XN&a=FG4Z9&tp_a=FG4Z9&b=3Z4XG4ZF49D1T6SPWV64RLI3H838XN&tp_b=3Z4XG4ZF49D1T6SPWV64RLI3H838XN&c=365799&tp_c=365799","firstResponseHeads":4,"firstResponseTails":1,"secondResponseHeads":4,"secondResponseTails":1,"totalHeads":8,"totalTails":2,"studentIndex":4,"studentTrueHypers":{"a":2,"b":8},"studentGuess":0.5,"delta":0.30000000000000004,"bonus":0,"bonusSoFar":0.36,"totalExamples":10},{"rt":8759,"response":{"heads":"1","tails":"5"},"type":"response","condition":"nonSeqPartial","trueTheta":0.2,"classrooms":["A","B"],"studentTrueClassroom":"A","exampleSet":"first","trial_type":"survey-html-form","trial_index":50,"time_elapsed":425069,"internal_node_id":"0.0-49.0-0.0","params":{"nStudents":24,"maxFlips":30,"completionMinutes":45,"basePay":8,"maxBonus":9,"perTrialBonus":0.5,"perTrialBonusThreshold":0.05,"exampleCost":0.01},"classroomParams":{"A":{"a":1,"b":4},"B":{"a":4,"b":1},"C":{"a":2,"b":8},"D":{"a":8,"b":2}},"conditions":["nonSeqFull","nonSeqPartial","seqNoFeedback","seqFeedback"],"classroomPairings":[["A","B"],["C","D"]],"coinWeights":[0.2,0.5,0.8],"subjectId":"A27MJOV91GA8R3","assignmentId":"3Z4XG4ZF49D1T6SPWV64RLI3H838XN","hitId":"32TZXEA1OL6QYKM0MXQIQH2ABHN14I","url":"https://gershmanlab.com/experiments/alicia/teaching/experiment/?hitId=32TZXEA1OL6QYKM0MXQIQH2ABHN14I&workerId=A27MJOV91GA8R3&assignmentId=3Z4XG4ZF49D1T6SPWV64RLI3H838XN&a=FG4Z9&tp_a=FG4Z9&b=3Z4XG4ZF49D1T6SPWV64RLI3H838XN&tp_b=3Z4XG4ZF49D1T6SPWV64RLI3H838XN&c=365799&tp_c=365799","heads":1,"tails":5,"studentIndex":5,"studentTrueHypers":{"a":1,"b":4},"studentGuess":0.18181818181818182,"delta":0.018181818181818188,"totalExamples":6,"bonus":0.44,"bonusSoFar":0.8},{"rt":8069,"response":{"heads":"2","tails":"8"},"type":"response","condition":"nonSeqFull","trueTheta":0.2,"classrooms":["A","B"],"studentTrueClassroom":"A","exampleSet":"first","trial_type":"survey-html-form","trial_index":56,"time_elapsed":446082,"internal_node_id":"0.0-55.0-0.0","params":{"nStudents":24,"maxFlips":30,"completionMinutes":45,"basePay":8,"maxBonus":9,"perTrialBonus":0.5,"perTrialBonusThreshold":0.05,"exampleCost":0.01},"classroomParams":{"A":{"a":1,"b":4},"B":{"a":4,"b":1},"C":{"a":2,"b":8},"D":{"a":8,"b":2}},"conditions":["nonSeqFull","nonSeqPartial","seqNoFeedback","seqFeedback"],"classroomPairings":[["A","B"],["C","D"]],"coinWeights":[0.2,0.5,0.8],"subjectId":"A27MJOV91GA8R3","assignmentId":"3Z4XG4ZF49D1T6SPWV64RLI3H838XN","hitId":"32TZXEA1OL6QYKM0MXQIQH2ABHN14I","url":"https://gershmanlab.com/experiments/alicia/teaching/experiment/?hitId=32TZXEA1OL6QYKM0MXQIQH2ABHN14I&workerId=A27MJOV91GA8R3&assignmentId=3Z4XG4ZF49D1T6SPWV64RLI3H838XN&a=FG4Z9&tp_a=FG4Z9&b=3Z4XG4ZF49D1T6SPWV64RLI3H838XN&tp_b=3Z4XG4ZF49D1T6SPWV64RLI3H838XN&c=365799&tp_c=365799","heads":2,"tails":8,"studentIndex":6,"studentTrueHypers":{"a":1,"b":4},"studentGuess":0.2,"delta":0,"totalExamples":10,"bonus":0.4,"bonusSoFar":1.2},{"rt":4139,"response":{"heads":"2","tails":"8"},"type":"response","condition":"nonSeqPartial","trueTheta":0.2,"classrooms":["C","D"],"studentTrueClassroom":"D","exampleSet":"first","trial_type":"survey-html-form","trial_index":62,"time_elapsed":466453,"internal_node_id":"0.0-61.0-0.0","params":{"nStudents":24,"maxFlips":30,"completionMinutes":45,"basePay":8,"maxBonus":9,"perTrialBonus":0.5,"perTrialBonusThreshold":0.05,"exampleCost":0.01},"classroomParams":{"A":{"a":1,"b":4},"B":{"a":4,"b":1},"C":{"a":2,"b":8},"D":{"a":8,"b":2}},"conditions":["nonSeqFull","nonSeqPartial","seqNoFeedback","seqFeedback"],"classroomPairings":[["A","B"],["C","D"]],"coinWeights":[0.2,0.5,0.8],"subjectId":"A27MJOV91GA8R3","assignmentId":"3Z4XG4ZF49D1T6SPWV64RLI3H838XN","hitId":"32TZXEA1OL6QYKM0MXQIQH2ABHN14I","url":"https://gershmanlab.com/experiments/alicia/teaching/experiment/?hitId=32TZXEA1OL6QYKM0MXQIQH2ABHN14I&workerId=A27MJOV91GA8R3&assignmentId=3Z4XG4ZF49D1T6SPWV64RLI3H838XN&a=FG4Z9&tp_a=FG4Z9&b=3Z4XG4ZF49D1T6SPWV64RLI3H838XN&tp_b=3Z4XG4ZF49D1T6SPWV64RLI3H838XN&c=365799&tp_c=365799","heads":2,"tails":8,"studentIndex":7,"studentTrueHypers":{"a":8,"b":2},"studentGuess":0.5,"delta":0.3,"totalExamples":10,"bonus":0,"bonusSoFar":1.2},{"rt":7315,"response":{"heads":"0","tails":"0"},"type":"response","condition":"seqNoFeedback","trueTheta":0.8,"classrooms":["A","B"],"studentTrueClassroom":"B","exampleSet":"first","trial_type":"survey-html-form","trial_index":68,"time_elapsed":490438,"internal_node_id":"0.0-67.0-0.0","params":{"nStudents":24,"maxFlips":30,"completionMinutes":45,"basePay":8,"maxBonus":9,"perTrialBonus":0.5,"perTrialBonusThreshold":0.05,"exampleCost":0.01},"classroomParams":{"A":{"a":1,"b":4},"B":{"a":4,"b":1},"C":{"a":2,"b":8},"D":{"a":8,"b":2}},"conditions":["nonSeqFull","nonSeqPartial","seqNoFeedback","seqFeedback"],"classroomPairings":[["A","B"],["C","D"]],"coinWeights":[0.2,0.5,0.8],"subjectId":"A27MJOV91GA8R3","assignmentId":"3Z4XG4ZF49D1T6SPWV64RLI3H838XN","hitId":"32TZXEA1OL6QYKM0MXQIQH2ABHN14I","url":"https://gershmanlab.com/experiments/alicia/teaching/experiment/?hitId=32TZXEA1OL6QYKM0MXQIQH2ABHN14I&workerId=A27MJOV91GA8R3&assignmentId=3Z4XG4ZF49D1T6SPWV64RLI3H838XN&a=FG4Z9&tp_a=FG4Z9&b=3Z4XG4ZF49D1T6SPWV64RLI3H838XN&tp_b=3Z4XG4ZF49D1T6SPWV64RLI3H838XN&c=365799&tp_c=365799","heads":0,"tails":0,"studentIndex":8,"studentTrueHypers":{"a":4,"b":1},"studentGuess":0.8,"delta":0,"totalExamples":0,"bonusSoFar":1.2},{"rt":7012,"response":{"heads":"4","tails":"1"},"type":"response","condition":"seqNoFeedback","trueTheta":0.8,"classrooms":["A","B"],"studentTrueClassroom":"B","exampleSet":"first","trial_type":"survey-html-form","trial_index":69,"time_elapsed":497457,"internal_node_id":"0.0-67.1-0.1","params":{"nStudents":24,"maxFlips":30,"completionMinutes":45,"basePay":8,"maxBonus":9,"perTrialBonus":0.5,"perTrialBonusThreshold":0.05,"exampleCost":0.01},"classroomParams":{"A":{"a":1,"b":4},"B":{"a":4,"b":1},"C":{"a":2,"b":8},"D":{"a":8,"b":2}},"conditions":["nonSeqFull","nonSeqPartial","seqNoFeedback","seqFeedback"],"classroomPairings":[["A","B"],["C","D"]],"coinWeights":[0.2,0.5,0.8],"subjectId":"A27MJOV91GA8R3","assignmentId":"3Z4XG4ZF49D1T6SPWV64RLI3H838XN","hitId":"32TZXEA1OL6QYKM0MXQIQH2ABHN14I","url":"https://gershmanlab.com/experiments/alicia/teaching/experiment/?hitId=32TZXEA1OL6QYKM0MXQIQH2ABHN14I&workerId=A27MJOV91GA8R3&assignmentId=3Z4XG4ZF49D1T6SPWV64RLI3H838XN&a=FG4Z9&tp_a=FG4Z9&b=3Z4XG4ZF49D1T6SPWV64RLI3H838XN&tp_b=3Z4XG4ZF49D1T6SPWV64RLI3H838XN&c=365799&tp_c=365799","heads":4,"tails":1,"studentIndex":8,"studentTrueHypers":{"a":4,"b":1},"studentGuess":0.8,"delta":0,"totalExamples":5,"bonusSoFar":1.2},{"rt":5447,"response":{"heads":"4","tails":"1"},"type":"response","condition":"seqNoFeedback","trueTheta":0.8,"classrooms":["A","B"],"studentTrueClassroom":"B","exampleSet":"second","trial_type":"survey-html-form","trial_index":72,"time_elapsed":510916,"internal_node_id":"0.0-70.0-0.0","params":{"nStudents":24,"maxFlips":30,"completionMinutes":45,"basePay":8,"maxBonus":9,"perTrialBonus":0.5,"perTrialBonusThreshold":0.05,"exampleCost":0.01},"classroomParams":{"A":{"a":1,"b":4},"B":{"a":4,"b":1},"C":{"a":2,"b":8},"D":{"a":8,"b":2}},"conditions":["nonSeqFull","nonSeqPartial","seqNoFeedback","seqFeedback"],"classroomPairings":[["A","B"],["C","D"]],"coinWeights":[0.2,0.5,0.8],"subjectId":"A27MJOV91GA8R3","assignmentId":"3Z4XG4ZF49D1T6SPWV64RLI3H838XN","hitId":"32TZXEA1OL6QYKM0MXQIQH2ABHN14I","url":"https://gershmanlab.com/experiments/alicia/teaching/experiment/?hitId=32TZXEA1OL6QYKM0MXQIQH2ABHN14I&workerId=A27MJOV91GA8R3&assignmentId=3Z4XG4ZF49D1T6SPWV64RLI3H838XN&a=FG4Z9&tp_a=FG4Z9&b=3Z4XG4ZF49D1T6SPWV64RLI3H838XN&tp_b=3Z4XG4ZF49D1T6SPWV64RLI3H838XN&c=365799&tp_c=365799","firstResponseHeads":0,"firstResponseTails":0,"secondResponseHeads":4,"secondResponseTails":1,"totalHeads":4,"totalTails":1,"studentIndex":8,"studentTrueHypers":{"a":4,"b":1},"studentGuess":0.8,"delta":0,"bonus":0.45,"bonusSoFar":1.65,"totalExamples":5},{"rt":5131,"response":{"heads":"5","tails":"5"},"type":"response","condition":"seqNoFeedback","trueTheta":0.5,"classrooms":["C","D"],"studentTrueClassroom":"C","exampleSet":"first","trial_type":"survey-html-form","trial_index":78,"time_elapsed":528802,"internal_node_id":"0.0-76.0-0.0","params":{"nStudents":24,"maxFlips":30,"completionMinutes":45,"basePay":8,"maxBonus":9,"perTrialBonus":0.5,"perTrialBonusThreshold":0.05,"exampleCost":0.01},"classroomParams":{"A":{"a":1,"b":4},"B":{"a":4,"b":1},"C":{"a":2,"b":8},"D":{"a":8,"b":2}},"conditions":["nonSeqFull","nonSeqPartial","seqNoFeedback","seqFeedback"],"classroomPairings":[["A","B"],["C","D"]],"coinWeights":[0.2,0.5,0.8],"subjectId":"A27MJOV91GA8R3","assignmentId":"3Z4XG4ZF49D1T6SPWV64RLI3H838XN","hitId":"32TZXEA1OL6QYKM0MXQIQH2ABHN14I","url":"https://gershmanlab.com/experiments/alicia/teaching/experiment/?hitId=32TZXEA1OL6QYKM0MXQIQH2ABHN14I&workerId=A27MJOV91GA8R3&assignmentId=3Z4XG4ZF49D1T6SPWV64RLI3H838XN&a=FG4Z9&tp_a=FG4Z9&b=3Z4XG4ZF49D1T6SPWV64RLI3H838XN&tp_b=3Z4XG4ZF49D1T6SPWV64RLI3H838XN&c=365799&tp_c=365799","heads":5,"tails":5,"studentIndex":9,"studentTrueHypers":{"a":2,"b":8},"studentGuess":0.35,"delta":0.15000000000000002,"totalExamples":10,"bonusSoFar":1.65},{"rt":3427,"response":{"heads":"5","tails":"5"},"type":"response","condition":"seqNoFeedback","trueTheta":0.5,"classrooms":["C","D"],"studentTrueClassroom":"C","exampleSet":"second","trial_type":"survey-html-form","trial_index":81,"time_elapsed":538991,"internal_node_id":"0.0-79.0-0.0","params":{"nStudents":24,"maxFlips":30,"completionMinutes":45,"basePay":8,"maxBonus":9,"perTrialBonus":0.5,"perTrialBonusThreshold":0.05,"exampleCost":0.01},"classroomParams":{"A":{"a":1,"b":4},"B":{"a":4,"b":1},"C":{"a":2,"b":8},"D":{"a":8,"b":2}},"conditions":["nonSeqFull","nonSeqPartial","seqNoFeedback","seqFeedback"],"classroomPairings":[["A","B"],["C","D"]],"coinWeights":[0.2,0.5,0.8],"subjectId":"A27MJOV91GA8R3","assignmentId":"3Z4XG4ZF49D1T6SPWV64RLI3H838XN","hitId":"32TZXEA1OL6QYKM0MXQIQH2ABHN14I","url":"https://gershmanlab.com/experiments/alicia/teaching/experiment/?hitId=32TZXEA1OL6QYKM0MXQIQH2ABHN14I&workerId=A27MJOV91GA8R3&assignmentId=3Z4XG4ZF49D1T6SPWV64RLI3H838XN&a=FG4Z9&tp_a=FG4Z9&b=3Z4XG4ZF49D1T6SPWV64RLI3H838XN&tp_b=3Z4XG4ZF49D1T6SPWV64RLI3H838XN&c=365799&tp_c=365799","firstResponseHeads":5,"firstResponseTails":5,"secondResponseHeads":5,"secondResponseTails":5,"totalHeads":10,"totalTails":10,"studentIndex":9,"studentTrueHypers":{"a":2,"b":8},"studentGuess":0.4,"delta":0.09999999999999998,"bonus":0,"bonusSoFar":1.65,"totalExamples":20},{"rt":5180,"response":{"heads":"4","tails":"1"},"type":"response","condition":"nonSeqPartial","trueTheta":0.8,"classrooms":["A","B"],"studentTrueClassroom":"B","exampleSet":"first","trial_type":"survey-html-form","trial_index":87,"time_elapsed":557610,"internal_node_id":"0.0-85.0-0.0","params":{"nStudents":24,"maxFlips":30,"completionMinutes":45,"basePay":8,"maxBonus":9,"perTrialBonus":0.5,"perTrialBonusThreshold":0.05,"exampleCost":0.01},"classroomParams":{"A":{"a":1,"b":4},"B":{"a":4,"b":1},"C":{"a":2,"b":8},"D":{"a":8,"b":2}},"conditions":["nonSeqFull","nonSeqPartial","seqNoFeedback","seqFeedback"],"classroomPairings":[["A","B"],["C","D"]],"coinWeights":[0.2,0.5,0.8],"subjectId":"A27MJOV91GA8R3","assignmentId":"3Z4XG4ZF49D1T6SPWV64RLI3H838XN","hitId":"32TZXEA1OL6QYKM0MXQIQH2ABHN14I","url":"https://gershmanlab.com/experiments/alicia/teaching/experiment/?hitId=32TZXEA1OL6QYKM0MXQIQH2ABHN14I&workerId=A27MJOV91GA8R3&assignmentId=3Z4XG4ZF49D1T6SPWV64RLI3H838XN&a=FG4Z9&tp_a=FG4Z9&b=3Z4XG4ZF49D1T6SPWV64RLI3H838XN&tp_b=3Z4XG4ZF49D1T6SPWV64RLI3H838XN&c=365799&tp_c=365799","heads":4,"tails":1,"studentIndex":10,"studentTrueHypers":{"a":4,"b":1},"studentGuess":0.8,"delta":0,"totalExamples":5,"bonus":0.45,"bonusSoFar":2.1},{"rt":13926,"response":{"heads":"8","tails":"2"},"type":"response","condition":"nonSeqFull","trueTheta":0.8,"classrooms":["A","B"],"studentTrueClassroom":"A","exampleSet":"first","trial_type":"survey-html-form","trial_index":93,"time_elapsed":585237,"internal_node_id":"0.0-91.0-0.0","params":{"nStudents":24,"maxFlips":30,"completionMinutes":45,"basePay":8,"maxBonus":9,"perTrialBonus":0.5,"perTrialBonusThreshold":0.05,"exampleCost":0.01},"classroomParams":{"A":{"a":1,"b":4},"B":{"a":4,"b":1},"C":{"a":2,"b":8},"D":{"a":8,"b":2}},"conditions":["nonSeqFull","nonSeqPartial","seqNoFeedback","seqFeedback"],"classroomPairings":[["A","B"],["C","D"]],"coinWeights":[0.2,0.5,0.8],"subjectId":"A27MJOV91GA8R3","assignmentId":"3Z4XG4ZF49D1T6SPWV64RLI3H838XN","hitId":"32TZXEA1OL6QYKM0MXQIQH2ABHN14I","url":"https://gershmanlab.com/experiments/alicia/teaching/experiment/?hitId=32TZXEA1OL6QYKM0MXQIQH2ABHN14I&workerId=A27MJOV91GA8R3&assignmentId=3Z4XG4ZF49D1T6SPWV64RLI3H838XN&a=FG4Z9&tp_a=FG4Z9&b=3Z4XG4ZF49D1T6SPWV64RLI3H838XN&tp_b=3Z4XG4ZF49D1T6SPWV64RLI3H838XN&c=365799&tp_c=365799","heads":8,"tails":2,"studentIndex":11,"studentTrueHypers":{"a":1,"b":4},"studentGuess":0.6,"delta":0.20000000000000007,"totalExamples":10,"bonus":0,"bonusSoFar":2.1},{"rt":11235,"response":{"heads":"1","tails":"0"},"type":"response","condition":"nonSeqFull","trueTheta":0.8,"classrooms":["C","D"],"studentTrueClassroom":"D","exampleSet":"first","trial_type":"survey-html-form","trial_index":99,"time_elapsed":612437,"internal_node_id":"0.0-97.0-0.0","params":{"nStudents":24,"maxFlips":30,"completionMinutes":45,"basePay":8,"maxBonus":9,"perTrialBonus":0.5,"perTrialBonusThreshold":0.05,"exampleCost":0.01},"classroomParams":{"A":{"a":1,"b":4},"B":{"a":4,"b":1},"C":{"a":2,"b":8},"D":{"a":8,"b":2}},"conditions":["nonSeqFull","nonSeqPartial","seqNoFeedback","seqFeedback"],"classroomPairings":[["A","B"],["C","D"]],"coinWeights":[0.2,0.5,0.8],"subjectId":"A27MJOV91GA8R3","assignmentId":"3Z4XG4ZF49D1T6SPWV64RLI3H838XN","hitId":"32TZXEA1OL6QYKM0MXQIQH2ABHN14I","url":"https://gershmanlab.com/experiments/alicia/teaching/experiment/?hitId=32TZXEA1OL6QYKM0MXQIQH2ABHN14I&workerId=A27MJOV91GA8R3&assignmentId=3Z4XG4ZF49D1T6SPWV64RLI3H838XN&a=FG4Z9&tp_a=FG4Z9&b=3Z4XG4ZF49D1T6SPWV64RLI3H838XN&tp_b=3Z4XG4ZF49D1T6SPWV64RLI3H838XN&c=365799&tp_c=365799","heads":1,"tails":0,"studentIndex":12,"studentTrueHypers":{"a":8,"b":2},"studentGuess":0.8181818181818182,"delta":0.018181818181818188,"totalExamples":1,"bonus":0.49,"bonusSoFar":2.59},{"rt":6425,"response":{"heads":"10","tails":"10"},"type":"response","condition":"seqFeedback","trueTheta":0.5,"classrooms":["C","D"],"studentTrueClassroom":"C","exampleSet":"first","trial_type":"survey-html-form","trial_index":105,"time_elapsed":635750,"internal_node_id":"0.0-103.0-0.0","params":{"nStudents":24,"maxFlips":30,"completionMinutes":45,"basePay":8,"maxBonus":9,"perTrialBonus":0.5,"perTrialBonusThreshold":0.05,"exampleCost":0.01},"classroomParams":{"A":{"a":1,"b":4},"B":{"a":4,"b":1},"C":{"a":2,"b":8},"D":{"a":8,"b":2}},"conditions":["nonSeqFull","nonSeqPartial","seqNoFeedback","seqFeedback"],"classroomPairings":[["A","B"],["C","D"]],"coinWeights":[0.2,0.5,0.8],"subjectId":"A27MJOV91GA8R3","assignmentId":"3Z4XG4ZF49D1T6SPWV64RLI3H838XN","hitId":"32TZXEA1OL6QYKM0MXQIQH2ABHN14I","url":"https://gershmanlab.com/experiments/alicia/teaching/experiment/?hitId=32TZXEA1OL6QYKM0MXQIQH2ABHN14I&workerId=A27MJOV91GA8R3&assignmentId=3Z4XG4ZF49D1T6SPWV64RLI3H838XN&a=FG4Z9&tp_a=FG4Z9&b=3Z4XG4ZF49D1T6SPWV64RLI3H838XN&tp_b=3Z4XG4ZF49D1T6SPWV64RLI3H838XN&c=365799&tp_c=365799","heads":10,"tails":10,"studentIndex":13,"studentTrueHypers":{"a":2,"b":8},"studentGuess":0.4,"delta":0.09999999999999998,"totalExamples":20,"bonusSoFar":2.59},{"rt":15692,"response":{"heads":"6","tails":"4"},"type":"response","condition":"seqFeedback","trueTheta":0.5,"classrooms":["C","D"],"studentTrueClassroom":"C","exampleSet":"second","trial_type":"survey-html-form","trial_index":109,"time_elapsed":664417,"internal_node_id":"0.0-107.0-0.0","params":{"nStudents":24,"maxFlips":30,"completionMinutes":45,"basePay":8,"maxBonus":9,"perTrialBonus":0.5,"perTrialBonusThreshold":0.05,"exampleCost":0.01},"classroomParams":{"A":{"a":1,"b":4},"B":{"a":4,"b":1},"C":{"a":2,"b":8},"D":{"a":8,"b":2}},"conditions":["nonSeqFull","nonSeqPartial","seqNoFeedback","seqFeedback"],"classroomPairings":[["A","B"],["C","D"]],"coinWeights":[0.2,0.5,0.8],"subjectId":"A27MJOV91GA8R3","assignmentId":"3Z4XG4ZF49D1T6SPWV64RLI3H838XN","hitId":"32TZXEA1OL6QYKM0MXQIQH2ABHN14I","url":"https://gershmanlab.com/experiments/alicia/teaching/experiment/?hitId=32TZXEA1OL6QYKM0MXQIQH2ABHN14I&workerId=A27MJOV91GA8R3&assignmentId=3Z4XG4ZF49D1T6SPWV64RLI3H838XN&a=FG4Z9&tp_a=FG4Z9&b=3Z4XG4ZF49D1T6SPWV64RLI3H838XN&tp_b=3Z4XG4ZF49D1T6SPWV64RLI3H838XN&c=365799&tp_c=365799","firstResponseHeads":10,"firstResponseTails":10,"secondResponseHeads":6,"secondResponseTails":4,"totalHeads":16,"totalTails":14,"studentIndex":13,"studentTrueHypers":{"a":2,"b":8},"studentGuess":0.45,"delta":0.04999999999999999,"bonus":0.2,"bonusSoFar":2.79,"totalExamples":30},{"rt":6217,"response":{"heads":"1","tails":"1"},"type":"response","condition":"nonSeqPartial","trueTheta":0.5,"classrooms":["C","D"],"studentTrueClassroom":"C","exampleSet":"first","trial_type":"survey-html-form","trial_index":115,"time_elapsed":683069,"internal_node_id":"0.0-113.0-0.0","params":{"nStudents":24,"maxFlips":30,"completionMinutes":45,"basePay":8,"maxBonus":9,"perTrialBonus":0.5,"perTrialBonusThreshold":0.05,"exampleCost":0.01},"classroomParams":{"A":{"a":1,"b":4},"B":{"a":4,"b":1},"C":{"a":2,"b":8},"D":{"a":8,"b":2}},"conditions":["nonSeqFull","nonSeqPartial","seqNoFeedback","seqFeedback"],"classroomPairings":[["A","B"],["C","D"]],"coinWeights":[0.2,0.5,0.8],"subjectId":"A27MJOV91GA8R3","assignmentId":"3Z4XG4ZF49D1T6SPWV64RLI3H838XN","hitId":"32TZXEA1OL6QYKM0MXQIQH2ABHN14I","url":"https://gershmanlab.com/experiments/alicia/teaching/experiment/?hitId=32TZXEA1OL6QYKM0MXQIQH2ABHN14I&workerId=A27MJOV91GA8R3&assignmentId=3Z4XG4ZF49D1T6SPWV64RLI3H838XN&a=FG4Z9&tp_a=FG4Z9&b=3Z4XG4ZF49D1T6SPWV64RLI3H838XN&tp_b=3Z4XG4ZF49D1T6SPWV64RLI3H838XN&c=365799&tp_c=365799","heads":1,"tails":1,"studentIndex":14,"studentTrueHypers":{"a":2,"b":8},"studentGuess":0.25,"delta":0.25,"totalExamples":2,"bonus":0,"bonusSoFar":2.79},{"rt":7960,"response":{"heads":"8","tails":"2"},"type":"response","condition":"nonSeqFull","trueTheta":0.5,"classrooms":["C","D"],"studentTrueClassroom":"C","exampleSet":"first","trial_type":"survey-html-form","trial_index":121,"time_elapsed":706398,"internal_node_id":"0.0-119.0-0.0","params":{"nStudents":24,"maxFlips":30,"completionMinutes":45,"basePay":8,"maxBonus":9,"perTrialBonus":0.5,"perTrialBonusThreshold":0.05,"exampleCost":0.01},"classroomParams":{"A":{"a":1,"b":4},"B":{"a":4,"b":1},"C":{"a":2,"b":8},"D":{"a":8,"b":2}},"conditions":["nonSeqFull","nonSeqPartial","seqNoFeedback","seqFeedback"],"classroomPairings":[["A","B"],["C","D"]],"coinWeights":[0.2,0.5,0.8],"subjectId":"A27MJOV91GA8R3","assignmentId":"3Z4XG4ZF49D1T6SPWV64RLI3H838XN","hitId":"32TZXEA1OL6QYKM0MXQIQH2ABHN14I","url":"https://gershmanlab.com/experiments/alicia/teaching/experiment/?hitId=32TZXEA1OL6QYKM0MXQIQH2ABHN14I&workerId=A27MJOV91GA8R3&assignmentId=3Z4XG4ZF49D1T6SPWV64RLI3H838XN&a=FG4Z9&tp_a=FG4Z9&b=3Z4XG4ZF49D1T6SPWV64RLI3H838XN&tp_b=3Z4XG4ZF49D1T6SPWV64RLI3H838XN&c=365799&tp_c=365799","heads":8,"tails":2,"studentIndex":15,"studentTrueHypers":{"a":2,"b":8},"studentGuess":0.5,"delta":0,"totalExamples":10,"bonus":0.4,"bonusSoFar":3.19},{"rt":5825,"response":{"heads":"2","tails":"8"},"type":"response","condition":"seqFeedback","trueTheta":0.2,"classrooms":["C","D"],"studentTrueClassroom":"C","exampleSet":"first","trial_type":"survey-html-form","trial_index":127,"time_elapsed":728493,"internal_node_id":"0.0-125.0-0.0","params":{"nStudents":24,"maxFlips":30,"completionMinutes":45,"basePay":8,"maxBonus":9,"perTrialBonus":0.5,"perTrialBonusThreshold":0.05,"exampleCost":0.01},"classroomParams":{"A":{"a":1,"b":4},"B":{"a":4,"b":1},"C":{"a":2,"b":8},"D":{"a":8,"b":2}},"conditions":["nonSeqFull","nonSeqPartial","seqNoFeedback","seqFeedback"],"classroomPairings":[["A","B"],["C","D"]],"coinWeights":[0.2,0.5,0.8],"subjectId":"A27MJOV91GA8R3","assignmentId":"3Z4XG4ZF49D1T6SPWV64RLI3H838XN","hitId":"32TZXEA1OL6QYKM0MXQIQH2ABHN14I","url":"https://gershmanlab.com/experiments/alicia/teaching/experiment/?hitId=32TZXEA1OL6QYKM0MXQIQH2ABHN14I&workerId=A27MJOV91GA8R3&assignmentId=3Z4XG4ZF49D1T6SPWV64RLI3H838XN&a=FG4Z9&tp_a=FG4Z9&b=3Z4XG4ZF49D1T6SPWV64RLI3H838XN&tp_b=3Z4XG4ZF49D1T6SPWV64RLI3H838XN&c=365799&tp_c=365799","heads":2,"tails":8,"studentIndex":16,"studentTrueHypers":{"a":2,"b":8},"studentGuess":0.2,"delta":0,"totalExamples":10,"bonusSoFar":3.19},{"rt":7488,"response":{"heads":"1","tails":"4"},"type":"response","condition":"seqFeedback","trueTheta":0.2,"classrooms":["C","D"],"studentTrueClassroom":"C","exampleSet":"second","trial_type":"survey-html-form","trial_index":131,"time_elapsed":744101,"internal_node_id":"0.0-129.0-0.0","params":{"nStudents":24,"maxFlips":30,"completionMinutes":45,"basePay":8,"maxBonus":9,"perTrialBonus":0.5,"perTrialBonusThreshold":0.05,"exampleCost":0.01},"classroomParams":{"A":{"a":1,"b":4},"B":{"a":4,"b":1},"C":{"a":2,"b":8},"D":{"a":8,"b":2}},"conditions":["nonSeqFull","nonSeqPartial","seqNoFeedback","seqFeedback"],"classroomPairings":[["A","B"],["C","D"]],"coinWeights":[0.2,0.5,0.8],"subjectId":"A27MJOV91GA8R3","assignmentId":"3Z4XG4ZF49D1T6SPWV64RLI3H838XN","hitId":"32TZXEA1OL6QYKM0MXQIQH2ABHN14I","url":"https://gershmanlab.com/experiments/alicia/teaching/experiment/?hitId=32TZXEA1OL6QYKM0MXQIQH2ABHN14I&workerId=A27MJOV91GA8R3&assignmentId=3Z4XG4ZF49D1T6SPWV64RLI3H838XN&a=FG4Z9&tp_a=FG4Z9&b=3Z4XG4ZF49D1T6SPWV64RLI3H838XN&tp_b=3Z4XG4ZF49D1T6SPWV64RLI3H838XN&c=365799&tp_c=365799","firstResponseHeads":2,"firstResponseTails":8,"secondResponseHeads":1,"secondResponseTails":4,"totalHeads":3,"totalTails":12,"studentIndex":16,"studentTrueHypers":{"a":2,"b":8},"studentGuess":0.2,"delta":0,"bonus":0.35,"bonusSoFar":3.54,"totalExamples":15},{"rt":5073,"response":{"heads":"1","tails":"4"},"type":"response","condition":"seqNoFeedback","trueTheta":0.2,"classrooms":["A","B"],"studentTrueClassroom":"B","exampleSet":"first","trial_type":"survey-html-form","trial_index":137,"time_elapsed":760114,"internal_node_id":"0.0-135.0-0.0","params":{"nStudents":24,"maxFlips":30,"completionMinutes":45,"basePay":8,"maxBonus":9,"perTrialBonus":0.5,"perTrialBonusThreshold":0.05,"exampleCost":0.01},"classroomParams":{"A":{"a":1,"b":4},"B":{"a":4,"b":1},"C":{"a":2,"b":8},"D":{"a":8,"b":2}},"conditions":["nonSeqFull","nonSeqPartial","seqNoFeedback","seqFeedback"],"classroomPairings":[["A","B"],["C","D"]],"coinWeights":[0.2,0.5,0.8],"subjectId":"A27MJOV91GA8R3","assignmentId":"3Z4XG4ZF49D1T6SPWV64RLI3H838XN","hitId":"32TZXEA1OL6QYKM0MXQIQH2ABHN14I","url":"https://gershmanlab.com/experiments/alicia/teaching/experiment/?hitId=32TZXEA1OL6QYKM0MXQIQH2ABHN14I&workerId=A27MJOV91GA8R3&assignmentId=3Z4XG4ZF49D1T6SPWV64RLI3H838XN&a=FG4Z9&tp_a=FG4Z9&b=3Z4XG4ZF49D1T6SPWV64RLI3H838XN&tp_b=3Z4XG4ZF49D1T6SPWV64RLI3H838XN&c=365799&tp_c=365799","heads":1,"tails":4,"studentIndex":17,"studentTrueHypers":{"a":4,"b":1},"studentGuess":0.5,"delta":0.3,"totalExamples":5,"bonusSoFar":3.54},{"rt":4584,"response":{"heads":"2","tails":"8"},"type":"response","condition":"seqNoFeedback","trueTheta":0.2,"classrooms":["A","B"],"studentTrueClassroom":"B","exampleSet":"second","trial_type":"survey-html-form","trial_index":140,"time_elapsed":770209,"internal_node_id":"0.0-138.0-0.0","params":{"nStudents":24,"maxFlips":30,"completionMinutes":45,"basePay":8,"maxBonus":9,"perTrialBonus":0.5,"perTrialBonusThreshold":0.05,"exampleCost":0.01},"classroomParams":{"A":{"a":1,"b":4},"B":{"a":4,"b":1},"C":{"a":2,"b":8},"D":{"a":8,"b":2}},"conditions":["nonSeqFull","nonSeqPartial","seqNoFeedback","seqFeedback"],"classroomPairings":[["A","B"],["C","D"]],"coinWeights":[0.2,0.5,0.8],"subjectId":"A27MJOV91GA8R3","assignmentId":"3Z4XG4ZF49D1T6SPWV64RLI3H838XN","hitId":"32TZXEA1OL6QYKM0MXQIQH2ABHN14I","url":"https://gershmanlab.com/experiments/alicia/teaching/experiment/?hitId=32TZXEA1OL6QYKM0MXQIQH2ABHN14I&workerId=A27MJOV91GA8R3&assignmentId=3Z4XG4ZF49D1T6SPWV64RLI3H838XN&a=FG4Z9&tp_a=FG4Z9&b=3Z4XG4ZF49D1T6SPWV64RLI3H838XN&tp_b=3Z4XG4ZF49D1T6SPWV64RLI3H838XN&c=365799&tp_c=365799","firstResponseHeads":1,"firstResponseTails":4,"secondResponseHeads":2,"secondResponseTails":8,"totalHeads":3,"totalTails":12,"studentIndex":17,"studentTrueHypers":{"a":4,"b":1},"studentGuess":0.35,"delta":0.14999999999999997,"bonus":0,"bonusSoFar":3.54,"totalExamples":15},{"rt":4600,"response":{"heads":"1","tails":"4"},"type":"response","condition":"seqFeedback","trueTheta":0.2,"classrooms":["A","B"],"studentTrueClassroom":"A","exampleSet":"first","trial_type":"survey-html-form","trial_index":146,"time_elapsed":791477,"internal_node_id":"0.0-144.0-0.0","params":{"nStudents":24,"maxFlips":30,"completionMinutes":45,"basePay":8,"maxBonus":9,"perTrialBonus":0.5,"perTrialBonusThreshold":0.05,"exampleCost":0.01},"classroomParams":{"A":{"a":1,"b":4},"B":{"a":4,"b":1},"C":{"a":2,"b":8},"D":{"a":8,"b":2}},"conditions":["nonSeqFull","nonSeqPartial","seqNoFeedback","seqFeedback"],"classroomPairings":[["A","B"],["C","D"]],"coinWeights":[0.2,0.5,0.8],"subjectId":"A27MJOV91GA8R3","assignmentId":"3Z4XG4ZF49D1T6SPWV64RLI3H838XN","hitId":"32TZXEA1OL6QYKM0MXQIQH2ABHN14I","url":"https://gershmanlab.com/experiments/alicia/teaching/experiment/?hitId=32TZXEA1OL6QYKM0MXQIQH2ABHN14I&workerId=A27MJOV91GA8R3&assignmentId=3Z4XG4ZF49D1T6SPWV64RLI3H838XN&a=FG4Z9&tp_a=FG4Z9&b=3Z4XG4ZF49D1T6SPWV64RLI3H838XN&tp_b=3Z4XG4ZF49D1T6SPWV64RLI3H838XN&c=365799&tp_c=365799","heads":1,"tails":4,"studentIndex":18,"studentTrueHypers":{"a":1,"b":4},"studentGuess":0.2,"delta":0,"totalExamples":5,"bonusSoFar":3.54},{"rt":6959,"response":{"heads":"1","tails":"4"},"type":"response","condition":"seqFeedback","trueTheta":0.2,"classrooms":["A","B"],"studentTrueClassroom":"A","exampleSet":"second","trial_type":"survey-html-form","trial_index":150,"time_elapsed":807051,"internal_node_id":"0.0-148.0-0.0","params":{"nStudents":24,"maxFlips":30,"completionMinutes":45,"basePay":8,"maxBonus":9,"perTrialBonus":0.5,"perTrialBonusThreshold":0.05,"exampleCost":0.01},"classroomParams":{"A":{"a":1,"b":4},"B":{"a":4,"b":1},"C":{"a":2,"b":8},"D":{"a":8,"b":2}},"conditions":["nonSeqFull","nonSeqPartial","seqNoFeedback","seqFeedback"],"classroomPairings":[["A","B"],["C","D"]],"coinWeights":[0.2,0.5,0.8],"subjectId":"A27MJOV91GA8R3","assignmentId":"3Z4XG4ZF49D1T6SPWV64RLI3H838XN","hitId":"32TZXEA1OL6QYKM0MXQIQH2ABHN14I","url":"https://gershmanlab.com/experiments/alicia/teaching/experiment/?hitId=32TZXEA1OL6QYKM0MXQIQH2ABHN14I&workerId=A27MJOV91GA8R3&assignmentId=3Z4XG4ZF49D1T6SPWV64RLI3H838XN&a=FG4Z9&tp_a=FG4Z9&b=3Z4XG4ZF49D1T6SPWV64RLI3H838XN&tp_b=3Z4XG4ZF49D1T6SPWV64RLI3H838XN&c=365799&tp_c=365799","firstResponseHeads":1,"firstResponseTails":4,"secondResponseHeads":1,"secondResponseTails":4,"totalHeads":2,"totalTails":8,"studentIndex":18,"studentTrueHypers":{"a":1,"b":4},"studentGuess":0.2,"delta":0,"bonus":0.4,"bonusSoFar":3.94,"totalExamples":10},{"rt":9635,"response":{"heads":"1","tails":"4"},"type":"response","condition":"nonSeqFull","trueTheta":0.5,"classrooms":["A","B"],"studentTrueClassroom":"B","exampleSet":"first","trial_type":"survey-html-form","trial_index":156,"time_elapsed":828763,"internal_node_id":"0.0-154.0-0.0","params":{"nStudents":24,"maxFlips":30,"completionMinutes":45,"basePay":8,"maxBonus":9,"perTrialBonus":0.5,"perTrialBonusThreshold":0.05,"exampleCost":0.01},"classroomParams":{"A":{"a":1,"b":4},"B":{"a":4,"b":1},"C":{"a":2,"b":8},"D":{"a":8,"b":2}},"conditions":["nonSeqFull","nonSeqPartial","seqNoFeedback","seqFeedback"],"classroomPairings":[["A","B"],["C","D"]],"coinWeights":[0.2,0.5,0.8],"subjectId":"A27MJOV91GA8R3","assignmentId":"3Z4XG4ZF49D1T6SPWV64RLI3H838XN","hitId":"32TZXEA1OL6QYKM0MXQIQH2ABHN14I","url":"https://gershmanlab.com/experiments/alicia/teaching/experiment/?hitId=32TZXEA1OL6QYKM0MXQIQH2ABHN14I&workerId=A27MJOV91GA8R3&assignmentId=3Z4XG4ZF49D1T6SPWV64RLI3H838XN&a=FG4Z9&tp_a=FG4Z9&b=3Z4XG4ZF49D1T6SPWV64RLI3H838XN&tp_b=3Z4XG4ZF49D1T6SPWV64RLI3H838XN&c=365799&tp_c=365799","heads":1,"tails":4,"studentIndex":19,"studentTrueHypers":{"a":4,"b":1},"studentGuess":0.5,"delta":0,"totalExamples":5,"bonus":0.45,"bonusSoFar":4.39},{"rt":6255,"response":{"heads":"1","tails":"4"},"type":"response","condition":"nonSeqFull","trueTheta":0.2,"classrooms":["C","D"],"studentTrueClassroom":"C","exampleSet":"first","trial_type":"survey-html-form","trial_index":162,"time_elapsed":848999,"internal_node_id":"0.0-160.0-0.0","params":{"nStudents":24,"maxFlips":30,"completionMinutes":45,"basePay":8,"maxBonus":9,"perTrialBonus":0.5,"perTrialBonusThreshold":0.05,"exampleCost":0.01},"classroomParams":{"A":{"a":1,"b":4},"B":{"a":4,"b":1},"C":{"a":2,"b":8},"D":{"a":8,"b":2}},"conditions":["nonSeqFull","nonSeqPartial","seqNoFeedback","seqFeedback"],"classroomPairings":[["A","B"],["C","D"]],"coinWeights":[0.2,0.5,0.8],"subjectId":"A27MJOV91GA8R3","assignmentId":"3Z4XG4ZF49D1T6SPWV64RLI3H838XN","hitId":"32TZXEA1OL6QYKM0MXQIQH2ABHN14I","url":"https://gershmanlab.com/experiments/alicia/teaching/experiment/?hitId=32TZXEA1OL6QYKM0MXQIQH2ABHN14I&workerId=A27MJOV91GA8R3&assignmentId=3Z4XG4ZF49D1T6SPWV64RLI3H838XN&a=FG4Z9&tp_a=FG4Z9&b=3Z4XG4ZF49D1T6SPWV64RLI3H838XN&tp_b=3Z4XG4ZF49D1T6SPWV64RLI3H838XN&c=365799&tp_c=365799","heads":1,"tails":4,"studentIndex":20,"studentTrueHypers":{"a":2,"b":8},"studentGuess":0.2,"delta":0,"totalExamples":5,"bonus":0.45,"bonusSoFar":4.84},{"rt":8905,"response":{"heads":"1","tails":"1"},"type":"response","condition":"seqFeedback","trueTheta":0.5,"classrooms":["A","B"],"studentTrueClassroom":"B","exampleSet":"first","trial_type":"survey-html-form","trial_index":168,"time_elapsed":869918,"internal_node_id":"0.0-166.0-0.0","params":{"nStudents":24,"maxFlips":30,"completionMinutes":45,"basePay":8,"maxBonus":9,"perTrialBonus":0.5,"perTrialBonusThreshold":0.05,"exampleCost":0.01},"classroomParams":{"A":{"a":1,"b":4},"B":{"a":4,"b":1},"C":{"a":2,"b":8},"D":{"a":8,"b":2}},"conditions":["nonSeqFull","nonSeqPartial","seqNoFeedback","seqFeedback"],"classroomPairings":[["A","B"],["C","D"]],"coinWeights":[0.2,0.5,0.8],"subjectId":"A27MJOV91GA8R3","assignmentId":"3Z4XG4ZF49D1T6SPWV64RLI3H838XN","hitId":"32TZXEA1OL6QYKM0MXQIQH2ABHN14I","url":"https://gershmanlab.com/experiments/alicia/teaching/experiment/?hitId=32TZXEA1OL6QYKM0MXQIQH2ABHN14I&workerId=A27MJOV91GA8R3&assignmentId=3Z4XG4ZF49D1T6SPWV64RLI3H838XN&a=FG4Z9&tp_a=FG4Z9&b=3Z4XG4ZF49D1T6SPWV64RLI3H838XN&tp_b=3Z4XG4ZF49D1T6SPWV64RLI3H838XN&c=365799&tp_c=365799","heads":1,"tails":1,"studentIndex":21,"studentTrueHypers":{"a":4,"b":1},"studentGuess":0.7142857142857143,"delta":0.2142857142857143,"totalExamples":2,"bonusSoFar":4.84},{"rt":9891,"response":{"heads":"1","tails":"3"},"type":"response","condition":"seqFeedback","trueTheta":0.5,"classrooms":["A","B"],"studentTrueClassroom":"B","exampleSet":"second","trial_type":"survey-html-form","trial_index":172,"time_elapsed":888588,"internal_node_id":"0.0-170.0-0.0","params":{"nStudents":24,"maxFlips":30,"completionMinutes":45,"basePay":8,"maxBonus":9,"perTrialBonus":0.5,"perTrialBonusThreshold":0.05,"exampleCost":0.01},"classroomParams":{"A":{"a":1,"b":4},"B":{"a":4,"b":1},"C":{"a":2,"b":8},"D":{"a":8,"b":2}},"conditions":["nonSeqFull","nonSeqPartial","seqNoFeedback","seqFeedback"],"classroomPairings":[["A","B"],["C","D"]],"coinWeights":[0.2,0.5,0.8],"subjectId":"A27MJOV91GA8R3","assignmentId":"3Z4XG4ZF49D1T6SPWV64RLI3H838XN","hitId":"32TZXEA1OL6QYKM0MXQIQH2ABHN14I","url":"https://gershmanlab.com/experiments/alicia/teaching/experiment/?hitId=32TZXEA1OL6QYKM0MXQIQH2ABHN14I&workerId=A27MJOV91GA8R3&assignmentId=3Z4XG4ZF49D1T6SPWV64RLI3H838XN&a=FG4Z9&tp_a=FG4Z9&b=3Z4XG4ZF49D1T6SPWV64RLI3H838XN&tp_b=3Z4XG4ZF49D1T6SPWV64RLI3H838XN&c=365799&tp_c=365799","firstResponseHeads":1,"firstResponseTails":1,"secondResponseHeads":1,"secondResponseTails":3,"totalHeads":2,"totalTails":4,"studentIndex":21,"studentTrueHypers":{"a":4,"b":1},"studentGuess":0.5454545454545454,"delta":0.045454545454545414,"bonus":0.44,"bonusSoFar":5.28,"totalExamples":6},{"rt":4803,"response":{"heads":"4","tails":"1"},"type":"response","condition":"seqFeedback","trueTheta":0.8,"classrooms":["C","D"],"studentTrueClassroom":"D","exampleSet":"first","trial_type":"survey-html-form","trial_index":178,"time_elapsed":912963,"internal_node_id":"0.0-176.0-0.0","params":{"nStudents":24,"maxFlips":30,"completionMinutes":45,"basePay":8,"maxBonus":9,"perTrialBonus":0.5,"perTrialBonusThreshold":0.05,"exampleCost":0.01},"classroomParams":{"A":{"a":1,"b":4},"B":{"a":4,"b":1},"C":{"a":2,"b":8},"D":{"a":8,"b":2}},"conditions":["nonSeqFull","nonSeqPartial","seqNoFeedback","seqFeedback"],"classroomPairings":[["A","B"],["C","D"]],"coinWeights":[0.2,0.5,0.8],"subjectId":"A27MJOV91GA8R3","assignmentId":"3Z4XG4ZF49D1T6SPWV64RLI3H838XN","hitId":"32TZXEA1OL6QYKM0MXQIQH2ABHN14I","url":"https://gershmanlab.com/experiments/alicia/teaching/experiment/?hitId=32TZXEA1OL6QYKM0MXQIQH2ABHN14I&workerId=A27MJOV91GA8R3&assignmentId=3Z4XG4ZF49D1T6SPWV64RLI3H838XN&a=FG4Z9&tp_a=FG4Z9&b=3Z4XG4ZF49D1T6SPWV64RLI3H838XN&tp_b=3Z4XG4ZF49D1T6SPWV64RLI3H838XN&c=365799&tp_c=365799","heads":4,"tails":1,"studentIndex":22,"studentTrueHypers":{"a":8,"b":2},"studentGuess":0.8,"delta":0,"totalExamples":5,"bonusSoFar":5.28},{"rt":5812,"response":{"heads":"2","tails":"0"},"type":"response","condition":"seqFeedback","trueTheta":0.8,"classrooms":["C","D"],"studentTrueClassroom":"D","exampleSet":"second","trial_type":"survey-html-form","trial_index":182,"time_elapsed":928961,"internal_node_id":"0.0-180.0-0.0","params":{"nStudents":24,"maxFlips":30,"completionMinutes":45,"basePay":8,"maxBonus":9,"perTrialBonus":0.5,"perTrialBonusThreshold":0.05,"exampleCost":0.01},"classroomParams":{"A":{"a":1,"b":4},"B":{"a":4,"b":1},"C":{"a":2,"b":8},"D":{"a":8,"b":2}},"conditions":["nonSeqFull","nonSeqPartial","seqNoFeedback","seqFeedback"],"classroomPairings":[["A","B"],["C","D"]],"coinWeights":[0.2,0.5,0.8],"subjectId":"A27MJOV91GA8R3","assignmentId":"3Z4XG4ZF49D1T6SPWV64RLI3H838XN","hitId":"32TZXEA1OL6QYKM0MXQIQH2ABHN14I","url":"https://gershmanlab.com/experiments/alicia/teaching/experiment/?hitId=32TZXEA1OL6QYKM0MXQIQH2ABHN14I&workerId=A27MJOV91GA8R3&assignmentId=3Z4XG4ZF49D1T6SPWV64RLI3H838XN&a=FG4Z9&tp_a=FG4Z9&b=3Z4XG4ZF49D1T6SPWV64RLI3H838XN&tp_b=3Z4XG4ZF49D1T6SPWV64RLI3H838XN&c=365799&tp_c=365799","firstResponseHeads":4,"firstResponseTails":1,"secondResponseHeads":2,"secondResponseTails":0,"totalHeads":6,"totalTails":1,"studentIndex":22,"studentTrueHypers":{"a":8,"b":2},"studentGuess":0.8235294117647058,"delta":0.0235294117647058,"bonus":0.43,"bonusSoFar":5.71,"totalExamples":7},{"rt":4211,"response":{"heads":"4","tails":"1"},"type":"response","condition":"nonSeqPartial","trueTheta":0.8,"classrooms":["C","D"],"studentTrueClassroom":"C","exampleSet":"first","trial_type":"survey-html-form","trial_index":188,"time_elapsed":947481,"internal_node_id":"0.0-186.0-0.0","params":{"nStudents":24,"maxFlips":30,"completionMinutes":45,"basePay":8,"maxBonus":9,"perTrialBonus":0.5,"perTrialBonusThreshold":0.05,"exampleCost":0.01},"classroomParams":{"A":{"a":1,"b":4},"B":{"a":4,"b":1},"C":{"a":2,"b":8},"D":{"a":8,"b":2}},"conditions":["nonSeqFull","nonSeqPartial","seqNoFeedback","seqFeedback"],"classroomPairings":[["A","B"],["C","D"]],"coinWeights":[0.2,0.5,0.8],"subjectId":"A27MJOV91GA8R3","assignmentId":"3Z4XG4ZF49D1T6SPWV64RLI3H838XN","hitId":"32TZXEA1OL6QYKM0MXQIQH2ABHN14I","url":"https://gershmanlab.com/experiments/alicia/teaching/experiment/?hitId=32TZXEA1OL6QYKM0MXQIQH2ABHN14I&workerId=A27MJOV91GA8R3&assignmentId=3Z4XG4ZF49D1T6SPWV64RLI3H838XN&a=FG4Z9&tp_a=FG4Z9&b=3Z4XG4ZF49D1T6SPWV64RLI3H838XN&tp_b=3Z4XG4ZF49D1T6SPWV64RLI3H838XN&c=365799&tp_c=365799","heads":4,"tails":1,"studentIndex":23,"studentTrueHypers":{"a":2,"b":8},"studentGuess":0.4,"delta":0.4,"totalExamples":5,"bonus":0,"bonusSoFar":5.71},{"rt":4811,"response":{"gender":"male","age":"35","understood":"yes","comments":""},"type":"response","trial_type":"survey-html-form","trial_index":192,"time_elapsed":963246,"internal_node_id":"0.0-191.0","params":{"nStudents":24,"maxFlips":30,"completionMinutes":45,"basePay":8,"maxBonus":9,"perTrialBonus":0.5,"perTrialBonusThreshold":0.05,"exampleCost":0.01},"classroomParams":{"A":{"a":1,"b":4},"B":{"a":4,"b":1},"C":{"a":2,"b":8},"D":{"a":8,"b":2}},"conditions":["nonSeqFull","nonSeqPartial","seqNoFeedback","seqFeedback"],"classroomPairings":[["A","B"],["C","D"]],"coinWeights":[0.2,0.5,0.8],"subjectId":"A27MJOV91GA8R3","assignmentId":"3Z4XG4ZF49D1T6SPWV64RLI3H838XN","hitId":"32TZXEA1OL6QYKM0MXQIQH2ABHN14I","url":"https://gershmanlab.com/experiments/alicia/teaching/experiment/?hitId=32TZXEA1OL6QYKM0MXQIQH2ABHN14I&workerId=A27MJOV91GA8R3&assignmentId=3Z4XG4ZF49D1T6SPWV64RLI3H838XN&a=FG4Z9&tp_a=FG4Z9&b=3Z4XG4ZF49D1T6SPWV64RLI3H838XN&tp_b=3Z4XG4ZF49D1T6SPWV64RLI3H838XN&c=365799&tp_c=365799","totalBonus":5.71}]