[{"rt":18103,"response":{"heads":"2","tails":"0"},"type":"response","condition":"nonSeqFull","trueTheta":0.8,"classrooms":["C","D"],"studentTrueClassroom":"D","exampleSet":"first","trial_type":"survey-html-form","trial_index":40,"time_elapsed":1122995,"internal_node_id":"0.0-6.0-0.0","params":{"nStudents":24,"maxFlips":30,"completionMinutes":45,"basePay":8,"maxBonus":9,"perTrialBonus":0.5,"perTrialBonusThreshold":0.05,"exampleCost":0.01},"classroomParams":{"A":{"a":1,"b":4},"B":{"a":4,"b":1},"C":{"a":2,"b":8},"D":{"a":8,"b":2}},"conditions":["nonSeqFull","nonSeqPartial","seqNoFeedback","seqFeedback"],"classroomPairings":[["A","B"],["C","D"]],"coinWeights":[0.2,0.5,0.8],"subjectId":"A29GJGXFU9BQQG","assignmentId":"373ERPL3YPU0UUY1QUB7TZS2U31RTV","hitId":"3Z3R5YC0P3915KVY8X6BNRIWSQNFTT","url":"https://gershmanlab.com/experiments/alicia/teaching/experiment/?hitId=3Z3R5YC0P3915KVY8X6BNRIWSQNFTT&workerId=A29GJGXFU9BQQG&assignmentId=373ERPL3YPU0UUY1QUB7TZS2U31RTV&a=3R379&tp_a=3R379&b=373ERPL3YPU0UUY1QUB7TZS2U31RTV&tp_b=373ERPL3YPU0UUY1QUB7TZS2U31RTV&c=365799&tp_c=365799","heads":2,"tails":0,"studentIndex":0,"studentTrueHypers":{"a":8,"b":2},"studentGuess":0.8333333333333334,"delta":0.033333333333333326,"totalExamples":2,"bonus":0.48,"bonusSoFar":0.48},{"rt":13256,"response":{"heads":"1","tails":"1"},"type":"response","condition":"nonSeqFull","trueTheta":0.5,"classrooms":["C","D"],"studentTrueClassroom":"D","exampleSet":"first","trial_type":"survey-html-form","trial_index":46,"time_elapsed":1158306,"internal_node_id":"0.0-12.0-0.0","params":{"nStudents":24,"maxFlips":30,"completionMinutes":45,"basePay":8,"maxBonus":9,"perTrialBonus":0.5,"perTrialBonusThreshold":0.05,"exampleCost":0.01},"classroomParams":{"A":{"a":1,"b":4},"B":{"a":4,"b":1},"C":{"a":2,"b":8},"D":{"a":8,"b":2}},"conditions":["nonSeqFull","nonSeqPartial","seqNoFeedback","seqFeedback"],"classroomPairings":[["A","B"],["C","D"]],"coinWeights":[0.2,0.5,0.8],"subjectId":"A29GJGXFU9BQQG","assignmentId":"373ERPL3YPU0UUY1QUB7TZS2U31RTV","hitId":"3Z3R5YC0P3915KVY8X6BNRIWSQNFTT","url":"https://gershmanlab.com/experiments/alicia/teaching/experiment/?hitId=3Z3R5YC0P3915KVY8X6BNRIWSQNFTT&workerId=A29GJGXFU9BQQG&assignmentId=373ERPL3YPU0UUY1QUB7TZS2U31RTV&a=3R379&tp_a=3R379&b=373ERPL3YPU0UUY1QUB7TZS2U31RTV&tp_b=373ERPL3YPU0UUY1QUB7TZS2U31RTV&c=365799&tp_c=365799","heads":1,"tails":1,"studentIndex":1,"studentTrueHypers":{"a":8,"b":2},"studentGuess":0.75,"delta":0.25,"totalExamples":2,"bonus":0,"bonusSoFar":0.48},{"rt":18196,"response":{"heads":"5","tails":"0"},"type":"response","condition":"seqFeedback","trueTheta":0.8,"classrooms":["A","B"],"studentTrueClassroom":"A","exampleSet":"first","trial_type":"survey-html-form","trial_index":52,"time_elapsed":1213421,"internal_node_id":"0.0-18.0-0.0","params":{"nStudents":24,"maxFlips":30,"completionMinutes":45,"basePay":8,"maxBonus":9,"perTrialBonus":0.5,"perTrialBonusThreshold":0.05,"exampleCost":0.01},"classroomParams":{"A":{"a":1,"b":4},"B":{"a":4,"b":1},"C":{"a":2,"b":8},"D":{"a":8,"b":2}},"conditions":["nonSeqFull","nonSeqPartial","seqNoFeedback","seqFeedback"],"classroomPairings":[["A","B"],["C","D"]],"coinWeights":[0.2,0.5,0.8],"subjectId":"A29GJGXFU9BQQG","assignmentId":"373ERPL3YPU0UUY1QUB7TZS2U31RTV","hitId":"3Z3R5YC0P3915KVY8X6BNRIWSQNFTT","url":"https://gershmanlab.com/experiments/alicia/teaching/experiment/?hitId=3Z3R5YC0P3915KVY8X6BNRIWSQNFTT&workerId=A29GJGXFU9BQQG&assignmentId=373ERPL3YPU0UUY1QUB7TZS2U31RTV&a=3R379&tp_a=3R379&b=373ERPL3YPU0UUY1QUB7TZS2U31RTV&tp_b=373ERPL3YPU0UUY1QUB7TZS2U31RTV&c=365799&tp_c=365799","heads":5,"tails":0,"studentIndex":2,"studentTrueHypers":{"a":1,"b":4},"studentGuess":0.6,"delta":0.20000000000000007,"totalExamples":5,"bonusSoFar":0.48},{"rt":18247,"response":{"heads":"8","tails":"0"},"type":"response","condition":"seqFeedback","trueTheta":0.8,"classrooms":["A","B"],"studentTrueClassroom":"A","exampleSet":"second","trial_type":"survey-html-form","trial_index":56,"time_elapsed":1243404,"internal_node_id":"0.0-22.0-0.0","params":{"nStudents":24,"maxFlips":30,"completionMinutes":45,"basePay":8,"maxBonus":9,"perTrialBonus":0.5,"perTrialBonusThreshold":0.05,"exampleCost":0.01},"classroomParams":{"A":{"a":1,"b":4},"B":{"a":4,"b":1},"C":{"a":2,"b":8},"D":{"a":8,"b":2}},"conditions":["nonSeqFull","nonSeqPartial","seqNoFeedback","seqFeedback"],"classroomPairings":[["A","B"],["C","D"]],"coinWeights":[0.2,0.5,0.8],"subjectId":"A29GJGXFU9BQQG","assignmentId":"373ERPL3YPU0UUY1QUB7TZS2U31RTV","hitId":"3Z3R5YC0P3915KVY8X6BNRIWSQNFTT","url":"https://gershmanlab.com/experiments/alicia/teaching/experiment/?hitId=3Z3R5YC0P3915KVY8X6BNRIWSQNFTT&workerId=A29GJGXFU9BQQG&assignmentId=373ERPL3YPU0UUY1QUB7TZS2U31RTV&a=3R379&tp_a=3R379&b=373ERPL3YPU0UUY1QUB7TZS2U31RTV&tp_b=373ERPL3YPU0UUY1QUB7TZS2U31RTV&c=365799&tp_c=365799","firstResponseHeads":5,"firstResponseTails":0,"secondResponseHeads":8,"secondResponseTails":0,"totalHeads":13,"totalTails":0,"studentIndex":2,"studentTrueHypers":{"a":1,"b":4},"studentGuess":0.7777777777777778,"delta":0.022222222222222254,"bonus":0.37,"bonusSoFar":0.85,"totalExamples":13},{"rt":4031,"response":{"heads":"0","tails":"5"},"type":"response","condition":"seqNoFeedback","trueTheta":0.2,"classrooms":["A","B"],"studentTrueClassroom":"A","exampleSet":"first","trial_type":"survey-html-form","trial_index":62,"time_elapsed":1264596,"internal_node_id":"0.0-28.0-0.0","params":{"nStudents":24,"maxFlips":30,"completionMinutes":45,"basePay":8,"maxBonus":9,"perTrialBonus":0.5,"perTrialBonusThreshold":0.05,"exampleCost":0.01},"classroomParams":{"A":{"a":1,"b":4},"B":{"a":4,"b":1},"C":{"a":2,"b":8},"D":{"a":8,"b":2}},"conditions":["nonSeqFull","nonSeqPartial","seqNoFeedback","seqFeedback"],"classroomPairings":[["A","B"],["C","D"]],"coinWeights":[0.2,0.5,0.8],"subjectId":"A29GJGXFU9BQQG","assignmentId":"373ERPL3YPU0UUY1QUB7TZS2U31RTV","hitId":"3Z3R5YC0P3915KVY8X6BNRIWSQNFTT","url":"https://gershmanlab.com/experiments/alicia/teaching/experiment/?hitId=3Z3R5YC0P3915KVY8X6BNRIWSQNFTT&workerId=A29GJGXFU9BQQG&assignmentId=373ERPL3YPU0UUY1QUB7TZS2U31RTV&a=3R379&tp_a=3R379&b=373ERPL3YPU0UUY1QUB7TZS2U31RTV&tp_b=373ERPL3YPU0UUY1QUB7TZS2U31RTV&c=365799&tp_c=365799","heads":0,"tails":5,"studentIndex":3,"studentTrueHypers":{"a":1,"b":4},"studentGuess":0.1,"delta":0.1,"totalExamples":5,"bonusSoFar":0.85},{"rt":13465,"response":{"heads":"0","tails":"8"},"type":"response","condition":"seqNoFeedback","trueTheta":0.2,"classrooms":["A","B"],"studentTrueClassroom":"A","exampleSet":"second","trial_type":"survey-html-form","trial_index":65,"time_elapsed":1285325,"internal_node_id":"0.0-31.0-0.0","params":{"nStudents":24,"maxFlips":30,"completionMinutes":45,"basePay":8,"maxBonus":9,"perTrialBonus":0.5,"perTrialBonusThreshold":0.05,"exampleCost":0.01},"classroomParams":{"A":{"a":1,"b":4},"B":{"a":4,"b":1},"C":{"a":2,"b":8},"D":{"a":8,"b":2}},"conditions":["nonSeqFull","nonSeqPartial","seqNoFeedback","seqFeedback"],"classroomPairings":[["A","B"],["C","D"]],"coinWeights":[0.2,0.5,0.8],"subjectId":"A29GJGXFU9BQQG","assignmentId":"373ERPL3YPU0UUY1QUB7TZS2U31RTV","hitId":"3Z3R5YC0P3915KVY8X6BNRIWSQNFTT","url":"https://gershmanlab.com/experiments/alicia/teaching/experiment/?hitId=3Z3R5YC0P3915KVY8X6BNRIWSQNFTT&workerId=A29GJGXFU9BQQG&assignmentId=373ERPL3YPU0UUY1QUB7TZS2U31RTV&a=3R379&tp_a=3R379&b=373ERPL3YPU0UUY1QUB7TZS2U31RTV&tp_b=373ERPL3YPU0UUY1QUB7TZS2U31RTV&c=365799&tp_c=365799","firstResponseHeads":0,"firstResponseTails":5,"secondResponseHeads":0,"secondResponseTails":8,"totalHeads":0,"totalTails":13,"studentIndex":3,"studentTrueHypers":{"a":1,"b":4},"studentGuess":0.05555555555555555,"delta":0.14444444444444446,"bonus":0,"bonusSoFar":0.85,"totalExamples":13},{"rt":9103,"response":{"heads":"0","tails":"4"},"type":"response","condition":"seqFeedback","trueTheta":0.5,"classrooms":["C","D"],"studentTrueClassroom":"D","exampleSet":"first","trial_type":"survey-html-form","trial_index":71,"time_elapsed":1310861,"internal_node_id":"0.0-37.0-0.0","params":{"nStudents":24,"maxFlips":30,"completionMinutes":45,"basePay":8,"maxBonus":9,"perTrialBonus":0.5,"perTrialBonusThreshold":0.05,"exampleCost":0.01},"classroomParams":{"A":{"a":1,"b":4},"B":{"a":4,"b":1},"C":{"a":2,"b":8},"D":{"a":8,"b":2}},"conditions":["nonSeqFull","nonSeqPartial","seqNoFeedback","seqFeedback"],"classroomPairings":[["A","B"],["C","D"]],"coinWeights":[0.2,0.5,0.8],"subjectId":"A29GJGXFU9BQQG","assignmentId":"373ERPL3YPU0UUY1QUB7TZS2U31RTV","hitId":"3Z3R5YC0P3915KVY8X6BNRIWSQNFTT","url":"https://gershmanlab.com/experiments/alicia/teaching/experiment/?hitId=3Z3R5YC0P3915KVY8X6BNRIWSQNFTT&workerId=A29GJGXFU9BQQG&assignmentId=373ERPL3YPU0UUY1QUB7TZS2U31RTV&a=3R379&tp_a=3R379&b=373ERPL3YPU0UUY1QUB7TZS2U31RTV&tp_b=373ERPL3YPU0UUY1QUB7TZS2U31RTV&c=365799&tp_c=365799","heads":0,"tails":4,"studentIndex":4,"studentTrueHypers":{"a":8,"b":2},"studentGuess":0.5714285714285714,"delta":0.0714285714285714,"totalExamples":4,"bonusSoFar":0.85},{"rt":5215,"response":{"heads":"0","tails":"5"},"type":"response","condition":"seqFeedback","trueTheta":0.5,"classrooms":["C","D"],"studentTrueClassroom":"D","exampleSet":"second","trial_type":"survey-html-form","trial_index":75,"time_elapsed":1330332,"internal_node_id":"0.0-41.0-0.0","params":{"nStudents":24,"maxFlips":30,"completionMinutes":45,"basePay":8,"maxBonus":9,"perTrialBonus":0.5,"perTrialBonusThreshold":0.05,"exampleCost":0.01},"classroomParams":{"A":{"a":1,"b":4},"B":{"a":4,"b":1},"C":{"a":2,"b":8},"D":{"a":8,"b":2}},"conditions":["nonSeqFull","nonSeqPartial","seqNoFeedback","seqFeedback"],"classroomPairings":[["A","B"],["C","D"]],"coinWeights":[0.2,0.5,0.8],"subjectId":"A29GJGXFU9BQQG","assignmentId":"373ERPL3YPU0UUY1QUB7TZS2U31RTV","hitId":"3Z3R5YC0P3915KVY8X6BNRIWSQNFTT","url":"https://gershmanlab.com/experiments/alicia/teaching/experiment/?hitId=3Z3R5YC0P3915KVY8X6BNRIWSQNFTT&workerId=A29GJGXFU9BQQG&assignmentId=373ERPL3YPU0UUY1QUB7TZS2U31RTV&a=3R379&tp_a=3R379&b=373ERPL3YPU0UUY1QUB7TZS2U31RTV&tp_b=373ERPL3YPU0UUY1QUB7TZS2U31RTV&c=365799&tp_c=365799","firstResponseHeads":0,"firstResponseTails":4,"secondResponseHeads":0,"secondResponseTails":5,"totalHeads":0,"totalTails":9,"studentIndex":4,"studentTrueHypers":{"a":8,"b":2},"studentGuess":0.42105263157894735,"delta":0.07894736842105265,"bonus":0,"bonusSoFar":0.85,"totalExamples":9},{"rt":5327,"response":{"heads":"0","tails":"10"},"type":"response","condition":"nonSeqPartial","trueTheta":0.2,"classrooms":["A","B"],"studentTrueClassroom":"B","exampleSet":"first","trial_type":"survey-html-form","trial_index":81,"time_elapsed":1357748,"internal_node_id":"0.0-47.0-0.0","params":{"nStudents":24,"maxFlips":30,"completionMinutes":45,"basePay":8,"maxBonus":9,"perTrialBonus":0.5,"perTrialBonusThreshold":0.05,"exampleCost":0.01},"classroomParams":{"A":{"a":1,"b":4},"B":{"a":4,"b":1},"C":{"a":2,"b":8},"D":{"a":8,"b":2}},"conditions":["nonSeqFull","nonSeqPartial","seqNoFeedback","seqFeedback"],"classroomPairings":[["A","B"],["C","D"]],"coinWeights":[0.2,0.5,0.8],"subjectId":"A29GJGXFU9BQQG","assignmentId":"373ERPL3YPU0UUY1QUB7TZS2U31RTV","hitId":"3Z3R5YC0P3915KVY8X6BNRIWSQNFTT","url":"https://gershmanlab.com/experiments/alicia/teaching/experiment/?hitId=3Z3R5YC0P3915KVY8X6BNRIWSQNFTT&workerId=A29GJGXFU9BQQG&assignmentId=373ERPL3YPU0UUY1QUB7TZS2U31RTV&a=3R379&tp_a=3R379&b=373ERPL3YPU0UUY1QUB7TZS2U31RTV&tp_b=373ERPL3YPU0UUY1QUB7TZS2U31RTV&c=365799&tp_c=365799","heads":0,"tails":10,"studentIndex":5,"studentTrueHypers":{"a":4,"b":1},"studentGuess":0.26666666666666666,"delta":0.06666666666666665,"totalExamples":10,"bonus":0,"bonusSoFar":0.85},{"rt":7660,"response":{"heads":"0","tails":"12"},"type":"response","condition":"seqFeedback","trueTheta":0.2,"classrooms":["C","D"],"studentTrueClassroom":"C","exampleSet":"first","trial_type":"survey-html-form","trial_index":87,"time_elapsed":1380980,"internal_node_id":"0.0-53.0-0.0","params":{"nStudents":24,"maxFlips":30,"completionMinutes":45,"basePay":8,"maxBonus":9,"perTrialBonus":0.5,"perTrialBonusThreshold":0.05,"exampleCost":0.01},"classroomParams":{"A":{"a":1,"b":4},"B":{"a":4,"b":1},"C":{"a":2,"b":8},"D":{"a":8,"b":2}},"conditions":["nonSeqFull","nonSeqPartial","seqNoFeedback","seqFeedback"],"classroomPairings":[["A","B"],["C","D"]],"coinWeights":[0.2,0.5,0.8],"subjectId":"A29GJGXFU9BQQG","assignmentId":"373ERPL3YPU0UUY1QUB7TZS2U31RTV","hitId":"3Z3R5YC0P3915KVY8X6BNRIWSQNFTT","url":"https://gershmanlab.com/experiments/alicia/teaching/experiment/?hitId=3Z3R5YC0P3915KVY8X6BNRIWSQNFTT&workerId=A29GJGXFU9BQQG&assignmentId=373ERPL3YPU0UUY1QUB7TZS2U31RTV&a=3R379&tp_a=3R379&b=373ERPL3YPU0UUY1QUB7TZS2U31RTV&tp_b=373ERPL3YPU0UUY1QUB7TZS2U31RTV&c=365799&tp_c=365799","heads":0,"tails":12,"studentIndex":6,"studentTrueHypers":{"a":2,"b":8},"studentGuess":0.09090909090909091,"delta":0.1090909090909091,"totalExamples":12,"bonusSoFar":0.85},{"rt":8111,"response":{"heads":"0","tails":"20"},"type":"response","condition":"seqFeedback","trueTheta":0.2,"classrooms":["C","D"],"studentTrueClassroom":"C","exampleSet":"second","trial_type":"survey-html-form","trial_index":91,"time_elapsed":1402173,"internal_node_id":"0.0-57.0-0.0","params":{"nStudents":24,"maxFlips":30,"completionMinutes":45,"basePay":8,"maxBonus":9,"perTrialBonus":0.5,"perTrialBonusThreshold":0.05,"exampleCost":0.01},"classroomParams":{"A":{"a":1,"b":4},"B":{"a":4,"b":1},"C":{"a":2,"b":8},"D":{"a":8,"b":2}},"conditions":["nonSeqFull","nonSeqPartial","seqNoFeedback","seqFeedback"],"classroomPairings":[["A","B"],["C","D"]],"coinWeights":[0.2,0.5,0.8],"subjectId":"A29GJGXFU9BQQG","assignmentId":"373ERPL3YPU0UUY1QUB7TZS2U31RTV","hitId":"3Z3R5YC0P3915KVY8X6BNRIWSQNFTT","url":"https://gershmanlab.com/experiments/alicia/teaching/experiment/?hitId=3Z3R5YC0P3915KVY8X6BNRIWSQNFTT&workerId=A29GJGXFU9BQQG&assignmentId=373ERPL3YPU0UUY1QUB7TZS2U31RTV&a=3R379&tp_a=3R379&b=373ERPL3YPU0UUY1QUB7TZS2U31RTV&tp_b=373ERPL3YPU0UUY1QUB7TZS2U31RTV&c=365799&tp_c=365799","firstResponseHeads":0,"firstResponseTails":12,"secondResponseHeads":0,"secondResponseTails":20,"totalHeads":0,"totalTails":32,"studentIndex":6,"studentTrueHypers":{"a":2,"b":8},"studentGuess":0.047619047619047616,"delta":0.1523809523809524,"bonus":0,"bonusSoFar":0.85,"totalExamples":32},{"rt":6024,"response":{"heads":"4","tails":"1"},"type":"response","condition":"nonSeqFull","trueTheta":0.5,"classrooms":["A","B"],"studentTrueClassroom":"A","exampleSet":"first","trial_type":"survey-html-form","trial_index":97,"time_elapsed":1428557,"internal_node_id":"0.0-63.0-0.0","params":{"nStudents":24,"maxFlips":30,"completionMinutes":45,"basePay":8,"maxBonus":9,"perTrialBonus":0.5,"perTrialBonusThreshold":0.05,"exampleCost":0.01},"classroomParams":{"A":{"a":1,"b":4},"B":{"a":4,"b":1},"C":{"a":2,"b":8},"D":{"a":8,"b":2}},"conditions":["nonSeqFull","nonSeqPartial","seqNoFeedback","seqFeedback"],"classroomPairings":[["A","B"],["C","D"]],"coinWeights":[0.2,0.5,0.8],"subjectId":"A29GJGXFU9BQQG","assignmentId":"373ERPL3YPU0UUY1QUB7TZS2U31RTV","hitId":"3Z3R5YC0P3915KVY8X6BNRIWSQNFTT","url":"https://gershmanlab.com/experiments/alicia/teaching/experiment/?hitId=3Z3R5YC0P3915KVY8X6BNRIWSQNFTT&workerId=A29GJGXFU9BQQG&assignmentId=373ERPL3YPU0UUY1QUB7TZS2U31RTV&a=3R379&tp_a=3R379&b=373ERPL3YPU0UUY1QUB7TZS2U31RTV&tp_b=373ERPL3YPU0UUY1QUB7TZS2U31RTV&c=365799&tp_c=365799","heads":4,"tails":1,"studentIndex":7,"studentTrueHypers":{"a":1,"b":4},"studentGuess":0.5,"delta":0,"totalExamples":5,"bonus":0.45,"bonusSoFar":1.3},{"rt":5727,"response":{"heads":"10","tails":"0"},"type":"response","condition":"nonSeqFull","trueTheta":0.8,"classrooms":["A","B"],"studentTrueClassroom":"B","exampleSet":"first","trial_type":"survey-html-form","trial_index":103,"time_elapsed":1449228,"internal_node_id":"0.0-69.0-0.0","params":{"nStudents":24,"maxFlips":30,"completionMinutes":45,"basePay":8,"maxBonus":9,"perTrialBonus":0.5,"perTrialBonusThreshold":0.05,"exampleCost":0.01},"classroomParams":{"A":{"a":1,"b":4},"B":{"a":4,"b":1},"C":{"a":2,"b":8},"D":{"a":8,"b":2}},"conditions":["nonSeqFull","nonSeqPartial","seqNoFeedback","seqFeedback"],"classroomPairings":[["A","B"],["C","D"]],"coinWeights":[0.2,0.5,0.8],"subjectId":"A29GJGXFU9BQQG","assignmentId":"373ERPL3YPU0UUY1QUB7TZS2U31RTV","hitId":"3Z3R5YC0P3915KVY8X6BNRIWSQNFTT","url":"https://gershmanlab.com/experiments/alicia/teaching/experiment/?hitId=3Z3R5YC0P3915KVY8X6BNRIWSQNFTT&workerId=A29GJGXFU9BQQG&assignmentId=373ERPL3YPU0UUY1QUB7TZS2U31RTV&a=3R379&tp_a=3R379&b=373ERPL3YPU0UUY1QUB7TZS2U31RTV&tp_b=373ERPL3YPU0UUY1QUB7TZS2U31RTV&c=365799&tp_c=365799","heads":10,"tails":0,"studentIndex":8,"studentTrueHypers":{"a":4,"b":1},"studentGuess":0.9333333333333333,"delta":0.1333333333333333,"totalExamples":10,"bonus":0,"bonusSoFar":1.3},{"rt":5797,"response":{"heads":"8","tails":"0"},"type":"response","condition":"seqFeedback","trueTheta":0.8,"classrooms":["C","D"],"studentTrueClassroom":"D","exampleSet":"first","trial_type":"survey-html-form","trial_index":109,"time_elapsed":1469789,"internal_node_id":"0.0-75.0-0.0","params":{"nStudents":24,"maxFlips":30,"completionMinutes":45,"basePay":8,"maxBonus":9,"perTrialBonus":0.5,"perTrialBonusThreshold":0.05,"exampleCost":0.01},"classroomParams":{"A":{"a":1,"b":4},"B":{"a":4,"b":1},"C":{"a":2,"b":8},"D":{"a":8,"b":2}},"conditions":["nonSeqFull","nonSeqPartial","seqNoFeedback","seqFeedback"],"classroomPairings":[["A","B"],["C","D"]],"coinWeights":[0.2,0.5,0.8],"subjectId":"A29GJGXFU9BQQG","assignmentId":"373ERPL3YPU0UUY1QUB7TZS2U31RTV","hitId":"3Z3R5YC0P3915KVY8X6BNRIWSQNFTT","url":"https://gershmanlab.com/experiments/alicia/teaching/experiment/?hitId=3Z3R5YC0P3915KVY8X6BNRIWSQNFTT&workerId=A29GJGXFU9BQQG&assignmentId=373ERPL3YPU0UUY1QUB7TZS2U31RTV&a=3R379&tp_a=3R379&b=373ERPL3YPU0UUY1QUB7TZS2U31RTV&tp_b=373ERPL3YPU0UUY1QUB7TZS2U31RTV&c=365799&tp_c=365799","heads":8,"tails":0,"studentIndex":9,"studentTrueHypers":{"a":8,"b":2},"studentGuess":0.8888888888888888,"delta":0.0888888888888888,"totalExamples":8,"bonusSoFar":1.3},{"rt":12247,"response":{"heads":"7","tails":"2"},"type":"response","condition":"seqFeedback","trueTheta":0.8,"classrooms":["C","D"],"studentTrueClassroom":"D","exampleSet":"second","trial_type":"survey-html-form","trial_index":113,"time_elapsed":1493404,"internal_node_id":"0.0-79.0-0.0","params":{"nStudents":24,"maxFlips":30,"completionMinutes":45,"basePay":8,"maxBonus":9,"perTrialBonus":0.5,"perTrialBonusThreshold":0.05,"exampleCost":0.01},"classroomParams":{"A":{"a":1,"b":4},"B":{"a":4,"b":1},"C":{"a":2,"b":8},"D":{"a":8,"b":2}},"conditions":["nonSeqFull","nonSeqPartial","seqNoFeedback","seqFeedback"],"classroomPairings":[["A","B"],["C","D"]],"coinWeights":[0.2,0.5,0.8],"subjectId":"A29GJGXFU9BQQG","assignmentId":"373ERPL3YPU0UUY1QUB7TZS2U31RTV","hitId":"3Z3R5YC0P3915KVY8X6BNRIWSQNFTT","url":"https://gershmanlab.com/experiments/alicia/teaching/experiment/?hitId=3Z3R5YC0P3915KVY8X6BNRIWSQNFTT&workerId=A29GJGXFU9BQQG&assignmentId=373ERPL3YPU0UUY1QUB7TZS2U31RTV&a=3R379&tp_a=3R379&b=373ERPL3YPU0UUY1QUB7TZS2U31RTV&tp_b=373ERPL3YPU0UUY1QUB7TZS2U31RTV&c=365799&tp_c=365799","firstResponseHeads":8,"firstResponseTails":0,"secondResponseHeads":7,"secondResponseTails":2,"totalHeads":15,"totalTails":2,"studentIndex":9,"studentTrueHypers":{"a":8,"b":2},"studentGuess":0.8518518518518519,"delta":0.051851851851851816,"bonus":0,"bonusSoFar":1.3,"totalExamples":17},{"rt":5099,"response":{"heads":"5","tails":"1"},"type":"response","condition":"seqFeedback","trueTheta":0.5,"classrooms":["A","B"],"studentTrueClassroom":"B","exampleSet":"first","trial_type":"survey-html-form","trial_index":119,"time_elapsed":1509535,"internal_node_id":"0.0-85.0-0.0","params":{"nStudents":24,"maxFlips":30,"completionMinutes":45,"basePay":8,"maxBonus":9,"perTrialBonus":0.5,"perTrialBonusThreshold":0.05,"exampleCost":0.01},"classroomParams":{"A":{"a":1,"b":4},"B":{"a":4,"b":1},"C":{"a":2,"b":8},"D":{"a":8,"b":2}},"conditions":["nonSeqFull","nonSeqPartial","seqNoFeedback","seqFeedback"],"classroomPairings":[["A","B"],["C","D"]],"coinWeights":[0.2,0.5,0.8],"subjectId":"A29GJGXFU9BQQG","assignmentId":"373ERPL3YPU0UUY1QUB7TZS2U31RTV","hitId":"3Z3R5YC0P3915KVY8X6BNRIWSQNFTT","url":"https://gershmanlab.com/experiments/alicia/teaching/experiment/?hitId=3Z3R5YC0P3915KVY8X6BNRIWSQNFTT&workerId=A29GJGXFU9BQQG&assignmentId=373ERPL3YPU0UUY1QUB7TZS2U31RTV&a=3R379&tp_a=3R379&b=373ERPL3YPU0UUY1QUB7TZS2U31RTV&tp_b=373ERPL3YPU0UUY1QUB7TZS2U31RTV&c=365799&tp_c=365799","heads":5,"tails":1,"studentIndex":10,"studentTrueHypers":{"a":4,"b":1},"studentGuess":0.8181818181818182,"delta":0.31818181818181823,"totalExamples":6,"bonusSoFar":1.3},{"rt":11175,"response":{"heads":"1","tails":"6"},"type":"response","condition":"seqFeedback","trueTheta":0.5,"classrooms":["A","B"],"studentTrueClassroom":"B","exampleSet":"second","trial_type":"survey-html-form","trial_index":123,"time_elapsed":1529300,"internal_node_id":"0.0-89.0-0.0","params":{"nStudents":24,"maxFlips":30,"completionMinutes":45,"basePay":8,"maxBonus":9,"perTrialBonus":0.5,"perTrialBonusThreshold":0.05,"exampleCost":0.01},"classroomParams":{"A":{"a":1,"b":4},"B":{"a":4,"b":1},"C":{"a":2,"b":8},"D":{"a":8,"b":2}},"conditions":["nonSeqFull","nonSeqPartial","seqNoFeedback","seqFeedback"],"classroomPairings":[["A","B"],["C","D"]],"coinWeights":[0.2,0.5,0.8],"subjectId":"A29GJGXFU9BQQG","assignmentId":"373ERPL3YPU0UUY1QUB7TZS2U31RTV","hitId":"3Z3R5YC0P3915KVY8X6BNRIWSQNFTT","url":"https://gershmanlab.com/experiments/alicia/teaching/experiment/?hitId=3Z3R5YC0P3915KVY8X6BNRIWSQNFTT&workerId=A29GJGXFU9BQQG&assignmentId=373ERPL3YPU0UUY1QUB7TZS2U31RTV&a=3R379&tp_a=3R379&b=373ERPL3YPU0UUY1QUB7TZS2U31RTV&tp_b=373ERPL3YPU0UUY1QUB7TZS2U31RTV&c=365799&tp_c=365799","firstResponseHeads":5,"firstResponseTails":1,"secondResponseHeads":1,"secondResponseTails":6,"totalHeads":6,"totalTails":7,"studentIndex":10,"studentTrueHypers":{"a":4,"b":1},"studentGuess":0.5555555555555556,"delta":0.05555555555555558,"bonus":0,"bonusSoFar":1.3,"totalExamples":13},{"rt":5462,"response":{"heads":"0","tails":"15"},"type":"response","condition":"nonSeqPartial","trueTheta":0.2,"classrooms":["C","D"],"studentTrueClassroom":"D","exampleSet":"first","trial_type":"survey-html-form","trial_index":129,"time_elapsed":1549356,"internal_node_id":"0.0-95.0-0.0","params":{"nStudents":24,"maxFlips":30,"completionMinutes":45,"basePay":8,"maxBonus":9,"perTrialBonus":0.5,"perTrialBonusThreshold":0.05,"exampleCost":0.01},"classroomParams":{"A":{"a":1,"b":4},"B":{"a":4,"b":1},"C":{"a":2,"b":8},"D":{"a":8,"b":2}},"conditions":["nonSeqFull","nonSeqPartial","seqNoFeedback","seqFeedback"],"classroomPairings":[["A","B"],["C","D"]],"coinWeights":[0.2,0.5,0.8],"subjectId":"A29GJGXFU9BQQG","assignmentId":"373ERPL3YPU0UUY1QUB7TZS2U31RTV","hitId":"3Z3R5YC0P3915KVY8X6BNRIWSQNFTT","url":"https://gershmanlab.com/experiments/alicia/teaching/experiment/?hitId=3Z3R5YC0P3915KVY8X6BNRIWSQNFTT&workerId=A29GJGXFU9BQQG&assignmentId=373ERPL3YPU0UUY1QUB7TZS2U31RTV&a=3R379&tp_a=3R379&b=373ERPL3YPU0UUY1QUB7TZS2U31RTV&tp_b=373ERPL3YPU0UUY1QUB7TZS2U31RTV&c=365799&tp_c=365799","heads":0,"tails":15,"studentIndex":11,"studentTrueHypers":{"a":8,"b":2},"studentGuess":0.32,"delta":0.12,"totalExamples":15,"bonus":0,"bonusSoFar":1.3},{"rt":10191,"response":{"heads":"12","tails":"1"},"type":"response","condition":"seqNoFeedback","trueTheta":0.8,"classrooms":["C","D"],"studentTrueClassroom":"C","exampleSet":"first","trial_type":"survey-html-form","trial_index":135,"time_elapsed":1572331,"internal_node_id":"0.0-101.0-0.0","params":{"nStudents":24,"maxFlips":30,"completionMinutes":45,"basePay":8,"maxBonus":9,"perTrialBonus":0.5,"perTrialBonusThreshold":0.05,"exampleCost":0.01},"classroomParams":{"A":{"a":1,"b":4},"B":{"a":4,"b":1},"C":{"a":2,"b":8},"D":{"a":8,"b":2}},"conditions":["nonSeqFull","nonSeqPartial","seqNoFeedback","seqFeedback"],"classroomPairings":[["A","B"],["C","D"]],"coinWeights":[0.2,0.5,0.8],"subjectId":"A29GJGXFU9BQQG","assignmentId":"373ERPL3YPU0UUY1QUB7TZS2U31RTV","hitId":"3Z3R5YC0P3915KVY8X6BNRIWSQNFTT","url":"https://gershmanlab.com/experiments/alicia/teaching/experiment/?hitId=3Z3R5YC0P3915KVY8X6BNRIWSQNFTT&workerId=A29GJGXFU9BQQG&assignmentId=373ERPL3YPU0UUY1QUB7TZS2U31RTV&a=3R379&tp_a=3R379&b=373ERPL3YPU0UUY1QUB7TZS2U31RTV&tp_b=373ERPL3YPU0UUY1QUB7TZS2U31RTV&c=365799&tp_c=365799","heads":12,"tails":1,"studentIndex":12,"studentTrueHypers":{"a":2,"b":8},"studentGuess":0.6086956521739131,"delta":0.19130434782608696,"totalExamples":13,"bonusSoFar":1.3},{"rt":10635,"response":{"heads":"8","tails":"1"},"type":"response","condition":"seqNoFeedback","trueTheta":0.8,"classrooms":["C","D"],"studentTrueClassroom":"C","exampleSet":"second","trial_type":"survey-html-form","trial_index":138,"time_elapsed":1588989,"internal_node_id":"0.0-104.0-0.0","params":{"nStudents":24,"maxFlips":30,"completionMinutes":45,"basePay":8,"maxBonus":9,"perTrialBonus":0.5,"perTrialBonusThreshold":0.05,"exampleCost":0.01},"classroomParams":{"A":{"a":1,"b":4},"B":{"a":4,"b":1},"C":{"a":2,"b":8},"D":{"a":8,"b":2}},"conditions":["nonSeqFull","nonSeqPartial","seqNoFeedback","seqFeedback"],"classroomPairings":[["A","B"],["C","D"]],"coinWeights":[0.2,0.5,0.8],"subjectId":"A29GJGXFU9BQQG","assignmentId":"373ERPL3YPU0UUY1QUB7TZS2U31RTV","hitId":"3Z3R5YC0P3915KVY8X6BNRIWSQNFTT","url":"https://gershmanlab.com/experiments/alicia/teaching/experiment/?hitId=3Z3R5YC0P3915KVY8X6BNRIWSQNFTT&workerId=A29GJGXFU9BQQG&assignmentId=373ERPL3YPU0UUY1QUB7TZS2U31RTV&a=3R379&tp_a=3R379&b=373ERPL3YPU0UUY1QUB7TZS2U31RTV&tp_b=373ERPL3YPU0UUY1QUB7TZS2U31RTV&c=365799&tp_c=365799","firstResponseHeads":12,"firstResponseTails":1,"secondResponseHeads":8,"secondResponseTails":1,"totalHeads":20,"totalTails":2,"studentIndex":12,"studentTrueHypers":{"a":2,"b":8},"studentGuess":0.6875,"delta":0.11250000000000004,"bonus":0,"bonusSoFar":1.3,"totalExamples":22},{"rt":7823,"response":{"heads":"0","tails":"10"},"type":"response","condition":"seqFeedback","trueTheta":0.2,"classrooms":["A","B"],"studentTrueClassroom":"A","exampleSet":"first","trial_type":"survey-html-form","trial_index":144,"time_elapsed":1609277,"internal_node_id":"0.0-110.0-0.0","params":{"nStudents":24,"maxFlips":30,"completionMinutes":45,"basePay":8,"maxBonus":9,"perTrialBonus":0.5,"perTrialBonusThreshold":0.05,"exampleCost":0.01},"classroomParams":{"A":{"a":1,"b":4},"B":{"a":4,"b":1},"C":{"a":2,"b":8},"D":{"a":8,"b":2}},"conditions":["nonSeqFull","nonSeqPartial","seqNoFeedback","seqFeedback"],"classroomPairings":[["A","B"],["C","D"]],"coinWeights":[0.2,0.5,0.8],"subjectId":"A29GJGXFU9BQQG","assignmentId":"373ERPL3YPU0UUY1QUB7TZS2U31RTV","hitId":"3Z3R5YC0P3915KVY8X6BNRIWSQNFTT","url":"https://gershmanlab.com/experiments/alicia/teaching/experiment/?hitId=3Z3R5YC0P3915KVY8X6BNRIWSQNFTT&workerId=A29GJGXFU9BQQG&assignmentId=373ERPL3YPU0UUY1QUB7TZS2U31RTV&a=3R379&tp_a=3R379&b=373ERPL3YPU0UUY1QUB7TZS2U31RTV&tp_b=373ERPL3YPU0UUY1QUB7TZS2U31RTV&c=365799&tp_c=365799","heads":0,"tails":10,"studentIndex":13,"studentTrueHypers":{"a":1,"b":4},"studentGuess":0.06666666666666667,"delta":0.13333333333333336,"totalExamples":10,"bonusSoFar":1.3},{"rt":5936,"response":{"heads":"1","tails":"8"},"type":"response","condition":"seqFeedback","trueTheta":0.2,"classrooms":["A","B"],"studentTrueClassroom":"A","exampleSet":"second","trial_type":"survey-html-form","trial_index":148,"time_elapsed":1625174,"internal_node_id":"0.0-114.0-0.0","params":{"nStudents":24,"maxFlips":30,"completionMinutes":45,"basePay":8,"maxBonus":9,"perTrialBonus":0.5,"perTrialBonusThreshold":0.05,"exampleCost":0.01},"classroomParams":{"A":{"a":1,"b":4},"B":{"a":4,"b":1},"C":{"a":2,"b":8},"D":{"a":8,"b":2}},"conditions":["nonSeqFull","nonSeqPartial","seqNoFeedback","seqFeedback"],"classroomPairings":[["A","B"],["C","D"]],"coinWeights":[0.2,0.5,0.8],"subjectId":"A29GJGXFU9BQQG","assignmentId":"373ERPL3YPU0UUY1QUB7TZS2U31RTV","hitId":"3Z3R5YC0P3915KVY8X6BNRIWSQNFTT","url":"https://gershmanlab.com/experiments/alicia/teaching/experiment/?hitId=3Z3R5YC0P3915KVY8X6BNRIWSQNFTT&workerId=A29GJGXFU9BQQG&assignmentId=373ERPL3YPU0UUY1QUB7TZS2U31RTV&a=3R379&tp_a=3R379&b=373ERPL3YPU0UUY1QUB7TZS2U31RTV&tp_b=373ERPL3YPU0UUY1QUB7TZS2U31RTV&c=365799&tp_c=365799","firstResponseHeads":0,"firstResponseTails":10,"secondResponseHeads":1,"secondResponseTails":8,"totalHeads":1,"totalTails":18,"studentIndex":13,"studentTrueHypers":{"a":1,"b":4},"studentGuess":0.08333333333333333,"delta":0.11666666666666668,"bonus":0,"bonusSoFar":1.3,"totalExamples":19},{"rt":6325,"response":{"heads":"5","tails":"0"},"type":"response","condition":"nonSeqPartial","trueTheta":0.5,"classrooms":["A","B"],"studentTrueClassroom":"B","exampleSet":"first","trial_type":"survey-html-form","trial_index":154,"time_elapsed":1647141,"internal_node_id":"0.0-120.0-0.0","params":{"nStudents":24,"maxFlips":30,"completionMinutes":45,"basePay":8,"maxBonus":9,"perTrialBonus":0.5,"perTrialBonusThreshold":0.05,"exampleCost":0.01},"classroomParams":{"A":{"a":1,"b":4},"B":{"a":4,"b":1},"C":{"a":2,"b":8},"D":{"a":8,"b":2}},"conditions":["nonSeqFull","nonSeqPartial","seqNoFeedback","seqFeedback"],"classroomPairings":[["A","B"],["C","D"]],"coinWeights":[0.2,0.5,0.8],"subjectId":"A29GJGXFU9BQQG","assignmentId":"373ERPL3YPU0UUY1QUB7TZS2U31RTV","hitId":"3Z3R5YC0P3915KVY8X6BNRIWSQNFTT","url":"https://gershmanlab.com/experiments/alicia/teaching/experiment/?hitId=3Z3R5YC0P3915KVY8X6BNRIWSQNFTT&workerId=A29GJGXFU9BQQG&assignmentId=373ERPL3YPU0UUY1QUB7TZS2U31RTV&a=3R379&tp_a=3R379&b=373ERPL3YPU0UUY1QUB7TZS2U31RTV&tp_b=373ERPL3YPU0UUY1QUB7TZS2U31RTV&c=365799&tp_c=365799","heads":5,"tails":0,"studentIndex":14,"studentTrueHypers":{"a":4,"b":1},"studentGuess":0.9,"delta":0.4,"totalExamples":5,"bonus":0,"bonusSoFar":1.3},{"rt":5572,"response":{"heads":"3","tails":"3"},"type":"response","condition":"nonSeqPartial","trueTheta":0.5,"classrooms":["C","D"],"studentTrueClassroom":"D","exampleSet":"first","trial_type":"survey-html-form","trial_index":160,"time_elapsed":1666276,"internal_node_id":"0.0-126.0-0.0","params":{"nStudents":24,"maxFlips":30,"completionMinutes":45,"basePay":8,"maxBonus":9,"perTrialBonus":0.5,"perTrialBonusThreshold":0.05,"exampleCost":0.01},"classroomParams":{"A":{"a":1,"b":4},"B":{"a":4,"b":1},"C":{"a":2,"b":8},"D":{"a":8,"b":2}},"conditions":["nonSeqFull","nonSeqPartial","seqNoFeedback","seqFeedback"],"classroomPairings":[["A","B"],["C","D"]],"coinWeights":[0.2,0.5,0.8],"subjectId":"A29GJGXFU9BQQG","assignmentId":"373ERPL3YPU0UUY1QUB7TZS2U31RTV","hitId":"3Z3R5YC0P3915KVY8X6BNRIWSQNFTT","url":"https://gershmanlab.com/experiments/alicia/teaching/experiment/?hitId=3Z3R5YC0P3915KVY8X6BNRIWSQNFTT&workerId=A29GJGXFU9BQQG&assignmentId=373ERPL3YPU0UUY1QUB7TZS2U31RTV&a=3R379&tp_a=3R379&b=373ERPL3YPU0UUY1QUB7TZS2U31RTV&tp_b=373ERPL3YPU0UUY1QUB7TZS2U31RTV&c=365799&tp_c=365799","heads":3,"tails":3,"studentIndex":15,"studentTrueHypers":{"a":8,"b":2},"studentGuess":0.6875,"delta":0.1875,"totalExamples":6,"bonus":0,"bonusSoFar":1.3},{"rt":10135,"response":{"heads":"4","tails":"5"},"type":"response","condition":"seqNoFeedback","trueTheta":0.5,"classrooms":["C","D"],"studentTrueClassroom":"C","exampleSet":"first","trial_type":"survey-html-form","trial_index":166,"time_elapsed":1687820,"internal_node_id":"0.0-132.0-0.0","params":{"nStudents":24,"maxFlips":30,"completionMinutes":45,"basePay":8,"maxBonus":9,"perTrialBonus":0.5,"perTrialBonusThreshold":0.05,"exampleCost":0.01},"classroomParams":{"A":{"a":1,"b":4},"B":{"a":4,"b":1},"C":{"a":2,"b":8},"D":{"a":8,"b":2}},"conditions":["nonSeqFull","nonSeqPartial","seqNoFeedback","seqFeedback"],"classroomPairings":[["A","B"],["C","D"]],"coinWeights":[0.2,0.5,0.8],"subjectId":"A29GJGXFU9BQQG","assignmentId":"373ERPL3YPU0UUY1QUB7TZS2U31RTV","hitId":"3Z3R5YC0P3915KVY8X6BNRIWSQNFTT","url":"https://gershmanlab.com/experiments/alicia/teaching/experiment/?hitId=3Z3R5YC0P3915KVY8X6BNRIWSQNFTT&workerId=A29GJGXFU9BQQG&assignmentId=373ERPL3YPU0UUY1QUB7TZS2U31RTV&a=3R379&tp_a=3R379&b=373ERPL3YPU0UUY1QUB7TZS2U31RTV&tp_b=373ERPL3YPU0UUY1QUB7TZS2U31RTV&c=365799&tp_c=365799","heads":4,"tails":5,"studentIndex":16,"studentTrueHypers":{"a":2,"b":8},"studentGuess":0.3157894736842105,"delta":0.1842105263157895,"totalExamples":9,"bonusSoFar":1.3},{"rt":15540,"response":{"heads":"4","tails":"4"},"type":"response","condition":"seqNoFeedback","trueTheta":0.5,"classrooms":["C","D"],"studentTrueClassroom":"C","exampleSet":"second","trial_type":"survey-html-form","trial_index":169,"time_elapsed":1711363,"internal_node_id":"0.0-135.0-0.0","params":{"nStudents":24,"maxFlips":30,"completionMinutes":45,"basePay":8,"maxBonus":9,"perTrialBonus":0.5,"perTrialBonusThreshold":0.05,"exampleCost":0.01},"classroomParams":{"A":{"a":1,"b":4},"B":{"a":4,"b":1},"C":{"a":2,"b":8},"D":{"a":8,"b":2}},"conditions":["nonSeqFull","nonSeqPartial","seqNoFeedback","seqFeedback"],"classroomPairings":[["A","B"],["C","D"]],"coinWeights":[0.2,0.5,0.8],"subjectId":"A29GJGXFU9BQQG","assignmentId":"373ERPL3YPU0UUY1QUB7TZS2U31RTV","hitId":"3Z3R5YC0P3915KVY8X6BNRIWSQNFTT","url":"https://gershmanlab.com/experiments/alicia/teaching/experiment/?hitId=3Z3R5YC0P3915KVY8X6BNRIWSQNFTT&workerId=A29GJGXFU9BQQG&assignmentId=373ERPL3YPU0UUY1QUB7TZS2U31RTV&a=3R379&tp_a=3R379&b=373ERPL3YPU0UUY1QUB7TZS2U31RTV&tp_b=373ERPL3YPU0UUY1QUB7TZS2U31RTV&c=365799&tp_c=365799","firstResponseHeads":4,"firstResponseTails":5,"secondResponseHeads":4,"secondResponseTails":4,"totalHeads":8,"totalTails":9,"studentIndex":16,"studentTrueHypers":{"a":2,"b":8},"studentGuess":0.37037037037037035,"delta":0.12962962962962965,"bonus":0,"bonusSoFar":1.3,"totalExamples":17},{"rt":4861,"response":{"heads":"0","tails":"5"},"type":"response","condition":"nonSeqFull","trueTheta":0.2,"classrooms":["A","B"],"studentTrueClassroom":"B","exampleSet":"first","trial_type":"survey-html-form","trial_index":175,"time_elapsed":1729636,"internal_node_id":"0.0-141.0-0.0","params":{"nStudents":24,"maxFlips":30,"completionMinutes":45,"basePay":8,"maxBonus":9,"perTrialBonus":0.5,"perTrialBonusThreshold":0.05,"exampleCost":0.01},"classroomParams":{"A":{"a":1,"b":4},"B":{"a":4,"b":1},"C":{"a":2,"b":8},"D":{"a":8,"b":2}},"conditions":["nonSeqFull","nonSeqPartial","seqNoFeedback","seqFeedback"],"classroomPairings":[["A","B"],["C","D"]],"coinWeights":[0.2,0.5,0.8],"subjectId":"A29GJGXFU9BQQG","assignmentId":"373ERPL3YPU0UUY1QUB7TZS2U31RTV","hitId":"3Z3R5YC0P3915KVY8X6BNRIWSQNFTT","url":"https://gershmanlab.com/experiments/alicia/teaching/experiment/?hitId=3Z3R5YC0P3915KVY8X6BNRIWSQNFTT&workerId=A29GJGXFU9BQQG&assignmentId=373ERPL3YPU0UUY1QUB7TZS2U31RTV&a=3R379&tp_a=3R379&b=373ERPL3YPU0UUY1QUB7TZS2U31RTV&tp_b=373ERPL3YPU0UUY1QUB7TZS2U31RTV&c=365799&tp_c=365799","heads":0,"tails":5,"studentIndex":17,"studentTrueHypers":{"a":4,"b":1},"studentGuess":0.4,"delta":0.2,"totalExamples":5,"bonus":0,"bonusSoFar":1.3},{"rt":5199,"response":{"heads":"0","tails":"8"},"type":"response","condition":"nonSeqFull","trueTheta":0.2,"classrooms":["C","D"],"studentTrueClassroom":"D","exampleSet":"first","trial_type":"survey-html-form","trial_index":181,"time_elapsed":1746779,"internal_node_id":"0.0-147.0-0.0","params":{"nStudents":24,"maxFlips":30,"completionMinutes":45,"basePay":8,"maxBonus":9,"perTrialBonus":0.5,"perTrialBonusThreshold":0.05,"exampleCost":0.01},"classroomParams":{"A":{"a":1,"b":4},"B":{"a":4,"b":1},"C":{"a":2,"b":8},"D":{"a":8,"b":2}},"conditions":["nonSeqFull","nonSeqPartial","seqNoFeedback","seqFeedback"],"classroomPairings":[["A","B"],["C","D"]],"coinWeights":[0.2,0.5,0.8],"subjectId":"A29GJGXFU9BQQG","assignmentId":"373ERPL3YPU0UUY1QUB7TZS2U31RTV","hitId":"3Z3R5YC0P3915KVY8X6BNRIWSQNFTT","url":"https://gershmanlab.com/experiments/alicia/teaching/experiment/?hitId=3Z3R5YC0P3915KVY8X6BNRIWSQNFTT&workerId=A29GJGXFU9BQQG&assignmentId=373ERPL3YPU0UUY1QUB7TZS2U31RTV&a=3R379&tp_a=3R379&b=373ERPL3YPU0UUY1QUB7TZS2U31RTV&tp_b=373ERPL3YPU0UUY1QUB7TZS2U31RTV&c=365799&tp_c=365799","heads":0,"tails":8,"studentIndex":18,"studentTrueHypers":{"a":8,"b":2},"studentGuess":0.4444444444444444,"delta":0.2444444444444444,"totalExamples":8,"bonus":0,"bonusSoFar":1.3},{"rt":11513,"response":{"heads":"5","tails":"5"},"type":"response","condition":"seqNoFeedback","trueTheta":0.5,"classrooms":["A","B"],"studentTrueClassroom":"A","exampleSet":"first","trial_type":"survey-html-form","trial_index":187,"time_elapsed":1771424,"internal_node_id":"0.0-153.0-0.0","params":{"nStudents":24,"maxFlips":30,"completionMinutes":45,"basePay":8,"maxBonus":9,"perTrialBonus":0.5,"perTrialBonusThreshold":0.05,"exampleCost":0.01},"classroomParams":{"A":{"a":1,"b":4},"B":{"a":4,"b":1},"C":{"a":2,"b":8},"D":{"a":8,"b":2}},"conditions":["nonSeqFull","nonSeqPartial","seqNoFeedback","seqFeedback"],"classroomPairings":[["A","B"],["C","D"]],"coinWeights":[0.2,0.5,0.8],"subjectId":"A29GJGXFU9BQQG","assignmentId":"373ERPL3YPU0UUY1QUB7TZS2U31RTV","hitId":"3Z3R5YC0P3915KVY8X6BNRIWSQNFTT","url":"https://gershmanlab.com/experiments/alicia/teaching/experiment/?hitId=3Z3R5YC0P3915KVY8X6BNRIWSQNFTT&workerId=A29GJGXFU9BQQG&assignmentId=373ERPL3YPU0UUY1QUB7TZS2U31RTV&a=3R379&tp_a=3R379&b=373ERPL3YPU0UUY1QUB7TZS2U31RTV&tp_b=373ERPL3YPU0UUY1QUB7TZS2U31RTV&c=365799&tp_c=365799","heads":5,"tails":5,"studentIndex":19,"studentTrueHypers":{"a":1,"b":4},"studentGuess":0.4,"delta":0.09999999999999998,"totalExamples":10,"bonusSoFar":1.3},{"rt":8390,"response":{"heads":"5","tails":"5"},"type":"response","condition":"seqNoFeedback","trueTheta":0.5,"classrooms":["A","B"],"studentTrueClassroom":"A","exampleSet":"second","trial_type":"survey-html-form","trial_index":190,"time_elapsed":1787079,"internal_node_id":"0.0-156.0-0.0","params":{"nStudents":24,"maxFlips":30,"completionMinutes":45,"basePay":8,"maxBonus":9,"perTrialBonus":0.5,"perTrialBonusThreshold":0.05,"exampleCost":0.01},"classroomParams":{"A":{"a":1,"b":4},"B":{"a":4,"b":1},"C":{"a":2,"b":8},"D":{"a":8,"b":2}},"conditions":["nonSeqFull","nonSeqPartial","seqNoFeedback","seqFeedback"],"classroomPairings":[["A","B"],["C","D"]],"coinWeights":[0.2,0.5,0.8],"subjectId":"A29GJGXFU9BQQG","assignmentId":"373ERPL3YPU0UUY1QUB7TZS2U31RTV","hitId":"3Z3R5YC0P3915KVY8X6BNRIWSQNFTT","url":"https://gershmanlab.com/experiments/alicia/teaching/experiment/?hitId=3Z3R5YC0P3915KVY8X6BNRIWSQNFTT&workerId=A29GJGXFU9BQQG&assignmentId=373ERPL3YPU0UUY1QUB7TZS2U31RTV&a=3R379&tp_a=3R379&b=373ERPL3YPU0UUY1QUB7TZS2U31RTV&tp_b=373ERPL3YPU0UUY1QUB7TZS2U31RTV&c=365799&tp_c=365799","firstResponseHeads":5,"firstResponseTails":5,"secondResponseHeads":5,"secondResponseTails":5,"totalHeads":10,"totalTails":10,"studentIndex":19,"studentTrueHypers":{"a":1,"b":4},"studentGuess":0.44,"delta":0.06,"bonus":0,"bonusSoFar":1.3,"totalExamples":20},{"rt":10599,"response":{"heads":"8","tails":"1"},"type":"response","condition":"nonSeqPartial","trueTheta":0.8,"classrooms":["C","D"],"studentTrueClassroom":"D","exampleSet":"first","trial_type":"survey-html-form","trial_index":196,"time_elapsed":1809717,"internal_node_id":"0.0-162.0-0.0","params":{"nStudents":24,"maxFlips":30,"completionMinutes":45,"basePay":8,"maxBonus":9,"perTrialBonus":0.5,"perTrialBonusThreshold":0.05,"exampleCost":0.01},"classroomParams":{"A":{"a":1,"b":4},"B":{"a":4,"b":1},"C":{"a":2,"b":8},"D":{"a":8,"b":2}},"conditions":["nonSeqFull","nonSeqPartial","seqNoFeedback","seqFeedback"],"classroomPairings":[["A","B"],["C","D"]],"coinWeights":[0.2,0.5,0.8],"subjectId":"A29GJGXFU9BQQG","assignmentId":"373ERPL3YPU0UUY1QUB7TZS2U31RTV","hitId":"3Z3R5YC0P3915KVY8X6BNRIWSQNFTT","url":"https://gershmanlab.com/experiments/alicia/teaching/experiment/?hitId=3Z3R5YC0P3915KVY8X6BNRIWSQNFTT&workerId=A29GJGXFU9BQQG&assignmentId=373ERPL3YPU0UUY1QUB7TZS2U31RTV&a=3R379&tp_a=3R379&b=373ERPL3YPU0UUY1QUB7TZS2U31RTV&tp_b=373ERPL3YPU0UUY1QUB7TZS2U31RTV&c=365799&tp_c=365799","heads":8,"tails":1,"studentIndex":20,"studentTrueHypers":{"a":8,"b":2},"studentGuess":0.8421052631578947,"delta":0.042105263157894646,"totalExamples":9,"bonus":0.41,"bonusSoFar":1.71},{"rt":4020,"response":{"heads":"8","tails":"1"},"type":"response","condition":"nonSeqPartial","trueTheta":0.8,"classrooms":["A","B"],"studentTrueClassroom":"A","exampleSet":"first","trial_type":"survey-html-form","trial_index":202,"time_elapsed":1827547,"internal_node_id":"0.0-168.0-0.0","params":{"nStudents":24,"maxFlips":30,"completionMinutes":45,"basePay":8,"maxBonus":9,"perTrialBonus":0.5,"perTrialBonusThreshold":0.05,"exampleCost":0.01},"classroomParams":{"A":{"a":1,"b":4},"B":{"a":4,"b":1},"C":{"a":2,"b":8},"D":{"a":8,"b":2}},"conditions":["nonSeqFull","nonSeqPartial","seqNoFeedback","seqFeedback"],"classroomPairings":[["A","B"],["C","D"]],"coinWeights":[0.2,0.5,0.8],"subjectId":"A29GJGXFU9BQQG","assignmentId":"373ERPL3YPU0UUY1QUB7TZS2U31RTV","hitId":"3Z3R5YC0P3915KVY8X6BNRIWSQNFTT","url":"https://gershmanlab.com/experiments/alicia/teaching/experiment/?hitId=3Z3R5YC0P3915KVY8X6BNRIWSQNFTT&workerId=A29GJGXFU9BQQG&assignmentId=373ERPL3YPU0UUY1QUB7TZS2U31RTV&a=3R379&tp_a=3R379&b=373ERPL3YPU0UUY1QUB7TZS2U31RTV&tp_b=373ERPL3YPU0UUY1QUB7TZS2U31RTV&c=365799&tp_c=365799","heads":8,"tails":1,"studentIndex":21,"studentTrueHypers":{"a":1,"b":4},"studentGuess":0.6428571428571429,"delta":0.15714285714285714,"totalExamples":9,"bonus":0,"bonusSoFar":1.71},{"rt":5767,"response":{"heads":"1","tails":"8"},"type":"response","condition":"seqNoFeedback","trueTheta":0.2,"classrooms":["C","D"],"studentTrueClassroom":"C","exampleSet":"first","trial_type":"survey-html-form","trial_index":208,"time_elapsed":1845595,"internal_node_id":"0.0-174.0-0.0","params":{"nStudents":24,"maxFlips":30,"completionMinutes":45,"basePay":8,"maxBonus":9,"perTrialBonus":0.5,"perTrialBonusThreshold":0.05,"exampleCost":0.01},"classroomParams":{"A":{"a":1,"b":4},"B":{"a":4,"b":1},"C":{"a":2,"b":8},"D":{"a":8,"b":2}},"conditions":["nonSeqFull","nonSeqPartial","seqNoFeedback","seqFeedback"],"classroomPairings":[["A","B"],["C","D"]],"coinWeights":[0.2,0.5,0.8],"subjectId":"A29GJGXFU9BQQG","assignmentId":"373ERPL3YPU0UUY1QUB7TZS2U31RTV","hitId":"3Z3R5YC0P3915KVY8X6BNRIWSQNFTT","url":"https://gershmanlab.com/experiments/alicia/teaching/experiment/?hitId=3Z3R5YC0P3915KVY8X6BNRIWSQNFTT&workerId=A29GJGXFU9BQQG&assignmentId=373ERPL3YPU0UUY1QUB7TZS2U31RTV&a=3R379&tp_a=3R379&b=373ERPL3YPU0UUY1QUB7TZS2U31RTV&tp_b=373ERPL3YPU0UUY1QUB7TZS2U31RTV&c=365799&tp_c=365799","heads":1,"tails":8,"studentIndex":22,"studentTrueHypers":{"a":2,"b":8},"studentGuess":0.15789473684210525,"delta":0.04210526315789476,"totalExamples":9,"bonusSoFar":1.71},{"rt":9996,"response":{"heads":"1","tails":"8"},"type":"response","condition":"seqNoFeedback","trueTheta":0.2,"classrooms":["C","D"],"studentTrueClassroom":"C","exampleSet":"second","trial_type":"survey-html-form","trial_index":211,"time_elapsed":1861100,"internal_node_id":"0.0-177.0-0.0","params":{"nStudents":24,"maxFlips":30,"completionMinutes":45,"basePay":8,"maxBonus":9,"perTrialBonus":0.5,"perTrialBonusThreshold":0.05,"exampleCost":0.01},"classroomParams":{"A":{"a":1,"b":4},"B":{"a":4,"b":1},"C":{"a":2,"b":8},"D":{"a":8,"b":2}},"conditions":["nonSeqFull","nonSeqPartial","seqNoFeedback","seqFeedback"],"classroomPairings":[["A","B"],["C","D"]],"coinWeights":[0.2,0.5,0.8],"subjectId":"A29GJGXFU9BQQG","assignmentId":"373ERPL3YPU0UUY1QUB7TZS2U31RTV","hitId":"3Z3R5YC0P3915KVY8X6BNRIWSQNFTT","url":"https://gershmanlab.com/experiments/alicia/teaching/experiment/?hitId=3Z3R5YC0P3915KVY8X6BNRIWSQNFTT&workerId=A29GJGXFU9BQQG&assignmentId=373ERPL3YPU0UUY1QUB7TZS2U31RTV&a=3R379&tp_a=3R379&b=373ERPL3YPU0UUY1QUB7TZS2U31RTV&tp_b=373ERPL3YPU0UUY1QUB7TZS2U31RTV&c=365799&tp_c=365799","firstResponseHeads":1,"firstResponseTails":8,"secondResponseHeads":1,"secondResponseTails":8,"totalHeads":2,"totalTails":16,"studentIndex":22,"studentTrueHypers":{"a":2,"b":8},"studentGuess":0.14285714285714285,"delta":0.05714285714285716,"bonus":0,"bonusSoFar":1.71,"totalExamples":18},{"rt":12119,"response":{"heads":"7","tails":"1"},"type":"response","condition":"seqNoFeedback","trueTheta":0.8,"classrooms":["A","B"],"studentTrueClassroom":"A","exampleSet":"first","trial_type":"survey-html-form","trial_index":217,"time_elapsed":1884309,"internal_node_id":"0.0-183.0-0.0","params":{"nStudents":24,"maxFlips":30,"completionMinutes":45,"basePay":8,"maxBonus":9,"perTrialBonus":0.5,"perTrialBonusThreshold":0.05,"exampleCost":0.01},"classroomParams":{"A":{"a":1,"b":4},"B":{"a":4,"b":1},"C":{"a":2,"b":8},"D":{"a":8,"b":2}},"conditions":["nonSeqFull","nonSeqPartial","seqNoFeedback","seqFeedback"],"classroomPairings":[["A","B"],["C","D"]],"coinWeights":[0.2,0.5,0.8],"subjectId":"A29GJGXFU9BQQG","assignmentId":"373ERPL3YPU0UUY1QUB7TZS2U31RTV","hitId":"3Z3R5YC0P3915KVY8X6BNRIWSQNFTT","url":"https://gershmanlab.com/experiments/alicia/teaching/experiment/?hitId=3Z3R5YC0P3915KVY8X6BNRIWSQNFTT&workerId=A29GJGXFU9BQQG&assignmentId=373ERPL3YPU0UUY1QUB7TZS2U31RTV&a=3R379&tp_a=3R379&b=373ERPL3YPU0UUY1QUB7TZS2U31RTV&tp_b=373ERPL3YPU0UUY1QUB7TZS2U31RTV&c=365799&tp_c=365799","heads":7,"tails":1,"studentIndex":23,"studentTrueHypers":{"a":1,"b":4},"studentGuess":0.6153846153846154,"delta":0.18461538461538463,"totalExamples":8,"bonusSoFar":1.71},{"rt":5953,"response":{"heads":"7","tails":"1"},"type":"response","condition":"seqNoFeedback","trueTheta":0.8,"classrooms":["A","B"],"studentTrueClassroom":"A","exampleSet":"second","trial_type":"survey-html-form","trial_index":220,"time_elapsed":1896526,"internal_node_id":"0.0-186.0-0.0","params":{"nStudents":24,"maxFlips":30,"completionMinutes":45,"basePay":8,"maxBonus":9,"perTrialBonus":0.5,"perTrialBonusThreshold":0.05,"exampleCost":0.01},"classroomParams":{"A":{"a":1,"b":4},"B":{"a":4,"b":1},"C":{"a":2,"b":8},"D":{"a":8,"b":2}},"conditions":["nonSeqFull","nonSeqPartial","seqNoFeedback","seqFeedback"],"classroomPairings":[["A","B"],["C","D"]],"coinWeights":[0.2,0.5,0.8],"subjectId":"A29GJGXFU9BQQG","assignmentId":"373ERPL3YPU0UUY1QUB7TZS2U31RTV","hitId":"3Z3R5YC0P3915KVY8X6BNRIWSQNFTT","url":"https://gershmanlab.com/experiments/alicia/teaching/experiment/?hitId=3Z3R5YC0P3915KVY8X6BNRIWSQNFTT&workerId=A29GJGXFU9BQQG&assignmentId=373ERPL3YPU0UUY1QUB7TZS2U31RTV&a=3R379&tp_a=3R379&b=373ERPL3YPU0UUY1QUB7TZS2U31RTV&tp_b=373ERPL3YPU0UUY1QUB7TZS2U31RTV&c=365799&tp_c=365799","firstResponseHeads":7,"firstResponseTails":1,"secondResponseHeads":7,"secondResponseTails":1,"totalHeads":14,"totalTails":2,"studentIndex":23,"studentTrueHypers":{"a":1,"b":4},"studentGuess":0.7142857142857143,"delta":0.08571428571428574,"bonus":0,"bonusSoFar":1.71,"totalExamples":16},{"rt":6814,"response":{"gender":"female","age":"49","understood":"yes","comments":""},"type":"response","trial_type":"survey-html-form","trial_index":224,"time_elapsed":1911686,"internal_node_id":"0.0-191.0","params":{"nStudents":24,"maxFlips":30,"completionMinutes":45,"basePay":8,"maxBonus":9,"perTrialBonus":0.5,"perTrialBonusThreshold":0.05,"exampleCost":0.01},"classroomParams":{"A":{"a":1,"b":4},"B":{"a":4,"b":1},"C":{"a":2,"b":8},"D":{"a":8,"b":2}},"conditions":["nonSeqFull","nonSeqPartial","seqNoFeedback","seqFeedback"],"classroomPairings":[["A","B"],["C","D"]],"coinWeights":[0.2,0.5,0.8],"subjectId":"A29GJGXFU9BQQG","assignmentId":"373ERPL3YPU0UUY1QUB7TZS2U31RTV","hitId":"3Z3R5YC0P3915KVY8X6BNRIWSQNFTT","url":"https://gershmanlab.com/experiments/alicia/teaching/experiment/?hitId=3Z3R5YC0P3915KVY8X6BNRIWSQNFTT&workerId=A29GJGXFU9BQQG&assignmentId=373ERPL3YPU0UUY1QUB7TZS2U31RTV&a=3R379&tp_a=3R379&b=373ERPL3YPU0UUY1QUB7TZS2U31RTV&tp_b=373ERPL3YPU0UUY1QUB7TZS2U31RTV&c=365799&tp_c=365799","totalBonus":1.71}]