[{"rt":69009,"response":{"heads":"10","tails":"10"},"type":"response","condition":"seqNoFeedback","trueTheta":0.5,"classrooms":["A","B"],"studentTrueClassroom":"B","exampleSet":"first","trial_type":"survey-html-form","trial_index":7,"time_elapsed":1421929,"internal_node_id":"0.0-6.0-0.0","params":{"nStudents":24,"maxFlips":30,"completionMinutes":45,"basePay":8,"maxBonus":9,"perTrialBonus":0.5,"perTrialBonusThreshold":0.05,"exampleCost":0.01},"classroomParams":{"A":{"a":1,"b":4},"B":{"a":4,"b":1},"C":{"a":2,"b":8},"D":{"a":8,"b":2}},"conditions":["nonSeqFull","nonSeqPartial","seqNoFeedback","seqFeedback"],"classroomPairings":[["A","B"],["C","D"]],"coinWeights":[0.2,0.5,0.8],"subjectId":"A2BK45LZGGWPLX","assignmentId":"3TS1AR6UQR0GT6WLMW8C7EM12IZF7C","hitId":"32TZXEA1OL6QYKM0MXQIQH2ABHN14I","url":"https://gershmanlab.com/experiments/alicia/teaching/experiment/?hitId=32TZXEA1OL6QYKM0MXQIQH2ABHN14I&workerId=A2BK45LZGGWPLX&assignmentId=3TS1AR6UQR0GT6WLMW8C7EM12IZF7C&a=UAST9&tp_a=UAST9&b=3TS1AR6UQR0GT6WLMW8C7EM12IZF7C&tp_b=3TS1AR6UQR0GT6WLMW8C7EM12IZF7C&c=365799&tp_c=365799","heads":10,"tails":10,"studentIndex":0,"studentTrueHypers":{"a":4,"b":1},"studentGuess":0.56,"delta":0.06000000000000005,"totalExamples":20,"bonusSoFar":0},{"rt":19188,"response":{"heads":"10","tails":"10"},"type":"response","condition":"seqNoFeedback","trueTheta":0.5,"classrooms":["A","B"],"studentTrueClassroom":"B","exampleSet":"second","trial_type":"survey-html-form","trial_index":10,"time_elapsed":1447891,"internal_node_id":"0.0-9.0-0.0","params":{"nStudents":24,"maxFlips":30,"completionMinutes":45,"basePay":8,"maxBonus":9,"perTrialBonus":0.5,"perTrialBonusThreshold":0.05,"exampleCost":0.01},"classroomParams":{"A":{"a":1,"b":4},"B":{"a":4,"b":1},"C":{"a":2,"b":8},"D":{"a":8,"b":2}},"conditions":["nonSeqFull","nonSeqPartial","seqNoFeedback","seqFeedback"],"classroomPairings":[["A","B"],["C","D"]],"coinWeights":[0.2,0.5,0.8],"subjectId":"A2BK45LZGGWPLX","assignmentId":"3TS1AR6UQR0GT6WLMW8C7EM12IZF7C","hitId":"32TZXEA1OL6QYKM0MXQIQH2ABHN14I","url":"https://gershmanlab.com/experiments/alicia/teaching/experiment/?hitId=32TZXEA1OL6QYKM0MXQIQH2ABHN14I&workerId=A2BK45LZGGWPLX&assignmentId=3TS1AR6UQR0GT6WLMW8C7EM12IZF7C&a=UAST9&tp_a=UAST9&b=3TS1AR6UQR0GT6WLMW8C7EM12IZF7C&tp_b=3TS1AR6UQR0GT6WLMW8C7EM12IZF7C&c=365799&tp_c=365799","firstResponseHeads":10,"firstResponseTails":10,"secondResponseHeads":10,"secondResponseTails":10,"totalHeads":20,"totalTails":20,"studentIndex":0,"studentTrueHypers":{"a":4,"b":1},"studentGuess":0.5333333333333333,"delta":0.033333333333333326,"bonus":0.1,"bonusSoFar":0.1,"totalExamples":40},{"rt":77364,"response":{"heads":"16","tails":"4"},"type":"response","condition":"nonSeqPartial","trueTheta":0.8,"classrooms":["A","B"],"studentTrueClassroom":"A","exampleSet":"first","trial_type":"survey-html-form","trial_index":16,"time_elapsed":1552361,"internal_node_id":"0.0-15.0-0.0","params":{"nStudents":24,"maxFlips":30,"completionMinutes":45,"basePay":8,"maxBonus":9,"perTrialBonus":0.5,"perTrialBonusThreshold":0.05,"exampleCost":0.01},"classroomParams":{"A":{"a":1,"b":4},"B":{"a":4,"b":1},"C":{"a":2,"b":8},"D":{"a":8,"b":2}},"conditions":["nonSeqFull","nonSeqPartial","seqNoFeedback","seqFeedback"],"classroomPairings":[["A","B"],["C","D"]],"coinWeights":[0.2,0.5,0.8],"subjectId":"A2BK45LZGGWPLX","assignmentId":"3TS1AR6UQR0GT6WLMW8C7EM12IZF7C","hitId":"32TZXEA1OL6QYKM0MXQIQH2ABHN14I","url":"https://gershmanlab.com/experiments/alicia/teaching/experiment/?hitId=32TZXEA1OL6QYKM0MXQIQH2ABHN14I&workerId=A2BK45LZGGWPLX&assignmentId=3TS1AR6UQR0GT6WLMW8C7EM12IZF7C&a=UAST9&tp_a=UAST9&b=3TS1AR6UQR0GT6WLMW8C7EM12IZF7C&tp_b=3TS1AR6UQR0GT6WLMW8C7EM12IZF7C&c=365799&tp_c=365799","heads":16,"tails":4,"studentIndex":1,"studentTrueHypers":{"a":1,"b":4},"studentGuess":0.68,"delta":0.12,"totalExamples":20,"bonus":0,"bonusSoFar":0.1},{"rt":17859,"response":{"heads":"6","tails":"0"},"type":"response","condition":"nonSeqFull","trueTheta":0.5,"classrooms":["C","D"],"studentTrueClassroom":"C","exampleSet":"first","trial_type":"survey-html-form","trial_index":22,"time_elapsed":1615279,"internal_node_id":"0.0-21.0-0.0","params":{"nStudents":24,"maxFlips":30,"completionMinutes":45,"basePay":8,"maxBonus":9,"perTrialBonus":0.5,"perTrialBonusThreshold":0.05,"exampleCost":0.01},"classroomParams":{"A":{"a":1,"b":4},"B":{"a":4,"b":1},"C":{"a":2,"b":8},"D":{"a":8,"b":2}},"conditions":["nonSeqFull","nonSeqPartial","seqNoFeedback","seqFeedback"],"classroomPairings":[["A","B"],["C","D"]],"coinWeights":[0.2,0.5,0.8],"subjectId":"A2BK45LZGGWPLX","assignmentId":"3TS1AR6UQR0GT6WLMW8C7EM12IZF7C","hitId":"32TZXEA1OL6QYKM0MXQIQH2ABHN14I","url":"https://gershmanlab.com/experiments/alicia/teaching/experiment/?hitId=32TZXEA1OL6QYKM0MXQIQH2ABHN14I&workerId=A2BK45LZGGWPLX&assignmentId=3TS1AR6UQR0GT6WLMW8C7EM12IZF7C&a=UAST9&tp_a=UAST9&b=3TS1AR6UQR0GT6WLMW8C7EM12IZF7C&tp_b=3TS1AR6UQR0GT6WLMW8C7EM12IZF7C&c=365799&tp_c=365799","heads":6,"tails":0,"studentIndex":2,"studentTrueHypers":{"a":2,"b":8},"studentGuess":0.5,"delta":0,"totalExamples":6,"bonus":0.44,"bonusSoFar":0.54},{"rt":68790,"response":{"heads":"4","tails":"16"},"type":"response","condition":"seqNoFeedback","trueTheta":0.2,"classrooms":["A","B"],"studentTrueClassroom":"A","exampleSet":"first","trial_type":"survey-html-form","trial_index":28,"time_elapsed":1725995,"internal_node_id":"0.0-27.0-0.0","params":{"nStudents":24,"maxFlips":30,"completionMinutes":45,"basePay":8,"maxBonus":9,"perTrialBonus":0.5,"perTrialBonusThreshold":0.05,"exampleCost":0.01},"classroomParams":{"A":{"a":1,"b":4},"B":{"a":4,"b":1},"C":{"a":2,"b":8},"D":{"a":8,"b":2}},"conditions":["nonSeqFull","nonSeqPartial","seqNoFeedback","seqFeedback"],"classroomPairings":[["A","B"],["C","D"]],"coinWeights":[0.2,0.5,0.8],"subjectId":"A2BK45LZGGWPLX","assignmentId":"3TS1AR6UQR0GT6WLMW8C7EM12IZF7C","hitId":"32TZXEA1OL6QYKM0MXQIQH2ABHN14I","url":"https://gershmanlab.com/experiments/alicia/teaching/experiment/?hitId=32TZXEA1OL6QYKM0MXQIQH2ABHN14I&workerId=A2BK45LZGGWPLX&assignmentId=3TS1AR6UQR0GT6WLMW8C7EM12IZF7C&a=UAST9&tp_a=UAST9&b=3TS1AR6UQR0GT6WLMW8C7EM12IZF7C&tp_b=3TS1AR6UQR0GT6WLMW8C7EM12IZF7C&c=365799&tp_c=365799","heads":4,"tails":16,"studentIndex":3,"studentTrueHypers":{"a":1,"b":4},"studentGuess":0.2,"delta":0,"totalExamples":20,"bonusSoFar":0.54},{"rt":11197,"response":{"heads":"4","tails":"16"},"type":"response","condition":"seqNoFeedback","trueTheta":0.2,"classrooms":["A","B"],"studentTrueClassroom":"A","exampleSet":"second","trial_type":"survey-html-form","trial_index":31,"time_elapsed":1743217,"internal_node_id":"0.0-30.0-0.0","params":{"nStudents":24,"maxFlips":30,"completionMinutes":45,"basePay":8,"maxBonus":9,"perTrialBonus":0.5,"perTrialBonusThreshold":0.05,"exampleCost":0.01},"classroomParams":{"A":{"a":1,"b":4},"B":{"a":4,"b":1},"C":{"a":2,"b":8},"D":{"a":8,"b":2}},"conditions":["nonSeqFull","nonSeqPartial","seqNoFeedback","seqFeedback"],"classroomPairings":[["A","B"],["C","D"]],"coinWeights":[0.2,0.5,0.8],"subjectId":"A2BK45LZGGWPLX","assignmentId":"3TS1AR6UQR0GT6WLMW8C7EM12IZF7C","hitId":"32TZXEA1OL6QYKM0MXQIQH2ABHN14I","url":"https://gershmanlab.com/experiments/alicia/teaching/experiment/?hitId=32TZXEA1OL6QYKM0MXQIQH2ABHN14I&workerId=A2BK45LZGGWPLX&assignmentId=3TS1AR6UQR0GT6WLMW8C7EM12IZF7C&a=UAST9&tp_a=UAST9&b=3TS1AR6UQR0GT6WLMW8C7EM12IZF7C&tp_b=3TS1AR6UQR0GT6WLMW8C7EM12IZF7C&c=365799&tp_c=365799","firstResponseHeads":4,"firstResponseTails":16,"secondResponseHeads":4,"secondResponseTails":16,"totalHeads":8,"totalTails":32,"studentIndex":3,"studentTrueHypers":{"a":1,"b":4},"studentGuess":0.2,"delta":0,"bonus":0.1,"bonusSoFar":0.64,"totalExamples":40},{"rt":14139,"response":{"heads":"15","tails":"15"},"type":"response","condition":"seqFeedback","trueTheta":0.5,"classrooms":["C","D"],"studentTrueClassroom":"C","exampleSet":"first","trial_type":"survey-html-form","trial_index":37,"time_elapsed":1798282,"internal_node_id":"0.0-36.0-0.0","params":{"nStudents":24,"maxFlips":30,"completionMinutes":45,"basePay":8,"maxBonus":9,"perTrialBonus":0.5,"perTrialBonusThreshold":0.05,"exampleCost":0.01},"classroomParams":{"A":{"a":1,"b":4},"B":{"a":4,"b":1},"C":{"a":2,"b":8},"D":{"a":8,"b":2}},"conditions":["nonSeqFull","nonSeqPartial","seqNoFeedback","seqFeedback"],"classroomPairings":[["A","B"],["C","D"]],"coinWeights":[0.2,0.5,0.8],"subjectId":"A2BK45LZGGWPLX","assignmentId":"3TS1AR6UQR0GT6WLMW8C7EM12IZF7C","hitId":"32TZXEA1OL6QYKM0MXQIQH2ABHN14I","url":"https://gershmanlab.com/experiments/alicia/teaching/experiment/?hitId=32TZXEA1OL6QYKM0MXQIQH2ABHN14I&workerId=A2BK45LZGGWPLX&assignmentId=3TS1AR6UQR0GT6WLMW8C7EM12IZF7C&a=UAST9&tp_a=UAST9&b=3TS1AR6UQR0GT6WLMW8C7EM12IZF7C&tp_b=3TS1AR6UQR0GT6WLMW8C7EM12IZF7C&c=365799&tp_c=365799","heads":15,"tails":15,"studentIndex":4,"studentTrueHypers":{"a":2,"b":8},"studentGuess":0.425,"delta":0.07500000000000001,"totalExamples":30,"bonusSoFar":0.64},{"rt":42369,"response":{"heads":"6","tails":"0"},"type":"response","condition":"seqFeedback","trueTheta":0.5,"classrooms":["C","D"],"studentTrueClassroom":"C","exampleSet":"second","trial_type":"survey-html-form","trial_index":41,"time_elapsed":1859187,"internal_node_id":"0.0-40.0-0.0","params":{"nStudents":24,"maxFlips":30,"completionMinutes":45,"basePay":8,"maxBonus":9,"perTrialBonus":0.5,"perTrialBonusThreshold":0.05,"exampleCost":0.01},"classroomParams":{"A":{"a":1,"b":4},"B":{"a":4,"b":1},"C":{"a":2,"b":8},"D":{"a":8,"b":2}},"conditions":["nonSeqFull","nonSeqPartial","seqNoFeedback","seqFeedback"],"classroomPairings":[["A","B"],["C","D"]],"coinWeights":[0.2,0.5,0.8],"subjectId":"A2BK45LZGGWPLX","assignmentId":"3TS1AR6UQR0GT6WLMW8C7EM12IZF7C","hitId":"32TZXEA1OL6QYKM0MXQIQH2ABHN14I","url":"https://gershmanlab.com/experiments/alicia/teaching/experiment/?hitId=32TZXEA1OL6QYKM0MXQIQH2ABHN14I&workerId=A2BK45LZGGWPLX&assignmentId=3TS1AR6UQR0GT6WLMW8C7EM12IZF7C&a=UAST9&tp_a=UAST9&b=3TS1AR6UQR0GT6WLMW8C7EM12IZF7C&tp_b=3TS1AR6UQR0GT6WLMW8C7EM12IZF7C&c=365799&tp_c=365799","firstResponseHeads":15,"firstResponseTails":15,"secondResponseHeads":6,"secondResponseTails":0,"totalHeads":21,"totalTails":15,"studentIndex":4,"studentTrueHypers":{"a":2,"b":8},"studentGuess":0.5,"delta":0,"bonus":0.14,"bonusSoFar":0.78,"totalExamples":36},{"rt":10195,"response":{"heads":"15","tails":"15"},"type":"response","condition":"seqNoFeedback","trueTheta":0.5,"classrooms":["C","D"],"studentTrueClassroom":"C","exampleSet":"first","trial_type":"survey-html-form","trial_index":47,"time_elapsed":1894569,"internal_node_id":"0.0-46.0-0.0","params":{"nStudents":24,"maxFlips":30,"completionMinutes":45,"basePay":8,"maxBonus":9,"perTrialBonus":0.5,"perTrialBonusThreshold":0.05,"exampleCost":0.01},"classroomParams":{"A":{"a":1,"b":4},"B":{"a":4,"b":1},"C":{"a":2,"b":8},"D":{"a":8,"b":2}},"conditions":["nonSeqFull","nonSeqPartial","seqNoFeedback","seqFeedback"],"classroomPairings":[["A","B"],["C","D"]],"coinWeights":[0.2,0.5,0.8],"subjectId":"A2BK45LZGGWPLX","assignmentId":"3TS1AR6UQR0GT6WLMW8C7EM12IZF7C","hitId":"32TZXEA1OL6QYKM0MXQIQH2ABHN14I","url":"https://gershmanlab.com/experiments/alicia/teaching/experiment/?hitId=32TZXEA1OL6QYKM0MXQIQH2ABHN14I&workerId=A2BK45LZGGWPLX&assignmentId=3TS1AR6UQR0GT6WLMW8C7EM12IZF7C&a=UAST9&tp_a=UAST9&b=3TS1AR6UQR0GT6WLMW8C7EM12IZF7C&tp_b=3TS1AR6UQR0GT6WLMW8C7EM12IZF7C&c=365799&tp_c=365799","heads":15,"tails":15,"studentIndex":5,"studentTrueHypers":{"a":2,"b":8},"studentGuess":0.425,"delta":0.07500000000000001,"totalExamples":30,"bonusSoFar":0.78},{"rt":15408,"response":{"heads":"15","tails":"15"},"type":"response","condition":"seqNoFeedback","trueTheta":0.5,"classrooms":["C","D"],"studentTrueClassroom":"C","exampleSet":"second","trial_type":"survey-html-form","trial_index":50,"time_elapsed":1916500,"internal_node_id":"0.0-49.0-0.0","params":{"nStudents":24,"maxFlips":30,"completionMinutes":45,"basePay":8,"maxBonus":9,"perTrialBonus":0.5,"perTrialBonusThreshold":0.05,"exampleCost":0.01},"classroomParams":{"A":{"a":1,"b":4},"B":{"a":4,"b":1},"C":{"a":2,"b":8},"D":{"a":8,"b":2}},"conditions":["nonSeqFull","nonSeqPartial","seqNoFeedback","seqFeedback"],"classroomPairings":[["A","B"],["C","D"]],"coinWeights":[0.2,0.5,0.8],"subjectId":"A2BK45LZGGWPLX","assignmentId":"3TS1AR6UQR0GT6WLMW8C7EM12IZF7C","hitId":"32TZXEA1OL6QYKM0MXQIQH2ABHN14I","url":"https://gershmanlab.com/experiments/alicia/teaching/experiment/?hitId=32TZXEA1OL6QYKM0MXQIQH2ABHN14I&workerId=A2BK45LZGGWPLX&assignmentId=3TS1AR6UQR0GT6WLMW8C7EM12IZF7C&a=UAST9&tp_a=UAST9&b=3TS1AR6UQR0GT6WLMW8C7EM12IZF7C&tp_b=3TS1AR6UQR0GT6WLMW8C7EM12IZF7C&c=365799&tp_c=365799","firstResponseHeads":15,"firstResponseTails":15,"secondResponseHeads":15,"secondResponseTails":15,"totalHeads":30,"totalTails":30,"studentIndex":5,"studentTrueHypers":{"a":2,"b":8},"studentGuess":0.45714285714285713,"delta":0.04285714285714287,"bonus":0,"bonusSoFar":0.78,"totalExamples":60},{"rt":71124,"response":{"heads":"30","tails":"0"},"type":"response","condition":"seqNoFeedback","trueTheta":0.8,"classrooms":["A","B"],"studentTrueClassroom":"B","exampleSet":"first","trial_type":"survey-html-form","trial_index":56,"time_elapsed":2004692,"internal_node_id":"0.0-55.0-0.0","params":{"nStudents":24,"maxFlips":30,"completionMinutes":45,"basePay":8,"maxBonus":9,"perTrialBonus":0.5,"perTrialBonusThreshold":0.05,"exampleCost":0.01},"classroomParams":{"A":{"a":1,"b":4},"B":{"a":4,"b":1},"C":{"a":2,"b":8},"D":{"a":8,"b":2}},"conditions":["nonSeqFull","nonSeqPartial","seqNoFeedback","seqFeedback"],"classroomPairings":[["A","B"],["C","D"]],"coinWeights":[0.2,0.5,0.8],"subjectId":"A2BK45LZGGWPLX","assignmentId":"3TS1AR6UQR0GT6WLMW8C7EM12IZF7C","hitId":"32TZXEA1OL6QYKM0MXQIQH2ABHN14I","url":"https://gershmanlab.com/experiments/alicia/teaching/experiment/?hitId=32TZXEA1OL6QYKM0MXQIQH2ABHN14I&workerId=A2BK45LZGGWPLX&assignmentId=3TS1AR6UQR0GT6WLMW8C7EM12IZF7C&a=UAST9&tp_a=UAST9&b=3TS1AR6UQR0GT6WLMW8C7EM12IZF7C&tp_b=3TS1AR6UQR0GT6WLMW8C7EM12IZF7C&c=365799&tp_c=365799","heads":30,"tails":0,"studentIndex":6,"studentTrueHypers":{"a":4,"b":1},"studentGuess":0.9714285714285714,"delta":0.17142857142857137,"totalExamples":30,"bonusSoFar":0.78},{"rt":31615,"response":{"heads":"4","tails":"1"},"type":"response","condition":"seqNoFeedback","trueTheta":0.8,"classrooms":["A","B"],"studentTrueClassroom":"B","exampleSet":"second","trial_type":"survey-html-form","trial_index":59,"time_elapsed":2043585,"internal_node_id":"0.0-58.0-0.0","params":{"nStudents":24,"maxFlips":30,"completionMinutes":45,"basePay":8,"maxBonus":9,"perTrialBonus":0.5,"perTrialBonusThreshold":0.05,"exampleCost":0.01},"classroomParams":{"A":{"a":1,"b":4},"B":{"a":4,"b":1},"C":{"a":2,"b":8},"D":{"a":8,"b":2}},"conditions":["nonSeqFull","nonSeqPartial","seqNoFeedback","seqFeedback"],"classroomPairings":[["A","B"],["C","D"]],"coinWeights":[0.2,0.5,0.8],"subjectId":"A2BK45LZGGWPLX","assignmentId":"3TS1AR6UQR0GT6WLMW8C7EM12IZF7C","hitId":"32TZXEA1OL6QYKM0MXQIQH2ABHN14I","url":"https://gershmanlab.com/experiments/alicia/teaching/experiment/?hitId=32TZXEA1OL6QYKM0MXQIQH2ABHN14I&workerId=A2BK45LZGGWPLX&assignmentId=3TS1AR6UQR0GT6WLMW8C7EM12IZF7C&a=UAST9&tp_a=UAST9&b=3TS1AR6UQR0GT6WLMW8C7EM12IZF7C&tp_b=3TS1AR6UQR0GT6WLMW8C7EM12IZF7C&c=365799&tp_c=365799","firstResponseHeads":30,"firstResponseTails":0,"secondResponseHeads":4,"secondResponseTails":1,"totalHeads":34,"totalTails":1,"studentIndex":6,"studentTrueHypers":{"a":4,"b":1},"studentGuess":0.95,"delta":0.1499999999999999,"bonus":0,"bonusSoFar":0.78,"totalExamples":35},{"rt":74262,"response":{"heads":"0","tails":"30"},"type":"response","condition":"nonSeqFull","trueTheta":0.2,"classrooms":["C","D"],"studentTrueClassroom":"D","exampleSet":"first","trial_type":"survey-html-form","trial_index":65,"time_elapsed":2135788,"internal_node_id":"0.0-64.0-0.0","params":{"nStudents":24,"maxFlips":30,"completionMinutes":45,"basePay":8,"maxBonus":9,"perTrialBonus":0.5,"perTrialBonusThreshold":0.05,"exampleCost":0.01},"classroomParams":{"A":{"a":1,"b":4},"B":{"a":4,"b":1},"C":{"a":2,"b":8},"D":{"a":8,"b":2}},"conditions":["nonSeqFull","nonSeqPartial","seqNoFeedback","seqFeedback"],"classroomPairings":[["A","B"],["C","D"]],"coinWeights":[0.2,0.5,0.8],"subjectId":"A2BK45LZGGWPLX","assignmentId":"3TS1AR6UQR0GT6WLMW8C7EM12IZF7C","hitId":"32TZXEA1OL6QYKM0MXQIQH2ABHN14I","url":"https://gershmanlab.com/experiments/alicia/teaching/experiment/?hitId=32TZXEA1OL6QYKM0MXQIQH2ABHN14I&workerId=A2BK45LZGGWPLX&assignmentId=3TS1AR6UQR0GT6WLMW8C7EM12IZF7C&a=UAST9&tp_a=UAST9&b=3TS1AR6UQR0GT6WLMW8C7EM12IZF7C&tp_b=3TS1AR6UQR0GT6WLMW8C7EM12IZF7C&c=365799&tp_c=365799","heads":0,"tails":30,"studentIndex":7,"studentTrueHypers":{"a":8,"b":2},"studentGuess":0.2,"delta":0,"totalExamples":30,"bonus":0.2,"bonusSoFar":0.98},{"rt":14330,"response":{"heads":"0","tails":"0"},"type":"response","condition":"seqFeedback","trueTheta":0.8,"classrooms":["C","D"],"studentTrueClassroom":"D","exampleSet":"first","trial_type":"survey-html-form","trial_index":71,"time_elapsed":2168946,"internal_node_id":"0.0-70.0-0.0","params":{"nStudents":24,"maxFlips":30,"completionMinutes":45,"basePay":8,"maxBonus":9,"perTrialBonus":0.5,"perTrialBonusThreshold":0.05,"exampleCost":0.01},"classroomParams":{"A":{"a":1,"b":4},"B":{"a":4,"b":1},"C":{"a":2,"b":8},"D":{"a":8,"b":2}},"conditions":["nonSeqFull","nonSeqPartial","seqNoFeedback","seqFeedback"],"classroomPairings":[["A","B"],["C","D"]],"coinWeights":[0.2,0.5,0.8],"subjectId":"A2BK45LZGGWPLX","assignmentId":"3TS1AR6UQR0GT6WLMW8C7EM12IZF7C","hitId":"32TZXEA1OL6QYKM0MXQIQH2ABHN14I","url":"https://gershmanlab.com/experiments/alicia/teaching/experiment/?hitId=32TZXEA1OL6QYKM0MXQIQH2ABHN14I&workerId=A2BK45LZGGWPLX&assignmentId=3TS1AR6UQR0GT6WLMW8C7EM12IZF7C&a=UAST9&tp_a=UAST9&b=3TS1AR6UQR0GT6WLMW8C7EM12IZF7C&tp_b=3TS1AR6UQR0GT6WLMW8C7EM12IZF7C&c=365799&tp_c=365799","heads":0,"tails":0,"studentIndex":8,"studentTrueHypers":{"a":8,"b":2},"studentGuess":0.8,"delta":0,"totalExamples":0,"bonusSoFar":0.98},{"rt":16573,"response":{"heads":"0","tails":"0"},"type":"response","condition":"seqFeedback","trueTheta":0.8,"classrooms":["C","D"],"studentTrueClassroom":"D","exampleSet":"first","trial_type":"survey-html-form","trial_index":72,"time_elapsed":2185520,"internal_node_id":"0.0-70.1-0.1","params":{"nStudents":24,"maxFlips":30,"completionMinutes":45,"basePay":8,"maxBonus":9,"perTrialBonus":0.5,"perTrialBonusThreshold":0.05,"exampleCost":0.01},"classroomParams":{"A":{"a":1,"b":4},"B":{"a":4,"b":1},"C":{"a":2,"b":8},"D":{"a":8,"b":2}},"conditions":["nonSeqFull","nonSeqPartial","seqNoFeedback","seqFeedback"],"classroomPairings":[["A","B"],["C","D"]],"coinWeights":[0.2,0.5,0.8],"subjectId":"A2BK45LZGGWPLX","assignmentId":"3TS1AR6UQR0GT6WLMW8C7EM12IZF7C","hitId":"32TZXEA1OL6QYKM0MXQIQH2ABHN14I","url":"https://gershmanlab.com/experiments/alicia/teaching/experiment/?hitId=32TZXEA1OL6QYKM0MXQIQH2ABHN14I&workerId=A2BK45LZGGWPLX&assignmentId=3TS1AR6UQR0GT6WLMW8C7EM12IZF7C&a=UAST9&tp_a=UAST9&b=3TS1AR6UQR0GT6WLMW8C7EM12IZF7C&tp_b=3TS1AR6UQR0GT6WLMW8C7EM12IZF7C&c=365799&tp_c=365799","heads":0,"tails":0,"studentIndex":8,"studentTrueHypers":{"a":8,"b":2},"studentGuess":0.8,"delta":0,"totalExamples":0,"bonusSoFar":0.98},{"rt":9235,"response":{"heads":"0","tails":"0"},"type":"response","condition":"seqFeedback","trueTheta":0.8,"classrooms":["C","D"],"studentTrueClassroom":"D","exampleSet":"first","trial_type":"survey-html-form","trial_index":73,"time_elapsed":2194758,"internal_node_id":"0.0-70.2-0.2","params":{"nStudents":24,"maxFlips":30,"completionMinutes":45,"basePay":8,"maxBonus":9,"perTrialBonus":0.5,"perTrialBonusThreshold":0.05,"exampleCost":0.01},"classroomParams":{"A":{"a":1,"b":4},"B":{"a":4,"b":1},"C":{"a":2,"b":8},"D":{"a":8,"b":2}},"conditions":["nonSeqFull","nonSeqPartial","seqNoFeedback","seqFeedback"],"classroomPairings":[["A","B"],["C","D"]],"coinWeights":[0.2,0.5,0.8],"subjectId":"A2BK45LZGGWPLX","assignmentId":"3TS1AR6UQR0GT6WLMW8C7EM12IZF7C","hitId":"32TZXEA1OL6QYKM0MXQIQH2ABHN14I","url":"https://gershmanlab.com/experiments/alicia/teaching/experiment/?hitId=32TZXEA1OL6QYKM0MXQIQH2ABHN14I&workerId=A2BK45LZGGWPLX&assignmentId=3TS1AR6UQR0GT6WLMW8C7EM12IZF7C&a=UAST9&tp_a=UAST9&b=3TS1AR6UQR0GT6WLMW8C7EM12IZF7C&tp_b=3TS1AR6UQR0GT6WLMW8C7EM12IZF7C&c=365799&tp_c=365799","heads":0,"tails":0,"studentIndex":8,"studentTrueHypers":{"a":8,"b":2},"studentGuess":0.8,"delta":0,"totalExamples":0,"bonusSoFar":0.98},{"rt":20854,"response":{"heads":"0","tails":"0"},"type":"response","condition":"seqFeedback","trueTheta":0.8,"classrooms":["C","D"],"studentTrueClassroom":"D","exampleSet":"first","trial_type":"survey-html-form","trial_index":74,"time_elapsed":2215613,"internal_node_id":"0.0-70.3-0.3","params":{"nStudents":24,"maxFlips":30,"completionMinutes":45,"basePay":8,"maxBonus":9,"perTrialBonus":0.5,"perTrialBonusThreshold":0.05,"exampleCost":0.01},"classroomParams":{"A":{"a":1,"b":4},"B":{"a":4,"b":1},"C":{"a":2,"b":8},"D":{"a":8,"b":2}},"conditions":["nonSeqFull","nonSeqPartial","seqNoFeedback","seqFeedback"],"classroomPairings":[["A","B"],["C","D"]],"coinWeights":[0.2,0.5,0.8],"subjectId":"A2BK45LZGGWPLX","assignmentId":"3TS1AR6UQR0GT6WLMW8C7EM12IZF7C","hitId":"32TZXEA1OL6QYKM0MXQIQH2ABHN14I","url":"https://gershmanlab.com/experiments/alicia/teaching/experiment/?hitId=32TZXEA1OL6QYKM0MXQIQH2ABHN14I&workerId=A2BK45LZGGWPLX&assignmentId=3TS1AR6UQR0GT6WLMW8C7EM12IZF7C&a=UAST9&tp_a=UAST9&b=3TS1AR6UQR0GT6WLMW8C7EM12IZF7C&tp_b=3TS1AR6UQR0GT6WLMW8C7EM12IZF7C&c=365799&tp_c=365799","heads":0,"tails":0,"studentIndex":8,"studentTrueHypers":{"a":8,"b":2},"studentGuess":0.8,"delta":0,"totalExamples":0,"bonusSoFar":0.98},{"rt":111228,"response":{"heads":"10","tails":"0"},"type":"response","condition":"seqFeedback","trueTheta":0.8,"classrooms":["C","D"],"studentTrueClassroom":"D","exampleSet":"first","trial_type":"survey-html-form","trial_index":75,"time_elapsed":2326842,"internal_node_id":"0.0-70.4-0.4","params":{"nStudents":24,"maxFlips":30,"completionMinutes":45,"basePay":8,"maxBonus":9,"perTrialBonus":0.5,"perTrialBonusThreshold":0.05,"exampleCost":0.01},"classroomParams":{"A":{"a":1,"b":4},"B":{"a":4,"b":1},"C":{"a":2,"b":8},"D":{"a":8,"b":2}},"conditions":["nonSeqFull","nonSeqPartial","seqNoFeedback","seqFeedback"],"classroomPairings":[["A","B"],["C","D"]],"coinWeights":[0.2,0.5,0.8],"subjectId":"A2BK45LZGGWPLX","assignmentId":"3TS1AR6UQR0GT6WLMW8C7EM12IZF7C","hitId":"32TZXEA1OL6QYKM0MXQIQH2ABHN14I","url":"https://gershmanlab.com/experiments/alicia/teaching/experiment/?hitId=32TZXEA1OL6QYKM0MXQIQH2ABHN14I&workerId=A2BK45LZGGWPLX&assignmentId=3TS1AR6UQR0GT6WLMW8C7EM12IZF7C&a=UAST9&tp_a=UAST9&b=3TS1AR6UQR0GT6WLMW8C7EM12IZF7C&tp_b=3TS1AR6UQR0GT6WLMW8C7EM12IZF7C&c=365799&tp_c=365799","heads":10,"tails":0,"studentIndex":8,"studentTrueHypers":{"a":8,"b":2},"studentGuess":0.9,"delta":0.09999999999999998,"totalExamples":10,"bonusSoFar":0.98},{"rt":3213,"response":{"heads":"0","tails":"0"},"type":"response","condition":"seqFeedback","trueTheta":0.8,"classrooms":["C","D"],"studentTrueClassroom":"D","exampleSet":"second","trial_type":"survey-html-form","trial_index":79,"time_elapsed":2341530,"internal_node_id":"0.0-74.0-0.0","params":{"nStudents":24,"maxFlips":30,"completionMinutes":45,"basePay":8,"maxBonus":9,"perTrialBonus":0.5,"perTrialBonusThreshold":0.05,"exampleCost":0.01},"classroomParams":{"A":{"a":1,"b":4},"B":{"a":4,"b":1},"C":{"a":2,"b":8},"D":{"a":8,"b":2}},"conditions":["nonSeqFull","nonSeqPartial","seqNoFeedback","seqFeedback"],"classroomPairings":[["A","B"],["C","D"]],"coinWeights":[0.2,0.5,0.8],"subjectId":"A2BK45LZGGWPLX","assignmentId":"3TS1AR6UQR0GT6WLMW8C7EM12IZF7C","hitId":"32TZXEA1OL6QYKM0MXQIQH2ABHN14I","url":"https://gershmanlab.com/experiments/alicia/teaching/experiment/?hitId=32TZXEA1OL6QYKM0MXQIQH2ABHN14I&workerId=A2BK45LZGGWPLX&assignmentId=3TS1AR6UQR0GT6WLMW8C7EM12IZF7C&a=UAST9&tp_a=UAST9&b=3TS1AR6UQR0GT6WLMW8C7EM12IZF7C&tp_b=3TS1AR6UQR0GT6WLMW8C7EM12IZF7C&c=365799&tp_c=365799","firstResponseHeads":0,"firstResponseTails":0,"secondResponseHeads":0,"secondResponseTails":0,"totalHeads":0,"totalTails":0,"studentIndex":8,"studentTrueHypers":{"a":8,"b":2},"studentGuess":0.8,"delta":0,"bonus":0.5,"bonusSoFar":1.48,"totalExamples":0},{"rt":125220,"response":{"heads":"0","tails":"3"},"type":"response","condition":"seqFeedback","trueTheta":0.8,"classrooms":["C","D"],"studentTrueClassroom":"D","exampleSet":"second","trial_type":"survey-html-form","trial_index":80,"time_elapsed":2466751,"internal_node_id":"0.0-74.1-0.1","params":{"nStudents":24,"maxFlips":30,"completionMinutes":45,"basePay":8,"maxBonus":9,"perTrialBonus":0.5,"perTrialBonusThreshold":0.05,"exampleCost":0.01},"classroomParams":{"A":{"a":1,"b":4},"B":{"a":4,"b":1},"C":{"a":2,"b":8},"D":{"a":8,"b":2}},"conditions":["nonSeqFull","nonSeqPartial","seqNoFeedback","seqFeedback"],"classroomPairings":[["A","B"],["C","D"]],"coinWeights":[0.2,0.5,0.8],"subjectId":"A2BK45LZGGWPLX","assignmentId":"3TS1AR6UQR0GT6WLMW8C7EM12IZF7C","hitId":"32TZXEA1OL6QYKM0MXQIQH2ABHN14I","url":"https://gershmanlab.com/experiments/alicia/teaching/experiment/?hitId=32TZXEA1OL6QYKM0MXQIQH2ABHN14I&workerId=A2BK45LZGGWPLX&assignmentId=3TS1AR6UQR0GT6WLMW8C7EM12IZF7C&a=UAST9&tp_a=UAST9&b=3TS1AR6UQR0GT6WLMW8C7EM12IZF7C&tp_b=3TS1AR6UQR0GT6WLMW8C7EM12IZF7C&c=365799&tp_c=365799","firstResponseHeads":0,"firstResponseTails":0,"secondResponseHeads":0,"secondResponseTails":3,"totalHeads":0,"totalTails":3,"studentIndex":8,"studentTrueHypers":{"a":8,"b":2},"studentGuess":0.6153846153846154,"delta":0.18461538461538463,"bonus":0,"bonusSoFar":1.48,"totalExamples":3},{"rt":17011,"response":{"heads":"4","tails":"0"},"type":"response","condition":"nonSeqPartial","trueTheta":0.5,"classrooms":["A","B"],"studentTrueClassroom":"A","exampleSet":"first","trial_type":"survey-html-form","trial_index":86,"time_elapsed":2499879,"internal_node_id":"0.0-80.0-0.0","params":{"nStudents":24,"maxFlips":30,"completionMinutes":45,"basePay":8,"maxBonus":9,"perTrialBonus":0.5,"perTrialBonusThreshold":0.05,"exampleCost":0.01},"classroomParams":{"A":{"a":1,"b":4},"B":{"a":4,"b":1},"C":{"a":2,"b":8},"D":{"a":8,"b":2}},"conditions":["nonSeqFull","nonSeqPartial","seqNoFeedback","seqFeedback"],"classroomPairings":[["A","B"],["C","D"]],"coinWeights":[0.2,0.5,0.8],"subjectId":"A2BK45LZGGWPLX","assignmentId":"3TS1AR6UQR0GT6WLMW8C7EM12IZF7C","hitId":"32TZXEA1OL6QYKM0MXQIQH2ABHN14I","url":"https://gershmanlab.com/experiments/alicia/teaching/experiment/?hitId=32TZXEA1OL6QYKM0MXQIQH2ABHN14I&workerId=A2BK45LZGGWPLX&assignmentId=3TS1AR6UQR0GT6WLMW8C7EM12IZF7C&a=UAST9&tp_a=UAST9&b=3TS1AR6UQR0GT6WLMW8C7EM12IZF7C&tp_b=3TS1AR6UQR0GT6WLMW8C7EM12IZF7C&c=365799&tp_c=365799","heads":4,"tails":0,"studentIndex":9,"studentTrueHypers":{"a":1,"b":4},"studentGuess":0.5555555555555556,"delta":0.05555555555555558,"totalExamples":4,"bonus":0,"bonusSoFar":1.48},{"rt":14805,"response":{"heads":"0","tails":"0"},"type":"response","condition":"nonSeqPartial","trueTheta":0.2,"classrooms":["C","D"],"studentTrueClassroom":"C","exampleSet":"first","trial_type":"survey-html-form","trial_index":92,"time_elapsed":2532553,"internal_node_id":"0.0-86.0-0.0","params":{"nStudents":24,"maxFlips":30,"completionMinutes":45,"basePay":8,"maxBonus":9,"perTrialBonus":0.5,"perTrialBonusThreshold":0.05,"exampleCost":0.01},"classroomParams":{"A":{"a":1,"b":4},"B":{"a":4,"b":1},"C":{"a":2,"b":8},"D":{"a":8,"b":2}},"conditions":["nonSeqFull","nonSeqPartial","seqNoFeedback","seqFeedback"],"classroomPairings":[["A","B"],["C","D"]],"coinWeights":[0.2,0.5,0.8],"subjectId":"A2BK45LZGGWPLX","assignmentId":"3TS1AR6UQR0GT6WLMW8C7EM12IZF7C","hitId":"32TZXEA1OL6QYKM0MXQIQH2ABHN14I","url":"https://gershmanlab.com/experiments/alicia/teaching/experiment/?hitId=32TZXEA1OL6QYKM0MXQIQH2ABHN14I&workerId=A2BK45LZGGWPLX&assignmentId=3TS1AR6UQR0GT6WLMW8C7EM12IZF7C&a=UAST9&tp_a=UAST9&b=3TS1AR6UQR0GT6WLMW8C7EM12IZF7C&tp_b=3TS1AR6UQR0GT6WLMW8C7EM12IZF7C&c=365799&tp_c=365799","heads":0,"tails":0,"studentIndex":10,"studentTrueHypers":{"a":2,"b":8},"studentGuess":0.2,"delta":0,"totalExamples":0,"bonus":0.5,"bonusSoFar":1.98},{"rt":139669,"response":{"heads":"1","tails":"7"},"type":"response","condition":"nonSeqPartial","trueTheta":0.2,"classrooms":["C","D"],"studentTrueClassroom":"C","exampleSet":"first","trial_type":"survey-html-form","trial_index":93,"time_elapsed":2672224,"internal_node_id":"0.0-86.1-0.1","params":{"nStudents":24,"maxFlips":30,"completionMinutes":45,"basePay":8,"maxBonus":9,"perTrialBonus":0.5,"perTrialBonusThreshold":0.05,"exampleCost":0.01},"classroomParams":{"A":{"a":1,"b":4},"B":{"a":4,"b":1},"C":{"a":2,"b":8},"D":{"a":8,"b":2}},"conditions":["nonSeqFull","nonSeqPartial","seqNoFeedback","seqFeedback"],"classroomPairings":[["A","B"],["C","D"]],"coinWeights":[0.2,0.5,0.8],"subjectId":"A2BK45LZGGWPLX","assignmentId":"3TS1AR6UQR0GT6WLMW8C7EM12IZF7C","hitId":"32TZXEA1OL6QYKM0MXQIQH2ABHN14I","url":"https://gershmanlab.com/experiments/alicia/teaching/experiment/?hitId=32TZXEA1OL6QYKM0MXQIQH2ABHN14I&workerId=A2BK45LZGGWPLX&assignmentId=3TS1AR6UQR0GT6WLMW8C7EM12IZF7C&a=UAST9&tp_a=UAST9&b=3TS1AR6UQR0GT6WLMW8C7EM12IZF7C&tp_b=3TS1AR6UQR0GT6WLMW8C7EM12IZF7C&c=365799&tp_c=365799","heads":1,"tails":7,"studentIndex":10,"studentTrueHypers":{"a":2,"b":8},"studentGuess":0.16666666666666666,"delta":0.033333333333333354,"totalExamples":8,"bonus":0.42,"bonusSoFar":2.4},{"rt":26663,"response":{"heads":"0","tails":"0"},"type":"response","condition":"seqFeedback","trueTheta":0.2,"classrooms":["C","D"],"studentTrueClassroom":"D","exampleSet":"first","trial_type":"survey-html-form","trial_index":99,"time_elapsed":2732877,"internal_node_id":"0.0-92.0-0.0","params":{"nStudents":24,"maxFlips":30,"completionMinutes":45,"basePay":8,"maxBonus":9,"perTrialBonus":0.5,"perTrialBonusThreshold":0.05,"exampleCost":0.01},"classroomParams":{"A":{"a":1,"b":4},"B":{"a":4,"b":1},"C":{"a":2,"b":8},"D":{"a":8,"b":2}},"conditions":["nonSeqFull","nonSeqPartial","seqNoFeedback","seqFeedback"],"classroomPairings":[["A","B"],["C","D"]],"coinWeights":[0.2,0.5,0.8],"subjectId":"A2BK45LZGGWPLX","assignmentId":"3TS1AR6UQR0GT6WLMW8C7EM12IZF7C","hitId":"32TZXEA1OL6QYKM0MXQIQH2ABHN14I","url":"https://gershmanlab.com/experiments/alicia/teaching/experiment/?hitId=32TZXEA1OL6QYKM0MXQIQH2ABHN14I&workerId=A2BK45LZGGWPLX&assignmentId=3TS1AR6UQR0GT6WLMW8C7EM12IZF7C&a=UAST9&tp_a=UAST9&b=3TS1AR6UQR0GT6WLMW8C7EM12IZF7C&tp_b=3TS1AR6UQR0GT6WLMW8C7EM12IZF7C&c=365799&tp_c=365799","heads":0,"tails":0,"studentIndex":11,"studentTrueHypers":{"a":8,"b":2},"studentGuess":0.8,"delta":0.6000000000000001,"totalExamples":0,"bonusSoFar":2.4},{"rt":6020,"response":{"heads":"0","tails":"0"},"type":"response","condition":"seqFeedback","trueTheta":0.2,"classrooms":["C","D"],"studentTrueClassroom":"D","exampleSet":"first","trial_type":"survey-html-form","trial_index":100,"time_elapsed":2738898,"internal_node_id":"0.0-92.1-0.1","params":{"nStudents":24,"maxFlips":30,"completionMinutes":45,"basePay":8,"maxBonus":9,"perTrialBonus":0.5,"perTrialBonusThreshold":0.05,"exampleCost":0.01},"classroomParams":{"A":{"a":1,"b":4},"B":{"a":4,"b":1},"C":{"a":2,"b":8},"D":{"a":8,"b":2}},"conditions":["nonSeqFull","nonSeqPartial","seqNoFeedback","seqFeedback"],"classroomPairings":[["A","B"],["C","D"]],"coinWeights":[0.2,0.5,0.8],"subjectId":"A2BK45LZGGWPLX","assignmentId":"3TS1AR6UQR0GT6WLMW8C7EM12IZF7C","hitId":"32TZXEA1OL6QYKM0MXQIQH2ABHN14I","url":"https://gershmanlab.com/experiments/alicia/teaching/experiment/?hitId=32TZXEA1OL6QYKM0MXQIQH2ABHN14I&workerId=A2BK45LZGGWPLX&assignmentId=3TS1AR6UQR0GT6WLMW8C7EM12IZF7C&a=UAST9&tp_a=UAST9&b=3TS1AR6UQR0GT6WLMW8C7EM12IZF7C&tp_b=3TS1AR6UQR0GT6WLMW8C7EM12IZF7C&c=365799&tp_c=365799","heads":0,"tails":0,"studentIndex":11,"studentTrueHypers":{"a":8,"b":2},"studentGuess":0.8,"delta":0.6000000000000001,"totalExamples":0,"bonusSoFar":2.4},{"rt":40281,"response":{"heads":"0","tails":"30"},"type":"response","condition":"seqFeedback","trueTheta":0.2,"classrooms":["C","D"],"studentTrueClassroom":"D","exampleSet":"first","trial_type":"survey-html-form","trial_index":101,"time_elapsed":2779181,"internal_node_id":"0.0-92.2-0.2","params":{"nStudents":24,"maxFlips":30,"completionMinutes":45,"basePay":8,"maxBonus":9,"perTrialBonus":0.5,"perTrialBonusThreshold":0.05,"exampleCost":0.01},"classroomParams":{"A":{"a":1,"b":4},"B":{"a":4,"b":1},"C":{"a":2,"b":8},"D":{"a":8,"b":2}},"conditions":["nonSeqFull","nonSeqPartial","seqNoFeedback","seqFeedback"],"classroomPairings":[["A","B"],["C","D"]],"coinWeights":[0.2,0.5,0.8],"subjectId":"A2BK45LZGGWPLX","assignmentId":"3TS1AR6UQR0GT6WLMW8C7EM12IZF7C","hitId":"32TZXEA1OL6QYKM0MXQIQH2ABHN14I","url":"https://gershmanlab.com/experiments/alicia/teaching/experiment/?hitId=32TZXEA1OL6QYKM0MXQIQH2ABHN14I&workerId=A2BK45LZGGWPLX&assignmentId=3TS1AR6UQR0GT6WLMW8C7EM12IZF7C&a=UAST9&tp_a=UAST9&b=3TS1AR6UQR0GT6WLMW8C7EM12IZF7C&tp_b=3TS1AR6UQR0GT6WLMW8C7EM12IZF7C&c=365799&tp_c=365799","heads":0,"tails":30,"studentIndex":11,"studentTrueHypers":{"a":8,"b":2},"studentGuess":0.2,"delta":0,"totalExamples":30,"bonusSoFar":2.4},{"rt":35775,"response":{"heads":"0","tails":"30"},"type":"response","condition":"seqFeedback","trueTheta":0.2,"classrooms":["C","D"],"studentTrueClassroom":"D","exampleSet":"second","trial_type":"survey-html-form","trial_index":105,"time_elapsed":2824367,"internal_node_id":"0.0-96.0-0.0","params":{"nStudents":24,"maxFlips":30,"completionMinutes":45,"basePay":8,"maxBonus":9,"perTrialBonus":0.5,"perTrialBonusThreshold":0.05,"exampleCost":0.01},"classroomParams":{"A":{"a":1,"b":4},"B":{"a":4,"b":1},"C":{"a":2,"b":8},"D":{"a":8,"b":2}},"conditions":["nonSeqFull","nonSeqPartial","seqNoFeedback","seqFeedback"],"classroomPairings":[["A","B"],["C","D"]],"coinWeights":[0.2,0.5,0.8],"subjectId":"A2BK45LZGGWPLX","assignmentId":"3TS1AR6UQR0GT6WLMW8C7EM12IZF7C","hitId":"32TZXEA1OL6QYKM0MXQIQH2ABHN14I","url":"https://gershmanlab.com/experiments/alicia/teaching/experiment/?hitId=32TZXEA1OL6QYKM0MXQIQH2ABHN14I&workerId=A2BK45LZGGWPLX&assignmentId=3TS1AR6UQR0GT6WLMW8C7EM12IZF7C&a=UAST9&tp_a=UAST9&b=3TS1AR6UQR0GT6WLMW8C7EM12IZF7C&tp_b=3TS1AR6UQR0GT6WLMW8C7EM12IZF7C&c=365799&tp_c=365799","firstResponseHeads":0,"firstResponseTails":0,"secondResponseHeads":0,"secondResponseTails":30,"totalHeads":0,"totalTails":30,"studentIndex":11,"studentTrueHypers":{"a":8,"b":2},"studentGuess":0.2,"delta":0,"bonus":0.2,"bonusSoFar":2.6,"totalExamples":30},{"rt":87695,"response":{"heads":"0","tails":"6"},"type":"response","condition":"nonSeqPartial","trueTheta":0.5,"classrooms":["C","D"],"studentTrueClassroom":"C","exampleSet":"first","trial_type":"survey-html-form","trial_index":111,"time_elapsed":2939888,"internal_node_id":"0.0-102.0-0.0","params":{"nStudents":24,"maxFlips":30,"completionMinutes":45,"basePay":8,"maxBonus":9,"perTrialBonus":0.5,"perTrialBonusThreshold":0.05,"exampleCost":0.01},"classroomParams":{"A":{"a":1,"b":4},"B":{"a":4,"b":1},"C":{"a":2,"b":8},"D":{"a":8,"b":2}},"conditions":["nonSeqFull","nonSeqPartial","seqNoFeedback","seqFeedback"],"classroomPairings":[["A","B"],["C","D"]],"coinWeights":[0.2,0.5,0.8],"subjectId":"A2BK45LZGGWPLX","assignmentId":"3TS1AR6UQR0GT6WLMW8C7EM12IZF7C","hitId":"32TZXEA1OL6QYKM0MXQIQH2ABHN14I","url":"https://gershmanlab.com/experiments/alicia/teaching/experiment/?hitId=32TZXEA1OL6QYKM0MXQIQH2ABHN14I&workerId=A2BK45LZGGWPLX&assignmentId=3TS1AR6UQR0GT6WLMW8C7EM12IZF7C&a=UAST9&tp_a=UAST9&b=3TS1AR6UQR0GT6WLMW8C7EM12IZF7C&tp_b=3TS1AR6UQR0GT6WLMW8C7EM12IZF7C&c=365799&tp_c=365799","heads":0,"tails":6,"studentIndex":12,"studentTrueHypers":{"a":2,"b":8},"studentGuess":0.125,"delta":0.375,"totalExamples":6,"bonus":0,"bonusSoFar":2.6},{"rt":21737,"response":{"heads":"0","tails":"30"},"type":"response","condition":"seqNoFeedback","trueTheta":0.2,"classrooms":["C","D"],"studentTrueClassroom":"D","exampleSet":"first","trial_type":"survey-html-form","trial_index":117,"time_elapsed":2977258,"internal_node_id":"0.0-108.0-0.0","params":{"nStudents":24,"maxFlips":30,"completionMinutes":45,"basePay":8,"maxBonus":9,"perTrialBonus":0.5,"perTrialBonusThreshold":0.05,"exampleCost":0.01},"classroomParams":{"A":{"a":1,"b":4},"B":{"a":4,"b":1},"C":{"a":2,"b":8},"D":{"a":8,"b":2}},"conditions":["nonSeqFull","nonSeqPartial","seqNoFeedback","seqFeedback"],"classroomPairings":[["A","B"],["C","D"]],"coinWeights":[0.2,0.5,0.8],"subjectId":"A2BK45LZGGWPLX","assignmentId":"3TS1AR6UQR0GT6WLMW8C7EM12IZF7C","hitId":"32TZXEA1OL6QYKM0MXQIQH2ABHN14I","url":"https://gershmanlab.com/experiments/alicia/teaching/experiment/?hitId=32TZXEA1OL6QYKM0MXQIQH2ABHN14I&workerId=A2BK45LZGGWPLX&assignmentId=3TS1AR6UQR0GT6WLMW8C7EM12IZF7C&a=UAST9&tp_a=UAST9&b=3TS1AR6UQR0GT6WLMW8C7EM12IZF7C&tp_b=3TS1AR6UQR0GT6WLMW8C7EM12IZF7C&c=365799&tp_c=365799","heads":0,"tails":30,"studentIndex":13,"studentTrueHypers":{"a":8,"b":2},"studentGuess":0.2,"delta":0,"totalExamples":30,"bonusSoFar":2.6},{"rt":40094,"response":{"heads":"4","tails":"16"},"type":"response","condition":"seqNoFeedback","trueTheta":0.2,"classrooms":["C","D"],"studentTrueClassroom":"D","exampleSet":"second","trial_type":"survey-html-form","trial_index":120,"time_elapsed":3022868,"internal_node_id":"0.0-111.0-0.0","params":{"nStudents":24,"maxFlips":30,"completionMinutes":45,"basePay":8,"maxBonus":9,"perTrialBonus":0.5,"perTrialBonusThreshold":0.05,"exampleCost":0.01},"classroomParams":{"A":{"a":1,"b":4},"B":{"a":4,"b":1},"C":{"a":2,"b":8},"D":{"a":8,"b":2}},"conditions":["nonSeqFull","nonSeqPartial","seqNoFeedback","seqFeedback"],"classroomPairings":[["A","B"],["C","D"]],"coinWeights":[0.2,0.5,0.8],"subjectId":"A2BK45LZGGWPLX","assignmentId":"3TS1AR6UQR0GT6WLMW8C7EM12IZF7C","hitId":"32TZXEA1OL6QYKM0MXQIQH2ABHN14I","url":"https://gershmanlab.com/experiments/alicia/teaching/experiment/?hitId=32TZXEA1OL6QYKM0MXQIQH2ABHN14I&workerId=A2BK45LZGGWPLX&assignmentId=3TS1AR6UQR0GT6WLMW8C7EM12IZF7C&a=UAST9&tp_a=UAST9&b=3TS1AR6UQR0GT6WLMW8C7EM12IZF7C&tp_b=3TS1AR6UQR0GT6WLMW8C7EM12IZF7C&c=365799&tp_c=365799","firstResponseHeads":0,"firstResponseTails":30,"secondResponseHeads":4,"secondResponseTails":16,"totalHeads":4,"totalTails":46,"studentIndex":13,"studentTrueHypers":{"a":8,"b":2},"studentGuess":0.2,"delta":0,"bonus":0,"bonusSoFar":2.6,"totalExamples":50},{"rt":10565,"response":{"heads":"15","tails":"15"},"type":"response","condition":"seqFeedback","trueTheta":0.5,"classrooms":["A","B"],"studentTrueClassroom":"B","exampleSet":"first","trial_type":"survey-html-form","trial_index":126,"time_elapsed":3060132,"internal_node_id":"0.0-117.0-0.0","params":{"nStudents":24,"maxFlips":30,"completionMinutes":45,"basePay":8,"maxBonus":9,"perTrialBonus":0.5,"perTrialBonusThreshold":0.05,"exampleCost":0.01},"classroomParams":{"A":{"a":1,"b":4},"B":{"a":4,"b":1},"C":{"a":2,"b":8},"D":{"a":8,"b":2}},"conditions":["nonSeqFull","nonSeqPartial","seqNoFeedback","seqFeedback"],"classroomPairings":[["A","B"],["C","D"]],"coinWeights":[0.2,0.5,0.8],"subjectId":"A2BK45LZGGWPLX","assignmentId":"3TS1AR6UQR0GT6WLMW8C7EM12IZF7C","hitId":"32TZXEA1OL6QYKM0MXQIQH2ABHN14I","url":"https://gershmanlab.com/experiments/alicia/teaching/experiment/?hitId=32TZXEA1OL6QYKM0MXQIQH2ABHN14I&workerId=A2BK45LZGGWPLX&assignmentId=3TS1AR6UQR0GT6WLMW8C7EM12IZF7C&a=UAST9&tp_a=UAST9&b=3TS1AR6UQR0GT6WLMW8C7EM12IZF7C&tp_b=3TS1AR6UQR0GT6WLMW8C7EM12IZF7C&c=365799&tp_c=365799","heads":15,"tails":15,"studentIndex":14,"studentTrueHypers":{"a":4,"b":1},"studentGuess":0.5428571428571428,"delta":0.042857142857142816,"totalExamples":30,"bonusSoFar":2.6},{"rt":60759,"response":{"heads":"1","tails":"1"},"type":"response","condition":"seqFeedback","trueTheta":0.5,"classrooms":["A","B"],"studentTrueClassroom":"B","exampleSet":"second","trial_type":"survey-html-form","trial_index":130,"time_elapsed":3133389,"internal_node_id":"0.0-121.0-0.0","params":{"nStudents":24,"maxFlips":30,"completionMinutes":45,"basePay":8,"maxBonus":9,"perTrialBonus":0.5,"perTrialBonusThreshold":0.05,"exampleCost":0.01},"classroomParams":{"A":{"a":1,"b":4},"B":{"a":4,"b":1},"C":{"a":2,"b":8},"D":{"a":8,"b":2}},"conditions":["nonSeqFull","nonSeqPartial","seqNoFeedback","seqFeedback"],"classroomPairings":[["A","B"],["C","D"]],"coinWeights":[0.2,0.5,0.8],"subjectId":"A2BK45LZGGWPLX","assignmentId":"3TS1AR6UQR0GT6WLMW8C7EM12IZF7C","hitId":"32TZXEA1OL6QYKM0MXQIQH2ABHN14I","url":"https://gershmanlab.com/experiments/alicia/teaching/experiment/?hitId=32TZXEA1OL6QYKM0MXQIQH2ABHN14I&workerId=A2BK45LZGGWPLX&assignmentId=3TS1AR6UQR0GT6WLMW8C7EM12IZF7C&a=UAST9&tp_a=UAST9&b=3TS1AR6UQR0GT6WLMW8C7EM12IZF7C&tp_b=3TS1AR6UQR0GT6WLMW8C7EM12IZF7C&c=365799&tp_c=365799","firstResponseHeads":15,"firstResponseTails":15,"secondResponseHeads":1,"secondResponseTails":1,"totalHeads":16,"totalTails":16,"studentIndex":14,"studentTrueHypers":{"a":4,"b":1},"studentGuess":0.5405405405405406,"delta":0.04054054054054057,"bonus":0.18,"bonusSoFar":2.78,"totalExamples":32},{"rt":203674,"response":{"heads":"17","tails":"0"},"type":"response","condition":"nonSeqFull","trueTheta":0.8,"classrooms":["A","B"],"studentTrueClassroom":"A","exampleSet":"first","trial_type":"survey-html-form","trial_index":136,"time_elapsed":3355559,"internal_node_id":"0.0-127.0-0.0","params":{"nStudents":24,"maxFlips":30,"completionMinutes":45,"basePay":8,"maxBonus":9,"perTrialBonus":0.5,"perTrialBonusThreshold":0.05,"exampleCost":0.01},"classroomParams":{"A":{"a":1,"b":4},"B":{"a":4,"b":1},"C":{"a":2,"b":8},"D":{"a":8,"b":2}},"conditions":["nonSeqFull","nonSeqPartial","seqNoFeedback","seqFeedback"],"classroomPairings":[["A","B"],["C","D"]],"coinWeights":[0.2,0.5,0.8],"subjectId":"A2BK45LZGGWPLX","assignmentId":"3TS1AR6UQR0GT6WLMW8C7EM12IZF7C","hitId":"32TZXEA1OL6QYKM0MXQIQH2ABHN14I","url":"https://gershmanlab.com/experiments/alicia/teaching/experiment/?hitId=32TZXEA1OL6QYKM0MXQIQH2ABHN14I&workerId=A2BK45LZGGWPLX&assignmentId=3TS1AR6UQR0GT6WLMW8C7EM12IZF7C&a=UAST9&tp_a=UAST9&b=3TS1AR6UQR0GT6WLMW8C7EM12IZF7C&tp_b=3TS1AR6UQR0GT6WLMW8C7EM12IZF7C&c=365799&tp_c=365799","heads":17,"tails":0,"studentIndex":15,"studentTrueHypers":{"a":1,"b":4},"studentGuess":0.8181818181818182,"delta":0.018181818181818188,"totalExamples":17,"bonus":0.33,"bonusSoFar":3.11},{"rt":61458,"response":{"heads":"1","tails":"19"},"type":"response","condition":"nonSeqFull","trueTheta":0.2,"classrooms":["A","B"],"studentTrueClassroom":"B","exampleSet":"first","trial_type":"survey-html-form","trial_index":142,"time_elapsed":3433408,"internal_node_id":"0.0-133.0-0.0","params":{"nStudents":24,"maxFlips":30,"completionMinutes":45,"basePay":8,"maxBonus":9,"perTrialBonus":0.5,"perTrialBonusThreshold":0.05,"exampleCost":0.01},"classroomParams":{"A":{"a":1,"b":4},"B":{"a":4,"b":1},"C":{"a":2,"b":8},"D":{"a":8,"b":2}},"conditions":["nonSeqFull","nonSeqPartial","seqNoFeedback","seqFeedback"],"classroomPairings":[["A","B"],["C","D"]],"coinWeights":[0.2,0.5,0.8],"subjectId":"A2BK45LZGGWPLX","assignmentId":"3TS1AR6UQR0GT6WLMW8C7EM12IZF7C","hitId":"32TZXEA1OL6QYKM0MXQIQH2ABHN14I","url":"https://gershmanlab.com/experiments/alicia/teaching/experiment/?hitId=32TZXEA1OL6QYKM0MXQIQH2ABHN14I&workerId=A2BK45LZGGWPLX&assignmentId=3TS1AR6UQR0GT6WLMW8C7EM12IZF7C&a=UAST9&tp_a=UAST9&b=3TS1AR6UQR0GT6WLMW8C7EM12IZF7C&tp_b=3TS1AR6UQR0GT6WLMW8C7EM12IZF7C&c=365799&tp_c=365799","heads":1,"tails":19,"studentIndex":16,"studentTrueHypers":{"a":4,"b":1},"studentGuess":0.2,"delta":0,"totalExamples":20,"bonus":0.3,"bonusSoFar":3.41},{"rt":22374,"response":{"heads":"1","tails":"1"},"type":"response","condition":"seqFeedback","trueTheta":0.2,"classrooms":["A","B"],"studentTrueClassroom":"A","exampleSet":"first","trial_type":"survey-html-form","trial_index":148,"time_elapsed":3479469,"internal_node_id":"0.0-139.0-0.0","params":{"nStudents":24,"maxFlips":30,"completionMinutes":45,"basePay":8,"maxBonus":9,"perTrialBonus":0.5,"perTrialBonusThreshold":0.05,"exampleCost":0.01},"classroomParams":{"A":{"a":1,"b":4},"B":{"a":4,"b":1},"C":{"a":2,"b":8},"D":{"a":8,"b":2}},"conditions":["nonSeqFull","nonSeqPartial","seqNoFeedback","seqFeedback"],"classroomPairings":[["A","B"],["C","D"]],"coinWeights":[0.2,0.5,0.8],"subjectId":"A2BK45LZGGWPLX","assignmentId":"3TS1AR6UQR0GT6WLMW8C7EM12IZF7C","hitId":"32TZXEA1OL6QYKM0MXQIQH2ABHN14I","url":"https://gershmanlab.com/experiments/alicia/teaching/experiment/?hitId=32TZXEA1OL6QYKM0MXQIQH2ABHN14I&workerId=A2BK45LZGGWPLX&assignmentId=3TS1AR6UQR0GT6WLMW8C7EM12IZF7C&a=UAST9&tp_a=UAST9&b=3TS1AR6UQR0GT6WLMW8C7EM12IZF7C&tp_b=3TS1AR6UQR0GT6WLMW8C7EM12IZF7C&c=365799&tp_c=365799","heads":1,"tails":1,"studentIndex":17,"studentTrueHypers":{"a":1,"b":4},"studentGuess":0.2857142857142857,"delta":0.08571428571428569,"totalExamples":2,"bonusSoFar":3.41},{"rt":182181,"response":{"heads":"0","tails":"5"},"type":"response","condition":"seqFeedback","trueTheta":0.2,"classrooms":["A","B"],"studentTrueClassroom":"A","exampleSet":"second","trial_type":"survey-html-form","trial_index":152,"time_elapsed":3672833,"internal_node_id":"0.0-143.0-0.0","params":{"nStudents":24,"maxFlips":30,"completionMinutes":45,"basePay":8,"maxBonus":9,"perTrialBonus":0.5,"perTrialBonusThreshold":0.05,"exampleCost":0.01},"classroomParams":{"A":{"a":1,"b":4},"B":{"a":4,"b":1},"C":{"a":2,"b":8},"D":{"a":8,"b":2}},"conditions":["nonSeqFull","nonSeqPartial","seqNoFeedback","seqFeedback"],"classroomPairings":[["A","B"],["C","D"]],"coinWeights":[0.2,0.5,0.8],"subjectId":"A2BK45LZGGWPLX","assignmentId":"3TS1AR6UQR0GT6WLMW8C7EM12IZF7C","hitId":"32TZXEA1OL6QYKM0MXQIQH2ABHN14I","url":"https://gershmanlab.com/experiments/alicia/teaching/experiment/?hitId=32TZXEA1OL6QYKM0MXQIQH2ABHN14I&workerId=A2BK45LZGGWPLX&assignmentId=3TS1AR6UQR0GT6WLMW8C7EM12IZF7C&a=UAST9&tp_a=UAST9&b=3TS1AR6UQR0GT6WLMW8C7EM12IZF7C&tp_b=3TS1AR6UQR0GT6WLMW8C7EM12IZF7C&c=365799&tp_c=365799","firstResponseHeads":1,"firstResponseTails":1,"secondResponseHeads":0,"secondResponseTails":5,"totalHeads":1,"totalTails":6,"studentIndex":17,"studentTrueHypers":{"a":1,"b":4},"studentGuess":0.16666666666666666,"delta":0.033333333333333354,"bonus":0.43,"bonusSoFar":3.84,"totalExamples":7},{"rt":97456,"response":{"heads":"6","tails":"24"},"type":"response","condition":"nonSeqPartial","trueTheta":0.2,"classrooms":["A","B"],"studentTrueClassroom":"B","exampleSet":"first","trial_type":"survey-html-form","trial_index":158,"time_elapsed":3903110,"internal_node_id":"0.0-149.0-0.0","params":{"nStudents":24,"maxFlips":30,"completionMinutes":45,"basePay":8,"maxBonus":9,"perTrialBonus":0.5,"perTrialBonusThreshold":0.05,"exampleCost":0.01},"classroomParams":{"A":{"a":1,"b":4},"B":{"a":4,"b":1},"C":{"a":2,"b":8},"D":{"a":8,"b":2}},"conditions":["nonSeqFull","nonSeqPartial","seqNoFeedback","seqFeedback"],"classroomPairings":[["A","B"],["C","D"]],"coinWeights":[0.2,0.5,0.8],"subjectId":"A2BK45LZGGWPLX","assignmentId":"3TS1AR6UQR0GT6WLMW8C7EM12IZF7C","hitId":"32TZXEA1OL6QYKM0MXQIQH2ABHN14I","url":"https://gershmanlab.com/experiments/alicia/teaching/experiment/?hitId=32TZXEA1OL6QYKM0MXQIQH2ABHN14I&workerId=A2BK45LZGGWPLX&assignmentId=3TS1AR6UQR0GT6WLMW8C7EM12IZF7C&a=UAST9&tp_a=UAST9&b=3TS1AR6UQR0GT6WLMW8C7EM12IZF7C&tp_b=3TS1AR6UQR0GT6WLMW8C7EM12IZF7C&c=365799&tp_c=365799","heads":6,"tails":24,"studentIndex":18,"studentTrueHypers":{"a":4,"b":1},"studentGuess":0.2857142857142857,"delta":0.08571428571428569,"totalExamples":30,"bonus":0,"bonusSoFar":3.84},{"rt":17200,"response":{"heads":"8","tails":"2"},"type":"response","condition":"nonSeqPartial","trueTheta":0.8,"classrooms":["C","D"],"studentTrueClassroom":"D","exampleSet":"first","trial_type":"survey-html-form","trial_index":164,"time_elapsed":3938060,"internal_node_id":"0.0-155.0-0.0","params":{"nStudents":24,"maxFlips":30,"completionMinutes":45,"basePay":8,"maxBonus":9,"perTrialBonus":0.5,"perTrialBonusThreshold":0.05,"exampleCost":0.01},"classroomParams":{"A":{"a":1,"b":4},"B":{"a":4,"b":1},"C":{"a":2,"b":8},"D":{"a":8,"b":2}},"conditions":["nonSeqFull","nonSeqPartial","seqNoFeedback","seqFeedback"],"classroomPairings":[["A","B"],["C","D"]],"coinWeights":[0.2,0.5,0.8],"subjectId":"A2BK45LZGGWPLX","assignmentId":"3TS1AR6UQR0GT6WLMW8C7EM12IZF7C","hitId":"32TZXEA1OL6QYKM0MXQIQH2ABHN14I","url":"https://gershmanlab.com/experiments/alicia/teaching/experiment/?hitId=32TZXEA1OL6QYKM0MXQIQH2ABHN14I&workerId=A2BK45LZGGWPLX&assignmentId=3TS1AR6UQR0GT6WLMW8C7EM12IZF7C&a=UAST9&tp_a=UAST9&b=3TS1AR6UQR0GT6WLMW8C7EM12IZF7C&tp_b=3TS1AR6UQR0GT6WLMW8C7EM12IZF7C&c=365799&tp_c=365799","heads":8,"tails":2,"studentIndex":19,"studentTrueHypers":{"a":8,"b":2},"studentGuess":0.8,"delta":0,"totalExamples":10,"bonus":0.4,"bonusSoFar":4.24},{"rt":8482,"response":{"heads":"8","tails":"2"},"type":"response","condition":"seqNoFeedback","trueTheta":0.8,"classrooms":["C","D"],"studentTrueClassroom":"C","exampleSet":"first","trial_type":"survey-html-form","trial_index":170,"time_elapsed":3962506,"internal_node_id":"0.0-161.0-0.0","params":{"nStudents":24,"maxFlips":30,"completionMinutes":45,"basePay":8,"maxBonus":9,"perTrialBonus":0.5,"perTrialBonusThreshold":0.05,"exampleCost":0.01},"classroomParams":{"A":{"a":1,"b":4},"B":{"a":4,"b":1},"C":{"a":2,"b":8},"D":{"a":8,"b":2}},"conditions":["nonSeqFull","nonSeqPartial","seqNoFeedback","seqFeedback"],"classroomPairings":[["A","B"],["C","D"]],"coinWeights":[0.2,0.5,0.8],"subjectId":"A2BK45LZGGWPLX","assignmentId":"3TS1AR6UQR0GT6WLMW8C7EM12IZF7C","hitId":"32TZXEA1OL6QYKM0MXQIQH2ABHN14I","url":"https://gershmanlab.com/experiments/alicia/teaching/experiment/?hitId=32TZXEA1OL6QYKM0MXQIQH2ABHN14I&workerId=A2BK45LZGGWPLX&assignmentId=3TS1AR6UQR0GT6WLMW8C7EM12IZF7C&a=UAST9&tp_a=UAST9&b=3TS1AR6UQR0GT6WLMW8C7EM12IZF7C&tp_b=3TS1AR6UQR0GT6WLMW8C7EM12IZF7C&c=365799&tp_c=365799","heads":8,"tails":2,"studentIndex":20,"studentTrueHypers":{"a":2,"b":8},"studentGuess":0.5,"delta":0.30000000000000004,"totalExamples":10,"bonusSoFar":4.24},{"rt":11755,"response":{"heads":"8","tails":"2"},"type":"response","condition":"seqNoFeedback","trueTheta":0.8,"classrooms":["C","D"],"studentTrueClassroom":"C","exampleSet":"second","trial_type":"survey-html-form","trial_index":173,"time_elapsed":3979524,"internal_node_id":"0.0-164.0-0.0","params":{"nStudents":24,"maxFlips":30,"completionMinutes":45,"basePay":8,"maxBonus":9,"perTrialBonus":0.5,"perTrialBonusThreshold":0.05,"exampleCost":0.01},"classroomParams":{"A":{"a":1,"b":4},"B":{"a":4,"b":1},"C":{"a":2,"b":8},"D":{"a":8,"b":2}},"conditions":["nonSeqFull","nonSeqPartial","seqNoFeedback","seqFeedback"],"classroomPairings":[["A","B"],["C","D"]],"coinWeights":[0.2,0.5,0.8],"subjectId":"A2BK45LZGGWPLX","assignmentId":"3TS1AR6UQR0GT6WLMW8C7EM12IZF7C","hitId":"32TZXEA1OL6QYKM0MXQIQH2ABHN14I","url":"https://gershmanlab.com/experiments/alicia/teaching/experiment/?hitId=32TZXEA1OL6QYKM0MXQIQH2ABHN14I&workerId=A2BK45LZGGWPLX&assignmentId=3TS1AR6UQR0GT6WLMW8C7EM12IZF7C&a=UAST9&tp_a=UAST9&b=3TS1AR6UQR0GT6WLMW8C7EM12IZF7C&tp_b=3TS1AR6UQR0GT6WLMW8C7EM12IZF7C&c=365799&tp_c=365799","firstResponseHeads":8,"firstResponseTails":2,"secondResponseHeads":8,"secondResponseTails":2,"totalHeads":16,"totalTails":4,"studentIndex":20,"studentTrueHypers":{"a":2,"b":8},"studentGuess":0.6,"delta":0.20000000000000007,"bonus":0,"bonusSoFar":4.24,"totalExamples":20},{"rt":5545,"response":{"heads":"8","tails":"2"},"type":"response","condition":"seqFeedback","trueTheta":0.8,"classrooms":["A","B"],"studentTrueClassroom":"A","exampleSet":"first","trial_type":"survey-html-form","trial_index":179,"time_elapsed":4000901,"internal_node_id":"0.0-170.0-0.0","params":{"nStudents":24,"maxFlips":30,"completionMinutes":45,"basePay":8,"maxBonus":9,"perTrialBonus":0.5,"perTrialBonusThreshold":0.05,"exampleCost":0.01},"classroomParams":{"A":{"a":1,"b":4},"B":{"a":4,"b":1},"C":{"a":2,"b":8},"D":{"a":8,"b":2}},"conditions":["nonSeqFull","nonSeqPartial","seqNoFeedback","seqFeedback"],"classroomPairings":[["A","B"],["C","D"]],"coinWeights":[0.2,0.5,0.8],"subjectId":"A2BK45LZGGWPLX","assignmentId":"3TS1AR6UQR0GT6WLMW8C7EM12IZF7C","hitId":"32TZXEA1OL6QYKM0MXQIQH2ABHN14I","url":"https://gershmanlab.com/experiments/alicia/teaching/experiment/?hitId=32TZXEA1OL6QYKM0MXQIQH2ABHN14I&workerId=A2BK45LZGGWPLX&assignmentId=3TS1AR6UQR0GT6WLMW8C7EM12IZF7C&a=UAST9&tp_a=UAST9&b=3TS1AR6UQR0GT6WLMW8C7EM12IZF7C&tp_b=3TS1AR6UQR0GT6WLMW8C7EM12IZF7C&c=365799&tp_c=365799","heads":8,"tails":2,"studentIndex":21,"studentTrueHypers":{"a":1,"b":4},"studentGuess":0.6,"delta":0.20000000000000007,"totalExamples":10,"bonusSoFar":4.24},{"rt":243941,"response":{"heads":"15","tails":"0"},"type":"response","condition":"seqFeedback","trueTheta":0.8,"classrooms":["A","B"],"studentTrueClassroom":"A","exampleSet":"second","trial_type":"survey-html-form","trial_index":183,"time_elapsed":4260353,"internal_node_id":"0.0-174.0-0.0","params":{"nStudents":24,"maxFlips":30,"completionMinutes":45,"basePay":8,"maxBonus":9,"perTrialBonus":0.5,"perTrialBonusThreshold":0.05,"exampleCost":0.01},"classroomParams":{"A":{"a":1,"b":4},"B":{"a":4,"b":1},"C":{"a":2,"b":8},"D":{"a":8,"b":2}},"conditions":["nonSeqFull","nonSeqPartial","seqNoFeedback","seqFeedback"],"classroomPairings":[["A","B"],["C","D"]],"coinWeights":[0.2,0.5,0.8],"subjectId":"A2BK45LZGGWPLX","assignmentId":"3TS1AR6UQR0GT6WLMW8C7EM12IZF7C","hitId":"32TZXEA1OL6QYKM0MXQIQH2ABHN14I","url":"https://gershmanlab.com/experiments/alicia/teaching/experiment/?hitId=32TZXEA1OL6QYKM0MXQIQH2ABHN14I&workerId=A2BK45LZGGWPLX&assignmentId=3TS1AR6UQR0GT6WLMW8C7EM12IZF7C&a=UAST9&tp_a=UAST9&b=3TS1AR6UQR0GT6WLMW8C7EM12IZF7C&tp_b=3TS1AR6UQR0GT6WLMW8C7EM12IZF7C&c=365799&tp_c=365799","firstResponseHeads":8,"firstResponseTails":2,"secondResponseHeads":15,"secondResponseTails":0,"totalHeads":23,"totalTails":2,"studentIndex":21,"studentTrueHypers":{"a":1,"b":4},"studentGuess":0.8,"delta":0,"bonus":0.25,"bonusSoFar":4.49,"totalExamples":25},{"rt":17577,"response":{"heads":"4","tails":"1"},"type":"response","condition":"nonSeqFull","trueTheta":0.5,"classrooms":["A","B"],"studentTrueClassroom":"A","exampleSet":"first","trial_type":"survey-html-form","trial_index":189,"time_elapsed":4298435,"internal_node_id":"0.0-180.0-0.0","params":{"nStudents":24,"maxFlips":30,"completionMinutes":45,"basePay":8,"maxBonus":9,"perTrialBonus":0.5,"perTrialBonusThreshold":0.05,"exampleCost":0.01},"classroomParams":{"A":{"a":1,"b":4},"B":{"a":4,"b":1},"C":{"a":2,"b":8},"D":{"a":8,"b":2}},"conditions":["nonSeqFull","nonSeqPartial","seqNoFeedback","seqFeedback"],"classroomPairings":[["A","B"],["C","D"]],"coinWeights":[0.2,0.5,0.8],"subjectId":"A2BK45LZGGWPLX","assignmentId":"3TS1AR6UQR0GT6WLMW8C7EM12IZF7C","hitId":"32TZXEA1OL6QYKM0MXQIQH2ABHN14I","url":"https://gershmanlab.com/experiments/alicia/teaching/experiment/?hitId=32TZXEA1OL6QYKM0MXQIQH2ABHN14I&workerId=A2BK45LZGGWPLX&assignmentId=3TS1AR6UQR0GT6WLMW8C7EM12IZF7C&a=UAST9&tp_a=UAST9&b=3TS1AR6UQR0GT6WLMW8C7EM12IZF7C&tp_b=3TS1AR6UQR0GT6WLMW8C7EM12IZF7C&c=365799&tp_c=365799","heads":4,"tails":1,"studentIndex":22,"studentTrueHypers":{"a":1,"b":4},"studentGuess":0.5,"delta":0,"totalExamples":5,"bonus":0.45,"bonusSoFar":4.94},{"rt":14401,"response":{"heads":"4","tails":"1"},"type":"response","condition":"nonSeqFull","trueTheta":0.8,"classrooms":["C","D"],"studentTrueClassroom":"D","exampleSet":"first","trial_type":"survey-html-form","trial_index":195,"time_elapsed":4348615,"internal_node_id":"0.0-186.0-0.0","params":{"nStudents":24,"maxFlips":30,"completionMinutes":45,"basePay":8,"maxBonus":9,"perTrialBonus":0.5,"perTrialBonusThreshold":0.05,"exampleCost":0.01},"classroomParams":{"A":{"a":1,"b":4},"B":{"a":4,"b":1},"C":{"a":2,"b":8},"D":{"a":8,"b":2}},"conditions":["nonSeqFull","nonSeqPartial","seqNoFeedback","seqFeedback"],"classroomPairings":[["A","B"],["C","D"]],"coinWeights":[0.2,0.5,0.8],"subjectId":"A2BK45LZGGWPLX","assignmentId":"3TS1AR6UQR0GT6WLMW8C7EM12IZF7C","hitId":"32TZXEA1OL6QYKM0MXQIQH2ABHN14I","url":"https://gershmanlab.com/experiments/alicia/teaching/experiment/?hitId=32TZXEA1OL6QYKM0MXQIQH2ABHN14I&workerId=A2BK45LZGGWPLX&assignmentId=3TS1AR6UQR0GT6WLMW8C7EM12IZF7C&a=UAST9&tp_a=UAST9&b=3TS1AR6UQR0GT6WLMW8C7EM12IZF7C&tp_b=3TS1AR6UQR0GT6WLMW8C7EM12IZF7C&c=365799&tp_c=365799","heads":4,"tails":1,"studentIndex":23,"studentTrueHypers":{"a":8,"b":2},"studentGuess":0.8,"delta":0,"totalExamples":5,"bonus":0.45,"bonusSoFar":5.39},{"rt":21390,"response":{"gender":"female","age":"65","understood":"yes","comments":"clever game but also annoying!"},"type":"response","trial_type":"survey-html-form","trial_index":199,"time_elapsed":4383476,"internal_node_id":"0.0-191.0","params":{"nStudents":24,"maxFlips":30,"completionMinutes":45,"basePay":8,"maxBonus":9,"perTrialBonus":0.5,"perTrialBonusThreshold":0.05,"exampleCost":0.01},"classroomParams":{"A":{"a":1,"b":4},"B":{"a":4,"b":1},"C":{"a":2,"b":8},"D":{"a":8,"b":2}},"conditions":["nonSeqFull","nonSeqPartial","seqNoFeedback","seqFeedback"],"classroomPairings":[["A","B"],["C","D"]],"coinWeights":[0.2,0.5,0.8],"subjectId":"A2BK45LZGGWPLX","assignmentId":"3TS1AR6UQR0GT6WLMW8C7EM12IZF7C","hitId":"32TZXEA1OL6QYKM0MXQIQH2ABHN14I","url":"https://gershmanlab.com/experiments/alicia/teaching/experiment/?hitId=32TZXEA1OL6QYKM0MXQIQH2ABHN14I&workerId=A2BK45LZGGWPLX&assignmentId=3TS1AR6UQR0GT6WLMW8C7EM12IZF7C&a=UAST9&tp_a=UAST9&b=3TS1AR6UQR0GT6WLMW8C7EM12IZF7C&tp_b=3TS1AR6UQR0GT6WLMW8C7EM12IZF7C&c=365799&tp_c=365799","totalBonus":5.39}]