[{"rt":28887,"response":{"heads":"5","tails":"5"},"type":"response","condition":"seqFeedback","trueTheta":0.5,"classrooms":["A","B"],"studentTrueClassroom":"A","exampleSet":"first","trial_type":"survey-html-form","trial_index":16,"time_elapsed":534619,"internal_node_id":"0.0-6.0-0.0","params":{"nStudents":24,"maxFlips":30,"completionMinutes":45,"basePay":8,"maxBonus":9,"perTrialBonus":0.5,"perTrialBonusThreshold":0.05,"exampleCost":0.01},"classroomParams":{"A":{"a":1,"b":4},"B":{"a":4,"b":1},"C":{"a":2,"b":8},"D":{"a":8,"b":2}},"conditions":["nonSeqFull","nonSeqPartial","seqNoFeedback","seqFeedback"],"classroomPairings":[["A","B"],["C","D"]],"coinWeights":[0.2,0.5,0.8],"subjectId":"A2E0LU8V4EUX5C","assignmentId":"3G5W44VEU84A2LZ0GA33T4RZ9HZKGM","hitId":"3AQN9REUTF20OMGWRXYK787QVFOYDP","url":"https://gershmanlab.com/experiments/alicia/teaching/experiment/?hitId=3AQN9REUTF20OMGWRXYK787QVFOYDP&workerId=A2E0LU8V4EUX5C&assignmentId=3G5W44VEU84A2LZ0GA33T4RZ9HZKGM&a=E45G9&tp_a=E45G9&b=3G5W44VEU84A2LZ0GA33T4RZ9HZKGM&tp_b=3G5W44VEU84A2LZ0GA33T4RZ9HZKGM&c=365799&tp_c=365799","heads":5,"tails":5,"studentIndex":0,"studentTrueHypers":{"a":1,"b":4},"studentGuess":0.4,"delta":0.09999999999999998,"totalExamples":10,"bonusSoFar":0},{"rt":8039,"response":{"heads":"6","tails":"2"},"type":"response","condition":"seqFeedback","trueTheta":0.5,"classrooms":["A","B"],"studentTrueClassroom":"A","exampleSet":"second","trial_type":"survey-html-form","trial_index":20,"time_elapsed":555483,"internal_node_id":"0.0-10.0-0.0","params":{"nStudents":24,"maxFlips":30,"completionMinutes":45,"basePay":8,"maxBonus":9,"perTrialBonus":0.5,"perTrialBonusThreshold":0.05,"exampleCost":0.01},"classroomParams":{"A":{"a":1,"b":4},"B":{"a":4,"b":1},"C":{"a":2,"b":8},"D":{"a":8,"b":2}},"conditions":["nonSeqFull","nonSeqPartial","seqNoFeedback","seqFeedback"],"classroomPairings":[["A","B"],["C","D"]],"coinWeights":[0.2,0.5,0.8],"subjectId":"A2E0LU8V4EUX5C","assignmentId":"3G5W44VEU84A2LZ0GA33T4RZ9HZKGM","hitId":"3AQN9REUTF20OMGWRXYK787QVFOYDP","url":"https://gershmanlab.com/experiments/alicia/teaching/experiment/?hitId=3AQN9REUTF20OMGWRXYK787QVFOYDP&workerId=A2E0LU8V4EUX5C&assignmentId=3G5W44VEU84A2LZ0GA33T4RZ9HZKGM&a=E45G9&tp_a=E45G9&b=3G5W44VEU84A2LZ0GA33T4RZ9HZKGM&tp_b=3G5W44VEU84A2LZ0GA33T4RZ9HZKGM&c=365799&tp_c=365799","firstResponseHeads":5,"firstResponseTails":5,"secondResponseHeads":6,"secondResponseTails":2,"totalHeads":11,"totalTails":7,"studentIndex":0,"studentTrueHypers":{"a":1,"b":4},"studentGuess":0.5217391304347826,"delta":0.021739130434782594,"bonus":0.32,"bonusSoFar":0.32,"totalExamples":18},{"rt":8352,"response":{"heads":"1","tails":"4"},"type":"response","condition":"seqFeedback","trueTheta":0.2,"classrooms":["C","D"],"studentTrueClassroom":"D","exampleSet":"first","trial_type":"survey-html-form","trial_index":26,"time_elapsed":579883,"internal_node_id":"0.0-16.0-0.0","params":{"nStudents":24,"maxFlips":30,"completionMinutes":45,"basePay":8,"maxBonus":9,"perTrialBonus":0.5,"perTrialBonusThreshold":0.05,"exampleCost":0.01},"classroomParams":{"A":{"a":1,"b":4},"B":{"a":4,"b":1},"C":{"a":2,"b":8},"D":{"a":8,"b":2}},"conditions":["nonSeqFull","nonSeqPartial","seqNoFeedback","seqFeedback"],"classroomPairings":[["A","B"],["C","D"]],"coinWeights":[0.2,0.5,0.8],"subjectId":"A2E0LU8V4EUX5C","assignmentId":"3G5W44VEU84A2LZ0GA33T4RZ9HZKGM","hitId":"3AQN9REUTF20OMGWRXYK787QVFOYDP","url":"https://gershmanlab.com/experiments/alicia/teaching/experiment/?hitId=3AQN9REUTF20OMGWRXYK787QVFOYDP&workerId=A2E0LU8V4EUX5C&assignmentId=3G5W44VEU84A2LZ0GA33T4RZ9HZKGM&a=E45G9&tp_a=E45G9&b=3G5W44VEU84A2LZ0GA33T4RZ9HZKGM&tp_b=3G5W44VEU84A2LZ0GA33T4RZ9HZKGM&c=365799&tp_c=365799","heads":1,"tails":4,"studentIndex":1,"studentTrueHypers":{"a":8,"b":2},"studentGuess":0.6,"delta":0.39999999999999997,"totalExamples":5,"bonusSoFar":0.32},{"rt":4235,"response":{"heads":"1","tails":"5"},"type":"response","condition":"seqFeedback","trueTheta":0.2,"classrooms":["C","D"],"studentTrueClassroom":"D","exampleSet":"second","trial_type":"survey-html-form","trial_index":30,"time_elapsed":592379,"internal_node_id":"0.0-20.0-0.0","params":{"nStudents":24,"maxFlips":30,"completionMinutes":45,"basePay":8,"maxBonus":9,"perTrialBonus":0.5,"perTrialBonusThreshold":0.05,"exampleCost":0.01},"classroomParams":{"A":{"a":1,"b":4},"B":{"a":4,"b":1},"C":{"a":2,"b":8},"D":{"a":8,"b":2}},"conditions":["nonSeqFull","nonSeqPartial","seqNoFeedback","seqFeedback"],"classroomPairings":[["A","B"],["C","D"]],"coinWeights":[0.2,0.5,0.8],"subjectId":"A2E0LU8V4EUX5C","assignmentId":"3G5W44VEU84A2LZ0GA33T4RZ9HZKGM","hitId":"3AQN9REUTF20OMGWRXYK787QVFOYDP","url":"https://gershmanlab.com/experiments/alicia/teaching/experiment/?hitId=3AQN9REUTF20OMGWRXYK787QVFOYDP&workerId=A2E0LU8V4EUX5C&assignmentId=3G5W44VEU84A2LZ0GA33T4RZ9HZKGM&a=E45G9&tp_a=E45G9&b=3G5W44VEU84A2LZ0GA33T4RZ9HZKGM&tp_b=3G5W44VEU84A2LZ0GA33T4RZ9HZKGM&c=365799&tp_c=365799","firstResponseHeads":1,"firstResponseTails":4,"secondResponseHeads":1,"secondResponseTails":5,"totalHeads":2,"totalTails":9,"studentIndex":1,"studentTrueHypers":{"a":8,"b":2},"studentGuess":0.47619047619047616,"delta":0.27619047619047615,"bonus":0,"bonusSoFar":0.32,"totalExamples":11},{"rt":5039,"response":{"heads":"4","tails":"0"},"type":"response","condition":"nonSeqPartial","trueTheta":0.8,"classrooms":["C","D"],"studentTrueClassroom":"C","exampleSet":"first","trial_type":"survey-html-form","trial_index":36,"time_elapsed":610516,"internal_node_id":"0.0-26.0-0.0","params":{"nStudents":24,"maxFlips":30,"completionMinutes":45,"basePay":8,"maxBonus":9,"perTrialBonus":0.5,"perTrialBonusThreshold":0.05,"exampleCost":0.01},"classroomParams":{"A":{"a":1,"b":4},"B":{"a":4,"b":1},"C":{"a":2,"b":8},"D":{"a":8,"b":2}},"conditions":["nonSeqFull","nonSeqPartial","seqNoFeedback","seqFeedback"],"classroomPairings":[["A","B"],["C","D"]],"coinWeights":[0.2,0.5,0.8],"subjectId":"A2E0LU8V4EUX5C","assignmentId":"3G5W44VEU84A2LZ0GA33T4RZ9HZKGM","hitId":"3AQN9REUTF20OMGWRXYK787QVFOYDP","url":"https://gershmanlab.com/experiments/alicia/teaching/experiment/?hitId=3AQN9REUTF20OMGWRXYK787QVFOYDP&workerId=A2E0LU8V4EUX5C&assignmentId=3G5W44VEU84A2LZ0GA33T4RZ9HZKGM&a=E45G9&tp_a=E45G9&b=3G5W44VEU84A2LZ0GA33T4RZ9HZKGM&tp_b=3G5W44VEU84A2LZ0GA33T4RZ9HZKGM&c=365799&tp_c=365799","heads":4,"tails":0,"studentIndex":2,"studentTrueHypers":{"a":2,"b":8},"studentGuess":0.42857142857142855,"delta":0.3714285714285715,"totalExamples":4,"bonus":0,"bonusSoFar":0.32},{"rt":5087,"response":{"heads":"5","tails":"2"},"type":"response","condition":"seqFeedback","trueTheta":0.8,"classrooms":["A","B"],"studentTrueClassroom":"A","exampleSet":"first","trial_type":"survey-html-form","trial_index":42,"time_elapsed":631636,"internal_node_id":"0.0-32.0-0.0","params":{"nStudents":24,"maxFlips":30,"completionMinutes":45,"basePay":8,"maxBonus":9,"perTrialBonus":0.5,"perTrialBonusThreshold":0.05,"exampleCost":0.01},"classroomParams":{"A":{"a":1,"b":4},"B":{"a":4,"b":1},"C":{"a":2,"b":8},"D":{"a":8,"b":2}},"conditions":["nonSeqFull","nonSeqPartial","seqNoFeedback","seqFeedback"],"classroomPairings":[["A","B"],["C","D"]],"coinWeights":[0.2,0.5,0.8],"subjectId":"A2E0LU8V4EUX5C","assignmentId":"3G5W44VEU84A2LZ0GA33T4RZ9HZKGM","hitId":"3AQN9REUTF20OMGWRXYK787QVFOYDP","url":"https://gershmanlab.com/experiments/alicia/teaching/experiment/?hitId=3AQN9REUTF20OMGWRXYK787QVFOYDP&workerId=A2E0LU8V4EUX5C&assignmentId=3G5W44VEU84A2LZ0GA33T4RZ9HZKGM&a=E45G9&tp_a=E45G9&b=3G5W44VEU84A2LZ0GA33T4RZ9HZKGM&tp_b=3G5W44VEU84A2LZ0GA33T4RZ9HZKGM&c=365799&tp_c=365799","heads":5,"tails":2,"studentIndex":3,"studentTrueHypers":{"a":1,"b":4},"studentGuess":0.5,"delta":0.30000000000000004,"totalExamples":7,"bonusSoFar":0.32},{"rt":10499,"response":{"heads":"6","tails":"2"},"type":"response","condition":"seqFeedback","trueTheta":0.8,"classrooms":["A","B"],"studentTrueClassroom":"A","exampleSet":"second","trial_type":"survey-html-form","trial_index":46,"time_elapsed":651084,"internal_node_id":"0.0-36.0-0.0","params":{"nStudents":24,"maxFlips":30,"completionMinutes":45,"basePay":8,"maxBonus":9,"perTrialBonus":0.5,"perTrialBonusThreshold":0.05,"exampleCost":0.01},"classroomParams":{"A":{"a":1,"b":4},"B":{"a":4,"b":1},"C":{"a":2,"b":8},"D":{"a":8,"b":2}},"conditions":["nonSeqFull","nonSeqPartial","seqNoFeedback","seqFeedback"],"classroomPairings":[["A","B"],["C","D"]],"coinWeights":[0.2,0.5,0.8],"subjectId":"A2E0LU8V4EUX5C","assignmentId":"3G5W44VEU84A2LZ0GA33T4RZ9HZKGM","hitId":"3AQN9REUTF20OMGWRXYK787QVFOYDP","url":"https://gershmanlab.com/experiments/alicia/teaching/experiment/?hitId=3AQN9REUTF20OMGWRXYK787QVFOYDP&workerId=A2E0LU8V4EUX5C&assignmentId=3G5W44VEU84A2LZ0GA33T4RZ9HZKGM&a=E45G9&tp_a=E45G9&b=3G5W44VEU84A2LZ0GA33T4RZ9HZKGM&tp_b=3G5W44VEU84A2LZ0GA33T4RZ9HZKGM&c=365799&tp_c=365799","firstResponseHeads":5,"firstResponseTails":2,"secondResponseHeads":6,"secondResponseTails":2,"totalHeads":11,"totalTails":4,"studentIndex":3,"studentTrueHypers":{"a":1,"b":4},"studentGuess":0.6,"delta":0.20000000000000007,"bonus":0,"bonusSoFar":0.32,"totalExamples":15},{"rt":6215,"response":{"heads":"1","tails":"3"},"type":"response","condition":"seqNoFeedback","trueTheta":0.2,"classrooms":["C","D"],"studentTrueClassroom":"C","exampleSet":"first","trial_type":"survey-html-form","trial_index":52,"time_elapsed":671180,"internal_node_id":"0.0-42.0-0.0","params":{"nStudents":24,"maxFlips":30,"completionMinutes":45,"basePay":8,"maxBonus":9,"perTrialBonus":0.5,"perTrialBonusThreshold":0.05,"exampleCost":0.01},"classroomParams":{"A":{"a":1,"b":4},"B":{"a":4,"b":1},"C":{"a":2,"b":8},"D":{"a":8,"b":2}},"conditions":["nonSeqFull","nonSeqPartial","seqNoFeedback","seqFeedback"],"classroomPairings":[["A","B"],["C","D"]],"coinWeights":[0.2,0.5,0.8],"subjectId":"A2E0LU8V4EUX5C","assignmentId":"3G5W44VEU84A2LZ0GA33T4RZ9HZKGM","hitId":"3AQN9REUTF20OMGWRXYK787QVFOYDP","url":"https://gershmanlab.com/experiments/alicia/teaching/experiment/?hitId=3AQN9REUTF20OMGWRXYK787QVFOYDP&workerId=A2E0LU8V4EUX5C&assignmentId=3G5W44VEU84A2LZ0GA33T4RZ9HZKGM&a=E45G9&tp_a=E45G9&b=3G5W44VEU84A2LZ0GA33T4RZ9HZKGM&tp_b=3G5W44VEU84A2LZ0GA33T4RZ9HZKGM&c=365799&tp_c=365799","heads":1,"tails":3,"studentIndex":4,"studentTrueHypers":{"a":2,"b":8},"studentGuess":0.21428571428571427,"delta":0.014285714285714263,"totalExamples":4,"bonusSoFar":0.32},{"rt":10625,"response":{"heads":"1","tails":"5"},"type":"response","condition":"seqNoFeedback","trueTheta":0.2,"classrooms":["C","D"],"studentTrueClassroom":"C","exampleSet":"second","trial_type":"survey-html-form","trial_index":55,"time_elapsed":689060,"internal_node_id":"0.0-45.0-0.0","params":{"nStudents":24,"maxFlips":30,"completionMinutes":45,"basePay":8,"maxBonus":9,"perTrialBonus":0.5,"perTrialBonusThreshold":0.05,"exampleCost":0.01},"classroomParams":{"A":{"a":1,"b":4},"B":{"a":4,"b":1},"C":{"a":2,"b":8},"D":{"a":8,"b":2}},"conditions":["nonSeqFull","nonSeqPartial","seqNoFeedback","seqFeedback"],"classroomPairings":[["A","B"],["C","D"]],"coinWeights":[0.2,0.5,0.8],"subjectId":"A2E0LU8V4EUX5C","assignmentId":"3G5W44VEU84A2LZ0GA33T4RZ9HZKGM","hitId":"3AQN9REUTF20OMGWRXYK787QVFOYDP","url":"https://gershmanlab.com/experiments/alicia/teaching/experiment/?hitId=3AQN9REUTF20OMGWRXYK787QVFOYDP&workerId=A2E0LU8V4EUX5C&assignmentId=3G5W44VEU84A2LZ0GA33T4RZ9HZKGM&a=E45G9&tp_a=E45G9&b=3G5W44VEU84A2LZ0GA33T4RZ9HZKGM&tp_b=3G5W44VEU84A2LZ0GA33T4RZ9HZKGM&c=365799&tp_c=365799","firstResponseHeads":1,"firstResponseTails":3,"secondResponseHeads":1,"secondResponseTails":5,"totalHeads":2,"totalTails":8,"studentIndex":4,"studentTrueHypers":{"a":2,"b":8},"studentGuess":0.2,"delta":0,"bonus":0.4,"bonusSoFar":0.72,"totalExamples":10},{"rt":8119,"response":{"heads":"6","tails":"0"},"type":"response","condition":"nonSeqFull","trueTheta":0.8,"classrooms":["A","B"],"studentTrueClassroom":"A","exampleSet":"first","trial_type":"survey-html-form","trial_index":61,"time_elapsed":711772,"internal_node_id":"0.0-51.0-0.0","params":{"nStudents":24,"maxFlips":30,"completionMinutes":45,"basePay":8,"maxBonus":9,"perTrialBonus":0.5,"perTrialBonusThreshold":0.05,"exampleCost":0.01},"classroomParams":{"A":{"a":1,"b":4},"B":{"a":4,"b":1},"C":{"a":2,"b":8},"D":{"a":8,"b":2}},"conditions":["nonSeqFull","nonSeqPartial","seqNoFeedback","seqFeedback"],"classroomPairings":[["A","B"],["C","D"]],"coinWeights":[0.2,0.5,0.8],"subjectId":"A2E0LU8V4EUX5C","assignmentId":"3G5W44VEU84A2LZ0GA33T4RZ9HZKGM","hitId":"3AQN9REUTF20OMGWRXYK787QVFOYDP","url":"https://gershmanlab.com/experiments/alicia/teaching/experiment/?hitId=3AQN9REUTF20OMGWRXYK787QVFOYDP&workerId=A2E0LU8V4EUX5C&assignmentId=3G5W44VEU84A2LZ0GA33T4RZ9HZKGM&a=E45G9&tp_a=E45G9&b=3G5W44VEU84A2LZ0GA33T4RZ9HZKGM&tp_b=3G5W44VEU84A2LZ0GA33T4RZ9HZKGM&c=365799&tp_c=365799","heads":6,"tails":0,"studentIndex":5,"studentTrueHypers":{"a":1,"b":4},"studentGuess":0.6363636363636364,"delta":0.1636363636363637,"totalExamples":6,"bonus":0,"bonusSoFar":0.72},{"rt":8959,"response":{"heads":"1","tails":"5"},"type":"response","condition":"nonSeqPartial","trueTheta":0.2,"classrooms":["A","B"],"studentTrueClassroom":"A","exampleSet":"first","trial_type":"survey-html-form","trial_index":67,"time_elapsed":738260,"internal_node_id":"0.0-57.0-0.0","params":{"nStudents":24,"maxFlips":30,"completionMinutes":45,"basePay":8,"maxBonus":9,"perTrialBonus":0.5,"perTrialBonusThreshold":0.05,"exampleCost":0.01},"classroomParams":{"A":{"a":1,"b":4},"B":{"a":4,"b":1},"C":{"a":2,"b":8},"D":{"a":8,"b":2}},"conditions":["nonSeqFull","nonSeqPartial","seqNoFeedback","seqFeedback"],"classroomPairings":[["A","B"],["C","D"]],"coinWeights":[0.2,0.5,0.8],"subjectId":"A2E0LU8V4EUX5C","assignmentId":"3G5W44VEU84A2LZ0GA33T4RZ9HZKGM","hitId":"3AQN9REUTF20OMGWRXYK787QVFOYDP","url":"https://gershmanlab.com/experiments/alicia/teaching/experiment/?hitId=3AQN9REUTF20OMGWRXYK787QVFOYDP&workerId=A2E0LU8V4EUX5C&assignmentId=3G5W44VEU84A2LZ0GA33T4RZ9HZKGM&a=E45G9&tp_a=E45G9&b=3G5W44VEU84A2LZ0GA33T4RZ9HZKGM&tp_b=3G5W44VEU84A2LZ0GA33T4RZ9HZKGM&c=365799&tp_c=365799","heads":1,"tails":5,"studentIndex":6,"studentTrueHypers":{"a":1,"b":4},"studentGuess":0.18181818181818182,"delta":0.018181818181818188,"totalExamples":6,"bonus":0.44,"bonusSoFar":1.16},{"rt":14335,"response":{"heads":"1","tails":"4"},"type":"response","condition":"seqFeedback","trueTheta":0.2,"classrooms":["A","B"],"studentTrueClassroom":"B","exampleSet":"first","trial_type":"survey-html-form","trial_index":73,"time_elapsed":770180,"internal_node_id":"0.0-63.0-0.0","params":{"nStudents":24,"maxFlips":30,"completionMinutes":45,"basePay":8,"maxBonus":9,"perTrialBonus":0.5,"perTrialBonusThreshold":0.05,"exampleCost":0.01},"classroomParams":{"A":{"a":1,"b":4},"B":{"a":4,"b":1},"C":{"a":2,"b":8},"D":{"a":8,"b":2}},"conditions":["nonSeqFull","nonSeqPartial","seqNoFeedback","seqFeedback"],"classroomPairings":[["A","B"],["C","D"]],"coinWeights":[0.2,0.5,0.8],"subjectId":"A2E0LU8V4EUX5C","assignmentId":"3G5W44VEU84A2LZ0GA33T4RZ9HZKGM","hitId":"3AQN9REUTF20OMGWRXYK787QVFOYDP","url":"https://gershmanlab.com/experiments/alicia/teaching/experiment/?hitId=3AQN9REUTF20OMGWRXYK787QVFOYDP&workerId=A2E0LU8V4EUX5C&assignmentId=3G5W44VEU84A2LZ0GA33T4RZ9HZKGM&a=E45G9&tp_a=E45G9&b=3G5W44VEU84A2LZ0GA33T4RZ9HZKGM&tp_b=3G5W44VEU84A2LZ0GA33T4RZ9HZKGM&c=365799&tp_c=365799","heads":1,"tails":4,"studentIndex":7,"studentTrueHypers":{"a":4,"b":1},"studentGuess":0.5,"delta":0.3,"totalExamples":5,"bonusSoFar":1.16},{"rt":12215,"response":{"heads":"1","tails":"5"},"type":"response","condition":"seqFeedback","trueTheta":0.2,"classrooms":["A","B"],"studentTrueClassroom":"B","exampleSet":"second","trial_type":"survey-html-form","trial_index":77,"time_elapsed":792852,"internal_node_id":"0.0-67.0-0.0","params":{"nStudents":24,"maxFlips":30,"completionMinutes":45,"basePay":8,"maxBonus":9,"perTrialBonus":0.5,"perTrialBonusThreshold":0.05,"exampleCost":0.01},"classroomParams":{"A":{"a":1,"b":4},"B":{"a":4,"b":1},"C":{"a":2,"b":8},"D":{"a":8,"b":2}},"conditions":["nonSeqFull","nonSeqPartial","seqNoFeedback","seqFeedback"],"classroomPairings":[["A","B"],["C","D"]],"coinWeights":[0.2,0.5,0.8],"subjectId":"A2E0LU8V4EUX5C","assignmentId":"3G5W44VEU84A2LZ0GA33T4RZ9HZKGM","hitId":"3AQN9REUTF20OMGWRXYK787QVFOYDP","url":"https://gershmanlab.com/experiments/alicia/teaching/experiment/?hitId=3AQN9REUTF20OMGWRXYK787QVFOYDP&workerId=A2E0LU8V4EUX5C&assignmentId=3G5W44VEU84A2LZ0GA33T4RZ9HZKGM&a=E45G9&tp_a=E45G9&b=3G5W44VEU84A2LZ0GA33T4RZ9HZKGM&tp_b=3G5W44VEU84A2LZ0GA33T4RZ9HZKGM&c=365799&tp_c=365799","firstResponseHeads":1,"firstResponseTails":4,"secondResponseHeads":1,"secondResponseTails":5,"totalHeads":2,"totalTails":9,"studentIndex":7,"studentTrueHypers":{"a":4,"b":1},"studentGuess":0.375,"delta":0.175,"bonus":0,"bonusSoFar":1.16,"totalExamples":11},{"rt":9983,"response":{"heads":"5","tails":"5"},"type":"response","condition":"seqNoFeedback","trueTheta":0.5,"classrooms":["A","B"],"studentTrueClassroom":"A","exampleSet":"first","trial_type":"survey-html-form","trial_index":83,"time_elapsed":818668,"internal_node_id":"0.0-73.0-0.0","params":{"nStudents":24,"maxFlips":30,"completionMinutes":45,"basePay":8,"maxBonus":9,"perTrialBonus":0.5,"perTrialBonusThreshold":0.05,"exampleCost":0.01},"classroomParams":{"A":{"a":1,"b":4},"B":{"a":4,"b":1},"C":{"a":2,"b":8},"D":{"a":8,"b":2}},"conditions":["nonSeqFull","nonSeqPartial","seqNoFeedback","seqFeedback"],"classroomPairings":[["A","B"],["C","D"]],"coinWeights":[0.2,0.5,0.8],"subjectId":"A2E0LU8V4EUX5C","assignmentId":"3G5W44VEU84A2LZ0GA33T4RZ9HZKGM","hitId":"3AQN9REUTF20OMGWRXYK787QVFOYDP","url":"https://gershmanlab.com/experiments/alicia/teaching/experiment/?hitId=3AQN9REUTF20OMGWRXYK787QVFOYDP&workerId=A2E0LU8V4EUX5C&assignmentId=3G5W44VEU84A2LZ0GA33T4RZ9HZKGM&a=E45G9&tp_a=E45G9&b=3G5W44VEU84A2LZ0GA33T4RZ9HZKGM&tp_b=3G5W44VEU84A2LZ0GA33T4RZ9HZKGM&c=365799&tp_c=365799","heads":5,"tails":5,"studentIndex":8,"studentTrueHypers":{"a":1,"b":4},"studentGuess":0.4,"delta":0.09999999999999998,"totalExamples":10,"bonusSoFar":1.16},{"rt":11561,"response":{"heads":"5","tails":"5"},"type":"response","condition":"seqNoFeedback","trueTheta":0.5,"classrooms":["A","B"],"studentTrueClassroom":"A","exampleSet":"second","trial_type":"survey-html-form","trial_index":86,"time_elapsed":837484,"internal_node_id":"0.0-76.0-0.0","params":{"nStudents":24,"maxFlips":30,"completionMinutes":45,"basePay":8,"maxBonus":9,"perTrialBonus":0.5,"perTrialBonusThreshold":0.05,"exampleCost":0.01},"classroomParams":{"A":{"a":1,"b":4},"B":{"a":4,"b":1},"C":{"a":2,"b":8},"D":{"a":8,"b":2}},"conditions":["nonSeqFull","nonSeqPartial","seqNoFeedback","seqFeedback"],"classroomPairings":[["A","B"],["C","D"]],"coinWeights":[0.2,0.5,0.8],"subjectId":"A2E0LU8V4EUX5C","assignmentId":"3G5W44VEU84A2LZ0GA33T4RZ9HZKGM","hitId":"3AQN9REUTF20OMGWRXYK787QVFOYDP","url":"https://gershmanlab.com/experiments/alicia/teaching/experiment/?hitId=3AQN9REUTF20OMGWRXYK787QVFOYDP&workerId=A2E0LU8V4EUX5C&assignmentId=3G5W44VEU84A2LZ0GA33T4RZ9HZKGM&a=E45G9&tp_a=E45G9&b=3G5W44VEU84A2LZ0GA33T4RZ9HZKGM&tp_b=3G5W44VEU84A2LZ0GA33T4RZ9HZKGM&c=365799&tp_c=365799","firstResponseHeads":5,"firstResponseTails":5,"secondResponseHeads":5,"secondResponseTails":5,"totalHeads":10,"totalTails":10,"studentIndex":8,"studentTrueHypers":{"a":1,"b":4},"studentGuess":0.44,"delta":0.06,"bonus":0,"bonusSoFar":1.16,"totalExamples":20},{"rt":10599,"response":{"heads":"6","tails":"4"},"type":"response","condition":"nonSeqPartial","trueTheta":0.5,"classrooms":["A","B"],"studentTrueClassroom":"B","exampleSet":"first","trial_type":"survey-html-form","trial_index":92,"time_elapsed":862411,"internal_node_id":"0.0-82.0-0.0","params":{"nStudents":24,"maxFlips":30,"completionMinutes":45,"basePay":8,"maxBonus":9,"perTrialBonus":0.5,"perTrialBonusThreshold":0.05,"exampleCost":0.01},"classroomParams":{"A":{"a":1,"b":4},"B":{"a":4,"b":1},"C":{"a":2,"b":8},"D":{"a":8,"b":2}},"conditions":["nonSeqFull","nonSeqPartial","seqNoFeedback","seqFeedback"],"classroomPairings":[["A","B"],["C","D"]],"coinWeights":[0.2,0.5,0.8],"subjectId":"A2E0LU8V4EUX5C","assignmentId":"3G5W44VEU84A2LZ0GA33T4RZ9HZKGM","hitId":"3AQN9REUTF20OMGWRXYK787QVFOYDP","url":"https://gershmanlab.com/experiments/alicia/teaching/experiment/?hitId=3AQN9REUTF20OMGWRXYK787QVFOYDP&workerId=A2E0LU8V4EUX5C&assignmentId=3G5W44VEU84A2LZ0GA33T4RZ9HZKGM&a=E45G9&tp_a=E45G9&b=3G5W44VEU84A2LZ0GA33T4RZ9HZKGM&tp_b=3G5W44VEU84A2LZ0GA33T4RZ9HZKGM&c=365799&tp_c=365799","heads":6,"tails":4,"studentIndex":9,"studentTrueHypers":{"a":4,"b":1},"studentGuess":0.6666666666666666,"delta":0.16666666666666663,"totalExamples":10,"bonus":0,"bonusSoFar":1.16},{"rt":8296,"response":{"heads":"1","tails":"6"},"type":"response","condition":"seqNoFeedback","trueTheta":0.2,"classrooms":["A","B"],"studentTrueClassroom":"A","exampleSet":"first","trial_type":"survey-html-form","trial_index":98,"time_elapsed":884291,"internal_node_id":"0.0-88.0-0.0","params":{"nStudents":24,"maxFlips":30,"completionMinutes":45,"basePay":8,"maxBonus":9,"perTrialBonus":0.5,"perTrialBonusThreshold":0.05,"exampleCost":0.01},"classroomParams":{"A":{"a":1,"b":4},"B":{"a":4,"b":1},"C":{"a":2,"b":8},"D":{"a":8,"b":2}},"conditions":["nonSeqFull","nonSeqPartial","seqNoFeedback","seqFeedback"],"classroomPairings":[["A","B"],["C","D"]],"coinWeights":[0.2,0.5,0.8],"subjectId":"A2E0LU8V4EUX5C","assignmentId":"3G5W44VEU84A2LZ0GA33T4RZ9HZKGM","hitId":"3AQN9REUTF20OMGWRXYK787QVFOYDP","url":"https://gershmanlab.com/experiments/alicia/teaching/experiment/?hitId=3AQN9REUTF20OMGWRXYK787QVFOYDP&workerId=A2E0LU8V4EUX5C&assignmentId=3G5W44VEU84A2LZ0GA33T4RZ9HZKGM&a=E45G9&tp_a=E45G9&b=3G5W44VEU84A2LZ0GA33T4RZ9HZKGM&tp_b=3G5W44VEU84A2LZ0GA33T4RZ9HZKGM&c=365799&tp_c=365799","heads":1,"tails":6,"studentIndex":10,"studentTrueHypers":{"a":1,"b":4},"studentGuess":0.16666666666666666,"delta":0.033333333333333354,"totalExamples":7,"bonusSoFar":1.16},{"rt":3941,"response":{"heads":"0","tails":"7"},"type":"response","condition":"seqNoFeedback","trueTheta":0.2,"classrooms":["A","B"],"studentTrueClassroom":"A","exampleSet":"second","trial_type":"survey-html-form","trial_index":101,"time_elapsed":893987,"internal_node_id":"0.0-91.0-0.0","params":{"nStudents":24,"maxFlips":30,"completionMinutes":45,"basePay":8,"maxBonus":9,"perTrialBonus":0.5,"perTrialBonusThreshold":0.05,"exampleCost":0.01},"classroomParams":{"A":{"a":1,"b":4},"B":{"a":4,"b":1},"C":{"a":2,"b":8},"D":{"a":8,"b":2}},"conditions":["nonSeqFull","nonSeqPartial","seqNoFeedback","seqFeedback"],"classroomPairings":[["A","B"],["C","D"]],"coinWeights":[0.2,0.5,0.8],"subjectId":"A2E0LU8V4EUX5C","assignmentId":"3G5W44VEU84A2LZ0GA33T4RZ9HZKGM","hitId":"3AQN9REUTF20OMGWRXYK787QVFOYDP","url":"https://gershmanlab.com/experiments/alicia/teaching/experiment/?hitId=3AQN9REUTF20OMGWRXYK787QVFOYDP&workerId=A2E0LU8V4EUX5C&assignmentId=3G5W44VEU84A2LZ0GA33T4RZ9HZKGM&a=E45G9&tp_a=E45G9&b=3G5W44VEU84A2LZ0GA33T4RZ9HZKGM&tp_b=3G5W44VEU84A2LZ0GA33T4RZ9HZKGM&c=365799&tp_c=365799","firstResponseHeads":1,"firstResponseTails":6,"secondResponseHeads":0,"secondResponseTails":7,"totalHeads":1,"totalTails":13,"studentIndex":10,"studentTrueHypers":{"a":1,"b":4},"studentGuess":0.10526315789473684,"delta":0.09473684210526317,"bonus":0,"bonusSoFar":1.16,"totalExamples":14},{"rt":11112,"response":{"heads":"6","tails":"3"},"type":"response","condition":"nonSeqFull","trueTheta":0.5,"classrooms":["C","D"],"studentTrueClassroom":"C","exampleSet":"first","trial_type":"survey-html-form","trial_index":107,"time_elapsed":920539,"internal_node_id":"0.0-97.0-0.0","params":{"nStudents":24,"maxFlips":30,"completionMinutes":45,"basePay":8,"maxBonus":9,"perTrialBonus":0.5,"perTrialBonusThreshold":0.05,"exampleCost":0.01},"classroomParams":{"A":{"a":1,"b":4},"B":{"a":4,"b":1},"C":{"a":2,"b":8},"D":{"a":8,"b":2}},"conditions":["nonSeqFull","nonSeqPartial","seqNoFeedback","seqFeedback"],"classroomPairings":[["A","B"],["C","D"]],"coinWeights":[0.2,0.5,0.8],"subjectId":"A2E0LU8V4EUX5C","assignmentId":"3G5W44VEU84A2LZ0GA33T4RZ9HZKGM","hitId":"3AQN9REUTF20OMGWRXYK787QVFOYDP","url":"https://gershmanlab.com/experiments/alicia/teaching/experiment/?hitId=3AQN9REUTF20OMGWRXYK787QVFOYDP&workerId=A2E0LU8V4EUX5C&assignmentId=3G5W44VEU84A2LZ0GA33T4RZ9HZKGM&a=E45G9&tp_a=E45G9&b=3G5W44VEU84A2LZ0GA33T4RZ9HZKGM&tp_b=3G5W44VEU84A2LZ0GA33T4RZ9HZKGM&c=365799&tp_c=365799","heads":6,"tails":3,"studentIndex":11,"studentTrueHypers":{"a":2,"b":8},"studentGuess":0.42105263157894735,"delta":0.07894736842105265,"totalExamples":9,"bonus":0,"bonusSoFar":1.16},{"rt":10784,"response":{"heads":"7","tails":"2"},"type":"response","condition":"seqNoFeedback","trueTheta":0.5,"classrooms":["C","D"],"studentTrueClassroom":"D","exampleSet":"first","trial_type":"survey-html-form","trial_index":113,"time_elapsed":946635,"internal_node_id":"0.0-103.0-0.0","params":{"nStudents":24,"maxFlips":30,"completionMinutes":45,"basePay":8,"maxBonus":9,"perTrialBonus":0.5,"perTrialBonusThreshold":0.05,"exampleCost":0.01},"classroomParams":{"A":{"a":1,"b":4},"B":{"a":4,"b":1},"C":{"a":2,"b":8},"D":{"a":8,"b":2}},"conditions":["nonSeqFull","nonSeqPartial","seqNoFeedback","seqFeedback"],"classroomPairings":[["A","B"],["C","D"]],"coinWeights":[0.2,0.5,0.8],"subjectId":"A2E0LU8V4EUX5C","assignmentId":"3G5W44VEU84A2LZ0GA33T4RZ9HZKGM","hitId":"3AQN9REUTF20OMGWRXYK787QVFOYDP","url":"https://gershmanlab.com/experiments/alicia/teaching/experiment/?hitId=3AQN9REUTF20OMGWRXYK787QVFOYDP&workerId=A2E0LU8V4EUX5C&assignmentId=3G5W44VEU84A2LZ0GA33T4RZ9HZKGM&a=E45G9&tp_a=E45G9&b=3G5W44VEU84A2LZ0GA33T4RZ9HZKGM&tp_b=3G5W44VEU84A2LZ0GA33T4RZ9HZKGM&c=365799&tp_c=365799","heads":7,"tails":2,"studentIndex":12,"studentTrueHypers":{"a":8,"b":2},"studentGuess":0.7894736842105263,"delta":0.2894736842105263,"totalExamples":9,"bonusSoFar":1.16},{"rt":9058,"response":{"heads":"2","tails":"7"},"type":"response","condition":"seqNoFeedback","trueTheta":0.5,"classrooms":["C","D"],"studentTrueClassroom":"D","exampleSet":"second","trial_type":"survey-html-form","trial_index":116,"time_elapsed":963699,"internal_node_id":"0.0-106.0-0.0","params":{"nStudents":24,"maxFlips":30,"completionMinutes":45,"basePay":8,"maxBonus":9,"perTrialBonus":0.5,"perTrialBonusThreshold":0.05,"exampleCost":0.01},"classroomParams":{"A":{"a":1,"b":4},"B":{"a":4,"b":1},"C":{"a":2,"b":8},"D":{"a":8,"b":2}},"conditions":["nonSeqFull","nonSeqPartial","seqNoFeedback","seqFeedback"],"classroomPairings":[["A","B"],["C","D"]],"coinWeights":[0.2,0.5,0.8],"subjectId":"A2E0LU8V4EUX5C","assignmentId":"3G5W44VEU84A2LZ0GA33T4RZ9HZKGM","hitId":"3AQN9REUTF20OMGWRXYK787QVFOYDP","url":"https://gershmanlab.com/experiments/alicia/teaching/experiment/?hitId=3AQN9REUTF20OMGWRXYK787QVFOYDP&workerId=A2E0LU8V4EUX5C&assignmentId=3G5W44VEU84A2LZ0GA33T4RZ9HZKGM&a=E45G9&tp_a=E45G9&b=3G5W44VEU84A2LZ0GA33T4RZ9HZKGM&tp_b=3G5W44VEU84A2LZ0GA33T4RZ9HZKGM&c=365799&tp_c=365799","firstResponseHeads":7,"firstResponseTails":2,"secondResponseHeads":2,"secondResponseTails":7,"totalHeads":9,"totalTails":9,"studentIndex":12,"studentTrueHypers":{"a":8,"b":2},"studentGuess":0.6071428571428571,"delta":0.1071428571428571,"bonus":0,"bonusSoFar":1.16,"totalExamples":18},{"rt":14064,"response":{"heads":"1","tails":"8"},"type":"response","condition":"nonSeqFull","trueTheta":0.2,"classrooms":["A","B"],"studentTrueClassroom":"A","exampleSet":"first","trial_type":"survey-html-form","trial_index":122,"time_elapsed":991171,"internal_node_id":"0.0-112.0-0.0","params":{"nStudents":24,"maxFlips":30,"completionMinutes":45,"basePay":8,"maxBonus":9,"perTrialBonus":0.5,"perTrialBonusThreshold":0.05,"exampleCost":0.01},"classroomParams":{"A":{"a":1,"b":4},"B":{"a":4,"b":1},"C":{"a":2,"b":8},"D":{"a":8,"b":2}},"conditions":["nonSeqFull","nonSeqPartial","seqNoFeedback","seqFeedback"],"classroomPairings":[["A","B"],["C","D"]],"coinWeights":[0.2,0.5,0.8],"subjectId":"A2E0LU8V4EUX5C","assignmentId":"3G5W44VEU84A2LZ0GA33T4RZ9HZKGM","hitId":"3AQN9REUTF20OMGWRXYK787QVFOYDP","url":"https://gershmanlab.com/experiments/alicia/teaching/experiment/?hitId=3AQN9REUTF20OMGWRXYK787QVFOYDP&workerId=A2E0LU8V4EUX5C&assignmentId=3G5W44VEU84A2LZ0GA33T4RZ9HZKGM&a=E45G9&tp_a=E45G9&b=3G5W44VEU84A2LZ0GA33T4RZ9HZKGM&tp_b=3G5W44VEU84A2LZ0GA33T4RZ9HZKGM&c=365799&tp_c=365799","heads":1,"tails":8,"studentIndex":13,"studentTrueHypers":{"a":1,"b":4},"studentGuess":0.14285714285714285,"delta":0.05714285714285716,"totalExamples":9,"bonus":0,"bonusSoFar":1.16},{"rt":5415,"response":{"heads":"6","tails":"2"},"type":"response","condition":"seqFeedback","trueTheta":0.5,"classrooms":["C","D"],"studentTrueClassroom":"C","exampleSet":"first","trial_type":"survey-html-form","trial_index":128,"time_elapsed":1009811,"internal_node_id":"0.0-118.0-0.0","params":{"nStudents":24,"maxFlips":30,"completionMinutes":45,"basePay":8,"maxBonus":9,"perTrialBonus":0.5,"perTrialBonusThreshold":0.05,"exampleCost":0.01},"classroomParams":{"A":{"a":1,"b":4},"B":{"a":4,"b":1},"C":{"a":2,"b":8},"D":{"a":8,"b":2}},"conditions":["nonSeqFull","nonSeqPartial","seqNoFeedback","seqFeedback"],"classroomPairings":[["A","B"],["C","D"]],"coinWeights":[0.2,0.5,0.8],"subjectId":"A2E0LU8V4EUX5C","assignmentId":"3G5W44VEU84A2LZ0GA33T4RZ9HZKGM","hitId":"3AQN9REUTF20OMGWRXYK787QVFOYDP","url":"https://gershmanlab.com/experiments/alicia/teaching/experiment/?hitId=3AQN9REUTF20OMGWRXYK787QVFOYDP&workerId=A2E0LU8V4EUX5C&assignmentId=3G5W44VEU84A2LZ0GA33T4RZ9HZKGM&a=E45G9&tp_a=E45G9&b=3G5W44VEU84A2LZ0GA33T4RZ9HZKGM&tp_b=3G5W44VEU84A2LZ0GA33T4RZ9HZKGM&c=365799&tp_c=365799","heads":6,"tails":2,"studentIndex":14,"studentTrueHypers":{"a":2,"b":8},"studentGuess":0.4444444444444444,"delta":0.05555555555555558,"totalExamples":8,"bonusSoFar":1.16},{"rt":4823,"response":{"heads":"6","tails":"2"},"type":"response","condition":"seqFeedback","trueTheta":0.5,"classrooms":["C","D"],"studentTrueClassroom":"C","exampleSet":"second","trial_type":"survey-html-form","trial_index":132,"time_elapsed":1022955,"internal_node_id":"0.0-122.0-0.0","params":{"nStudents":24,"maxFlips":30,"completionMinutes":45,"basePay":8,"maxBonus":9,"perTrialBonus":0.5,"perTrialBonusThreshold":0.05,"exampleCost":0.01},"classroomParams":{"A":{"a":1,"b":4},"B":{"a":4,"b":1},"C":{"a":2,"b":8},"D":{"a":8,"b":2}},"conditions":["nonSeqFull","nonSeqPartial","seqNoFeedback","seqFeedback"],"classroomPairings":[["A","B"],["C","D"]],"coinWeights":[0.2,0.5,0.8],"subjectId":"A2E0LU8V4EUX5C","assignmentId":"3G5W44VEU84A2LZ0GA33T4RZ9HZKGM","hitId":"3AQN9REUTF20OMGWRXYK787QVFOYDP","url":"https://gershmanlab.com/experiments/alicia/teaching/experiment/?hitId=3AQN9REUTF20OMGWRXYK787QVFOYDP&workerId=A2E0LU8V4EUX5C&assignmentId=3G5W44VEU84A2LZ0GA33T4RZ9HZKGM&a=E45G9&tp_a=E45G9&b=3G5W44VEU84A2LZ0GA33T4RZ9HZKGM&tp_b=3G5W44VEU84A2LZ0GA33T4RZ9HZKGM&c=365799&tp_c=365799","firstResponseHeads":6,"firstResponseTails":2,"secondResponseHeads":6,"secondResponseTails":2,"totalHeads":12,"totalTails":4,"studentIndex":14,"studentTrueHypers":{"a":2,"b":8},"studentGuess":0.5384615384615384,"delta":0.038461538461538436,"bonus":0.34,"bonusSoFar":1.5,"totalExamples":16},{"rt":8335,"response":{"heads":"8","tails":"2"},"type":"response","condition":"seqNoFeedback","trueTheta":0.8,"classrooms":["C","D"],"studentTrueClassroom":"C","exampleSet":"first","trial_type":"survey-html-form","trial_index":138,"time_elapsed":1043483,"internal_node_id":"0.0-128.0-0.0","params":{"nStudents":24,"maxFlips":30,"completionMinutes":45,"basePay":8,"maxBonus":9,"perTrialBonus":0.5,"perTrialBonusThreshold":0.05,"exampleCost":0.01},"classroomParams":{"A":{"a":1,"b":4},"B":{"a":4,"b":1},"C":{"a":2,"b":8},"D":{"a":8,"b":2}},"conditions":["nonSeqFull","nonSeqPartial","seqNoFeedback","seqFeedback"],"classroomPairings":[["A","B"],["C","D"]],"coinWeights":[0.2,0.5,0.8],"subjectId":"A2E0LU8V4EUX5C","assignmentId":"3G5W44VEU84A2LZ0GA33T4RZ9HZKGM","hitId":"3AQN9REUTF20OMGWRXYK787QVFOYDP","url":"https://gershmanlab.com/experiments/alicia/teaching/experiment/?hitId=3AQN9REUTF20OMGWRXYK787QVFOYDP&workerId=A2E0LU8V4EUX5C&assignmentId=3G5W44VEU84A2LZ0GA33T4RZ9HZKGM&a=E45G9&tp_a=E45G9&b=3G5W44VEU84A2LZ0GA33T4RZ9HZKGM&tp_b=3G5W44VEU84A2LZ0GA33T4RZ9HZKGM&c=365799&tp_c=365799","heads":8,"tails":2,"studentIndex":15,"studentTrueHypers":{"a":2,"b":8},"studentGuess":0.5,"delta":0.30000000000000004,"totalExamples":10,"bonusSoFar":1.5},{"rt":6859,"response":{"heads":"8","tails":"2"},"type":"response","condition":"seqNoFeedback","trueTheta":0.8,"classrooms":["C","D"],"studentTrueClassroom":"C","exampleSet":"second","trial_type":"survey-html-form","trial_index":141,"time_elapsed":1058099,"internal_node_id":"0.0-131.0-0.0","params":{"nStudents":24,"maxFlips":30,"completionMinutes":45,"basePay":8,"maxBonus":9,"perTrialBonus":0.5,"perTrialBonusThreshold":0.05,"exampleCost":0.01},"classroomParams":{"A":{"a":1,"b":4},"B":{"a":4,"b":1},"C":{"a":2,"b":8},"D":{"a":8,"b":2}},"conditions":["nonSeqFull","nonSeqPartial","seqNoFeedback","seqFeedback"],"classroomPairings":[["A","B"],["C","D"]],"coinWeights":[0.2,0.5,0.8],"subjectId":"A2E0LU8V4EUX5C","assignmentId":"3G5W44VEU84A2LZ0GA33T4RZ9HZKGM","hitId":"3AQN9REUTF20OMGWRXYK787QVFOYDP","url":"https://gershmanlab.com/experiments/alicia/teaching/experiment/?hitId=3AQN9REUTF20OMGWRXYK787QVFOYDP&workerId=A2E0LU8V4EUX5C&assignmentId=3G5W44VEU84A2LZ0GA33T4RZ9HZKGM&a=E45G9&tp_a=E45G9&b=3G5W44VEU84A2LZ0GA33T4RZ9HZKGM&tp_b=3G5W44VEU84A2LZ0GA33T4RZ9HZKGM&c=365799&tp_c=365799","firstResponseHeads":8,"firstResponseTails":2,"secondResponseHeads":8,"secondResponseTails":2,"totalHeads":16,"totalTails":4,"studentIndex":15,"studentTrueHypers":{"a":2,"b":8},"studentGuess":0.6,"delta":0.20000000000000007,"bonus":0,"bonusSoFar":1.5,"totalExamples":20},{"rt":4711,"response":{"heads":"4","tails":"1"},"type":"response","condition":"nonSeqPartial","trueTheta":0.5,"classrooms":["C","D"],"studentTrueClassroom":"D","exampleSet":"first","trial_type":"survey-html-form","trial_index":147,"time_elapsed":1075731,"internal_node_id":"0.0-137.0-0.0","params":{"nStudents":24,"maxFlips":30,"completionMinutes":45,"basePay":8,"maxBonus":9,"perTrialBonus":0.5,"perTrialBonusThreshold":0.05,"exampleCost":0.01},"classroomParams":{"A":{"a":1,"b":4},"B":{"a":4,"b":1},"C":{"a":2,"b":8},"D":{"a":8,"b":2}},"conditions":["nonSeqFull","nonSeqPartial","seqNoFeedback","seqFeedback"],"classroomPairings":[["A","B"],["C","D"]],"coinWeights":[0.2,0.5,0.8],"subjectId":"A2E0LU8V4EUX5C","assignmentId":"3G5W44VEU84A2LZ0GA33T4RZ9HZKGM","hitId":"3AQN9REUTF20OMGWRXYK787QVFOYDP","url":"https://gershmanlab.com/experiments/alicia/teaching/experiment/?hitId=3AQN9REUTF20OMGWRXYK787QVFOYDP&workerId=A2E0LU8V4EUX5C&assignmentId=3G5W44VEU84A2LZ0GA33T4RZ9HZKGM&a=E45G9&tp_a=E45G9&b=3G5W44VEU84A2LZ0GA33T4RZ9HZKGM&tp_b=3G5W44VEU84A2LZ0GA33T4RZ9HZKGM&c=365799&tp_c=365799","heads":4,"tails":1,"studentIndex":16,"studentTrueHypers":{"a":8,"b":2},"studentGuess":0.8,"delta":0.30000000000000004,"totalExamples":5,"bonus":0,"bonusSoFar":1.5},{"rt":5231,"response":{"heads":"8","tails":"2"},"type":"response","condition":"seqFeedback","trueTheta":0.8,"classrooms":["C","D"],"studentTrueClassroom":"D","exampleSet":"first","trial_type":"survey-html-form","trial_index":153,"time_elapsed":1094339,"internal_node_id":"0.0-143.0-0.0","params":{"nStudents":24,"maxFlips":30,"completionMinutes":45,"basePay":8,"maxBonus":9,"perTrialBonus":0.5,"perTrialBonusThreshold":0.05,"exampleCost":0.01},"classroomParams":{"A":{"a":1,"b":4},"B":{"a":4,"b":1},"C":{"a":2,"b":8},"D":{"a":8,"b":2}},"conditions":["nonSeqFull","nonSeqPartial","seqNoFeedback","seqFeedback"],"classroomPairings":[["A","B"],["C","D"]],"coinWeights":[0.2,0.5,0.8],"subjectId":"A2E0LU8V4EUX5C","assignmentId":"3G5W44VEU84A2LZ0GA33T4RZ9HZKGM","hitId":"3AQN9REUTF20OMGWRXYK787QVFOYDP","url":"https://gershmanlab.com/experiments/alicia/teaching/experiment/?hitId=3AQN9REUTF20OMGWRXYK787QVFOYDP&workerId=A2E0LU8V4EUX5C&assignmentId=3G5W44VEU84A2LZ0GA33T4RZ9HZKGM&a=E45G9&tp_a=E45G9&b=3G5W44VEU84A2LZ0GA33T4RZ9HZKGM&tp_b=3G5W44VEU84A2LZ0GA33T4RZ9HZKGM&c=365799&tp_c=365799","heads":8,"tails":2,"studentIndex":17,"studentTrueHypers":{"a":8,"b":2},"studentGuess":0.8,"delta":0,"totalExamples":10,"bonusSoFar":1.5},{"rt":8004,"response":{"heads":"8","tails":"2"},"type":"response","condition":"seqFeedback","trueTheta":0.8,"classrooms":["C","D"],"studentTrueClassroom":"D","exampleSet":"second","trial_type":"survey-html-form","trial_index":157,"time_elapsed":1113499,"internal_node_id":"0.0-147.0-0.0","params":{"nStudents":24,"maxFlips":30,"completionMinutes":45,"basePay":8,"maxBonus":9,"perTrialBonus":0.5,"perTrialBonusThreshold":0.05,"exampleCost":0.01},"classroomParams":{"A":{"a":1,"b":4},"B":{"a":4,"b":1},"C":{"a":2,"b":8},"D":{"a":8,"b":2}},"conditions":["nonSeqFull","nonSeqPartial","seqNoFeedback","seqFeedback"],"classroomPairings":[["A","B"],["C","D"]],"coinWeights":[0.2,0.5,0.8],"subjectId":"A2E0LU8V4EUX5C","assignmentId":"3G5W44VEU84A2LZ0GA33T4RZ9HZKGM","hitId":"3AQN9REUTF20OMGWRXYK787QVFOYDP","url":"https://gershmanlab.com/experiments/alicia/teaching/experiment/?hitId=3AQN9REUTF20OMGWRXYK787QVFOYDP&workerId=A2E0LU8V4EUX5C&assignmentId=3G5W44VEU84A2LZ0GA33T4RZ9HZKGM&a=E45G9&tp_a=E45G9&b=3G5W44VEU84A2LZ0GA33T4RZ9HZKGM&tp_b=3G5W44VEU84A2LZ0GA33T4RZ9HZKGM&c=365799&tp_c=365799","firstResponseHeads":8,"firstResponseTails":2,"secondResponseHeads":8,"secondResponseTails":2,"totalHeads":16,"totalTails":4,"studentIndex":17,"studentTrueHypers":{"a":8,"b":2},"studentGuess":0.8,"delta":0,"bonus":0.3,"bonusSoFar":1.8,"totalExamples":20},{"rt":6839,"response":{"heads":"1","tails":"8"},"type":"response","condition":"nonSeqFull","trueTheta":0.2,"classrooms":["C","D"],"studentTrueClassroom":"C","exampleSet":"first","trial_type":"survey-html-form","trial_index":163,"time_elapsed":1133771,"internal_node_id":"0.0-153.0-0.0","params":{"nStudents":24,"maxFlips":30,"completionMinutes":45,"basePay":8,"maxBonus":9,"perTrialBonus":0.5,"perTrialBonusThreshold":0.05,"exampleCost":0.01},"classroomParams":{"A":{"a":1,"b":4},"B":{"a":4,"b":1},"C":{"a":2,"b":8},"D":{"a":8,"b":2}},"conditions":["nonSeqFull","nonSeqPartial","seqNoFeedback","seqFeedback"],"classroomPairings":[["A","B"],["C","D"]],"coinWeights":[0.2,0.5,0.8],"subjectId":"A2E0LU8V4EUX5C","assignmentId":"3G5W44VEU84A2LZ0GA33T4RZ9HZKGM","hitId":"3AQN9REUTF20OMGWRXYK787QVFOYDP","url":"https://gershmanlab.com/experiments/alicia/teaching/experiment/?hitId=3AQN9REUTF20OMGWRXYK787QVFOYDP&workerId=A2E0LU8V4EUX5C&assignmentId=3G5W44VEU84A2LZ0GA33T4RZ9HZKGM&a=E45G9&tp_a=E45G9&b=3G5W44VEU84A2LZ0GA33T4RZ9HZKGM&tp_b=3G5W44VEU84A2LZ0GA33T4RZ9HZKGM&c=365799&tp_c=365799","heads":1,"tails":8,"studentIndex":18,"studentTrueHypers":{"a":2,"b":8},"studentGuess":0.15789473684210525,"delta":0.04210526315789476,"totalExamples":9,"bonus":0.41,"bonusSoFar":2.21},{"rt":4807,"response":{"heads":"1","tails":"6"},"type":"response","condition":"nonSeqPartial","trueTheta":0.2,"classrooms":["C","D"],"studentTrueClassroom":"D","exampleSet":"first","trial_type":"survey-html-form","trial_index":169,"time_elapsed":1149851,"internal_node_id":"0.0-159.0-0.0","params":{"nStudents":24,"maxFlips":30,"completionMinutes":45,"basePay":8,"maxBonus":9,"perTrialBonus":0.5,"perTrialBonusThreshold":0.05,"exampleCost":0.01},"classroomParams":{"A":{"a":1,"b":4},"B":{"a":4,"b":1},"C":{"a":2,"b":8},"D":{"a":8,"b":2}},"conditions":["nonSeqFull","nonSeqPartial","seqNoFeedback","seqFeedback"],"classroomPairings":[["A","B"],["C","D"]],"coinWeights":[0.2,0.5,0.8],"subjectId":"A2E0LU8V4EUX5C","assignmentId":"3G5W44VEU84A2LZ0GA33T4RZ9HZKGM","hitId":"3AQN9REUTF20OMGWRXYK787QVFOYDP","url":"https://gershmanlab.com/experiments/alicia/teaching/experiment/?hitId=3AQN9REUTF20OMGWRXYK787QVFOYDP&workerId=A2E0LU8V4EUX5C&assignmentId=3G5W44VEU84A2LZ0GA33T4RZ9HZKGM&a=E45G9&tp_a=E45G9&b=3G5W44VEU84A2LZ0GA33T4RZ9HZKGM&tp_b=3G5W44VEU84A2LZ0GA33T4RZ9HZKGM&c=365799&tp_c=365799","heads":1,"tails":6,"studentIndex":19,"studentTrueHypers":{"a":8,"b":2},"studentGuess":0.5294117647058824,"delta":0.32941176470588235,"totalExamples":7,"bonus":0,"bonusSoFar":2.21},{"rt":6351,"response":{"heads":"4","tails":"1"},"type":"response","condition":"seqNoFeedback","trueTheta":0.8,"classrooms":["A","B"],"studentTrueClassroom":"B","exampleSet":"first","trial_type":"survey-html-form","trial_index":175,"time_elapsed":1169531,"internal_node_id":"0.0-165.0-0.0","params":{"nStudents":24,"maxFlips":30,"completionMinutes":45,"basePay":8,"maxBonus":9,"perTrialBonus":0.5,"perTrialBonusThreshold":0.05,"exampleCost":0.01},"classroomParams":{"A":{"a":1,"b":4},"B":{"a":4,"b":1},"C":{"a":2,"b":8},"D":{"a":8,"b":2}},"conditions":["nonSeqFull","nonSeqPartial","seqNoFeedback","seqFeedback"],"classroomPairings":[["A","B"],["C","D"]],"coinWeights":[0.2,0.5,0.8],"subjectId":"A2E0LU8V4EUX5C","assignmentId":"3G5W44VEU84A2LZ0GA33T4RZ9HZKGM","hitId":"3AQN9REUTF20OMGWRXYK787QVFOYDP","url":"https://gershmanlab.com/experiments/alicia/teaching/experiment/?hitId=3AQN9REUTF20OMGWRXYK787QVFOYDP&workerId=A2E0LU8V4EUX5C&assignmentId=3G5W44VEU84A2LZ0GA33T4RZ9HZKGM&a=E45G9&tp_a=E45G9&b=3G5W44VEU84A2LZ0GA33T4RZ9HZKGM&tp_b=3G5W44VEU84A2LZ0GA33T4RZ9HZKGM&c=365799&tp_c=365799","heads":4,"tails":1,"studentIndex":20,"studentTrueHypers":{"a":4,"b":1},"studentGuess":0.8,"delta":0,"totalExamples":5,"bonusSoFar":2.21},{"rt":6452,"response":{"heads":"4","tails":"1"},"type":"response","condition":"seqNoFeedback","trueTheta":0.8,"classrooms":["A","B"],"studentTrueClassroom":"B","exampleSet":"second","trial_type":"survey-html-form","trial_index":178,"time_elapsed":1182739,"internal_node_id":"0.0-168.0-0.0","params":{"nStudents":24,"maxFlips":30,"completionMinutes":45,"basePay":8,"maxBonus":9,"perTrialBonus":0.5,"perTrialBonusThreshold":0.05,"exampleCost":0.01},"classroomParams":{"A":{"a":1,"b":4},"B":{"a":4,"b":1},"C":{"a":2,"b":8},"D":{"a":8,"b":2}},"conditions":["nonSeqFull","nonSeqPartial","seqNoFeedback","seqFeedback"],"classroomPairings":[["A","B"],["C","D"]],"coinWeights":[0.2,0.5,0.8],"subjectId":"A2E0LU8V4EUX5C","assignmentId":"3G5W44VEU84A2LZ0GA33T4RZ9HZKGM","hitId":"3AQN9REUTF20OMGWRXYK787QVFOYDP","url":"https://gershmanlab.com/experiments/alicia/teaching/experiment/?hitId=3AQN9REUTF20OMGWRXYK787QVFOYDP&workerId=A2E0LU8V4EUX5C&assignmentId=3G5W44VEU84A2LZ0GA33T4RZ9HZKGM&a=E45G9&tp_a=E45G9&b=3G5W44VEU84A2LZ0GA33T4RZ9HZKGM&tp_b=3G5W44VEU84A2LZ0GA33T4RZ9HZKGM&c=365799&tp_c=365799","firstResponseHeads":4,"firstResponseTails":1,"secondResponseHeads":4,"secondResponseTails":1,"totalHeads":8,"totalTails":2,"studentIndex":20,"studentTrueHypers":{"a":4,"b":1},"studentGuess":0.8,"delta":0,"bonus":0.4,"bonusSoFar":2.61,"totalExamples":10},{"rt":5864,"response":{"heads":"4","tails":"1"},"type":"response","condition":"nonSeqFull","trueTheta":0.8,"classrooms":["C","D"],"studentTrueClassroom":"C","exampleSet":"first","trial_type":"survey-html-form","trial_index":184,"time_elapsed":1203107,"internal_node_id":"0.0-174.0-0.0","params":{"nStudents":24,"maxFlips":30,"completionMinutes":45,"basePay":8,"maxBonus":9,"perTrialBonus":0.5,"perTrialBonusThreshold":0.05,"exampleCost":0.01},"classroomParams":{"A":{"a":1,"b":4},"B":{"a":4,"b":1},"C":{"a":2,"b":8},"D":{"a":8,"b":2}},"conditions":["nonSeqFull","nonSeqPartial","seqNoFeedback","seqFeedback"],"classroomPairings":[["A","B"],["C","D"]],"coinWeights":[0.2,0.5,0.8],"subjectId":"A2E0LU8V4EUX5C","assignmentId":"3G5W44VEU84A2LZ0GA33T4RZ9HZKGM","hitId":"3AQN9REUTF20OMGWRXYK787QVFOYDP","url":"https://gershmanlab.com/experiments/alicia/teaching/experiment/?hitId=3AQN9REUTF20OMGWRXYK787QVFOYDP&workerId=A2E0LU8V4EUX5C&assignmentId=3G5W44VEU84A2LZ0GA33T4RZ9HZKGM&a=E45G9&tp_a=E45G9&b=3G5W44VEU84A2LZ0GA33T4RZ9HZKGM&tp_b=3G5W44VEU84A2LZ0GA33T4RZ9HZKGM&c=365799&tp_c=365799","heads":4,"tails":1,"studentIndex":21,"studentTrueHypers":{"a":2,"b":8},"studentGuess":0.4,"delta":0.4,"totalExamples":5,"bonus":0,"bonusSoFar":2.61},{"rt":7160,"response":{"heads":"3","tails":"2"},"type":"response","condition":"nonSeqFull","trueTheta":0.5,"classrooms":["A","B"],"studentTrueClassroom":"A","exampleSet":"first","trial_type":"survey-html-form","trial_index":190,"time_elapsed":1220467,"internal_node_id":"0.0-180.0-0.0","params":{"nStudents":24,"maxFlips":30,"completionMinutes":45,"basePay":8,"maxBonus":9,"perTrialBonus":0.5,"perTrialBonusThreshold":0.05,"exampleCost":0.01},"classroomParams":{"A":{"a":1,"b":4},"B":{"a":4,"b":1},"C":{"a":2,"b":8},"D":{"a":8,"b":2}},"conditions":["nonSeqFull","nonSeqPartial","seqNoFeedback","seqFeedback"],"classroomPairings":[["A","B"],["C","D"]],"coinWeights":[0.2,0.5,0.8],"subjectId":"A2E0LU8V4EUX5C","assignmentId":"3G5W44VEU84A2LZ0GA33T4RZ9HZKGM","hitId":"3AQN9REUTF20OMGWRXYK787QVFOYDP","url":"https://gershmanlab.com/experiments/alicia/teaching/experiment/?hitId=3AQN9REUTF20OMGWRXYK787QVFOYDP&workerId=A2E0LU8V4EUX5C&assignmentId=3G5W44VEU84A2LZ0GA33T4RZ9HZKGM&a=E45G9&tp_a=E45G9&b=3G5W44VEU84A2LZ0GA33T4RZ9HZKGM&tp_b=3G5W44VEU84A2LZ0GA33T4RZ9HZKGM&c=365799&tp_c=365799","heads":3,"tails":2,"studentIndex":22,"studentTrueHypers":{"a":1,"b":4},"studentGuess":0.4,"delta":0.09999999999999998,"totalExamples":5,"bonus":0,"bonusSoFar":2.61},{"rt":4391,"response":{"heads":"4","tails":"1"},"type":"response","condition":"nonSeqPartial","trueTheta":0.8,"classrooms":["A","B"],"studentTrueClassroom":"B","exampleSet":"first","trial_type":"survey-html-form","trial_index":196,"time_elapsed":1238211,"internal_node_id":"0.0-186.0-0.0","params":{"nStudents":24,"maxFlips":30,"completionMinutes":45,"basePay":8,"maxBonus":9,"perTrialBonus":0.5,"perTrialBonusThreshold":0.05,"exampleCost":0.01},"classroomParams":{"A":{"a":1,"b":4},"B":{"a":4,"b":1},"C":{"a":2,"b":8},"D":{"a":8,"b":2}},"conditions":["nonSeqFull","nonSeqPartial","seqNoFeedback","seqFeedback"],"classroomPairings":[["A","B"],["C","D"]],"coinWeights":[0.2,0.5,0.8],"subjectId":"A2E0LU8V4EUX5C","assignmentId":"3G5W44VEU84A2LZ0GA33T4RZ9HZKGM","hitId":"3AQN9REUTF20OMGWRXYK787QVFOYDP","url":"https://gershmanlab.com/experiments/alicia/teaching/experiment/?hitId=3AQN9REUTF20OMGWRXYK787QVFOYDP&workerId=A2E0LU8V4EUX5C&assignmentId=3G5W44VEU84A2LZ0GA33T4RZ9HZKGM&a=E45G9&tp_a=E45G9&b=3G5W44VEU84A2LZ0GA33T4RZ9HZKGM&tp_b=3G5W44VEU84A2LZ0GA33T4RZ9HZKGM&c=365799&tp_c=365799","heads":4,"tails":1,"studentIndex":23,"studentTrueHypers":{"a":4,"b":1},"studentGuess":0.8,"delta":0,"totalExamples":5,"bonus":0.45,"bonusSoFar":3.06},{"rt":25612,"response":{"gender":"male","age":"28","understood":"yes","comments":"It ran well instructions clear enough."},"type":"response","trial_type":"survey-html-form","trial_index":200,"time_elapsed":1271835,"internal_node_id":"0.0-191.0","params":{"nStudents":24,"maxFlips":30,"completionMinutes":45,"basePay":8,"maxBonus":9,"perTrialBonus":0.5,"perTrialBonusThreshold":0.05,"exampleCost":0.01},"classroomParams":{"A":{"a":1,"b":4},"B":{"a":4,"b":1},"C":{"a":2,"b":8},"D":{"a":8,"b":2}},"conditions":["nonSeqFull","nonSeqPartial","seqNoFeedback","seqFeedback"],"classroomPairings":[["A","B"],["C","D"]],"coinWeights":[0.2,0.5,0.8],"subjectId":"A2E0LU8V4EUX5C","assignmentId":"3G5W44VEU84A2LZ0GA33T4RZ9HZKGM","hitId":"3AQN9REUTF20OMGWRXYK787QVFOYDP","url":"https://gershmanlab.com/experiments/alicia/teaching/experiment/?hitId=3AQN9REUTF20OMGWRXYK787QVFOYDP&workerId=A2E0LU8V4EUX5C&assignmentId=3G5W44VEU84A2LZ0GA33T4RZ9HZKGM&a=E45G9&tp_a=E45G9&b=3G5W44VEU84A2LZ0GA33T4RZ9HZKGM&tp_b=3G5W44VEU84A2LZ0GA33T4RZ9HZKGM&c=365799&tp_c=365799","totalBonus":3.06}]