[{"rt":60743,"response":{"heads":"1","tails":"4"},"type":"response","condition":"seqNoFeedback","trueTheta":0.2,"classrooms":["A","B"],"studentTrueClassroom":"A","exampleSet":"first","trial_type":"survey-html-form","trial_index":7,"time_elapsed":812901,"internal_node_id":"0.0-6.0-0.0","params":{"nStudents":24,"maxFlips":30,"completionMinutes":45,"basePay":8,"maxBonus":9,"perTrialBonus":0.5,"perTrialBonusThreshold":0.05,"exampleCost":0.01},"classroomParams":{"A":{"a":1,"b":4},"B":{"a":4,"b":1},"C":{"a":2,"b":8},"D":{"a":8,"b":2}},"conditions":["nonSeqFull","nonSeqPartial","seqNoFeedback","seqFeedback"],"classroomPairings":[["A","B"],["C","D"]],"coinWeights":[0.2,0.5,0.8],"subjectId":"A2EI075XZT9Y2S","assignmentId":"3QFUFYSY9Z1JAJE2KYA5422RBG9F4S","hitId":"3AQN9REUTF20OMGWRXYK787QVFOYDP","url":"https://gershmanlab.com/experiments/alicia/teaching/experiment/?hitId=3AQN9REUTF20OMGWRXYK787QVFOYDP&workerId=A2EI075XZT9Y2S&assignmentId=3QFUFYSY9Z1JAJE2KYA5422RBG9F4S&a=YFFQ9&tp_a=YFFQ9&b=3QFUFYSY9Z1JAJE2KYA5422RBG9F4S&tp_b=3QFUFYSY9Z1JAJE2KYA5422RBG9F4S&c=365799&tp_c=365799","heads":1,"tails":4,"studentIndex":0,"studentTrueHypers":{"a":1,"b":4},"studentGuess":0.2,"delta":0,"totalExamples":5,"bonusSoFar":0},{"rt":31201,"response":{"heads":"1","tails":"5"},"type":"response","condition":"seqNoFeedback","trueTheta":0.2,"classrooms":["A","B"],"studentTrueClassroom":"A","exampleSet":"second","trial_type":"survey-html-form","trial_index":10,"time_elapsed":850135,"internal_node_id":"0.0-9.0-0.0","params":{"nStudents":24,"maxFlips":30,"completionMinutes":45,"basePay":8,"maxBonus":9,"perTrialBonus":0.5,"perTrialBonusThreshold":0.05,"exampleCost":0.01},"classroomParams":{"A":{"a":1,"b":4},"B":{"a":4,"b":1},"C":{"a":2,"b":8},"D":{"a":8,"b":2}},"conditions":["nonSeqFull","nonSeqPartial","seqNoFeedback","seqFeedback"],"classroomPairings":[["A","B"],["C","D"]],"coinWeights":[0.2,0.5,0.8],"subjectId":"A2EI075XZT9Y2S","assignmentId":"3QFUFYSY9Z1JAJE2KYA5422RBG9F4S","hitId":"3AQN9REUTF20OMGWRXYK787QVFOYDP","url":"https://gershmanlab.com/experiments/alicia/teaching/experiment/?hitId=3AQN9REUTF20OMGWRXYK787QVFOYDP&workerId=A2EI075XZT9Y2S&assignmentId=3QFUFYSY9Z1JAJE2KYA5422RBG9F4S&a=YFFQ9&tp_a=YFFQ9&b=3QFUFYSY9Z1JAJE2KYA5422RBG9F4S&tp_b=3QFUFYSY9Z1JAJE2KYA5422RBG9F4S&c=365799&tp_c=365799","firstResponseHeads":1,"firstResponseTails":4,"secondResponseHeads":1,"secondResponseTails":5,"totalHeads":2,"totalTails":9,"studentIndex":0,"studentTrueHypers":{"a":1,"b":4},"studentGuess":0.1875,"delta":0.012500000000000011,"bonus":0.39,"bonusSoFar":0.39,"totalExamples":11},{"rt":18040,"response":{"heads":"1","tails":"4"},"type":"response","condition":"nonSeqPartial","trueTheta":0.2,"classrooms":["A","B"],"studentTrueClassroom":"A","exampleSet":"first","trial_type":"survey-html-form","trial_index":16,"time_elapsed":905453,"internal_node_id":"0.0-15.0-0.0","params":{"nStudents":24,"maxFlips":30,"completionMinutes":45,"basePay":8,"maxBonus":9,"perTrialBonus":0.5,"perTrialBonusThreshold":0.05,"exampleCost":0.01},"classroomParams":{"A":{"a":1,"b":4},"B":{"a":4,"b":1},"C":{"a":2,"b":8},"D":{"a":8,"b":2}},"conditions":["nonSeqFull","nonSeqPartial","seqNoFeedback","seqFeedback"],"classroomPairings":[["A","B"],["C","D"]],"coinWeights":[0.2,0.5,0.8],"subjectId":"A2EI075XZT9Y2S","assignmentId":"3QFUFYSY9Z1JAJE2KYA5422RBG9F4S","hitId":"3AQN9REUTF20OMGWRXYK787QVFOYDP","url":"https://gershmanlab.com/experiments/alicia/teaching/experiment/?hitId=3AQN9REUTF20OMGWRXYK787QVFOYDP&workerId=A2EI075XZT9Y2S&assignmentId=3QFUFYSY9Z1JAJE2KYA5422RBG9F4S&a=YFFQ9&tp_a=YFFQ9&b=3QFUFYSY9Z1JAJE2KYA5422RBG9F4S&tp_b=3QFUFYSY9Z1JAJE2KYA5422RBG9F4S&c=365799&tp_c=365799","heads":1,"tails":4,"studentIndex":1,"studentTrueHypers":{"a":1,"b":4},"studentGuess":0.2,"delta":0,"totalExamples":5,"bonus":0.45,"bonusSoFar":0.84},{"rt":21935,"response":{"heads":"3","tails":"3"},"type":"response","condition":"seqFeedback","trueTheta":0.5,"classrooms":["A","B"],"studentTrueClassroom":"A","exampleSet":"first","trial_type":"survey-html-form","trial_index":22,"time_elapsed":966743,"internal_node_id":"0.0-21.0-0.0","params":{"nStudents":24,"maxFlips":30,"completionMinutes":45,"basePay":8,"maxBonus":9,"perTrialBonus":0.5,"perTrialBonusThreshold":0.05,"exampleCost":0.01},"classroomParams":{"A":{"a":1,"b":4},"B":{"a":4,"b":1},"C":{"a":2,"b":8},"D":{"a":8,"b":2}},"conditions":["nonSeqFull","nonSeqPartial","seqNoFeedback","seqFeedback"],"classroomPairings":[["A","B"],["C","D"]],"coinWeights":[0.2,0.5,0.8],"subjectId":"A2EI075XZT9Y2S","assignmentId":"3QFUFYSY9Z1JAJE2KYA5422RBG9F4S","hitId":"3AQN9REUTF20OMGWRXYK787QVFOYDP","url":"https://gershmanlab.com/experiments/alicia/teaching/experiment/?hitId=3AQN9REUTF20OMGWRXYK787QVFOYDP&workerId=A2EI075XZT9Y2S&assignmentId=3QFUFYSY9Z1JAJE2KYA5422RBG9F4S&a=YFFQ9&tp_a=YFFQ9&b=3QFUFYSY9Z1JAJE2KYA5422RBG9F4S&tp_b=3QFUFYSY9Z1JAJE2KYA5422RBG9F4S&c=365799&tp_c=365799","heads":3,"tails":3,"studentIndex":2,"studentTrueHypers":{"a":1,"b":4},"studentGuess":0.36363636363636365,"delta":0.13636363636363635,"totalExamples":6,"bonusSoFar":0.84},{"rt":13772,"response":{"heads":"3","tails":"2"},"type":"response","condition":"seqFeedback","trueTheta":0.5,"classrooms":["A","B"],"studentTrueClassroom":"A","exampleSet":"second","trial_type":"survey-html-form","trial_index":26,"time_elapsed":999128,"internal_node_id":"0.0-25.0-0.0","params":{"nStudents":24,"maxFlips":30,"completionMinutes":45,"basePay":8,"maxBonus":9,"perTrialBonus":0.5,"perTrialBonusThreshold":0.05,"exampleCost":0.01},"classroomParams":{"A":{"a":1,"b":4},"B":{"a":4,"b":1},"C":{"a":2,"b":8},"D":{"a":8,"b":2}},"conditions":["nonSeqFull","nonSeqPartial","seqNoFeedback","seqFeedback"],"classroomPairings":[["A","B"],["C","D"]],"coinWeights":[0.2,0.5,0.8],"subjectId":"A2EI075XZT9Y2S","assignmentId":"3QFUFYSY9Z1JAJE2KYA5422RBG9F4S","hitId":"3AQN9REUTF20OMGWRXYK787QVFOYDP","url":"https://gershmanlab.com/experiments/alicia/teaching/experiment/?hitId=3AQN9REUTF20OMGWRXYK787QVFOYDP&workerId=A2EI075XZT9Y2S&assignmentId=3QFUFYSY9Z1JAJE2KYA5422RBG9F4S&a=YFFQ9&tp_a=YFFQ9&b=3QFUFYSY9Z1JAJE2KYA5422RBG9F4S&tp_b=3QFUFYSY9Z1JAJE2KYA5422RBG9F4S&c=365799&tp_c=365799","firstResponseHeads":3,"firstResponseTails":3,"secondResponseHeads":3,"secondResponseTails":2,"totalHeads":6,"totalTails":5,"studentIndex":2,"studentTrueHypers":{"a":1,"b":4},"studentGuess":0.4375,"delta":0.0625,"bonus":0,"bonusSoFar":0.84,"totalExamples":11},{"rt":21639,"response":{"heads":"3","tails":"3"},"type":"response","condition":"seqNoFeedback","trueTheta":0.5,"classrooms":["C","D"],"studentTrueClassroom":"D","exampleSet":"first","trial_type":"survey-html-form","trial_index":32,"time_elapsed":1047500,"internal_node_id":"0.0-31.0-0.0","params":{"nStudents":24,"maxFlips":30,"completionMinutes":45,"basePay":8,"maxBonus":9,"perTrialBonus":0.5,"perTrialBonusThreshold":0.05,"exampleCost":0.01},"classroomParams":{"A":{"a":1,"b":4},"B":{"a":4,"b":1},"C":{"a":2,"b":8},"D":{"a":8,"b":2}},"conditions":["nonSeqFull","nonSeqPartial","seqNoFeedback","seqFeedback"],"classroomPairings":[["A","B"],["C","D"]],"coinWeights":[0.2,0.5,0.8],"subjectId":"A2EI075XZT9Y2S","assignmentId":"3QFUFYSY9Z1JAJE2KYA5422RBG9F4S","hitId":"3AQN9REUTF20OMGWRXYK787QVFOYDP","url":"https://gershmanlab.com/experiments/alicia/teaching/experiment/?hitId=3AQN9REUTF20OMGWRXYK787QVFOYDP&workerId=A2EI075XZT9Y2S&assignmentId=3QFUFYSY9Z1JAJE2KYA5422RBG9F4S&a=YFFQ9&tp_a=YFFQ9&b=3QFUFYSY9Z1JAJE2KYA5422RBG9F4S&tp_b=3QFUFYSY9Z1JAJE2KYA5422RBG9F4S&c=365799&tp_c=365799","heads":3,"tails":3,"studentIndex":3,"studentTrueHypers":{"a":8,"b":2},"studentGuess":0.6875,"delta":0.1875,"totalExamples":6,"bonusSoFar":0.84},{"rt":13656,"response":{"heads":"3","tails":"3"},"type":"response","condition":"seqNoFeedback","trueTheta":0.5,"classrooms":["C","D"],"studentTrueClassroom":"D","exampleSet":"second","trial_type":"survey-html-form","trial_index":35,"time_elapsed":1067676,"internal_node_id":"0.0-34.0-0.0","params":{"nStudents":24,"maxFlips":30,"completionMinutes":45,"basePay":8,"maxBonus":9,"perTrialBonus":0.5,"perTrialBonusThreshold":0.05,"exampleCost":0.01},"classroomParams":{"A":{"a":1,"b":4},"B":{"a":4,"b":1},"C":{"a":2,"b":8},"D":{"a":8,"b":2}},"conditions":["nonSeqFull","nonSeqPartial","seqNoFeedback","seqFeedback"],"classroomPairings":[["A","B"],["C","D"]],"coinWeights":[0.2,0.5,0.8],"subjectId":"A2EI075XZT9Y2S","assignmentId":"3QFUFYSY9Z1JAJE2KYA5422RBG9F4S","hitId":"3AQN9REUTF20OMGWRXYK787QVFOYDP","url":"https://gershmanlab.com/experiments/alicia/teaching/experiment/?hitId=3AQN9REUTF20OMGWRXYK787QVFOYDP&workerId=A2EI075XZT9Y2S&assignmentId=3QFUFYSY9Z1JAJE2KYA5422RBG9F4S&a=YFFQ9&tp_a=YFFQ9&b=3QFUFYSY9Z1JAJE2KYA5422RBG9F4S&tp_b=3QFUFYSY9Z1JAJE2KYA5422RBG9F4S&c=365799&tp_c=365799","firstResponseHeads":3,"firstResponseTails":3,"secondResponseHeads":3,"secondResponseTails":3,"totalHeads":6,"totalTails":6,"studentIndex":3,"studentTrueHypers":{"a":8,"b":2},"studentGuess":0.6363636363636364,"delta":0.13636363636363635,"bonus":0,"bonusSoFar":0.84,"totalExamples":12},{"rt":29229,"response":{"heads":"1","tails":"4"},"type":"response","condition":"seqFeedback","trueTheta":0.2,"classrooms":["C","D"],"studentTrueClassroom":"D","exampleSet":"first","trial_type":"survey-html-form","trial_index":41,"time_elapsed":1115452,"internal_node_id":"0.0-40.0-0.0","params":{"nStudents":24,"maxFlips":30,"completionMinutes":45,"basePay":8,"maxBonus":9,"perTrialBonus":0.5,"perTrialBonusThreshold":0.05,"exampleCost":0.01},"classroomParams":{"A":{"a":1,"b":4},"B":{"a":4,"b":1},"C":{"a":2,"b":8},"D":{"a":8,"b":2}},"conditions":["nonSeqFull","nonSeqPartial","seqNoFeedback","seqFeedback"],"classroomPairings":[["A","B"],["C","D"]],"coinWeights":[0.2,0.5,0.8],"subjectId":"A2EI075XZT9Y2S","assignmentId":"3QFUFYSY9Z1JAJE2KYA5422RBG9F4S","hitId":"3AQN9REUTF20OMGWRXYK787QVFOYDP","url":"https://gershmanlab.com/experiments/alicia/teaching/experiment/?hitId=3AQN9REUTF20OMGWRXYK787QVFOYDP&workerId=A2EI075XZT9Y2S&assignmentId=3QFUFYSY9Z1JAJE2KYA5422RBG9F4S&a=YFFQ9&tp_a=YFFQ9&b=3QFUFYSY9Z1JAJE2KYA5422RBG9F4S&tp_b=3QFUFYSY9Z1JAJE2KYA5422RBG9F4S&c=365799&tp_c=365799","heads":1,"tails":4,"studentIndex":4,"studentTrueHypers":{"a":8,"b":2},"studentGuess":0.6,"delta":0.39999999999999997,"totalExamples":5,"bonusSoFar":0.84},{"rt":11524,"response":{"heads":"1","tails":"7"},"type":"response","condition":"seqFeedback","trueTheta":0.2,"classrooms":["C","D"],"studentTrueClassroom":"D","exampleSet":"second","trial_type":"survey-html-form","trial_index":45,"time_elapsed":1140202,"internal_node_id":"0.0-44.0-0.0","params":{"nStudents":24,"maxFlips":30,"completionMinutes":45,"basePay":8,"maxBonus":9,"perTrialBonus":0.5,"perTrialBonusThreshold":0.05,"exampleCost":0.01},"classroomParams":{"A":{"a":1,"b":4},"B":{"a":4,"b":1},"C":{"a":2,"b":8},"D":{"a":8,"b":2}},"conditions":["nonSeqFull","nonSeqPartial","seqNoFeedback","seqFeedback"],"classroomPairings":[["A","B"],["C","D"]],"coinWeights":[0.2,0.5,0.8],"subjectId":"A2EI075XZT9Y2S","assignmentId":"3QFUFYSY9Z1JAJE2KYA5422RBG9F4S","hitId":"3AQN9REUTF20OMGWRXYK787QVFOYDP","url":"https://gershmanlab.com/experiments/alicia/teaching/experiment/?hitId=3AQN9REUTF20OMGWRXYK787QVFOYDP&workerId=A2EI075XZT9Y2S&assignmentId=3QFUFYSY9Z1JAJE2KYA5422RBG9F4S&a=YFFQ9&tp_a=YFFQ9&b=3QFUFYSY9Z1JAJE2KYA5422RBG9F4S&tp_b=3QFUFYSY9Z1JAJE2KYA5422RBG9F4S&c=365799&tp_c=365799","firstResponseHeads":1,"firstResponseTails":4,"secondResponseHeads":1,"secondResponseTails":7,"totalHeads":2,"totalTails":11,"studentIndex":4,"studentTrueHypers":{"a":8,"b":2},"studentGuess":0.43478260869565216,"delta":0.23478260869565215,"bonus":0,"bonusSoFar":0.84,"totalExamples":13},{"rt":35440,"response":{"heads":"14","tails":"1"},"type":"response","condition":"nonSeqFull","trueTheta":0.8,"classrooms":["C","D"],"studentTrueClassroom":"C","exampleSet":"first","trial_type":"survey-html-form","trial_index":51,"time_elapsed":1194823,"internal_node_id":"0.0-50.0-0.0","params":{"nStudents":24,"maxFlips":30,"completionMinutes":45,"basePay":8,"maxBonus":9,"perTrialBonus":0.5,"perTrialBonusThreshold":0.05,"exampleCost":0.01},"classroomParams":{"A":{"a":1,"b":4},"B":{"a":4,"b":1},"C":{"a":2,"b":8},"D":{"a":8,"b":2}},"conditions":["nonSeqFull","nonSeqPartial","seqNoFeedback","seqFeedback"],"classroomPairings":[["A","B"],["C","D"]],"coinWeights":[0.2,0.5,0.8],"subjectId":"A2EI075XZT9Y2S","assignmentId":"3QFUFYSY9Z1JAJE2KYA5422RBG9F4S","hitId":"3AQN9REUTF20OMGWRXYK787QVFOYDP","url":"https://gershmanlab.com/experiments/alicia/teaching/experiment/?hitId=3AQN9REUTF20OMGWRXYK787QVFOYDP&workerId=A2EI075XZT9Y2S&assignmentId=3QFUFYSY9Z1JAJE2KYA5422RBG9F4S&a=YFFQ9&tp_a=YFFQ9&b=3QFUFYSY9Z1JAJE2KYA5422RBG9F4S&tp_b=3QFUFYSY9Z1JAJE2KYA5422RBG9F4S&c=365799&tp_c=365799","heads":14,"tails":1,"studentIndex":5,"studentTrueHypers":{"a":2,"b":8},"studentGuess":0.64,"delta":0.16000000000000003,"totalExamples":15,"bonus":0,"bonusSoFar":0.84},{"rt":16031,"response":{"heads":"9","tails":"1"},"type":"response","condition":"seqNoFeedback","trueTheta":0.8,"classrooms":["A","B"],"studentTrueClassroom":"B","exampleSet":"first","trial_type":"survey-html-form","trial_index":57,"time_elapsed":1227419,"internal_node_id":"0.0-56.0-0.0","params":{"nStudents":24,"maxFlips":30,"completionMinutes":45,"basePay":8,"maxBonus":9,"perTrialBonus":0.5,"perTrialBonusThreshold":0.05,"exampleCost":0.01},"classroomParams":{"A":{"a":1,"b":4},"B":{"a":4,"b":1},"C":{"a":2,"b":8},"D":{"a":8,"b":2}},"conditions":["nonSeqFull","nonSeqPartial","seqNoFeedback","seqFeedback"],"classroomPairings":[["A","B"],["C","D"]],"coinWeights":[0.2,0.5,0.8],"subjectId":"A2EI075XZT9Y2S","assignmentId":"3QFUFYSY9Z1JAJE2KYA5422RBG9F4S","hitId":"3AQN9REUTF20OMGWRXYK787QVFOYDP","url":"https://gershmanlab.com/experiments/alicia/teaching/experiment/?hitId=3AQN9REUTF20OMGWRXYK787QVFOYDP&workerId=A2EI075XZT9Y2S&assignmentId=3QFUFYSY9Z1JAJE2KYA5422RBG9F4S&a=YFFQ9&tp_a=YFFQ9&b=3QFUFYSY9Z1JAJE2KYA5422RBG9F4S&tp_b=3QFUFYSY9Z1JAJE2KYA5422RBG9F4S&c=365799&tp_c=365799","heads":9,"tails":1,"studentIndex":6,"studentTrueHypers":{"a":4,"b":1},"studentGuess":0.8666666666666667,"delta":0.06666666666666665,"totalExamples":10,"bonusSoFar":0.84},{"rt":21524,"response":{"heads":"8","tails":"2"},"type":"response","condition":"seqNoFeedback","trueTheta":0.8,"classrooms":["A","B"],"studentTrueClassroom":"B","exampleSet":"second","trial_type":"survey-html-form","trial_index":60,"time_elapsed":1255206,"internal_node_id":"0.0-59.0-0.0","params":{"nStudents":24,"maxFlips":30,"completionMinutes":45,"basePay":8,"maxBonus":9,"perTrialBonus":0.5,"perTrialBonusThreshold":0.05,"exampleCost":0.01},"classroomParams":{"A":{"a":1,"b":4},"B":{"a":4,"b":1},"C":{"a":2,"b":8},"D":{"a":8,"b":2}},"conditions":["nonSeqFull","nonSeqPartial","seqNoFeedback","seqFeedback"],"classroomPairings":[["A","B"],["C","D"]],"coinWeights":[0.2,0.5,0.8],"subjectId":"A2EI075XZT9Y2S","assignmentId":"3QFUFYSY9Z1JAJE2KYA5422RBG9F4S","hitId":"3AQN9REUTF20OMGWRXYK787QVFOYDP","url":"https://gershmanlab.com/experiments/alicia/teaching/experiment/?hitId=3AQN9REUTF20OMGWRXYK787QVFOYDP&workerId=A2EI075XZT9Y2S&assignmentId=3QFUFYSY9Z1JAJE2KYA5422RBG9F4S&a=YFFQ9&tp_a=YFFQ9&b=3QFUFYSY9Z1JAJE2KYA5422RBG9F4S&tp_b=3QFUFYSY9Z1JAJE2KYA5422RBG9F4S&c=365799&tp_c=365799","firstResponseHeads":9,"firstResponseTails":1,"secondResponseHeads":8,"secondResponseTails":2,"totalHeads":17,"totalTails":3,"studentIndex":6,"studentTrueHypers":{"a":4,"b":1},"studentGuess":0.84,"delta":0.039999999999999925,"bonus":0.3,"bonusSoFar":1.14,"totalExamples":20},{"rt":17097,"response":{"heads":"1","tails":"4"},"type":"response","condition":"nonSeqFull","trueTheta":0.2,"classrooms":["C","D"],"studentTrueClassroom":"C","exampleSet":"first","trial_type":"survey-html-form","trial_index":66,"time_elapsed":1292065,"internal_node_id":"0.0-65.0-0.0","params":{"nStudents":24,"maxFlips":30,"completionMinutes":45,"basePay":8,"maxBonus":9,"perTrialBonus":0.5,"perTrialBonusThreshold":0.05,"exampleCost":0.01},"classroomParams":{"A":{"a":1,"b":4},"B":{"a":4,"b":1},"C":{"a":2,"b":8},"D":{"a":8,"b":2}},"conditions":["nonSeqFull","nonSeqPartial","seqNoFeedback","seqFeedback"],"classroomPairings":[["A","B"],["C","D"]],"coinWeights":[0.2,0.5,0.8],"subjectId":"A2EI075XZT9Y2S","assignmentId":"3QFUFYSY9Z1JAJE2KYA5422RBG9F4S","hitId":"3AQN9REUTF20OMGWRXYK787QVFOYDP","url":"https://gershmanlab.com/experiments/alicia/teaching/experiment/?hitId=3AQN9REUTF20OMGWRXYK787QVFOYDP&workerId=A2EI075XZT9Y2S&assignmentId=3QFUFYSY9Z1JAJE2KYA5422RBG9F4S&a=YFFQ9&tp_a=YFFQ9&b=3QFUFYSY9Z1JAJE2KYA5422RBG9F4S&tp_b=3QFUFYSY9Z1JAJE2KYA5422RBG9F4S&c=365799&tp_c=365799","heads":1,"tails":4,"studentIndex":7,"studentTrueHypers":{"a":2,"b":8},"studentGuess":0.2,"delta":0,"totalExamples":5,"bonus":0.45,"bonusSoFar":1.59},{"rt":12508,"response":{"heads":"8","tails":"2"},"type":"response","condition":"seqNoFeedback","trueTheta":0.8,"classrooms":["C","D"],"studentTrueClassroom":"D","exampleSet":"first","trial_type":"survey-html-form","trial_index":72,"time_elapsed":1324307,"internal_node_id":"0.0-71.0-0.0","params":{"nStudents":24,"maxFlips":30,"completionMinutes":45,"basePay":8,"maxBonus":9,"perTrialBonus":0.5,"perTrialBonusThreshold":0.05,"exampleCost":0.01},"classroomParams":{"A":{"a":1,"b":4},"B":{"a":4,"b":1},"C":{"a":2,"b":8},"D":{"a":8,"b":2}},"conditions":["nonSeqFull","nonSeqPartial","seqNoFeedback","seqFeedback"],"classroomPairings":[["A","B"],["C","D"]],"coinWeights":[0.2,0.5,0.8],"subjectId":"A2EI075XZT9Y2S","assignmentId":"3QFUFYSY9Z1JAJE2KYA5422RBG9F4S","hitId":"3AQN9REUTF20OMGWRXYK787QVFOYDP","url":"https://gershmanlab.com/experiments/alicia/teaching/experiment/?hitId=3AQN9REUTF20OMGWRXYK787QVFOYDP&workerId=A2EI075XZT9Y2S&assignmentId=3QFUFYSY9Z1JAJE2KYA5422RBG9F4S&a=YFFQ9&tp_a=YFFQ9&b=3QFUFYSY9Z1JAJE2KYA5422RBG9F4S&tp_b=3QFUFYSY9Z1JAJE2KYA5422RBG9F4S&c=365799&tp_c=365799","heads":8,"tails":2,"studentIndex":8,"studentTrueHypers":{"a":8,"b":2},"studentGuess":0.8,"delta":0,"totalExamples":10,"bonusSoFar":1.59},{"rt":11499,"response":{"heads":"4","tails":"1"},"type":"response","condition":"seqNoFeedback","trueTheta":0.8,"classrooms":["C","D"],"studentTrueClassroom":"D","exampleSet":"second","trial_type":"survey-html-form","trial_index":75,"time_elapsed":1343078,"internal_node_id":"0.0-74.0-0.0","params":{"nStudents":24,"maxFlips":30,"completionMinutes":45,"basePay":8,"maxBonus":9,"perTrialBonus":0.5,"perTrialBonusThreshold":0.05,"exampleCost":0.01},"classroomParams":{"A":{"a":1,"b":4},"B":{"a":4,"b":1},"C":{"a":2,"b":8},"D":{"a":8,"b":2}},"conditions":["nonSeqFull","nonSeqPartial","seqNoFeedback","seqFeedback"],"classroomPairings":[["A","B"],["C","D"]],"coinWeights":[0.2,0.5,0.8],"subjectId":"A2EI075XZT9Y2S","assignmentId":"3QFUFYSY9Z1JAJE2KYA5422RBG9F4S","hitId":"3AQN9REUTF20OMGWRXYK787QVFOYDP","url":"https://gershmanlab.com/experiments/alicia/teaching/experiment/?hitId=3AQN9REUTF20OMGWRXYK787QVFOYDP&workerId=A2EI075XZT9Y2S&assignmentId=3QFUFYSY9Z1JAJE2KYA5422RBG9F4S&a=YFFQ9&tp_a=YFFQ9&b=3QFUFYSY9Z1JAJE2KYA5422RBG9F4S&tp_b=3QFUFYSY9Z1JAJE2KYA5422RBG9F4S&c=365799&tp_c=365799","firstResponseHeads":8,"firstResponseTails":2,"secondResponseHeads":4,"secondResponseTails":1,"totalHeads":12,"totalTails":3,"studentIndex":8,"studentTrueHypers":{"a":8,"b":2},"studentGuess":0.8,"delta":0,"bonus":0.35,"bonusSoFar":1.94,"totalExamples":15},{"rt":23585,"response":{"heads":"8","tails":"2"},"type":"response","condition":"seqFeedback","trueTheta":0.8,"classrooms":["A","B"],"studentTrueClassroom":"B","exampleSet":"first","trial_type":"survey-html-form","trial_index":81,"time_elapsed":1403470,"internal_node_id":"0.0-80.0-0.0","params":{"nStudents":24,"maxFlips":30,"completionMinutes":45,"basePay":8,"maxBonus":9,"perTrialBonus":0.5,"perTrialBonusThreshold":0.05,"exampleCost":0.01},"classroomParams":{"A":{"a":1,"b":4},"B":{"a":4,"b":1},"C":{"a":2,"b":8},"D":{"a":8,"b":2}},"conditions":["nonSeqFull","nonSeqPartial","seqNoFeedback","seqFeedback"],"classroomPairings":[["A","B"],["C","D"]],"coinWeights":[0.2,0.5,0.8],"subjectId":"A2EI075XZT9Y2S","assignmentId":"3QFUFYSY9Z1JAJE2KYA5422RBG9F4S","hitId":"3AQN9REUTF20OMGWRXYK787QVFOYDP","url":"https://gershmanlab.com/experiments/alicia/teaching/experiment/?hitId=3AQN9REUTF20OMGWRXYK787QVFOYDP&workerId=A2EI075XZT9Y2S&assignmentId=3QFUFYSY9Z1JAJE2KYA5422RBG9F4S&a=YFFQ9&tp_a=YFFQ9&b=3QFUFYSY9Z1JAJE2KYA5422RBG9F4S&tp_b=3QFUFYSY9Z1JAJE2KYA5422RBG9F4S&c=365799&tp_c=365799","heads":8,"tails":2,"studentIndex":9,"studentTrueHypers":{"a":4,"b":1},"studentGuess":0.8,"delta":0,"totalExamples":10,"bonusSoFar":1.94},{"rt":10477,"response":{"heads":"4","tails":"1"},"type":"response","condition":"seqFeedback","trueTheta":0.8,"classrooms":["A","B"],"studentTrueClassroom":"B","exampleSet":"second","trial_type":"survey-html-form","trial_index":85,"time_elapsed":1426501,"internal_node_id":"0.0-84.0-0.0","params":{"nStudents":24,"maxFlips":30,"completionMinutes":45,"basePay":8,"maxBonus":9,"perTrialBonus":0.5,"perTrialBonusThreshold":0.05,"exampleCost":0.01},"classroomParams":{"A":{"a":1,"b":4},"B":{"a":4,"b":1},"C":{"a":2,"b":8},"D":{"a":8,"b":2}},"conditions":["nonSeqFull","nonSeqPartial","seqNoFeedback","seqFeedback"],"classroomPairings":[["A","B"],["C","D"]],"coinWeights":[0.2,0.5,0.8],"subjectId":"A2EI075XZT9Y2S","assignmentId":"3QFUFYSY9Z1JAJE2KYA5422RBG9F4S","hitId":"3AQN9REUTF20OMGWRXYK787QVFOYDP","url":"https://gershmanlab.com/experiments/alicia/teaching/experiment/?hitId=3AQN9REUTF20OMGWRXYK787QVFOYDP&workerId=A2EI075XZT9Y2S&assignmentId=3QFUFYSY9Z1JAJE2KYA5422RBG9F4S&a=YFFQ9&tp_a=YFFQ9&b=3QFUFYSY9Z1JAJE2KYA5422RBG9F4S&tp_b=3QFUFYSY9Z1JAJE2KYA5422RBG9F4S&c=365799&tp_c=365799","firstResponseHeads":8,"firstResponseTails":2,"secondResponseHeads":4,"secondResponseTails":1,"totalHeads":12,"totalTails":3,"studentIndex":9,"studentTrueHypers":{"a":4,"b":1},"studentGuess":0.8,"delta":0,"bonus":0.35,"bonusSoFar":2.29,"totalExamples":15},{"rt":21863,"response":{"heads":"4","tails":"16"},"type":"response","condition":"nonSeqPartial","trueTheta":0.2,"classrooms":["C","D"],"studentTrueClassroom":"C","exampleSet":"first","trial_type":"survey-html-form","trial_index":91,"time_elapsed":1464642,"internal_node_id":"0.0-90.0-0.0","params":{"nStudents":24,"maxFlips":30,"completionMinutes":45,"basePay":8,"maxBonus":9,"perTrialBonus":0.5,"perTrialBonusThreshold":0.05,"exampleCost":0.01},"classroomParams":{"A":{"a":1,"b":4},"B":{"a":4,"b":1},"C":{"a":2,"b":8},"D":{"a":8,"b":2}},"conditions":["nonSeqFull","nonSeqPartial","seqNoFeedback","seqFeedback"],"classroomPairings":[["A","B"],["C","D"]],"coinWeights":[0.2,0.5,0.8],"subjectId":"A2EI075XZT9Y2S","assignmentId":"3QFUFYSY9Z1JAJE2KYA5422RBG9F4S","hitId":"3AQN9REUTF20OMGWRXYK787QVFOYDP","url":"https://gershmanlab.com/experiments/alicia/teaching/experiment/?hitId=3AQN9REUTF20OMGWRXYK787QVFOYDP&workerId=A2EI075XZT9Y2S&assignmentId=3QFUFYSY9Z1JAJE2KYA5422RBG9F4S&a=YFFQ9&tp_a=YFFQ9&b=3QFUFYSY9Z1JAJE2KYA5422RBG9F4S&tp_b=3QFUFYSY9Z1JAJE2KYA5422RBG9F4S&c=365799&tp_c=365799","heads":4,"tails":16,"studentIndex":10,"studentTrueHypers":{"a":2,"b":8},"studentGuess":0.2,"delta":0,"totalExamples":20,"bonus":0.3,"bonusSoFar":2.59},{"rt":17884,"response":{"heads":"6","tails":"6"},"type":"response","condition":"seqFeedback","trueTheta":0.5,"classrooms":["C","D"],"studentTrueClassroom":"D","exampleSet":"first","trial_type":"survey-html-form","trial_index":97,"time_elapsed":1505507,"internal_node_id":"0.0-96.0-0.0","params":{"nStudents":24,"maxFlips":30,"completionMinutes":45,"basePay":8,"maxBonus":9,"perTrialBonus":0.5,"perTrialBonusThreshold":0.05,"exampleCost":0.01},"classroomParams":{"A":{"a":1,"b":4},"B":{"a":4,"b":1},"C":{"a":2,"b":8},"D":{"a":8,"b":2}},"conditions":["nonSeqFull","nonSeqPartial","seqNoFeedback","seqFeedback"],"classroomPairings":[["A","B"],["C","D"]],"coinWeights":[0.2,0.5,0.8],"subjectId":"A2EI075XZT9Y2S","assignmentId":"3QFUFYSY9Z1JAJE2KYA5422RBG9F4S","hitId":"3AQN9REUTF20OMGWRXYK787QVFOYDP","url":"https://gershmanlab.com/experiments/alicia/teaching/experiment/?hitId=3AQN9REUTF20OMGWRXYK787QVFOYDP&workerId=A2EI075XZT9Y2S&assignmentId=3QFUFYSY9Z1JAJE2KYA5422RBG9F4S&a=YFFQ9&tp_a=YFFQ9&b=3QFUFYSY9Z1JAJE2KYA5422RBG9F4S&tp_b=3QFUFYSY9Z1JAJE2KYA5422RBG9F4S&c=365799&tp_c=365799","heads":6,"tails":6,"studentIndex":11,"studentTrueHypers":{"a":8,"b":2},"studentGuess":0.6363636363636364,"delta":0.13636363636363635,"totalExamples":12,"bonusSoFar":2.59},{"rt":11379,"response":{"heads":"5","tails":"6"},"type":"response","condition":"seqFeedback","trueTheta":0.5,"classrooms":["C","D"],"studentTrueClassroom":"D","exampleSet":"second","trial_type":"survey-html-form","trial_index":101,"time_elapsed":1528851,"internal_node_id":"0.0-100.0-0.0","params":{"nStudents":24,"maxFlips":30,"completionMinutes":45,"basePay":8,"maxBonus":9,"perTrialBonus":0.5,"perTrialBonusThreshold":0.05,"exampleCost":0.01},"classroomParams":{"A":{"a":1,"b":4},"B":{"a":4,"b":1},"C":{"a":2,"b":8},"D":{"a":8,"b":2}},"conditions":["nonSeqFull","nonSeqPartial","seqNoFeedback","seqFeedback"],"classroomPairings":[["A","B"],["C","D"]],"coinWeights":[0.2,0.5,0.8],"subjectId":"A2EI075XZT9Y2S","assignmentId":"3QFUFYSY9Z1JAJE2KYA5422RBG9F4S","hitId":"3AQN9REUTF20OMGWRXYK787QVFOYDP","url":"https://gershmanlab.com/experiments/alicia/teaching/experiment/?hitId=3AQN9REUTF20OMGWRXYK787QVFOYDP&workerId=A2EI075XZT9Y2S&assignmentId=3QFUFYSY9Z1JAJE2KYA5422RBG9F4S&a=YFFQ9&tp_a=YFFQ9&b=3QFUFYSY9Z1JAJE2KYA5422RBG9F4S&tp_b=3QFUFYSY9Z1JAJE2KYA5422RBG9F4S&c=365799&tp_c=365799","firstResponseHeads":6,"firstResponseTails":6,"secondResponseHeads":5,"secondResponseTails":6,"totalHeads":11,"totalTails":12,"studentIndex":11,"studentTrueHypers":{"a":8,"b":2},"studentGuess":0.5757575757575758,"delta":0.0757575757575758,"bonus":0,"bonusSoFar":2.59,"totalExamples":23},{"rt":18527,"response":{"heads":"4","tails":"1"},"type":"response","condition":"seqFeedback","trueTheta":0.8,"classrooms":["C","D"],"studentTrueClassroom":"C","exampleSet":"first","trial_type":"survey-html-form","trial_index":107,"time_elapsed":1572619,"internal_node_id":"0.0-106.0-0.0","params":{"nStudents":24,"maxFlips":30,"completionMinutes":45,"basePay":8,"maxBonus":9,"perTrialBonus":0.5,"perTrialBonusThreshold":0.05,"exampleCost":0.01},"classroomParams":{"A":{"a":1,"b":4},"B":{"a":4,"b":1},"C":{"a":2,"b":8},"D":{"a":8,"b":2}},"conditions":["nonSeqFull","nonSeqPartial","seqNoFeedback","seqFeedback"],"classroomPairings":[["A","B"],["C","D"]],"coinWeights":[0.2,0.5,0.8],"subjectId":"A2EI075XZT9Y2S","assignmentId":"3QFUFYSY9Z1JAJE2KYA5422RBG9F4S","hitId":"3AQN9REUTF20OMGWRXYK787QVFOYDP","url":"https://gershmanlab.com/experiments/alicia/teaching/experiment/?hitId=3AQN9REUTF20OMGWRXYK787QVFOYDP&workerId=A2EI075XZT9Y2S&assignmentId=3QFUFYSY9Z1JAJE2KYA5422RBG9F4S&a=YFFQ9&tp_a=YFFQ9&b=3QFUFYSY9Z1JAJE2KYA5422RBG9F4S&tp_b=3QFUFYSY9Z1JAJE2KYA5422RBG9F4S&c=365799&tp_c=365799","heads":4,"tails":1,"studentIndex":12,"studentTrueHypers":{"a":2,"b":8},"studentGuess":0.4,"delta":0.4,"totalExamples":5,"bonusSoFar":2.59},{"rt":9261,"response":{"heads":"6","tails":"0"},"type":"response","condition":"seqFeedback","trueTheta":0.8,"classrooms":["C","D"],"studentTrueClassroom":"C","exampleSet":"second","trial_type":"survey-html-form","trial_index":111,"time_elapsed":1595749,"internal_node_id":"0.0-110.0-0.0","params":{"nStudents":24,"maxFlips":30,"completionMinutes":45,"basePay":8,"maxBonus":9,"perTrialBonus":0.5,"perTrialBonusThreshold":0.05,"exampleCost":0.01},"classroomParams":{"A":{"a":1,"b":4},"B":{"a":4,"b":1},"C":{"a":2,"b":8},"D":{"a":8,"b":2}},"conditions":["nonSeqFull","nonSeqPartial","seqNoFeedback","seqFeedback"],"classroomPairings":[["A","B"],["C","D"]],"coinWeights":[0.2,0.5,0.8],"subjectId":"A2EI075XZT9Y2S","assignmentId":"3QFUFYSY9Z1JAJE2KYA5422RBG9F4S","hitId":"3AQN9REUTF20OMGWRXYK787QVFOYDP","url":"https://gershmanlab.com/experiments/alicia/teaching/experiment/?hitId=3AQN9REUTF20OMGWRXYK787QVFOYDP&workerId=A2EI075XZT9Y2S&assignmentId=3QFUFYSY9Z1JAJE2KYA5422RBG9F4S&a=YFFQ9&tp_a=YFFQ9&b=3QFUFYSY9Z1JAJE2KYA5422RBG9F4S&tp_b=3QFUFYSY9Z1JAJE2KYA5422RBG9F4S&c=365799&tp_c=365799","firstResponseHeads":4,"firstResponseTails":1,"secondResponseHeads":6,"secondResponseTails":0,"totalHeads":10,"totalTails":1,"studentIndex":12,"studentTrueHypers":{"a":2,"b":8},"studentGuess":0.5714285714285714,"delta":0.22857142857142865,"bonus":0,"bonusSoFar":2.59,"totalExamples":11},{"rt":29748,"response":{"heads":"10","tails":"0"},"type":"response","condition":"nonSeqFull","trueTheta":0.5,"classrooms":["C","D"],"studentTrueClassroom":"C","exampleSet":"first","trial_type":"survey-html-form","trial_index":117,"time_elapsed":1648284,"internal_node_id":"0.0-116.0-0.0","params":{"nStudents":24,"maxFlips":30,"completionMinutes":45,"basePay":8,"maxBonus":9,"perTrialBonus":0.5,"perTrialBonusThreshold":0.05,"exampleCost":0.01},"classroomParams":{"A":{"a":1,"b":4},"B":{"a":4,"b":1},"C":{"a":2,"b":8},"D":{"a":8,"b":2}},"conditions":["nonSeqFull","nonSeqPartial","seqNoFeedback","seqFeedback"],"classroomPairings":[["A","B"],["C","D"]],"coinWeights":[0.2,0.5,0.8],"subjectId":"A2EI075XZT9Y2S","assignmentId":"3QFUFYSY9Z1JAJE2KYA5422RBG9F4S","hitId":"3AQN9REUTF20OMGWRXYK787QVFOYDP","url":"https://gershmanlab.com/experiments/alicia/teaching/experiment/?hitId=3AQN9REUTF20OMGWRXYK787QVFOYDP&workerId=A2EI075XZT9Y2S&assignmentId=3QFUFYSY9Z1JAJE2KYA5422RBG9F4S&a=YFFQ9&tp_a=YFFQ9&b=3QFUFYSY9Z1JAJE2KYA5422RBG9F4S&tp_b=3QFUFYSY9Z1JAJE2KYA5422RBG9F4S&c=365799&tp_c=365799","heads":10,"tails":0,"studentIndex":13,"studentTrueHypers":{"a":2,"b":8},"studentGuess":0.6,"delta":0.09999999999999998,"totalExamples":10,"bonus":0,"bonusSoFar":2.59},{"rt":17684,"response":{"heads":"8","tails":"1"},"type":"response","condition":"nonSeqPartial","trueTheta":0.8,"classrooms":["A","B"],"studentTrueClassroom":"B","exampleSet":"first","trial_type":"survey-html-form","trial_index":123,"time_elapsed":1686623,"internal_node_id":"0.0-122.0-0.0","params":{"nStudents":24,"maxFlips":30,"completionMinutes":45,"basePay":8,"maxBonus":9,"perTrialBonus":0.5,"perTrialBonusThreshold":0.05,"exampleCost":0.01},"classroomParams":{"A":{"a":1,"b":4},"B":{"a":4,"b":1},"C":{"a":2,"b":8},"D":{"a":8,"b":2}},"conditions":["nonSeqFull","nonSeqPartial","seqNoFeedback","seqFeedback"],"classroomPairings":[["A","B"],["C","D"]],"coinWeights":[0.2,0.5,0.8],"subjectId":"A2EI075XZT9Y2S","assignmentId":"3QFUFYSY9Z1JAJE2KYA5422RBG9F4S","hitId":"3AQN9REUTF20OMGWRXYK787QVFOYDP","url":"https://gershmanlab.com/experiments/alicia/teaching/experiment/?hitId=3AQN9REUTF20OMGWRXYK787QVFOYDP&workerId=A2EI075XZT9Y2S&assignmentId=3QFUFYSY9Z1JAJE2KYA5422RBG9F4S&a=YFFQ9&tp_a=YFFQ9&b=3QFUFYSY9Z1JAJE2KYA5422RBG9F4S&tp_b=3QFUFYSY9Z1JAJE2KYA5422RBG9F4S&c=365799&tp_c=365799","heads":8,"tails":1,"studentIndex":14,"studentTrueHypers":{"a":4,"b":1},"studentGuess":0.8571428571428571,"delta":0.05714285714285705,"totalExamples":9,"bonus":0,"bonusSoFar":2.59},{"rt":18459,"response":{"heads":"5","tails":"5"},"type":"response","condition":"nonSeqPartial","trueTheta":0.5,"classrooms":["C","D"],"studentTrueClassroom":"C","exampleSet":"first","trial_type":"survey-html-form","trial_index":129,"time_elapsed":1730198,"internal_node_id":"0.0-128.0-0.0","params":{"nStudents":24,"maxFlips":30,"completionMinutes":45,"basePay":8,"maxBonus":9,"perTrialBonus":0.5,"perTrialBonusThreshold":0.05,"exampleCost":0.01},"classroomParams":{"A":{"a":1,"b":4},"B":{"a":4,"b":1},"C":{"a":2,"b":8},"D":{"a":8,"b":2}},"conditions":["nonSeqFull","nonSeqPartial","seqNoFeedback","seqFeedback"],"classroomPairings":[["A","B"],["C","D"]],"coinWeights":[0.2,0.5,0.8],"subjectId":"A2EI075XZT9Y2S","assignmentId":"3QFUFYSY9Z1JAJE2KYA5422RBG9F4S","hitId":"3AQN9REUTF20OMGWRXYK787QVFOYDP","url":"https://gershmanlab.com/experiments/alicia/teaching/experiment/?hitId=3AQN9REUTF20OMGWRXYK787QVFOYDP&workerId=A2EI075XZT9Y2S&assignmentId=3QFUFYSY9Z1JAJE2KYA5422RBG9F4S&a=YFFQ9&tp_a=YFFQ9&b=3QFUFYSY9Z1JAJE2KYA5422RBG9F4S&tp_b=3QFUFYSY9Z1JAJE2KYA5422RBG9F4S&c=365799&tp_c=365799","heads":5,"tails":5,"studentIndex":15,"studentTrueHypers":{"a":2,"b":8},"studentGuess":0.35,"delta":0.15000000000000002,"totalExamples":10,"bonus":0,"bonusSoFar":2.59},{"rt":16031,"response":{"heads":"1","tails":"4"},"type":"response","condition":"seqNoFeedback","trueTheta":0.2,"classrooms":["C","D"],"studentTrueClassroom":"D","exampleSet":"first","trial_type":"survey-html-form","trial_index":135,"time_elapsed":1834862,"internal_node_id":"0.0-134.0-0.0","params":{"nStudents":24,"maxFlips":30,"completionMinutes":45,"basePay":8,"maxBonus":9,"perTrialBonus":0.5,"perTrialBonusThreshold":0.05,"exampleCost":0.01},"classroomParams":{"A":{"a":1,"b":4},"B":{"a":4,"b":1},"C":{"a":2,"b":8},"D":{"a":8,"b":2}},"conditions":["nonSeqFull","nonSeqPartial","seqNoFeedback","seqFeedback"],"classroomPairings":[["A","B"],["C","D"]],"coinWeights":[0.2,0.5,0.8],"subjectId":"A2EI075XZT9Y2S","assignmentId":"3QFUFYSY9Z1JAJE2KYA5422RBG9F4S","hitId":"3AQN9REUTF20OMGWRXYK787QVFOYDP","url":"https://gershmanlab.com/experiments/alicia/teaching/experiment/?hitId=3AQN9REUTF20OMGWRXYK787QVFOYDP&workerId=A2EI075XZT9Y2S&assignmentId=3QFUFYSY9Z1JAJE2KYA5422RBG9F4S&a=YFFQ9&tp_a=YFFQ9&b=3QFUFYSY9Z1JAJE2KYA5422RBG9F4S&tp_b=3QFUFYSY9Z1JAJE2KYA5422RBG9F4S&c=365799&tp_c=365799","heads":1,"tails":4,"studentIndex":16,"studentTrueHypers":{"a":8,"b":2},"studentGuess":0.6,"delta":0.39999999999999997,"totalExamples":5,"bonusSoFar":2.59},{"rt":16585,"response":{"heads":"1","tails":"4"},"type":"response","condition":"seqNoFeedback","trueTheta":0.2,"classrooms":["C","D"],"studentTrueClassroom":"D","exampleSet":"second","trial_type":"survey-html-form","trial_index":138,"time_elapsed":1857465,"internal_node_id":"0.0-137.0-0.0","params":{"nStudents":24,"maxFlips":30,"completionMinutes":45,"basePay":8,"maxBonus":9,"perTrialBonus":0.5,"perTrialBonusThreshold":0.05,"exampleCost":0.01},"classroomParams":{"A":{"a":1,"b":4},"B":{"a":4,"b":1},"C":{"a":2,"b":8},"D":{"a":8,"b":2}},"conditions":["nonSeqFull","nonSeqPartial","seqNoFeedback","seqFeedback"],"classroomPairings":[["A","B"],["C","D"]],"coinWeights":[0.2,0.5,0.8],"subjectId":"A2EI075XZT9Y2S","assignmentId":"3QFUFYSY9Z1JAJE2KYA5422RBG9F4S","hitId":"3AQN9REUTF20OMGWRXYK787QVFOYDP","url":"https://gershmanlab.com/experiments/alicia/teaching/experiment/?hitId=3AQN9REUTF20OMGWRXYK787QVFOYDP&workerId=A2EI075XZT9Y2S&assignmentId=3QFUFYSY9Z1JAJE2KYA5422RBG9F4S&a=YFFQ9&tp_a=YFFQ9&b=3QFUFYSY9Z1JAJE2KYA5422RBG9F4S&tp_b=3QFUFYSY9Z1JAJE2KYA5422RBG9F4S&c=365799&tp_c=365799","firstResponseHeads":1,"firstResponseTails":4,"secondResponseHeads":1,"secondResponseTails":4,"totalHeads":2,"totalTails":8,"studentIndex":16,"studentTrueHypers":{"a":8,"b":2},"studentGuess":0.5,"delta":0.3,"bonus":0,"bonusSoFar":2.59,"totalExamples":10},{"rt":13837,"response":{"heads":"10","tails":"2"},"type":"response","condition":"nonSeqFull","trueTheta":0.8,"classrooms":["A","B"],"studentTrueClassroom":"A","exampleSet":"first","trial_type":"survey-html-form","trial_index":144,"time_elapsed":1911028,"internal_node_id":"0.0-143.0-0.0","params":{"nStudents":24,"maxFlips":30,"completionMinutes":45,"basePay":8,"maxBonus":9,"perTrialBonus":0.5,"perTrialBonusThreshold":0.05,"exampleCost":0.01},"classroomParams":{"A":{"a":1,"b":4},"B":{"a":4,"b":1},"C":{"a":2,"b":8},"D":{"a":8,"b":2}},"conditions":["nonSeqFull","nonSeqPartial","seqNoFeedback","seqFeedback"],"classroomPairings":[["A","B"],["C","D"]],"coinWeights":[0.2,0.5,0.8],"subjectId":"A2EI075XZT9Y2S","assignmentId":"3QFUFYSY9Z1JAJE2KYA5422RBG9F4S","hitId":"3AQN9REUTF20OMGWRXYK787QVFOYDP","url":"https://gershmanlab.com/experiments/alicia/teaching/experiment/?hitId=3AQN9REUTF20OMGWRXYK787QVFOYDP&workerId=A2EI075XZT9Y2S&assignmentId=3QFUFYSY9Z1JAJE2KYA5422RBG9F4S&a=YFFQ9&tp_a=YFFQ9&b=3QFUFYSY9Z1JAJE2KYA5422RBG9F4S&tp_b=3QFUFYSY9Z1JAJE2KYA5422RBG9F4S&c=365799&tp_c=365799","heads":10,"tails":2,"studentIndex":17,"studentTrueHypers":{"a":1,"b":4},"studentGuess":0.6470588235294118,"delta":0.15294117647058825,"totalExamples":12,"bonus":0,"bonusSoFar":2.59},{"rt":22970,"response":{"heads":"1","tails":"12"},"type":"response","condition":"nonSeqFull","trueTheta":0.2,"classrooms":["A","B"],"studentTrueClassroom":"B","exampleSet":"first","trial_type":"survey-html-form","trial_index":150,"time_elapsed":1950982,"internal_node_id":"0.0-149.0-0.0","params":{"nStudents":24,"maxFlips":30,"completionMinutes":45,"basePay":8,"maxBonus":9,"perTrialBonus":0.5,"perTrialBonusThreshold":0.05,"exampleCost":0.01},"classroomParams":{"A":{"a":1,"b":4},"B":{"a":4,"b":1},"C":{"a":2,"b":8},"D":{"a":8,"b":2}},"conditions":["nonSeqFull","nonSeqPartial","seqNoFeedback","seqFeedback"],"classroomPairings":[["A","B"],["C","D"]],"coinWeights":[0.2,0.5,0.8],"subjectId":"A2EI075XZT9Y2S","assignmentId":"3QFUFYSY9Z1JAJE2KYA5422RBG9F4S","hitId":"3AQN9REUTF20OMGWRXYK787QVFOYDP","url":"https://gershmanlab.com/experiments/alicia/teaching/experiment/?hitId=3AQN9REUTF20OMGWRXYK787QVFOYDP&workerId=A2EI075XZT9Y2S&assignmentId=3QFUFYSY9Z1JAJE2KYA5422RBG9F4S&a=YFFQ9&tp_a=YFFQ9&b=3QFUFYSY9Z1JAJE2KYA5422RBG9F4S&tp_b=3QFUFYSY9Z1JAJE2KYA5422RBG9F4S&c=365799&tp_c=365799","heads":1,"tails":12,"studentIndex":18,"studentTrueHypers":{"a":4,"b":1},"studentGuess":0.2777777777777778,"delta":0.07777777777777778,"totalExamples":13,"bonus":0,"bonusSoFar":2.59},{"rt":16796,"response":{"heads":"8","tails":"8"},"type":"response","condition":"seqNoFeedback","trueTheta":0.5,"classrooms":["A","B"],"studentTrueClassroom":"A","exampleSet":"first","trial_type":"survey-html-form","trial_index":156,"time_elapsed":1984751,"internal_node_id":"0.0-155.0-0.0","params":{"nStudents":24,"maxFlips":30,"completionMinutes":45,"basePay":8,"maxBonus":9,"perTrialBonus":0.5,"perTrialBonusThreshold":0.05,"exampleCost":0.01},"classroomParams":{"A":{"a":1,"b":4},"B":{"a":4,"b":1},"C":{"a":2,"b":8},"D":{"a":8,"b":2}},"conditions":["nonSeqFull","nonSeqPartial","seqNoFeedback","seqFeedback"],"classroomPairings":[["A","B"],["C","D"]],"coinWeights":[0.2,0.5,0.8],"subjectId":"A2EI075XZT9Y2S","assignmentId":"3QFUFYSY9Z1JAJE2KYA5422RBG9F4S","hitId":"3AQN9REUTF20OMGWRXYK787QVFOYDP","url":"https://gershmanlab.com/experiments/alicia/teaching/experiment/?hitId=3AQN9REUTF20OMGWRXYK787QVFOYDP&workerId=A2EI075XZT9Y2S&assignmentId=3QFUFYSY9Z1JAJE2KYA5422RBG9F4S&a=YFFQ9&tp_a=YFFQ9&b=3QFUFYSY9Z1JAJE2KYA5422RBG9F4S&tp_b=3QFUFYSY9Z1JAJE2KYA5422RBG9F4S&c=365799&tp_c=365799","heads":8,"tails":8,"studentIndex":19,"studentTrueHypers":{"a":1,"b":4},"studentGuess":0.42857142857142855,"delta":0.07142857142857145,"totalExamples":16,"bonusSoFar":2.59},{"rt":104916,"response":{"heads":"6","tails":"6"},"type":"response","condition":"seqNoFeedback","trueTheta":0.5,"classrooms":["A","B"],"studentTrueClassroom":"A","exampleSet":"second","trial_type":"survey-html-form","trial_index":159,"time_elapsed":2096428,"internal_node_id":"0.0-158.0-0.0","params":{"nStudents":24,"maxFlips":30,"completionMinutes":45,"basePay":8,"maxBonus":9,"perTrialBonus":0.5,"perTrialBonusThreshold":0.05,"exampleCost":0.01},"classroomParams":{"A":{"a":1,"b":4},"B":{"a":4,"b":1},"C":{"a":2,"b":8},"D":{"a":8,"b":2}},"conditions":["nonSeqFull","nonSeqPartial","seqNoFeedback","seqFeedback"],"classroomPairings":[["A","B"],["C","D"]],"coinWeights":[0.2,0.5,0.8],"subjectId":"A2EI075XZT9Y2S","assignmentId":"3QFUFYSY9Z1JAJE2KYA5422RBG9F4S","hitId":"3AQN9REUTF20OMGWRXYK787QVFOYDP","url":"https://gershmanlab.com/experiments/alicia/teaching/experiment/?hitId=3AQN9REUTF20OMGWRXYK787QVFOYDP&workerId=A2EI075XZT9Y2S&assignmentId=3QFUFYSY9Z1JAJE2KYA5422RBG9F4S&a=YFFQ9&tp_a=YFFQ9&b=3QFUFYSY9Z1JAJE2KYA5422RBG9F4S&tp_b=3QFUFYSY9Z1JAJE2KYA5422RBG9F4S&c=365799&tp_c=365799","firstResponseHeads":8,"firstResponseTails":8,"secondResponseHeads":6,"secondResponseTails":6,"totalHeads":14,"totalTails":14,"studentIndex":19,"studentTrueHypers":{"a":1,"b":4},"studentGuess":0.45454545454545453,"delta":0.04545454545454547,"bonus":0.22,"bonusSoFar":2.81,"totalExamples":28},{"rt":16639,"response":{"heads":"12","tails":"2"},"type":"response","condition":"nonSeqPartial","trueTheta":0.8,"classrooms":["C","D"],"studentTrueClassroom":"D","exampleSet":"first","trial_type":"survey-html-form","trial_index":165,"time_elapsed":2131787,"internal_node_id":"0.0-164.0-0.0","params":{"nStudents":24,"maxFlips":30,"completionMinutes":45,"basePay":8,"maxBonus":9,"perTrialBonus":0.5,"perTrialBonusThreshold":0.05,"exampleCost":0.01},"classroomParams":{"A":{"a":1,"b":4},"B":{"a":4,"b":1},"C":{"a":2,"b":8},"D":{"a":8,"b":2}},"conditions":["nonSeqFull","nonSeqPartial","seqNoFeedback","seqFeedback"],"classroomPairings":[["A","B"],["C","D"]],"coinWeights":[0.2,0.5,0.8],"subjectId":"A2EI075XZT9Y2S","assignmentId":"3QFUFYSY9Z1JAJE2KYA5422RBG9F4S","hitId":"3AQN9REUTF20OMGWRXYK787QVFOYDP","url":"https://gershmanlab.com/experiments/alicia/teaching/experiment/?hitId=3AQN9REUTF20OMGWRXYK787QVFOYDP&workerId=A2EI075XZT9Y2S&assignmentId=3QFUFYSY9Z1JAJE2KYA5422RBG9F4S&a=YFFQ9&tp_a=YFFQ9&b=3QFUFYSY9Z1JAJE2KYA5422RBG9F4S&tp_b=3QFUFYSY9Z1JAJE2KYA5422RBG9F4S&c=365799&tp_c=365799","heads":12,"tails":2,"studentIndex":20,"studentTrueHypers":{"a":8,"b":2},"studentGuess":0.8333333333333334,"delta":0.033333333333333326,"totalExamples":14,"bonus":0.36,"bonusSoFar":3.17},{"rt":14429,"response":{"heads":"10","tails":"10"},"type":"response","condition":"nonSeqPartial","trueTheta":0.5,"classrooms":["A","B"],"studentTrueClassroom":"B","exampleSet":"first","trial_type":"survey-html-form","trial_index":171,"time_elapsed":2163359,"internal_node_id":"0.0-170.0-0.0","params":{"nStudents":24,"maxFlips":30,"completionMinutes":45,"basePay":8,"maxBonus":9,"perTrialBonus":0.5,"perTrialBonusThreshold":0.05,"exampleCost":0.01},"classroomParams":{"A":{"a":1,"b":4},"B":{"a":4,"b":1},"C":{"a":2,"b":8},"D":{"a":8,"b":2}},"conditions":["nonSeqFull","nonSeqPartial","seqNoFeedback","seqFeedback"],"classroomPairings":[["A","B"],["C","D"]],"coinWeights":[0.2,0.5,0.8],"subjectId":"A2EI075XZT9Y2S","assignmentId":"3QFUFYSY9Z1JAJE2KYA5422RBG9F4S","hitId":"3AQN9REUTF20OMGWRXYK787QVFOYDP","url":"https://gershmanlab.com/experiments/alicia/teaching/experiment/?hitId=3AQN9REUTF20OMGWRXYK787QVFOYDP&workerId=A2EI075XZT9Y2S&assignmentId=3QFUFYSY9Z1JAJE2KYA5422RBG9F4S&a=YFFQ9&tp_a=YFFQ9&b=3QFUFYSY9Z1JAJE2KYA5422RBG9F4S&tp_b=3QFUFYSY9Z1JAJE2KYA5422RBG9F4S&c=365799&tp_c=365799","heads":10,"tails":10,"studentIndex":21,"studentTrueHypers":{"a":4,"b":1},"studentGuess":0.56,"delta":0.06000000000000005,"totalExamples":20,"bonus":0,"bonusSoFar":3.17},{"rt":18590,"response":{"heads":"2","tails":"10"},"type":"response","condition":"seqFeedback","trueTheta":0.2,"classrooms":["A","B"],"studentTrueClassroom":"B","exampleSet":"first","trial_type":"survey-html-form","trial_index":177,"time_elapsed":2201852,"internal_node_id":"0.0-176.0-0.0","params":{"nStudents":24,"maxFlips":30,"completionMinutes":45,"basePay":8,"maxBonus":9,"perTrialBonus":0.5,"perTrialBonusThreshold":0.05,"exampleCost":0.01},"classroomParams":{"A":{"a":1,"b":4},"B":{"a":4,"b":1},"C":{"a":2,"b":8},"D":{"a":8,"b":2}},"conditions":["nonSeqFull","nonSeqPartial","seqNoFeedback","seqFeedback"],"classroomPairings":[["A","B"],["C","D"]],"coinWeights":[0.2,0.5,0.8],"subjectId":"A2EI075XZT9Y2S","assignmentId":"3QFUFYSY9Z1JAJE2KYA5422RBG9F4S","hitId":"3AQN9REUTF20OMGWRXYK787QVFOYDP","url":"https://gershmanlab.com/experiments/alicia/teaching/experiment/?hitId=3AQN9REUTF20OMGWRXYK787QVFOYDP&workerId=A2EI075XZT9Y2S&assignmentId=3QFUFYSY9Z1JAJE2KYA5422RBG9F4S&a=YFFQ9&tp_a=YFFQ9&b=3QFUFYSY9Z1JAJE2KYA5422RBG9F4S&tp_b=3QFUFYSY9Z1JAJE2KYA5422RBG9F4S&c=365799&tp_c=365799","heads":2,"tails":10,"studentIndex":22,"studentTrueHypers":{"a":4,"b":1},"studentGuess":0.35294117647058826,"delta":0.15294117647058825,"totalExamples":12,"bonusSoFar":3.17},{"rt":7539,"response":{"heads":"1","tails":"10"},"type":"response","condition":"seqFeedback","trueTheta":0.2,"classrooms":["A","B"],"studentTrueClassroom":"B","exampleSet":"second","trial_type":"survey-html-form","trial_index":181,"time_elapsed":2220409,"internal_node_id":"0.0-180.0-0.0","params":{"nStudents":24,"maxFlips":30,"completionMinutes":45,"basePay":8,"maxBonus":9,"perTrialBonus":0.5,"perTrialBonusThreshold":0.05,"exampleCost":0.01},"classroomParams":{"A":{"a":1,"b":4},"B":{"a":4,"b":1},"C":{"a":2,"b":8},"D":{"a":8,"b":2}},"conditions":["nonSeqFull","nonSeqPartial","seqNoFeedback","seqFeedback"],"classroomPairings":[["A","B"],["C","D"]],"coinWeights":[0.2,0.5,0.8],"subjectId":"A2EI075XZT9Y2S","assignmentId":"3QFUFYSY9Z1JAJE2KYA5422RBG9F4S","hitId":"3AQN9REUTF20OMGWRXYK787QVFOYDP","url":"https://gershmanlab.com/experiments/alicia/teaching/experiment/?hitId=3AQN9REUTF20OMGWRXYK787QVFOYDP&workerId=A2EI075XZT9Y2S&assignmentId=3QFUFYSY9Z1JAJE2KYA5422RBG9F4S&a=YFFQ9&tp_a=YFFQ9&b=3QFUFYSY9Z1JAJE2KYA5422RBG9F4S&tp_b=3QFUFYSY9Z1JAJE2KYA5422RBG9F4S&c=365799&tp_c=365799","firstResponseHeads":2,"firstResponseTails":10,"secondResponseHeads":1,"secondResponseTails":10,"totalHeads":3,"totalTails":20,"studentIndex":22,"studentTrueHypers":{"a":4,"b":1},"studentGuess":0.25,"delta":0.04999999999999999,"bonus":0.27,"bonusSoFar":3.44,"totalExamples":23},{"rt":21975,"response":{"heads":"1","tails":"12"},"type":"response","condition":"nonSeqFull","trueTheta":0.5,"classrooms":["A","B"],"studentTrueClassroom":"B","exampleSet":"first","trial_type":"survey-html-form","trial_index":187,"time_elapsed":2259415,"internal_node_id":"0.0-186.0-0.0","params":{"nStudents":24,"maxFlips":30,"completionMinutes":45,"basePay":8,"maxBonus":9,"perTrialBonus":0.5,"perTrialBonusThreshold":0.05,"exampleCost":0.01},"classroomParams":{"A":{"a":1,"b":4},"B":{"a":4,"b":1},"C":{"a":2,"b":8},"D":{"a":8,"b":2}},"conditions":["nonSeqFull","nonSeqPartial","seqNoFeedback","seqFeedback"],"classroomPairings":[["A","B"],["C","D"]],"coinWeights":[0.2,0.5,0.8],"subjectId":"A2EI075XZT9Y2S","assignmentId":"3QFUFYSY9Z1JAJE2KYA5422RBG9F4S","hitId":"3AQN9REUTF20OMGWRXYK787QVFOYDP","url":"https://gershmanlab.com/experiments/alicia/teaching/experiment/?hitId=3AQN9REUTF20OMGWRXYK787QVFOYDP&workerId=A2EI075XZT9Y2S&assignmentId=3QFUFYSY9Z1JAJE2KYA5422RBG9F4S&a=YFFQ9&tp_a=YFFQ9&b=3QFUFYSY9Z1JAJE2KYA5422RBG9F4S&tp_b=3QFUFYSY9Z1JAJE2KYA5422RBG9F4S&c=365799&tp_c=365799","heads":1,"tails":12,"studentIndex":23,"studentTrueHypers":{"a":4,"b":1},"studentGuess":0.2777777777777778,"delta":0.2222222222222222,"totalExamples":13,"bonus":0,"bonusSoFar":3.44},{"rt":32478,"response":{"gender":"male","age":"45","understood":"yes","comments":"obviously a system in play, just never locked it down"},"type":"response","trial_type":"survey-html-form","trial_index":191,"time_elapsed":2301600,"internal_node_id":"0.0-191.0","params":{"nStudents":24,"maxFlips":30,"completionMinutes":45,"basePay":8,"maxBonus":9,"perTrialBonus":0.5,"perTrialBonusThreshold":0.05,"exampleCost":0.01},"classroomParams":{"A":{"a":1,"b":4},"B":{"a":4,"b":1},"C":{"a":2,"b":8},"D":{"a":8,"b":2}},"conditions":["nonSeqFull","nonSeqPartial","seqNoFeedback","seqFeedback"],"classroomPairings":[["A","B"],["C","D"]],"coinWeights":[0.2,0.5,0.8],"subjectId":"A2EI075XZT9Y2S","assignmentId":"3QFUFYSY9Z1JAJE2KYA5422RBG9F4S","hitId":"3AQN9REUTF20OMGWRXYK787QVFOYDP","url":"https://gershmanlab.com/experiments/alicia/teaching/experiment/?hitId=3AQN9REUTF20OMGWRXYK787QVFOYDP&workerId=A2EI075XZT9Y2S&assignmentId=3QFUFYSY9Z1JAJE2KYA5422RBG9F4S&a=YFFQ9&tp_a=YFFQ9&b=3QFUFYSY9Z1JAJE2KYA5422RBG9F4S&tp_b=3QFUFYSY9Z1JAJE2KYA5422RBG9F4S&c=365799&tp_c=365799","totalBonus":3.44}]