[{"rt":44219,"response":{"heads":"10","tails":"10"},"type":"response","condition":"seqFeedback","trueTheta":0.5,"classrooms":["C","D"],"studentTrueClassroom":"C","exampleSet":"first","trial_type":"survey-html-form","trial_index":7,"time_elapsed":148882,"internal_node_id":"0.0-6.0-0.0","params":{"nStudents":24,"maxFlips":30,"completionMinutes":45,"basePay":8,"maxBonus":9,"perTrialBonus":0.5,"perTrialBonusThreshold":0.05,"exampleCost":0.01},"classroomParams":{"A":{"a":1,"b":4},"B":{"a":4,"b":1},"C":{"a":2,"b":8},"D":{"a":8,"b":2}},"conditions":["nonSeqFull","nonSeqPartial","seqNoFeedback","seqFeedback"],"classroomPairings":[["A","B"],["C","D"]],"coinWeights":[0.2,0.5,0.8],"subjectId":"A2ELXYKRPPGRPB","assignmentId":"3ATTHHXXWBAUIC425HIV4ACHK36IX1","hitId":"363A7XIFV48LMLIF2CKYA8VQSVQAVR","url":"https://gershmanlab.com/experiments/alicia/teaching/experiment/?hitId=363A7XIFV48LMLIF2CKYA8VQSVQAVR&workerId=A2ELXYKRPPGRPB&assignmentId=3ATTHHXXWBAUIC425HIV4ACHK36IX1&a=XHTA9&tp_a=XHTA9&b=3ATTHHXXWBAUIC425HIV4ACHK36IX1&tp_b=3ATTHHXXWBAUIC425HIV4ACHK36IX1&c=365799&tp_c=365799","heads":10,"tails":10,"studentIndex":0,"studentTrueHypers":{"a":2,"b":8},"studentGuess":0.4,"delta":0.09999999999999998,"totalExamples":20,"bonusSoFar":0},{"rt":9156,"response":{"heads":"15","tails":"10"},"type":"response","condition":"seqFeedback","trueTheta":0.5,"classrooms":["C","D"],"studentTrueClassroom":"C","exampleSet":"second","trial_type":"survey-html-form","trial_index":11,"time_elapsed":171415,"internal_node_id":"0.0-10.0-0.0","params":{"nStudents":24,"maxFlips":30,"completionMinutes":45,"basePay":8,"maxBonus":9,"perTrialBonus":0.5,"perTrialBonusThreshold":0.05,"exampleCost":0.01},"classroomParams":{"A":{"a":1,"b":4},"B":{"a":4,"b":1},"C":{"a":2,"b":8},"D":{"a":8,"b":2}},"conditions":["nonSeqFull","nonSeqPartial","seqNoFeedback","seqFeedback"],"classroomPairings":[["A","B"],["C","D"]],"coinWeights":[0.2,0.5,0.8],"subjectId":"A2ELXYKRPPGRPB","assignmentId":"3ATTHHXXWBAUIC425HIV4ACHK36IX1","hitId":"363A7XIFV48LMLIF2CKYA8VQSVQAVR","url":"https://gershmanlab.com/experiments/alicia/teaching/experiment/?hitId=363A7XIFV48LMLIF2CKYA8VQSVQAVR&workerId=A2ELXYKRPPGRPB&assignmentId=3ATTHHXXWBAUIC425HIV4ACHK36IX1&a=XHTA9&tp_a=XHTA9&b=3ATTHHXXWBAUIC425HIV4ACHK36IX1&tp_b=3ATTHHXXWBAUIC425HIV4ACHK36IX1&c=365799&tp_c=365799","firstResponseHeads":10,"firstResponseTails":10,"secondResponseHeads":15,"secondResponseTails":10,"totalHeads":25,"totalTails":20,"studentIndex":0,"studentTrueHypers":{"a":2,"b":8},"studentGuess":0.4909090909090909,"delta":0.009090909090909094,"bonus":0.05,"bonusSoFar":0.05,"totalExamples":45},{"rt":18215,"response":{"heads":"3","tails":"0"},"type":"response","condition":"nonSeqFull","trueTheta":0.5,"classrooms":["A","B"],"studentTrueClassroom":"A","exampleSet":"first","trial_type":"survey-html-form","trial_index":17,"time_elapsed":205864,"internal_node_id":"0.0-16.0-0.0","params":{"nStudents":24,"maxFlips":30,"completionMinutes":45,"basePay":8,"maxBonus":9,"perTrialBonus":0.5,"perTrialBonusThreshold":0.05,"exampleCost":0.01},"classroomParams":{"A":{"a":1,"b":4},"B":{"a":4,"b":1},"C":{"a":2,"b":8},"D":{"a":8,"b":2}},"conditions":["nonSeqFull","nonSeqPartial","seqNoFeedback","seqFeedback"],"classroomPairings":[["A","B"],["C","D"]],"coinWeights":[0.2,0.5,0.8],"subjectId":"A2ELXYKRPPGRPB","assignmentId":"3ATTHHXXWBAUIC425HIV4ACHK36IX1","hitId":"363A7XIFV48LMLIF2CKYA8VQSVQAVR","url":"https://gershmanlab.com/experiments/alicia/teaching/experiment/?hitId=363A7XIFV48LMLIF2CKYA8VQSVQAVR&workerId=A2ELXYKRPPGRPB&assignmentId=3ATTHHXXWBAUIC425HIV4ACHK36IX1&a=XHTA9&tp_a=XHTA9&b=3ATTHHXXWBAUIC425HIV4ACHK36IX1&tp_b=3ATTHHXXWBAUIC425HIV4ACHK36IX1&c=365799&tp_c=365799","heads":3,"tails":0,"studentIndex":1,"studentTrueHypers":{"a":1,"b":4},"studentGuess":0.5,"delta":0,"totalExamples":3,"bonus":0.47,"bonusSoFar":0.52},{"rt":13753,"response":{"heads":"10","tails":"0"},"type":"response","condition":"seqNoFeedback","trueTheta":0.8,"classrooms":["A","B"],"studentTrueClassroom":"A","exampleSet":"first","trial_type":"survey-html-form","trial_index":23,"time_elapsed":236395,"internal_node_id":"0.0-22.0-0.0","params":{"nStudents":24,"maxFlips":30,"completionMinutes":45,"basePay":8,"maxBonus":9,"perTrialBonus":0.5,"perTrialBonusThreshold":0.05,"exampleCost":0.01},"classroomParams":{"A":{"a":1,"b":4},"B":{"a":4,"b":1},"C":{"a":2,"b":8},"D":{"a":8,"b":2}},"conditions":["nonSeqFull","nonSeqPartial","seqNoFeedback","seqFeedback"],"classroomPairings":[["A","B"],["C","D"]],"coinWeights":[0.2,0.5,0.8],"subjectId":"A2ELXYKRPPGRPB","assignmentId":"3ATTHHXXWBAUIC425HIV4ACHK36IX1","hitId":"363A7XIFV48LMLIF2CKYA8VQSVQAVR","url":"https://gershmanlab.com/experiments/alicia/teaching/experiment/?hitId=363A7XIFV48LMLIF2CKYA8VQSVQAVR&workerId=A2ELXYKRPPGRPB&assignmentId=3ATTHHXXWBAUIC425HIV4ACHK36IX1&a=XHTA9&tp_a=XHTA9&b=3ATTHHXXWBAUIC425HIV4ACHK36IX1&tp_b=3ATTHHXXWBAUIC425HIV4ACHK36IX1&c=365799&tp_c=365799","heads":10,"tails":0,"studentIndex":2,"studentTrueHypers":{"a":1,"b":4},"studentGuess":0.7333333333333333,"delta":0.06666666666666676,"totalExamples":10,"bonusSoFar":0.52},{"rt":22806,"response":{"heads":"15","tails":"3"},"type":"response","condition":"seqNoFeedback","trueTheta":0.8,"classrooms":["A","B"],"studentTrueClassroom":"A","exampleSet":"second","trial_type":"survey-html-form","trial_index":26,"time_elapsed":265231,"internal_node_id":"0.0-25.0-0.0","params":{"nStudents":24,"maxFlips":30,"completionMinutes":45,"basePay":8,"maxBonus":9,"perTrialBonus":0.5,"perTrialBonusThreshold":0.05,"exampleCost":0.01},"classroomParams":{"A":{"a":1,"b":4},"B":{"a":4,"b":1},"C":{"a":2,"b":8},"D":{"a":8,"b":2}},"conditions":["nonSeqFull","nonSeqPartial","seqNoFeedback","seqFeedback"],"classroomPairings":[["A","B"],["C","D"]],"coinWeights":[0.2,0.5,0.8],"subjectId":"A2ELXYKRPPGRPB","assignmentId":"3ATTHHXXWBAUIC425HIV4ACHK36IX1","hitId":"363A7XIFV48LMLIF2CKYA8VQSVQAVR","url":"https://gershmanlab.com/experiments/alicia/teaching/experiment/?hitId=363A7XIFV48LMLIF2CKYA8VQSVQAVR&workerId=A2ELXYKRPPGRPB&assignmentId=3ATTHHXXWBAUIC425HIV4ACHK36IX1&a=XHTA9&tp_a=XHTA9&b=3ATTHHXXWBAUIC425HIV4ACHK36IX1&tp_b=3ATTHHXXWBAUIC425HIV4ACHK36IX1&c=365799&tp_c=365799","firstResponseHeads":10,"firstResponseTails":0,"secondResponseHeads":15,"secondResponseTails":3,"totalHeads":25,"totalTails":3,"studentIndex":2,"studentTrueHypers":{"a":1,"b":4},"studentGuess":0.7878787878787878,"delta":0.0121212121212122,"bonus":0.22,"bonusSoFar":0.74,"totalExamples":28},{"rt":8396,"response":{"heads":"0","tails":"15"},"type":"response","condition":"nonSeqFull","trueTheta":0.2,"classrooms":["C","D"],"studentTrueClassroom":"D","exampleSet":"first","trial_type":"survey-html-form","trial_index":32,"time_elapsed":287770,"internal_node_id":"0.0-31.0-0.0","params":{"nStudents":24,"maxFlips":30,"completionMinutes":45,"basePay":8,"maxBonus":9,"perTrialBonus":0.5,"perTrialBonusThreshold":0.05,"exampleCost":0.01},"classroomParams":{"A":{"a":1,"b":4},"B":{"a":4,"b":1},"C":{"a":2,"b":8},"D":{"a":8,"b":2}},"conditions":["nonSeqFull","nonSeqPartial","seqNoFeedback","seqFeedback"],"classroomPairings":[["A","B"],["C","D"]],"coinWeights":[0.2,0.5,0.8],"subjectId":"A2ELXYKRPPGRPB","assignmentId":"3ATTHHXXWBAUIC425HIV4ACHK36IX1","hitId":"363A7XIFV48LMLIF2CKYA8VQSVQAVR","url":"https://gershmanlab.com/experiments/alicia/teaching/experiment/?hitId=363A7XIFV48LMLIF2CKYA8VQSVQAVR&workerId=A2ELXYKRPPGRPB&assignmentId=3ATTHHXXWBAUIC425HIV4ACHK36IX1&a=XHTA9&tp_a=XHTA9&b=3ATTHHXXWBAUIC425HIV4ACHK36IX1&tp_b=3ATTHHXXWBAUIC425HIV4ACHK36IX1&c=365799&tp_c=365799","heads":0,"tails":15,"studentIndex":3,"studentTrueHypers":{"a":8,"b":2},"studentGuess":0.32,"delta":0.12,"totalExamples":15,"bonus":0,"bonusSoFar":0.74},{"rt":11289,"response":{"heads":"0","tails":"10"},"type":"response","condition":"nonSeqPartial","trueTheta":0.2,"classrooms":["C","D"],"studentTrueClassroom":"C","exampleSet":"first","trial_type":"survey-html-form","trial_index":38,"time_elapsed":311296,"internal_node_id":"0.0-37.0-0.0","params":{"nStudents":24,"maxFlips":30,"completionMinutes":45,"basePay":8,"maxBonus":9,"perTrialBonus":0.5,"perTrialBonusThreshold":0.05,"exampleCost":0.01},"classroomParams":{"A":{"a":1,"b":4},"B":{"a":4,"b":1},"C":{"a":2,"b":8},"D":{"a":8,"b":2}},"conditions":["nonSeqFull","nonSeqPartial","seqNoFeedback","seqFeedback"],"classroomPairings":[["A","B"],["C","D"]],"coinWeights":[0.2,0.5,0.8],"subjectId":"A2ELXYKRPPGRPB","assignmentId":"3ATTHHXXWBAUIC425HIV4ACHK36IX1","hitId":"363A7XIFV48LMLIF2CKYA8VQSVQAVR","url":"https://gershmanlab.com/experiments/alicia/teaching/experiment/?hitId=363A7XIFV48LMLIF2CKYA8VQSVQAVR&workerId=A2ELXYKRPPGRPB&assignmentId=3ATTHHXXWBAUIC425HIV4ACHK36IX1&a=XHTA9&tp_a=XHTA9&b=3ATTHHXXWBAUIC425HIV4ACHK36IX1&tp_b=3ATTHHXXWBAUIC425HIV4ACHK36IX1&c=365799&tp_c=365799","heads":0,"tails":10,"studentIndex":4,"studentTrueHypers":{"a":2,"b":8},"studentGuess":0.1,"delta":0.1,"totalExamples":10,"bonus":0,"bonusSoFar":0.74},{"rt":9874,"response":{"heads":"10","tails":"2"},"type":"response","condition":"nonSeqFull","trueTheta":0.8,"classrooms":["A","B"],"studentTrueClassroom":"B","exampleSet":"first","trial_type":"survey-html-form","trial_index":44,"time_elapsed":332293,"internal_node_id":"0.0-43.0-0.0","params":{"nStudents":24,"maxFlips":30,"completionMinutes":45,"basePay":8,"maxBonus":9,"perTrialBonus":0.5,"perTrialBonusThreshold":0.05,"exampleCost":0.01},"classroomParams":{"A":{"a":1,"b":4},"B":{"a":4,"b":1},"C":{"a":2,"b":8},"D":{"a":8,"b":2}},"conditions":["nonSeqFull","nonSeqPartial","seqNoFeedback","seqFeedback"],"classroomPairings":[["A","B"],["C","D"]],"coinWeights":[0.2,0.5,0.8],"subjectId":"A2ELXYKRPPGRPB","assignmentId":"3ATTHHXXWBAUIC425HIV4ACHK36IX1","hitId":"363A7XIFV48LMLIF2CKYA8VQSVQAVR","url":"https://gershmanlab.com/experiments/alicia/teaching/experiment/?hitId=363A7XIFV48LMLIF2CKYA8VQSVQAVR&workerId=A2ELXYKRPPGRPB&assignmentId=3ATTHHXXWBAUIC425HIV4ACHK36IX1&a=XHTA9&tp_a=XHTA9&b=3ATTHHXXWBAUIC425HIV4ACHK36IX1&tp_b=3ATTHHXXWBAUIC425HIV4ACHK36IX1&c=365799&tp_c=365799","heads":10,"tails":2,"studentIndex":5,"studentTrueHypers":{"a":4,"b":1},"studentGuess":0.8235294117647058,"delta":0.0235294117647058,"totalExamples":12,"bonus":0.38,"bonusSoFar":1.12},{"rt":8424,"response":{"heads":"10","tails":"10"},"type":"response","condition":"seqNoFeedback","trueTheta":0.5,"classrooms":["A","B"],"studentTrueClassroom":"A","exampleSet":"first","trial_type":"survey-html-form","trial_index":50,"time_elapsed":354346,"internal_node_id":"0.0-49.0-0.0","params":{"nStudents":24,"maxFlips":30,"completionMinutes":45,"basePay":8,"maxBonus":9,"perTrialBonus":0.5,"perTrialBonusThreshold":0.05,"exampleCost":0.01},"classroomParams":{"A":{"a":1,"b":4},"B":{"a":4,"b":1},"C":{"a":2,"b":8},"D":{"a":8,"b":2}},"conditions":["nonSeqFull","nonSeqPartial","seqNoFeedback","seqFeedback"],"classroomPairings":[["A","B"],["C","D"]],"coinWeights":[0.2,0.5,0.8],"subjectId":"A2ELXYKRPPGRPB","assignmentId":"3ATTHHXXWBAUIC425HIV4ACHK36IX1","hitId":"363A7XIFV48LMLIF2CKYA8VQSVQAVR","url":"https://gershmanlab.com/experiments/alicia/teaching/experiment/?hitId=363A7XIFV48LMLIF2CKYA8VQSVQAVR&workerId=A2ELXYKRPPGRPB&assignmentId=3ATTHHXXWBAUIC425HIV4ACHK36IX1&a=XHTA9&tp_a=XHTA9&b=3ATTHHXXWBAUIC425HIV4ACHK36IX1&tp_b=3ATTHHXXWBAUIC425HIV4ACHK36IX1&c=365799&tp_c=365799","heads":10,"tails":10,"studentIndex":6,"studentTrueHypers":{"a":1,"b":4},"studentGuess":0.44,"delta":0.06,"totalExamples":20,"bonusSoFar":1.12},{"rt":10902,"response":{"heads":"10","tails":"10"},"type":"response","condition":"seqNoFeedback","trueTheta":0.5,"classrooms":["A","B"],"studentTrueClassroom":"A","exampleSet":"second","trial_type":"survey-html-form","trial_index":53,"time_elapsed":372514,"internal_node_id":"0.0-52.0-0.0","params":{"nStudents":24,"maxFlips":30,"completionMinutes":45,"basePay":8,"maxBonus":9,"perTrialBonus":0.5,"perTrialBonusThreshold":0.05,"exampleCost":0.01},"classroomParams":{"A":{"a":1,"b":4},"B":{"a":4,"b":1},"C":{"a":2,"b":8},"D":{"a":8,"b":2}},"conditions":["nonSeqFull","nonSeqPartial","seqNoFeedback","seqFeedback"],"classroomPairings":[["A","B"],["C","D"]],"coinWeights":[0.2,0.5,0.8],"subjectId":"A2ELXYKRPPGRPB","assignmentId":"3ATTHHXXWBAUIC425HIV4ACHK36IX1","hitId":"363A7XIFV48LMLIF2CKYA8VQSVQAVR","url":"https://gershmanlab.com/experiments/alicia/teaching/experiment/?hitId=363A7XIFV48LMLIF2CKYA8VQSVQAVR&workerId=A2ELXYKRPPGRPB&assignmentId=3ATTHHXXWBAUIC425HIV4ACHK36IX1&a=XHTA9&tp_a=XHTA9&b=3ATTHHXXWBAUIC425HIV4ACHK36IX1&tp_b=3ATTHHXXWBAUIC425HIV4ACHK36IX1&c=365799&tp_c=365799","firstResponseHeads":10,"firstResponseTails":10,"secondResponseHeads":10,"secondResponseTails":10,"totalHeads":20,"totalTails":20,"studentIndex":6,"studentTrueHypers":{"a":1,"b":4},"studentGuess":0.4666666666666667,"delta":0.033333333333333326,"bonus":0.1,"bonusSoFar":1.22,"totalExamples":40},{"rt":7705,"response":{"heads":"15","tails":"15"},"type":"response","condition":"seqNoFeedback","trueTheta":0.5,"classrooms":["C","D"],"studentTrueClassroom":"D","exampleSet":"first","trial_type":"survey-html-form","trial_index":59,"time_elapsed":394301,"internal_node_id":"0.0-58.0-0.0","params":{"nStudents":24,"maxFlips":30,"completionMinutes":45,"basePay":8,"maxBonus":9,"perTrialBonus":0.5,"perTrialBonusThreshold":0.05,"exampleCost":0.01},"classroomParams":{"A":{"a":1,"b":4},"B":{"a":4,"b":1},"C":{"a":2,"b":8},"D":{"a":8,"b":2}},"conditions":["nonSeqFull","nonSeqPartial","seqNoFeedback","seqFeedback"],"classroomPairings":[["A","B"],["C","D"]],"coinWeights":[0.2,0.5,0.8],"subjectId":"A2ELXYKRPPGRPB","assignmentId":"3ATTHHXXWBAUIC425HIV4ACHK36IX1","hitId":"363A7XIFV48LMLIF2CKYA8VQSVQAVR","url":"https://gershmanlab.com/experiments/alicia/teaching/experiment/?hitId=363A7XIFV48LMLIF2CKYA8VQSVQAVR&workerId=A2ELXYKRPPGRPB&assignmentId=3ATTHHXXWBAUIC425HIV4ACHK36IX1&a=XHTA9&tp_a=XHTA9&b=3ATTHHXXWBAUIC425HIV4ACHK36IX1&tp_b=3ATTHHXXWBAUIC425HIV4ACHK36IX1&c=365799&tp_c=365799","heads":15,"tails":15,"studentIndex":7,"studentTrueHypers":{"a":8,"b":2},"studentGuess":0.575,"delta":0.07499999999999996,"totalExamples":30,"bonusSoFar":1.22},{"rt":8351,"response":{"heads":"15","tails":"15"},"type":"response","condition":"seqNoFeedback","trueTheta":0.5,"classrooms":["C","D"],"studentTrueClassroom":"D","exampleSet":"second","trial_type":"survey-html-form","trial_index":62,"time_elapsed":410166,"internal_node_id":"0.0-61.0-0.0","params":{"nStudents":24,"maxFlips":30,"completionMinutes":45,"basePay":8,"maxBonus":9,"perTrialBonus":0.5,"perTrialBonusThreshold":0.05,"exampleCost":0.01},"classroomParams":{"A":{"a":1,"b":4},"B":{"a":4,"b":1},"C":{"a":2,"b":8},"D":{"a":8,"b":2}},"conditions":["nonSeqFull","nonSeqPartial","seqNoFeedback","seqFeedback"],"classroomPairings":[["A","B"],["C","D"]],"coinWeights":[0.2,0.5,0.8],"subjectId":"A2ELXYKRPPGRPB","assignmentId":"3ATTHHXXWBAUIC425HIV4ACHK36IX1","hitId":"363A7XIFV48LMLIF2CKYA8VQSVQAVR","url":"https://gershmanlab.com/experiments/alicia/teaching/experiment/?hitId=363A7XIFV48LMLIF2CKYA8VQSVQAVR&workerId=A2ELXYKRPPGRPB&assignmentId=3ATTHHXXWBAUIC425HIV4ACHK36IX1&a=XHTA9&tp_a=XHTA9&b=3ATTHHXXWBAUIC425HIV4ACHK36IX1&tp_b=3ATTHHXXWBAUIC425HIV4ACHK36IX1&c=365799&tp_c=365799","firstResponseHeads":15,"firstResponseTails":15,"secondResponseHeads":15,"secondResponseTails":15,"totalHeads":30,"totalTails":30,"studentIndex":7,"studentTrueHypers":{"a":8,"b":2},"studentGuess":0.5428571428571428,"delta":0.042857142857142816,"bonus":0,"bonusSoFar":1.22,"totalExamples":60},{"rt":7111,"response":{"heads":"10","tails":"0"},"type":"response","condition":"nonSeqPartial","trueTheta":0.8,"classrooms":["A","B"],"studentTrueClassroom":"A","exampleSet":"first","trial_type":"survey-html-form","trial_index":68,"time_elapsed":431828,"internal_node_id":"0.0-67.0-0.0","params":{"nStudents":24,"maxFlips":30,"completionMinutes":45,"basePay":8,"maxBonus":9,"perTrialBonus":0.5,"perTrialBonusThreshold":0.05,"exampleCost":0.01},"classroomParams":{"A":{"a":1,"b":4},"B":{"a":4,"b":1},"C":{"a":2,"b":8},"D":{"a":8,"b":2}},"conditions":["nonSeqFull","nonSeqPartial","seqNoFeedback","seqFeedback"],"classroomPairings":[["A","B"],["C","D"]],"coinWeights":[0.2,0.5,0.8],"subjectId":"A2ELXYKRPPGRPB","assignmentId":"3ATTHHXXWBAUIC425HIV4ACHK36IX1","hitId":"363A7XIFV48LMLIF2CKYA8VQSVQAVR","url":"https://gershmanlab.com/experiments/alicia/teaching/experiment/?hitId=363A7XIFV48LMLIF2CKYA8VQSVQAVR&workerId=A2ELXYKRPPGRPB&assignmentId=3ATTHHXXWBAUIC425HIV4ACHK36IX1&a=XHTA9&tp_a=XHTA9&b=3ATTHHXXWBAUIC425HIV4ACHK36IX1&tp_b=3ATTHHXXWBAUIC425HIV4ACHK36IX1&c=365799&tp_c=365799","heads":10,"tails":0,"studentIndex":8,"studentTrueHypers":{"a":1,"b":4},"studentGuess":0.7333333333333333,"delta":0.06666666666666676,"totalExamples":10,"bonus":0,"bonusSoFar":1.22},{"rt":11717,"response":{"heads":"0","tails":"12"},"type":"response","condition":"nonSeqPartial","trueTheta":0.2,"classrooms":["A","B"],"studentTrueClassroom":"A","exampleSet":"first","trial_type":"survey-html-form","trial_index":74,"time_elapsed":455784,"internal_node_id":"0.0-73.0-0.0","params":{"nStudents":24,"maxFlips":30,"completionMinutes":45,"basePay":8,"maxBonus":9,"perTrialBonus":0.5,"perTrialBonusThreshold":0.05,"exampleCost":0.01},"classroomParams":{"A":{"a":1,"b":4},"B":{"a":4,"b":1},"C":{"a":2,"b":8},"D":{"a":8,"b":2}},"conditions":["nonSeqFull","nonSeqPartial","seqNoFeedback","seqFeedback"],"classroomPairings":[["A","B"],["C","D"]],"coinWeights":[0.2,0.5,0.8],"subjectId":"A2ELXYKRPPGRPB","assignmentId":"3ATTHHXXWBAUIC425HIV4ACHK36IX1","hitId":"363A7XIFV48LMLIF2CKYA8VQSVQAVR","url":"https://gershmanlab.com/experiments/alicia/teaching/experiment/?hitId=363A7XIFV48LMLIF2CKYA8VQSVQAVR&workerId=A2ELXYKRPPGRPB&assignmentId=3ATTHHXXWBAUIC425HIV4ACHK36IX1&a=XHTA9&tp_a=XHTA9&b=3ATTHHXXWBAUIC425HIV4ACHK36IX1&tp_b=3ATTHHXXWBAUIC425HIV4ACHK36IX1&c=365799&tp_c=365799","heads":0,"tails":12,"studentIndex":9,"studentTrueHypers":{"a":1,"b":4},"studentGuess":0.058823529411764705,"delta":0.1411764705882353,"totalExamples":12,"bonus":0,"bonusSoFar":1.22},{"rt":10769,"response":{"heads":"2","tails":"15"},"type":"response","condition":"seqFeedback","trueTheta":0.2,"classrooms":["A","B"],"studentTrueClassroom":"A","exampleSet":"first","trial_type":"survey-html-form","trial_index":80,"time_elapsed":485125,"internal_node_id":"0.0-79.0-0.0","params":{"nStudents":24,"maxFlips":30,"completionMinutes":45,"basePay":8,"maxBonus":9,"perTrialBonus":0.5,"perTrialBonusThreshold":0.05,"exampleCost":0.01},"classroomParams":{"A":{"a":1,"b":4},"B":{"a":4,"b":1},"C":{"a":2,"b":8},"D":{"a":8,"b":2}},"conditions":["nonSeqFull","nonSeqPartial","seqNoFeedback","seqFeedback"],"classroomPairings":[["A","B"],["C","D"]],"coinWeights":[0.2,0.5,0.8],"subjectId":"A2ELXYKRPPGRPB","assignmentId":"3ATTHHXXWBAUIC425HIV4ACHK36IX1","hitId":"363A7XIFV48LMLIF2CKYA8VQSVQAVR","url":"https://gershmanlab.com/experiments/alicia/teaching/experiment/?hitId=363A7XIFV48LMLIF2CKYA8VQSVQAVR&workerId=A2ELXYKRPPGRPB&assignmentId=3ATTHHXXWBAUIC425HIV4ACHK36IX1&a=XHTA9&tp_a=XHTA9&b=3ATTHHXXWBAUIC425HIV4ACHK36IX1&tp_b=3ATTHHXXWBAUIC425HIV4ACHK36IX1&c=365799&tp_c=365799","heads":2,"tails":15,"studentIndex":10,"studentTrueHypers":{"a":1,"b":4},"studentGuess":0.13636363636363635,"delta":0.06363636363636366,"totalExamples":17,"bonusSoFar":1.22},{"rt":8662,"response":{"heads":"3","tails":"15"},"type":"response","condition":"seqFeedback","trueTheta":0.2,"classrooms":["A","B"],"studentTrueClassroom":"A","exampleSet":"second","trial_type":"survey-html-form","trial_index":84,"time_elapsed":506256,"internal_node_id":"0.0-83.0-0.0","params":{"nStudents":24,"maxFlips":30,"completionMinutes":45,"basePay":8,"maxBonus":9,"perTrialBonus":0.5,"perTrialBonusThreshold":0.05,"exampleCost":0.01},"classroomParams":{"A":{"a":1,"b":4},"B":{"a":4,"b":1},"C":{"a":2,"b":8},"D":{"a":8,"b":2}},"conditions":["nonSeqFull","nonSeqPartial","seqNoFeedback","seqFeedback"],"classroomPairings":[["A","B"],["C","D"]],"coinWeights":[0.2,0.5,0.8],"subjectId":"A2ELXYKRPPGRPB","assignmentId":"3ATTHHXXWBAUIC425HIV4ACHK36IX1","hitId":"363A7XIFV48LMLIF2CKYA8VQSVQAVR","url":"https://gershmanlab.com/experiments/alicia/teaching/experiment/?hitId=363A7XIFV48LMLIF2CKYA8VQSVQAVR&workerId=A2ELXYKRPPGRPB&assignmentId=3ATTHHXXWBAUIC425HIV4ACHK36IX1&a=XHTA9&tp_a=XHTA9&b=3ATTHHXXWBAUIC425HIV4ACHK36IX1&tp_b=3ATTHHXXWBAUIC425HIV4ACHK36IX1&c=365799&tp_c=365799","firstResponseHeads":2,"firstResponseTails":15,"secondResponseHeads":3,"secondResponseTails":15,"totalHeads":5,"totalTails":30,"studentIndex":10,"studentTrueHypers":{"a":1,"b":4},"studentGuess":0.15,"delta":0.05000000000000002,"bonus":0,"bonusSoFar":1.22,"totalExamples":35},{"rt":10111,"response":{"heads":"15","tails":"15"},"type":"response","condition":"nonSeqFull","trueTheta":0.5,"classrooms":["C","D"],"studentTrueClassroom":"D","exampleSet":"first","trial_type":"survey-html-form","trial_index":90,"time_elapsed":534079,"internal_node_id":"0.0-89.0-0.0","params":{"nStudents":24,"maxFlips":30,"completionMinutes":45,"basePay":8,"maxBonus":9,"perTrialBonus":0.5,"perTrialBonusThreshold":0.05,"exampleCost":0.01},"classroomParams":{"A":{"a":1,"b":4},"B":{"a":4,"b":1},"C":{"a":2,"b":8},"D":{"a":8,"b":2}},"conditions":["nonSeqFull","nonSeqPartial","seqNoFeedback","seqFeedback"],"classroomPairings":[["A","B"],["C","D"]],"coinWeights":[0.2,0.5,0.8],"subjectId":"A2ELXYKRPPGRPB","assignmentId":"3ATTHHXXWBAUIC425HIV4ACHK36IX1","hitId":"363A7XIFV48LMLIF2CKYA8VQSVQAVR","url":"https://gershmanlab.com/experiments/alicia/teaching/experiment/?hitId=363A7XIFV48LMLIF2CKYA8VQSVQAVR&workerId=A2ELXYKRPPGRPB&assignmentId=3ATTHHXXWBAUIC425HIV4ACHK36IX1&a=XHTA9&tp_a=XHTA9&b=3ATTHHXXWBAUIC425HIV4ACHK36IX1&tp_b=3ATTHHXXWBAUIC425HIV4ACHK36IX1&c=365799&tp_c=365799","heads":15,"tails":15,"studentIndex":11,"studentTrueHypers":{"a":8,"b":2},"studentGuess":0.575,"delta":0.07499999999999996,"totalExamples":30,"bonus":0,"bonusSoFar":1.22},{"rt":13247,"response":{"heads":"15","tails":"15"},"type":"response","condition":"nonSeqPartial","trueTheta":0.5,"classrooms":["A","B"],"studentTrueClassroom":"A","exampleSet":"first","trial_type":"survey-html-form","trial_index":96,"time_elapsed":562161,"internal_node_id":"0.0-95.0-0.0","params":{"nStudents":24,"maxFlips":30,"completionMinutes":45,"basePay":8,"maxBonus":9,"perTrialBonus":0.5,"perTrialBonusThreshold":0.05,"exampleCost":0.01},"classroomParams":{"A":{"a":1,"b":4},"B":{"a":4,"b":1},"C":{"a":2,"b":8},"D":{"a":8,"b":2}},"conditions":["nonSeqFull","nonSeqPartial","seqNoFeedback","seqFeedback"],"classroomPairings":[["A","B"],["C","D"]],"coinWeights":[0.2,0.5,0.8],"subjectId":"A2ELXYKRPPGRPB","assignmentId":"3ATTHHXXWBAUIC425HIV4ACHK36IX1","hitId":"363A7XIFV48LMLIF2CKYA8VQSVQAVR","url":"https://gershmanlab.com/experiments/alicia/teaching/experiment/?hitId=363A7XIFV48LMLIF2CKYA8VQSVQAVR&workerId=A2ELXYKRPPGRPB&assignmentId=3ATTHHXXWBAUIC425HIV4ACHK36IX1&a=XHTA9&tp_a=XHTA9&b=3ATTHHXXWBAUIC425HIV4ACHK36IX1&tp_b=3ATTHHXXWBAUIC425HIV4ACHK36IX1&c=365799&tp_c=365799","heads":15,"tails":15,"studentIndex":12,"studentTrueHypers":{"a":1,"b":4},"studentGuess":0.45714285714285713,"delta":0.04285714285714287,"totalExamples":30,"bonus":0.2,"bonusSoFar":1.42},{"rt":10846,"response":{"heads":"2","tails":"15"},"type":"response","condition":"seqFeedback","trueTheta":0.2,"classrooms":["C","D"],"studentTrueClassroom":"C","exampleSet":"first","trial_type":"survey-html-form","trial_index":102,"time_elapsed":589377,"internal_node_id":"0.0-101.0-0.0","params":{"nStudents":24,"maxFlips":30,"completionMinutes":45,"basePay":8,"maxBonus":9,"perTrialBonus":0.5,"perTrialBonusThreshold":0.05,"exampleCost":0.01},"classroomParams":{"A":{"a":1,"b":4},"B":{"a":4,"b":1},"C":{"a":2,"b":8},"D":{"a":8,"b":2}},"conditions":["nonSeqFull","nonSeqPartial","seqNoFeedback","seqFeedback"],"classroomPairings":[["A","B"],["C","D"]],"coinWeights":[0.2,0.5,0.8],"subjectId":"A2ELXYKRPPGRPB","assignmentId":"3ATTHHXXWBAUIC425HIV4ACHK36IX1","hitId":"363A7XIFV48LMLIF2CKYA8VQSVQAVR","url":"https://gershmanlab.com/experiments/alicia/teaching/experiment/?hitId=363A7XIFV48LMLIF2CKYA8VQSVQAVR&workerId=A2ELXYKRPPGRPB&assignmentId=3ATTHHXXWBAUIC425HIV4ACHK36IX1&a=XHTA9&tp_a=XHTA9&b=3ATTHHXXWBAUIC425HIV4ACHK36IX1&tp_b=3ATTHHXXWBAUIC425HIV4ACHK36IX1&c=365799&tp_c=365799","heads":2,"tails":15,"studentIndex":13,"studentTrueHypers":{"a":2,"b":8},"studentGuess":0.14814814814814814,"delta":0.05185185185185187,"totalExamples":17,"bonusSoFar":1.42},{"rt":8451,"response":{"heads":"4","tails":"15"},"type":"response","condition":"seqFeedback","trueTheta":0.2,"classrooms":["C","D"],"studentTrueClassroom":"C","exampleSet":"second","trial_type":"survey-html-form","trial_index":106,"time_elapsed":610969,"internal_node_id":"0.0-105.0-0.0","params":{"nStudents":24,"maxFlips":30,"completionMinutes":45,"basePay":8,"maxBonus":9,"perTrialBonus":0.5,"perTrialBonusThreshold":0.05,"exampleCost":0.01},"classroomParams":{"A":{"a":1,"b":4},"B":{"a":4,"b":1},"C":{"a":2,"b":8},"D":{"a":8,"b":2}},"conditions":["nonSeqFull","nonSeqPartial","seqNoFeedback","seqFeedback"],"classroomPairings":[["A","B"],["C","D"]],"coinWeights":[0.2,0.5,0.8],"subjectId":"A2ELXYKRPPGRPB","assignmentId":"3ATTHHXXWBAUIC425HIV4ACHK36IX1","hitId":"363A7XIFV48LMLIF2CKYA8VQSVQAVR","url":"https://gershmanlab.com/experiments/alicia/teaching/experiment/?hitId=363A7XIFV48LMLIF2CKYA8VQSVQAVR&workerId=A2ELXYKRPPGRPB&assignmentId=3ATTHHXXWBAUIC425HIV4ACHK36IX1&a=XHTA9&tp_a=XHTA9&b=3ATTHHXXWBAUIC425HIV4ACHK36IX1&tp_b=3ATTHHXXWBAUIC425HIV4ACHK36IX1&c=365799&tp_c=365799","firstResponseHeads":2,"firstResponseTails":15,"secondResponseHeads":4,"secondResponseTails":15,"totalHeads":6,"totalTails":30,"studentIndex":13,"studentTrueHypers":{"a":2,"b":8},"studentGuess":0.17391304347826086,"delta":0.026086956521739146,"bonus":0.14,"bonusSoFar":1.56,"totalExamples":36},{"rt":6650,"response":{"heads":"15","tails":"4"},"type":"response","condition":"seqFeedback","trueTheta":0.8,"classrooms":["A","B"],"studentTrueClassroom":"B","exampleSet":"first","trial_type":"survey-html-form","trial_index":112,"time_elapsed":632197,"internal_node_id":"0.0-111.0-0.0","params":{"nStudents":24,"maxFlips":30,"completionMinutes":45,"basePay":8,"maxBonus":9,"perTrialBonus":0.5,"perTrialBonusThreshold":0.05,"exampleCost":0.01},"classroomParams":{"A":{"a":1,"b":4},"B":{"a":4,"b":1},"C":{"a":2,"b":8},"D":{"a":8,"b":2}},"conditions":["nonSeqFull","nonSeqPartial","seqNoFeedback","seqFeedback"],"classroomPairings":[["A","B"],["C","D"]],"coinWeights":[0.2,0.5,0.8],"subjectId":"A2ELXYKRPPGRPB","assignmentId":"3ATTHHXXWBAUIC425HIV4ACHK36IX1","hitId":"363A7XIFV48LMLIF2CKYA8VQSVQAVR","url":"https://gershmanlab.com/experiments/alicia/teaching/experiment/?hitId=363A7XIFV48LMLIF2CKYA8VQSVQAVR&workerId=A2ELXYKRPPGRPB&assignmentId=3ATTHHXXWBAUIC425HIV4ACHK36IX1&a=XHTA9&tp_a=XHTA9&b=3ATTHHXXWBAUIC425HIV4ACHK36IX1&tp_b=3ATTHHXXWBAUIC425HIV4ACHK36IX1&c=365799&tp_c=365799","heads":15,"tails":4,"studentIndex":14,"studentTrueHypers":{"a":4,"b":1},"studentGuess":0.7916666666666666,"delta":0.008333333333333415,"totalExamples":19,"bonusSoFar":1.56},{"rt":9396,"response":{"heads":"15","tails":"3"},"type":"response","condition":"seqFeedback","trueTheta":0.8,"classrooms":["A","B"],"studentTrueClassroom":"B","exampleSet":"second","trial_type":"survey-html-form","trial_index":116,"time_elapsed":651807,"internal_node_id":"0.0-115.0-0.0","params":{"nStudents":24,"maxFlips":30,"completionMinutes":45,"basePay":8,"maxBonus":9,"perTrialBonus":0.5,"perTrialBonusThreshold":0.05,"exampleCost":0.01},"classroomParams":{"A":{"a":1,"b":4},"B":{"a":4,"b":1},"C":{"a":2,"b":8},"D":{"a":8,"b":2}},"conditions":["nonSeqFull","nonSeqPartial","seqNoFeedback","seqFeedback"],"classroomPairings":[["A","B"],["C","D"]],"coinWeights":[0.2,0.5,0.8],"subjectId":"A2ELXYKRPPGRPB","assignmentId":"3ATTHHXXWBAUIC425HIV4ACHK36IX1","hitId":"363A7XIFV48LMLIF2CKYA8VQSVQAVR","url":"https://gershmanlab.com/experiments/alicia/teaching/experiment/?hitId=363A7XIFV48LMLIF2CKYA8VQSVQAVR&workerId=A2ELXYKRPPGRPB&assignmentId=3ATTHHXXWBAUIC425HIV4ACHK36IX1&a=XHTA9&tp_a=XHTA9&b=3ATTHHXXWBAUIC425HIV4ACHK36IX1&tp_b=3ATTHHXXWBAUIC425HIV4ACHK36IX1&c=365799&tp_c=365799","firstResponseHeads":15,"firstResponseTails":4,"secondResponseHeads":15,"secondResponseTails":3,"totalHeads":30,"totalTails":7,"studentIndex":14,"studentTrueHypers":{"a":4,"b":1},"studentGuess":0.8095238095238095,"delta":0.00952380952380949,"bonus":0.13,"bonusSoFar":1.69,"totalExamples":37},{"rt":11430,"response":{"heads":"15","tails":"3"},"type":"response","condition":"nonSeqPartial","trueTheta":0.8,"classrooms":["C","D"],"studentTrueClassroom":"D","exampleSet":"first","trial_type":"survey-html-form","trial_index":122,"time_elapsed":678966,"internal_node_id":"0.0-121.0-0.0","params":{"nStudents":24,"maxFlips":30,"completionMinutes":45,"basePay":8,"maxBonus":9,"perTrialBonus":0.5,"perTrialBonusThreshold":0.05,"exampleCost":0.01},"classroomParams":{"A":{"a":1,"b":4},"B":{"a":4,"b":1},"C":{"a":2,"b":8},"D":{"a":8,"b":2}},"conditions":["nonSeqFull","nonSeqPartial","seqNoFeedback","seqFeedback"],"classroomPairings":[["A","B"],["C","D"]],"coinWeights":[0.2,0.5,0.8],"subjectId":"A2ELXYKRPPGRPB","assignmentId":"3ATTHHXXWBAUIC425HIV4ACHK36IX1","hitId":"363A7XIFV48LMLIF2CKYA8VQSVQAVR","url":"https://gershmanlab.com/experiments/alicia/teaching/experiment/?hitId=363A7XIFV48LMLIF2CKYA8VQSVQAVR&workerId=A2ELXYKRPPGRPB&assignmentId=3ATTHHXXWBAUIC425HIV4ACHK36IX1&a=XHTA9&tp_a=XHTA9&b=3ATTHHXXWBAUIC425HIV4ACHK36IX1&tp_b=3ATTHHXXWBAUIC425HIV4ACHK36IX1&c=365799&tp_c=365799","heads":15,"tails":3,"studentIndex":15,"studentTrueHypers":{"a":8,"b":2},"studentGuess":0.8214285714285714,"delta":0.021428571428571352,"totalExamples":18,"bonus":0.32,"bonusSoFar":2.01},{"rt":8186,"response":{"heads":"15","tails":"3"},"type":"response","condition":"seqNoFeedback","trueTheta":0.8,"classrooms":["C","D"],"studentTrueClassroom":"D","exampleSet":"first","trial_type":"survey-html-form","trial_index":128,"time_elapsed":703788,"internal_node_id":"0.0-127.0-0.0","params":{"nStudents":24,"maxFlips":30,"completionMinutes":45,"basePay":8,"maxBonus":9,"perTrialBonus":0.5,"perTrialBonusThreshold":0.05,"exampleCost":0.01},"classroomParams":{"A":{"a":1,"b":4},"B":{"a":4,"b":1},"C":{"a":2,"b":8},"D":{"a":8,"b":2}},"conditions":["nonSeqFull","nonSeqPartial","seqNoFeedback","seqFeedback"],"classroomPairings":[["A","B"],["C","D"]],"coinWeights":[0.2,0.5,0.8],"subjectId":"A2ELXYKRPPGRPB","assignmentId":"3ATTHHXXWBAUIC425HIV4ACHK36IX1","hitId":"363A7XIFV48LMLIF2CKYA8VQSVQAVR","url":"https://gershmanlab.com/experiments/alicia/teaching/experiment/?hitId=363A7XIFV48LMLIF2CKYA8VQSVQAVR&workerId=A2ELXYKRPPGRPB&assignmentId=3ATTHHXXWBAUIC425HIV4ACHK36IX1&a=XHTA9&tp_a=XHTA9&b=3ATTHHXXWBAUIC425HIV4ACHK36IX1&tp_b=3ATTHHXXWBAUIC425HIV4ACHK36IX1&c=365799&tp_c=365799","heads":15,"tails":3,"studentIndex":16,"studentTrueHypers":{"a":8,"b":2},"studentGuess":0.8214285714285714,"delta":0.021428571428571352,"totalExamples":18,"bonusSoFar":2.01},{"rt":9383,"response":{"heads":"15","tails":"3"},"type":"response","condition":"seqNoFeedback","trueTheta":0.8,"classrooms":["C","D"],"studentTrueClassroom":"D","exampleSet":"second","trial_type":"survey-html-form","trial_index":131,"time_elapsed":720694,"internal_node_id":"0.0-130.0-0.0","params":{"nStudents":24,"maxFlips":30,"completionMinutes":45,"basePay":8,"maxBonus":9,"perTrialBonus":0.5,"perTrialBonusThreshold":0.05,"exampleCost":0.01},"classroomParams":{"A":{"a":1,"b":4},"B":{"a":4,"b":1},"C":{"a":2,"b":8},"D":{"a":8,"b":2}},"conditions":["nonSeqFull","nonSeqPartial","seqNoFeedback","seqFeedback"],"classroomPairings":[["A","B"],["C","D"]],"coinWeights":[0.2,0.5,0.8],"subjectId":"A2ELXYKRPPGRPB","assignmentId":"3ATTHHXXWBAUIC425HIV4ACHK36IX1","hitId":"363A7XIFV48LMLIF2CKYA8VQSVQAVR","url":"https://gershmanlab.com/experiments/alicia/teaching/experiment/?hitId=363A7XIFV48LMLIF2CKYA8VQSVQAVR&workerId=A2ELXYKRPPGRPB&assignmentId=3ATTHHXXWBAUIC425HIV4ACHK36IX1&a=XHTA9&tp_a=XHTA9&b=3ATTHHXXWBAUIC425HIV4ACHK36IX1&tp_b=3ATTHHXXWBAUIC425HIV4ACHK36IX1&c=365799&tp_c=365799","firstResponseHeads":15,"firstResponseTails":3,"secondResponseHeads":15,"secondResponseTails":3,"totalHeads":30,"totalTails":6,"studentIndex":16,"studentTrueHypers":{"a":8,"b":2},"studentGuess":0.8260869565217391,"delta":0.02608695652173909,"bonus":0.14,"bonusSoFar":2.15,"totalExamples":36},{"rt":10630,"response":{"heads":"10","tails":"2"},"type":"response","condition":"nonSeqFull","trueTheta":0.8,"classrooms":["C","D"],"studentTrueClassroom":"D","exampleSet":"first","trial_type":"survey-html-form","trial_index":137,"time_elapsed":745034,"internal_node_id":"0.0-136.0-0.0","params":{"nStudents":24,"maxFlips":30,"completionMinutes":45,"basePay":8,"maxBonus":9,"perTrialBonus":0.5,"perTrialBonusThreshold":0.05,"exampleCost":0.01},"classroomParams":{"A":{"a":1,"b":4},"B":{"a":4,"b":1},"C":{"a":2,"b":8},"D":{"a":8,"b":2}},"conditions":["nonSeqFull","nonSeqPartial","seqNoFeedback","seqFeedback"],"classroomPairings":[["A","B"],["C","D"]],"coinWeights":[0.2,0.5,0.8],"subjectId":"A2ELXYKRPPGRPB","assignmentId":"3ATTHHXXWBAUIC425HIV4ACHK36IX1","hitId":"363A7XIFV48LMLIF2CKYA8VQSVQAVR","url":"https://gershmanlab.com/experiments/alicia/teaching/experiment/?hitId=363A7XIFV48LMLIF2CKYA8VQSVQAVR&workerId=A2ELXYKRPPGRPB&assignmentId=3ATTHHXXWBAUIC425HIV4ACHK36IX1&a=XHTA9&tp_a=XHTA9&b=3ATTHHXXWBAUIC425HIV4ACHK36IX1&tp_b=3ATTHHXXWBAUIC425HIV4ACHK36IX1&c=365799&tp_c=365799","heads":10,"tails":2,"studentIndex":17,"studentTrueHypers":{"a":8,"b":2},"studentGuess":0.8181818181818182,"delta":0.018181818181818188,"totalExamples":12,"bonus":0.38,"bonusSoFar":2.53},{"rt":8002,"response":{"heads":"3","tails":"15"},"type":"response","condition":"nonSeqFull","trueTheta":0.2,"classrooms":["A","B"],"studentTrueClassroom":"B","exampleSet":"first","trial_type":"survey-html-form","trial_index":143,"time_elapsed":765780,"internal_node_id":"0.0-142.0-0.0","params":{"nStudents":24,"maxFlips":30,"completionMinutes":45,"basePay":8,"maxBonus":9,"perTrialBonus":0.5,"perTrialBonusThreshold":0.05,"exampleCost":0.01},"classroomParams":{"A":{"a":1,"b":4},"B":{"a":4,"b":1},"C":{"a":2,"b":8},"D":{"a":8,"b":2}},"conditions":["nonSeqFull","nonSeqPartial","seqNoFeedback","seqFeedback"],"classroomPairings":[["A","B"],["C","D"]],"coinWeights":[0.2,0.5,0.8],"subjectId":"A2ELXYKRPPGRPB","assignmentId":"3ATTHHXXWBAUIC425HIV4ACHK36IX1","hitId":"363A7XIFV48LMLIF2CKYA8VQSVQAVR","url":"https://gershmanlab.com/experiments/alicia/teaching/experiment/?hitId=363A7XIFV48LMLIF2CKYA8VQSVQAVR&workerId=A2ELXYKRPPGRPB&assignmentId=3ATTHHXXWBAUIC425HIV4ACHK36IX1&a=XHTA9&tp_a=XHTA9&b=3ATTHHXXWBAUIC425HIV4ACHK36IX1&tp_b=3ATTHHXXWBAUIC425HIV4ACHK36IX1&c=365799&tp_c=365799","heads":3,"tails":15,"studentIndex":18,"studentTrueHypers":{"a":4,"b":1},"studentGuess":0.30434782608695654,"delta":0.10434782608695653,"totalExamples":18,"bonus":0,"bonusSoFar":2.53},{"rt":6811,"response":{"heads":"15","tails":"15"},"type":"response","condition":"nonSeqPartial","trueTheta":0.5,"classrooms":["C","D"],"studentTrueClassroom":"C","exampleSet":"first","trial_type":"survey-html-form","trial_index":149,"time_elapsed":785321,"internal_node_id":"0.0-148.0-0.0","params":{"nStudents":24,"maxFlips":30,"completionMinutes":45,"basePay":8,"maxBonus":9,"perTrialBonus":0.5,"perTrialBonusThreshold":0.05,"exampleCost":0.01},"classroomParams":{"A":{"a":1,"b":4},"B":{"a":4,"b":1},"C":{"a":2,"b":8},"D":{"a":8,"b":2}},"conditions":["nonSeqFull","nonSeqPartial","seqNoFeedback","seqFeedback"],"classroomPairings":[["A","B"],["C","D"]],"coinWeights":[0.2,0.5,0.8],"subjectId":"A2ELXYKRPPGRPB","assignmentId":"3ATTHHXXWBAUIC425HIV4ACHK36IX1","hitId":"363A7XIFV48LMLIF2CKYA8VQSVQAVR","url":"https://gershmanlab.com/experiments/alicia/teaching/experiment/?hitId=363A7XIFV48LMLIF2CKYA8VQSVQAVR&workerId=A2ELXYKRPPGRPB&assignmentId=3ATTHHXXWBAUIC425HIV4ACHK36IX1&a=XHTA9&tp_a=XHTA9&b=3ATTHHXXWBAUIC425HIV4ACHK36IX1&tp_b=3ATTHHXXWBAUIC425HIV4ACHK36IX1&c=365799&tp_c=365799","heads":15,"tails":15,"studentIndex":19,"studentTrueHypers":{"a":2,"b":8},"studentGuess":0.425,"delta":0.07500000000000001,"totalExamples":30,"bonus":0,"bonusSoFar":2.53},{"rt":5340,"response":{"heads":"15","tails":"15"},"type":"response","condition":"seqFeedback","trueTheta":0.5,"classrooms":["A","B"],"studentTrueClassroom":"A","exampleSet":"first","trial_type":"survey-html-form","trial_index":155,"time_elapsed":803118,"internal_node_id":"0.0-154.0-0.0","params":{"nStudents":24,"maxFlips":30,"completionMinutes":45,"basePay":8,"maxBonus":9,"perTrialBonus":0.5,"perTrialBonusThreshold":0.05,"exampleCost":0.01},"classroomParams":{"A":{"a":1,"b":4},"B":{"a":4,"b":1},"C":{"a":2,"b":8},"D":{"a":8,"b":2}},"conditions":["nonSeqFull","nonSeqPartial","seqNoFeedback","seqFeedback"],"classroomPairings":[["A","B"],["C","D"]],"coinWeights":[0.2,0.5,0.8],"subjectId":"A2ELXYKRPPGRPB","assignmentId":"3ATTHHXXWBAUIC425HIV4ACHK36IX1","hitId":"363A7XIFV48LMLIF2CKYA8VQSVQAVR","url":"https://gershmanlab.com/experiments/alicia/teaching/experiment/?hitId=363A7XIFV48LMLIF2CKYA8VQSVQAVR&workerId=A2ELXYKRPPGRPB&assignmentId=3ATTHHXXWBAUIC425HIV4ACHK36IX1&a=XHTA9&tp_a=XHTA9&b=3ATTHHXXWBAUIC425HIV4ACHK36IX1&tp_b=3ATTHHXXWBAUIC425HIV4ACHK36IX1&c=365799&tp_c=365799","heads":15,"tails":15,"studentIndex":20,"studentTrueHypers":{"a":1,"b":4},"studentGuess":0.45714285714285713,"delta":0.04285714285714287,"totalExamples":30,"bonusSoFar":2.53},{"rt":10093,"response":{"heads":"17","tails":"13"},"type":"response","condition":"seqFeedback","trueTheta":0.5,"classrooms":["A","B"],"studentTrueClassroom":"A","exampleSet":"second","trial_type":"survey-html-form","trial_index":159,"time_elapsed":826275,"internal_node_id":"0.0-158.0-0.0","params":{"nStudents":24,"maxFlips":30,"completionMinutes":45,"basePay":8,"maxBonus":9,"perTrialBonus":0.5,"perTrialBonusThreshold":0.05,"exampleCost":0.01},"classroomParams":{"A":{"a":1,"b":4},"B":{"a":4,"b":1},"C":{"a":2,"b":8},"D":{"a":8,"b":2}},"conditions":["nonSeqFull","nonSeqPartial","seqNoFeedback","seqFeedback"],"classroomPairings":[["A","B"],["C","D"]],"coinWeights":[0.2,0.5,0.8],"subjectId":"A2ELXYKRPPGRPB","assignmentId":"3ATTHHXXWBAUIC425HIV4ACHK36IX1","hitId":"363A7XIFV48LMLIF2CKYA8VQSVQAVR","url":"https://gershmanlab.com/experiments/alicia/teaching/experiment/?hitId=363A7XIFV48LMLIF2CKYA8VQSVQAVR&workerId=A2ELXYKRPPGRPB&assignmentId=3ATTHHXXWBAUIC425HIV4ACHK36IX1&a=XHTA9&tp_a=XHTA9&b=3ATTHHXXWBAUIC425HIV4ACHK36IX1&tp_b=3ATTHHXXWBAUIC425HIV4ACHK36IX1&c=365799&tp_c=365799","firstResponseHeads":15,"firstResponseTails":15,"secondResponseHeads":17,"secondResponseTails":13,"totalHeads":32,"totalTails":28,"studentIndex":20,"studentTrueHypers":{"a":1,"b":4},"studentGuess":0.5076923076923077,"delta":0.007692307692307665,"bonus":0,"bonusSoFar":2.53,"totalExamples":60},{"rt":7143,"response":{"heads":"15","tails":"3"},"type":"response","condition":"seqFeedback","trueTheta":0.8,"classrooms":["C","D"],"studentTrueClassroom":"D","exampleSet":"first","trial_type":"survey-html-form","trial_index":165,"time_elapsed":847348,"internal_node_id":"0.0-164.0-0.0","params":{"nStudents":24,"maxFlips":30,"completionMinutes":45,"basePay":8,"maxBonus":9,"perTrialBonus":0.5,"perTrialBonusThreshold":0.05,"exampleCost":0.01},"classroomParams":{"A":{"a":1,"b":4},"B":{"a":4,"b":1},"C":{"a":2,"b":8},"D":{"a":8,"b":2}},"conditions":["nonSeqFull","nonSeqPartial","seqNoFeedback","seqFeedback"],"classroomPairings":[["A","B"],["C","D"]],"coinWeights":[0.2,0.5,0.8],"subjectId":"A2ELXYKRPPGRPB","assignmentId":"3ATTHHXXWBAUIC425HIV4ACHK36IX1","hitId":"363A7XIFV48LMLIF2CKYA8VQSVQAVR","url":"https://gershmanlab.com/experiments/alicia/teaching/experiment/?hitId=363A7XIFV48LMLIF2CKYA8VQSVQAVR&workerId=A2ELXYKRPPGRPB&assignmentId=3ATTHHXXWBAUIC425HIV4ACHK36IX1&a=XHTA9&tp_a=XHTA9&b=3ATTHHXXWBAUIC425HIV4ACHK36IX1&tp_b=3ATTHHXXWBAUIC425HIV4ACHK36IX1&c=365799&tp_c=365799","heads":15,"tails":3,"studentIndex":21,"studentTrueHypers":{"a":8,"b":2},"studentGuess":0.8214285714285714,"delta":0.021428571428571352,"totalExamples":18,"bonusSoFar":2.53},{"rt":134585,"response":{"heads":"15","tails":"3"},"type":"response","condition":"seqFeedback","trueTheta":0.8,"classrooms":["C","D"],"studentTrueClassroom":"D","exampleSet":"second","trial_type":"survey-html-form","trial_index":169,"time_elapsed":1020244,"internal_node_id":"0.0-168.0-0.0","params":{"nStudents":24,"maxFlips":30,"completionMinutes":45,"basePay":8,"maxBonus":9,"perTrialBonus":0.5,"perTrialBonusThreshold":0.05,"exampleCost":0.01},"classroomParams":{"A":{"a":1,"b":4},"B":{"a":4,"b":1},"C":{"a":2,"b":8},"D":{"a":8,"b":2}},"conditions":["nonSeqFull","nonSeqPartial","seqNoFeedback","seqFeedback"],"classroomPairings":[["A","B"],["C","D"]],"coinWeights":[0.2,0.5,0.8],"subjectId":"A2ELXYKRPPGRPB","assignmentId":"3ATTHHXXWBAUIC425HIV4ACHK36IX1","hitId":"363A7XIFV48LMLIF2CKYA8VQSVQAVR","url":"https://gershmanlab.com/experiments/alicia/teaching/experiment/?hitId=363A7XIFV48LMLIF2CKYA8VQSVQAVR&workerId=A2ELXYKRPPGRPB&assignmentId=3ATTHHXXWBAUIC425HIV4ACHK36IX1&a=XHTA9&tp_a=XHTA9&b=3ATTHHXXWBAUIC425HIV4ACHK36IX1&tp_b=3ATTHHXXWBAUIC425HIV4ACHK36IX1&c=365799&tp_c=365799","firstResponseHeads":15,"firstResponseTails":3,"secondResponseHeads":15,"secondResponseTails":3,"totalHeads":30,"totalTails":6,"studentIndex":21,"studentTrueHypers":{"a":8,"b":2},"studentGuess":0.8260869565217391,"delta":0.02608695652173909,"bonus":0.14,"bonusSoFar":2.67,"totalExamples":36},{"rt":6822,"response":{"heads":"3","tails":"15"},"type":"response","condition":"seqNoFeedback","trueTheta":0.2,"classrooms":["A","B"],"studentTrueClassroom":"A","exampleSet":"first","trial_type":"survey-html-form","trial_index":175,"time_elapsed":1040104,"internal_node_id":"0.0-174.0-0.0","params":{"nStudents":24,"maxFlips":30,"completionMinutes":45,"basePay":8,"maxBonus":9,"perTrialBonus":0.5,"perTrialBonusThreshold":0.05,"exampleCost":0.01},"classroomParams":{"A":{"a":1,"b":4},"B":{"a":4,"b":1},"C":{"a":2,"b":8},"D":{"a":8,"b":2}},"conditions":["nonSeqFull","nonSeqPartial","seqNoFeedback","seqFeedback"],"classroomPairings":[["A","B"],["C","D"]],"coinWeights":[0.2,0.5,0.8],"subjectId":"A2ELXYKRPPGRPB","assignmentId":"3ATTHHXXWBAUIC425HIV4ACHK36IX1","hitId":"363A7XIFV48LMLIF2CKYA8VQSVQAVR","url":"https://gershmanlab.com/experiments/alicia/teaching/experiment/?hitId=363A7XIFV48LMLIF2CKYA8VQSVQAVR&workerId=A2ELXYKRPPGRPB&assignmentId=3ATTHHXXWBAUIC425HIV4ACHK36IX1&a=XHTA9&tp_a=XHTA9&b=3ATTHHXXWBAUIC425HIV4ACHK36IX1&tp_b=3ATTHHXXWBAUIC425HIV4ACHK36IX1&c=365799&tp_c=365799","heads":3,"tails":15,"studentIndex":22,"studentTrueHypers":{"a":1,"b":4},"studentGuess":0.17391304347826086,"delta":0.026086956521739146,"totalExamples":18,"bonusSoFar":2.67},{"rt":7046,"response":{"heads":"3","tails":"15"},"type":"response","condition":"seqNoFeedback","trueTheta":0.2,"classrooms":["A","B"],"studentTrueClassroom":"A","exampleSet":"second","trial_type":"survey-html-form","trial_index":178,"time_elapsed":1053919,"internal_node_id":"0.0-177.0-0.0","params":{"nStudents":24,"maxFlips":30,"completionMinutes":45,"basePay":8,"maxBonus":9,"perTrialBonus":0.5,"perTrialBonusThreshold":0.05,"exampleCost":0.01},"classroomParams":{"A":{"a":1,"b":4},"B":{"a":4,"b":1},"C":{"a":2,"b":8},"D":{"a":8,"b":2}},"conditions":["nonSeqFull","nonSeqPartial","seqNoFeedback","seqFeedback"],"classroomPairings":[["A","B"],["C","D"]],"coinWeights":[0.2,0.5,0.8],"subjectId":"A2ELXYKRPPGRPB","assignmentId":"3ATTHHXXWBAUIC425HIV4ACHK36IX1","hitId":"363A7XIFV48LMLIF2CKYA8VQSVQAVR","url":"https://gershmanlab.com/experiments/alicia/teaching/experiment/?hitId=363A7XIFV48LMLIF2CKYA8VQSVQAVR&workerId=A2ELXYKRPPGRPB&assignmentId=3ATTHHXXWBAUIC425HIV4ACHK36IX1&a=XHTA9&tp_a=XHTA9&b=3ATTHHXXWBAUIC425HIV4ACHK36IX1&tp_b=3ATTHHXXWBAUIC425HIV4ACHK36IX1&c=365799&tp_c=365799","firstResponseHeads":3,"firstResponseTails":15,"secondResponseHeads":3,"secondResponseTails":15,"totalHeads":6,"totalTails":30,"studentIndex":22,"studentTrueHypers":{"a":1,"b":4},"studentGuess":0.17073170731707318,"delta":0.029268292682926828,"bonus":0.14,"bonusSoFar":2.81,"totalExamples":36},{"rt":5321,"response":{"heads":"3","tails":"15"},"type":"response","condition":"seqNoFeedback","trueTheta":0.2,"classrooms":["C","D"],"studentTrueClassroom":"D","exampleSet":"first","trial_type":"survey-html-form","trial_index":184,"time_elapsed":1072251,"internal_node_id":"0.0-183.0-0.0","params":{"nStudents":24,"maxFlips":30,"completionMinutes":45,"basePay":8,"maxBonus":9,"perTrialBonus":0.5,"perTrialBonusThreshold":0.05,"exampleCost":0.01},"classroomParams":{"A":{"a":1,"b":4},"B":{"a":4,"b":1},"C":{"a":2,"b":8},"D":{"a":8,"b":2}},"conditions":["nonSeqFull","nonSeqPartial","seqNoFeedback","seqFeedback"],"classroomPairings":[["A","B"],["C","D"]],"coinWeights":[0.2,0.5,0.8],"subjectId":"A2ELXYKRPPGRPB","assignmentId":"3ATTHHXXWBAUIC425HIV4ACHK36IX1","hitId":"363A7XIFV48LMLIF2CKYA8VQSVQAVR","url":"https://gershmanlab.com/experiments/alicia/teaching/experiment/?hitId=363A7XIFV48LMLIF2CKYA8VQSVQAVR&workerId=A2ELXYKRPPGRPB&assignmentId=3ATTHHXXWBAUIC425HIV4ACHK36IX1&a=XHTA9&tp_a=XHTA9&b=3ATTHHXXWBAUIC425HIV4ACHK36IX1&tp_b=3ATTHHXXWBAUIC425HIV4ACHK36IX1&c=365799&tp_c=365799","heads":3,"tails":15,"studentIndex":23,"studentTrueHypers":{"a":8,"b":2},"studentGuess":0.39285714285714285,"delta":0.19285714285714284,"totalExamples":18,"bonusSoFar":2.81},{"rt":93814,"response":{"heads":"3","tails":"15"},"type":"response","condition":"seqNoFeedback","trueTheta":0.2,"classrooms":["C","D"],"studentTrueClassroom":"D","exampleSet":"second","trial_type":"survey-html-form","trial_index":187,"time_elapsed":1173484,"internal_node_id":"0.0-186.0-0.0","params":{"nStudents":24,"maxFlips":30,"completionMinutes":45,"basePay":8,"maxBonus":9,"perTrialBonus":0.5,"perTrialBonusThreshold":0.05,"exampleCost":0.01},"classroomParams":{"A":{"a":1,"b":4},"B":{"a":4,"b":1},"C":{"a":2,"b":8},"D":{"a":8,"b":2}},"conditions":["nonSeqFull","nonSeqPartial","seqNoFeedback","seqFeedback"],"classroomPairings":[["A","B"],["C","D"]],"coinWeights":[0.2,0.5,0.8],"subjectId":"A2ELXYKRPPGRPB","assignmentId":"3ATTHHXXWBAUIC425HIV4ACHK36IX1","hitId":"363A7XIFV48LMLIF2CKYA8VQSVQAVR","url":"https://gershmanlab.com/experiments/alicia/teaching/experiment/?hitId=363A7XIFV48LMLIF2CKYA8VQSVQAVR&workerId=A2ELXYKRPPGRPB&assignmentId=3ATTHHXXWBAUIC425HIV4ACHK36IX1&a=XHTA9&tp_a=XHTA9&b=3ATTHHXXWBAUIC425HIV4ACHK36IX1&tp_b=3ATTHHXXWBAUIC425HIV4ACHK36IX1&c=365799&tp_c=365799","firstResponseHeads":3,"firstResponseTails":15,"secondResponseHeads":3,"secondResponseTails":15,"totalHeads":6,"totalTails":30,"studentIndex":23,"studentTrueHypers":{"a":8,"b":2},"studentGuess":0.30434782608695654,"delta":0.10434782608695653,"bonus":0,"bonusSoFar":2.81,"totalExamples":36},{"rt":5825,"response":{"gender":"female","age":"36","understood":"yes","comments":""},"type":"response","trial_type":"survey-html-form","trial_index":191,"time_elapsed":1187504,"internal_node_id":"0.0-191.0","params":{"nStudents":24,"maxFlips":30,"completionMinutes":45,"basePay":8,"maxBonus":9,"perTrialBonus":0.5,"perTrialBonusThreshold":0.05,"exampleCost":0.01},"classroomParams":{"A":{"a":1,"b":4},"B":{"a":4,"b":1},"C":{"a":2,"b":8},"D":{"a":8,"b":2}},"conditions":["nonSeqFull","nonSeqPartial","seqNoFeedback","seqFeedback"],"classroomPairings":[["A","B"],["C","D"]],"coinWeights":[0.2,0.5,0.8],"subjectId":"A2ELXYKRPPGRPB","assignmentId":"3ATTHHXXWBAUIC425HIV4ACHK36IX1","hitId":"363A7XIFV48LMLIF2CKYA8VQSVQAVR","url":"https://gershmanlab.com/experiments/alicia/teaching/experiment/?hitId=363A7XIFV48LMLIF2CKYA8VQSVQAVR&workerId=A2ELXYKRPPGRPB&assignmentId=3ATTHHXXWBAUIC425HIV4ACHK36IX1&a=XHTA9&tp_a=XHTA9&b=3ATTHHXXWBAUIC425HIV4ACHK36IX1&tp_b=3ATTHHXXWBAUIC425HIV4ACHK36IX1&c=365799&tp_c=365799","totalBonus":2.81}]