[{"rt":31367,"response":{"heads":"4","tails":"1"},"type":"response","condition":"seqFeedback","trueTheta":0.8,"classrooms":["A","B"],"studentTrueClassroom":"B","exampleSet":"first","trial_type":"survey-html-form","trial_index":7,"time_elapsed":263456,"internal_node_id":"0.0-6.0-0.0","params":{"nStudents":24,"maxFlips":30,"completionMinutes":45,"basePay":8,"maxBonus":9,"perTrialBonus":0.5,"perTrialBonusThreshold":0.05,"exampleCost":0.01},"classroomParams":{"A":{"a":1,"b":4},"B":{"a":4,"b":1},"C":{"a":2,"b":8},"D":{"a":8,"b":2}},"conditions":["nonSeqFull","nonSeqPartial","seqNoFeedback","seqFeedback"],"classroomPairings":[["A","B"],["C","D"]],"coinWeights":[0.2,0.5,0.8],"subjectId":"A2G43KS55YGYQE","assignmentId":"3RANCT1ZVG3SE0W1U2FRYG90VV5UBC","hitId":"3SD15I2WD2G0NA4TSPXGB81L5S7630","url":"https://gershmanlab.com/experiments/alicia/teaching/experiment/?hitId=3SD15I2WD2G0NA4TSPXGB81L5S7630&workerId=A2G43KS55YGYQE&assignmentId=3RANCT1ZVG3SE0W1U2FRYG90VV5UBC&a=ZCAR9&tp_a=ZCAR9&b=3RANCT1ZVG3SE0W1U2FRYG90VV5UBC&tp_b=3RANCT1ZVG3SE0W1U2FRYG90VV5UBC&c=365799&tp_c=365799","heads":4,"tails":1,"studentIndex":0,"studentTrueHypers":{"a":4,"b":1},"studentGuess":0.8,"delta":0,"totalExamples":5,"bonusSoFar":0},{"rt":5130,"response":{"heads":"0","tails":"0"},"type":"response","condition":"seqFeedback","trueTheta":0.8,"classrooms":["A","B"],"studentTrueClassroom":"B","exampleSet":"second","trial_type":"survey-html-form","trial_index":11,"time_elapsed":282803,"internal_node_id":"0.0-10.0-0.0","params":{"nStudents":24,"maxFlips":30,"completionMinutes":45,"basePay":8,"maxBonus":9,"perTrialBonus":0.5,"perTrialBonusThreshold":0.05,"exampleCost":0.01},"classroomParams":{"A":{"a":1,"b":4},"B":{"a":4,"b":1},"C":{"a":2,"b":8},"D":{"a":8,"b":2}},"conditions":["nonSeqFull","nonSeqPartial","seqNoFeedback","seqFeedback"],"classroomPairings":[["A","B"],["C","D"]],"coinWeights":[0.2,0.5,0.8],"subjectId":"A2G43KS55YGYQE","assignmentId":"3RANCT1ZVG3SE0W1U2FRYG90VV5UBC","hitId":"3SD15I2WD2G0NA4TSPXGB81L5S7630","url":"https://gershmanlab.com/experiments/alicia/teaching/experiment/?hitId=3SD15I2WD2G0NA4TSPXGB81L5S7630&workerId=A2G43KS55YGYQE&assignmentId=3RANCT1ZVG3SE0W1U2FRYG90VV5UBC&a=ZCAR9&tp_a=ZCAR9&b=3RANCT1ZVG3SE0W1U2FRYG90VV5UBC&tp_b=3RANCT1ZVG3SE0W1U2FRYG90VV5UBC&c=365799&tp_c=365799","firstResponseHeads":4,"firstResponseTails":1,"secondResponseHeads":0,"secondResponseTails":0,"totalHeads":4,"totalTails":1,"studentIndex":0,"studentTrueHypers":{"a":4,"b":1},"studentGuess":0.8,"delta":0,"bonus":0.45,"bonusSoFar":0.45,"totalExamples":5},{"rt":6968,"response":{"heads":"0","tails":"0"},"type":"response","condition":"seqFeedback","trueTheta":0.8,"classrooms":["A","B"],"studentTrueClassroom":"B","exampleSet":"second","trial_type":"survey-html-form","trial_index":12,"time_elapsed":289772,"internal_node_id":"0.0-10.1-0.1","params":{"nStudents":24,"maxFlips":30,"completionMinutes":45,"basePay":8,"maxBonus":9,"perTrialBonus":0.5,"perTrialBonusThreshold":0.05,"exampleCost":0.01},"classroomParams":{"A":{"a":1,"b":4},"B":{"a":4,"b":1},"C":{"a":2,"b":8},"D":{"a":8,"b":2}},"conditions":["nonSeqFull","nonSeqPartial","seqNoFeedback","seqFeedback"],"classroomPairings":[["A","B"],["C","D"]],"coinWeights":[0.2,0.5,0.8],"subjectId":"A2G43KS55YGYQE","assignmentId":"3RANCT1ZVG3SE0W1U2FRYG90VV5UBC","hitId":"3SD15I2WD2G0NA4TSPXGB81L5S7630","url":"https://gershmanlab.com/experiments/alicia/teaching/experiment/?hitId=3SD15I2WD2G0NA4TSPXGB81L5S7630&workerId=A2G43KS55YGYQE&assignmentId=3RANCT1ZVG3SE0W1U2FRYG90VV5UBC&a=ZCAR9&tp_a=ZCAR9&b=3RANCT1ZVG3SE0W1U2FRYG90VV5UBC&tp_b=3RANCT1ZVG3SE0W1U2FRYG90VV5UBC&c=365799&tp_c=365799","firstResponseHeads":4,"firstResponseTails":1,"secondResponseHeads":0,"secondResponseTails":0,"totalHeads":4,"totalTails":1,"studentIndex":0,"studentTrueHypers":{"a":4,"b":1},"studentGuess":0.8,"delta":0,"bonus":0.45,"bonusSoFar":0.9,"totalExamples":5},{"rt":11611,"response":{"heads":"4","tails":"1"},"type":"response","condition":"seqFeedback","trueTheta":0.8,"classrooms":["A","B"],"studentTrueClassroom":"B","exampleSet":"second","trial_type":"survey-html-form","trial_index":13,"time_elapsed":301384,"internal_node_id":"0.0-10.2-0.2","params":{"nStudents":24,"maxFlips":30,"completionMinutes":45,"basePay":8,"maxBonus":9,"perTrialBonus":0.5,"perTrialBonusThreshold":0.05,"exampleCost":0.01},"classroomParams":{"A":{"a":1,"b":4},"B":{"a":4,"b":1},"C":{"a":2,"b":8},"D":{"a":8,"b":2}},"conditions":["nonSeqFull","nonSeqPartial","seqNoFeedback","seqFeedback"],"classroomPairings":[["A","B"],["C","D"]],"coinWeights":[0.2,0.5,0.8],"subjectId":"A2G43KS55YGYQE","assignmentId":"3RANCT1ZVG3SE0W1U2FRYG90VV5UBC","hitId":"3SD15I2WD2G0NA4TSPXGB81L5S7630","url":"https://gershmanlab.com/experiments/alicia/teaching/experiment/?hitId=3SD15I2WD2G0NA4TSPXGB81L5S7630&workerId=A2G43KS55YGYQE&assignmentId=3RANCT1ZVG3SE0W1U2FRYG90VV5UBC&a=ZCAR9&tp_a=ZCAR9&b=3RANCT1ZVG3SE0W1U2FRYG90VV5UBC&tp_b=3RANCT1ZVG3SE0W1U2FRYG90VV5UBC&c=365799&tp_c=365799","firstResponseHeads":4,"firstResponseTails":1,"secondResponseHeads":4,"secondResponseTails":1,"totalHeads":8,"totalTails":2,"studentIndex":0,"studentTrueHypers":{"a":4,"b":1},"studentGuess":0.8,"delta":0,"bonus":0.4,"bonusSoFar":1.3,"totalExamples":10},{"rt":15089,"response":{"heads":"1","tails":"4"},"type":"response","condition":"seqNoFeedback","trueTheta":0.2,"classrooms":["C","D"],"studentTrueClassroom":"D","exampleSet":"first","trial_type":"survey-html-form","trial_index":19,"time_elapsed":341548,"internal_node_id":"0.0-16.0-0.0","params":{"nStudents":24,"maxFlips":30,"completionMinutes":45,"basePay":8,"maxBonus":9,"perTrialBonus":0.5,"perTrialBonusThreshold":0.05,"exampleCost":0.01},"classroomParams":{"A":{"a":1,"b":4},"B":{"a":4,"b":1},"C":{"a":2,"b":8},"D":{"a":8,"b":2}},"conditions":["nonSeqFull","nonSeqPartial","seqNoFeedback","seqFeedback"],"classroomPairings":[["A","B"],["C","D"]],"coinWeights":[0.2,0.5,0.8],"subjectId":"A2G43KS55YGYQE","assignmentId":"3RANCT1ZVG3SE0W1U2FRYG90VV5UBC","hitId":"3SD15I2WD2G0NA4TSPXGB81L5S7630","url":"https://gershmanlab.com/experiments/alicia/teaching/experiment/?hitId=3SD15I2WD2G0NA4TSPXGB81L5S7630&workerId=A2G43KS55YGYQE&assignmentId=3RANCT1ZVG3SE0W1U2FRYG90VV5UBC&a=ZCAR9&tp_a=ZCAR9&b=3RANCT1ZVG3SE0W1U2FRYG90VV5UBC&tp_b=3RANCT1ZVG3SE0W1U2FRYG90VV5UBC&c=365799&tp_c=365799","heads":1,"tails":4,"studentIndex":1,"studentTrueHypers":{"a":8,"b":2},"studentGuess":0.6,"delta":0.39999999999999997,"totalExamples":5,"bonusSoFar":1.3},{"rt":18654,"response":{"heads":"1","tails":"4"},"type":"response","condition":"seqNoFeedback","trueTheta":0.2,"classrooms":["C","D"],"studentTrueClassroom":"D","exampleSet":"second","trial_type":"survey-html-form","trial_index":22,"time_elapsed":366982,"internal_node_id":"0.0-19.0-0.0","params":{"nStudents":24,"maxFlips":30,"completionMinutes":45,"basePay":8,"maxBonus":9,"perTrialBonus":0.5,"perTrialBonusThreshold":0.05,"exampleCost":0.01},"classroomParams":{"A":{"a":1,"b":4},"B":{"a":4,"b":1},"C":{"a":2,"b":8},"D":{"a":8,"b":2}},"conditions":["nonSeqFull","nonSeqPartial","seqNoFeedback","seqFeedback"],"classroomPairings":[["A","B"],["C","D"]],"coinWeights":[0.2,0.5,0.8],"subjectId":"A2G43KS55YGYQE","assignmentId":"3RANCT1ZVG3SE0W1U2FRYG90VV5UBC","hitId":"3SD15I2WD2G0NA4TSPXGB81L5S7630","url":"https://gershmanlab.com/experiments/alicia/teaching/experiment/?hitId=3SD15I2WD2G0NA4TSPXGB81L5S7630&workerId=A2G43KS55YGYQE&assignmentId=3RANCT1ZVG3SE0W1U2FRYG90VV5UBC&a=ZCAR9&tp_a=ZCAR9&b=3RANCT1ZVG3SE0W1U2FRYG90VV5UBC&tp_b=3RANCT1ZVG3SE0W1U2FRYG90VV5UBC&c=365799&tp_c=365799","firstResponseHeads":1,"firstResponseTails":4,"secondResponseHeads":1,"secondResponseTails":4,"totalHeads":2,"totalTails":8,"studentIndex":1,"studentTrueHypers":{"a":8,"b":2},"studentGuess":0.5,"delta":0.3,"bonus":0,"bonusSoFar":1.3,"totalExamples":10},{"rt":6309,"response":{"heads":"1","tails":"1"},"type":"response","condition":"seqFeedback","trueTheta":0.5,"classrooms":["C","D"],"studentTrueClassroom":"D","exampleSet":"first","trial_type":"survey-html-form","trial_index":28,"time_elapsed":398857,"internal_node_id":"0.0-25.0-0.0","params":{"nStudents":24,"maxFlips":30,"completionMinutes":45,"basePay":8,"maxBonus":9,"perTrialBonus":0.5,"perTrialBonusThreshold":0.05,"exampleCost":0.01},"classroomParams":{"A":{"a":1,"b":4},"B":{"a":4,"b":1},"C":{"a":2,"b":8},"D":{"a":8,"b":2}},"conditions":["nonSeqFull","nonSeqPartial","seqNoFeedback","seqFeedback"],"classroomPairings":[["A","B"],["C","D"]],"coinWeights":[0.2,0.5,0.8],"subjectId":"A2G43KS55YGYQE","assignmentId":"3RANCT1ZVG3SE0W1U2FRYG90VV5UBC","hitId":"3SD15I2WD2G0NA4TSPXGB81L5S7630","url":"https://gershmanlab.com/experiments/alicia/teaching/experiment/?hitId=3SD15I2WD2G0NA4TSPXGB81L5S7630&workerId=A2G43KS55YGYQE&assignmentId=3RANCT1ZVG3SE0W1U2FRYG90VV5UBC&a=ZCAR9&tp_a=ZCAR9&b=3RANCT1ZVG3SE0W1U2FRYG90VV5UBC&tp_b=3RANCT1ZVG3SE0W1U2FRYG90VV5UBC&c=365799&tp_c=365799","heads":1,"tails":1,"studentIndex":2,"studentTrueHypers":{"a":8,"b":2},"studentGuess":0.75,"delta":0.25,"totalExamples":2,"bonusSoFar":1.3},{"rt":16538,"response":{"heads":"1","tails":"1"},"type":"response","condition":"seqFeedback","trueTheta":0.5,"classrooms":["C","D"],"studentTrueClassroom":"D","exampleSet":"second","trial_type":"survey-html-form","trial_index":32,"time_elapsed":435509,"internal_node_id":"0.0-29.0-0.0","params":{"nStudents":24,"maxFlips":30,"completionMinutes":45,"basePay":8,"maxBonus":9,"perTrialBonus":0.5,"perTrialBonusThreshold":0.05,"exampleCost":0.01},"classroomParams":{"A":{"a":1,"b":4},"B":{"a":4,"b":1},"C":{"a":2,"b":8},"D":{"a":8,"b":2}},"conditions":["nonSeqFull","nonSeqPartial","seqNoFeedback","seqFeedback"],"classroomPairings":[["A","B"],["C","D"]],"coinWeights":[0.2,0.5,0.8],"subjectId":"A2G43KS55YGYQE","assignmentId":"3RANCT1ZVG3SE0W1U2FRYG90VV5UBC","hitId":"3SD15I2WD2G0NA4TSPXGB81L5S7630","url":"https://gershmanlab.com/experiments/alicia/teaching/experiment/?hitId=3SD15I2WD2G0NA4TSPXGB81L5S7630&workerId=A2G43KS55YGYQE&assignmentId=3RANCT1ZVG3SE0W1U2FRYG90VV5UBC&a=ZCAR9&tp_a=ZCAR9&b=3RANCT1ZVG3SE0W1U2FRYG90VV5UBC&tp_b=3RANCT1ZVG3SE0W1U2FRYG90VV5UBC&c=365799&tp_c=365799","firstResponseHeads":1,"firstResponseTails":1,"secondResponseHeads":1,"secondResponseTails":1,"totalHeads":2,"totalTails":2,"studentIndex":2,"studentTrueHypers":{"a":8,"b":2},"studentGuess":0.7142857142857143,"delta":0.2142857142857143,"bonus":0,"bonusSoFar":1.3,"totalExamples":4},{"rt":23730,"response":{"heads":"1","tails":"4"},"type":"response","condition":"seqNoFeedback","trueTheta":0.2,"classrooms":["A","B"],"studentTrueClassroom":"B","exampleSet":"first","trial_type":"survey-html-form","trial_index":38,"time_elapsed":474741,"internal_node_id":"0.0-35.0-0.0","params":{"nStudents":24,"maxFlips":30,"completionMinutes":45,"basePay":8,"maxBonus":9,"perTrialBonus":0.5,"perTrialBonusThreshold":0.05,"exampleCost":0.01},"classroomParams":{"A":{"a":1,"b":4},"B":{"a":4,"b":1},"C":{"a":2,"b":8},"D":{"a":8,"b":2}},"conditions":["nonSeqFull","nonSeqPartial","seqNoFeedback","seqFeedback"],"classroomPairings":[["A","B"],["C","D"]],"coinWeights":[0.2,0.5,0.8],"subjectId":"A2G43KS55YGYQE","assignmentId":"3RANCT1ZVG3SE0W1U2FRYG90VV5UBC","hitId":"3SD15I2WD2G0NA4TSPXGB81L5S7630","url":"https://gershmanlab.com/experiments/alicia/teaching/experiment/?hitId=3SD15I2WD2G0NA4TSPXGB81L5S7630&workerId=A2G43KS55YGYQE&assignmentId=3RANCT1ZVG3SE0W1U2FRYG90VV5UBC&a=ZCAR9&tp_a=ZCAR9&b=3RANCT1ZVG3SE0W1U2FRYG90VV5UBC&tp_b=3RANCT1ZVG3SE0W1U2FRYG90VV5UBC&c=365799&tp_c=365799","heads":1,"tails":4,"studentIndex":3,"studentTrueHypers":{"a":4,"b":1},"studentGuess":0.5,"delta":0.3,"totalExamples":5,"bonusSoFar":1.3},{"rt":9299,"response":{"heads":"0","tails":"2"},"type":"response","condition":"seqNoFeedback","trueTheta":0.2,"classrooms":["A","B"],"studentTrueClassroom":"B","exampleSet":"second","trial_type":"survey-html-form","trial_index":41,"time_elapsed":491045,"internal_node_id":"0.0-38.0-0.0","params":{"nStudents":24,"maxFlips":30,"completionMinutes":45,"basePay":8,"maxBonus":9,"perTrialBonus":0.5,"perTrialBonusThreshold":0.05,"exampleCost":0.01},"classroomParams":{"A":{"a":1,"b":4},"B":{"a":4,"b":1},"C":{"a":2,"b":8},"D":{"a":8,"b":2}},"conditions":["nonSeqFull","nonSeqPartial","seqNoFeedback","seqFeedback"],"classroomPairings":[["A","B"],["C","D"]],"coinWeights":[0.2,0.5,0.8],"subjectId":"A2G43KS55YGYQE","assignmentId":"3RANCT1ZVG3SE0W1U2FRYG90VV5UBC","hitId":"3SD15I2WD2G0NA4TSPXGB81L5S7630","url":"https://gershmanlab.com/experiments/alicia/teaching/experiment/?hitId=3SD15I2WD2G0NA4TSPXGB81L5S7630&workerId=A2G43KS55YGYQE&assignmentId=3RANCT1ZVG3SE0W1U2FRYG90VV5UBC&a=ZCAR9&tp_a=ZCAR9&b=3RANCT1ZVG3SE0W1U2FRYG90VV5UBC&tp_b=3RANCT1ZVG3SE0W1U2FRYG90VV5UBC&c=365799&tp_c=365799","firstResponseHeads":1,"firstResponseTails":4,"secondResponseHeads":0,"secondResponseTails":2,"totalHeads":1,"totalTails":6,"studentIndex":3,"studentTrueHypers":{"a":4,"b":1},"studentGuess":0.4166666666666667,"delta":0.21666666666666667,"bonus":0,"bonusSoFar":1.3,"totalExamples":7},{"rt":15728,"response":{"heads":"5","tails":"5"},"type":"response","condition":"nonSeqPartial","trueTheta":0.5,"classrooms":["A","B"],"studentTrueClassroom":"A","exampleSet":"first","trial_type":"survey-html-form","trial_index":47,"time_elapsed":528734,"internal_node_id":"0.0-44.0-0.0","params":{"nStudents":24,"maxFlips":30,"completionMinutes":45,"basePay":8,"maxBonus":9,"perTrialBonus":0.5,"perTrialBonusThreshold":0.05,"exampleCost":0.01},"classroomParams":{"A":{"a":1,"b":4},"B":{"a":4,"b":1},"C":{"a":2,"b":8},"D":{"a":8,"b":2}},"conditions":["nonSeqFull","nonSeqPartial","seqNoFeedback","seqFeedback"],"classroomPairings":[["A","B"],["C","D"]],"coinWeights":[0.2,0.5,0.8],"subjectId":"A2G43KS55YGYQE","assignmentId":"3RANCT1ZVG3SE0W1U2FRYG90VV5UBC","hitId":"3SD15I2WD2G0NA4TSPXGB81L5S7630","url":"https://gershmanlab.com/experiments/alicia/teaching/experiment/?hitId=3SD15I2WD2G0NA4TSPXGB81L5S7630&workerId=A2G43KS55YGYQE&assignmentId=3RANCT1ZVG3SE0W1U2FRYG90VV5UBC&a=ZCAR9&tp_a=ZCAR9&b=3RANCT1ZVG3SE0W1U2FRYG90VV5UBC&tp_b=3RANCT1ZVG3SE0W1U2FRYG90VV5UBC&c=365799&tp_c=365799","heads":5,"tails":5,"studentIndex":4,"studentTrueHypers":{"a":1,"b":4},"studentGuess":0.4,"delta":0.09999999999999998,"totalExamples":10,"bonus":0,"bonusSoFar":1.3},{"rt":18882,"response":{"heads":"4","tails":"1"},"type":"response","condition":"nonSeqFull","trueTheta":0.8,"classrooms":["C","D"],"studentTrueClassroom":"D","exampleSet":"first","trial_type":"survey-html-form","trial_index":53,"time_elapsed":574439,"internal_node_id":"0.0-50.0-0.0","params":{"nStudents":24,"maxFlips":30,"completionMinutes":45,"basePay":8,"maxBonus":9,"perTrialBonus":0.5,"perTrialBonusThreshold":0.05,"exampleCost":0.01},"classroomParams":{"A":{"a":1,"b":4},"B":{"a":4,"b":1},"C":{"a":2,"b":8},"D":{"a":8,"b":2}},"conditions":["nonSeqFull","nonSeqPartial","seqNoFeedback","seqFeedback"],"classroomPairings":[["A","B"],["C","D"]],"coinWeights":[0.2,0.5,0.8],"subjectId":"A2G43KS55YGYQE","assignmentId":"3RANCT1ZVG3SE0W1U2FRYG90VV5UBC","hitId":"3SD15I2WD2G0NA4TSPXGB81L5S7630","url":"https://gershmanlab.com/experiments/alicia/teaching/experiment/?hitId=3SD15I2WD2G0NA4TSPXGB81L5S7630&workerId=A2G43KS55YGYQE&assignmentId=3RANCT1ZVG3SE0W1U2FRYG90VV5UBC&a=ZCAR9&tp_a=ZCAR9&b=3RANCT1ZVG3SE0W1U2FRYG90VV5UBC&tp_b=3RANCT1ZVG3SE0W1U2FRYG90VV5UBC&c=365799&tp_c=365799","heads":4,"tails":1,"studentIndex":5,"studentTrueHypers":{"a":8,"b":2},"studentGuess":0.8,"delta":0,"totalExamples":5,"bonus":0.45,"bonusSoFar":1.75},{"rt":8733,"response":{"heads":"4","tails":"1"},"type":"response","condition":"nonSeqFull","trueTheta":0.8,"classrooms":["A","B"],"studentTrueClassroom":"B","exampleSet":"first","trial_type":"survey-html-form","trial_index":59,"time_elapsed":600658,"internal_node_id":"0.0-56.0-0.0","params":{"nStudents":24,"maxFlips":30,"completionMinutes":45,"basePay":8,"maxBonus":9,"perTrialBonus":0.5,"perTrialBonusThreshold":0.05,"exampleCost":0.01},"classroomParams":{"A":{"a":1,"b":4},"B":{"a":4,"b":1},"C":{"a":2,"b":8},"D":{"a":8,"b":2}},"conditions":["nonSeqFull","nonSeqPartial","seqNoFeedback","seqFeedback"],"classroomPairings":[["A","B"],["C","D"]],"coinWeights":[0.2,0.5,0.8],"subjectId":"A2G43KS55YGYQE","assignmentId":"3RANCT1ZVG3SE0W1U2FRYG90VV5UBC","hitId":"3SD15I2WD2G0NA4TSPXGB81L5S7630","url":"https://gershmanlab.com/experiments/alicia/teaching/experiment/?hitId=3SD15I2WD2G0NA4TSPXGB81L5S7630&workerId=A2G43KS55YGYQE&assignmentId=3RANCT1ZVG3SE0W1U2FRYG90VV5UBC&a=ZCAR9&tp_a=ZCAR9&b=3RANCT1ZVG3SE0W1U2FRYG90VV5UBC&tp_b=3RANCT1ZVG3SE0W1U2FRYG90VV5UBC&c=365799&tp_c=365799","heads":4,"tails":1,"studentIndex":6,"studentTrueHypers":{"a":4,"b":1},"studentGuess":0.8,"delta":0,"totalExamples":5,"bonus":0.45,"bonusSoFar":2.2},{"rt":21514,"response":{"heads":"1","tails":"4"},"type":"response","condition":"seqFeedback","trueTheta":0.2,"classrooms":["C","D"],"studentTrueClassroom":"C","exampleSet":"first","trial_type":"survey-html-form","trial_index":65,"time_elapsed":645141,"internal_node_id":"0.0-62.0-0.0","params":{"nStudents":24,"maxFlips":30,"completionMinutes":45,"basePay":8,"maxBonus":9,"perTrialBonus":0.5,"perTrialBonusThreshold":0.05,"exampleCost":0.01},"classroomParams":{"A":{"a":1,"b":4},"B":{"a":4,"b":1},"C":{"a":2,"b":8},"D":{"a":8,"b":2}},"conditions":["nonSeqFull","nonSeqPartial","seqNoFeedback","seqFeedback"],"classroomPairings":[["A","B"],["C","D"]],"coinWeights":[0.2,0.5,0.8],"subjectId":"A2G43KS55YGYQE","assignmentId":"3RANCT1ZVG3SE0W1U2FRYG90VV5UBC","hitId":"3SD15I2WD2G0NA4TSPXGB81L5S7630","url":"https://gershmanlab.com/experiments/alicia/teaching/experiment/?hitId=3SD15I2WD2G0NA4TSPXGB81L5S7630&workerId=A2G43KS55YGYQE&assignmentId=3RANCT1ZVG3SE0W1U2FRYG90VV5UBC&a=ZCAR9&tp_a=ZCAR9&b=3RANCT1ZVG3SE0W1U2FRYG90VV5UBC&tp_b=3RANCT1ZVG3SE0W1U2FRYG90VV5UBC&c=365799&tp_c=365799","heads":1,"tails":4,"studentIndex":7,"studentTrueHypers":{"a":2,"b":8},"studentGuess":0.2,"delta":0,"totalExamples":5,"bonusSoFar":2.2},{"rt":8482,"response":{"heads":"1","tails":"4"},"type":"response","condition":"seqFeedback","trueTheta":0.2,"classrooms":["C","D"],"studentTrueClassroom":"C","exampleSet":"second","trial_type":"survey-html-form","trial_index":69,"time_elapsed":665124,"internal_node_id":"0.0-66.0-0.0","params":{"nStudents":24,"maxFlips":30,"completionMinutes":45,"basePay":8,"maxBonus":9,"perTrialBonus":0.5,"perTrialBonusThreshold":0.05,"exampleCost":0.01},"classroomParams":{"A":{"a":1,"b":4},"B":{"a":4,"b":1},"C":{"a":2,"b":8},"D":{"a":8,"b":2}},"conditions":["nonSeqFull","nonSeqPartial","seqNoFeedback","seqFeedback"],"classroomPairings":[["A","B"],["C","D"]],"coinWeights":[0.2,0.5,0.8],"subjectId":"A2G43KS55YGYQE","assignmentId":"3RANCT1ZVG3SE0W1U2FRYG90VV5UBC","hitId":"3SD15I2WD2G0NA4TSPXGB81L5S7630","url":"https://gershmanlab.com/experiments/alicia/teaching/experiment/?hitId=3SD15I2WD2G0NA4TSPXGB81L5S7630&workerId=A2G43KS55YGYQE&assignmentId=3RANCT1ZVG3SE0W1U2FRYG90VV5UBC&a=ZCAR9&tp_a=ZCAR9&b=3RANCT1ZVG3SE0W1U2FRYG90VV5UBC&tp_b=3RANCT1ZVG3SE0W1U2FRYG90VV5UBC&c=365799&tp_c=365799","firstResponseHeads":1,"firstResponseTails":4,"secondResponseHeads":1,"secondResponseTails":4,"totalHeads":2,"totalTails":8,"studentIndex":7,"studentTrueHypers":{"a":2,"b":8},"studentGuess":0.2,"delta":0,"bonus":0.4,"bonusSoFar":2.6,"totalExamples":10},{"rt":9239,"response":{"heads":"4","tails":"1"},"type":"response","condition":"nonSeqPartial","trueTheta":0.8,"classrooms":["C","D"],"studentTrueClassroom":"D","exampleSet":"first","trial_type":"survey-html-form","trial_index":75,"time_elapsed":690570,"internal_node_id":"0.0-72.0-0.0","params":{"nStudents":24,"maxFlips":30,"completionMinutes":45,"basePay":8,"maxBonus":9,"perTrialBonus":0.5,"perTrialBonusThreshold":0.05,"exampleCost":0.01},"classroomParams":{"A":{"a":1,"b":4},"B":{"a":4,"b":1},"C":{"a":2,"b":8},"D":{"a":8,"b":2}},"conditions":["nonSeqFull","nonSeqPartial","seqNoFeedback","seqFeedback"],"classroomPairings":[["A","B"],["C","D"]],"coinWeights":[0.2,0.5,0.8],"subjectId":"A2G43KS55YGYQE","assignmentId":"3RANCT1ZVG3SE0W1U2FRYG90VV5UBC","hitId":"3SD15I2WD2G0NA4TSPXGB81L5S7630","url":"https://gershmanlab.com/experiments/alicia/teaching/experiment/?hitId=3SD15I2WD2G0NA4TSPXGB81L5S7630&workerId=A2G43KS55YGYQE&assignmentId=3RANCT1ZVG3SE0W1U2FRYG90VV5UBC&a=ZCAR9&tp_a=ZCAR9&b=3RANCT1ZVG3SE0W1U2FRYG90VV5UBC&tp_b=3RANCT1ZVG3SE0W1U2FRYG90VV5UBC&c=365799&tp_c=365799","heads":4,"tails":1,"studentIndex":8,"studentTrueHypers":{"a":8,"b":2},"studentGuess":0.8,"delta":0,"totalExamples":5,"bonus":0.45,"bonusSoFar":3.05},{"rt":30036,"response":{"heads":"1","tails":"4"},"type":"response","condition":"nonSeqFull","trueTheta":0.2,"classrooms":["C","D"],"studentTrueClassroom":"C","exampleSet":"first","trial_type":"survey-html-form","trial_index":81,"time_elapsed":734390,"internal_node_id":"0.0-78.0-0.0","params":{"nStudents":24,"maxFlips":30,"completionMinutes":45,"basePay":8,"maxBonus":9,"perTrialBonus":0.5,"perTrialBonusThreshold":0.05,"exampleCost":0.01},"classroomParams":{"A":{"a":1,"b":4},"B":{"a":4,"b":1},"C":{"a":2,"b":8},"D":{"a":8,"b":2}},"conditions":["nonSeqFull","nonSeqPartial","seqNoFeedback","seqFeedback"],"classroomPairings":[["A","B"],["C","D"]],"coinWeights":[0.2,0.5,0.8],"subjectId":"A2G43KS55YGYQE","assignmentId":"3RANCT1ZVG3SE0W1U2FRYG90VV5UBC","hitId":"3SD15I2WD2G0NA4TSPXGB81L5S7630","url":"https://gershmanlab.com/experiments/alicia/teaching/experiment/?hitId=3SD15I2WD2G0NA4TSPXGB81L5S7630&workerId=A2G43KS55YGYQE&assignmentId=3RANCT1ZVG3SE0W1U2FRYG90VV5UBC&a=ZCAR9&tp_a=ZCAR9&b=3RANCT1ZVG3SE0W1U2FRYG90VV5UBC&tp_b=3RANCT1ZVG3SE0W1U2FRYG90VV5UBC&c=365799&tp_c=365799","heads":1,"tails":4,"studentIndex":9,"studentTrueHypers":{"a":2,"b":8},"studentGuess":0.2,"delta":0,"totalExamples":5,"bonus":0.45,"bonusSoFar":3.5},{"rt":10381,"response":{"heads":"1","tails":"1"},"type":"response","condition":"seqNoFeedback","trueTheta":0.5,"classrooms":["A","B"],"studentTrueClassroom":"B","exampleSet":"first","trial_type":"survey-html-form","trial_index":87,"time_elapsed":759043,"internal_node_id":"0.0-84.0-0.0","params":{"nStudents":24,"maxFlips":30,"completionMinutes":45,"basePay":8,"maxBonus":9,"perTrialBonus":0.5,"perTrialBonusThreshold":0.05,"exampleCost":0.01},"classroomParams":{"A":{"a":1,"b":4},"B":{"a":4,"b":1},"C":{"a":2,"b":8},"D":{"a":8,"b":2}},"conditions":["nonSeqFull","nonSeqPartial","seqNoFeedback","seqFeedback"],"classroomPairings":[["A","B"],["C","D"]],"coinWeights":[0.2,0.5,0.8],"subjectId":"A2G43KS55YGYQE","assignmentId":"3RANCT1ZVG3SE0W1U2FRYG90VV5UBC","hitId":"3SD15I2WD2G0NA4TSPXGB81L5S7630","url":"https://gershmanlab.com/experiments/alicia/teaching/experiment/?hitId=3SD15I2WD2G0NA4TSPXGB81L5S7630&workerId=A2G43KS55YGYQE&assignmentId=3RANCT1ZVG3SE0W1U2FRYG90VV5UBC&a=ZCAR9&tp_a=ZCAR9&b=3RANCT1ZVG3SE0W1U2FRYG90VV5UBC&tp_b=3RANCT1ZVG3SE0W1U2FRYG90VV5UBC&c=365799&tp_c=365799","heads":1,"tails":1,"studentIndex":10,"studentTrueHypers":{"a":4,"b":1},"studentGuess":0.7142857142857143,"delta":0.2142857142857143,"totalExamples":2,"bonusSoFar":3.5},{"rt":17271,"response":{"heads":"1","tails":"1"},"type":"response","condition":"seqNoFeedback","trueTheta":0.5,"classrooms":["A","B"],"studentTrueClassroom":"B","exampleSet":"second","trial_type":"survey-html-form","trial_index":90,"time_elapsed":782339,"internal_node_id":"0.0-87.0-0.0","params":{"nStudents":24,"maxFlips":30,"completionMinutes":45,"basePay":8,"maxBonus":9,"perTrialBonus":0.5,"perTrialBonusThreshold":0.05,"exampleCost":0.01},"classroomParams":{"A":{"a":1,"b":4},"B":{"a":4,"b":1},"C":{"a":2,"b":8},"D":{"a":8,"b":2}},"conditions":["nonSeqFull","nonSeqPartial","seqNoFeedback","seqFeedback"],"classroomPairings":[["A","B"],["C","D"]],"coinWeights":[0.2,0.5,0.8],"subjectId":"A2G43KS55YGYQE","assignmentId":"3RANCT1ZVG3SE0W1U2FRYG90VV5UBC","hitId":"3SD15I2WD2G0NA4TSPXGB81L5S7630","url":"https://gershmanlab.com/experiments/alicia/teaching/experiment/?hitId=3SD15I2WD2G0NA4TSPXGB81L5S7630&workerId=A2G43KS55YGYQE&assignmentId=3RANCT1ZVG3SE0W1U2FRYG90VV5UBC&a=ZCAR9&tp_a=ZCAR9&b=3RANCT1ZVG3SE0W1U2FRYG90VV5UBC&tp_b=3RANCT1ZVG3SE0W1U2FRYG90VV5UBC&c=365799&tp_c=365799","firstResponseHeads":1,"firstResponseTails":1,"secondResponseHeads":1,"secondResponseTails":1,"totalHeads":2,"totalTails":2,"studentIndex":10,"studentTrueHypers":{"a":4,"b":1},"studentGuess":0.6666666666666666,"delta":0.16666666666666663,"bonus":0,"bonusSoFar":3.5,"totalExamples":4},{"rt":19129,"response":{"heads":"3","tails":"3"},"type":"response","condition":"nonSeqPartial","trueTheta":0.5,"classrooms":["C","D"],"studentTrueClassroom":"D","exampleSet":"first","trial_type":"survey-html-form","trial_index":96,"time_elapsed":822938,"internal_node_id":"0.0-93.0-0.0","params":{"nStudents":24,"maxFlips":30,"completionMinutes":45,"basePay":8,"maxBonus":9,"perTrialBonus":0.5,"perTrialBonusThreshold":0.05,"exampleCost":0.01},"classroomParams":{"A":{"a":1,"b":4},"B":{"a":4,"b":1},"C":{"a":2,"b":8},"D":{"a":8,"b":2}},"conditions":["nonSeqFull","nonSeqPartial","seqNoFeedback","seqFeedback"],"classroomPairings":[["A","B"],["C","D"]],"coinWeights":[0.2,0.5,0.8],"subjectId":"A2G43KS55YGYQE","assignmentId":"3RANCT1ZVG3SE0W1U2FRYG90VV5UBC","hitId":"3SD15I2WD2G0NA4TSPXGB81L5S7630","url":"https://gershmanlab.com/experiments/alicia/teaching/experiment/?hitId=3SD15I2WD2G0NA4TSPXGB81L5S7630&workerId=A2G43KS55YGYQE&assignmentId=3RANCT1ZVG3SE0W1U2FRYG90VV5UBC&a=ZCAR9&tp_a=ZCAR9&b=3RANCT1ZVG3SE0W1U2FRYG90VV5UBC&tp_b=3RANCT1ZVG3SE0W1U2FRYG90VV5UBC&c=365799&tp_c=365799","heads":3,"tails":3,"studentIndex":11,"studentTrueHypers":{"a":8,"b":2},"studentGuess":0.6875,"delta":0.1875,"totalExamples":6,"bonus":0,"bonusSoFar":3.5},{"rt":11357,"response":{"heads":"1","tails":"4"},"type":"response","condition":"nonSeqFull","trueTheta":0.5,"classrooms":["A","B"],"studentTrueClassroom":"B","exampleSet":"first","trial_type":"survey-html-form","trial_index":102,"time_elapsed":850344,"internal_node_id":"0.0-99.0-0.0","params":{"nStudents":24,"maxFlips":30,"completionMinutes":45,"basePay":8,"maxBonus":9,"perTrialBonus":0.5,"perTrialBonusThreshold":0.05,"exampleCost":0.01},"classroomParams":{"A":{"a":1,"b":4},"B":{"a":4,"b":1},"C":{"a":2,"b":8},"D":{"a":8,"b":2}},"conditions":["nonSeqFull","nonSeqPartial","seqNoFeedback","seqFeedback"],"classroomPairings":[["A","B"],["C","D"]],"coinWeights":[0.2,0.5,0.8],"subjectId":"A2G43KS55YGYQE","assignmentId":"3RANCT1ZVG3SE0W1U2FRYG90VV5UBC","hitId":"3SD15I2WD2G0NA4TSPXGB81L5S7630","url":"https://gershmanlab.com/experiments/alicia/teaching/experiment/?hitId=3SD15I2WD2G0NA4TSPXGB81L5S7630&workerId=A2G43KS55YGYQE&assignmentId=3RANCT1ZVG3SE0W1U2FRYG90VV5UBC&a=ZCAR9&tp_a=ZCAR9&b=3RANCT1ZVG3SE0W1U2FRYG90VV5UBC&tp_b=3RANCT1ZVG3SE0W1U2FRYG90VV5UBC&c=365799&tp_c=365799","heads":1,"tails":4,"studentIndex":12,"studentTrueHypers":{"a":4,"b":1},"studentGuess":0.5,"delta":0,"totalExamples":5,"bonus":0.45,"bonusSoFar":3.95},{"rt":12730,"response":{"heads":"1","tails":"4"},"type":"response","condition":"nonSeqPartial","trueTheta":0.2,"classrooms":["C","D"],"studentTrueClassroom":"C","exampleSet":"first","trial_type":"survey-html-form","trial_index":108,"time_elapsed":877718,"internal_node_id":"0.0-105.0-0.0","params":{"nStudents":24,"maxFlips":30,"completionMinutes":45,"basePay":8,"maxBonus":9,"perTrialBonus":0.5,"perTrialBonusThreshold":0.05,"exampleCost":0.01},"classroomParams":{"A":{"a":1,"b":4},"B":{"a":4,"b":1},"C":{"a":2,"b":8},"D":{"a":8,"b":2}},"conditions":["nonSeqFull","nonSeqPartial","seqNoFeedback","seqFeedback"],"classroomPairings":[["A","B"],["C","D"]],"coinWeights":[0.2,0.5,0.8],"subjectId":"A2G43KS55YGYQE","assignmentId":"3RANCT1ZVG3SE0W1U2FRYG90VV5UBC","hitId":"3SD15I2WD2G0NA4TSPXGB81L5S7630","url":"https://gershmanlab.com/experiments/alicia/teaching/experiment/?hitId=3SD15I2WD2G0NA4TSPXGB81L5S7630&workerId=A2G43KS55YGYQE&assignmentId=3RANCT1ZVG3SE0W1U2FRYG90VV5UBC&a=ZCAR9&tp_a=ZCAR9&b=3RANCT1ZVG3SE0W1U2FRYG90VV5UBC&tp_b=3RANCT1ZVG3SE0W1U2FRYG90VV5UBC&c=365799&tp_c=365799","heads":1,"tails":4,"studentIndex":13,"studentTrueHypers":{"a":2,"b":8},"studentGuess":0.2,"delta":0,"totalExamples":5,"bonus":0.45,"bonusSoFar":4.4},{"rt":7880,"response":{"heads":"4","tails":"1"},"type":"response","condition":"nonSeqPartial","trueTheta":0.8,"classrooms":["A","B"],"studentTrueClassroom":"B","exampleSet":"first","trial_type":"survey-html-form","trial_index":114,"time_elapsed":902099,"internal_node_id":"0.0-111.0-0.0","params":{"nStudents":24,"maxFlips":30,"completionMinutes":45,"basePay":8,"maxBonus":9,"perTrialBonus":0.5,"perTrialBonusThreshold":0.05,"exampleCost":0.01},"classroomParams":{"A":{"a":1,"b":4},"B":{"a":4,"b":1},"C":{"a":2,"b":8},"D":{"a":8,"b":2}},"conditions":["nonSeqFull","nonSeqPartial","seqNoFeedback","seqFeedback"],"classroomPairings":[["A","B"],["C","D"]],"coinWeights":[0.2,0.5,0.8],"subjectId":"A2G43KS55YGYQE","assignmentId":"3RANCT1ZVG3SE0W1U2FRYG90VV5UBC","hitId":"3SD15I2WD2G0NA4TSPXGB81L5S7630","url":"https://gershmanlab.com/experiments/alicia/teaching/experiment/?hitId=3SD15I2WD2G0NA4TSPXGB81L5S7630&workerId=A2G43KS55YGYQE&assignmentId=3RANCT1ZVG3SE0W1U2FRYG90VV5UBC&a=ZCAR9&tp_a=ZCAR9&b=3RANCT1ZVG3SE0W1U2FRYG90VV5UBC&tp_b=3RANCT1ZVG3SE0W1U2FRYG90VV5UBC&c=365799&tp_c=365799","heads":4,"tails":1,"studentIndex":14,"studentTrueHypers":{"a":4,"b":1},"studentGuess":0.8,"delta":0,"totalExamples":5,"bonus":0.45,"bonusSoFar":4.85},{"rt":10897,"response":{"heads":"4","tails":"1"},"type":"response","condition":"seqNoFeedback","trueTheta":0.8,"classrooms":["A","B"],"studentTrueClassroom":"A","exampleSet":"first","trial_type":"survey-html-form","trial_index":120,"time_elapsed":930578,"internal_node_id":"0.0-117.0-0.0","params":{"nStudents":24,"maxFlips":30,"completionMinutes":45,"basePay":8,"maxBonus":9,"perTrialBonus":0.5,"perTrialBonusThreshold":0.05,"exampleCost":0.01},"classroomParams":{"A":{"a":1,"b":4},"B":{"a":4,"b":1},"C":{"a":2,"b":8},"D":{"a":8,"b":2}},"conditions":["nonSeqFull","nonSeqPartial","seqNoFeedback","seqFeedback"],"classroomPairings":[["A","B"],["C","D"]],"coinWeights":[0.2,0.5,0.8],"subjectId":"A2G43KS55YGYQE","assignmentId":"3RANCT1ZVG3SE0W1U2FRYG90VV5UBC","hitId":"3SD15I2WD2G0NA4TSPXGB81L5S7630","url":"https://gershmanlab.com/experiments/alicia/teaching/experiment/?hitId=3SD15I2WD2G0NA4TSPXGB81L5S7630&workerId=A2G43KS55YGYQE&assignmentId=3RANCT1ZVG3SE0W1U2FRYG90VV5UBC&a=ZCAR9&tp_a=ZCAR9&b=3RANCT1ZVG3SE0W1U2FRYG90VV5UBC&tp_b=3RANCT1ZVG3SE0W1U2FRYG90VV5UBC&c=365799&tp_c=365799","heads":4,"tails":1,"studentIndex":15,"studentTrueHypers":{"a":1,"b":4},"studentGuess":0.5,"delta":0.30000000000000004,"totalExamples":5,"bonusSoFar":4.85},{"rt":11049,"response":{"heads":"4","tails":"1"},"type":"response","condition":"seqNoFeedback","trueTheta":0.8,"classrooms":["A","B"],"studentTrueClassroom":"A","exampleSet":"second","trial_type":"survey-html-form","trial_index":123,"time_elapsed":949395,"internal_node_id":"0.0-120.0-0.0","params":{"nStudents":24,"maxFlips":30,"completionMinutes":45,"basePay":8,"maxBonus":9,"perTrialBonus":0.5,"perTrialBonusThreshold":0.05,"exampleCost":0.01},"classroomParams":{"A":{"a":1,"b":4},"B":{"a":4,"b":1},"C":{"a":2,"b":8},"D":{"a":8,"b":2}},"conditions":["nonSeqFull","nonSeqPartial","seqNoFeedback","seqFeedback"],"classroomPairings":[["A","B"],["C","D"]],"coinWeights":[0.2,0.5,0.8],"subjectId":"A2G43KS55YGYQE","assignmentId":"3RANCT1ZVG3SE0W1U2FRYG90VV5UBC","hitId":"3SD15I2WD2G0NA4TSPXGB81L5S7630","url":"https://gershmanlab.com/experiments/alicia/teaching/experiment/?hitId=3SD15I2WD2G0NA4TSPXGB81L5S7630&workerId=A2G43KS55YGYQE&assignmentId=3RANCT1ZVG3SE0W1U2FRYG90VV5UBC&a=ZCAR9&tp_a=ZCAR9&b=3RANCT1ZVG3SE0W1U2FRYG90VV5UBC&tp_b=3RANCT1ZVG3SE0W1U2FRYG90VV5UBC&c=365799&tp_c=365799","firstResponseHeads":4,"firstResponseTails":1,"secondResponseHeads":4,"secondResponseTails":1,"totalHeads":8,"totalTails":2,"studentIndex":15,"studentTrueHypers":{"a":1,"b":4},"studentGuess":0.6,"delta":0.20000000000000007,"bonus":0,"bonusSoFar":4.85,"totalExamples":10},{"rt":10563,"response":{"heads":"1","tails":"1"},"type":"response","condition":"seqFeedback","trueTheta":0.5,"classrooms":["A","B"],"studentTrueClassroom":"A","exampleSet":"first","trial_type":"survey-html-form","trial_index":129,"time_elapsed":979888,"internal_node_id":"0.0-126.0-0.0","params":{"nStudents":24,"maxFlips":30,"completionMinutes":45,"basePay":8,"maxBonus":9,"perTrialBonus":0.5,"perTrialBonusThreshold":0.05,"exampleCost":0.01},"classroomParams":{"A":{"a":1,"b":4},"B":{"a":4,"b":1},"C":{"a":2,"b":8},"D":{"a":8,"b":2}},"conditions":["nonSeqFull","nonSeqPartial","seqNoFeedback","seqFeedback"],"classroomPairings":[["A","B"],["C","D"]],"coinWeights":[0.2,0.5,0.8],"subjectId":"A2G43KS55YGYQE","assignmentId":"3RANCT1ZVG3SE0W1U2FRYG90VV5UBC","hitId":"3SD15I2WD2G0NA4TSPXGB81L5S7630","url":"https://gershmanlab.com/experiments/alicia/teaching/experiment/?hitId=3SD15I2WD2G0NA4TSPXGB81L5S7630&workerId=A2G43KS55YGYQE&assignmentId=3RANCT1ZVG3SE0W1U2FRYG90VV5UBC&a=ZCAR9&tp_a=ZCAR9&b=3RANCT1ZVG3SE0W1U2FRYG90VV5UBC&tp_b=3RANCT1ZVG3SE0W1U2FRYG90VV5UBC&c=365799&tp_c=365799","heads":1,"tails":1,"studentIndex":16,"studentTrueHypers":{"a":1,"b":4},"studentGuess":0.2857142857142857,"delta":0.2142857142857143,"totalExamples":2,"bonusSoFar":4.85},{"rt":10594,"response":{"heads":"5","tails":"1"},"type":"response","condition":"seqFeedback","trueTheta":0.5,"classrooms":["A","B"],"studentTrueClassroom":"A","exampleSet":"second","trial_type":"survey-html-form","trial_index":133,"time_elapsed":1005831,"internal_node_id":"0.0-130.0-0.0","params":{"nStudents":24,"maxFlips":30,"completionMinutes":45,"basePay":8,"maxBonus":9,"perTrialBonus":0.5,"perTrialBonusThreshold":0.05,"exampleCost":0.01},"classroomParams":{"A":{"a":1,"b":4},"B":{"a":4,"b":1},"C":{"a":2,"b":8},"D":{"a":8,"b":2}},"conditions":["nonSeqFull","nonSeqPartial","seqNoFeedback","seqFeedback"],"classroomPairings":[["A","B"],["C","D"]],"coinWeights":[0.2,0.5,0.8],"subjectId":"A2G43KS55YGYQE","assignmentId":"3RANCT1ZVG3SE0W1U2FRYG90VV5UBC","hitId":"3SD15I2WD2G0NA4TSPXGB81L5S7630","url":"https://gershmanlab.com/experiments/alicia/teaching/experiment/?hitId=3SD15I2WD2G0NA4TSPXGB81L5S7630&workerId=A2G43KS55YGYQE&assignmentId=3RANCT1ZVG3SE0W1U2FRYG90VV5UBC&a=ZCAR9&tp_a=ZCAR9&b=3RANCT1ZVG3SE0W1U2FRYG90VV5UBC&tp_b=3RANCT1ZVG3SE0W1U2FRYG90VV5UBC&c=365799&tp_c=365799","firstResponseHeads":1,"firstResponseTails":1,"secondResponseHeads":5,"secondResponseTails":1,"totalHeads":6,"totalTails":2,"studentIndex":16,"studentTrueHypers":{"a":1,"b":4},"studentGuess":0.5384615384615384,"delta":0.038461538461538436,"bonus":0.42,"bonusSoFar":5.27,"totalExamples":8},{"rt":7949,"response":{"heads":"1","tails":"4"},"type":"response","condition":"nonSeqFull","trueTheta":0.2,"classrooms":["A","B"],"studentTrueClassroom":"A","exampleSet":"first","trial_type":"survey-html-form","trial_index":139,"time_elapsed":1033546,"internal_node_id":"0.0-136.0-0.0","params":{"nStudents":24,"maxFlips":30,"completionMinutes":45,"basePay":8,"maxBonus":9,"perTrialBonus":0.5,"perTrialBonusThreshold":0.05,"exampleCost":0.01},"classroomParams":{"A":{"a":1,"b":4},"B":{"a":4,"b":1},"C":{"a":2,"b":8},"D":{"a":8,"b":2}},"conditions":["nonSeqFull","nonSeqPartial","seqNoFeedback","seqFeedback"],"classroomPairings":[["A","B"],["C","D"]],"coinWeights":[0.2,0.5,0.8],"subjectId":"A2G43KS55YGYQE","assignmentId":"3RANCT1ZVG3SE0W1U2FRYG90VV5UBC","hitId":"3SD15I2WD2G0NA4TSPXGB81L5S7630","url":"https://gershmanlab.com/experiments/alicia/teaching/experiment/?hitId=3SD15I2WD2G0NA4TSPXGB81L5S7630&workerId=A2G43KS55YGYQE&assignmentId=3RANCT1ZVG3SE0W1U2FRYG90VV5UBC&a=ZCAR9&tp_a=ZCAR9&b=3RANCT1ZVG3SE0W1U2FRYG90VV5UBC&tp_b=3RANCT1ZVG3SE0W1U2FRYG90VV5UBC&c=365799&tp_c=365799","heads":1,"tails":4,"studentIndex":17,"studentTrueHypers":{"a":1,"b":4},"studentGuess":0.2,"delta":0,"totalExamples":5,"bonus":0.45,"bonusSoFar":5.72},{"rt":9555,"response":{"heads":"1","tails":"1"},"type":"response","condition":"seqNoFeedback","trueTheta":0.5,"classrooms":["C","D"],"studentTrueClassroom":"C","exampleSet":"first","trial_type":"survey-html-form","trial_index":145,"time_elapsed":1057776,"internal_node_id":"0.0-142.0-0.0","params":{"nStudents":24,"maxFlips":30,"completionMinutes":45,"basePay":8,"maxBonus":9,"perTrialBonus":0.5,"perTrialBonusThreshold":0.05,"exampleCost":0.01},"classroomParams":{"A":{"a":1,"b":4},"B":{"a":4,"b":1},"C":{"a":2,"b":8},"D":{"a":8,"b":2}},"conditions":["nonSeqFull","nonSeqPartial","seqNoFeedback","seqFeedback"],"classroomPairings":[["A","B"],["C","D"]],"coinWeights":[0.2,0.5,0.8],"subjectId":"A2G43KS55YGYQE","assignmentId":"3RANCT1ZVG3SE0W1U2FRYG90VV5UBC","hitId":"3SD15I2WD2G0NA4TSPXGB81L5S7630","url":"https://gershmanlab.com/experiments/alicia/teaching/experiment/?hitId=3SD15I2WD2G0NA4TSPXGB81L5S7630&workerId=A2G43KS55YGYQE&assignmentId=3RANCT1ZVG3SE0W1U2FRYG90VV5UBC&a=ZCAR9&tp_a=ZCAR9&b=3RANCT1ZVG3SE0W1U2FRYG90VV5UBC&tp_b=3RANCT1ZVG3SE0W1U2FRYG90VV5UBC&c=365799&tp_c=365799","heads":1,"tails":1,"studentIndex":18,"studentTrueHypers":{"a":2,"b":8},"studentGuess":0.25,"delta":0.25,"totalExamples":2,"bonusSoFar":5.72},{"rt":12038,"response":{"heads":"2","tails":"2"},"type":"response","condition":"seqNoFeedback","trueTheta":0.5,"classrooms":["C","D"],"studentTrueClassroom":"C","exampleSet":"second","trial_type":"survey-html-form","trial_index":148,"time_elapsed":1076330,"internal_node_id":"0.0-145.0-0.0","params":{"nStudents":24,"maxFlips":30,"completionMinutes":45,"basePay":8,"maxBonus":9,"perTrialBonus":0.5,"perTrialBonusThreshold":0.05,"exampleCost":0.01},"classroomParams":{"A":{"a":1,"b":4},"B":{"a":4,"b":1},"C":{"a":2,"b":8},"D":{"a":8,"b":2}},"conditions":["nonSeqFull","nonSeqPartial","seqNoFeedback","seqFeedback"],"classroomPairings":[["A","B"],["C","D"]],"coinWeights":[0.2,0.5,0.8],"subjectId":"A2G43KS55YGYQE","assignmentId":"3RANCT1ZVG3SE0W1U2FRYG90VV5UBC","hitId":"3SD15I2WD2G0NA4TSPXGB81L5S7630","url":"https://gershmanlab.com/experiments/alicia/teaching/experiment/?hitId=3SD15I2WD2G0NA4TSPXGB81L5S7630&workerId=A2G43KS55YGYQE&assignmentId=3RANCT1ZVG3SE0W1U2FRYG90VV5UBC&a=ZCAR9&tp_a=ZCAR9&b=3RANCT1ZVG3SE0W1U2FRYG90VV5UBC&tp_b=3RANCT1ZVG3SE0W1U2FRYG90VV5UBC&c=365799&tp_c=365799","firstResponseHeads":1,"firstResponseTails":1,"secondResponseHeads":2,"secondResponseTails":2,"totalHeads":3,"totalTails":3,"studentIndex":18,"studentTrueHypers":{"a":2,"b":8},"studentGuess":0.3125,"delta":0.1875,"bonus":0,"bonusSoFar":5.72,"totalExamples":6},{"rt":8901,"response":{"heads":"1","tails":"4"},"type":"response","condition":"nonSeqPartial","trueTheta":0.2,"classrooms":["A","B"],"studentTrueClassroom":"B","exampleSet":"first","trial_type":"survey-html-form","trial_index":154,"time_elapsed":1100516,"internal_node_id":"0.0-151.0-0.0","params":{"nStudents":24,"maxFlips":30,"completionMinutes":45,"basePay":8,"maxBonus":9,"perTrialBonus":0.5,"perTrialBonusThreshold":0.05,"exampleCost":0.01},"classroomParams":{"A":{"a":1,"b":4},"B":{"a":4,"b":1},"C":{"a":2,"b":8},"D":{"a":8,"b":2}},"conditions":["nonSeqFull","nonSeqPartial","seqNoFeedback","seqFeedback"],"classroomPairings":[["A","B"],["C","D"]],"coinWeights":[0.2,0.5,0.8],"subjectId":"A2G43KS55YGYQE","assignmentId":"3RANCT1ZVG3SE0W1U2FRYG90VV5UBC","hitId":"3SD15I2WD2G0NA4TSPXGB81L5S7630","url":"https://gershmanlab.com/experiments/alicia/teaching/experiment/?hitId=3SD15I2WD2G0NA4TSPXGB81L5S7630&workerId=A2G43KS55YGYQE&assignmentId=3RANCT1ZVG3SE0W1U2FRYG90VV5UBC&a=ZCAR9&tp_a=ZCAR9&b=3RANCT1ZVG3SE0W1U2FRYG90VV5UBC&tp_b=3RANCT1ZVG3SE0W1U2FRYG90VV5UBC&c=365799&tp_c=365799","heads":1,"tails":4,"studentIndex":19,"studentTrueHypers":{"a":4,"b":1},"studentGuess":0.5,"delta":0.3,"totalExamples":5,"bonus":0,"bonusSoFar":5.72},{"rt":9679,"response":{"heads":"6","tails":"0"},"type":"response","condition":"nonSeqFull","trueTheta":0.5,"classrooms":["C","D"],"studentTrueClassroom":"C","exampleSet":"first","trial_type":"survey-html-form","trial_index":160,"time_elapsed":1127821,"internal_node_id":"0.0-157.0-0.0","params":{"nStudents":24,"maxFlips":30,"completionMinutes":45,"basePay":8,"maxBonus":9,"perTrialBonus":0.5,"perTrialBonusThreshold":0.05,"exampleCost":0.01},"classroomParams":{"A":{"a":1,"b":4},"B":{"a":4,"b":1},"C":{"a":2,"b":8},"D":{"a":8,"b":2}},"conditions":["nonSeqFull","nonSeqPartial","seqNoFeedback","seqFeedback"],"classroomPairings":[["A","B"],["C","D"]],"coinWeights":[0.2,0.5,0.8],"subjectId":"A2G43KS55YGYQE","assignmentId":"3RANCT1ZVG3SE0W1U2FRYG90VV5UBC","hitId":"3SD15I2WD2G0NA4TSPXGB81L5S7630","url":"https://gershmanlab.com/experiments/alicia/teaching/experiment/?hitId=3SD15I2WD2G0NA4TSPXGB81L5S7630&workerId=A2G43KS55YGYQE&assignmentId=3RANCT1ZVG3SE0W1U2FRYG90VV5UBC&a=ZCAR9&tp_a=ZCAR9&b=3RANCT1ZVG3SE0W1U2FRYG90VV5UBC&tp_b=3RANCT1ZVG3SE0W1U2FRYG90VV5UBC&c=365799&tp_c=365799","heads":6,"tails":0,"studentIndex":20,"studentTrueHypers":{"a":2,"b":8},"studentGuess":0.5,"delta":0,"totalExamples":6,"bonus":0.44,"bonusSoFar":6.16},{"rt":17037,"response":{"heads":"1","tails":"4"},"type":"response","condition":"seqFeedback","trueTheta":0.2,"classrooms":["A","B"],"studentTrueClassroom":"A","exampleSet":"first","trial_type":"survey-html-form","trial_index":166,"time_elapsed":1165102,"internal_node_id":"0.0-163.0-0.0","params":{"nStudents":24,"maxFlips":30,"completionMinutes":45,"basePay":8,"maxBonus":9,"perTrialBonus":0.5,"perTrialBonusThreshold":0.05,"exampleCost":0.01},"classroomParams":{"A":{"a":1,"b":4},"B":{"a":4,"b":1},"C":{"a":2,"b":8},"D":{"a":8,"b":2}},"conditions":["nonSeqFull","nonSeqPartial","seqNoFeedback","seqFeedback"],"classroomPairings":[["A","B"],["C","D"]],"coinWeights":[0.2,0.5,0.8],"subjectId":"A2G43KS55YGYQE","assignmentId":"3RANCT1ZVG3SE0W1U2FRYG90VV5UBC","hitId":"3SD15I2WD2G0NA4TSPXGB81L5S7630","url":"https://gershmanlab.com/experiments/alicia/teaching/experiment/?hitId=3SD15I2WD2G0NA4TSPXGB81L5S7630&workerId=A2G43KS55YGYQE&assignmentId=3RANCT1ZVG3SE0W1U2FRYG90VV5UBC&a=ZCAR9&tp_a=ZCAR9&b=3RANCT1ZVG3SE0W1U2FRYG90VV5UBC&tp_b=3RANCT1ZVG3SE0W1U2FRYG90VV5UBC&c=365799&tp_c=365799","heads":1,"tails":4,"studentIndex":21,"studentTrueHypers":{"a":1,"b":4},"studentGuess":0.2,"delta":0,"totalExamples":5,"bonusSoFar":6.16},{"rt":6969,"response":{"heads":"1","tails":"4"},"type":"response","condition":"seqFeedback","trueTheta":0.2,"classrooms":["A","B"],"studentTrueClassroom":"A","exampleSet":"second","trial_type":"survey-html-form","trial_index":170,"time_elapsed":1185337,"internal_node_id":"0.0-167.0-0.0","params":{"nStudents":24,"maxFlips":30,"completionMinutes":45,"basePay":8,"maxBonus":9,"perTrialBonus":0.5,"perTrialBonusThreshold":0.05,"exampleCost":0.01},"classroomParams":{"A":{"a":1,"b":4},"B":{"a":4,"b":1},"C":{"a":2,"b":8},"D":{"a":8,"b":2}},"conditions":["nonSeqFull","nonSeqPartial","seqNoFeedback","seqFeedback"],"classroomPairings":[["A","B"],["C","D"]],"coinWeights":[0.2,0.5,0.8],"subjectId":"A2G43KS55YGYQE","assignmentId":"3RANCT1ZVG3SE0W1U2FRYG90VV5UBC","hitId":"3SD15I2WD2G0NA4TSPXGB81L5S7630","url":"https://gershmanlab.com/experiments/alicia/teaching/experiment/?hitId=3SD15I2WD2G0NA4TSPXGB81L5S7630&workerId=A2G43KS55YGYQE&assignmentId=3RANCT1ZVG3SE0W1U2FRYG90VV5UBC&a=ZCAR9&tp_a=ZCAR9&b=3RANCT1ZVG3SE0W1U2FRYG90VV5UBC&tp_b=3RANCT1ZVG3SE0W1U2FRYG90VV5UBC&c=365799&tp_c=365799","firstResponseHeads":1,"firstResponseTails":4,"secondResponseHeads":1,"secondResponseTails":4,"totalHeads":2,"totalTails":8,"studentIndex":21,"studentTrueHypers":{"a":1,"b":4},"studentGuess":0.2,"delta":0,"bonus":0.4,"bonusSoFar":6.56,"totalExamples":10},{"rt":11166,"response":{"heads":"4","tails":"1"},"type":"response","condition":"seqNoFeedback","trueTheta":0.8,"classrooms":["C","D"],"studentTrueClassroom":"D","exampleSet":"first","trial_type":"survey-html-form","trial_index":176,"time_elapsed":1210482,"internal_node_id":"0.0-173.0-0.0","params":{"nStudents":24,"maxFlips":30,"completionMinutes":45,"basePay":8,"maxBonus":9,"perTrialBonus":0.5,"perTrialBonusThreshold":0.05,"exampleCost":0.01},"classroomParams":{"A":{"a":1,"b":4},"B":{"a":4,"b":1},"C":{"a":2,"b":8},"D":{"a":8,"b":2}},"conditions":["nonSeqFull","nonSeqPartial","seqNoFeedback","seqFeedback"],"classroomPairings":[["A","B"],["C","D"]],"coinWeights":[0.2,0.5,0.8],"subjectId":"A2G43KS55YGYQE","assignmentId":"3RANCT1ZVG3SE0W1U2FRYG90VV5UBC","hitId":"3SD15I2WD2G0NA4TSPXGB81L5S7630","url":"https://gershmanlab.com/experiments/alicia/teaching/experiment/?hitId=3SD15I2WD2G0NA4TSPXGB81L5S7630&workerId=A2G43KS55YGYQE&assignmentId=3RANCT1ZVG3SE0W1U2FRYG90VV5UBC&a=ZCAR9&tp_a=ZCAR9&b=3RANCT1ZVG3SE0W1U2FRYG90VV5UBC&tp_b=3RANCT1ZVG3SE0W1U2FRYG90VV5UBC&c=365799&tp_c=365799","heads":4,"tails":1,"studentIndex":22,"studentTrueHypers":{"a":8,"b":2},"studentGuess":0.8,"delta":0,"totalExamples":5,"bonusSoFar":6.56},{"rt":16536,"response":{"heads":"4","tails":"1"},"type":"response","condition":"seqNoFeedback","trueTheta":0.8,"classrooms":["C","D"],"studentTrueClassroom":"D","exampleSet":"second","trial_type":"survey-html-form","trial_index":179,"time_elapsed":1233040,"internal_node_id":"0.0-176.0-0.0","params":{"nStudents":24,"maxFlips":30,"completionMinutes":45,"basePay":8,"maxBonus":9,"perTrialBonus":0.5,"perTrialBonusThreshold":0.05,"exampleCost":0.01},"classroomParams":{"A":{"a":1,"b":4},"B":{"a":4,"b":1},"C":{"a":2,"b":8},"D":{"a":8,"b":2}},"conditions":["nonSeqFull","nonSeqPartial","seqNoFeedback","seqFeedback"],"classroomPairings":[["A","B"],["C","D"]],"coinWeights":[0.2,0.5,0.8],"subjectId":"A2G43KS55YGYQE","assignmentId":"3RANCT1ZVG3SE0W1U2FRYG90VV5UBC","hitId":"3SD15I2WD2G0NA4TSPXGB81L5S7630","url":"https://gershmanlab.com/experiments/alicia/teaching/experiment/?hitId=3SD15I2WD2G0NA4TSPXGB81L5S7630&workerId=A2G43KS55YGYQE&assignmentId=3RANCT1ZVG3SE0W1U2FRYG90VV5UBC&a=ZCAR9&tp_a=ZCAR9&b=3RANCT1ZVG3SE0W1U2FRYG90VV5UBC&tp_b=3RANCT1ZVG3SE0W1U2FRYG90VV5UBC&c=365799&tp_c=365799","firstResponseHeads":4,"firstResponseTails":1,"secondResponseHeads":4,"secondResponseTails":1,"totalHeads":8,"totalTails":2,"studentIndex":22,"studentTrueHypers":{"a":8,"b":2},"studentGuess":0.8,"delta":0,"bonus":0.4,"bonusSoFar":6.96,"totalExamples":10},{"rt":8366,"response":{"heads":"4","tails":"1"},"type":"response","condition":"seqFeedback","trueTheta":0.8,"classrooms":["C","D"],"studentTrueClassroom":"C","exampleSet":"first","trial_type":"survey-html-form","trial_index":185,"time_elapsed":1260284,"internal_node_id":"0.0-182.0-0.0","params":{"nStudents":24,"maxFlips":30,"completionMinutes":45,"basePay":8,"maxBonus":9,"perTrialBonus":0.5,"perTrialBonusThreshold":0.05,"exampleCost":0.01},"classroomParams":{"A":{"a":1,"b":4},"B":{"a":4,"b":1},"C":{"a":2,"b":8},"D":{"a":8,"b":2}},"conditions":["nonSeqFull","nonSeqPartial","seqNoFeedback","seqFeedback"],"classroomPairings":[["A","B"],["C","D"]],"coinWeights":[0.2,0.5,0.8],"subjectId":"A2G43KS55YGYQE","assignmentId":"3RANCT1ZVG3SE0W1U2FRYG90VV5UBC","hitId":"3SD15I2WD2G0NA4TSPXGB81L5S7630","url":"https://gershmanlab.com/experiments/alicia/teaching/experiment/?hitId=3SD15I2WD2G0NA4TSPXGB81L5S7630&workerId=A2G43KS55YGYQE&assignmentId=3RANCT1ZVG3SE0W1U2FRYG90VV5UBC&a=ZCAR9&tp_a=ZCAR9&b=3RANCT1ZVG3SE0W1U2FRYG90VV5UBC&tp_b=3RANCT1ZVG3SE0W1U2FRYG90VV5UBC&c=365799&tp_c=365799","heads":4,"tails":1,"studentIndex":23,"studentTrueHypers":{"a":2,"b":8},"studentGuess":0.4,"delta":0.4,"totalExamples":5,"bonusSoFar":6.96},{"rt":19199,"response":{"heads":"10","tails":"0"},"type":"response","condition":"seqFeedback","trueTheta":0.8,"classrooms":["C","D"],"studentTrueClassroom":"C","exampleSet":"second","trial_type":"survey-html-form","trial_index":189,"time_elapsed":1291294,"internal_node_id":"0.0-186.0-0.0","params":{"nStudents":24,"maxFlips":30,"completionMinutes":45,"basePay":8,"maxBonus":9,"perTrialBonus":0.5,"perTrialBonusThreshold":0.05,"exampleCost":0.01},"classroomParams":{"A":{"a":1,"b":4},"B":{"a":4,"b":1},"C":{"a":2,"b":8},"D":{"a":8,"b":2}},"conditions":["nonSeqFull","nonSeqPartial","seqNoFeedback","seqFeedback"],"classroomPairings":[["A","B"],["C","D"]],"coinWeights":[0.2,0.5,0.8],"subjectId":"A2G43KS55YGYQE","assignmentId":"3RANCT1ZVG3SE0W1U2FRYG90VV5UBC","hitId":"3SD15I2WD2G0NA4TSPXGB81L5S7630","url":"https://gershmanlab.com/experiments/alicia/teaching/experiment/?hitId=3SD15I2WD2G0NA4TSPXGB81L5S7630&workerId=A2G43KS55YGYQE&assignmentId=3RANCT1ZVG3SE0W1U2FRYG90VV5UBC&a=ZCAR9&tp_a=ZCAR9&b=3RANCT1ZVG3SE0W1U2FRYG90VV5UBC&tp_b=3RANCT1ZVG3SE0W1U2FRYG90VV5UBC&c=365799&tp_c=365799","firstResponseHeads":4,"firstResponseTails":1,"secondResponseHeads":10,"secondResponseTails":0,"totalHeads":14,"totalTails":1,"studentIndex":23,"studentTrueHypers":{"a":2,"b":8},"studentGuess":0.64,"delta":0.16000000000000003,"bonus":0,"bonusSoFar":6.96,"totalExamples":15},{"rt":9558,"response":{"gender":"male","age":"62","understood":"yes","comments":""},"type":"response","trial_type":"survey-html-form","trial_index":193,"time_elapsed":1311279,"internal_node_id":"0.0-191.0","params":{"nStudents":24,"maxFlips":30,"completionMinutes":45,"basePay":8,"maxBonus":9,"perTrialBonus":0.5,"perTrialBonusThreshold":0.05,"exampleCost":0.01},"classroomParams":{"A":{"a":1,"b":4},"B":{"a":4,"b":1},"C":{"a":2,"b":8},"D":{"a":8,"b":2}},"conditions":["nonSeqFull","nonSeqPartial","seqNoFeedback","seqFeedback"],"classroomPairings":[["A","B"],["C","D"]],"coinWeights":[0.2,0.5,0.8],"subjectId":"A2G43KS55YGYQE","assignmentId":"3RANCT1ZVG3SE0W1U2FRYG90VV5UBC","hitId":"3SD15I2WD2G0NA4TSPXGB81L5S7630","url":"https://gershmanlab.com/experiments/alicia/teaching/experiment/?hitId=3SD15I2WD2G0NA4TSPXGB81L5S7630&workerId=A2G43KS55YGYQE&assignmentId=3RANCT1ZVG3SE0W1U2FRYG90VV5UBC&a=ZCAR9&tp_a=ZCAR9&b=3RANCT1ZVG3SE0W1U2FRYG90VV5UBC&tp_b=3RANCT1ZVG3SE0W1U2FRYG90VV5UBC&c=365799&tp_c=365799","totalBonus":6.96}]