[{"rt":14223,"response":{"heads":"4","tails":"1"},"type":"response","condition":"seqNoFeedback","trueTheta":0.8,"classrooms":["C","D"],"studentTrueClassroom":"C","exampleSet":"first","trial_type":"survey-html-form","trial_index":22,"time_elapsed":891418,"internal_node_id":"0.0-6.0-0.0","params":{"nStudents":24,"maxFlips":30,"completionMinutes":45,"basePay":8,"maxBonus":9,"perTrialBonus":0.5,"perTrialBonusThreshold":0.05,"exampleCost":0.01},"classroomParams":{"A":{"a":1,"b":4},"B":{"a":4,"b":1},"C":{"a":2,"b":8},"D":{"a":8,"b":2}},"conditions":["nonSeqFull","nonSeqPartial","seqNoFeedback","seqFeedback"],"classroomPairings":[["A","B"],["C","D"]],"coinWeights":[0.2,0.5,0.8],"subjectId":"A2GXEIRTHCKDHK","assignmentId":"3K4J6M3CXFF4Q8QE4JQEZQO3455AGX","hitId":"3UDTAB6HH6LRO17U79I9TKUGSHV90J","url":"https://gershmanlab.com/experiments/alicia/teaching/experiment/?hitId=3UDTAB6HH6LRO17U79I9TKUGSHV90J&workerId=A2GXEIRTHCKDHK&assignmentId=3K4J6M3CXFF4Q8QE4JQEZQO3455AGX&a=C64K9&tp_a=C64K9&b=3K4J6M3CXFF4Q8QE4JQEZQO3455AGX&tp_b=3K4J6M3CXFF4Q8QE4JQEZQO3455AGX&c=365799&tp_c=365799","heads":4,"tails":1,"studentIndex":0,"studentTrueHypers":{"a":2,"b":8},"studentGuess":0.4,"delta":0.4,"totalExamples":5,"bonusSoFar":0},{"rt":15616,"response":{"heads":"8","tails":"2"},"type":"response","condition":"seqNoFeedback","trueTheta":0.8,"classrooms":["C","D"],"studentTrueClassroom":"C","exampleSet":"second","trial_type":"survey-html-form","trial_index":25,"time_elapsed":912326,"internal_node_id":"0.0-9.0-0.0","params":{"nStudents":24,"maxFlips":30,"completionMinutes":45,"basePay":8,"maxBonus":9,"perTrialBonus":0.5,"perTrialBonusThreshold":0.05,"exampleCost":0.01},"classroomParams":{"A":{"a":1,"b":4},"B":{"a":4,"b":1},"C":{"a":2,"b":8},"D":{"a":8,"b":2}},"conditions":["nonSeqFull","nonSeqPartial","seqNoFeedback","seqFeedback"],"classroomPairings":[["A","B"],["C","D"]],"coinWeights":[0.2,0.5,0.8],"subjectId":"A2GXEIRTHCKDHK","assignmentId":"3K4J6M3CXFF4Q8QE4JQEZQO3455AGX","hitId":"3UDTAB6HH6LRO17U79I9TKUGSHV90J","url":"https://gershmanlab.com/experiments/alicia/teaching/experiment/?hitId=3UDTAB6HH6LRO17U79I9TKUGSHV90J&workerId=A2GXEIRTHCKDHK&assignmentId=3K4J6M3CXFF4Q8QE4JQEZQO3455AGX&a=C64K9&tp_a=C64K9&b=3K4J6M3CXFF4Q8QE4JQEZQO3455AGX&tp_b=3K4J6M3CXFF4Q8QE4JQEZQO3455AGX&c=365799&tp_c=365799","firstResponseHeads":4,"firstResponseTails":1,"secondResponseHeads":8,"secondResponseTails":2,"totalHeads":12,"totalTails":3,"studentIndex":0,"studentTrueHypers":{"a":2,"b":8},"studentGuess":0.56,"delta":0.24,"bonus":0,"bonusSoFar":0,"totalExamples":15},{"rt":11580,"response":{"heads":"1","tails":"4"},"type":"response","condition":"nonSeqFull","trueTheta":0.2,"classrooms":["C","D"],"studentTrueClassroom":"C","exampleSet":"first","trial_type":"survey-html-form","trial_index":31,"time_elapsed":969138,"internal_node_id":"0.0-15.0-0.0","params":{"nStudents":24,"maxFlips":30,"completionMinutes":45,"basePay":8,"maxBonus":9,"perTrialBonus":0.5,"perTrialBonusThreshold":0.05,"exampleCost":0.01},"classroomParams":{"A":{"a":1,"b":4},"B":{"a":4,"b":1},"C":{"a":2,"b":8},"D":{"a":8,"b":2}},"conditions":["nonSeqFull","nonSeqPartial","seqNoFeedback","seqFeedback"],"classroomPairings":[["A","B"],["C","D"]],"coinWeights":[0.2,0.5,0.8],"subjectId":"A2GXEIRTHCKDHK","assignmentId":"3K4J6M3CXFF4Q8QE4JQEZQO3455AGX","hitId":"3UDTAB6HH6LRO17U79I9TKUGSHV90J","url":"https://gershmanlab.com/experiments/alicia/teaching/experiment/?hitId=3UDTAB6HH6LRO17U79I9TKUGSHV90J&workerId=A2GXEIRTHCKDHK&assignmentId=3K4J6M3CXFF4Q8QE4JQEZQO3455AGX&a=C64K9&tp_a=C64K9&b=3K4J6M3CXFF4Q8QE4JQEZQO3455AGX&tp_b=3K4J6M3CXFF4Q8QE4JQEZQO3455AGX&c=365799&tp_c=365799","heads":1,"tails":4,"studentIndex":1,"studentTrueHypers":{"a":2,"b":8},"studentGuess":0.2,"delta":0,"totalExamples":5,"bonus":0.45,"bonusSoFar":0.45},{"rt":9078,"response":{"heads":"4","tails":"1"},"type":"response","condition":"nonSeqPartial","trueTheta":0.8,"classrooms":["A","B"],"studentTrueClassroom":"B","exampleSet":"first","trial_type":"survey-html-form","trial_index":37,"time_elapsed":993026,"internal_node_id":"0.0-21.0-0.0","params":{"nStudents":24,"maxFlips":30,"completionMinutes":45,"basePay":8,"maxBonus":9,"perTrialBonus":0.5,"perTrialBonusThreshold":0.05,"exampleCost":0.01},"classroomParams":{"A":{"a":1,"b":4},"B":{"a":4,"b":1},"C":{"a":2,"b":8},"D":{"a":8,"b":2}},"conditions":["nonSeqFull","nonSeqPartial","seqNoFeedback","seqFeedback"],"classroomPairings":[["A","B"],["C","D"]],"coinWeights":[0.2,0.5,0.8],"subjectId":"A2GXEIRTHCKDHK","assignmentId":"3K4J6M3CXFF4Q8QE4JQEZQO3455AGX","hitId":"3UDTAB6HH6LRO17U79I9TKUGSHV90J","url":"https://gershmanlab.com/experiments/alicia/teaching/experiment/?hitId=3UDTAB6HH6LRO17U79I9TKUGSHV90J&workerId=A2GXEIRTHCKDHK&assignmentId=3K4J6M3CXFF4Q8QE4JQEZQO3455AGX&a=C64K9&tp_a=C64K9&b=3K4J6M3CXFF4Q8QE4JQEZQO3455AGX&tp_b=3K4J6M3CXFF4Q8QE4JQEZQO3455AGX&c=365799&tp_c=365799","heads":4,"tails":1,"studentIndex":2,"studentTrueHypers":{"a":4,"b":1},"studentGuess":0.8,"delta":0,"totalExamples":5,"bonus":0.45,"bonusSoFar":0.9},{"rt":4782,"response":{"heads":"1","tails":"1"},"type":"response","condition":"nonSeqPartial","trueTheta":0.5,"classrooms":["C","D"],"studentTrueClassroom":"C","exampleSet":"first","trial_type":"survey-html-form","trial_index":43,"time_elapsed":1028188,"internal_node_id":"0.0-27.0-0.0","params":{"nStudents":24,"maxFlips":30,"completionMinutes":45,"basePay":8,"maxBonus":9,"perTrialBonus":0.5,"perTrialBonusThreshold":0.05,"exampleCost":0.01},"classroomParams":{"A":{"a":1,"b":4},"B":{"a":4,"b":1},"C":{"a":2,"b":8},"D":{"a":8,"b":2}},"conditions":["nonSeqFull","nonSeqPartial","seqNoFeedback","seqFeedback"],"classroomPairings":[["A","B"],["C","D"]],"coinWeights":[0.2,0.5,0.8],"subjectId":"A2GXEIRTHCKDHK","assignmentId":"3K4J6M3CXFF4Q8QE4JQEZQO3455AGX","hitId":"3UDTAB6HH6LRO17U79I9TKUGSHV90J","url":"https://gershmanlab.com/experiments/alicia/teaching/experiment/?hitId=3UDTAB6HH6LRO17U79I9TKUGSHV90J&workerId=A2GXEIRTHCKDHK&assignmentId=3K4J6M3CXFF4Q8QE4JQEZQO3455AGX&a=C64K9&tp_a=C64K9&b=3K4J6M3CXFF4Q8QE4JQEZQO3455AGX&tp_b=3K4J6M3CXFF4Q8QE4JQEZQO3455AGX&c=365799&tp_c=365799","heads":1,"tails":1,"studentIndex":3,"studentTrueHypers":{"a":2,"b":8},"studentGuess":0.25,"delta":0.25,"totalExamples":2,"bonus":0,"bonusSoFar":0.9},{"rt":7173,"response":{"heads":"1","tails":"5"},"type":"response","condition":"nonSeqPartial","trueTheta":0.2,"classrooms":["A","B"],"studentTrueClassroom":"B","exampleSet":"first","trial_type":"survey-html-form","trial_index":49,"time_elapsed":1051028,"internal_node_id":"0.0-33.0-0.0","params":{"nStudents":24,"maxFlips":30,"completionMinutes":45,"basePay":8,"maxBonus":9,"perTrialBonus":0.5,"perTrialBonusThreshold":0.05,"exampleCost":0.01},"classroomParams":{"A":{"a":1,"b":4},"B":{"a":4,"b":1},"C":{"a":2,"b":8},"D":{"a":8,"b":2}},"conditions":["nonSeqFull","nonSeqPartial","seqNoFeedback","seqFeedback"],"classroomPairings":[["A","B"],["C","D"]],"coinWeights":[0.2,0.5,0.8],"subjectId":"A2GXEIRTHCKDHK","assignmentId":"3K4J6M3CXFF4Q8QE4JQEZQO3455AGX","hitId":"3UDTAB6HH6LRO17U79I9TKUGSHV90J","url":"https://gershmanlab.com/experiments/alicia/teaching/experiment/?hitId=3UDTAB6HH6LRO17U79I9TKUGSHV90J&workerId=A2GXEIRTHCKDHK&assignmentId=3K4J6M3CXFF4Q8QE4JQEZQO3455AGX&a=C64K9&tp_a=C64K9&b=3K4J6M3CXFF4Q8QE4JQEZQO3455AGX&tp_b=3K4J6M3CXFF4Q8QE4JQEZQO3455AGX&c=365799&tp_c=365799","heads":1,"tails":5,"studentIndex":4,"studentTrueHypers":{"a":4,"b":1},"studentGuess":0.45454545454545453,"delta":0.2545454545454545,"totalExamples":6,"bonus":0,"bonusSoFar":0.9},{"rt":12004,"response":{"heads":"0","tails":"4"},"type":"response","condition":"seqFeedback","trueTheta":0.2,"classrooms":["A","B"],"studentTrueClassroom":"A","exampleSet":"first","trial_type":"survey-html-form","trial_index":55,"time_elapsed":1075797,"internal_node_id":"0.0-39.0-0.0","params":{"nStudents":24,"maxFlips":30,"completionMinutes":45,"basePay":8,"maxBonus":9,"perTrialBonus":0.5,"perTrialBonusThreshold":0.05,"exampleCost":0.01},"classroomParams":{"A":{"a":1,"b":4},"B":{"a":4,"b":1},"C":{"a":2,"b":8},"D":{"a":8,"b":2}},"conditions":["nonSeqFull","nonSeqPartial","seqNoFeedback","seqFeedback"],"classroomPairings":[["A","B"],["C","D"]],"coinWeights":[0.2,0.5,0.8],"subjectId":"A2GXEIRTHCKDHK","assignmentId":"3K4J6M3CXFF4Q8QE4JQEZQO3455AGX","hitId":"3UDTAB6HH6LRO17U79I9TKUGSHV90J","url":"https://gershmanlab.com/experiments/alicia/teaching/experiment/?hitId=3UDTAB6HH6LRO17U79I9TKUGSHV90J&workerId=A2GXEIRTHCKDHK&assignmentId=3K4J6M3CXFF4Q8QE4JQEZQO3455AGX&a=C64K9&tp_a=C64K9&b=3K4J6M3CXFF4Q8QE4JQEZQO3455AGX&tp_b=3K4J6M3CXFF4Q8QE4JQEZQO3455AGX&c=365799&tp_c=365799","heads":0,"tails":4,"studentIndex":5,"studentTrueHypers":{"a":1,"b":4},"studentGuess":0.1111111111111111,"delta":0.0888888888888889,"totalExamples":4,"bonusSoFar":0.9},{"rt":9702,"response":{"heads":"1","tails":"6"},"type":"response","condition":"seqFeedback","trueTheta":0.2,"classrooms":["A","B"],"studentTrueClassroom":"A","exampleSet":"second","trial_type":"survey-html-form","trial_index":59,"time_elapsed":1095555,"internal_node_id":"0.0-43.0-0.0","params":{"nStudents":24,"maxFlips":30,"completionMinutes":45,"basePay":8,"maxBonus":9,"perTrialBonus":0.5,"perTrialBonusThreshold":0.05,"exampleCost":0.01},"classroomParams":{"A":{"a":1,"b":4},"B":{"a":4,"b":1},"C":{"a":2,"b":8},"D":{"a":8,"b":2}},"conditions":["nonSeqFull","nonSeqPartial","seqNoFeedback","seqFeedback"],"classroomPairings":[["A","B"],["C","D"]],"coinWeights":[0.2,0.5,0.8],"subjectId":"A2GXEIRTHCKDHK","assignmentId":"3K4J6M3CXFF4Q8QE4JQEZQO3455AGX","hitId":"3UDTAB6HH6LRO17U79I9TKUGSHV90J","url":"https://gershmanlab.com/experiments/alicia/teaching/experiment/?hitId=3UDTAB6HH6LRO17U79I9TKUGSHV90J&workerId=A2GXEIRTHCKDHK&assignmentId=3K4J6M3CXFF4Q8QE4JQEZQO3455AGX&a=C64K9&tp_a=C64K9&b=3K4J6M3CXFF4Q8QE4JQEZQO3455AGX&tp_b=3K4J6M3CXFF4Q8QE4JQEZQO3455AGX&c=365799&tp_c=365799","firstResponseHeads":0,"firstResponseTails":4,"secondResponseHeads":1,"secondResponseTails":6,"totalHeads":1,"totalTails":10,"studentIndex":5,"studentTrueHypers":{"a":1,"b":4},"studentGuess":0.125,"delta":0.07500000000000001,"bonus":0,"bonusSoFar":0.9,"totalExamples":11},{"rt":3380,"response":{"heads":"0","tails":"5"},"type":"response","condition":"seqFeedback","trueTheta":0.2,"classrooms":["C","D"],"studentTrueClassroom":"D","exampleSet":"first","trial_type":"survey-html-form","trial_index":65,"time_elapsed":1114836,"internal_node_id":"0.0-49.0-0.0","params":{"nStudents":24,"maxFlips":30,"completionMinutes":45,"basePay":8,"maxBonus":9,"perTrialBonus":0.5,"perTrialBonusThreshold":0.05,"exampleCost":0.01},"classroomParams":{"A":{"a":1,"b":4},"B":{"a":4,"b":1},"C":{"a":2,"b":8},"D":{"a":8,"b":2}},"conditions":["nonSeqFull","nonSeqPartial","seqNoFeedback","seqFeedback"],"classroomPairings":[["A","B"],["C","D"]],"coinWeights":[0.2,0.5,0.8],"subjectId":"A2GXEIRTHCKDHK","assignmentId":"3K4J6M3CXFF4Q8QE4JQEZQO3455AGX","hitId":"3UDTAB6HH6LRO17U79I9TKUGSHV90J","url":"https://gershmanlab.com/experiments/alicia/teaching/experiment/?hitId=3UDTAB6HH6LRO17U79I9TKUGSHV90J&workerId=A2GXEIRTHCKDHK&assignmentId=3K4J6M3CXFF4Q8QE4JQEZQO3455AGX&a=C64K9&tp_a=C64K9&b=3K4J6M3CXFF4Q8QE4JQEZQO3455AGX&tp_b=3K4J6M3CXFF4Q8QE4JQEZQO3455AGX&c=365799&tp_c=365799","heads":0,"tails":5,"studentIndex":6,"studentTrueHypers":{"a":8,"b":2},"studentGuess":0.5333333333333333,"delta":0.3333333333333333,"totalExamples":5,"bonusSoFar":0.9},{"rt":6264,"response":{"heads":"1","tails":"10"},"type":"response","condition":"seqFeedback","trueTheta":0.2,"classrooms":["C","D"],"studentTrueClassroom":"D","exampleSet":"second","trial_type":"survey-html-form","trial_index":69,"time_elapsed":1129590,"internal_node_id":"0.0-53.0-0.0","params":{"nStudents":24,"maxFlips":30,"completionMinutes":45,"basePay":8,"maxBonus":9,"perTrialBonus":0.5,"perTrialBonusThreshold":0.05,"exampleCost":0.01},"classroomParams":{"A":{"a":1,"b":4},"B":{"a":4,"b":1},"C":{"a":2,"b":8},"D":{"a":8,"b":2}},"conditions":["nonSeqFull","nonSeqPartial","seqNoFeedback","seqFeedback"],"classroomPairings":[["A","B"],["C","D"]],"coinWeights":[0.2,0.5,0.8],"subjectId":"A2GXEIRTHCKDHK","assignmentId":"3K4J6M3CXFF4Q8QE4JQEZQO3455AGX","hitId":"3UDTAB6HH6LRO17U79I9TKUGSHV90J","url":"https://gershmanlab.com/experiments/alicia/teaching/experiment/?hitId=3UDTAB6HH6LRO17U79I9TKUGSHV90J&workerId=A2GXEIRTHCKDHK&assignmentId=3K4J6M3CXFF4Q8QE4JQEZQO3455AGX&a=C64K9&tp_a=C64K9&b=3K4J6M3CXFF4Q8QE4JQEZQO3455AGX&tp_b=3K4J6M3CXFF4Q8QE4JQEZQO3455AGX&c=365799&tp_c=365799","firstResponseHeads":0,"firstResponseTails":5,"secondResponseHeads":1,"secondResponseTails":10,"totalHeads":1,"totalTails":15,"studentIndex":6,"studentTrueHypers":{"a":8,"b":2},"studentGuess":0.34615384615384615,"delta":0.14615384615384613,"bonus":0,"bonusSoFar":0.9,"totalExamples":16},{"rt":5672,"response":{"heads":"5","tails":"5"},"type":"response","condition":"seqNoFeedback","trueTheta":0.5,"classrooms":["C","D"],"studentTrueClassroom":"D","exampleSet":"first","trial_type":"survey-html-form","trial_index":75,"time_elapsed":1149064,"internal_node_id":"0.0-59.0-0.0","params":{"nStudents":24,"maxFlips":30,"completionMinutes":45,"basePay":8,"maxBonus":9,"perTrialBonus":0.5,"perTrialBonusThreshold":0.05,"exampleCost":0.01},"classroomParams":{"A":{"a":1,"b":4},"B":{"a":4,"b":1},"C":{"a":2,"b":8},"D":{"a":8,"b":2}},"conditions":["nonSeqFull","nonSeqPartial","seqNoFeedback","seqFeedback"],"classroomPairings":[["A","B"],["C","D"]],"coinWeights":[0.2,0.5,0.8],"subjectId":"A2GXEIRTHCKDHK","assignmentId":"3K4J6M3CXFF4Q8QE4JQEZQO3455AGX","hitId":"3UDTAB6HH6LRO17U79I9TKUGSHV90J","url":"https://gershmanlab.com/experiments/alicia/teaching/experiment/?hitId=3UDTAB6HH6LRO17U79I9TKUGSHV90J&workerId=A2GXEIRTHCKDHK&assignmentId=3K4J6M3CXFF4Q8QE4JQEZQO3455AGX&a=C64K9&tp_a=C64K9&b=3K4J6M3CXFF4Q8QE4JQEZQO3455AGX&tp_b=3K4J6M3CXFF4Q8QE4JQEZQO3455AGX&c=365799&tp_c=365799","heads":5,"tails":5,"studentIndex":7,"studentTrueHypers":{"a":8,"b":2},"studentGuess":0.65,"delta":0.15000000000000002,"totalExamples":10,"bonusSoFar":0.9},{"rt":7185,"response":{"heads":"2","tails":"2"},"type":"response","condition":"seqNoFeedback","trueTheta":0.5,"classrooms":["C","D"],"studentTrueClassroom":"D","exampleSet":"second","trial_type":"survey-html-form","trial_index":78,"time_elapsed":1163540,"internal_node_id":"0.0-62.0-0.0","params":{"nStudents":24,"maxFlips":30,"completionMinutes":45,"basePay":8,"maxBonus":9,"perTrialBonus":0.5,"perTrialBonusThreshold":0.05,"exampleCost":0.01},"classroomParams":{"A":{"a":1,"b":4},"B":{"a":4,"b":1},"C":{"a":2,"b":8},"D":{"a":8,"b":2}},"conditions":["nonSeqFull","nonSeqPartial","seqNoFeedback","seqFeedback"],"classroomPairings":[["A","B"],["C","D"]],"coinWeights":[0.2,0.5,0.8],"subjectId":"A2GXEIRTHCKDHK","assignmentId":"3K4J6M3CXFF4Q8QE4JQEZQO3455AGX","hitId":"3UDTAB6HH6LRO17U79I9TKUGSHV90J","url":"https://gershmanlab.com/experiments/alicia/teaching/experiment/?hitId=3UDTAB6HH6LRO17U79I9TKUGSHV90J&workerId=A2GXEIRTHCKDHK&assignmentId=3K4J6M3CXFF4Q8QE4JQEZQO3455AGX&a=C64K9&tp_a=C64K9&b=3K4J6M3CXFF4Q8QE4JQEZQO3455AGX&tp_b=3K4J6M3CXFF4Q8QE4JQEZQO3455AGX&c=365799&tp_c=365799","firstResponseHeads":5,"firstResponseTails":5,"secondResponseHeads":2,"secondResponseTails":2,"totalHeads":7,"totalTails":7,"studentIndex":7,"studentTrueHypers":{"a":8,"b":2},"studentGuess":0.625,"delta":0.125,"bonus":0,"bonusSoFar":0.9,"totalExamples":14},{"rt":4941,"response":{"heads":"10","tails":"0"},"type":"response","condition":"nonSeqPartial","trueTheta":0.8,"classrooms":["C","D"],"studentTrueClassroom":"D","exampleSet":"first","trial_type":"survey-html-form","trial_index":84,"time_elapsed":1182422,"internal_node_id":"0.0-68.0-0.0","params":{"nStudents":24,"maxFlips":30,"completionMinutes":45,"basePay":8,"maxBonus":9,"perTrialBonus":0.5,"perTrialBonusThreshold":0.05,"exampleCost":0.01},"classroomParams":{"A":{"a":1,"b":4},"B":{"a":4,"b":1},"C":{"a":2,"b":8},"D":{"a":8,"b":2}},"conditions":["nonSeqFull","nonSeqPartial","seqNoFeedback","seqFeedback"],"classroomPairings":[["A","B"],["C","D"]],"coinWeights":[0.2,0.5,0.8],"subjectId":"A2GXEIRTHCKDHK","assignmentId":"3K4J6M3CXFF4Q8QE4JQEZQO3455AGX","hitId":"3UDTAB6HH6LRO17U79I9TKUGSHV90J","url":"https://gershmanlab.com/experiments/alicia/teaching/experiment/?hitId=3UDTAB6HH6LRO17U79I9TKUGSHV90J&workerId=A2GXEIRTHCKDHK&assignmentId=3K4J6M3CXFF4Q8QE4JQEZQO3455AGX&a=C64K9&tp_a=C64K9&b=3K4J6M3CXFF4Q8QE4JQEZQO3455AGX&tp_b=3K4J6M3CXFF4Q8QE4JQEZQO3455AGX&c=365799&tp_c=365799","heads":10,"tails":0,"studentIndex":8,"studentTrueHypers":{"a":8,"b":2},"studentGuess":0.9,"delta":0.09999999999999998,"totalExamples":10,"bonus":0,"bonusSoFar":0.9},{"rt":4236,"response":{"heads":"1","tails":"10"},"type":"response","condition":"nonSeqFull","trueTheta":0.2,"classrooms":["A","B"],"studentTrueClassroom":"B","exampleSet":"first","trial_type":"survey-html-form","trial_index":90,"time_elapsed":1200511,"internal_node_id":"0.0-74.0-0.0","params":{"nStudents":24,"maxFlips":30,"completionMinutes":45,"basePay":8,"maxBonus":9,"perTrialBonus":0.5,"perTrialBonusThreshold":0.05,"exampleCost":0.01},"classroomParams":{"A":{"a":1,"b":4},"B":{"a":4,"b":1},"C":{"a":2,"b":8},"D":{"a":8,"b":2}},"conditions":["nonSeqFull","nonSeqPartial","seqNoFeedback","seqFeedback"],"classroomPairings":[["A","B"],["C","D"]],"coinWeights":[0.2,0.5,0.8],"subjectId":"A2GXEIRTHCKDHK","assignmentId":"3K4J6M3CXFF4Q8QE4JQEZQO3455AGX","hitId":"3UDTAB6HH6LRO17U79I9TKUGSHV90J","url":"https://gershmanlab.com/experiments/alicia/teaching/experiment/?hitId=3UDTAB6HH6LRO17U79I9TKUGSHV90J&workerId=A2GXEIRTHCKDHK&assignmentId=3K4J6M3CXFF4Q8QE4JQEZQO3455AGX&a=C64K9&tp_a=C64K9&b=3K4J6M3CXFF4Q8QE4JQEZQO3455AGX&tp_b=3K4J6M3CXFF4Q8QE4JQEZQO3455AGX&c=365799&tp_c=365799","heads":1,"tails":10,"studentIndex":9,"studentTrueHypers":{"a":4,"b":1},"studentGuess":0.3125,"delta":0.11249999999999999,"totalExamples":11,"bonus":0,"bonusSoFar":0.9},{"rt":5749,"response":{"heads":"5","tails":"5"},"type":"response","condition":"nonSeqFull","trueTheta":0.5,"classrooms":["C","D"],"studentTrueClassroom":"C","exampleSet":"first","trial_type":"survey-html-form","trial_index":96,"time_elapsed":1219199,"internal_node_id":"0.0-80.0-0.0","params":{"nStudents":24,"maxFlips":30,"completionMinutes":45,"basePay":8,"maxBonus":9,"perTrialBonus":0.5,"perTrialBonusThreshold":0.05,"exampleCost":0.01},"classroomParams":{"A":{"a":1,"b":4},"B":{"a":4,"b":1},"C":{"a":2,"b":8},"D":{"a":8,"b":2}},"conditions":["nonSeqFull","nonSeqPartial","seqNoFeedback","seqFeedback"],"classroomPairings":[["A","B"],["C","D"]],"coinWeights":[0.2,0.5,0.8],"subjectId":"A2GXEIRTHCKDHK","assignmentId":"3K4J6M3CXFF4Q8QE4JQEZQO3455AGX","hitId":"3UDTAB6HH6LRO17U79I9TKUGSHV90J","url":"https://gershmanlab.com/experiments/alicia/teaching/experiment/?hitId=3UDTAB6HH6LRO17U79I9TKUGSHV90J&workerId=A2GXEIRTHCKDHK&assignmentId=3K4J6M3CXFF4Q8QE4JQEZQO3455AGX&a=C64K9&tp_a=C64K9&b=3K4J6M3CXFF4Q8QE4JQEZQO3455AGX&tp_b=3K4J6M3CXFF4Q8QE4JQEZQO3455AGX&c=365799&tp_c=365799","heads":5,"tails":5,"studentIndex":10,"studentTrueHypers":{"a":2,"b":8},"studentGuess":0.35,"delta":0.15000000000000002,"totalExamples":10,"bonus":0,"bonusSoFar":0.9},{"rt":9342,"response":{"heads":"4","tails":"4"},"type":"response","condition":"seqNoFeedback","trueTheta":0.5,"classrooms":["A","B"],"studentTrueClassroom":"B","exampleSet":"first","trial_type":"survey-html-form","trial_index":102,"time_elapsed":1241514,"internal_node_id":"0.0-86.0-0.0","params":{"nStudents":24,"maxFlips":30,"completionMinutes":45,"basePay":8,"maxBonus":9,"perTrialBonus":0.5,"perTrialBonusThreshold":0.05,"exampleCost":0.01},"classroomParams":{"A":{"a":1,"b":4},"B":{"a":4,"b":1},"C":{"a":2,"b":8},"D":{"a":8,"b":2}},"conditions":["nonSeqFull","nonSeqPartial","seqNoFeedback","seqFeedback"],"classroomPairings":[["A","B"],["C","D"]],"coinWeights":[0.2,0.5,0.8],"subjectId":"A2GXEIRTHCKDHK","assignmentId":"3K4J6M3CXFF4Q8QE4JQEZQO3455AGX","hitId":"3UDTAB6HH6LRO17U79I9TKUGSHV90J","url":"https://gershmanlab.com/experiments/alicia/teaching/experiment/?hitId=3UDTAB6HH6LRO17U79I9TKUGSHV90J&workerId=A2GXEIRTHCKDHK&assignmentId=3K4J6M3CXFF4Q8QE4JQEZQO3455AGX&a=C64K9&tp_a=C64K9&b=3K4J6M3CXFF4Q8QE4JQEZQO3455AGX&tp_b=3K4J6M3CXFF4Q8QE4JQEZQO3455AGX&c=365799&tp_c=365799","heads":4,"tails":4,"studentIndex":11,"studentTrueHypers":{"a":4,"b":1},"studentGuess":0.6153846153846154,"delta":0.11538461538461542,"totalExamples":8,"bonusSoFar":0.9},{"rt":6447,"response":{"heads":"4","tails":"4"},"type":"response","condition":"seqNoFeedback","trueTheta":0.5,"classrooms":["A","B"],"studentTrueClassroom":"B","exampleSet":"second","trial_type":"survey-html-form","trial_index":105,"time_elapsed":1253732,"internal_node_id":"0.0-89.0-0.0","params":{"nStudents":24,"maxFlips":30,"completionMinutes":45,"basePay":8,"maxBonus":9,"perTrialBonus":0.5,"perTrialBonusThreshold":0.05,"exampleCost":0.01},"classroomParams":{"A":{"a":1,"b":4},"B":{"a":4,"b":1},"C":{"a":2,"b":8},"D":{"a":8,"b":2}},"conditions":["nonSeqFull","nonSeqPartial","seqNoFeedback","seqFeedback"],"classroomPairings":[["A","B"],["C","D"]],"coinWeights":[0.2,0.5,0.8],"subjectId":"A2GXEIRTHCKDHK","assignmentId":"3K4J6M3CXFF4Q8QE4JQEZQO3455AGX","hitId":"3UDTAB6HH6LRO17U79I9TKUGSHV90J","url":"https://gershmanlab.com/experiments/alicia/teaching/experiment/?hitId=3UDTAB6HH6LRO17U79I9TKUGSHV90J&workerId=A2GXEIRTHCKDHK&assignmentId=3K4J6M3CXFF4Q8QE4JQEZQO3455AGX&a=C64K9&tp_a=C64K9&b=3K4J6M3CXFF4Q8QE4JQEZQO3455AGX&tp_b=3K4J6M3CXFF4Q8QE4JQEZQO3455AGX&c=365799&tp_c=365799","firstResponseHeads":4,"firstResponseTails":4,"secondResponseHeads":4,"secondResponseTails":4,"totalHeads":8,"totalTails":8,"studentIndex":11,"studentTrueHypers":{"a":4,"b":1},"studentGuess":0.5714285714285714,"delta":0.0714285714285714,"bonus":0,"bonusSoFar":0.9,"totalExamples":16},{"rt":8735,"response":{"heads":"10","tails":"1"},"type":"response","condition":"nonSeqFull","trueTheta":0.5,"classrooms":["A","B"],"studentTrueClassroom":"A","exampleSet":"first","trial_type":"survey-html-form","trial_index":111,"time_elapsed":1275321,"internal_node_id":"0.0-95.0-0.0","params":{"nStudents":24,"maxFlips":30,"completionMinutes":45,"basePay":8,"maxBonus":9,"perTrialBonus":0.5,"perTrialBonusThreshold":0.05,"exampleCost":0.01},"classroomParams":{"A":{"a":1,"b":4},"B":{"a":4,"b":1},"C":{"a":2,"b":8},"D":{"a":8,"b":2}},"conditions":["nonSeqFull","nonSeqPartial","seqNoFeedback","seqFeedback"],"classroomPairings":[["A","B"],["C","D"]],"coinWeights":[0.2,0.5,0.8],"subjectId":"A2GXEIRTHCKDHK","assignmentId":"3K4J6M3CXFF4Q8QE4JQEZQO3455AGX","hitId":"3UDTAB6HH6LRO17U79I9TKUGSHV90J","url":"https://gershmanlab.com/experiments/alicia/teaching/experiment/?hitId=3UDTAB6HH6LRO17U79I9TKUGSHV90J&workerId=A2GXEIRTHCKDHK&assignmentId=3K4J6M3CXFF4Q8QE4JQEZQO3455AGX&a=C64K9&tp_a=C64K9&b=3K4J6M3CXFF4Q8QE4JQEZQO3455AGX&tp_b=3K4J6M3CXFF4Q8QE4JQEZQO3455AGX&c=365799&tp_c=365799","heads":10,"tails":1,"studentIndex":12,"studentTrueHypers":{"a":1,"b":4},"studentGuess":0.6875,"delta":0.1875,"totalExamples":11,"bonus":0,"bonusSoFar":0.9},{"rt":5580,"response":{"heads":"10","tails":"1"},"type":"response","condition":"seqFeedback","trueTheta":0.8,"classrooms":["A","B"],"studentTrueClassroom":"B","exampleSet":"first","trial_type":"survey-html-form","trial_index":117,"time_elapsed":1296874,"internal_node_id":"0.0-101.0-0.0","params":{"nStudents":24,"maxFlips":30,"completionMinutes":45,"basePay":8,"maxBonus":9,"perTrialBonus":0.5,"perTrialBonusThreshold":0.05,"exampleCost":0.01},"classroomParams":{"A":{"a":1,"b":4},"B":{"a":4,"b":1},"C":{"a":2,"b":8},"D":{"a":8,"b":2}},"conditions":["nonSeqFull","nonSeqPartial","seqNoFeedback","seqFeedback"],"classroomPairings":[["A","B"],["C","D"]],"coinWeights":[0.2,0.5,0.8],"subjectId":"A2GXEIRTHCKDHK","assignmentId":"3K4J6M3CXFF4Q8QE4JQEZQO3455AGX","hitId":"3UDTAB6HH6LRO17U79I9TKUGSHV90J","url":"https://gershmanlab.com/experiments/alicia/teaching/experiment/?hitId=3UDTAB6HH6LRO17U79I9TKUGSHV90J&workerId=A2GXEIRTHCKDHK&assignmentId=3K4J6M3CXFF4Q8QE4JQEZQO3455AGX&a=C64K9&tp_a=C64K9&b=3K4J6M3CXFF4Q8QE4JQEZQO3455AGX&tp_b=3K4J6M3CXFF4Q8QE4JQEZQO3455AGX&c=365799&tp_c=365799","heads":10,"tails":1,"studentIndex":13,"studentTrueHypers":{"a":4,"b":1},"studentGuess":0.875,"delta":0.07499999999999996,"totalExamples":11,"bonusSoFar":0.9},{"rt":6701,"response":{"heads":"10","tails":"2"},"type":"response","condition":"seqFeedback","trueTheta":0.8,"classrooms":["A","B"],"studentTrueClassroom":"B","exampleSet":"second","trial_type":"survey-html-form","trial_index":121,"time_elapsed":1311739,"internal_node_id":"0.0-105.0-0.0","params":{"nStudents":24,"maxFlips":30,"completionMinutes":45,"basePay":8,"maxBonus":9,"perTrialBonus":0.5,"perTrialBonusThreshold":0.05,"exampleCost":0.01},"classroomParams":{"A":{"a":1,"b":4},"B":{"a":4,"b":1},"C":{"a":2,"b":8},"D":{"a":8,"b":2}},"conditions":["nonSeqFull","nonSeqPartial","seqNoFeedback","seqFeedback"],"classroomPairings":[["A","B"],["C","D"]],"coinWeights":[0.2,0.5,0.8],"subjectId":"A2GXEIRTHCKDHK","assignmentId":"3K4J6M3CXFF4Q8QE4JQEZQO3455AGX","hitId":"3UDTAB6HH6LRO17U79I9TKUGSHV90J","url":"https://gershmanlab.com/experiments/alicia/teaching/experiment/?hitId=3UDTAB6HH6LRO17U79I9TKUGSHV90J&workerId=A2GXEIRTHCKDHK&assignmentId=3K4J6M3CXFF4Q8QE4JQEZQO3455AGX&a=C64K9&tp_a=C64K9&b=3K4J6M3CXFF4Q8QE4JQEZQO3455AGX&tp_b=3K4J6M3CXFF4Q8QE4JQEZQO3455AGX&c=365799&tp_c=365799","firstResponseHeads":10,"firstResponseTails":1,"secondResponseHeads":10,"secondResponseTails":2,"totalHeads":20,"totalTails":3,"studentIndex":13,"studentTrueHypers":{"a":4,"b":1},"studentGuess":0.8571428571428571,"delta":0.05714285714285705,"bonus":0,"bonusSoFar":0.9,"totalExamples":23},{"rt":8580,"response":{"heads":"10","tails":"10"},"type":"response","condition":"seqFeedback","trueTheta":0.5,"classrooms":["A","B"],"studentTrueClassroom":"B","exampleSet":"first","trial_type":"survey-html-form","trial_index":127,"time_elapsed":1336622,"internal_node_id":"0.0-111.0-0.0","params":{"nStudents":24,"maxFlips":30,"completionMinutes":45,"basePay":8,"maxBonus":9,"perTrialBonus":0.5,"perTrialBonusThreshold":0.05,"exampleCost":0.01},"classroomParams":{"A":{"a":1,"b":4},"B":{"a":4,"b":1},"C":{"a":2,"b":8},"D":{"a":8,"b":2}},"conditions":["nonSeqFull","nonSeqPartial","seqNoFeedback","seqFeedback"],"classroomPairings":[["A","B"],["C","D"]],"coinWeights":[0.2,0.5,0.8],"subjectId":"A2GXEIRTHCKDHK","assignmentId":"3K4J6M3CXFF4Q8QE4JQEZQO3455AGX","hitId":"3UDTAB6HH6LRO17U79I9TKUGSHV90J","url":"https://gershmanlab.com/experiments/alicia/teaching/experiment/?hitId=3UDTAB6HH6LRO17U79I9TKUGSHV90J&workerId=A2GXEIRTHCKDHK&assignmentId=3K4J6M3CXFF4Q8QE4JQEZQO3455AGX&a=C64K9&tp_a=C64K9&b=3K4J6M3CXFF4Q8QE4JQEZQO3455AGX&tp_b=3K4J6M3CXFF4Q8QE4JQEZQO3455AGX&c=365799&tp_c=365799","heads":10,"tails":10,"studentIndex":14,"studentTrueHypers":{"a":4,"b":1},"studentGuess":0.56,"delta":0.06000000000000005,"totalExamples":20,"bonusSoFar":0.9},{"rt":7861,"response":{"heads":"10","tails":"10"},"type":"response","condition":"seqFeedback","trueTheta":0.5,"classrooms":["A","B"],"studentTrueClassroom":"B","exampleSet":"second","trial_type":"survey-html-form","trial_index":131,"time_elapsed":1351319,"internal_node_id":"0.0-115.0-0.0","params":{"nStudents":24,"maxFlips":30,"completionMinutes":45,"basePay":8,"maxBonus":9,"perTrialBonus":0.5,"perTrialBonusThreshold":0.05,"exampleCost":0.01},"classroomParams":{"A":{"a":1,"b":4},"B":{"a":4,"b":1},"C":{"a":2,"b":8},"D":{"a":8,"b":2}},"conditions":["nonSeqFull","nonSeqPartial","seqNoFeedback","seqFeedback"],"classroomPairings":[["A","B"],["C","D"]],"coinWeights":[0.2,0.5,0.8],"subjectId":"A2GXEIRTHCKDHK","assignmentId":"3K4J6M3CXFF4Q8QE4JQEZQO3455AGX","hitId":"3UDTAB6HH6LRO17U79I9TKUGSHV90J","url":"https://gershmanlab.com/experiments/alicia/teaching/experiment/?hitId=3UDTAB6HH6LRO17U79I9TKUGSHV90J&workerId=A2GXEIRTHCKDHK&assignmentId=3K4J6M3CXFF4Q8QE4JQEZQO3455AGX&a=C64K9&tp_a=C64K9&b=3K4J6M3CXFF4Q8QE4JQEZQO3455AGX&tp_b=3K4J6M3CXFF4Q8QE4JQEZQO3455AGX&c=365799&tp_c=365799","firstResponseHeads":10,"firstResponseTails":10,"secondResponseHeads":10,"secondResponseTails":10,"totalHeads":20,"totalTails":20,"studentIndex":14,"studentTrueHypers":{"a":4,"b":1},"studentGuess":0.5333333333333333,"delta":0.033333333333333326,"bonus":0.1,"bonusSoFar":1,"totalExamples":40},{"rt":4588,"response":{"heads":"1","tails":"10"},"type":"response","condition":"seqNoFeedback","trueTheta":0.2,"classrooms":["A","B"],"studentTrueClassroom":"A","exampleSet":"first","trial_type":"survey-html-form","trial_index":137,"time_elapsed":1368342,"internal_node_id":"0.0-121.0-0.0","params":{"nStudents":24,"maxFlips":30,"completionMinutes":45,"basePay":8,"maxBonus":9,"perTrialBonus":0.5,"perTrialBonusThreshold":0.05,"exampleCost":0.01},"classroomParams":{"A":{"a":1,"b":4},"B":{"a":4,"b":1},"C":{"a":2,"b":8},"D":{"a":8,"b":2}},"conditions":["nonSeqFull","nonSeqPartial","seqNoFeedback","seqFeedback"],"classroomPairings":[["A","B"],["C","D"]],"coinWeights":[0.2,0.5,0.8],"subjectId":"A2GXEIRTHCKDHK","assignmentId":"3K4J6M3CXFF4Q8QE4JQEZQO3455AGX","hitId":"3UDTAB6HH6LRO17U79I9TKUGSHV90J","url":"https://gershmanlab.com/experiments/alicia/teaching/experiment/?hitId=3UDTAB6HH6LRO17U79I9TKUGSHV90J&workerId=A2GXEIRTHCKDHK&assignmentId=3K4J6M3CXFF4Q8QE4JQEZQO3455AGX&a=C64K9&tp_a=C64K9&b=3K4J6M3CXFF4Q8QE4JQEZQO3455AGX&tp_b=3K4J6M3CXFF4Q8QE4JQEZQO3455AGX&c=365799&tp_c=365799","heads":1,"tails":10,"studentIndex":15,"studentTrueHypers":{"a":1,"b":4},"studentGuess":0.125,"delta":0.07500000000000001,"totalExamples":11,"bonusSoFar":1},{"rt":12888,"response":{"heads":"1","tails":"10"},"type":"response","condition":"seqNoFeedback","trueTheta":0.2,"classrooms":["A","B"],"studentTrueClassroom":"A","exampleSet":"second","trial_type":"survey-html-form","trial_index":140,"time_elapsed":1388765,"internal_node_id":"0.0-124.0-0.0","params":{"nStudents":24,"maxFlips":30,"completionMinutes":45,"basePay":8,"maxBonus":9,"perTrialBonus":0.5,"perTrialBonusThreshold":0.05,"exampleCost":0.01},"classroomParams":{"A":{"a":1,"b":4},"B":{"a":4,"b":1},"C":{"a":2,"b":8},"D":{"a":8,"b":2}},"conditions":["nonSeqFull","nonSeqPartial","seqNoFeedback","seqFeedback"],"classroomPairings":[["A","B"],["C","D"]],"coinWeights":[0.2,0.5,0.8],"subjectId":"A2GXEIRTHCKDHK","assignmentId":"3K4J6M3CXFF4Q8QE4JQEZQO3455AGX","hitId":"3UDTAB6HH6LRO17U79I9TKUGSHV90J","url":"https://gershmanlab.com/experiments/alicia/teaching/experiment/?hitId=3UDTAB6HH6LRO17U79I9TKUGSHV90J&workerId=A2GXEIRTHCKDHK&assignmentId=3K4J6M3CXFF4Q8QE4JQEZQO3455AGX&a=C64K9&tp_a=C64K9&b=3K4J6M3CXFF4Q8QE4JQEZQO3455AGX&tp_b=3K4J6M3CXFF4Q8QE4JQEZQO3455AGX&c=365799&tp_c=365799","firstResponseHeads":1,"firstResponseTails":10,"secondResponseHeads":1,"secondResponseTails":10,"totalHeads":2,"totalTails":20,"studentIndex":15,"studentTrueHypers":{"a":1,"b":4},"studentGuess":0.1111111111111111,"delta":0.0888888888888889,"bonus":0,"bonusSoFar":1,"totalExamples":22},{"rt":3981,"response":{"heads":"2","tails":"2"},"type":"response","condition":"seqFeedback","trueTheta":0.5,"classrooms":["C","D"],"studentTrueClassroom":"D","exampleSet":"first","trial_type":"survey-html-form","trial_index":146,"time_elapsed":1403733,"internal_node_id":"0.0-130.0-0.0","params":{"nStudents":24,"maxFlips":30,"completionMinutes":45,"basePay":8,"maxBonus":9,"perTrialBonus":0.5,"perTrialBonusThreshold":0.05,"exampleCost":0.01},"classroomParams":{"A":{"a":1,"b":4},"B":{"a":4,"b":1},"C":{"a":2,"b":8},"D":{"a":8,"b":2}},"conditions":["nonSeqFull","nonSeqPartial","seqNoFeedback","seqFeedback"],"classroomPairings":[["A","B"],["C","D"]],"coinWeights":[0.2,0.5,0.8],"subjectId":"A2GXEIRTHCKDHK","assignmentId":"3K4J6M3CXFF4Q8QE4JQEZQO3455AGX","hitId":"3UDTAB6HH6LRO17U79I9TKUGSHV90J","url":"https://gershmanlab.com/experiments/alicia/teaching/experiment/?hitId=3UDTAB6HH6LRO17U79I9TKUGSHV90J&workerId=A2GXEIRTHCKDHK&assignmentId=3K4J6M3CXFF4Q8QE4JQEZQO3455AGX&a=C64K9&tp_a=C64K9&b=3K4J6M3CXFF4Q8QE4JQEZQO3455AGX&tp_b=3K4J6M3CXFF4Q8QE4JQEZQO3455AGX&c=365799&tp_c=365799","heads":2,"tails":2,"studentIndex":16,"studentTrueHypers":{"a":8,"b":2},"studentGuess":0.7142857142857143,"delta":0.2142857142857143,"totalExamples":4,"bonusSoFar":1},{"rt":8014,"response":{"heads":"10","tails":"10"},"type":"response","condition":"seqFeedback","trueTheta":0.5,"classrooms":["C","D"],"studentTrueClassroom":"D","exampleSet":"second","trial_type":"survey-html-form","trial_index":150,"time_elapsed":1419822,"internal_node_id":"0.0-134.0-0.0","params":{"nStudents":24,"maxFlips":30,"completionMinutes":45,"basePay":8,"maxBonus":9,"perTrialBonus":0.5,"perTrialBonusThreshold":0.05,"exampleCost":0.01},"classroomParams":{"A":{"a":1,"b":4},"B":{"a":4,"b":1},"C":{"a":2,"b":8},"D":{"a":8,"b":2}},"conditions":["nonSeqFull","nonSeqPartial","seqNoFeedback","seqFeedback"],"classroomPairings":[["A","B"],["C","D"]],"coinWeights":[0.2,0.5,0.8],"subjectId":"A2GXEIRTHCKDHK","assignmentId":"3K4J6M3CXFF4Q8QE4JQEZQO3455AGX","hitId":"3UDTAB6HH6LRO17U79I9TKUGSHV90J","url":"https://gershmanlab.com/experiments/alicia/teaching/experiment/?hitId=3UDTAB6HH6LRO17U79I9TKUGSHV90J&workerId=A2GXEIRTHCKDHK&assignmentId=3K4J6M3CXFF4Q8QE4JQEZQO3455AGX&a=C64K9&tp_a=C64K9&b=3K4J6M3CXFF4Q8QE4JQEZQO3455AGX&tp_b=3K4J6M3CXFF4Q8QE4JQEZQO3455AGX&c=365799&tp_c=365799","firstResponseHeads":2,"firstResponseTails":2,"secondResponseHeads":10,"secondResponseTails":10,"totalHeads":12,"totalTails":12,"studentIndex":16,"studentTrueHypers":{"a":8,"b":2},"studentGuess":0.5882352941176471,"delta":0.08823529411764708,"bonus":0,"bonusSoFar":1,"totalExamples":24},{"rt":4162,"response":{"heads":"10","tails":"1"},"type":"response","condition":"seqFeedback","trueTheta":0.8,"classrooms":["C","D"],"studentTrueClassroom":"C","exampleSet":"first","trial_type":"survey-html-form","trial_index":156,"time_elapsed":1438589,"internal_node_id":"0.0-140.0-0.0","params":{"nStudents":24,"maxFlips":30,"completionMinutes":45,"basePay":8,"maxBonus":9,"perTrialBonus":0.5,"perTrialBonusThreshold":0.05,"exampleCost":0.01},"classroomParams":{"A":{"a":1,"b":4},"B":{"a":4,"b":1},"C":{"a":2,"b":8},"D":{"a":8,"b":2}},"conditions":["nonSeqFull","nonSeqPartial","seqNoFeedback","seqFeedback"],"classroomPairings":[["A","B"],["C","D"]],"coinWeights":[0.2,0.5,0.8],"subjectId":"A2GXEIRTHCKDHK","assignmentId":"3K4J6M3CXFF4Q8QE4JQEZQO3455AGX","hitId":"3UDTAB6HH6LRO17U79I9TKUGSHV90J","url":"https://gershmanlab.com/experiments/alicia/teaching/experiment/?hitId=3UDTAB6HH6LRO17U79I9TKUGSHV90J&workerId=A2GXEIRTHCKDHK&assignmentId=3K4J6M3CXFF4Q8QE4JQEZQO3455AGX&a=C64K9&tp_a=C64K9&b=3K4J6M3CXFF4Q8QE4JQEZQO3455AGX&tp_b=3K4J6M3CXFF4Q8QE4JQEZQO3455AGX&c=365799&tp_c=365799","heads":10,"tails":1,"studentIndex":17,"studentTrueHypers":{"a":2,"b":8},"studentGuess":0.5714285714285714,"delta":0.22857142857142865,"totalExamples":11,"bonusSoFar":1},{"rt":6811,"response":{"heads":"12","tails":"1"},"type":"response","condition":"seqFeedback","trueTheta":0.8,"classrooms":["C","D"],"studentTrueClassroom":"C","exampleSet":"second","trial_type":"survey-html-form","trial_index":160,"time_elapsed":1453932,"internal_node_id":"0.0-144.0-0.0","params":{"nStudents":24,"maxFlips":30,"completionMinutes":45,"basePay":8,"maxBonus":9,"perTrialBonus":0.5,"perTrialBonusThreshold":0.05,"exampleCost":0.01},"classroomParams":{"A":{"a":1,"b":4},"B":{"a":4,"b":1},"C":{"a":2,"b":8},"D":{"a":8,"b":2}},"conditions":["nonSeqFull","nonSeqPartial","seqNoFeedback","seqFeedback"],"classroomPairings":[["A","B"],["C","D"]],"coinWeights":[0.2,0.5,0.8],"subjectId":"A2GXEIRTHCKDHK","assignmentId":"3K4J6M3CXFF4Q8QE4JQEZQO3455AGX","hitId":"3UDTAB6HH6LRO17U79I9TKUGSHV90J","url":"https://gershmanlab.com/experiments/alicia/teaching/experiment/?hitId=3UDTAB6HH6LRO17U79I9TKUGSHV90J&workerId=A2GXEIRTHCKDHK&assignmentId=3K4J6M3CXFF4Q8QE4JQEZQO3455AGX&a=C64K9&tp_a=C64K9&b=3K4J6M3CXFF4Q8QE4JQEZQO3455AGX&tp_b=3K4J6M3CXFF4Q8QE4JQEZQO3455AGX&c=365799&tp_c=365799","firstResponseHeads":10,"firstResponseTails":1,"secondResponseHeads":12,"secondResponseTails":1,"totalHeads":22,"totalTails":2,"studentIndex":17,"studentTrueHypers":{"a":2,"b":8},"studentGuess":0.7058823529411765,"delta":0.09411764705882353,"bonus":0,"bonusSoFar":1,"totalExamples":24},{"rt":6570,"response":{"heads":"1","tails":"12"},"type":"response","condition":"nonSeqPartial","trueTheta":0.2,"classrooms":["C","D"],"studentTrueClassroom":"C","exampleSet":"first","trial_type":"survey-html-form","trial_index":166,"time_elapsed":1475321,"internal_node_id":"0.0-150.0-0.0","params":{"nStudents":24,"maxFlips":30,"completionMinutes":45,"basePay":8,"maxBonus":9,"perTrialBonus":0.5,"perTrialBonusThreshold":0.05,"exampleCost":0.01},"classroomParams":{"A":{"a":1,"b":4},"B":{"a":4,"b":1},"C":{"a":2,"b":8},"D":{"a":8,"b":2}},"conditions":["nonSeqFull","nonSeqPartial","seqNoFeedback","seqFeedback"],"classroomPairings":[["A","B"],["C","D"]],"coinWeights":[0.2,0.5,0.8],"subjectId":"A2GXEIRTHCKDHK","assignmentId":"3K4J6M3CXFF4Q8QE4JQEZQO3455AGX","hitId":"3UDTAB6HH6LRO17U79I9TKUGSHV90J","url":"https://gershmanlab.com/experiments/alicia/teaching/experiment/?hitId=3UDTAB6HH6LRO17U79I9TKUGSHV90J&workerId=A2GXEIRTHCKDHK&assignmentId=3K4J6M3CXFF4Q8QE4JQEZQO3455AGX&a=C64K9&tp_a=C64K9&b=3K4J6M3CXFF4Q8QE4JQEZQO3455AGX&tp_b=3K4J6M3CXFF4Q8QE4JQEZQO3455AGX&c=365799&tp_c=365799","heads":1,"tails":12,"studentIndex":18,"studentTrueHypers":{"a":2,"b":8},"studentGuess":0.13043478260869565,"delta":0.06956521739130436,"totalExamples":13,"bonus":0,"bonusSoFar":1},{"rt":4723,"response":{"heads":"12","tails":"2"},"type":"response","condition":"seqNoFeedback","trueTheta":0.8,"classrooms":["A","B"],"studentTrueClassroom":"A","exampleSet":"first","trial_type":"survey-html-form","trial_index":172,"time_elapsed":1494544,"internal_node_id":"0.0-156.0-0.0","params":{"nStudents":24,"maxFlips":30,"completionMinutes":45,"basePay":8,"maxBonus":9,"perTrialBonus":0.5,"perTrialBonusThreshold":0.05,"exampleCost":0.01},"classroomParams":{"A":{"a":1,"b":4},"B":{"a":4,"b":1},"C":{"a":2,"b":8},"D":{"a":8,"b":2}},"conditions":["nonSeqFull","nonSeqPartial","seqNoFeedback","seqFeedback"],"classroomPairings":[["A","B"],["C","D"]],"coinWeights":[0.2,0.5,0.8],"subjectId":"A2GXEIRTHCKDHK","assignmentId":"3K4J6M3CXFF4Q8QE4JQEZQO3455AGX","hitId":"3UDTAB6HH6LRO17U79I9TKUGSHV90J","url":"https://gershmanlab.com/experiments/alicia/teaching/experiment/?hitId=3UDTAB6HH6LRO17U79I9TKUGSHV90J&workerId=A2GXEIRTHCKDHK&assignmentId=3K4J6M3CXFF4Q8QE4JQEZQO3455AGX&a=C64K9&tp_a=C64K9&b=3K4J6M3CXFF4Q8QE4JQEZQO3455AGX&tp_b=3K4J6M3CXFF4Q8QE4JQEZQO3455AGX&c=365799&tp_c=365799","heads":12,"tails":2,"studentIndex":19,"studentTrueHypers":{"a":1,"b":4},"studentGuess":0.6842105263157895,"delta":0.11578947368421055,"totalExamples":14,"bonusSoFar":1},{"rt":7123,"response":{"heads":"12","tails":"02"},"type":"response","condition":"seqNoFeedback","trueTheta":0.8,"classrooms":["A","B"],"studentTrueClassroom":"A","exampleSet":"second","trial_type":"survey-html-form","trial_index":175,"time_elapsed":1509713,"internal_node_id":"0.0-159.0-0.0","params":{"nStudents":24,"maxFlips":30,"completionMinutes":45,"basePay":8,"maxBonus":9,"perTrialBonus":0.5,"perTrialBonusThreshold":0.05,"exampleCost":0.01},"classroomParams":{"A":{"a":1,"b":4},"B":{"a":4,"b":1},"C":{"a":2,"b":8},"D":{"a":8,"b":2}},"conditions":["nonSeqFull","nonSeqPartial","seqNoFeedback","seqFeedback"],"classroomPairings":[["A","B"],["C","D"]],"coinWeights":[0.2,0.5,0.8],"subjectId":"A2GXEIRTHCKDHK","assignmentId":"3K4J6M3CXFF4Q8QE4JQEZQO3455AGX","hitId":"3UDTAB6HH6LRO17U79I9TKUGSHV90J","url":"https://gershmanlab.com/experiments/alicia/teaching/experiment/?hitId=3UDTAB6HH6LRO17U79I9TKUGSHV90J&workerId=A2GXEIRTHCKDHK&assignmentId=3K4J6M3CXFF4Q8QE4JQEZQO3455AGX&a=C64K9&tp_a=C64K9&b=3K4J6M3CXFF4Q8QE4JQEZQO3455AGX&tp_b=3K4J6M3CXFF4Q8QE4JQEZQO3455AGX&c=365799&tp_c=365799","firstResponseHeads":12,"firstResponseTails":2,"secondResponseHeads":12,"secondResponseTails":2,"totalHeads":24,"totalTails":4,"studentIndex":19,"studentTrueHypers":{"a":1,"b":4},"studentGuess":0.7575757575757576,"delta":0.042424242424242475,"bonus":0.22,"bonusSoFar":1.22,"totalExamples":28},{"rt":7517,"response":{"heads":"8","tails":"2"},"type":"response","condition":"nonSeqFull","trueTheta":0.8,"classrooms":["A","B"],"studentTrueClassroom":"B","exampleSet":"first","trial_type":"survey-html-form","trial_index":181,"time_elapsed":1530897,"internal_node_id":"0.0-165.0-0.0","params":{"nStudents":24,"maxFlips":30,"completionMinutes":45,"basePay":8,"maxBonus":9,"perTrialBonus":0.5,"perTrialBonusThreshold":0.05,"exampleCost":0.01},"classroomParams":{"A":{"a":1,"b":4},"B":{"a":4,"b":1},"C":{"a":2,"b":8},"D":{"a":8,"b":2}},"conditions":["nonSeqFull","nonSeqPartial","seqNoFeedback","seqFeedback"],"classroomPairings":[["A","B"],["C","D"]],"coinWeights":[0.2,0.5,0.8],"subjectId":"A2GXEIRTHCKDHK","assignmentId":"3K4J6M3CXFF4Q8QE4JQEZQO3455AGX","hitId":"3UDTAB6HH6LRO17U79I9TKUGSHV90J","url":"https://gershmanlab.com/experiments/alicia/teaching/experiment/?hitId=3UDTAB6HH6LRO17U79I9TKUGSHV90J&workerId=A2GXEIRTHCKDHK&assignmentId=3K4J6M3CXFF4Q8QE4JQEZQO3455AGX&a=C64K9&tp_a=C64K9&b=3K4J6M3CXFF4Q8QE4JQEZQO3455AGX&tp_b=3K4J6M3CXFF4Q8QE4JQEZQO3455AGX&c=365799&tp_c=365799","heads":8,"tails":2,"studentIndex":20,"studentTrueHypers":{"a":4,"b":1},"studentGuess":0.8,"delta":0,"totalExamples":10,"bonus":0.4,"bonusSoFar":1.62},{"rt":10219,"response":{"heads":"20","tails":"2"},"type":"response","condition":"nonSeqFull","trueTheta":0.8,"classrooms":["C","D"],"studentTrueClassroom":"C","exampleSet":"first","trial_type":"survey-html-form","trial_index":187,"time_elapsed":1552360,"internal_node_id":"0.0-171.0-0.0","params":{"nStudents":24,"maxFlips":30,"completionMinutes":45,"basePay":8,"maxBonus":9,"perTrialBonus":0.5,"perTrialBonusThreshold":0.05,"exampleCost":0.01},"classroomParams":{"A":{"a":1,"b":4},"B":{"a":4,"b":1},"C":{"a":2,"b":8},"D":{"a":8,"b":2}},"conditions":["nonSeqFull","nonSeqPartial","seqNoFeedback","seqFeedback"],"classroomPairings":[["A","B"],["C","D"]],"coinWeights":[0.2,0.5,0.8],"subjectId":"A2GXEIRTHCKDHK","assignmentId":"3K4J6M3CXFF4Q8QE4JQEZQO3455AGX","hitId":"3UDTAB6HH6LRO17U79I9TKUGSHV90J","url":"https://gershmanlab.com/experiments/alicia/teaching/experiment/?hitId=3UDTAB6HH6LRO17U79I9TKUGSHV90J&workerId=A2GXEIRTHCKDHK&assignmentId=3K4J6M3CXFF4Q8QE4JQEZQO3455AGX&a=C64K9&tp_a=C64K9&b=3K4J6M3CXFF4Q8QE4JQEZQO3455AGX&tp_b=3K4J6M3CXFF4Q8QE4JQEZQO3455AGX&c=365799&tp_c=365799","heads":20,"tails":2,"studentIndex":21,"studentTrueHypers":{"a":2,"b":8},"studentGuess":0.6875,"delta":0.11250000000000004,"totalExamples":22,"bonus":0,"bonusSoFar":1.62},{"rt":4862,"response":{"heads":"1","tails":"1"},"type":"response","condition":"nonSeqPartial","trueTheta":0.5,"classrooms":["A","B"],"studentTrueClassroom":"A","exampleSet":"first","trial_type":"survey-html-form","trial_index":193,"time_elapsed":1569195,"internal_node_id":"0.0-177.0-0.0","params":{"nStudents":24,"maxFlips":30,"completionMinutes":45,"basePay":8,"maxBonus":9,"perTrialBonus":0.5,"perTrialBonusThreshold":0.05,"exampleCost":0.01},"classroomParams":{"A":{"a":1,"b":4},"B":{"a":4,"b":1},"C":{"a":2,"b":8},"D":{"a":8,"b":2}},"conditions":["nonSeqFull","nonSeqPartial","seqNoFeedback","seqFeedback"],"classroomPairings":[["A","B"],["C","D"]],"coinWeights":[0.2,0.5,0.8],"subjectId":"A2GXEIRTHCKDHK","assignmentId":"3K4J6M3CXFF4Q8QE4JQEZQO3455AGX","hitId":"3UDTAB6HH6LRO17U79I9TKUGSHV90J","url":"https://gershmanlab.com/experiments/alicia/teaching/experiment/?hitId=3UDTAB6HH6LRO17U79I9TKUGSHV90J&workerId=A2GXEIRTHCKDHK&assignmentId=3K4J6M3CXFF4Q8QE4JQEZQO3455AGX&a=C64K9&tp_a=C64K9&b=3K4J6M3CXFF4Q8QE4JQEZQO3455AGX&tp_b=3K4J6M3CXFF4Q8QE4JQEZQO3455AGX&c=365799&tp_c=365799","heads":1,"tails":1,"studentIndex":22,"studentTrueHypers":{"a":1,"b":4},"studentGuess":0.2857142857142857,"delta":0.2142857142857143,"totalExamples":2,"bonus":0,"bonusSoFar":1.62},{"rt":8326,"response":{"heads":"1","tails":"12"},"type":"response","condition":"seqNoFeedback","trueTheta":0.2,"classrooms":["C","D"],"studentTrueClassroom":"C","exampleSet":"first","trial_type":"survey-html-form","trial_index":199,"time_elapsed":1589973,"internal_node_id":"0.0-183.0-0.0","params":{"nStudents":24,"maxFlips":30,"completionMinutes":45,"basePay":8,"maxBonus":9,"perTrialBonus":0.5,"perTrialBonusThreshold":0.05,"exampleCost":0.01},"classroomParams":{"A":{"a":1,"b":4},"B":{"a":4,"b":1},"C":{"a":2,"b":8},"D":{"a":8,"b":2}},"conditions":["nonSeqFull","nonSeqPartial","seqNoFeedback","seqFeedback"],"classroomPairings":[["A","B"],["C","D"]],"coinWeights":[0.2,0.5,0.8],"subjectId":"A2GXEIRTHCKDHK","assignmentId":"3K4J6M3CXFF4Q8QE4JQEZQO3455AGX","hitId":"3UDTAB6HH6LRO17U79I9TKUGSHV90J","url":"https://gershmanlab.com/experiments/alicia/teaching/experiment/?hitId=3UDTAB6HH6LRO17U79I9TKUGSHV90J&workerId=A2GXEIRTHCKDHK&assignmentId=3K4J6M3CXFF4Q8QE4JQEZQO3455AGX&a=C64K9&tp_a=C64K9&b=3K4J6M3CXFF4Q8QE4JQEZQO3455AGX&tp_b=3K4J6M3CXFF4Q8QE4JQEZQO3455AGX&c=365799&tp_c=365799","heads":1,"tails":12,"studentIndex":23,"studentTrueHypers":{"a":2,"b":8},"studentGuess":0.13043478260869565,"delta":0.06956521739130436,"totalExamples":13,"bonusSoFar":1.62},{"rt":7182,"response":{"heads":"1","tails":"10"},"type":"response","condition":"seqNoFeedback","trueTheta":0.2,"classrooms":["C","D"],"studentTrueClassroom":"C","exampleSet":"second","trial_type":"survey-html-form","trial_index":202,"time_elapsed":1603205,"internal_node_id":"0.0-186.0-0.0","params":{"nStudents":24,"maxFlips":30,"completionMinutes":45,"basePay":8,"maxBonus":9,"perTrialBonus":0.5,"perTrialBonusThreshold":0.05,"exampleCost":0.01},"classroomParams":{"A":{"a":1,"b":4},"B":{"a":4,"b":1},"C":{"a":2,"b":8},"D":{"a":8,"b":2}},"conditions":["nonSeqFull","nonSeqPartial","seqNoFeedback","seqFeedback"],"classroomPairings":[["A","B"],["C","D"]],"coinWeights":[0.2,0.5,0.8],"subjectId":"A2GXEIRTHCKDHK","assignmentId":"3K4J6M3CXFF4Q8QE4JQEZQO3455AGX","hitId":"3UDTAB6HH6LRO17U79I9TKUGSHV90J","url":"https://gershmanlab.com/experiments/alicia/teaching/experiment/?hitId=3UDTAB6HH6LRO17U79I9TKUGSHV90J&workerId=A2GXEIRTHCKDHK&assignmentId=3K4J6M3CXFF4Q8QE4JQEZQO3455AGX&a=C64K9&tp_a=C64K9&b=3K4J6M3CXFF4Q8QE4JQEZQO3455AGX&tp_b=3K4J6M3CXFF4Q8QE4JQEZQO3455AGX&c=365799&tp_c=365799","firstResponseHeads":1,"firstResponseTails":12,"secondResponseHeads":1,"secondResponseTails":10,"totalHeads":2,"totalTails":22,"studentIndex":23,"studentTrueHypers":{"a":2,"b":8},"studentGuess":0.11764705882352941,"delta":0.0823529411764706,"bonus":0,"bonusSoFar":1.62,"totalExamples":24},{"rt":5726,"response":{"gender":"male","age":"34","understood":"yes","comments":""},"type":"response","trial_type":"survey-html-form","trial_index":206,"time_elapsed":1620709,"internal_node_id":"0.0-191.0","params":{"nStudents":24,"maxFlips":30,"completionMinutes":45,"basePay":8,"maxBonus":9,"perTrialBonus":0.5,"perTrialBonusThreshold":0.05,"exampleCost":0.01},"classroomParams":{"A":{"a":1,"b":4},"B":{"a":4,"b":1},"C":{"a":2,"b":8},"D":{"a":8,"b":2}},"conditions":["nonSeqFull","nonSeqPartial","seqNoFeedback","seqFeedback"],"classroomPairings":[["A","B"],["C","D"]],"coinWeights":[0.2,0.5,0.8],"subjectId":"A2GXEIRTHCKDHK","assignmentId":"3K4J6M3CXFF4Q8QE4JQEZQO3455AGX","hitId":"3UDTAB6HH6LRO17U79I9TKUGSHV90J","url":"https://gershmanlab.com/experiments/alicia/teaching/experiment/?hitId=3UDTAB6HH6LRO17U79I9TKUGSHV90J&workerId=A2GXEIRTHCKDHK&assignmentId=3K4J6M3CXFF4Q8QE4JQEZQO3455AGX&a=C64K9&tp_a=C64K9&b=3K4J6M3CXFF4Q8QE4JQEZQO3455AGX&tp_b=3K4J6M3CXFF4Q8QE4JQEZQO3455AGX&c=365799&tp_c=365799","totalBonus":1.62}]