[{"rt":21554,"response":{"heads":"4","tails":"1"},"type":"response","condition":"nonSeqPartial","trueTheta":0.8,"classrooms":["A","B"],"studentTrueClassroom":"A","exampleSet":"first","trial_type":"survey-html-form","trial_index":7,"time_elapsed":838824,"internal_node_id":"0.0-6.0-0.0","params":{"nStudents":24,"maxFlips":30,"completionMinutes":45,"basePay":8,"maxBonus":9,"perTrialBonus":0.5,"perTrialBonusThreshold":0.05,"exampleCost":0.01},"classroomParams":{"A":{"a":1,"b":4},"B":{"a":4,"b":1},"C":{"a":2,"b":8},"D":{"a":8,"b":2}},"conditions":["nonSeqFull","nonSeqPartial","seqNoFeedback","seqFeedback"],"classroomPairings":[["A","B"],["C","D"]],"coinWeights":[0.2,0.5,0.8],"subjectId":"A2HRUFTA09371Y","assignmentId":"3TYCR1GOTD5LD8CNR23TTBKK97ZZLU","hitId":"3J94SKDEKIB2MY6CGVTNWB9X0ALD5P","url":"https://gershmanlab.com/experiments/alicia/teaching/experiment/?hitId=3J94SKDEKIB2MY6CGVTNWB9X0ALD5P&workerId=A2HRUFTA09371Y&assignmentId=3TYCR1GOTD5LD8CNR23TTBKK97ZZLU&a=ORYT9&tp_a=ORYT9&b=3TYCR1GOTD5LD8CNR23TTBKK97ZZLU&tp_b=3TYCR1GOTD5LD8CNR23TTBKK97ZZLU&c=365799&tp_c=365799","heads":4,"tails":1,"studentIndex":0,"studentTrueHypers":{"a":1,"b":4},"studentGuess":0.5,"delta":0.30000000000000004,"totalExamples":5,"bonus":0,"bonusSoFar":0},{"rt":11967,"response":{"heads":"4","tails":"1"},"type":"response","condition":"seqFeedback","trueTheta":0.8,"classrooms":["A","B"],"studentTrueClassroom":"B","exampleSet":"first","trial_type":"survey-html-form","trial_index":13,"time_elapsed":873732,"internal_node_id":"0.0-12.0-0.0","params":{"nStudents":24,"maxFlips":30,"completionMinutes":45,"basePay":8,"maxBonus":9,"perTrialBonus":0.5,"perTrialBonusThreshold":0.05,"exampleCost":0.01},"classroomParams":{"A":{"a":1,"b":4},"B":{"a":4,"b":1},"C":{"a":2,"b":8},"D":{"a":8,"b":2}},"conditions":["nonSeqFull","nonSeqPartial","seqNoFeedback","seqFeedback"],"classroomPairings":[["A","B"],["C","D"]],"coinWeights":[0.2,0.5,0.8],"subjectId":"A2HRUFTA09371Y","assignmentId":"3TYCR1GOTD5LD8CNR23TTBKK97ZZLU","hitId":"3J94SKDEKIB2MY6CGVTNWB9X0ALD5P","url":"https://gershmanlab.com/experiments/alicia/teaching/experiment/?hitId=3J94SKDEKIB2MY6CGVTNWB9X0ALD5P&workerId=A2HRUFTA09371Y&assignmentId=3TYCR1GOTD5LD8CNR23TTBKK97ZZLU&a=ORYT9&tp_a=ORYT9&b=3TYCR1GOTD5LD8CNR23TTBKK97ZZLU&tp_b=3TYCR1GOTD5LD8CNR23TTBKK97ZZLU&c=365799&tp_c=365799","heads":4,"tails":1,"studentIndex":1,"studentTrueHypers":{"a":4,"b":1},"studentGuess":0.8,"delta":0,"totalExamples":5,"bonusSoFar":0},{"rt":4665,"response":{"heads":"0","tails":"0"},"type":"response","condition":"seqFeedback","trueTheta":0.8,"classrooms":["A","B"],"studentTrueClassroom":"B","exampleSet":"second","trial_type":"survey-html-form","trial_index":17,"time_elapsed":893343,"internal_node_id":"0.0-16.0-0.0","params":{"nStudents":24,"maxFlips":30,"completionMinutes":45,"basePay":8,"maxBonus":9,"perTrialBonus":0.5,"perTrialBonusThreshold":0.05,"exampleCost":0.01},"classroomParams":{"A":{"a":1,"b":4},"B":{"a":4,"b":1},"C":{"a":2,"b":8},"D":{"a":8,"b":2}},"conditions":["nonSeqFull","nonSeqPartial","seqNoFeedback","seqFeedback"],"classroomPairings":[["A","B"],["C","D"]],"coinWeights":[0.2,0.5,0.8],"subjectId":"A2HRUFTA09371Y","assignmentId":"3TYCR1GOTD5LD8CNR23TTBKK97ZZLU","hitId":"3J94SKDEKIB2MY6CGVTNWB9X0ALD5P","url":"https://gershmanlab.com/experiments/alicia/teaching/experiment/?hitId=3J94SKDEKIB2MY6CGVTNWB9X0ALD5P&workerId=A2HRUFTA09371Y&assignmentId=3TYCR1GOTD5LD8CNR23TTBKK97ZZLU&a=ORYT9&tp_a=ORYT9&b=3TYCR1GOTD5LD8CNR23TTBKK97ZZLU&tp_b=3TYCR1GOTD5LD8CNR23TTBKK97ZZLU&c=365799&tp_c=365799","firstResponseHeads":4,"firstResponseTails":1,"secondResponseHeads":0,"secondResponseTails":0,"totalHeads":4,"totalTails":1,"studentIndex":1,"studentTrueHypers":{"a":4,"b":1},"studentGuess":0.8,"delta":0,"bonus":0.45,"bonusSoFar":0.45,"totalExamples":5},{"rt":4481,"response":{"heads":"4","tails":"1"},"type":"response","condition":"seqFeedback","trueTheta":0.8,"classrooms":["A","B"],"studentTrueClassroom":"B","exampleSet":"second","trial_type":"survey-html-form","trial_index":18,"time_elapsed":897826,"internal_node_id":"0.0-16.1-0.1","params":{"nStudents":24,"maxFlips":30,"completionMinutes":45,"basePay":8,"maxBonus":9,"perTrialBonus":0.5,"perTrialBonusThreshold":0.05,"exampleCost":0.01},"classroomParams":{"A":{"a":1,"b":4},"B":{"a":4,"b":1},"C":{"a":2,"b":8},"D":{"a":8,"b":2}},"conditions":["nonSeqFull","nonSeqPartial","seqNoFeedback","seqFeedback"],"classroomPairings":[["A","B"],["C","D"]],"coinWeights":[0.2,0.5,0.8],"subjectId":"A2HRUFTA09371Y","assignmentId":"3TYCR1GOTD5LD8CNR23TTBKK97ZZLU","hitId":"3J94SKDEKIB2MY6CGVTNWB9X0ALD5P","url":"https://gershmanlab.com/experiments/alicia/teaching/experiment/?hitId=3J94SKDEKIB2MY6CGVTNWB9X0ALD5P&workerId=A2HRUFTA09371Y&assignmentId=3TYCR1GOTD5LD8CNR23TTBKK97ZZLU&a=ORYT9&tp_a=ORYT9&b=3TYCR1GOTD5LD8CNR23TTBKK97ZZLU&tp_b=3TYCR1GOTD5LD8CNR23TTBKK97ZZLU&c=365799&tp_c=365799","firstResponseHeads":4,"firstResponseTails":1,"secondResponseHeads":4,"secondResponseTails":1,"totalHeads":8,"totalTails":2,"studentIndex":1,"studentTrueHypers":{"a":4,"b":1},"studentGuess":0.8,"delta":0,"bonus":0.4,"bonusSoFar":0.85,"totalExamples":10},{"rt":8336,"response":{"heads":"4","tails":"1"},"type":"response","condition":"seqFeedback","trueTheta":0.8,"classrooms":["C","D"],"studentTrueClassroom":"C","exampleSet":"first","trial_type":"survey-html-form","trial_index":24,"time_elapsed":923153,"internal_node_id":"0.0-22.0-0.0","params":{"nStudents":24,"maxFlips":30,"completionMinutes":45,"basePay":8,"maxBonus":9,"perTrialBonus":0.5,"perTrialBonusThreshold":0.05,"exampleCost":0.01},"classroomParams":{"A":{"a":1,"b":4},"B":{"a":4,"b":1},"C":{"a":2,"b":8},"D":{"a":8,"b":2}},"conditions":["nonSeqFull","nonSeqPartial","seqNoFeedback","seqFeedback"],"classroomPairings":[["A","B"],["C","D"]],"coinWeights":[0.2,0.5,0.8],"subjectId":"A2HRUFTA09371Y","assignmentId":"3TYCR1GOTD5LD8CNR23TTBKK97ZZLU","hitId":"3J94SKDEKIB2MY6CGVTNWB9X0ALD5P","url":"https://gershmanlab.com/experiments/alicia/teaching/experiment/?hitId=3J94SKDEKIB2MY6CGVTNWB9X0ALD5P&workerId=A2HRUFTA09371Y&assignmentId=3TYCR1GOTD5LD8CNR23TTBKK97ZZLU&a=ORYT9&tp_a=ORYT9&b=3TYCR1GOTD5LD8CNR23TTBKK97ZZLU&tp_b=3TYCR1GOTD5LD8CNR23TTBKK97ZZLU&c=365799&tp_c=365799","heads":4,"tails":1,"studentIndex":2,"studentTrueHypers":{"a":2,"b":8},"studentGuess":0.4,"delta":0.4,"totalExamples":5,"bonusSoFar":0.85},{"rt":6679,"response":{"heads":"4","tails":"0"},"type":"response","condition":"seqFeedback","trueTheta":0.8,"classrooms":["C","D"],"studentTrueClassroom":"C","exampleSet":"second","trial_type":"survey-html-form","trial_index":28,"time_elapsed":947779,"internal_node_id":"0.0-26.0-0.0","params":{"nStudents":24,"maxFlips":30,"completionMinutes":45,"basePay":8,"maxBonus":9,"perTrialBonus":0.5,"perTrialBonusThreshold":0.05,"exampleCost":0.01},"classroomParams":{"A":{"a":1,"b":4},"B":{"a":4,"b":1},"C":{"a":2,"b":8},"D":{"a":8,"b":2}},"conditions":["nonSeqFull","nonSeqPartial","seqNoFeedback","seqFeedback"],"classroomPairings":[["A","B"],["C","D"]],"coinWeights":[0.2,0.5,0.8],"subjectId":"A2HRUFTA09371Y","assignmentId":"3TYCR1GOTD5LD8CNR23TTBKK97ZZLU","hitId":"3J94SKDEKIB2MY6CGVTNWB9X0ALD5P","url":"https://gershmanlab.com/experiments/alicia/teaching/experiment/?hitId=3J94SKDEKIB2MY6CGVTNWB9X0ALD5P&workerId=A2HRUFTA09371Y&assignmentId=3TYCR1GOTD5LD8CNR23TTBKK97ZZLU&a=ORYT9&tp_a=ORYT9&b=3TYCR1GOTD5LD8CNR23TTBKK97ZZLU&tp_b=3TYCR1GOTD5LD8CNR23TTBKK97ZZLU&c=365799&tp_c=365799","firstResponseHeads":4,"firstResponseTails":1,"secondResponseHeads":4,"secondResponseTails":0,"totalHeads":8,"totalTails":1,"studentIndex":2,"studentTrueHypers":{"a":2,"b":8},"studentGuess":0.5263157894736842,"delta":0.27368421052631586,"bonus":0,"bonusSoFar":0.85,"totalExamples":9},{"rt":7036,"response":{"heads":"1","tails":"1"},"type":"response","condition":"nonSeqPartial","trueTheta":0.5,"classrooms":["A","B"],"studentTrueClassroom":"B","exampleSet":"first","trial_type":"survey-html-form","trial_index":34,"time_elapsed":971856,"internal_node_id":"0.0-32.0-0.0","params":{"nStudents":24,"maxFlips":30,"completionMinutes":45,"basePay":8,"maxBonus":9,"perTrialBonus":0.5,"perTrialBonusThreshold":0.05,"exampleCost":0.01},"classroomParams":{"A":{"a":1,"b":4},"B":{"a":4,"b":1},"C":{"a":2,"b":8},"D":{"a":8,"b":2}},"conditions":["nonSeqFull","nonSeqPartial","seqNoFeedback","seqFeedback"],"classroomPairings":[["A","B"],["C","D"]],"coinWeights":[0.2,0.5,0.8],"subjectId":"A2HRUFTA09371Y","assignmentId":"3TYCR1GOTD5LD8CNR23TTBKK97ZZLU","hitId":"3J94SKDEKIB2MY6CGVTNWB9X0ALD5P","url":"https://gershmanlab.com/experiments/alicia/teaching/experiment/?hitId=3J94SKDEKIB2MY6CGVTNWB9X0ALD5P&workerId=A2HRUFTA09371Y&assignmentId=3TYCR1GOTD5LD8CNR23TTBKK97ZZLU&a=ORYT9&tp_a=ORYT9&b=3TYCR1GOTD5LD8CNR23TTBKK97ZZLU&tp_b=3TYCR1GOTD5LD8CNR23TTBKK97ZZLU&c=365799&tp_c=365799","heads":1,"tails":1,"studentIndex":3,"studentTrueHypers":{"a":4,"b":1},"studentGuess":0.7142857142857143,"delta":0.2142857142857143,"totalExamples":2,"bonus":0,"bonusSoFar":0.85},{"rt":61708,"response":{"heads":"0","tails":"15"},"type":"response","condition":"nonSeqFull","trueTheta":0.2,"classrooms":["A","B"],"studentTrueClassroom":"B","exampleSet":"first","trial_type":"survey-html-form","trial_index":40,"time_elapsed":1046892,"internal_node_id":"0.0-38.0-0.0","params":{"nStudents":24,"maxFlips":30,"completionMinutes":45,"basePay":8,"maxBonus":9,"perTrialBonus":0.5,"perTrialBonusThreshold":0.05,"exampleCost":0.01},"classroomParams":{"A":{"a":1,"b":4},"B":{"a":4,"b":1},"C":{"a":2,"b":8},"D":{"a":8,"b":2}},"conditions":["nonSeqFull","nonSeqPartial","seqNoFeedback","seqFeedback"],"classroomPairings":[["A","B"],["C","D"]],"coinWeights":[0.2,0.5,0.8],"subjectId":"A2HRUFTA09371Y","assignmentId":"3TYCR1GOTD5LD8CNR23TTBKK97ZZLU","hitId":"3J94SKDEKIB2MY6CGVTNWB9X0ALD5P","url":"https://gershmanlab.com/experiments/alicia/teaching/experiment/?hitId=3J94SKDEKIB2MY6CGVTNWB9X0ALD5P&workerId=A2HRUFTA09371Y&assignmentId=3TYCR1GOTD5LD8CNR23TTBKK97ZZLU&a=ORYT9&tp_a=ORYT9&b=3TYCR1GOTD5LD8CNR23TTBKK97ZZLU&tp_b=3TYCR1GOTD5LD8CNR23TTBKK97ZZLU&c=365799&tp_c=365799","heads":0,"tails":15,"studentIndex":4,"studentTrueHypers":{"a":4,"b":1},"studentGuess":0.2,"delta":0,"totalExamples":15,"bonus":0.35,"bonusSoFar":1.2},{"rt":25547,"response":{"heads":"0","tails":"8"},"type":"response","condition":"nonSeqPartial","trueTheta":0.2,"classrooms":["C","D"],"studentTrueClassroom":"D","exampleSet":"first","trial_type":"survey-html-form","trial_index":46,"time_elapsed":1085536,"internal_node_id":"0.0-44.0-0.0","params":{"nStudents":24,"maxFlips":30,"completionMinutes":45,"basePay":8,"maxBonus":9,"perTrialBonus":0.5,"perTrialBonusThreshold":0.05,"exampleCost":0.01},"classroomParams":{"A":{"a":1,"b":4},"B":{"a":4,"b":1},"C":{"a":2,"b":8},"D":{"a":8,"b":2}},"conditions":["nonSeqFull","nonSeqPartial","seqNoFeedback","seqFeedback"],"classroomPairings":[["A","B"],["C","D"]],"coinWeights":[0.2,0.5,0.8],"subjectId":"A2HRUFTA09371Y","assignmentId":"3TYCR1GOTD5LD8CNR23TTBKK97ZZLU","hitId":"3J94SKDEKIB2MY6CGVTNWB9X0ALD5P","url":"https://gershmanlab.com/experiments/alicia/teaching/experiment/?hitId=3J94SKDEKIB2MY6CGVTNWB9X0ALD5P&workerId=A2HRUFTA09371Y&assignmentId=3TYCR1GOTD5LD8CNR23TTBKK97ZZLU&a=ORYT9&tp_a=ORYT9&b=3TYCR1GOTD5LD8CNR23TTBKK97ZZLU&tp_b=3TYCR1GOTD5LD8CNR23TTBKK97ZZLU&c=365799&tp_c=365799","heads":0,"tails":8,"studentIndex":5,"studentTrueHypers":{"a":8,"b":2},"studentGuess":0.4444444444444444,"delta":0.2444444444444444,"totalExamples":8,"bonus":0,"bonusSoFar":1.2},{"rt":20656,"response":{"heads":"1","tails":"4"},"type":"response","condition":"seqNoFeedback","trueTheta":0.5,"classrooms":["A","B"],"studentTrueClassroom":"A","exampleSet":"first","trial_type":"survey-html-form","trial_index":52,"time_elapsed":1124874,"internal_node_id":"0.0-50.0-0.0","params":{"nStudents":24,"maxFlips":30,"completionMinutes":45,"basePay":8,"maxBonus":9,"perTrialBonus":0.5,"perTrialBonusThreshold":0.05,"exampleCost":0.01},"classroomParams":{"A":{"a":1,"b":4},"B":{"a":4,"b":1},"C":{"a":2,"b":8},"D":{"a":8,"b":2}},"conditions":["nonSeqFull","nonSeqPartial","seqNoFeedback","seqFeedback"],"classroomPairings":[["A","B"],["C","D"]],"coinWeights":[0.2,0.5,0.8],"subjectId":"A2HRUFTA09371Y","assignmentId":"3TYCR1GOTD5LD8CNR23TTBKK97ZZLU","hitId":"3J94SKDEKIB2MY6CGVTNWB9X0ALD5P","url":"https://gershmanlab.com/experiments/alicia/teaching/experiment/?hitId=3J94SKDEKIB2MY6CGVTNWB9X0ALD5P&workerId=A2HRUFTA09371Y&assignmentId=3TYCR1GOTD5LD8CNR23TTBKK97ZZLU&a=ORYT9&tp_a=ORYT9&b=3TYCR1GOTD5LD8CNR23TTBKK97ZZLU&tp_b=3TYCR1GOTD5LD8CNR23TTBKK97ZZLU&c=365799&tp_c=365799","heads":1,"tails":4,"studentIndex":6,"studentTrueHypers":{"a":1,"b":4},"studentGuess":0.2,"delta":0.3,"totalExamples":5,"bonusSoFar":1.2},{"rt":11558,"response":{"heads":"0","tails":"0"},"type":"response","condition":"seqNoFeedback","trueTheta":0.5,"classrooms":["A","B"],"studentTrueClassroom":"A","exampleSet":"second","trial_type":"survey-html-form","trial_index":55,"time_elapsed":1143688,"internal_node_id":"0.0-53.0-0.0","params":{"nStudents":24,"maxFlips":30,"completionMinutes":45,"basePay":8,"maxBonus":9,"perTrialBonus":0.5,"perTrialBonusThreshold":0.05,"exampleCost":0.01},"classroomParams":{"A":{"a":1,"b":4},"B":{"a":4,"b":1},"C":{"a":2,"b":8},"D":{"a":8,"b":2}},"conditions":["nonSeqFull","nonSeqPartial","seqNoFeedback","seqFeedback"],"classroomPairings":[["A","B"],["C","D"]],"coinWeights":[0.2,0.5,0.8],"subjectId":"A2HRUFTA09371Y","assignmentId":"3TYCR1GOTD5LD8CNR23TTBKK97ZZLU","hitId":"3J94SKDEKIB2MY6CGVTNWB9X0ALD5P","url":"https://gershmanlab.com/experiments/alicia/teaching/experiment/?hitId=3J94SKDEKIB2MY6CGVTNWB9X0ALD5P&workerId=A2HRUFTA09371Y&assignmentId=3TYCR1GOTD5LD8CNR23TTBKK97ZZLU&a=ORYT9&tp_a=ORYT9&b=3TYCR1GOTD5LD8CNR23TTBKK97ZZLU&tp_b=3TYCR1GOTD5LD8CNR23TTBKK97ZZLU&c=365799&tp_c=365799","firstResponseHeads":1,"firstResponseTails":4,"secondResponseHeads":0,"secondResponseTails":0,"totalHeads":1,"totalTails":4,"studentIndex":6,"studentTrueHypers":{"a":1,"b":4},"studentGuess":0.2,"delta":0.3,"bonus":0,"bonusSoFar":1.2,"totalExamples":5},{"rt":6548,"response":{"heads":"4","tails":"1"},"type":"response","condition":"seqNoFeedback","trueTheta":0.5,"classrooms":["A","B"],"studentTrueClassroom":"A","exampleSet":"second","trial_type":"survey-html-form","trial_index":56,"time_elapsed":1150237,"internal_node_id":"0.0-53.1-0.1","params":{"nStudents":24,"maxFlips":30,"completionMinutes":45,"basePay":8,"maxBonus":9,"perTrialBonus":0.5,"perTrialBonusThreshold":0.05,"exampleCost":0.01},"classroomParams":{"A":{"a":1,"b":4},"B":{"a":4,"b":1},"C":{"a":2,"b":8},"D":{"a":8,"b":2}},"conditions":["nonSeqFull","nonSeqPartial","seqNoFeedback","seqFeedback"],"classroomPairings":[["A","B"],["C","D"]],"coinWeights":[0.2,0.5,0.8],"subjectId":"A2HRUFTA09371Y","assignmentId":"3TYCR1GOTD5LD8CNR23TTBKK97ZZLU","hitId":"3J94SKDEKIB2MY6CGVTNWB9X0ALD5P","url":"https://gershmanlab.com/experiments/alicia/teaching/experiment/?hitId=3J94SKDEKIB2MY6CGVTNWB9X0ALD5P&workerId=A2HRUFTA09371Y&assignmentId=3TYCR1GOTD5LD8CNR23TTBKK97ZZLU&a=ORYT9&tp_a=ORYT9&b=3TYCR1GOTD5LD8CNR23TTBKK97ZZLU&tp_b=3TYCR1GOTD5LD8CNR23TTBKK97ZZLU&c=365799&tp_c=365799","firstResponseHeads":1,"firstResponseTails":4,"secondResponseHeads":4,"secondResponseTails":1,"totalHeads":5,"totalTails":5,"studentIndex":6,"studentTrueHypers":{"a":1,"b":4},"studentGuess":0.4,"delta":0.09999999999999998,"bonus":0,"bonusSoFar":1.2,"totalExamples":10},{"rt":35547,"response":{"heads":"0","tails":"30"},"type":"response","condition":"nonSeqFull","trueTheta":0.2,"classrooms":["C","D"],"studentTrueClassroom":"D","exampleSet":"first","trial_type":"survey-html-form","trial_index":62,"time_elapsed":1215458,"internal_node_id":"0.0-59.0-0.0","params":{"nStudents":24,"maxFlips":30,"completionMinutes":45,"basePay":8,"maxBonus":9,"perTrialBonus":0.5,"perTrialBonusThreshold":0.05,"exampleCost":0.01},"classroomParams":{"A":{"a":1,"b":4},"B":{"a":4,"b":1},"C":{"a":2,"b":8},"D":{"a":8,"b":2}},"conditions":["nonSeqFull","nonSeqPartial","seqNoFeedback","seqFeedback"],"classroomPairings":[["A","B"],["C","D"]],"coinWeights":[0.2,0.5,0.8],"subjectId":"A2HRUFTA09371Y","assignmentId":"3TYCR1GOTD5LD8CNR23TTBKK97ZZLU","hitId":"3J94SKDEKIB2MY6CGVTNWB9X0ALD5P","url":"https://gershmanlab.com/experiments/alicia/teaching/experiment/?hitId=3J94SKDEKIB2MY6CGVTNWB9X0ALD5P&workerId=A2HRUFTA09371Y&assignmentId=3TYCR1GOTD5LD8CNR23TTBKK97ZZLU&a=ORYT9&tp_a=ORYT9&b=3TYCR1GOTD5LD8CNR23TTBKK97ZZLU&tp_b=3TYCR1GOTD5LD8CNR23TTBKK97ZZLU&c=365799&tp_c=365799","heads":0,"tails":30,"studentIndex":7,"studentTrueHypers":{"a":8,"b":2},"studentGuess":0.2,"delta":0,"totalExamples":30,"bonus":0.2,"bonusSoFar":1.4},{"rt":16591,"response":{"heads":"30","tails":"0"},"type":"response","condition":"nonSeqFull","trueTheta":0.8,"classrooms":["C","D"],"studentTrueClassroom":"C","exampleSet":"first","trial_type":"survey-html-form","trial_index":68,"time_elapsed":1252945,"internal_node_id":"0.0-65.0-0.0","params":{"nStudents":24,"maxFlips":30,"completionMinutes":45,"basePay":8,"maxBonus":9,"perTrialBonus":0.5,"perTrialBonusThreshold":0.05,"exampleCost":0.01},"classroomParams":{"A":{"a":1,"b":4},"B":{"a":4,"b":1},"C":{"a":2,"b":8},"D":{"a":8,"b":2}},"conditions":["nonSeqFull","nonSeqPartial","seqNoFeedback","seqFeedback"],"classroomPairings":[["A","B"],["C","D"]],"coinWeights":[0.2,0.5,0.8],"subjectId":"A2HRUFTA09371Y","assignmentId":"3TYCR1GOTD5LD8CNR23TTBKK97ZZLU","hitId":"3J94SKDEKIB2MY6CGVTNWB9X0ALD5P","url":"https://gershmanlab.com/experiments/alicia/teaching/experiment/?hitId=3J94SKDEKIB2MY6CGVTNWB9X0ALD5P&workerId=A2HRUFTA09371Y&assignmentId=3TYCR1GOTD5LD8CNR23TTBKK97ZZLU&a=ORYT9&tp_a=ORYT9&b=3TYCR1GOTD5LD8CNR23TTBKK97ZZLU&tp_b=3TYCR1GOTD5LD8CNR23TTBKK97ZZLU&c=365799&tp_c=365799","heads":30,"tails":0,"studentIndex":8,"studentTrueHypers":{"a":2,"b":8},"studentGuess":0.8,"delta":0,"totalExamples":30,"bonus":0.2,"bonusSoFar":1.6},{"rt":5495,"response":{"heads":"1","tails":"4"},"type":"response","condition":"nonSeqPartial","trueTheta":0.2,"classrooms":["A","B"],"studentTrueClassroom":"A","exampleSet":"first","trial_type":"survey-html-form","trial_index":74,"time_elapsed":1270763,"internal_node_id":"0.0-71.0-0.0","params":{"nStudents":24,"maxFlips":30,"completionMinutes":45,"basePay":8,"maxBonus":9,"perTrialBonus":0.5,"perTrialBonusThreshold":0.05,"exampleCost":0.01},"classroomParams":{"A":{"a":1,"b":4},"B":{"a":4,"b":1},"C":{"a":2,"b":8},"D":{"a":8,"b":2}},"conditions":["nonSeqFull","nonSeqPartial","seqNoFeedback","seqFeedback"],"classroomPairings":[["A","B"],["C","D"]],"coinWeights":[0.2,0.5,0.8],"subjectId":"A2HRUFTA09371Y","assignmentId":"3TYCR1GOTD5LD8CNR23TTBKK97ZZLU","hitId":"3J94SKDEKIB2MY6CGVTNWB9X0ALD5P","url":"https://gershmanlab.com/experiments/alicia/teaching/experiment/?hitId=3J94SKDEKIB2MY6CGVTNWB9X0ALD5P&workerId=A2HRUFTA09371Y&assignmentId=3TYCR1GOTD5LD8CNR23TTBKK97ZZLU&a=ORYT9&tp_a=ORYT9&b=3TYCR1GOTD5LD8CNR23TTBKK97ZZLU&tp_b=3TYCR1GOTD5LD8CNR23TTBKK97ZZLU&c=365799&tp_c=365799","heads":1,"tails":4,"studentIndex":9,"studentTrueHypers":{"a":1,"b":4},"studentGuess":0.2,"delta":0,"totalExamples":5,"bonus":0.45,"bonusSoFar":2.05},{"rt":8141,"response":{"heads":"1","tails":"4"},"type":"response","condition":"nonSeqPartial","trueTheta":0.5,"classrooms":["C","D"],"studentTrueClassroom":"D","exampleSet":"first","trial_type":"survey-html-form","trial_index":80,"time_elapsed":1291423,"internal_node_id":"0.0-77.0-0.0","params":{"nStudents":24,"maxFlips":30,"completionMinutes":45,"basePay":8,"maxBonus":9,"perTrialBonus":0.5,"perTrialBonusThreshold":0.05,"exampleCost":0.01},"classroomParams":{"A":{"a":1,"b":4},"B":{"a":4,"b":1},"C":{"a":2,"b":8},"D":{"a":8,"b":2}},"conditions":["nonSeqFull","nonSeqPartial","seqNoFeedback","seqFeedback"],"classroomPairings":[["A","B"],["C","D"]],"coinWeights":[0.2,0.5,0.8],"subjectId":"A2HRUFTA09371Y","assignmentId":"3TYCR1GOTD5LD8CNR23TTBKK97ZZLU","hitId":"3J94SKDEKIB2MY6CGVTNWB9X0ALD5P","url":"https://gershmanlab.com/experiments/alicia/teaching/experiment/?hitId=3J94SKDEKIB2MY6CGVTNWB9X0ALD5P&workerId=A2HRUFTA09371Y&assignmentId=3TYCR1GOTD5LD8CNR23TTBKK97ZZLU&a=ORYT9&tp_a=ORYT9&b=3TYCR1GOTD5LD8CNR23TTBKK97ZZLU&tp_b=3TYCR1GOTD5LD8CNR23TTBKK97ZZLU&c=365799&tp_c=365799","heads":1,"tails":4,"studentIndex":10,"studentTrueHypers":{"a":8,"b":2},"studentGuess":0.6,"delta":0.09999999999999998,"totalExamples":5,"bonus":0,"bonusSoFar":2.05},{"rt":10879,"response":{"heads":"1","tails":"4"},"type":"response","condition":"seqNoFeedback","trueTheta":0.2,"classrooms":["A","B"],"studentTrueClassroom":"B","exampleSet":"first","trial_type":"survey-html-form","trial_index":86,"time_elapsed":1314264,"internal_node_id":"0.0-83.0-0.0","params":{"nStudents":24,"maxFlips":30,"completionMinutes":45,"basePay":8,"maxBonus":9,"perTrialBonus":0.5,"perTrialBonusThreshold":0.05,"exampleCost":0.01},"classroomParams":{"A":{"a":1,"b":4},"B":{"a":4,"b":1},"C":{"a":2,"b":8},"D":{"a":8,"b":2}},"conditions":["nonSeqFull","nonSeqPartial","seqNoFeedback","seqFeedback"],"classroomPairings":[["A","B"],["C","D"]],"coinWeights":[0.2,0.5,0.8],"subjectId":"A2HRUFTA09371Y","assignmentId":"3TYCR1GOTD5LD8CNR23TTBKK97ZZLU","hitId":"3J94SKDEKIB2MY6CGVTNWB9X0ALD5P","url":"https://gershmanlab.com/experiments/alicia/teaching/experiment/?hitId=3J94SKDEKIB2MY6CGVTNWB9X0ALD5P&workerId=A2HRUFTA09371Y&assignmentId=3TYCR1GOTD5LD8CNR23TTBKK97ZZLU&a=ORYT9&tp_a=ORYT9&b=3TYCR1GOTD5LD8CNR23TTBKK97ZZLU&tp_b=3TYCR1GOTD5LD8CNR23TTBKK97ZZLU&c=365799&tp_c=365799","heads":1,"tails":4,"studentIndex":11,"studentTrueHypers":{"a":4,"b":1},"studentGuess":0.5,"delta":0.3,"totalExamples":5,"bonusSoFar":2.05},{"rt":5038,"response":{"heads":"1","tails":"4"},"type":"response","condition":"seqNoFeedback","trueTheta":0.2,"classrooms":["A","B"],"studentTrueClassroom":"B","exampleSet":"second","trial_type":"survey-html-form","trial_index":89,"time_elapsed":1326558,"internal_node_id":"0.0-86.0-0.0","params":{"nStudents":24,"maxFlips":30,"completionMinutes":45,"basePay":8,"maxBonus":9,"perTrialBonus":0.5,"perTrialBonusThreshold":0.05,"exampleCost":0.01},"classroomParams":{"A":{"a":1,"b":4},"B":{"a":4,"b":1},"C":{"a":2,"b":8},"D":{"a":8,"b":2}},"conditions":["nonSeqFull","nonSeqPartial","seqNoFeedback","seqFeedback"],"classroomPairings":[["A","B"],["C","D"]],"coinWeights":[0.2,0.5,0.8],"subjectId":"A2HRUFTA09371Y","assignmentId":"3TYCR1GOTD5LD8CNR23TTBKK97ZZLU","hitId":"3J94SKDEKIB2MY6CGVTNWB9X0ALD5P","url":"https://gershmanlab.com/experiments/alicia/teaching/experiment/?hitId=3J94SKDEKIB2MY6CGVTNWB9X0ALD5P&workerId=A2HRUFTA09371Y&assignmentId=3TYCR1GOTD5LD8CNR23TTBKK97ZZLU&a=ORYT9&tp_a=ORYT9&b=3TYCR1GOTD5LD8CNR23TTBKK97ZZLU&tp_b=3TYCR1GOTD5LD8CNR23TTBKK97ZZLU&c=365799&tp_c=365799","firstResponseHeads":1,"firstResponseTails":4,"secondResponseHeads":1,"secondResponseTails":4,"totalHeads":2,"totalTails":8,"studentIndex":11,"studentTrueHypers":{"a":4,"b":1},"studentGuess":0.4,"delta":0.2,"bonus":0,"bonusSoFar":2.05,"totalExamples":10},{"rt":6176,"response":{"heads":"1","tails":"4"},"type":"response","condition":"seqNoFeedback","trueTheta":0.8,"classrooms":["A","B"],"studentTrueClassroom":"A","exampleSet":"first","trial_type":"survey-html-form","trial_index":95,"time_elapsed":1349419,"internal_node_id":"0.0-92.0-0.0","params":{"nStudents":24,"maxFlips":30,"completionMinutes":45,"basePay":8,"maxBonus":9,"perTrialBonus":0.5,"perTrialBonusThreshold":0.05,"exampleCost":0.01},"classroomParams":{"A":{"a":1,"b":4},"B":{"a":4,"b":1},"C":{"a":2,"b":8},"D":{"a":8,"b":2}},"conditions":["nonSeqFull","nonSeqPartial","seqNoFeedback","seqFeedback"],"classroomPairings":[["A","B"],["C","D"]],"coinWeights":[0.2,0.5,0.8],"subjectId":"A2HRUFTA09371Y","assignmentId":"3TYCR1GOTD5LD8CNR23TTBKK97ZZLU","hitId":"3J94SKDEKIB2MY6CGVTNWB9X0ALD5P","url":"https://gershmanlab.com/experiments/alicia/teaching/experiment/?hitId=3J94SKDEKIB2MY6CGVTNWB9X0ALD5P&workerId=A2HRUFTA09371Y&assignmentId=3TYCR1GOTD5LD8CNR23TTBKK97ZZLU&a=ORYT9&tp_a=ORYT9&b=3TYCR1GOTD5LD8CNR23TTBKK97ZZLU&tp_b=3TYCR1GOTD5LD8CNR23TTBKK97ZZLU&c=365799&tp_c=365799","heads":1,"tails":4,"studentIndex":12,"studentTrueHypers":{"a":1,"b":4},"studentGuess":0.2,"delta":0.6000000000000001,"totalExamples":5,"bonusSoFar":2.05},{"rt":3881,"response":{"heads":"1","tails":"4"},"type":"response","condition":"seqNoFeedback","trueTheta":0.8,"classrooms":["A","B"],"studentTrueClassroom":"A","exampleSet":"second","trial_type":"survey-html-form","trial_index":98,"time_elapsed":1359057,"internal_node_id":"0.0-95.0-0.0","params":{"nStudents":24,"maxFlips":30,"completionMinutes":45,"basePay":8,"maxBonus":9,"perTrialBonus":0.5,"perTrialBonusThreshold":0.05,"exampleCost":0.01},"classroomParams":{"A":{"a":1,"b":4},"B":{"a":4,"b":1},"C":{"a":2,"b":8},"D":{"a":8,"b":2}},"conditions":["nonSeqFull","nonSeqPartial","seqNoFeedback","seqFeedback"],"classroomPairings":[["A","B"],["C","D"]],"coinWeights":[0.2,0.5,0.8],"subjectId":"A2HRUFTA09371Y","assignmentId":"3TYCR1GOTD5LD8CNR23TTBKK97ZZLU","hitId":"3J94SKDEKIB2MY6CGVTNWB9X0ALD5P","url":"https://gershmanlab.com/experiments/alicia/teaching/experiment/?hitId=3J94SKDEKIB2MY6CGVTNWB9X0ALD5P&workerId=A2HRUFTA09371Y&assignmentId=3TYCR1GOTD5LD8CNR23TTBKK97ZZLU&a=ORYT9&tp_a=ORYT9&b=3TYCR1GOTD5LD8CNR23TTBKK97ZZLU&tp_b=3TYCR1GOTD5LD8CNR23TTBKK97ZZLU&c=365799&tp_c=365799","firstResponseHeads":1,"firstResponseTails":4,"secondResponseHeads":1,"secondResponseTails":4,"totalHeads":2,"totalTails":8,"studentIndex":12,"studentTrueHypers":{"a":1,"b":4},"studentGuess":0.2,"delta":0.6000000000000001,"bonus":0,"bonusSoFar":2.05,"totalExamples":10},{"rt":10928,"response":{"heads":"8","tails":"1"},"type":"response","condition":"seqNoFeedback","trueTheta":0.8,"classrooms":["C","D"],"studentTrueClassroom":"D","exampleSet":"first","trial_type":"survey-html-form","trial_index":104,"time_elapsed":1383931,"internal_node_id":"0.0-101.0-0.0","params":{"nStudents":24,"maxFlips":30,"completionMinutes":45,"basePay":8,"maxBonus":9,"perTrialBonus":0.5,"perTrialBonusThreshold":0.05,"exampleCost":0.01},"classroomParams":{"A":{"a":1,"b":4},"B":{"a":4,"b":1},"C":{"a":2,"b":8},"D":{"a":8,"b":2}},"conditions":["nonSeqFull","nonSeqPartial","seqNoFeedback","seqFeedback"],"classroomPairings":[["A","B"],["C","D"]],"coinWeights":[0.2,0.5,0.8],"subjectId":"A2HRUFTA09371Y","assignmentId":"3TYCR1GOTD5LD8CNR23TTBKK97ZZLU","hitId":"3J94SKDEKIB2MY6CGVTNWB9X0ALD5P","url":"https://gershmanlab.com/experiments/alicia/teaching/experiment/?hitId=3J94SKDEKIB2MY6CGVTNWB9X0ALD5P&workerId=A2HRUFTA09371Y&assignmentId=3TYCR1GOTD5LD8CNR23TTBKK97ZZLU&a=ORYT9&tp_a=ORYT9&b=3TYCR1GOTD5LD8CNR23TTBKK97ZZLU&tp_b=3TYCR1GOTD5LD8CNR23TTBKK97ZZLU&c=365799&tp_c=365799","heads":8,"tails":1,"studentIndex":13,"studentTrueHypers":{"a":8,"b":2},"studentGuess":0.8421052631578947,"delta":0.042105263157894646,"totalExamples":9,"bonusSoFar":2.05},{"rt":2694,"response":{"heads":"4","tails":"1"},"type":"response","condition":"seqNoFeedback","trueTheta":0.8,"classrooms":["C","D"],"studentTrueClassroom":"D","exampleSet":"second","trial_type":"survey-html-form","trial_index":107,"time_elapsed":1393130,"internal_node_id":"0.0-104.0-0.0","params":{"nStudents":24,"maxFlips":30,"completionMinutes":45,"basePay":8,"maxBonus":9,"perTrialBonus":0.5,"perTrialBonusThreshold":0.05,"exampleCost":0.01},"classroomParams":{"A":{"a":1,"b":4},"B":{"a":4,"b":1},"C":{"a":2,"b":8},"D":{"a":8,"b":2}},"conditions":["nonSeqFull","nonSeqPartial","seqNoFeedback","seqFeedback"],"classroomPairings":[["A","B"],["C","D"]],"coinWeights":[0.2,0.5,0.8],"subjectId":"A2HRUFTA09371Y","assignmentId":"3TYCR1GOTD5LD8CNR23TTBKK97ZZLU","hitId":"3J94SKDEKIB2MY6CGVTNWB9X0ALD5P","url":"https://gershmanlab.com/experiments/alicia/teaching/experiment/?hitId=3J94SKDEKIB2MY6CGVTNWB9X0ALD5P&workerId=A2HRUFTA09371Y&assignmentId=3TYCR1GOTD5LD8CNR23TTBKK97ZZLU&a=ORYT9&tp_a=ORYT9&b=3TYCR1GOTD5LD8CNR23TTBKK97ZZLU&tp_b=3TYCR1GOTD5LD8CNR23TTBKK97ZZLU&c=365799&tp_c=365799","firstResponseHeads":8,"firstResponseTails":1,"secondResponseHeads":4,"secondResponseTails":1,"totalHeads":12,"totalTails":2,"studentIndex":13,"studentTrueHypers":{"a":8,"b":2},"studentGuess":0.8333333333333334,"delta":0.033333333333333326,"bonus":0.36,"bonusSoFar":2.41,"totalExamples":14},{"rt":17092,"response":{"heads":"15","tails":"0"},"type":"response","condition":"nonSeqFull","trueTheta":0.8,"classrooms":["A","B"],"studentTrueClassroom":"A","exampleSet":"first","trial_type":"survey-html-form","trial_index":113,"time_elapsed":1426728,"internal_node_id":"0.0-110.0-0.0","params":{"nStudents":24,"maxFlips":30,"completionMinutes":45,"basePay":8,"maxBonus":9,"perTrialBonus":0.5,"perTrialBonusThreshold":0.05,"exampleCost":0.01},"classroomParams":{"A":{"a":1,"b":4},"B":{"a":4,"b":1},"C":{"a":2,"b":8},"D":{"a":8,"b":2}},"conditions":["nonSeqFull","nonSeqPartial","seqNoFeedback","seqFeedback"],"classroomPairings":[["A","B"],["C","D"]],"coinWeights":[0.2,0.5,0.8],"subjectId":"A2HRUFTA09371Y","assignmentId":"3TYCR1GOTD5LD8CNR23TTBKK97ZZLU","hitId":"3J94SKDEKIB2MY6CGVTNWB9X0ALD5P","url":"https://gershmanlab.com/experiments/alicia/teaching/experiment/?hitId=3J94SKDEKIB2MY6CGVTNWB9X0ALD5P&workerId=A2HRUFTA09371Y&assignmentId=3TYCR1GOTD5LD8CNR23TTBKK97ZZLU&a=ORYT9&tp_a=ORYT9&b=3TYCR1GOTD5LD8CNR23TTBKK97ZZLU&tp_b=3TYCR1GOTD5LD8CNR23TTBKK97ZZLU&c=365799&tp_c=365799","heads":15,"tails":0,"studentIndex":14,"studentTrueHypers":{"a":1,"b":4},"studentGuess":0.8,"delta":0,"totalExamples":15,"bonus":0.35,"bonusSoFar":2.76},{"rt":10583,"response":{"heads":"2","tails":"8"},"type":"response","condition":"seqFeedback","trueTheta":0.5,"classrooms":["C","D"],"studentTrueClassroom":"D","exampleSet":"first","trial_type":"survey-html-form","trial_index":119,"time_elapsed":1458587,"internal_node_id":"0.0-116.0-0.0","params":{"nStudents":24,"maxFlips":30,"completionMinutes":45,"basePay":8,"maxBonus":9,"perTrialBonus":0.5,"perTrialBonusThreshold":0.05,"exampleCost":0.01},"classroomParams":{"A":{"a":1,"b":4},"B":{"a":4,"b":1},"C":{"a":2,"b":8},"D":{"a":8,"b":2}},"conditions":["nonSeqFull","nonSeqPartial","seqNoFeedback","seqFeedback"],"classroomPairings":[["A","B"],["C","D"]],"coinWeights":[0.2,0.5,0.8],"subjectId":"A2HRUFTA09371Y","assignmentId":"3TYCR1GOTD5LD8CNR23TTBKK97ZZLU","hitId":"3J94SKDEKIB2MY6CGVTNWB9X0ALD5P","url":"https://gershmanlab.com/experiments/alicia/teaching/experiment/?hitId=3J94SKDEKIB2MY6CGVTNWB9X0ALD5P&workerId=A2HRUFTA09371Y&assignmentId=3TYCR1GOTD5LD8CNR23TTBKK97ZZLU&a=ORYT9&tp_a=ORYT9&b=3TYCR1GOTD5LD8CNR23TTBKK97ZZLU&tp_b=3TYCR1GOTD5LD8CNR23TTBKK97ZZLU&c=365799&tp_c=365799","heads":2,"tails":8,"studentIndex":15,"studentTrueHypers":{"a":8,"b":2},"studentGuess":0.5,"delta":0,"totalExamples":10,"bonusSoFar":2.76},{"rt":2646,"response":{"heads":"1","tails":"1"},"type":"response","condition":"seqFeedback","trueTheta":0.5,"classrooms":["C","D"],"studentTrueClassroom":"D","exampleSet":"second","trial_type":"survey-html-form","trial_index":123,"time_elapsed":1472709,"internal_node_id":"0.0-120.0-0.0","params":{"nStudents":24,"maxFlips":30,"completionMinutes":45,"basePay":8,"maxBonus":9,"perTrialBonus":0.5,"perTrialBonusThreshold":0.05,"exampleCost":0.01},"classroomParams":{"A":{"a":1,"b":4},"B":{"a":4,"b":1},"C":{"a":2,"b":8},"D":{"a":8,"b":2}},"conditions":["nonSeqFull","nonSeqPartial","seqNoFeedback","seqFeedback"],"classroomPairings":[["A","B"],["C","D"]],"coinWeights":[0.2,0.5,0.8],"subjectId":"A2HRUFTA09371Y","assignmentId":"3TYCR1GOTD5LD8CNR23TTBKK97ZZLU","hitId":"3J94SKDEKIB2MY6CGVTNWB9X0ALD5P","url":"https://gershmanlab.com/experiments/alicia/teaching/experiment/?hitId=3J94SKDEKIB2MY6CGVTNWB9X0ALD5P&workerId=A2HRUFTA09371Y&assignmentId=3TYCR1GOTD5LD8CNR23TTBKK97ZZLU&a=ORYT9&tp_a=ORYT9&b=3TYCR1GOTD5LD8CNR23TTBKK97ZZLU&tp_b=3TYCR1GOTD5LD8CNR23TTBKK97ZZLU&c=365799&tp_c=365799","firstResponseHeads":2,"firstResponseTails":8,"secondResponseHeads":1,"secondResponseTails":1,"totalHeads":3,"totalTails":9,"studentIndex":15,"studentTrueHypers":{"a":8,"b":2},"studentGuess":0.5,"delta":0,"bonus":0.38,"bonusSoFar":3.14,"totalExamples":12},{"rt":10752,"response":{"heads":"1","tails":"4"},"type":"response","condition":"seqFeedback","trueTheta":0.2,"classrooms":["C","D"],"studentTrueClassroom":"D","exampleSet":"first","trial_type":"survey-html-form","trial_index":129,"time_elapsed":1498158,"internal_node_id":"0.0-126.0-0.0","params":{"nStudents":24,"maxFlips":30,"completionMinutes":45,"basePay":8,"maxBonus":9,"perTrialBonus":0.5,"perTrialBonusThreshold":0.05,"exampleCost":0.01},"classroomParams":{"A":{"a":1,"b":4},"B":{"a":4,"b":1},"C":{"a":2,"b":8},"D":{"a":8,"b":2}},"conditions":["nonSeqFull","nonSeqPartial","seqNoFeedback","seqFeedback"],"classroomPairings":[["A","B"],["C","D"]],"coinWeights":[0.2,0.5,0.8],"subjectId":"A2HRUFTA09371Y","assignmentId":"3TYCR1GOTD5LD8CNR23TTBKK97ZZLU","hitId":"3J94SKDEKIB2MY6CGVTNWB9X0ALD5P","url":"https://gershmanlab.com/experiments/alicia/teaching/experiment/?hitId=3J94SKDEKIB2MY6CGVTNWB9X0ALD5P&workerId=A2HRUFTA09371Y&assignmentId=3TYCR1GOTD5LD8CNR23TTBKK97ZZLU&a=ORYT9&tp_a=ORYT9&b=3TYCR1GOTD5LD8CNR23TTBKK97ZZLU&tp_b=3TYCR1GOTD5LD8CNR23TTBKK97ZZLU&c=365799&tp_c=365799","heads":1,"tails":4,"studentIndex":16,"studentTrueHypers":{"a":8,"b":2},"studentGuess":0.6,"delta":0.39999999999999997,"totalExamples":5,"bonusSoFar":3.14},{"rt":65520,"response":{"heads":"1","tails":"2"},"type":"response","condition":"seqFeedback","trueTheta":0.2,"classrooms":["C","D"],"studentTrueClassroom":"D","exampleSet":"second","trial_type":"survey-html-form","trial_index":133,"time_elapsed":1575962,"internal_node_id":"0.0-130.0-0.0","params":{"nStudents":24,"maxFlips":30,"completionMinutes":45,"basePay":8,"maxBonus":9,"perTrialBonus":0.5,"perTrialBonusThreshold":0.05,"exampleCost":0.01},"classroomParams":{"A":{"a":1,"b":4},"B":{"a":4,"b":1},"C":{"a":2,"b":8},"D":{"a":8,"b":2}},"conditions":["nonSeqFull","nonSeqPartial","seqNoFeedback","seqFeedback"],"classroomPairings":[["A","B"],["C","D"]],"coinWeights":[0.2,0.5,0.8],"subjectId":"A2HRUFTA09371Y","assignmentId":"3TYCR1GOTD5LD8CNR23TTBKK97ZZLU","hitId":"3J94SKDEKIB2MY6CGVTNWB9X0ALD5P","url":"https://gershmanlab.com/experiments/alicia/teaching/experiment/?hitId=3J94SKDEKIB2MY6CGVTNWB9X0ALD5P&workerId=A2HRUFTA09371Y&assignmentId=3TYCR1GOTD5LD8CNR23TTBKK97ZZLU&a=ORYT9&tp_a=ORYT9&b=3TYCR1GOTD5LD8CNR23TTBKK97ZZLU&tp_b=3TYCR1GOTD5LD8CNR23TTBKK97ZZLU&c=365799&tp_c=365799","firstResponseHeads":1,"firstResponseTails":4,"secondResponseHeads":1,"secondResponseTails":2,"totalHeads":2,"totalTails":6,"studentIndex":16,"studentTrueHypers":{"a":8,"b":2},"studentGuess":0.5555555555555556,"delta":0.35555555555555557,"bonus":0,"bonusSoFar":3.14,"totalExamples":8},{"rt":7048,"response":{"heads":"1","tails":"4"},"type":"response","condition":"seqFeedback","trueTheta":0.2,"classrooms":["A","B"],"studentTrueClassroom":"B","exampleSet":"first","trial_type":"survey-html-form","trial_index":139,"time_elapsed":1597380,"internal_node_id":"0.0-136.0-0.0","params":{"nStudents":24,"maxFlips":30,"completionMinutes":45,"basePay":8,"maxBonus":9,"perTrialBonus":0.5,"perTrialBonusThreshold":0.05,"exampleCost":0.01},"classroomParams":{"A":{"a":1,"b":4},"B":{"a":4,"b":1},"C":{"a":2,"b":8},"D":{"a":8,"b":2}},"conditions":["nonSeqFull","nonSeqPartial","seqNoFeedback","seqFeedback"],"classroomPairings":[["A","B"],["C","D"]],"coinWeights":[0.2,0.5,0.8],"subjectId":"A2HRUFTA09371Y","assignmentId":"3TYCR1GOTD5LD8CNR23TTBKK97ZZLU","hitId":"3J94SKDEKIB2MY6CGVTNWB9X0ALD5P","url":"https://gershmanlab.com/experiments/alicia/teaching/experiment/?hitId=3J94SKDEKIB2MY6CGVTNWB9X0ALD5P&workerId=A2HRUFTA09371Y&assignmentId=3TYCR1GOTD5LD8CNR23TTBKK97ZZLU&a=ORYT9&tp_a=ORYT9&b=3TYCR1GOTD5LD8CNR23TTBKK97ZZLU&tp_b=3TYCR1GOTD5LD8CNR23TTBKK97ZZLU&c=365799&tp_c=365799","heads":1,"tails":4,"studentIndex":17,"studentTrueHypers":{"a":4,"b":1},"studentGuess":0.5,"delta":0.3,"totalExamples":5,"bonusSoFar":3.14},{"rt":3225,"response":{"heads":"1","tails":"1"},"type":"response","condition":"seqFeedback","trueTheta":0.2,"classrooms":["A","B"],"studentTrueClassroom":"B","exampleSet":"second","trial_type":"survey-html-form","trial_index":143,"time_elapsed":1610241,"internal_node_id":"0.0-140.0-0.0","params":{"nStudents":24,"maxFlips":30,"completionMinutes":45,"basePay":8,"maxBonus":9,"perTrialBonus":0.5,"perTrialBonusThreshold":0.05,"exampleCost":0.01},"classroomParams":{"A":{"a":1,"b":4},"B":{"a":4,"b":1},"C":{"a":2,"b":8},"D":{"a":8,"b":2}},"conditions":["nonSeqFull","nonSeqPartial","seqNoFeedback","seqFeedback"],"classroomPairings":[["A","B"],["C","D"]],"coinWeights":[0.2,0.5,0.8],"subjectId":"A2HRUFTA09371Y","assignmentId":"3TYCR1GOTD5LD8CNR23TTBKK97ZZLU","hitId":"3J94SKDEKIB2MY6CGVTNWB9X0ALD5P","url":"https://gershmanlab.com/experiments/alicia/teaching/experiment/?hitId=3J94SKDEKIB2MY6CGVTNWB9X0ALD5P&workerId=A2HRUFTA09371Y&assignmentId=3TYCR1GOTD5LD8CNR23TTBKK97ZZLU&a=ORYT9&tp_a=ORYT9&b=3TYCR1GOTD5LD8CNR23TTBKK97ZZLU&tp_b=3TYCR1GOTD5LD8CNR23TTBKK97ZZLU&c=365799&tp_c=365799","firstResponseHeads":1,"firstResponseTails":4,"secondResponseHeads":1,"secondResponseTails":1,"totalHeads":2,"totalTails":5,"studentIndex":17,"studentTrueHypers":{"a":4,"b":1},"studentGuess":0.5,"delta":0.3,"bonus":0,"bonusSoFar":3.14,"totalExamples":7},{"rt":11190,"response":{"heads":"1","tails":"1"},"type":"response","condition":"seqNoFeedback","trueTheta":0.5,"classrooms":["C","D"],"studentTrueClassroom":"D","exampleSet":"first","trial_type":"survey-html-form","trial_index":149,"time_elapsed":1639682,"internal_node_id":"0.0-146.0-0.0","params":{"nStudents":24,"maxFlips":30,"completionMinutes":45,"basePay":8,"maxBonus":9,"perTrialBonus":0.5,"perTrialBonusThreshold":0.05,"exampleCost":0.01},"classroomParams":{"A":{"a":1,"b":4},"B":{"a":4,"b":1},"C":{"a":2,"b":8},"D":{"a":8,"b":2}},"conditions":["nonSeqFull","nonSeqPartial","seqNoFeedback","seqFeedback"],"classroomPairings":[["A","B"],["C","D"]],"coinWeights":[0.2,0.5,0.8],"subjectId":"A2HRUFTA09371Y","assignmentId":"3TYCR1GOTD5LD8CNR23TTBKK97ZZLU","hitId":"3J94SKDEKIB2MY6CGVTNWB9X0ALD5P","url":"https://gershmanlab.com/experiments/alicia/teaching/experiment/?hitId=3J94SKDEKIB2MY6CGVTNWB9X0ALD5P&workerId=A2HRUFTA09371Y&assignmentId=3TYCR1GOTD5LD8CNR23TTBKK97ZZLU&a=ORYT9&tp_a=ORYT9&b=3TYCR1GOTD5LD8CNR23TTBKK97ZZLU&tp_b=3TYCR1GOTD5LD8CNR23TTBKK97ZZLU&c=365799&tp_c=365799","heads":1,"tails":1,"studentIndex":18,"studentTrueHypers":{"a":8,"b":2},"studentGuess":0.75,"delta":0.25,"totalExamples":2,"bonusSoFar":3.14},{"rt":6691,"response":{"heads":"1","tails":"1"},"type":"response","condition":"seqNoFeedback","trueTheta":0.5,"classrooms":["C","D"],"studentTrueClassroom":"D","exampleSet":"second","trial_type":"survey-html-form","trial_index":152,"time_elapsed":1652381,"internal_node_id":"0.0-149.0-0.0","params":{"nStudents":24,"maxFlips":30,"completionMinutes":45,"basePay":8,"maxBonus":9,"perTrialBonus":0.5,"perTrialBonusThreshold":0.05,"exampleCost":0.01},"classroomParams":{"A":{"a":1,"b":4},"B":{"a":4,"b":1},"C":{"a":2,"b":8},"D":{"a":8,"b":2}},"conditions":["nonSeqFull","nonSeqPartial","seqNoFeedback","seqFeedback"],"classroomPairings":[["A","B"],["C","D"]],"coinWeights":[0.2,0.5,0.8],"subjectId":"A2HRUFTA09371Y","assignmentId":"3TYCR1GOTD5LD8CNR23TTBKK97ZZLU","hitId":"3J94SKDEKIB2MY6CGVTNWB9X0ALD5P","url":"https://gershmanlab.com/experiments/alicia/teaching/experiment/?hitId=3J94SKDEKIB2MY6CGVTNWB9X0ALD5P&workerId=A2HRUFTA09371Y&assignmentId=3TYCR1GOTD5LD8CNR23TTBKK97ZZLU&a=ORYT9&tp_a=ORYT9&b=3TYCR1GOTD5LD8CNR23TTBKK97ZZLU&tp_b=3TYCR1GOTD5LD8CNR23TTBKK97ZZLU&c=365799&tp_c=365799","firstResponseHeads":1,"firstResponseTails":1,"secondResponseHeads":1,"secondResponseTails":1,"totalHeads":2,"totalTails":2,"studentIndex":18,"studentTrueHypers":{"a":8,"b":2},"studentGuess":0.7142857142857143,"delta":0.2142857142857143,"bonus":0,"bonusSoFar":3.14,"totalExamples":4},{"rt":12031,"response":{"heads":"2","tails":"8"},"type":"response","condition":"nonSeqFull","trueTheta":0.5,"classrooms":["C","D"],"studentTrueClassroom":"D","exampleSet":"first","trial_type":"survey-html-form","trial_index":158,"time_elapsed":1678626,"internal_node_id":"0.0-155.0-0.0","params":{"nStudents":24,"maxFlips":30,"completionMinutes":45,"basePay":8,"maxBonus":9,"perTrialBonus":0.5,"perTrialBonusThreshold":0.05,"exampleCost":0.01},"classroomParams":{"A":{"a":1,"b":4},"B":{"a":4,"b":1},"C":{"a":2,"b":8},"D":{"a":8,"b":2}},"conditions":["nonSeqFull","nonSeqPartial","seqNoFeedback","seqFeedback"],"classroomPairings":[["A","B"],["C","D"]],"coinWeights":[0.2,0.5,0.8],"subjectId":"A2HRUFTA09371Y","assignmentId":"3TYCR1GOTD5LD8CNR23TTBKK97ZZLU","hitId":"3J94SKDEKIB2MY6CGVTNWB9X0ALD5P","url":"https://gershmanlab.com/experiments/alicia/teaching/experiment/?hitId=3J94SKDEKIB2MY6CGVTNWB9X0ALD5P&workerId=A2HRUFTA09371Y&assignmentId=3TYCR1GOTD5LD8CNR23TTBKK97ZZLU&a=ORYT9&tp_a=ORYT9&b=3TYCR1GOTD5LD8CNR23TTBKK97ZZLU&tp_b=3TYCR1GOTD5LD8CNR23TTBKK97ZZLU&c=365799&tp_c=365799","heads":2,"tails":8,"studentIndex":19,"studentTrueHypers":{"a":8,"b":2},"studentGuess":0.5,"delta":0,"totalExamples":10,"bonus":0.4,"bonusSoFar":3.54},{"rt":7542,"response":{"heads":"1","tails":"4"},"type":"response","condition":"nonSeqFull","trueTheta":0.5,"classrooms":["A","B"],"studentTrueClassroom":"B","exampleSet":"first","trial_type":"survey-html-form","trial_index":164,"time_elapsed":1700196,"internal_node_id":"0.0-161.0-0.0","params":{"nStudents":24,"maxFlips":30,"completionMinutes":45,"basePay":8,"maxBonus":9,"perTrialBonus":0.5,"perTrialBonusThreshold":0.05,"exampleCost":0.01},"classroomParams":{"A":{"a":1,"b":4},"B":{"a":4,"b":1},"C":{"a":2,"b":8},"D":{"a":8,"b":2}},"conditions":["nonSeqFull","nonSeqPartial","seqNoFeedback","seqFeedback"],"classroomPairings":[["A","B"],["C","D"]],"coinWeights":[0.2,0.5,0.8],"subjectId":"A2HRUFTA09371Y","assignmentId":"3TYCR1GOTD5LD8CNR23TTBKK97ZZLU","hitId":"3J94SKDEKIB2MY6CGVTNWB9X0ALD5P","url":"https://gershmanlab.com/experiments/alicia/teaching/experiment/?hitId=3J94SKDEKIB2MY6CGVTNWB9X0ALD5P&workerId=A2HRUFTA09371Y&assignmentId=3TYCR1GOTD5LD8CNR23TTBKK97ZZLU&a=ORYT9&tp_a=ORYT9&b=3TYCR1GOTD5LD8CNR23TTBKK97ZZLU&tp_b=3TYCR1GOTD5LD8CNR23TTBKK97ZZLU&c=365799&tp_c=365799","heads":1,"tails":4,"studentIndex":20,"studentTrueHypers":{"a":4,"b":1},"studentGuess":0.5,"delta":0,"totalExamples":5,"bonus":0.45,"bonusSoFar":3.99},{"rt":5603,"response":{"heads":"1","tails":"4"},"type":"response","condition":"seqNoFeedback","trueTheta":0.2,"classrooms":["C","D"],"studentTrueClassroom":"C","exampleSet":"first","trial_type":"survey-html-form","trial_index":170,"time_elapsed":1721520,"internal_node_id":"0.0-167.0-0.0","params":{"nStudents":24,"maxFlips":30,"completionMinutes":45,"basePay":8,"maxBonus":9,"perTrialBonus":0.5,"perTrialBonusThreshold":0.05,"exampleCost":0.01},"classroomParams":{"A":{"a":1,"b":4},"B":{"a":4,"b":1},"C":{"a":2,"b":8},"D":{"a":8,"b":2}},"conditions":["nonSeqFull","nonSeqPartial","seqNoFeedback","seqFeedback"],"classroomPairings":[["A","B"],["C","D"]],"coinWeights":[0.2,0.5,0.8],"subjectId":"A2HRUFTA09371Y","assignmentId":"3TYCR1GOTD5LD8CNR23TTBKK97ZZLU","hitId":"3J94SKDEKIB2MY6CGVTNWB9X0ALD5P","url":"https://gershmanlab.com/experiments/alicia/teaching/experiment/?hitId=3J94SKDEKIB2MY6CGVTNWB9X0ALD5P&workerId=A2HRUFTA09371Y&assignmentId=3TYCR1GOTD5LD8CNR23TTBKK97ZZLU&a=ORYT9&tp_a=ORYT9&b=3TYCR1GOTD5LD8CNR23TTBKK97ZZLU&tp_b=3TYCR1GOTD5LD8CNR23TTBKK97ZZLU&c=365799&tp_c=365799","heads":1,"tails":4,"studentIndex":21,"studentTrueHypers":{"a":2,"b":8},"studentGuess":0.2,"delta":0,"totalExamples":5,"bonusSoFar":3.99},{"rt":5375,"response":{"heads":"1","tails":"4"},"type":"response","condition":"seqNoFeedback","trueTheta":0.2,"classrooms":["C","D"],"studentTrueClassroom":"C","exampleSet":"second","trial_type":"survey-html-form","trial_index":173,"time_elapsed":1732902,"internal_node_id":"0.0-170.0-0.0","params":{"nStudents":24,"maxFlips":30,"completionMinutes":45,"basePay":8,"maxBonus":9,"perTrialBonus":0.5,"perTrialBonusThreshold":0.05,"exampleCost":0.01},"classroomParams":{"A":{"a":1,"b":4},"B":{"a":4,"b":1},"C":{"a":2,"b":8},"D":{"a":8,"b":2}},"conditions":["nonSeqFull","nonSeqPartial","seqNoFeedback","seqFeedback"],"classroomPairings":[["A","B"],["C","D"]],"coinWeights":[0.2,0.5,0.8],"subjectId":"A2HRUFTA09371Y","assignmentId":"3TYCR1GOTD5LD8CNR23TTBKK97ZZLU","hitId":"3J94SKDEKIB2MY6CGVTNWB9X0ALD5P","url":"https://gershmanlab.com/experiments/alicia/teaching/experiment/?hitId=3J94SKDEKIB2MY6CGVTNWB9X0ALD5P&workerId=A2HRUFTA09371Y&assignmentId=3TYCR1GOTD5LD8CNR23TTBKK97ZZLU&a=ORYT9&tp_a=ORYT9&b=3TYCR1GOTD5LD8CNR23TTBKK97ZZLU&tp_b=3TYCR1GOTD5LD8CNR23TTBKK97ZZLU&c=365799&tp_c=365799","firstResponseHeads":1,"firstResponseTails":4,"secondResponseHeads":1,"secondResponseTails":4,"totalHeads":2,"totalTails":8,"studentIndex":21,"studentTrueHypers":{"a":2,"b":8},"studentGuess":0.2,"delta":0,"bonus":0.4,"bonusSoFar":4.39,"totalExamples":10},{"rt":7365,"response":{"heads":"4","tails":"1"},"type":"response","condition":"nonSeqPartial","trueTheta":0.8,"classrooms":["C","D"],"studentTrueClassroom":"C","exampleSet":"first","trial_type":"survey-html-form","trial_index":179,"time_elapsed":1756944,"internal_node_id":"0.0-176.0-0.0","params":{"nStudents":24,"maxFlips":30,"completionMinutes":45,"basePay":8,"maxBonus":9,"perTrialBonus":0.5,"perTrialBonusThreshold":0.05,"exampleCost":0.01},"classroomParams":{"A":{"a":1,"b":4},"B":{"a":4,"b":1},"C":{"a":2,"b":8},"D":{"a":8,"b":2}},"conditions":["nonSeqFull","nonSeqPartial","seqNoFeedback","seqFeedback"],"classroomPairings":[["A","B"],["C","D"]],"coinWeights":[0.2,0.5,0.8],"subjectId":"A2HRUFTA09371Y","assignmentId":"3TYCR1GOTD5LD8CNR23TTBKK97ZZLU","hitId":"3J94SKDEKIB2MY6CGVTNWB9X0ALD5P","url":"https://gershmanlab.com/experiments/alicia/teaching/experiment/?hitId=3J94SKDEKIB2MY6CGVTNWB9X0ALD5P&workerId=A2HRUFTA09371Y&assignmentId=3TYCR1GOTD5LD8CNR23TTBKK97ZZLU&a=ORYT9&tp_a=ORYT9&b=3TYCR1GOTD5LD8CNR23TTBKK97ZZLU&tp_b=3TYCR1GOTD5LD8CNR23TTBKK97ZZLU&c=365799&tp_c=365799","heads":4,"tails":1,"studentIndex":22,"studentTrueHypers":{"a":2,"b":8},"studentGuess":0.4,"delta":0.4,"totalExamples":5,"bonus":0,"bonusSoFar":4.39},{"rt":6790,"response":{"heads":"1","tails":"1"},"type":"response","condition":"seqFeedback","trueTheta":0.5,"classrooms":["A","B"],"studentTrueClassroom":"B","exampleSet":"first","trial_type":"survey-html-form","trial_index":185,"time_elapsed":1776450,"internal_node_id":"0.0-182.0-0.0","params":{"nStudents":24,"maxFlips":30,"completionMinutes":45,"basePay":8,"maxBonus":9,"perTrialBonus":0.5,"perTrialBonusThreshold":0.05,"exampleCost":0.01},"classroomParams":{"A":{"a":1,"b":4},"B":{"a":4,"b":1},"C":{"a":2,"b":8},"D":{"a":8,"b":2}},"conditions":["nonSeqFull","nonSeqPartial","seqNoFeedback","seqFeedback"],"classroomPairings":[["A","B"],["C","D"]],"coinWeights":[0.2,0.5,0.8],"subjectId":"A2HRUFTA09371Y","assignmentId":"3TYCR1GOTD5LD8CNR23TTBKK97ZZLU","hitId":"3J94SKDEKIB2MY6CGVTNWB9X0ALD5P","url":"https://gershmanlab.com/experiments/alicia/teaching/experiment/?hitId=3J94SKDEKIB2MY6CGVTNWB9X0ALD5P&workerId=A2HRUFTA09371Y&assignmentId=3TYCR1GOTD5LD8CNR23TTBKK97ZZLU&a=ORYT9&tp_a=ORYT9&b=3TYCR1GOTD5LD8CNR23TTBKK97ZZLU&tp_b=3TYCR1GOTD5LD8CNR23TTBKK97ZZLU&c=365799&tp_c=365799","heads":1,"tails":1,"studentIndex":23,"studentTrueHypers":{"a":4,"b":1},"studentGuess":0.7142857142857143,"delta":0.2142857142857143,"totalExamples":2,"bonusSoFar":4.39},{"rt":9148,"response":{"heads":"1","tails":"4"},"type":"response","condition":"seqFeedback","trueTheta":0.5,"classrooms":["A","B"],"studentTrueClassroom":"B","exampleSet":"second","trial_type":"survey-html-form","trial_index":189,"time_elapsed":1797318,"internal_node_id":"0.0-186.0-0.0","params":{"nStudents":24,"maxFlips":30,"completionMinutes":45,"basePay":8,"maxBonus":9,"perTrialBonus":0.5,"perTrialBonusThreshold":0.05,"exampleCost":0.01},"classroomParams":{"A":{"a":1,"b":4},"B":{"a":4,"b":1},"C":{"a":2,"b":8},"D":{"a":8,"b":2}},"conditions":["nonSeqFull","nonSeqPartial","seqNoFeedback","seqFeedback"],"classroomPairings":[["A","B"],["C","D"]],"coinWeights":[0.2,0.5,0.8],"subjectId":"A2HRUFTA09371Y","assignmentId":"3TYCR1GOTD5LD8CNR23TTBKK97ZZLU","hitId":"3J94SKDEKIB2MY6CGVTNWB9X0ALD5P","url":"https://gershmanlab.com/experiments/alicia/teaching/experiment/?hitId=3J94SKDEKIB2MY6CGVTNWB9X0ALD5P&workerId=A2HRUFTA09371Y&assignmentId=3TYCR1GOTD5LD8CNR23TTBKK97ZZLU&a=ORYT9&tp_a=ORYT9&b=3TYCR1GOTD5LD8CNR23TTBKK97ZZLU&tp_b=3TYCR1GOTD5LD8CNR23TTBKK97ZZLU&c=365799&tp_c=365799","firstResponseHeads":1,"firstResponseTails":1,"secondResponseHeads":1,"secondResponseTails":4,"totalHeads":2,"totalTails":5,"studentIndex":23,"studentTrueHypers":{"a":4,"b":1},"studentGuess":0.5,"delta":0,"bonus":0.43,"bonusSoFar":4.82,"totalExamples":7},{"rt":6852,"response":{"gender":"female","age":"27","understood":"yes","comments":""},"type":"response","trial_type":"survey-html-form","trial_index":193,"time_elapsed":1814078,"internal_node_id":"0.0-191.0","params":{"nStudents":24,"maxFlips":30,"completionMinutes":45,"basePay":8,"maxBonus":9,"perTrialBonus":0.5,"perTrialBonusThreshold":0.05,"exampleCost":0.01},"classroomParams":{"A":{"a":1,"b":4},"B":{"a":4,"b":1},"C":{"a":2,"b":8},"D":{"a":8,"b":2}},"conditions":["nonSeqFull","nonSeqPartial","seqNoFeedback","seqFeedback"],"classroomPairings":[["A","B"],["C","D"]],"coinWeights":[0.2,0.5,0.8],"subjectId":"A2HRUFTA09371Y","assignmentId":"3TYCR1GOTD5LD8CNR23TTBKK97ZZLU","hitId":"3J94SKDEKIB2MY6CGVTNWB9X0ALD5P","url":"https://gershmanlab.com/experiments/alicia/teaching/experiment/?hitId=3J94SKDEKIB2MY6CGVTNWB9X0ALD5P&workerId=A2HRUFTA09371Y&assignmentId=3TYCR1GOTD5LD8CNR23TTBKK97ZZLU&a=ORYT9&tp_a=ORYT9&b=3TYCR1GOTD5LD8CNR23TTBKK97ZZLU&tp_b=3TYCR1GOTD5LD8CNR23TTBKK97ZZLU&c=365799&tp_c=365799","totalBonus":4.82}]