[{"rt":31890,"response":{"heads":"0","tails":"0"},"type":"response","condition":"seqNoFeedback","trueTheta":0.2,"classrooms":["C","D"],"studentTrueClassroom":"C","exampleSet":"first","trial_type":"survey-html-form","trial_index":7,"time_elapsed":276551,"internal_node_id":"0.0-6.0-0.0","params":{"nStudents":24,"maxFlips":30,"completionMinutes":45,"basePay":8,"maxBonus":9,"perTrialBonus":0.5,"perTrialBonusThreshold":0.05,"exampleCost":0.01},"classroomParams":{"A":{"a":1,"b":4},"B":{"a":4,"b":1},"C":{"a":2,"b":8},"D":{"a":8,"b":2}},"conditions":["nonSeqFull","nonSeqPartial","seqNoFeedback","seqFeedback"],"classroomPairings":[["A","B"],["C","D"]],"coinWeights":[0.2,0.5,0.8],"subjectId":"A2JP9IKRHNLRPI","assignmentId":"3X0H8UUIT2A4NQ280OGN6T4XKZ3WSF","hitId":"363A7XIFV48LMLIF2CKYA8VQSVQAVR","url":"https://gershmanlab.com/experiments/alicia/teaching/experiment/?hitId=363A7XIFV48LMLIF2CKYA8VQSVQAVR&workerId=A2JP9IKRHNLRPI&assignmentId=3X0H8UUIT2A4NQ280OGN6T4XKZ3WSF&a=I80X9&tp_a=I80X9&b=3X0H8UUIT2A4NQ280OGN6T4XKZ3WSF&tp_b=3X0H8UUIT2A4NQ280OGN6T4XKZ3WSF&c=365799&tp_c=365799","heads":0,"tails":0,"studentIndex":0,"studentTrueHypers":{"a":2,"b":8},"studentGuess":0.2,"delta":0,"totalExamples":0,"bonusSoFar":0},{"rt":2712,"response":{"heads":"0","tails":"0"},"type":"response","condition":"seqNoFeedback","trueTheta":0.2,"classrooms":["C","D"],"studentTrueClassroom":"C","exampleSet":"first","trial_type":"survey-html-form","trial_index":8,"time_elapsed":279264,"internal_node_id":"0.0-6.1-0.1","params":{"nStudents":24,"maxFlips":30,"completionMinutes":45,"basePay":8,"maxBonus":9,"perTrialBonus":0.5,"perTrialBonusThreshold":0.05,"exampleCost":0.01},"classroomParams":{"A":{"a":1,"b":4},"B":{"a":4,"b":1},"C":{"a":2,"b":8},"D":{"a":8,"b":2}},"conditions":["nonSeqFull","nonSeqPartial","seqNoFeedback","seqFeedback"],"classroomPairings":[["A","B"],["C","D"]],"coinWeights":[0.2,0.5,0.8],"subjectId":"A2JP9IKRHNLRPI","assignmentId":"3X0H8UUIT2A4NQ280OGN6T4XKZ3WSF","hitId":"363A7XIFV48LMLIF2CKYA8VQSVQAVR","url":"https://gershmanlab.com/experiments/alicia/teaching/experiment/?hitId=363A7XIFV48LMLIF2CKYA8VQSVQAVR&workerId=A2JP9IKRHNLRPI&assignmentId=3X0H8UUIT2A4NQ280OGN6T4XKZ3WSF&a=I80X9&tp_a=I80X9&b=3X0H8UUIT2A4NQ280OGN6T4XKZ3WSF&tp_b=3X0H8UUIT2A4NQ280OGN6T4XKZ3WSF&c=365799&tp_c=365799","heads":0,"tails":0,"studentIndex":0,"studentTrueHypers":{"a":2,"b":8},"studentGuess":0.2,"delta":0,"totalExamples":0,"bonusSoFar":0},{"rt":6983,"response":{"heads":"0","tails":"0"},"type":"response","condition":"seqNoFeedback","trueTheta":0.2,"classrooms":["C","D"],"studentTrueClassroom":"C","exampleSet":"first","trial_type":"survey-html-form","trial_index":9,"time_elapsed":286248,"internal_node_id":"0.0-6.2-0.2","params":{"nStudents":24,"maxFlips":30,"completionMinutes":45,"basePay":8,"maxBonus":9,"perTrialBonus":0.5,"perTrialBonusThreshold":0.05,"exampleCost":0.01},"classroomParams":{"A":{"a":1,"b":4},"B":{"a":4,"b":1},"C":{"a":2,"b":8},"D":{"a":8,"b":2}},"conditions":["nonSeqFull","nonSeqPartial","seqNoFeedback","seqFeedback"],"classroomPairings":[["A","B"],["C","D"]],"coinWeights":[0.2,0.5,0.8],"subjectId":"A2JP9IKRHNLRPI","assignmentId":"3X0H8UUIT2A4NQ280OGN6T4XKZ3WSF","hitId":"363A7XIFV48LMLIF2CKYA8VQSVQAVR","url":"https://gershmanlab.com/experiments/alicia/teaching/experiment/?hitId=363A7XIFV48LMLIF2CKYA8VQSVQAVR&workerId=A2JP9IKRHNLRPI&assignmentId=3X0H8UUIT2A4NQ280OGN6T4XKZ3WSF&a=I80X9&tp_a=I80X9&b=3X0H8UUIT2A4NQ280OGN6T4XKZ3WSF&tp_b=3X0H8UUIT2A4NQ280OGN6T4XKZ3WSF&c=365799&tp_c=365799","heads":0,"tails":0,"studentIndex":0,"studentTrueHypers":{"a":2,"b":8},"studentGuess":0.2,"delta":0,"totalExamples":0,"bonusSoFar":0},{"rt":9158,"response":{"heads":"0","tails":"1"},"type":"response","condition":"seqNoFeedback","trueTheta":0.2,"classrooms":["C","D"],"studentTrueClassroom":"C","exampleSet":"first","trial_type":"survey-html-form","trial_index":10,"time_elapsed":295407,"internal_node_id":"0.0-6.3-0.3","params":{"nStudents":24,"maxFlips":30,"completionMinutes":45,"basePay":8,"maxBonus":9,"perTrialBonus":0.5,"perTrialBonusThreshold":0.05,"exampleCost":0.01},"classroomParams":{"A":{"a":1,"b":4},"B":{"a":4,"b":1},"C":{"a":2,"b":8},"D":{"a":8,"b":2}},"conditions":["nonSeqFull","nonSeqPartial","seqNoFeedback","seqFeedback"],"classroomPairings":[["A","B"],["C","D"]],"coinWeights":[0.2,0.5,0.8],"subjectId":"A2JP9IKRHNLRPI","assignmentId":"3X0H8UUIT2A4NQ280OGN6T4XKZ3WSF","hitId":"363A7XIFV48LMLIF2CKYA8VQSVQAVR","url":"https://gershmanlab.com/experiments/alicia/teaching/experiment/?hitId=363A7XIFV48LMLIF2CKYA8VQSVQAVR&workerId=A2JP9IKRHNLRPI&assignmentId=3X0H8UUIT2A4NQ280OGN6T4XKZ3WSF&a=I80X9&tp_a=I80X9&b=3X0H8UUIT2A4NQ280OGN6T4XKZ3WSF&tp_b=3X0H8UUIT2A4NQ280OGN6T4XKZ3WSF&c=365799&tp_c=365799","heads":0,"tails":1,"studentIndex":0,"studentTrueHypers":{"a":2,"b":8},"studentGuess":0.18181818181818182,"delta":0.018181818181818188,"totalExamples":1,"bonusSoFar":0},{"rt":17249,"response":{"heads":"0","tails":"0"},"type":"response","condition":"seqNoFeedback","trueTheta":0.2,"classrooms":["C","D"],"studentTrueClassroom":"C","exampleSet":"second","trial_type":"survey-html-form","trial_index":13,"time_elapsed":319170,"internal_node_id":"0.0-9.0-0.0","params":{"nStudents":24,"maxFlips":30,"completionMinutes":45,"basePay":8,"maxBonus":9,"perTrialBonus":0.5,"perTrialBonusThreshold":0.05,"exampleCost":0.01},"classroomParams":{"A":{"a":1,"b":4},"B":{"a":4,"b":1},"C":{"a":2,"b":8},"D":{"a":8,"b":2}},"conditions":["nonSeqFull","nonSeqPartial","seqNoFeedback","seqFeedback"],"classroomPairings":[["A","B"],["C","D"]],"coinWeights":[0.2,0.5,0.8],"subjectId":"A2JP9IKRHNLRPI","assignmentId":"3X0H8UUIT2A4NQ280OGN6T4XKZ3WSF","hitId":"363A7XIFV48LMLIF2CKYA8VQSVQAVR","url":"https://gershmanlab.com/experiments/alicia/teaching/experiment/?hitId=363A7XIFV48LMLIF2CKYA8VQSVQAVR&workerId=A2JP9IKRHNLRPI&assignmentId=3X0H8UUIT2A4NQ280OGN6T4XKZ3WSF&a=I80X9&tp_a=I80X9&b=3X0H8UUIT2A4NQ280OGN6T4XKZ3WSF&tp_b=3X0H8UUIT2A4NQ280OGN6T4XKZ3WSF&c=365799&tp_c=365799","firstResponseHeads":0,"firstResponseTails":0,"secondResponseHeads":0,"secondResponseTails":0,"totalHeads":0,"totalTails":0,"studentIndex":0,"studentTrueHypers":{"a":2,"b":8},"studentGuess":0.2,"delta":0,"bonus":0.5,"bonusSoFar":0.5,"totalExamples":0},{"rt":894,"response":{"heads":"0","tails":"0"},"type":"response","condition":"seqNoFeedback","trueTheta":0.2,"classrooms":["C","D"],"studentTrueClassroom":"C","exampleSet":"second","trial_type":"survey-html-form","trial_index":14,"time_elapsed":320065,"internal_node_id":"0.0-9.1-0.1","params":{"nStudents":24,"maxFlips":30,"completionMinutes":45,"basePay":8,"maxBonus":9,"perTrialBonus":0.5,"perTrialBonusThreshold":0.05,"exampleCost":0.01},"classroomParams":{"A":{"a":1,"b":4},"B":{"a":4,"b":1},"C":{"a":2,"b":8},"D":{"a":8,"b":2}},"conditions":["nonSeqFull","nonSeqPartial","seqNoFeedback","seqFeedback"],"classroomPairings":[["A","B"],["C","D"]],"coinWeights":[0.2,0.5,0.8],"subjectId":"A2JP9IKRHNLRPI","assignmentId":"3X0H8UUIT2A4NQ280OGN6T4XKZ3WSF","hitId":"363A7XIFV48LMLIF2CKYA8VQSVQAVR","url":"https://gershmanlab.com/experiments/alicia/teaching/experiment/?hitId=363A7XIFV48LMLIF2CKYA8VQSVQAVR&workerId=A2JP9IKRHNLRPI&assignmentId=3X0H8UUIT2A4NQ280OGN6T4XKZ3WSF&a=I80X9&tp_a=I80X9&b=3X0H8UUIT2A4NQ280OGN6T4XKZ3WSF&tp_b=3X0H8UUIT2A4NQ280OGN6T4XKZ3WSF&c=365799&tp_c=365799","firstResponseHeads":0,"firstResponseTails":0,"secondResponseHeads":0,"secondResponseTails":0,"totalHeads":0,"totalTails":0,"studentIndex":0,"studentTrueHypers":{"a":2,"b":8},"studentGuess":0.2,"delta":0,"bonus":0.5,"bonusSoFar":1,"totalExamples":0},{"rt":539,"response":{"heads":"0","tails":"0"},"type":"response","condition":"seqNoFeedback","trueTheta":0.2,"classrooms":["C","D"],"studentTrueClassroom":"C","exampleSet":"second","trial_type":"survey-html-form","trial_index":15,"time_elapsed":320604,"internal_node_id":"0.0-9.2-0.2","params":{"nStudents":24,"maxFlips":30,"completionMinutes":45,"basePay":8,"maxBonus":9,"perTrialBonus":0.5,"perTrialBonusThreshold":0.05,"exampleCost":0.01},"classroomParams":{"A":{"a":1,"b":4},"B":{"a":4,"b":1},"C":{"a":2,"b":8},"D":{"a":8,"b":2}},"conditions":["nonSeqFull","nonSeqPartial","seqNoFeedback","seqFeedback"],"classroomPairings":[["A","B"],["C","D"]],"coinWeights":[0.2,0.5,0.8],"subjectId":"A2JP9IKRHNLRPI","assignmentId":"3X0H8UUIT2A4NQ280OGN6T4XKZ3WSF","hitId":"363A7XIFV48LMLIF2CKYA8VQSVQAVR","url":"https://gershmanlab.com/experiments/alicia/teaching/experiment/?hitId=363A7XIFV48LMLIF2CKYA8VQSVQAVR&workerId=A2JP9IKRHNLRPI&assignmentId=3X0H8UUIT2A4NQ280OGN6T4XKZ3WSF&a=I80X9&tp_a=I80X9&b=3X0H8UUIT2A4NQ280OGN6T4XKZ3WSF&tp_b=3X0H8UUIT2A4NQ280OGN6T4XKZ3WSF&c=365799&tp_c=365799","firstResponseHeads":0,"firstResponseTails":0,"secondResponseHeads":0,"secondResponseTails":0,"totalHeads":0,"totalTails":0,"studentIndex":0,"studentTrueHypers":{"a":2,"b":8},"studentGuess":0.2,"delta":0,"bonus":0.5,"bonusSoFar":1.5,"totalExamples":0},{"rt":937,"response":{"heads":"0","tails":"0"},"type":"response","condition":"seqNoFeedback","trueTheta":0.2,"classrooms":["C","D"],"studentTrueClassroom":"C","exampleSet":"second","trial_type":"survey-html-form","trial_index":16,"time_elapsed":321542,"internal_node_id":"0.0-9.3-0.3","params":{"nStudents":24,"maxFlips":30,"completionMinutes":45,"basePay":8,"maxBonus":9,"perTrialBonus":0.5,"perTrialBonusThreshold":0.05,"exampleCost":0.01},"classroomParams":{"A":{"a":1,"b":4},"B":{"a":4,"b":1},"C":{"a":2,"b":8},"D":{"a":8,"b":2}},"conditions":["nonSeqFull","nonSeqPartial","seqNoFeedback","seqFeedback"],"classroomPairings":[["A","B"],["C","D"]],"coinWeights":[0.2,0.5,0.8],"subjectId":"A2JP9IKRHNLRPI","assignmentId":"3X0H8UUIT2A4NQ280OGN6T4XKZ3WSF","hitId":"363A7XIFV48LMLIF2CKYA8VQSVQAVR","url":"https://gershmanlab.com/experiments/alicia/teaching/experiment/?hitId=363A7XIFV48LMLIF2CKYA8VQSVQAVR&workerId=A2JP9IKRHNLRPI&assignmentId=3X0H8UUIT2A4NQ280OGN6T4XKZ3WSF&a=I80X9&tp_a=I80X9&b=3X0H8UUIT2A4NQ280OGN6T4XKZ3WSF&tp_b=3X0H8UUIT2A4NQ280OGN6T4XKZ3WSF&c=365799&tp_c=365799","firstResponseHeads":0,"firstResponseTails":0,"secondResponseHeads":0,"secondResponseTails":0,"totalHeads":0,"totalTails":0,"studentIndex":0,"studentTrueHypers":{"a":2,"b":8},"studentGuess":0.2,"delta":0,"bonus":0.5,"bonusSoFar":2,"totalExamples":0},{"rt":5801,"response":{"heads":"2","tails":"8"},"type":"response","condition":"seqNoFeedback","trueTheta":0.2,"classrooms":["C","D"],"studentTrueClassroom":"C","exampleSet":"second","trial_type":"survey-html-form","trial_index":17,"time_elapsed":327343,"internal_node_id":"0.0-9.4-0.4","params":{"nStudents":24,"maxFlips":30,"completionMinutes":45,"basePay":8,"maxBonus":9,"perTrialBonus":0.5,"perTrialBonusThreshold":0.05,"exampleCost":0.01},"classroomParams":{"A":{"a":1,"b":4},"B":{"a":4,"b":1},"C":{"a":2,"b":8},"D":{"a":8,"b":2}},"conditions":["nonSeqFull","nonSeqPartial","seqNoFeedback","seqFeedback"],"classroomPairings":[["A","B"],["C","D"]],"coinWeights":[0.2,0.5,0.8],"subjectId":"A2JP9IKRHNLRPI","assignmentId":"3X0H8UUIT2A4NQ280OGN6T4XKZ3WSF","hitId":"363A7XIFV48LMLIF2CKYA8VQSVQAVR","url":"https://gershmanlab.com/experiments/alicia/teaching/experiment/?hitId=363A7XIFV48LMLIF2CKYA8VQSVQAVR&workerId=A2JP9IKRHNLRPI&assignmentId=3X0H8UUIT2A4NQ280OGN6T4XKZ3WSF&a=I80X9&tp_a=I80X9&b=3X0H8UUIT2A4NQ280OGN6T4XKZ3WSF&tp_b=3X0H8UUIT2A4NQ280OGN6T4XKZ3WSF&c=365799&tp_c=365799","firstResponseHeads":0,"firstResponseTails":0,"secondResponseHeads":2,"secondResponseTails":8,"totalHeads":2,"totalTails":8,"studentIndex":0,"studentTrueHypers":{"a":2,"b":8},"studentGuess":0.2,"delta":0,"bonus":0.4,"bonusSoFar":2.4,"totalExamples":10},{"rt":12337,"response":{"heads":"1","tails":"4"},"type":"response","condition":"nonSeqFull","trueTheta":0.5,"classrooms":["A","B"],"studentTrueClassroom":"B","exampleSet":"first","trial_type":"survey-html-form","trial_index":23,"time_elapsed":360566,"internal_node_id":"0.0-15.0-0.0","params":{"nStudents":24,"maxFlips":30,"completionMinutes":45,"basePay":8,"maxBonus":9,"perTrialBonus":0.5,"perTrialBonusThreshold":0.05,"exampleCost":0.01},"classroomParams":{"A":{"a":1,"b":4},"B":{"a":4,"b":1},"C":{"a":2,"b":8},"D":{"a":8,"b":2}},"conditions":["nonSeqFull","nonSeqPartial","seqNoFeedback","seqFeedback"],"classroomPairings":[["A","B"],["C","D"]],"coinWeights":[0.2,0.5,0.8],"subjectId":"A2JP9IKRHNLRPI","assignmentId":"3X0H8UUIT2A4NQ280OGN6T4XKZ3WSF","hitId":"363A7XIFV48LMLIF2CKYA8VQSVQAVR","url":"https://gershmanlab.com/experiments/alicia/teaching/experiment/?hitId=363A7XIFV48LMLIF2CKYA8VQSVQAVR&workerId=A2JP9IKRHNLRPI&assignmentId=3X0H8UUIT2A4NQ280OGN6T4XKZ3WSF&a=I80X9&tp_a=I80X9&b=3X0H8UUIT2A4NQ280OGN6T4XKZ3WSF&tp_b=3X0H8UUIT2A4NQ280OGN6T4XKZ3WSF&c=365799&tp_c=365799","heads":1,"tails":4,"studentIndex":1,"studentTrueHypers":{"a":4,"b":1},"studentGuess":0.5,"delta":0,"totalExamples":5,"bonus":0.45,"bonusSoFar":2.85},{"rt":11710,"response":{"heads":"1","tails":"1"},"type":"response","condition":"seqFeedback","trueTheta":0.5,"classrooms":["A","B"],"studentTrueClassroom":"B","exampleSet":"first","trial_type":"survey-html-form","trial_index":29,"time_elapsed":407906,"internal_node_id":"0.0-21.0-0.0","params":{"nStudents":24,"maxFlips":30,"completionMinutes":45,"basePay":8,"maxBonus":9,"perTrialBonus":0.5,"perTrialBonusThreshold":0.05,"exampleCost":0.01},"classroomParams":{"A":{"a":1,"b":4},"B":{"a":4,"b":1},"C":{"a":2,"b":8},"D":{"a":8,"b":2}},"conditions":["nonSeqFull","nonSeqPartial","seqNoFeedback","seqFeedback"],"classroomPairings":[["A","B"],["C","D"]],"coinWeights":[0.2,0.5,0.8],"subjectId":"A2JP9IKRHNLRPI","assignmentId":"3X0H8UUIT2A4NQ280OGN6T4XKZ3WSF","hitId":"363A7XIFV48LMLIF2CKYA8VQSVQAVR","url":"https://gershmanlab.com/experiments/alicia/teaching/experiment/?hitId=363A7XIFV48LMLIF2CKYA8VQSVQAVR&workerId=A2JP9IKRHNLRPI&assignmentId=3X0H8UUIT2A4NQ280OGN6T4XKZ3WSF&a=I80X9&tp_a=I80X9&b=3X0H8UUIT2A4NQ280OGN6T4XKZ3WSF&tp_b=3X0H8UUIT2A4NQ280OGN6T4XKZ3WSF&c=365799&tp_c=365799","heads":1,"tails":1,"studentIndex":2,"studentTrueHypers":{"a":4,"b":1},"studentGuess":0.7142857142857143,"delta":0.2142857142857143,"totalExamples":2,"bonusSoFar":2.85},{"rt":12256,"response":{"heads":"1","tails":"4"},"type":"response","condition":"seqFeedback","trueTheta":0.5,"classrooms":["A","B"],"studentTrueClassroom":"B","exampleSet":"second","trial_type":"survey-html-form","trial_index":33,"time_elapsed":429978,"internal_node_id":"0.0-25.0-0.0","params":{"nStudents":24,"maxFlips":30,"completionMinutes":45,"basePay":8,"maxBonus":9,"perTrialBonus":0.5,"perTrialBonusThreshold":0.05,"exampleCost":0.01},"classroomParams":{"A":{"a":1,"b":4},"B":{"a":4,"b":1},"C":{"a":2,"b":8},"D":{"a":8,"b":2}},"conditions":["nonSeqFull","nonSeqPartial","seqNoFeedback","seqFeedback"],"classroomPairings":[["A","B"],["C","D"]],"coinWeights":[0.2,0.5,0.8],"subjectId":"A2JP9IKRHNLRPI","assignmentId":"3X0H8UUIT2A4NQ280OGN6T4XKZ3WSF","hitId":"363A7XIFV48LMLIF2CKYA8VQSVQAVR","url":"https://gershmanlab.com/experiments/alicia/teaching/experiment/?hitId=363A7XIFV48LMLIF2CKYA8VQSVQAVR&workerId=A2JP9IKRHNLRPI&assignmentId=3X0H8UUIT2A4NQ280OGN6T4XKZ3WSF&a=I80X9&tp_a=I80X9&b=3X0H8UUIT2A4NQ280OGN6T4XKZ3WSF&tp_b=3X0H8UUIT2A4NQ280OGN6T4XKZ3WSF&c=365799&tp_c=365799","firstResponseHeads":1,"firstResponseTails":1,"secondResponseHeads":1,"secondResponseTails":4,"totalHeads":2,"totalTails":5,"studentIndex":2,"studentTrueHypers":{"a":4,"b":1},"studentGuess":0.5,"delta":0,"bonus":0.43,"bonusSoFar":3.28,"totalExamples":7},{"rt":11036,"response":{"heads":"4","tails":"1"},"type":"response","condition":"nonSeqPartial","trueTheta":0.8,"classrooms":["A","B"],"studentTrueClassroom":"A","exampleSet":"first","trial_type":"survey-html-form","trial_index":39,"time_elapsed":455874,"internal_node_id":"0.0-31.0-0.0","params":{"nStudents":24,"maxFlips":30,"completionMinutes":45,"basePay":8,"maxBonus":9,"perTrialBonus":0.5,"perTrialBonusThreshold":0.05,"exampleCost":0.01},"classroomParams":{"A":{"a":1,"b":4},"B":{"a":4,"b":1},"C":{"a":2,"b":8},"D":{"a":8,"b":2}},"conditions":["nonSeqFull","nonSeqPartial","seqNoFeedback","seqFeedback"],"classroomPairings":[["A","B"],["C","D"]],"coinWeights":[0.2,0.5,0.8],"subjectId":"A2JP9IKRHNLRPI","assignmentId":"3X0H8UUIT2A4NQ280OGN6T4XKZ3WSF","hitId":"363A7XIFV48LMLIF2CKYA8VQSVQAVR","url":"https://gershmanlab.com/experiments/alicia/teaching/experiment/?hitId=363A7XIFV48LMLIF2CKYA8VQSVQAVR&workerId=A2JP9IKRHNLRPI&assignmentId=3X0H8UUIT2A4NQ280OGN6T4XKZ3WSF&a=I80X9&tp_a=I80X9&b=3X0H8UUIT2A4NQ280OGN6T4XKZ3WSF&tp_b=3X0H8UUIT2A4NQ280OGN6T4XKZ3WSF&c=365799&tp_c=365799","heads":4,"tails":1,"studentIndex":3,"studentTrueHypers":{"a":1,"b":4},"studentGuess":0.5,"delta":0.30000000000000004,"totalExamples":5,"bonus":0,"bonusSoFar":3.28},{"rt":3557,"response":{"heads":"4","tails":"1"},"type":"response","condition":"seqFeedback","trueTheta":0.8,"classrooms":["A","B"],"studentTrueClassroom":"B","exampleSet":"first","trial_type":"survey-html-form","trial_index":45,"time_elapsed":473687,"internal_node_id":"0.0-37.0-0.0","params":{"nStudents":24,"maxFlips":30,"completionMinutes":45,"basePay":8,"maxBonus":9,"perTrialBonus":0.5,"perTrialBonusThreshold":0.05,"exampleCost":0.01},"classroomParams":{"A":{"a":1,"b":4},"B":{"a":4,"b":1},"C":{"a":2,"b":8},"D":{"a":8,"b":2}},"conditions":["nonSeqFull","nonSeqPartial","seqNoFeedback","seqFeedback"],"classroomPairings":[["A","B"],["C","D"]],"coinWeights":[0.2,0.5,0.8],"subjectId":"A2JP9IKRHNLRPI","assignmentId":"3X0H8UUIT2A4NQ280OGN6T4XKZ3WSF","hitId":"363A7XIFV48LMLIF2CKYA8VQSVQAVR","url":"https://gershmanlab.com/experiments/alicia/teaching/experiment/?hitId=363A7XIFV48LMLIF2CKYA8VQSVQAVR&workerId=A2JP9IKRHNLRPI&assignmentId=3X0H8UUIT2A4NQ280OGN6T4XKZ3WSF&a=I80X9&tp_a=I80X9&b=3X0H8UUIT2A4NQ280OGN6T4XKZ3WSF&tp_b=3X0H8UUIT2A4NQ280OGN6T4XKZ3WSF&c=365799&tp_c=365799","heads":4,"tails":1,"studentIndex":4,"studentTrueHypers":{"a":4,"b":1},"studentGuess":0.8,"delta":0,"totalExamples":5,"bonusSoFar":3.28},{"rt":5963,"response":{"heads":"4","tails":"1"},"type":"response","condition":"seqFeedback","trueTheta":0.8,"classrooms":["A","B"],"studentTrueClassroom":"B","exampleSet":"second","trial_type":"survey-html-form","trial_index":49,"time_elapsed":488434,"internal_node_id":"0.0-41.0-0.0","params":{"nStudents":24,"maxFlips":30,"completionMinutes":45,"basePay":8,"maxBonus":9,"perTrialBonus":0.5,"perTrialBonusThreshold":0.05,"exampleCost":0.01},"classroomParams":{"A":{"a":1,"b":4},"B":{"a":4,"b":1},"C":{"a":2,"b":8},"D":{"a":8,"b":2}},"conditions":["nonSeqFull","nonSeqPartial","seqNoFeedback","seqFeedback"],"classroomPairings":[["A","B"],["C","D"]],"coinWeights":[0.2,0.5,0.8],"subjectId":"A2JP9IKRHNLRPI","assignmentId":"3X0H8UUIT2A4NQ280OGN6T4XKZ3WSF","hitId":"363A7XIFV48LMLIF2CKYA8VQSVQAVR","url":"https://gershmanlab.com/experiments/alicia/teaching/experiment/?hitId=363A7XIFV48LMLIF2CKYA8VQSVQAVR&workerId=A2JP9IKRHNLRPI&assignmentId=3X0H8UUIT2A4NQ280OGN6T4XKZ3WSF&a=I80X9&tp_a=I80X9&b=3X0H8UUIT2A4NQ280OGN6T4XKZ3WSF&tp_b=3X0H8UUIT2A4NQ280OGN6T4XKZ3WSF&c=365799&tp_c=365799","firstResponseHeads":4,"firstResponseTails":1,"secondResponseHeads":4,"secondResponseTails":1,"totalHeads":8,"totalTails":2,"studentIndex":4,"studentTrueHypers":{"a":4,"b":1},"studentGuess":0.8,"delta":0,"bonus":0.4,"bonusSoFar":3.68,"totalExamples":10},{"rt":14114,"response":{"heads":"6","tails":"0"},"type":"response","condition":"nonSeqFull","trueTheta":0.5,"classrooms":["C","D"],"studentTrueClassroom":"C","exampleSet":"first","trial_type":"survey-html-form","trial_index":55,"time_elapsed":545311,"internal_node_id":"0.0-47.0-0.0","params":{"nStudents":24,"maxFlips":30,"completionMinutes":45,"basePay":8,"maxBonus":9,"perTrialBonus":0.5,"perTrialBonusThreshold":0.05,"exampleCost":0.01},"classroomParams":{"A":{"a":1,"b":4},"B":{"a":4,"b":1},"C":{"a":2,"b":8},"D":{"a":8,"b":2}},"conditions":["nonSeqFull","nonSeqPartial","seqNoFeedback","seqFeedback"],"classroomPairings":[["A","B"],["C","D"]],"coinWeights":[0.2,0.5,0.8],"subjectId":"A2JP9IKRHNLRPI","assignmentId":"3X0H8UUIT2A4NQ280OGN6T4XKZ3WSF","hitId":"363A7XIFV48LMLIF2CKYA8VQSVQAVR","url":"https://gershmanlab.com/experiments/alicia/teaching/experiment/?hitId=363A7XIFV48LMLIF2CKYA8VQSVQAVR&workerId=A2JP9IKRHNLRPI&assignmentId=3X0H8UUIT2A4NQ280OGN6T4XKZ3WSF&a=I80X9&tp_a=I80X9&b=3X0H8UUIT2A4NQ280OGN6T4XKZ3WSF&tp_b=3X0H8UUIT2A4NQ280OGN6T4XKZ3WSF&c=365799&tp_c=365799","heads":6,"tails":0,"studentIndex":5,"studentTrueHypers":{"a":2,"b":8},"studentGuess":0.5,"delta":0,"totalExamples":6,"bonus":0.44,"bonusSoFar":4.12},{"rt":10045,"response":{"heads":"0","tails":"0"},"type":"response","condition":"nonSeqFull","trueTheta":0.8,"classrooms":["C","D"],"studentTrueClassroom":"D","exampleSet":"first","trial_type":"survey-html-form","trial_index":61,"time_elapsed":568618,"internal_node_id":"0.0-53.0-0.0","params":{"nStudents":24,"maxFlips":30,"completionMinutes":45,"basePay":8,"maxBonus":9,"perTrialBonus":0.5,"perTrialBonusThreshold":0.05,"exampleCost":0.01},"classroomParams":{"A":{"a":1,"b":4},"B":{"a":4,"b":1},"C":{"a":2,"b":8},"D":{"a":8,"b":2}},"conditions":["nonSeqFull","nonSeqPartial","seqNoFeedback","seqFeedback"],"classroomPairings":[["A","B"],["C","D"]],"coinWeights":[0.2,0.5,0.8],"subjectId":"A2JP9IKRHNLRPI","assignmentId":"3X0H8UUIT2A4NQ280OGN6T4XKZ3WSF","hitId":"363A7XIFV48LMLIF2CKYA8VQSVQAVR","url":"https://gershmanlab.com/experiments/alicia/teaching/experiment/?hitId=363A7XIFV48LMLIF2CKYA8VQSVQAVR&workerId=A2JP9IKRHNLRPI&assignmentId=3X0H8UUIT2A4NQ280OGN6T4XKZ3WSF&a=I80X9&tp_a=I80X9&b=3X0H8UUIT2A4NQ280OGN6T4XKZ3WSF&tp_b=3X0H8UUIT2A4NQ280OGN6T4XKZ3WSF&c=365799&tp_c=365799","heads":0,"tails":0,"studentIndex":6,"studentTrueHypers":{"a":8,"b":2},"studentGuess":0.8,"delta":0,"totalExamples":0,"bonus":0.5,"bonusSoFar":4.62},{"rt":19443,"response":{"heads":"4","tails":"1"},"type":"response","condition":"nonSeqFull","trueTheta":0.8,"classrooms":["C","D"],"studentTrueClassroom":"D","exampleSet":"first","trial_type":"survey-html-form","trial_index":62,"time_elapsed":588061,"internal_node_id":"0.0-53.1-0.1","params":{"nStudents":24,"maxFlips":30,"completionMinutes":45,"basePay":8,"maxBonus":9,"perTrialBonus":0.5,"perTrialBonusThreshold":0.05,"exampleCost":0.01},"classroomParams":{"A":{"a":1,"b":4},"B":{"a":4,"b":1},"C":{"a":2,"b":8},"D":{"a":8,"b":2}},"conditions":["nonSeqFull","nonSeqPartial","seqNoFeedback","seqFeedback"],"classroomPairings":[["A","B"],["C","D"]],"coinWeights":[0.2,0.5,0.8],"subjectId":"A2JP9IKRHNLRPI","assignmentId":"3X0H8UUIT2A4NQ280OGN6T4XKZ3WSF","hitId":"363A7XIFV48LMLIF2CKYA8VQSVQAVR","url":"https://gershmanlab.com/experiments/alicia/teaching/experiment/?hitId=363A7XIFV48LMLIF2CKYA8VQSVQAVR&workerId=A2JP9IKRHNLRPI&assignmentId=3X0H8UUIT2A4NQ280OGN6T4XKZ3WSF&a=I80X9&tp_a=I80X9&b=3X0H8UUIT2A4NQ280OGN6T4XKZ3WSF&tp_b=3X0H8UUIT2A4NQ280OGN6T4XKZ3WSF&c=365799&tp_c=365799","heads":4,"tails":1,"studentIndex":6,"studentTrueHypers":{"a":8,"b":2},"studentGuess":0.8,"delta":0,"totalExamples":5,"bonus":0.45,"bonusSoFar":5.07},{"rt":11367,"response":{"heads":"0","tails":"6"},"type":"response","condition":"seqFeedback","trueTheta":0.5,"classrooms":["C","D"],"studentTrueClassroom":"D","exampleSet":"first","trial_type":"survey-html-form","trial_index":68,"time_elapsed":611105,"internal_node_id":"0.0-59.0-0.0","params":{"nStudents":24,"maxFlips":30,"completionMinutes":45,"basePay":8,"maxBonus":9,"perTrialBonus":0.5,"perTrialBonusThreshold":0.05,"exampleCost":0.01},"classroomParams":{"A":{"a":1,"b":4},"B":{"a":4,"b":1},"C":{"a":2,"b":8},"D":{"a":8,"b":2}},"conditions":["nonSeqFull","nonSeqPartial","seqNoFeedback","seqFeedback"],"classroomPairings":[["A","B"],["C","D"]],"coinWeights":[0.2,0.5,0.8],"subjectId":"A2JP9IKRHNLRPI","assignmentId":"3X0H8UUIT2A4NQ280OGN6T4XKZ3WSF","hitId":"363A7XIFV48LMLIF2CKYA8VQSVQAVR","url":"https://gershmanlab.com/experiments/alicia/teaching/experiment/?hitId=363A7XIFV48LMLIF2CKYA8VQSVQAVR&workerId=A2JP9IKRHNLRPI&assignmentId=3X0H8UUIT2A4NQ280OGN6T4XKZ3WSF&a=I80X9&tp_a=I80X9&b=3X0H8UUIT2A4NQ280OGN6T4XKZ3WSF&tp_b=3X0H8UUIT2A4NQ280OGN6T4XKZ3WSF&c=365799&tp_c=365799","heads":0,"tails":6,"studentIndex":7,"studentTrueHypers":{"a":8,"b":2},"studentGuess":0.5,"delta":0,"totalExamples":6,"bonusSoFar":5.07},{"rt":3617,"response":{"heads":"0","tails":"6"},"type":"response","condition":"seqFeedback","trueTheta":0.5,"classrooms":["C","D"],"studentTrueClassroom":"D","exampleSet":"second","trial_type":"survey-html-form","trial_index":72,"time_elapsed":623633,"internal_node_id":"0.0-63.0-0.0","params":{"nStudents":24,"maxFlips":30,"completionMinutes":45,"basePay":8,"maxBonus":9,"perTrialBonus":0.5,"perTrialBonusThreshold":0.05,"exampleCost":0.01},"classroomParams":{"A":{"a":1,"b":4},"B":{"a":4,"b":1},"C":{"a":2,"b":8},"D":{"a":8,"b":2}},"conditions":["nonSeqFull","nonSeqPartial","seqNoFeedback","seqFeedback"],"classroomPairings":[["A","B"],["C","D"]],"coinWeights":[0.2,0.5,0.8],"subjectId":"A2JP9IKRHNLRPI","assignmentId":"3X0H8UUIT2A4NQ280OGN6T4XKZ3WSF","hitId":"363A7XIFV48LMLIF2CKYA8VQSVQAVR","url":"https://gershmanlab.com/experiments/alicia/teaching/experiment/?hitId=363A7XIFV48LMLIF2CKYA8VQSVQAVR&workerId=A2JP9IKRHNLRPI&assignmentId=3X0H8UUIT2A4NQ280OGN6T4XKZ3WSF&a=I80X9&tp_a=I80X9&b=3X0H8UUIT2A4NQ280OGN6T4XKZ3WSF&tp_b=3X0H8UUIT2A4NQ280OGN6T4XKZ3WSF&c=365799&tp_c=365799","firstResponseHeads":0,"firstResponseTails":6,"secondResponseHeads":0,"secondResponseTails":6,"totalHeads":0,"totalTails":12,"studentIndex":7,"studentTrueHypers":{"a":8,"b":2},"studentGuess":0.36363636363636365,"delta":0.13636363636363635,"bonus":0,"bonusSoFar":5.07,"totalExamples":12},{"rt":13147,"response":{"heads":"15","tails":"0"},"type":"response","condition":"nonSeqFull","trueTheta":0.8,"classrooms":["A","B"],"studentTrueClassroom":"A","exampleSet":"first","trial_type":"survey-html-form","trial_index":78,"time_elapsed":650760,"internal_node_id":"0.0-69.0-0.0","params":{"nStudents":24,"maxFlips":30,"completionMinutes":45,"basePay":8,"maxBonus":9,"perTrialBonus":0.5,"perTrialBonusThreshold":0.05,"exampleCost":0.01},"classroomParams":{"A":{"a":1,"b":4},"B":{"a":4,"b":1},"C":{"a":2,"b":8},"D":{"a":8,"b":2}},"conditions":["nonSeqFull","nonSeqPartial","seqNoFeedback","seqFeedback"],"classroomPairings":[["A","B"],["C","D"]],"coinWeights":[0.2,0.5,0.8],"subjectId":"A2JP9IKRHNLRPI","assignmentId":"3X0H8UUIT2A4NQ280OGN6T4XKZ3WSF","hitId":"363A7XIFV48LMLIF2CKYA8VQSVQAVR","url":"https://gershmanlab.com/experiments/alicia/teaching/experiment/?hitId=363A7XIFV48LMLIF2CKYA8VQSVQAVR&workerId=A2JP9IKRHNLRPI&assignmentId=3X0H8UUIT2A4NQ280OGN6T4XKZ3WSF&a=I80X9&tp_a=I80X9&b=3X0H8UUIT2A4NQ280OGN6T4XKZ3WSF&tp_b=3X0H8UUIT2A4NQ280OGN6T4XKZ3WSF&c=365799&tp_c=365799","heads":15,"tails":0,"studentIndex":8,"studentTrueHypers":{"a":1,"b":4},"studentGuess":0.8,"delta":0,"totalExamples":15,"bonus":0.35,"bonusSoFar":5.42},{"rt":8394,"response":{"heads":"3","tails":"0"},"type":"response","condition":"nonSeqPartial","trueTheta":0.5,"classrooms":["A","B"],"studentTrueClassroom":"A","exampleSet":"first","trial_type":"survey-html-form","trial_index":84,"time_elapsed":669550,"internal_node_id":"0.0-75.0-0.0","params":{"nStudents":24,"maxFlips":30,"completionMinutes":45,"basePay":8,"maxBonus":9,"perTrialBonus":0.5,"perTrialBonusThreshold":0.05,"exampleCost":0.01},"classroomParams":{"A":{"a":1,"b":4},"B":{"a":4,"b":1},"C":{"a":2,"b":8},"D":{"a":8,"b":2}},"conditions":["nonSeqFull","nonSeqPartial","seqNoFeedback","seqFeedback"],"classroomPairings":[["A","B"],["C","D"]],"coinWeights":[0.2,0.5,0.8],"subjectId":"A2JP9IKRHNLRPI","assignmentId":"3X0H8UUIT2A4NQ280OGN6T4XKZ3WSF","hitId":"363A7XIFV48LMLIF2CKYA8VQSVQAVR","url":"https://gershmanlab.com/experiments/alicia/teaching/experiment/?hitId=363A7XIFV48LMLIF2CKYA8VQSVQAVR&workerId=A2JP9IKRHNLRPI&assignmentId=3X0H8UUIT2A4NQ280OGN6T4XKZ3WSF&a=I80X9&tp_a=I80X9&b=3X0H8UUIT2A4NQ280OGN6T4XKZ3WSF&tp_b=3X0H8UUIT2A4NQ280OGN6T4XKZ3WSF&c=365799&tp_c=365799","heads":3,"tails":0,"studentIndex":9,"studentTrueHypers":{"a":1,"b":4},"studentGuess":0.5,"delta":0,"totalExamples":3,"bonus":0.47,"bonusSoFar":5.89},{"rt":10686,"response":{"heads":"1","tails":"4"},"type":"response","condition":"seqFeedback","trueTheta":0.2,"classrooms":["A","B"],"studentTrueClassroom":"A","exampleSet":"first","trial_type":"survey-html-form","trial_index":90,"time_elapsed":693522,"internal_node_id":"0.0-81.0-0.0","params":{"nStudents":24,"maxFlips":30,"completionMinutes":45,"basePay":8,"maxBonus":9,"perTrialBonus":0.5,"perTrialBonusThreshold":0.05,"exampleCost":0.01},"classroomParams":{"A":{"a":1,"b":4},"B":{"a":4,"b":1},"C":{"a":2,"b":8},"D":{"a":8,"b":2}},"conditions":["nonSeqFull","nonSeqPartial","seqNoFeedback","seqFeedback"],"classroomPairings":[["A","B"],["C","D"]],"coinWeights":[0.2,0.5,0.8],"subjectId":"A2JP9IKRHNLRPI","assignmentId":"3X0H8UUIT2A4NQ280OGN6T4XKZ3WSF","hitId":"363A7XIFV48LMLIF2CKYA8VQSVQAVR","url":"https://gershmanlab.com/experiments/alicia/teaching/experiment/?hitId=363A7XIFV48LMLIF2CKYA8VQSVQAVR&workerId=A2JP9IKRHNLRPI&assignmentId=3X0H8UUIT2A4NQ280OGN6T4XKZ3WSF&a=I80X9&tp_a=I80X9&b=3X0H8UUIT2A4NQ280OGN6T4XKZ3WSF&tp_b=3X0H8UUIT2A4NQ280OGN6T4XKZ3WSF&c=365799&tp_c=365799","heads":1,"tails":4,"studentIndex":10,"studentTrueHypers":{"a":1,"b":4},"studentGuess":0.2,"delta":0,"totalExamples":5,"bonusSoFar":5.89},{"rt":4492,"response":{"heads":"1","tails":"4"},"type":"response","condition":"seqFeedback","trueTheta":0.2,"classrooms":["A","B"],"studentTrueClassroom":"A","exampleSet":"second","trial_type":"survey-html-form","trial_index":94,"time_elapsed":706747,"internal_node_id":"0.0-85.0-0.0","params":{"nStudents":24,"maxFlips":30,"completionMinutes":45,"basePay":8,"maxBonus":9,"perTrialBonus":0.5,"perTrialBonusThreshold":0.05,"exampleCost":0.01},"classroomParams":{"A":{"a":1,"b":4},"B":{"a":4,"b":1},"C":{"a":2,"b":8},"D":{"a":8,"b":2}},"conditions":["nonSeqFull","nonSeqPartial","seqNoFeedback","seqFeedback"],"classroomPairings":[["A","B"],["C","D"]],"coinWeights":[0.2,0.5,0.8],"subjectId":"A2JP9IKRHNLRPI","assignmentId":"3X0H8UUIT2A4NQ280OGN6T4XKZ3WSF","hitId":"363A7XIFV48LMLIF2CKYA8VQSVQAVR","url":"https://gershmanlab.com/experiments/alicia/teaching/experiment/?hitId=363A7XIFV48LMLIF2CKYA8VQSVQAVR&workerId=A2JP9IKRHNLRPI&assignmentId=3X0H8UUIT2A4NQ280OGN6T4XKZ3WSF&a=I80X9&tp_a=I80X9&b=3X0H8UUIT2A4NQ280OGN6T4XKZ3WSF&tp_b=3X0H8UUIT2A4NQ280OGN6T4XKZ3WSF&c=365799&tp_c=365799","firstResponseHeads":1,"firstResponseTails":4,"secondResponseHeads":1,"secondResponseTails":4,"totalHeads":2,"totalTails":8,"studentIndex":10,"studentTrueHypers":{"a":1,"b":4},"studentGuess":0.2,"delta":0,"bonus":0.4,"bonusSoFar":6.29,"totalExamples":10},{"rt":16598,"response":{"heads":"1","tails":"4"},"type":"response","condition":"seqFeedback","trueTheta":0.2,"classrooms":["C","D"],"studentTrueClassroom":"D","exampleSet":"first","trial_type":"survey-html-form","trial_index":100,"time_elapsed":737430,"internal_node_id":"0.0-91.0-0.0","params":{"nStudents":24,"maxFlips":30,"completionMinutes":45,"basePay":8,"maxBonus":9,"perTrialBonus":0.5,"perTrialBonusThreshold":0.05,"exampleCost":0.01},"classroomParams":{"A":{"a":1,"b":4},"B":{"a":4,"b":1},"C":{"a":2,"b":8},"D":{"a":8,"b":2}},"conditions":["nonSeqFull","nonSeqPartial","seqNoFeedback","seqFeedback"],"classroomPairings":[["A","B"],["C","D"]],"coinWeights":[0.2,0.5,0.8],"subjectId":"A2JP9IKRHNLRPI","assignmentId":"3X0H8UUIT2A4NQ280OGN6T4XKZ3WSF","hitId":"363A7XIFV48LMLIF2CKYA8VQSVQAVR","url":"https://gershmanlab.com/experiments/alicia/teaching/experiment/?hitId=363A7XIFV48LMLIF2CKYA8VQSVQAVR&workerId=A2JP9IKRHNLRPI&assignmentId=3X0H8UUIT2A4NQ280OGN6T4XKZ3WSF&a=I80X9&tp_a=I80X9&b=3X0H8UUIT2A4NQ280OGN6T4XKZ3WSF&tp_b=3X0H8UUIT2A4NQ280OGN6T4XKZ3WSF&c=365799&tp_c=365799","heads":1,"tails":4,"studentIndex":11,"studentTrueHypers":{"a":8,"b":2},"studentGuess":0.6,"delta":0.39999999999999997,"totalExamples":5,"bonusSoFar":6.29},{"rt":6833,"response":{"heads":"4","tails":"16"},"type":"response","condition":"seqFeedback","trueTheta":0.2,"classrooms":["C","D"],"studentTrueClassroom":"D","exampleSet":"second","trial_type":"survey-html-form","trial_index":104,"time_elapsed":753160,"internal_node_id":"0.0-95.0-0.0","params":{"nStudents":24,"maxFlips":30,"completionMinutes":45,"basePay":8,"maxBonus":9,"perTrialBonus":0.5,"perTrialBonusThreshold":0.05,"exampleCost":0.01},"classroomParams":{"A":{"a":1,"b":4},"B":{"a":4,"b":1},"C":{"a":2,"b":8},"D":{"a":8,"b":2}},"conditions":["nonSeqFull","nonSeqPartial","seqNoFeedback","seqFeedback"],"classroomPairings":[["A","B"],["C","D"]],"coinWeights":[0.2,0.5,0.8],"subjectId":"A2JP9IKRHNLRPI","assignmentId":"3X0H8UUIT2A4NQ280OGN6T4XKZ3WSF","hitId":"363A7XIFV48LMLIF2CKYA8VQSVQAVR","url":"https://gershmanlab.com/experiments/alicia/teaching/experiment/?hitId=363A7XIFV48LMLIF2CKYA8VQSVQAVR&workerId=A2JP9IKRHNLRPI&assignmentId=3X0H8UUIT2A4NQ280OGN6T4XKZ3WSF&a=I80X9&tp_a=I80X9&b=3X0H8UUIT2A4NQ280OGN6T4XKZ3WSF&tp_b=3X0H8UUIT2A4NQ280OGN6T4XKZ3WSF&c=365799&tp_c=365799","firstResponseHeads":1,"firstResponseTails":4,"secondResponseHeads":4,"secondResponseTails":16,"totalHeads":5,"totalTails":20,"studentIndex":11,"studentTrueHypers":{"a":8,"b":2},"studentGuess":0.37142857142857144,"delta":0.17142857142857143,"bonus":0,"bonusSoFar":6.29,"totalExamples":25},{"rt":12944,"response":{"heads":"1","tails":"4"},"type":"response","condition":"seqNoFeedback","trueTheta":0.2,"classrooms":["A","B"],"studentTrueClassroom":"A","exampleSet":"first","trial_type":"survey-html-form","trial_index":110,"time_elapsed":786401,"internal_node_id":"0.0-101.0-0.0","params":{"nStudents":24,"maxFlips":30,"completionMinutes":45,"basePay":8,"maxBonus":9,"perTrialBonus":0.5,"perTrialBonusThreshold":0.05,"exampleCost":0.01},"classroomParams":{"A":{"a":1,"b":4},"B":{"a":4,"b":1},"C":{"a":2,"b":8},"D":{"a":8,"b":2}},"conditions":["nonSeqFull","nonSeqPartial","seqNoFeedback","seqFeedback"],"classroomPairings":[["A","B"],["C","D"]],"coinWeights":[0.2,0.5,0.8],"subjectId":"A2JP9IKRHNLRPI","assignmentId":"3X0H8UUIT2A4NQ280OGN6T4XKZ3WSF","hitId":"363A7XIFV48LMLIF2CKYA8VQSVQAVR","url":"https://gershmanlab.com/experiments/alicia/teaching/experiment/?hitId=363A7XIFV48LMLIF2CKYA8VQSVQAVR&workerId=A2JP9IKRHNLRPI&assignmentId=3X0H8UUIT2A4NQ280OGN6T4XKZ3WSF&a=I80X9&tp_a=I80X9&b=3X0H8UUIT2A4NQ280OGN6T4XKZ3WSF&tp_b=3X0H8UUIT2A4NQ280OGN6T4XKZ3WSF&c=365799&tp_c=365799","heads":1,"tails":4,"studentIndex":12,"studentTrueHypers":{"a":1,"b":4},"studentGuess":0.2,"delta":0,"totalExamples":5,"bonusSoFar":6.29},{"rt":6715,"response":{"heads":"1","tails":"4"},"type":"response","condition":"seqNoFeedback","trueTheta":0.2,"classrooms":["A","B"],"studentTrueClassroom":"A","exampleSet":"second","trial_type":"survey-html-form","trial_index":113,"time_elapsed":798882,"internal_node_id":"0.0-104.0-0.0","params":{"nStudents":24,"maxFlips":30,"completionMinutes":45,"basePay":8,"maxBonus":9,"perTrialBonus":0.5,"perTrialBonusThreshold":0.05,"exampleCost":0.01},"classroomParams":{"A":{"a":1,"b":4},"B":{"a":4,"b":1},"C":{"a":2,"b":8},"D":{"a":8,"b":2}},"conditions":["nonSeqFull","nonSeqPartial","seqNoFeedback","seqFeedback"],"classroomPairings":[["A","B"],["C","D"]],"coinWeights":[0.2,0.5,0.8],"subjectId":"A2JP9IKRHNLRPI","assignmentId":"3X0H8UUIT2A4NQ280OGN6T4XKZ3WSF","hitId":"363A7XIFV48LMLIF2CKYA8VQSVQAVR","url":"https://gershmanlab.com/experiments/alicia/teaching/experiment/?hitId=363A7XIFV48LMLIF2CKYA8VQSVQAVR&workerId=A2JP9IKRHNLRPI&assignmentId=3X0H8UUIT2A4NQ280OGN6T4XKZ3WSF&a=I80X9&tp_a=I80X9&b=3X0H8UUIT2A4NQ280OGN6T4XKZ3WSF&tp_b=3X0H8UUIT2A4NQ280OGN6T4XKZ3WSF&c=365799&tp_c=365799","firstResponseHeads":1,"firstResponseTails":4,"secondResponseHeads":1,"secondResponseTails":4,"totalHeads":2,"totalTails":8,"studentIndex":12,"studentTrueHypers":{"a":1,"b":4},"studentGuess":0.2,"delta":0,"bonus":0.4,"bonusSoFar":6.69,"totalExamples":10},{"rt":5438,"response":{"heads":"4","tails":"1"},"type":"response","condition":"seqNoFeedback","trueTheta":0.8,"classrooms":["A","B"],"studentTrueClassroom":"B","exampleSet":"first","trial_type":"survey-html-form","trial_index":119,"time_elapsed":815950,"internal_node_id":"0.0-110.0-0.0","params":{"nStudents":24,"maxFlips":30,"completionMinutes":45,"basePay":8,"maxBonus":9,"perTrialBonus":0.5,"perTrialBonusThreshold":0.05,"exampleCost":0.01},"classroomParams":{"A":{"a":1,"b":4},"B":{"a":4,"b":1},"C":{"a":2,"b":8},"D":{"a":8,"b":2}},"conditions":["nonSeqFull","nonSeqPartial","seqNoFeedback","seqFeedback"],"classroomPairings":[["A","B"],["C","D"]],"coinWeights":[0.2,0.5,0.8],"subjectId":"A2JP9IKRHNLRPI","assignmentId":"3X0H8UUIT2A4NQ280OGN6T4XKZ3WSF","hitId":"363A7XIFV48LMLIF2CKYA8VQSVQAVR","url":"https://gershmanlab.com/experiments/alicia/teaching/experiment/?hitId=363A7XIFV48LMLIF2CKYA8VQSVQAVR&workerId=A2JP9IKRHNLRPI&assignmentId=3X0H8UUIT2A4NQ280OGN6T4XKZ3WSF&a=I80X9&tp_a=I80X9&b=3X0H8UUIT2A4NQ280OGN6T4XKZ3WSF&tp_b=3X0H8UUIT2A4NQ280OGN6T4XKZ3WSF&c=365799&tp_c=365799","heads":4,"tails":1,"studentIndex":13,"studentTrueHypers":{"a":4,"b":1},"studentGuess":0.8,"delta":0,"totalExamples":5,"bonusSoFar":6.69},{"rt":5326,"response":{"heads":"4","tails":"1"},"type":"response","condition":"seqNoFeedback","trueTheta":0.8,"classrooms":["A","B"],"studentTrueClassroom":"B","exampleSet":"second","trial_type":"survey-html-form","trial_index":122,"time_elapsed":828542,"internal_node_id":"0.0-113.0-0.0","params":{"nStudents":24,"maxFlips":30,"completionMinutes":45,"basePay":8,"maxBonus":9,"perTrialBonus":0.5,"perTrialBonusThreshold":0.05,"exampleCost":0.01},"classroomParams":{"A":{"a":1,"b":4},"B":{"a":4,"b":1},"C":{"a":2,"b":8},"D":{"a":8,"b":2}},"conditions":["nonSeqFull","nonSeqPartial","seqNoFeedback","seqFeedback"],"classroomPairings":[["A","B"],["C","D"]],"coinWeights":[0.2,0.5,0.8],"subjectId":"A2JP9IKRHNLRPI","assignmentId":"3X0H8UUIT2A4NQ280OGN6T4XKZ3WSF","hitId":"363A7XIFV48LMLIF2CKYA8VQSVQAVR","url":"https://gershmanlab.com/experiments/alicia/teaching/experiment/?hitId=363A7XIFV48LMLIF2CKYA8VQSVQAVR&workerId=A2JP9IKRHNLRPI&assignmentId=3X0H8UUIT2A4NQ280OGN6T4XKZ3WSF&a=I80X9&tp_a=I80X9&b=3X0H8UUIT2A4NQ280OGN6T4XKZ3WSF&tp_b=3X0H8UUIT2A4NQ280OGN6T4XKZ3WSF&c=365799&tp_c=365799","firstResponseHeads":4,"firstResponseTails":1,"secondResponseHeads":4,"secondResponseTails":1,"totalHeads":8,"totalTails":2,"studentIndex":13,"studentTrueHypers":{"a":4,"b":1},"studentGuess":0.8,"delta":0,"bonus":0.4,"bonusSoFar":7.09,"totalExamples":10},{"rt":30553,"response":{"heads":"6","tails":"24"},"type":"response","condition":"nonSeqPartial","trueTheta":0.2,"classrooms":["C","D"],"studentTrueClassroom":"D","exampleSet":"first","trial_type":"survey-html-form","trial_index":128,"time_elapsed":872219,"internal_node_id":"0.0-119.0-0.0","params":{"nStudents":24,"maxFlips":30,"completionMinutes":45,"basePay":8,"maxBonus":9,"perTrialBonus":0.5,"perTrialBonusThreshold":0.05,"exampleCost":0.01},"classroomParams":{"A":{"a":1,"b":4},"B":{"a":4,"b":1},"C":{"a":2,"b":8},"D":{"a":8,"b":2}},"conditions":["nonSeqFull","nonSeqPartial","seqNoFeedback","seqFeedback"],"classroomPairings":[["A","B"],["C","D"]],"coinWeights":[0.2,0.5,0.8],"subjectId":"A2JP9IKRHNLRPI","assignmentId":"3X0H8UUIT2A4NQ280OGN6T4XKZ3WSF","hitId":"363A7XIFV48LMLIF2CKYA8VQSVQAVR","url":"https://gershmanlab.com/experiments/alicia/teaching/experiment/?hitId=363A7XIFV48LMLIF2CKYA8VQSVQAVR&workerId=A2JP9IKRHNLRPI&assignmentId=3X0H8UUIT2A4NQ280OGN6T4XKZ3WSF&a=I80X9&tp_a=I80X9&b=3X0H8UUIT2A4NQ280OGN6T4XKZ3WSF&tp_b=3X0H8UUIT2A4NQ280OGN6T4XKZ3WSF&c=365799&tp_c=365799","heads":6,"tails":24,"studentIndex":14,"studentTrueHypers":{"a":8,"b":2},"studentGuess":0.35,"delta":0.14999999999999997,"totalExamples":30,"bonus":0,"bonusSoFar":7.09},{"rt":4216,"response":{"heads":"8","tails":"2"},"type":"response","condition":"nonSeqPartial","trueTheta":0.8,"classrooms":["C","D"],"studentTrueClassroom":"C","exampleSet":"first","trial_type":"survey-html-form","trial_index":134,"time_elapsed":887899,"internal_node_id":"0.0-125.0-0.0","params":{"nStudents":24,"maxFlips":30,"completionMinutes":45,"basePay":8,"maxBonus":9,"perTrialBonus":0.5,"perTrialBonusThreshold":0.05,"exampleCost":0.01},"classroomParams":{"A":{"a":1,"b":4},"B":{"a":4,"b":1},"C":{"a":2,"b":8},"D":{"a":8,"b":2}},"conditions":["nonSeqFull","nonSeqPartial","seqNoFeedback","seqFeedback"],"classroomPairings":[["A","B"],["C","D"]],"coinWeights":[0.2,0.5,0.8],"subjectId":"A2JP9IKRHNLRPI","assignmentId":"3X0H8UUIT2A4NQ280OGN6T4XKZ3WSF","hitId":"363A7XIFV48LMLIF2CKYA8VQSVQAVR","url":"https://gershmanlab.com/experiments/alicia/teaching/experiment/?hitId=363A7XIFV48LMLIF2CKYA8VQSVQAVR&workerId=A2JP9IKRHNLRPI&assignmentId=3X0H8UUIT2A4NQ280OGN6T4XKZ3WSF&a=I80X9&tp_a=I80X9&b=3X0H8UUIT2A4NQ280OGN6T4XKZ3WSF&tp_b=3X0H8UUIT2A4NQ280OGN6T4XKZ3WSF&c=365799&tp_c=365799","heads":8,"tails":2,"studentIndex":15,"studentTrueHypers":{"a":2,"b":8},"studentGuess":0.5,"delta":0.30000000000000004,"totalExamples":10,"bonus":0,"bonusSoFar":7.09},{"rt":5648,"response":{"heads":"8","tails":"2"},"type":"response","condition":"seqFeedback","trueTheta":0.8,"classrooms":["C","D"],"studentTrueClassroom":"D","exampleSet":"first","trial_type":"survey-html-form","trial_index":140,"time_elapsed":905551,"internal_node_id":"0.0-131.0-0.0","params":{"nStudents":24,"maxFlips":30,"completionMinutes":45,"basePay":8,"maxBonus":9,"perTrialBonus":0.5,"perTrialBonusThreshold":0.05,"exampleCost":0.01},"classroomParams":{"A":{"a":1,"b":4},"B":{"a":4,"b":1},"C":{"a":2,"b":8},"D":{"a":8,"b":2}},"conditions":["nonSeqFull","nonSeqPartial","seqNoFeedback","seqFeedback"],"classroomPairings":[["A","B"],["C","D"]],"coinWeights":[0.2,0.5,0.8],"subjectId":"A2JP9IKRHNLRPI","assignmentId":"3X0H8UUIT2A4NQ280OGN6T4XKZ3WSF","hitId":"363A7XIFV48LMLIF2CKYA8VQSVQAVR","url":"https://gershmanlab.com/experiments/alicia/teaching/experiment/?hitId=363A7XIFV48LMLIF2CKYA8VQSVQAVR&workerId=A2JP9IKRHNLRPI&assignmentId=3X0H8UUIT2A4NQ280OGN6T4XKZ3WSF&a=I80X9&tp_a=I80X9&b=3X0H8UUIT2A4NQ280OGN6T4XKZ3WSF&tp_b=3X0H8UUIT2A4NQ280OGN6T4XKZ3WSF&c=365799&tp_c=365799","heads":8,"tails":2,"studentIndex":16,"studentTrueHypers":{"a":8,"b":2},"studentGuess":0.8,"delta":0,"totalExamples":10,"bonusSoFar":7.09},{"rt":7050,"response":{"heads":"4","tails":"1"},"type":"response","condition":"seqFeedback","trueTheta":0.8,"classrooms":["C","D"],"studentTrueClassroom":"D","exampleSet":"second","trial_type":"survey-html-form","trial_index":144,"time_elapsed":921530,"internal_node_id":"0.0-135.0-0.0","params":{"nStudents":24,"maxFlips":30,"completionMinutes":45,"basePay":8,"maxBonus":9,"perTrialBonus":0.5,"perTrialBonusThreshold":0.05,"exampleCost":0.01},"classroomParams":{"A":{"a":1,"b":4},"B":{"a":4,"b":1},"C":{"a":2,"b":8},"D":{"a":8,"b":2}},"conditions":["nonSeqFull","nonSeqPartial","seqNoFeedback","seqFeedback"],"classroomPairings":[["A","B"],["C","D"]],"coinWeights":[0.2,0.5,0.8],"subjectId":"A2JP9IKRHNLRPI","assignmentId":"3X0H8UUIT2A4NQ280OGN6T4XKZ3WSF","hitId":"363A7XIFV48LMLIF2CKYA8VQSVQAVR","url":"https://gershmanlab.com/experiments/alicia/teaching/experiment/?hitId=363A7XIFV48LMLIF2CKYA8VQSVQAVR&workerId=A2JP9IKRHNLRPI&assignmentId=3X0H8UUIT2A4NQ280OGN6T4XKZ3WSF&a=I80X9&tp_a=I80X9&b=3X0H8UUIT2A4NQ280OGN6T4XKZ3WSF&tp_b=3X0H8UUIT2A4NQ280OGN6T4XKZ3WSF&c=365799&tp_c=365799","firstResponseHeads":8,"firstResponseTails":2,"secondResponseHeads":4,"secondResponseTails":1,"totalHeads":12,"totalTails":3,"studentIndex":16,"studentTrueHypers":{"a":8,"b":2},"studentGuess":0.8,"delta":0,"bonus":0.35,"bonusSoFar":7.44,"totalExamples":15},{"rt":7526,"response":{"heads":"3","tails":"0"},"type":"response","condition":"seqNoFeedback","trueTheta":0.5,"classrooms":["A","B"],"studentTrueClassroom":"B","exampleSet":"first","trial_type":"survey-html-form","trial_index":150,"time_elapsed":944142,"internal_node_id":"0.0-141.0-0.0","params":{"nStudents":24,"maxFlips":30,"completionMinutes":45,"basePay":8,"maxBonus":9,"perTrialBonus":0.5,"perTrialBonusThreshold":0.05,"exampleCost":0.01},"classroomParams":{"A":{"a":1,"b":4},"B":{"a":4,"b":1},"C":{"a":2,"b":8},"D":{"a":8,"b":2}},"conditions":["nonSeqFull","nonSeqPartial","seqNoFeedback","seqFeedback"],"classroomPairings":[["A","B"],["C","D"]],"coinWeights":[0.2,0.5,0.8],"subjectId":"A2JP9IKRHNLRPI","assignmentId":"3X0H8UUIT2A4NQ280OGN6T4XKZ3WSF","hitId":"363A7XIFV48LMLIF2CKYA8VQSVQAVR","url":"https://gershmanlab.com/experiments/alicia/teaching/experiment/?hitId=363A7XIFV48LMLIF2CKYA8VQSVQAVR&workerId=A2JP9IKRHNLRPI&assignmentId=3X0H8UUIT2A4NQ280OGN6T4XKZ3WSF&a=I80X9&tp_a=I80X9&b=3X0H8UUIT2A4NQ280OGN6T4XKZ3WSF&tp_b=3X0H8UUIT2A4NQ280OGN6T4XKZ3WSF&c=365799&tp_c=365799","heads":3,"tails":0,"studentIndex":17,"studentTrueHypers":{"a":4,"b":1},"studentGuess":0.875,"delta":0.375,"totalExamples":3,"bonusSoFar":7.44},{"rt":9229,"response":{"heads":"1","tails":"1"},"type":"response","condition":"seqNoFeedback","trueTheta":0.5,"classrooms":["A","B"],"studentTrueClassroom":"B","exampleSet":"second","trial_type":"survey-html-form","trial_index":153,"time_elapsed":960149,"internal_node_id":"0.0-144.0-0.0","params":{"nStudents":24,"maxFlips":30,"completionMinutes":45,"basePay":8,"maxBonus":9,"perTrialBonus":0.5,"perTrialBonusThreshold":0.05,"exampleCost":0.01},"classroomParams":{"A":{"a":1,"b":4},"B":{"a":4,"b":1},"C":{"a":2,"b":8},"D":{"a":8,"b":2}},"conditions":["nonSeqFull","nonSeqPartial","seqNoFeedback","seqFeedback"],"classroomPairings":[["A","B"],["C","D"]],"coinWeights":[0.2,0.5,0.8],"subjectId":"A2JP9IKRHNLRPI","assignmentId":"3X0H8UUIT2A4NQ280OGN6T4XKZ3WSF","hitId":"363A7XIFV48LMLIF2CKYA8VQSVQAVR","url":"https://gershmanlab.com/experiments/alicia/teaching/experiment/?hitId=363A7XIFV48LMLIF2CKYA8VQSVQAVR&workerId=A2JP9IKRHNLRPI&assignmentId=3X0H8UUIT2A4NQ280OGN6T4XKZ3WSF&a=I80X9&tp_a=I80X9&b=3X0H8UUIT2A4NQ280OGN6T4XKZ3WSF&tp_b=3X0H8UUIT2A4NQ280OGN6T4XKZ3WSF&c=365799&tp_c=365799","firstResponseHeads":3,"firstResponseTails":0,"secondResponseHeads":1,"secondResponseTails":1,"totalHeads":4,"totalTails":1,"studentIndex":17,"studentTrueHypers":{"a":4,"b":1},"studentGuess":0.8,"delta":0.30000000000000004,"bonus":0,"bonusSoFar":7.44,"totalExamples":5},{"rt":5800,"response":{"heads":"6","tails":"0"},"type":"response","condition":"nonSeqPartial","trueTheta":0.5,"classrooms":["C","D"],"studentTrueClassroom":"C","exampleSet":"first","trial_type":"survey-html-form","trial_index":159,"time_elapsed":986153,"internal_node_id":"0.0-150.0-0.0","params":{"nStudents":24,"maxFlips":30,"completionMinutes":45,"basePay":8,"maxBonus":9,"perTrialBonus":0.5,"perTrialBonusThreshold":0.05,"exampleCost":0.01},"classroomParams":{"A":{"a":1,"b":4},"B":{"a":4,"b":1},"C":{"a":2,"b":8},"D":{"a":8,"b":2}},"conditions":["nonSeqFull","nonSeqPartial","seqNoFeedback","seqFeedback"],"classroomPairings":[["A","B"],["C","D"]],"coinWeights":[0.2,0.5,0.8],"subjectId":"A2JP9IKRHNLRPI","assignmentId":"3X0H8UUIT2A4NQ280OGN6T4XKZ3WSF","hitId":"363A7XIFV48LMLIF2CKYA8VQSVQAVR","url":"https://gershmanlab.com/experiments/alicia/teaching/experiment/?hitId=363A7XIFV48LMLIF2CKYA8VQSVQAVR&workerId=A2JP9IKRHNLRPI&assignmentId=3X0H8UUIT2A4NQ280OGN6T4XKZ3WSF&a=I80X9&tp_a=I80X9&b=3X0H8UUIT2A4NQ280OGN6T4XKZ3WSF&tp_b=3X0H8UUIT2A4NQ280OGN6T4XKZ3WSF&c=365799&tp_c=365799","heads":6,"tails":0,"studentIndex":18,"studentTrueHypers":{"a":2,"b":8},"studentGuess":0.5,"delta":0,"totalExamples":6,"bonus":0.44,"bonusSoFar":7.88},{"rt":8809,"response":{"heads":"1","tails":"4"},"type":"response","condition":"nonSeqPartial","trueTheta":0.2,"classrooms":["A","B"],"studentTrueClassroom":"A","exampleSet":"first","trial_type":"survey-html-form","trial_index":165,"time_elapsed":1007754,"internal_node_id":"0.0-156.0-0.0","params":{"nStudents":24,"maxFlips":30,"completionMinutes":45,"basePay":8,"maxBonus":9,"perTrialBonus":0.5,"perTrialBonusThreshold":0.05,"exampleCost":0.01},"classroomParams":{"A":{"a":1,"b":4},"B":{"a":4,"b":1},"C":{"a":2,"b":8},"D":{"a":8,"b":2}},"conditions":["nonSeqFull","nonSeqPartial","seqNoFeedback","seqFeedback"],"classroomPairings":[["A","B"],["C","D"]],"coinWeights":[0.2,0.5,0.8],"subjectId":"A2JP9IKRHNLRPI","assignmentId":"3X0H8UUIT2A4NQ280OGN6T4XKZ3WSF","hitId":"363A7XIFV48LMLIF2CKYA8VQSVQAVR","url":"https://gershmanlab.com/experiments/alicia/teaching/experiment/?hitId=363A7XIFV48LMLIF2CKYA8VQSVQAVR&workerId=A2JP9IKRHNLRPI&assignmentId=3X0H8UUIT2A4NQ280OGN6T4XKZ3WSF&a=I80X9&tp_a=I80X9&b=3X0H8UUIT2A4NQ280OGN6T4XKZ3WSF&tp_b=3X0H8UUIT2A4NQ280OGN6T4XKZ3WSF&c=365799&tp_c=365799","heads":1,"tails":4,"studentIndex":19,"studentTrueHypers":{"a":1,"b":4},"studentGuess":0.2,"delta":0,"totalExamples":5,"bonus":0.45,"bonusSoFar":8.33},{"rt":10761,"response":{"heads":"0","tails":"15"},"type":"response","condition":"nonSeqFull","trueTheta":0.2,"classrooms":["A","B"],"studentTrueClassroom":"B","exampleSet":"first","trial_type":"survey-html-form","trial_index":171,"time_elapsed":1032017,"internal_node_id":"0.0-162.0-0.0","params":{"nStudents":24,"maxFlips":30,"completionMinutes":45,"basePay":8,"maxBonus":9,"perTrialBonus":0.5,"perTrialBonusThreshold":0.05,"exampleCost":0.01},"classroomParams":{"A":{"a":1,"b":4},"B":{"a":4,"b":1},"C":{"a":2,"b":8},"D":{"a":8,"b":2}},"conditions":["nonSeqFull","nonSeqPartial","seqNoFeedback","seqFeedback"],"classroomPairings":[["A","B"],["C","D"]],"coinWeights":[0.2,0.5,0.8],"subjectId":"A2JP9IKRHNLRPI","assignmentId":"3X0H8UUIT2A4NQ280OGN6T4XKZ3WSF","hitId":"363A7XIFV48LMLIF2CKYA8VQSVQAVR","url":"https://gershmanlab.com/experiments/alicia/teaching/experiment/?hitId=363A7XIFV48LMLIF2CKYA8VQSVQAVR&workerId=A2JP9IKRHNLRPI&assignmentId=3X0H8UUIT2A4NQ280OGN6T4XKZ3WSF&a=I80X9&tp_a=I80X9&b=3X0H8UUIT2A4NQ280OGN6T4XKZ3WSF&tp_b=3X0H8UUIT2A4NQ280OGN6T4XKZ3WSF&c=365799&tp_c=365799","heads":0,"tails":15,"studentIndex":20,"studentTrueHypers":{"a":4,"b":1},"studentGuess":0.2,"delta":0,"totalExamples":15,"bonus":0.35,"bonusSoFar":8.68},{"rt":28774,"response":{"heads":"1","tails":"7"},"type":"response","condition":"nonSeqFull","trueTheta":0.2,"classrooms":["C","D"],"studentTrueClassroom":"C","exampleSet":"first","trial_type":"survey-html-form","trial_index":177,"time_elapsed":1077497,"internal_node_id":"0.0-168.0-0.0","params":{"nStudents":24,"maxFlips":30,"completionMinutes":45,"basePay":8,"maxBonus":9,"perTrialBonus":0.5,"perTrialBonusThreshold":0.05,"exampleCost":0.01},"classroomParams":{"A":{"a":1,"b":4},"B":{"a":4,"b":1},"C":{"a":2,"b":8},"D":{"a":8,"b":2}},"conditions":["nonSeqFull","nonSeqPartial","seqNoFeedback","seqFeedback"],"classroomPairings":[["A","B"],["C","D"]],"coinWeights":[0.2,0.5,0.8],"subjectId":"A2JP9IKRHNLRPI","assignmentId":"3X0H8UUIT2A4NQ280OGN6T4XKZ3WSF","hitId":"363A7XIFV48LMLIF2CKYA8VQSVQAVR","url":"https://gershmanlab.com/experiments/alicia/teaching/experiment/?hitId=363A7XIFV48LMLIF2CKYA8VQSVQAVR&workerId=A2JP9IKRHNLRPI&assignmentId=3X0H8UUIT2A4NQ280OGN6T4XKZ3WSF&a=I80X9&tp_a=I80X9&b=3X0H8UUIT2A4NQ280OGN6T4XKZ3WSF&tp_b=3X0H8UUIT2A4NQ280OGN6T4XKZ3WSF&c=365799&tp_c=365799","heads":1,"tails":7,"studentIndex":21,"studentTrueHypers":{"a":2,"b":8},"studentGuess":0.16666666666666666,"delta":0.033333333333333354,"totalExamples":8,"bonus":0.42,"bonusSoFar":9.1},{"rt":8683,"response":{"heads":"1","tails":"4"},"type":"response","condition":"seqNoFeedback","trueTheta":0.8,"classrooms":["C","D"],"studentTrueClassroom":"C","exampleSet":"first","trial_type":"survey-html-form","trial_index":183,"time_elapsed":1098276,"internal_node_id":"0.0-174.0-0.0","params":{"nStudents":24,"maxFlips":30,"completionMinutes":45,"basePay":8,"maxBonus":9,"perTrialBonus":0.5,"perTrialBonusThreshold":0.05,"exampleCost":0.01},"classroomParams":{"A":{"a":1,"b":4},"B":{"a":4,"b":1},"C":{"a":2,"b":8},"D":{"a":8,"b":2}},"conditions":["nonSeqFull","nonSeqPartial","seqNoFeedback","seqFeedback"],"classroomPairings":[["A","B"],["C","D"]],"coinWeights":[0.2,0.5,0.8],"subjectId":"A2JP9IKRHNLRPI","assignmentId":"3X0H8UUIT2A4NQ280OGN6T4XKZ3WSF","hitId":"363A7XIFV48LMLIF2CKYA8VQSVQAVR","url":"https://gershmanlab.com/experiments/alicia/teaching/experiment/?hitId=363A7XIFV48LMLIF2CKYA8VQSVQAVR&workerId=A2JP9IKRHNLRPI&assignmentId=3X0H8UUIT2A4NQ280OGN6T4XKZ3WSF&a=I80X9&tp_a=I80X9&b=3X0H8UUIT2A4NQ280OGN6T4XKZ3WSF&tp_b=3X0H8UUIT2A4NQ280OGN6T4XKZ3WSF&c=365799&tp_c=365799","heads":1,"tails":4,"studentIndex":22,"studentTrueHypers":{"a":2,"b":8},"studentGuess":0.2,"delta":0.6000000000000001,"totalExamples":5,"bonusSoFar":9.1},{"rt":6788,"response":{"heads":"4","tails":"1"},"type":"response","condition":"seqNoFeedback","trueTheta":0.8,"classrooms":["C","D"],"studentTrueClassroom":"C","exampleSet":"second","trial_type":"survey-html-form","trial_index":186,"time_elapsed":1112566,"internal_node_id":"0.0-177.0-0.0","params":{"nStudents":24,"maxFlips":30,"completionMinutes":45,"basePay":8,"maxBonus":9,"perTrialBonus":0.5,"perTrialBonusThreshold":0.05,"exampleCost":0.01},"classroomParams":{"A":{"a":1,"b":4},"B":{"a":4,"b":1},"C":{"a":2,"b":8},"D":{"a":8,"b":2}},"conditions":["nonSeqFull","nonSeqPartial","seqNoFeedback","seqFeedback"],"classroomPairings":[["A","B"],["C","D"]],"coinWeights":[0.2,0.5,0.8],"subjectId":"A2JP9IKRHNLRPI","assignmentId":"3X0H8UUIT2A4NQ280OGN6T4XKZ3WSF","hitId":"363A7XIFV48LMLIF2CKYA8VQSVQAVR","url":"https://gershmanlab.com/experiments/alicia/teaching/experiment/?hitId=363A7XIFV48LMLIF2CKYA8VQSVQAVR&workerId=A2JP9IKRHNLRPI&assignmentId=3X0H8UUIT2A4NQ280OGN6T4XKZ3WSF&a=I80X9&tp_a=I80X9&b=3X0H8UUIT2A4NQ280OGN6T4XKZ3WSF&tp_b=3X0H8UUIT2A4NQ280OGN6T4XKZ3WSF&c=365799&tp_c=365799","firstResponseHeads":1,"firstResponseTails":4,"secondResponseHeads":4,"secondResponseTails":1,"totalHeads":5,"totalTails":5,"studentIndex":22,"studentTrueHypers":{"a":2,"b":8},"studentGuess":0.35,"delta":0.45000000000000007,"bonus":0,"bonusSoFar":9.1,"totalExamples":10},{"rt":5791,"response":{"heads":"6","tails":"0"},"type":"response","condition":"seqNoFeedback","trueTheta":0.5,"classrooms":["C","D"],"studentTrueClassroom":"D","exampleSet":"first","trial_type":"survey-html-form","trial_index":192,"time_elapsed":1140279,"internal_node_id":"0.0-183.0-0.0","params":{"nStudents":24,"maxFlips":30,"completionMinutes":45,"basePay":8,"maxBonus":9,"perTrialBonus":0.5,"perTrialBonusThreshold":0.05,"exampleCost":0.01},"classroomParams":{"A":{"a":1,"b":4},"B":{"a":4,"b":1},"C":{"a":2,"b":8},"D":{"a":8,"b":2}},"conditions":["nonSeqFull","nonSeqPartial","seqNoFeedback","seqFeedback"],"classroomPairings":[["A","B"],["C","D"]],"coinWeights":[0.2,0.5,0.8],"subjectId":"A2JP9IKRHNLRPI","assignmentId":"3X0H8UUIT2A4NQ280OGN6T4XKZ3WSF","hitId":"363A7XIFV48LMLIF2CKYA8VQSVQAVR","url":"https://gershmanlab.com/experiments/alicia/teaching/experiment/?hitId=363A7XIFV48LMLIF2CKYA8VQSVQAVR&workerId=A2JP9IKRHNLRPI&assignmentId=3X0H8UUIT2A4NQ280OGN6T4XKZ3WSF&a=I80X9&tp_a=I80X9&b=3X0H8UUIT2A4NQ280OGN6T4XKZ3WSF&tp_b=3X0H8UUIT2A4NQ280OGN6T4XKZ3WSF&c=365799&tp_c=365799","heads":6,"tails":0,"studentIndex":23,"studentTrueHypers":{"a":8,"b":2},"studentGuess":0.875,"delta":0.375,"totalExamples":6,"bonusSoFar":9.1},{"rt":3977,"response":{"heads":"1","tails":"1"},"type":"response","condition":"seqNoFeedback","trueTheta":0.5,"classrooms":["C","D"],"studentTrueClassroom":"D","exampleSet":"second","trial_type":"survey-html-form","trial_index":195,"time_elapsed":1150771,"internal_node_id":"0.0-186.0-0.0","params":{"nStudents":24,"maxFlips":30,"completionMinutes":45,"basePay":8,"maxBonus":9,"perTrialBonus":0.5,"perTrialBonusThreshold":0.05,"exampleCost":0.01},"classroomParams":{"A":{"a":1,"b":4},"B":{"a":4,"b":1},"C":{"a":2,"b":8},"D":{"a":8,"b":2}},"conditions":["nonSeqFull","nonSeqPartial","seqNoFeedback","seqFeedback"],"classroomPairings":[["A","B"],["C","D"]],"coinWeights":[0.2,0.5,0.8],"subjectId":"A2JP9IKRHNLRPI","assignmentId":"3X0H8UUIT2A4NQ280OGN6T4XKZ3WSF","hitId":"363A7XIFV48LMLIF2CKYA8VQSVQAVR","url":"https://gershmanlab.com/experiments/alicia/teaching/experiment/?hitId=363A7XIFV48LMLIF2CKYA8VQSVQAVR&workerId=A2JP9IKRHNLRPI&assignmentId=3X0H8UUIT2A4NQ280OGN6T4XKZ3WSF&a=I80X9&tp_a=I80X9&b=3X0H8UUIT2A4NQ280OGN6T4XKZ3WSF&tp_b=3X0H8UUIT2A4NQ280OGN6T4XKZ3WSF&c=365799&tp_c=365799","firstResponseHeads":6,"firstResponseTails":0,"secondResponseHeads":1,"secondResponseTails":1,"totalHeads":7,"totalTails":1,"studentIndex":23,"studentTrueHypers":{"a":8,"b":2},"studentGuess":0.8333333333333334,"delta":0.33333333333333337,"bonus":0,"bonusSoFar":9.1,"totalExamples":8},{"rt":5253,"response":{"gender":"male","age":"27","understood":"yes","comments":""},"type":"response","trial_type":"survey-html-form","trial_index":199,"time_elapsed":1165300,"internal_node_id":"0.0-191.0","params":{"nStudents":24,"maxFlips":30,"completionMinutes":45,"basePay":8,"maxBonus":9,"perTrialBonus":0.5,"perTrialBonusThreshold":0.05,"exampleCost":0.01},"classroomParams":{"A":{"a":1,"b":4},"B":{"a":4,"b":1},"C":{"a":2,"b":8},"D":{"a":8,"b":2}},"conditions":["nonSeqFull","nonSeqPartial","seqNoFeedback","seqFeedback"],"classroomPairings":[["A","B"],["C","D"]],"coinWeights":[0.2,0.5,0.8],"subjectId":"A2JP9IKRHNLRPI","assignmentId":"3X0H8UUIT2A4NQ280OGN6T4XKZ3WSF","hitId":"363A7XIFV48LMLIF2CKYA8VQSVQAVR","url":"https://gershmanlab.com/experiments/alicia/teaching/experiment/?hitId=363A7XIFV48LMLIF2CKYA8VQSVQAVR&workerId=A2JP9IKRHNLRPI&assignmentId=3X0H8UUIT2A4NQ280OGN6T4XKZ3WSF&a=I80X9&tp_a=I80X9&b=3X0H8UUIT2A4NQ280OGN6T4XKZ3WSF&tp_b=3X0H8UUIT2A4NQ280OGN6T4XKZ3WSF&c=365799&tp_c=365799","totalBonus":9.1}]