[{"rt":27913,"response":{"heads":"5","tails":"0"},"type":"response","condition":"seqFeedback","trueTheta":0.8,"classrooms":["A","B"],"studentTrueClassroom":"A","exampleSet":"first","trial_type":"survey-html-form","trial_index":37,"time_elapsed":691726,"internal_node_id":"0.0-6.0-0.0","params":{"nStudents":24,"maxFlips":30,"completionMinutes":45,"basePay":8,"maxBonus":9,"perTrialBonus":0.5,"perTrialBonusThreshold":0.05,"exampleCost":0.01},"classroomParams":{"A":{"a":1,"b":4},"B":{"a":4,"b":1},"C":{"a":2,"b":8},"D":{"a":8,"b":2}},"conditions":["nonSeqFull","nonSeqPartial","seqNoFeedback","seqFeedback"],"classroomPairings":[["A","B"],["C","D"]],"coinWeights":[0.2,0.5,0.8],"subjectId":"A2KHMKJUVDMK1N","assignmentId":"3W92K5RLWV3Q2Z4SYIYJRGBRZ6SV51","hitId":"3JGHED38EDDK7DFM0KVY7GXU94LY7W","url":"https://gershmanlab.com/experiments/alicia/teaching/experiment/?hitId=3JGHED38EDDK7DFM0KVY7GXU94LY7W&workerId=A2KHMKJUVDMK1N&assignmentId=3W92K5RLWV3Q2Z4SYIYJRGBRZ6SV51&a=LK9W9&tp_a=LK9W9&b=3W92K5RLWV3Q2Z4SYIYJRGBRZ6SV51&tp_b=3W92K5RLWV3Q2Z4SYIYJRGBRZ6SV51&c=365799&tp_c=365799","heads":5,"tails":0,"studentIndex":0,"studentTrueHypers":{"a":1,"b":4},"studentGuess":0.6,"delta":0.20000000000000007,"totalExamples":5,"bonusSoFar":0},{"rt":8839,"response":{"heads":"4","tails":"0"},"type":"response","condition":"seqFeedback","trueTheta":0.8,"classrooms":["A","B"],"studentTrueClassroom":"A","exampleSet":"second","trial_type":"survey-html-form","trial_index":41,"time_elapsed":711393,"internal_node_id":"0.0-10.0-0.0","params":{"nStudents":24,"maxFlips":30,"completionMinutes":45,"basePay":8,"maxBonus":9,"perTrialBonus":0.5,"perTrialBonusThreshold":0.05,"exampleCost":0.01},"classroomParams":{"A":{"a":1,"b":4},"B":{"a":4,"b":1},"C":{"a":2,"b":8},"D":{"a":8,"b":2}},"conditions":["nonSeqFull","nonSeqPartial","seqNoFeedback","seqFeedback"],"classroomPairings":[["A","B"],["C","D"]],"coinWeights":[0.2,0.5,0.8],"subjectId":"A2KHMKJUVDMK1N","assignmentId":"3W92K5RLWV3Q2Z4SYIYJRGBRZ6SV51","hitId":"3JGHED38EDDK7DFM0KVY7GXU94LY7W","url":"https://gershmanlab.com/experiments/alicia/teaching/experiment/?hitId=3JGHED38EDDK7DFM0KVY7GXU94LY7W&workerId=A2KHMKJUVDMK1N&assignmentId=3W92K5RLWV3Q2Z4SYIYJRGBRZ6SV51&a=LK9W9&tp_a=LK9W9&b=3W92K5RLWV3Q2Z4SYIYJRGBRZ6SV51&tp_b=3W92K5RLWV3Q2Z4SYIYJRGBRZ6SV51&c=365799&tp_c=365799","firstResponseHeads":5,"firstResponseTails":0,"secondResponseHeads":4,"secondResponseTails":0,"totalHeads":9,"totalTails":0,"studentIndex":0,"studentTrueHypers":{"a":1,"b":4},"studentGuess":0.7142857142857143,"delta":0.08571428571428574,"bonus":0,"bonusSoFar":0,"totalExamples":9},{"rt":8176,"response":{"heads":"5","tails":"0"},"type":"response","condition":"seqNoFeedback","trueTheta":0.8,"classrooms":["A","B"],"studentTrueClassroom":"B","exampleSet":"first","trial_type":"survey-html-form","trial_index":47,"time_elapsed":734748,"internal_node_id":"0.0-16.0-0.0","params":{"nStudents":24,"maxFlips":30,"completionMinutes":45,"basePay":8,"maxBonus":9,"perTrialBonus":0.5,"perTrialBonusThreshold":0.05,"exampleCost":0.01},"classroomParams":{"A":{"a":1,"b":4},"B":{"a":4,"b":1},"C":{"a":2,"b":8},"D":{"a":8,"b":2}},"conditions":["nonSeqFull","nonSeqPartial","seqNoFeedback","seqFeedback"],"classroomPairings":[["A","B"],["C","D"]],"coinWeights":[0.2,0.5,0.8],"subjectId":"A2KHMKJUVDMK1N","assignmentId":"3W92K5RLWV3Q2Z4SYIYJRGBRZ6SV51","hitId":"3JGHED38EDDK7DFM0KVY7GXU94LY7W","url":"https://gershmanlab.com/experiments/alicia/teaching/experiment/?hitId=3JGHED38EDDK7DFM0KVY7GXU94LY7W&workerId=A2KHMKJUVDMK1N&assignmentId=3W92K5RLWV3Q2Z4SYIYJRGBRZ6SV51&a=LK9W9&tp_a=LK9W9&b=3W92K5RLWV3Q2Z4SYIYJRGBRZ6SV51&tp_b=3W92K5RLWV3Q2Z4SYIYJRGBRZ6SV51&c=365799&tp_c=365799","heads":5,"tails":0,"studentIndex":1,"studentTrueHypers":{"a":4,"b":1},"studentGuess":0.9,"delta":0.09999999999999998,"totalExamples":5,"bonusSoFar":0},{"rt":10160,"response":{"heads":"5","tails":"1"},"type":"response","condition":"seqNoFeedback","trueTheta":0.8,"classrooms":["A","B"],"studentTrueClassroom":"B","exampleSet":"second","trial_type":"survey-html-form","trial_index":50,"time_elapsed":752168,"internal_node_id":"0.0-19.0-0.0","params":{"nStudents":24,"maxFlips":30,"completionMinutes":45,"basePay":8,"maxBonus":9,"perTrialBonus":0.5,"perTrialBonusThreshold":0.05,"exampleCost":0.01},"classroomParams":{"A":{"a":1,"b":4},"B":{"a":4,"b":1},"C":{"a":2,"b":8},"D":{"a":8,"b":2}},"conditions":["nonSeqFull","nonSeqPartial","seqNoFeedback","seqFeedback"],"classroomPairings":[["A","B"],["C","D"]],"coinWeights":[0.2,0.5,0.8],"subjectId":"A2KHMKJUVDMK1N","assignmentId":"3W92K5RLWV3Q2Z4SYIYJRGBRZ6SV51","hitId":"3JGHED38EDDK7DFM0KVY7GXU94LY7W","url":"https://gershmanlab.com/experiments/alicia/teaching/experiment/?hitId=3JGHED38EDDK7DFM0KVY7GXU94LY7W&workerId=A2KHMKJUVDMK1N&assignmentId=3W92K5RLWV3Q2Z4SYIYJRGBRZ6SV51&a=LK9W9&tp_a=LK9W9&b=3W92K5RLWV3Q2Z4SYIYJRGBRZ6SV51&tp_b=3W92K5RLWV3Q2Z4SYIYJRGBRZ6SV51&c=365799&tp_c=365799","firstResponseHeads":5,"firstResponseTails":0,"secondResponseHeads":5,"secondResponseTails":1,"totalHeads":10,"totalTails":1,"studentIndex":1,"studentTrueHypers":{"a":4,"b":1},"studentGuess":0.875,"delta":0.07499999999999996,"bonus":0,"bonusSoFar":0,"totalExamples":11},{"rt":3668,"response":{"heads":"5","tails":"5"},"type":"response","condition":"nonSeqFull","trueTheta":0.5,"classrooms":["C","D"],"studentTrueClassroom":"C","exampleSet":"first","trial_type":"survey-html-form","trial_index":56,"time_elapsed":774029,"internal_node_id":"0.0-25.0-0.0","params":{"nStudents":24,"maxFlips":30,"completionMinutes":45,"basePay":8,"maxBonus":9,"perTrialBonus":0.5,"perTrialBonusThreshold":0.05,"exampleCost":0.01},"classroomParams":{"A":{"a":1,"b":4},"B":{"a":4,"b":1},"C":{"a":2,"b":8},"D":{"a":8,"b":2}},"conditions":["nonSeqFull","nonSeqPartial","seqNoFeedback","seqFeedback"],"classroomPairings":[["A","B"],["C","D"]],"coinWeights":[0.2,0.5,0.8],"subjectId":"A2KHMKJUVDMK1N","assignmentId":"3W92K5RLWV3Q2Z4SYIYJRGBRZ6SV51","hitId":"3JGHED38EDDK7DFM0KVY7GXU94LY7W","url":"https://gershmanlab.com/experiments/alicia/teaching/experiment/?hitId=3JGHED38EDDK7DFM0KVY7GXU94LY7W&workerId=A2KHMKJUVDMK1N&assignmentId=3W92K5RLWV3Q2Z4SYIYJRGBRZ6SV51&a=LK9W9&tp_a=LK9W9&b=3W92K5RLWV3Q2Z4SYIYJRGBRZ6SV51&tp_b=3W92K5RLWV3Q2Z4SYIYJRGBRZ6SV51&c=365799&tp_c=365799","heads":5,"tails":5,"studentIndex":2,"studentTrueHypers":{"a":2,"b":8},"studentGuess":0.35,"delta":0.15000000000000002,"totalExamples":10,"bonus":0,"bonusSoFar":0},{"rt":6032,"response":{"heads":"8","tails":"2"},"type":"response","condition":"nonSeqPartial","trueTheta":0.8,"classrooms":["A","B"],"studentTrueClassroom":"B","exampleSet":"first","trial_type":"survey-html-form","trial_index":62,"time_elapsed":794432,"internal_node_id":"0.0-31.0-0.0","params":{"nStudents":24,"maxFlips":30,"completionMinutes":45,"basePay":8,"maxBonus":9,"perTrialBonus":0.5,"perTrialBonusThreshold":0.05,"exampleCost":0.01},"classroomParams":{"A":{"a":1,"b":4},"B":{"a":4,"b":1},"C":{"a":2,"b":8},"D":{"a":8,"b":2}},"conditions":["nonSeqFull","nonSeqPartial","seqNoFeedback","seqFeedback"],"classroomPairings":[["A","B"],["C","D"]],"coinWeights":[0.2,0.5,0.8],"subjectId":"A2KHMKJUVDMK1N","assignmentId":"3W92K5RLWV3Q2Z4SYIYJRGBRZ6SV51","hitId":"3JGHED38EDDK7DFM0KVY7GXU94LY7W","url":"https://gershmanlab.com/experiments/alicia/teaching/experiment/?hitId=3JGHED38EDDK7DFM0KVY7GXU94LY7W&workerId=A2KHMKJUVDMK1N&assignmentId=3W92K5RLWV3Q2Z4SYIYJRGBRZ6SV51&a=LK9W9&tp_a=LK9W9&b=3W92K5RLWV3Q2Z4SYIYJRGBRZ6SV51&tp_b=3W92K5RLWV3Q2Z4SYIYJRGBRZ6SV51&c=365799&tp_c=365799","heads":8,"tails":2,"studentIndex":3,"studentTrueHypers":{"a":4,"b":1},"studentGuess":0.8,"delta":0,"totalExamples":10,"bonus":0.4,"bonusSoFar":0.4},{"rt":4026,"response":{"heads":"5","tails":"5"},"type":"response","condition":"seqFeedback","trueTheta":0.5,"classrooms":["A","B"],"studentTrueClassroom":"B","exampleSet":"first","trial_type":"survey-html-form","trial_index":68,"time_elapsed":814239,"internal_node_id":"0.0-37.0-0.0","params":{"nStudents":24,"maxFlips":30,"completionMinutes":45,"basePay":8,"maxBonus":9,"perTrialBonus":0.5,"perTrialBonusThreshold":0.05,"exampleCost":0.01},"classroomParams":{"A":{"a":1,"b":4},"B":{"a":4,"b":1},"C":{"a":2,"b":8},"D":{"a":8,"b":2}},"conditions":["nonSeqFull","nonSeqPartial","seqNoFeedback","seqFeedback"],"classroomPairings":[["A","B"],["C","D"]],"coinWeights":[0.2,0.5,0.8],"subjectId":"A2KHMKJUVDMK1N","assignmentId":"3W92K5RLWV3Q2Z4SYIYJRGBRZ6SV51","hitId":"3JGHED38EDDK7DFM0KVY7GXU94LY7W","url":"https://gershmanlab.com/experiments/alicia/teaching/experiment/?hitId=3JGHED38EDDK7DFM0KVY7GXU94LY7W&workerId=A2KHMKJUVDMK1N&assignmentId=3W92K5RLWV3Q2Z4SYIYJRGBRZ6SV51&a=LK9W9&tp_a=LK9W9&b=3W92K5RLWV3Q2Z4SYIYJRGBRZ6SV51&tp_b=3W92K5RLWV3Q2Z4SYIYJRGBRZ6SV51&c=365799&tp_c=365799","heads":5,"tails":5,"studentIndex":4,"studentTrueHypers":{"a":4,"b":1},"studentGuess":0.6,"delta":0.09999999999999998,"totalExamples":10,"bonusSoFar":0.4},{"rt":3953,"response":{"heads":"5","tails":"5"},"type":"response","condition":"seqFeedback","trueTheta":0.5,"classrooms":["A","B"],"studentTrueClassroom":"B","exampleSet":"second","trial_type":"survey-html-form","trial_index":72,"time_elapsed":827682,"internal_node_id":"0.0-41.0-0.0","params":{"nStudents":24,"maxFlips":30,"completionMinutes":45,"basePay":8,"maxBonus":9,"perTrialBonus":0.5,"perTrialBonusThreshold":0.05,"exampleCost":0.01},"classroomParams":{"A":{"a":1,"b":4},"B":{"a":4,"b":1},"C":{"a":2,"b":8},"D":{"a":8,"b":2}},"conditions":["nonSeqFull","nonSeqPartial","seqNoFeedback","seqFeedback"],"classroomPairings":[["A","B"],["C","D"]],"coinWeights":[0.2,0.5,0.8],"subjectId":"A2KHMKJUVDMK1N","assignmentId":"3W92K5RLWV3Q2Z4SYIYJRGBRZ6SV51","hitId":"3JGHED38EDDK7DFM0KVY7GXU94LY7W","url":"https://gershmanlab.com/experiments/alicia/teaching/experiment/?hitId=3JGHED38EDDK7DFM0KVY7GXU94LY7W&workerId=A2KHMKJUVDMK1N&assignmentId=3W92K5RLWV3Q2Z4SYIYJRGBRZ6SV51&a=LK9W9&tp_a=LK9W9&b=3W92K5RLWV3Q2Z4SYIYJRGBRZ6SV51&tp_b=3W92K5RLWV3Q2Z4SYIYJRGBRZ6SV51&c=365799&tp_c=365799","firstResponseHeads":5,"firstResponseTails":5,"secondResponseHeads":5,"secondResponseTails":5,"totalHeads":10,"totalTails":10,"studentIndex":4,"studentTrueHypers":{"a":4,"b":1},"studentGuess":0.56,"delta":0.06000000000000005,"bonus":0,"bonusSoFar":0.4,"totalExamples":20},{"rt":5807,"response":{"heads":"2","tails":"8"},"type":"response","condition":"seqFeedback","trueTheta":0.2,"classrooms":["A","B"],"studentTrueClassroom":"A","exampleSet":"first","trial_type":"survey-html-form","trial_index":78,"time_elapsed":848066,"internal_node_id":"0.0-47.0-0.0","params":{"nStudents":24,"maxFlips":30,"completionMinutes":45,"basePay":8,"maxBonus":9,"perTrialBonus":0.5,"perTrialBonusThreshold":0.05,"exampleCost":0.01},"classroomParams":{"A":{"a":1,"b":4},"B":{"a":4,"b":1},"C":{"a":2,"b":8},"D":{"a":8,"b":2}},"conditions":["nonSeqFull","nonSeqPartial","seqNoFeedback","seqFeedback"],"classroomPairings":[["A","B"],["C","D"]],"coinWeights":[0.2,0.5,0.8],"subjectId":"A2KHMKJUVDMK1N","assignmentId":"3W92K5RLWV3Q2Z4SYIYJRGBRZ6SV51","hitId":"3JGHED38EDDK7DFM0KVY7GXU94LY7W","url":"https://gershmanlab.com/experiments/alicia/teaching/experiment/?hitId=3JGHED38EDDK7DFM0KVY7GXU94LY7W&workerId=A2KHMKJUVDMK1N&assignmentId=3W92K5RLWV3Q2Z4SYIYJRGBRZ6SV51&a=LK9W9&tp_a=LK9W9&b=3W92K5RLWV3Q2Z4SYIYJRGBRZ6SV51&tp_b=3W92K5RLWV3Q2Z4SYIYJRGBRZ6SV51&c=365799&tp_c=365799","heads":2,"tails":8,"studentIndex":5,"studentTrueHypers":{"a":1,"b":4},"studentGuess":0.2,"delta":0,"totalExamples":10,"bonusSoFar":0.4},{"rt":4942,"response":{"heads":"2","tails":"8"},"type":"response","condition":"seqFeedback","trueTheta":0.2,"classrooms":["A","B"],"studentTrueClassroom":"A","exampleSet":"second","trial_type":"survey-html-form","trial_index":82,"time_elapsed":869599,"internal_node_id":"0.0-51.0-0.0","params":{"nStudents":24,"maxFlips":30,"completionMinutes":45,"basePay":8,"maxBonus":9,"perTrialBonus":0.5,"perTrialBonusThreshold":0.05,"exampleCost":0.01},"classroomParams":{"A":{"a":1,"b":4},"B":{"a":4,"b":1},"C":{"a":2,"b":8},"D":{"a":8,"b":2}},"conditions":["nonSeqFull","nonSeqPartial","seqNoFeedback","seqFeedback"],"classroomPairings":[["A","B"],["C","D"]],"coinWeights":[0.2,0.5,0.8],"subjectId":"A2KHMKJUVDMK1N","assignmentId":"3W92K5RLWV3Q2Z4SYIYJRGBRZ6SV51","hitId":"3JGHED38EDDK7DFM0KVY7GXU94LY7W","url":"https://gershmanlab.com/experiments/alicia/teaching/experiment/?hitId=3JGHED38EDDK7DFM0KVY7GXU94LY7W&workerId=A2KHMKJUVDMK1N&assignmentId=3W92K5RLWV3Q2Z4SYIYJRGBRZ6SV51&a=LK9W9&tp_a=LK9W9&b=3W92K5RLWV3Q2Z4SYIYJRGBRZ6SV51&tp_b=3W92K5RLWV3Q2Z4SYIYJRGBRZ6SV51&c=365799&tp_c=365799","firstResponseHeads":2,"firstResponseTails":8,"secondResponseHeads":2,"secondResponseTails":8,"totalHeads":4,"totalTails":16,"studentIndex":5,"studentTrueHypers":{"a":1,"b":4},"studentGuess":0.2,"delta":0,"bonus":0.3,"bonusSoFar":0.7,"totalExamples":20},{"rt":6869,"response":{"heads":"5","tails":"5"},"type":"response","condition":"seqFeedback","trueTheta":0.5,"classrooms":["C","D"],"studentTrueClassroom":"D","exampleSet":"first","trial_type":"survey-html-form","trial_index":88,"time_elapsed":890686,"internal_node_id":"0.0-57.0-0.0","params":{"nStudents":24,"maxFlips":30,"completionMinutes":45,"basePay":8,"maxBonus":9,"perTrialBonus":0.5,"perTrialBonusThreshold":0.05,"exampleCost":0.01},"classroomParams":{"A":{"a":1,"b":4},"B":{"a":4,"b":1},"C":{"a":2,"b":8},"D":{"a":8,"b":2}},"conditions":["nonSeqFull","nonSeqPartial","seqNoFeedback","seqFeedback"],"classroomPairings":[["A","B"],["C","D"]],"coinWeights":[0.2,0.5,0.8],"subjectId":"A2KHMKJUVDMK1N","assignmentId":"3W92K5RLWV3Q2Z4SYIYJRGBRZ6SV51","hitId":"3JGHED38EDDK7DFM0KVY7GXU94LY7W","url":"https://gershmanlab.com/experiments/alicia/teaching/experiment/?hitId=3JGHED38EDDK7DFM0KVY7GXU94LY7W&workerId=A2KHMKJUVDMK1N&assignmentId=3W92K5RLWV3Q2Z4SYIYJRGBRZ6SV51&a=LK9W9&tp_a=LK9W9&b=3W92K5RLWV3Q2Z4SYIYJRGBRZ6SV51&tp_b=3W92K5RLWV3Q2Z4SYIYJRGBRZ6SV51&c=365799&tp_c=365799","heads":5,"tails":5,"studentIndex":6,"studentTrueHypers":{"a":8,"b":2},"studentGuess":0.65,"delta":0.15000000000000002,"totalExamples":10,"bonusSoFar":0.7},{"rt":2128,"response":{"heads":"0","tails":"0"},"type":"response","condition":"seqFeedback","trueTheta":0.5,"classrooms":["C","D"],"studentTrueClassroom":"D","exampleSet":"second","trial_type":"survey-html-form","trial_index":92,"time_elapsed":900210,"internal_node_id":"0.0-61.0-0.0","params":{"nStudents":24,"maxFlips":30,"completionMinutes":45,"basePay":8,"maxBonus":9,"perTrialBonus":0.5,"perTrialBonusThreshold":0.05,"exampleCost":0.01},"classroomParams":{"A":{"a":1,"b":4},"B":{"a":4,"b":1},"C":{"a":2,"b":8},"D":{"a":8,"b":2}},"conditions":["nonSeqFull","nonSeqPartial","seqNoFeedback","seqFeedback"],"classroomPairings":[["A","B"],["C","D"]],"coinWeights":[0.2,0.5,0.8],"subjectId":"A2KHMKJUVDMK1N","assignmentId":"3W92K5RLWV3Q2Z4SYIYJRGBRZ6SV51","hitId":"3JGHED38EDDK7DFM0KVY7GXU94LY7W","url":"https://gershmanlab.com/experiments/alicia/teaching/experiment/?hitId=3JGHED38EDDK7DFM0KVY7GXU94LY7W&workerId=A2KHMKJUVDMK1N&assignmentId=3W92K5RLWV3Q2Z4SYIYJRGBRZ6SV51&a=LK9W9&tp_a=LK9W9&b=3W92K5RLWV3Q2Z4SYIYJRGBRZ6SV51&tp_b=3W92K5RLWV3Q2Z4SYIYJRGBRZ6SV51&c=365799&tp_c=365799","firstResponseHeads":5,"firstResponseTails":5,"secondResponseHeads":0,"secondResponseTails":0,"totalHeads":5,"totalTails":5,"studentIndex":6,"studentTrueHypers":{"a":8,"b":2},"studentGuess":0.65,"delta":0.15000000000000002,"bonus":0,"bonusSoFar":0.7,"totalExamples":10},{"rt":4193,"response":{"heads":"10","tails":"10"},"type":"response","condition":"seqFeedback","trueTheta":0.5,"classrooms":["C","D"],"studentTrueClassroom":"D","exampleSet":"second","trial_type":"survey-html-form","trial_index":93,"time_elapsed":904404,"internal_node_id":"0.0-61.1-0.1","params":{"nStudents":24,"maxFlips":30,"completionMinutes":45,"basePay":8,"maxBonus":9,"perTrialBonus":0.5,"perTrialBonusThreshold":0.05,"exampleCost":0.01},"classroomParams":{"A":{"a":1,"b":4},"B":{"a":4,"b":1},"C":{"a":2,"b":8},"D":{"a":8,"b":2}},"conditions":["nonSeqFull","nonSeqPartial","seqNoFeedback","seqFeedback"],"classroomPairings":[["A","B"],["C","D"]],"coinWeights":[0.2,0.5,0.8],"subjectId":"A2KHMKJUVDMK1N","assignmentId":"3W92K5RLWV3Q2Z4SYIYJRGBRZ6SV51","hitId":"3JGHED38EDDK7DFM0KVY7GXU94LY7W","url":"https://gershmanlab.com/experiments/alicia/teaching/experiment/?hitId=3JGHED38EDDK7DFM0KVY7GXU94LY7W&workerId=A2KHMKJUVDMK1N&assignmentId=3W92K5RLWV3Q2Z4SYIYJRGBRZ6SV51&a=LK9W9&tp_a=LK9W9&b=3W92K5RLWV3Q2Z4SYIYJRGBRZ6SV51&tp_b=3W92K5RLWV3Q2Z4SYIYJRGBRZ6SV51&c=365799&tp_c=365799","firstResponseHeads":5,"firstResponseTails":5,"secondResponseHeads":10,"secondResponseTails":10,"totalHeads":15,"totalTails":15,"studentIndex":6,"studentTrueHypers":{"a":8,"b":2},"studentGuess":0.575,"delta":0.07499999999999996,"bonus":0,"bonusSoFar":0.7,"totalExamples":30},{"rt":8483,"response":{"heads":"5","tails":"5"},"type":"response","condition":"seqNoFeedback","trueTheta":0.5,"classrooms":["C","D"],"studentTrueClassroom":"C","exampleSet":"first","trial_type":"survey-html-form","trial_index":99,"time_elapsed":925651,"internal_node_id":"0.0-67.0-0.0","params":{"nStudents":24,"maxFlips":30,"completionMinutes":45,"basePay":8,"maxBonus":9,"perTrialBonus":0.5,"perTrialBonusThreshold":0.05,"exampleCost":0.01},"classroomParams":{"A":{"a":1,"b":4},"B":{"a":4,"b":1},"C":{"a":2,"b":8},"D":{"a":8,"b":2}},"conditions":["nonSeqFull","nonSeqPartial","seqNoFeedback","seqFeedback"],"classroomPairings":[["A","B"],["C","D"]],"coinWeights":[0.2,0.5,0.8],"subjectId":"A2KHMKJUVDMK1N","assignmentId":"3W92K5RLWV3Q2Z4SYIYJRGBRZ6SV51","hitId":"3JGHED38EDDK7DFM0KVY7GXU94LY7W","url":"https://gershmanlab.com/experiments/alicia/teaching/experiment/?hitId=3JGHED38EDDK7DFM0KVY7GXU94LY7W&workerId=A2KHMKJUVDMK1N&assignmentId=3W92K5RLWV3Q2Z4SYIYJRGBRZ6SV51&a=LK9W9&tp_a=LK9W9&b=3W92K5RLWV3Q2Z4SYIYJRGBRZ6SV51&tp_b=3W92K5RLWV3Q2Z4SYIYJRGBRZ6SV51&c=365799&tp_c=365799","heads":5,"tails":5,"studentIndex":7,"studentTrueHypers":{"a":2,"b":8},"studentGuess":0.35,"delta":0.15000000000000002,"totalExamples":10,"bonusSoFar":0.7},{"rt":3947,"response":{"heads":"5","tails":"5"},"type":"response","condition":"seqNoFeedback","trueTheta":0.5,"classrooms":["C","D"],"studentTrueClassroom":"C","exampleSet":"second","trial_type":"survey-html-form","trial_index":102,"time_elapsed":937116,"internal_node_id":"0.0-70.0-0.0","params":{"nStudents":24,"maxFlips":30,"completionMinutes":45,"basePay":8,"maxBonus":9,"perTrialBonus":0.5,"perTrialBonusThreshold":0.05,"exampleCost":0.01},"classroomParams":{"A":{"a":1,"b":4},"B":{"a":4,"b":1},"C":{"a":2,"b":8},"D":{"a":8,"b":2}},"conditions":["nonSeqFull","nonSeqPartial","seqNoFeedback","seqFeedback"],"classroomPairings":[["A","B"],["C","D"]],"coinWeights":[0.2,0.5,0.8],"subjectId":"A2KHMKJUVDMK1N","assignmentId":"3W92K5RLWV3Q2Z4SYIYJRGBRZ6SV51","hitId":"3JGHED38EDDK7DFM0KVY7GXU94LY7W","url":"https://gershmanlab.com/experiments/alicia/teaching/experiment/?hitId=3JGHED38EDDK7DFM0KVY7GXU94LY7W&workerId=A2KHMKJUVDMK1N&assignmentId=3W92K5RLWV3Q2Z4SYIYJRGBRZ6SV51&a=LK9W9&tp_a=LK9W9&b=3W92K5RLWV3Q2Z4SYIYJRGBRZ6SV51&tp_b=3W92K5RLWV3Q2Z4SYIYJRGBRZ6SV51&c=365799&tp_c=365799","firstResponseHeads":5,"firstResponseTails":5,"secondResponseHeads":5,"secondResponseTails":5,"totalHeads":10,"totalTails":10,"studentIndex":7,"studentTrueHypers":{"a":2,"b":8},"studentGuess":0.4,"delta":0.09999999999999998,"bonus":0,"bonusSoFar":0.7,"totalExamples":20},{"rt":4818,"response":{"heads":"2","tails":"8"},"type":"response","condition":"seqNoFeedback","trueTheta":0.2,"classrooms":["A","B"],"studentTrueClassroom":"A","exampleSet":"first","trial_type":"survey-html-form","trial_index":108,"time_elapsed":954131,"internal_node_id":"0.0-76.0-0.0","params":{"nStudents":24,"maxFlips":30,"completionMinutes":45,"basePay":8,"maxBonus":9,"perTrialBonus":0.5,"perTrialBonusThreshold":0.05,"exampleCost":0.01},"classroomParams":{"A":{"a":1,"b":4},"B":{"a":4,"b":1},"C":{"a":2,"b":8},"D":{"a":8,"b":2}},"conditions":["nonSeqFull","nonSeqPartial","seqNoFeedback","seqFeedback"],"classroomPairings":[["A","B"],["C","D"]],"coinWeights":[0.2,0.5,0.8],"subjectId":"A2KHMKJUVDMK1N","assignmentId":"3W92K5RLWV3Q2Z4SYIYJRGBRZ6SV51","hitId":"3JGHED38EDDK7DFM0KVY7GXU94LY7W","url":"https://gershmanlab.com/experiments/alicia/teaching/experiment/?hitId=3JGHED38EDDK7DFM0KVY7GXU94LY7W&workerId=A2KHMKJUVDMK1N&assignmentId=3W92K5RLWV3Q2Z4SYIYJRGBRZ6SV51&a=LK9W9&tp_a=LK9W9&b=3W92K5RLWV3Q2Z4SYIYJRGBRZ6SV51&tp_b=3W92K5RLWV3Q2Z4SYIYJRGBRZ6SV51&c=365799&tp_c=365799","heads":2,"tails":8,"studentIndex":8,"studentTrueHypers":{"a":1,"b":4},"studentGuess":0.2,"delta":0,"totalExamples":10,"bonusSoFar":0.7},{"rt":3178,"response":{"heads":"2","tails":"8"},"type":"response","condition":"seqNoFeedback","trueTheta":0.2,"classrooms":["A","B"],"studentTrueClassroom":"A","exampleSet":"second","trial_type":"survey-html-form","trial_index":111,"time_elapsed":963573,"internal_node_id":"0.0-79.0-0.0","params":{"nStudents":24,"maxFlips":30,"completionMinutes":45,"basePay":8,"maxBonus":9,"perTrialBonus":0.5,"perTrialBonusThreshold":0.05,"exampleCost":0.01},"classroomParams":{"A":{"a":1,"b":4},"B":{"a":4,"b":1},"C":{"a":2,"b":8},"D":{"a":8,"b":2}},"conditions":["nonSeqFull","nonSeqPartial","seqNoFeedback","seqFeedback"],"classroomPairings":[["A","B"],["C","D"]],"coinWeights":[0.2,0.5,0.8],"subjectId":"A2KHMKJUVDMK1N","assignmentId":"3W92K5RLWV3Q2Z4SYIYJRGBRZ6SV51","hitId":"3JGHED38EDDK7DFM0KVY7GXU94LY7W","url":"https://gershmanlab.com/experiments/alicia/teaching/experiment/?hitId=3JGHED38EDDK7DFM0KVY7GXU94LY7W&workerId=A2KHMKJUVDMK1N&assignmentId=3W92K5RLWV3Q2Z4SYIYJRGBRZ6SV51&a=LK9W9&tp_a=LK9W9&b=3W92K5RLWV3Q2Z4SYIYJRGBRZ6SV51&tp_b=3W92K5RLWV3Q2Z4SYIYJRGBRZ6SV51&c=365799&tp_c=365799","firstResponseHeads":2,"firstResponseTails":8,"secondResponseHeads":2,"secondResponseTails":8,"totalHeads":4,"totalTails":16,"studentIndex":8,"studentTrueHypers":{"a":1,"b":4},"studentGuess":0.2,"delta":0,"bonus":0.3,"bonusSoFar":1,"totalExamples":20},{"rt":3133,"response":{"heads":"8","tails":"2"},"type":"response","condition":"seqNoFeedback","trueTheta":0.8,"classrooms":["C","D"],"studentTrueClassroom":"C","exampleSet":"first","trial_type":"survey-html-form","trial_index":117,"time_elapsed":985228,"internal_node_id":"0.0-85.0-0.0","params":{"nStudents":24,"maxFlips":30,"completionMinutes":45,"basePay":8,"maxBonus":9,"perTrialBonus":0.5,"perTrialBonusThreshold":0.05,"exampleCost":0.01},"classroomParams":{"A":{"a":1,"b":4},"B":{"a":4,"b":1},"C":{"a":2,"b":8},"D":{"a":8,"b":2}},"conditions":["nonSeqFull","nonSeqPartial","seqNoFeedback","seqFeedback"],"classroomPairings":[["A","B"],["C","D"]],"coinWeights":[0.2,0.5,0.8],"subjectId":"A2KHMKJUVDMK1N","assignmentId":"3W92K5RLWV3Q2Z4SYIYJRGBRZ6SV51","hitId":"3JGHED38EDDK7DFM0KVY7GXU94LY7W","url":"https://gershmanlab.com/experiments/alicia/teaching/experiment/?hitId=3JGHED38EDDK7DFM0KVY7GXU94LY7W&workerId=A2KHMKJUVDMK1N&assignmentId=3W92K5RLWV3Q2Z4SYIYJRGBRZ6SV51&a=LK9W9&tp_a=LK9W9&b=3W92K5RLWV3Q2Z4SYIYJRGBRZ6SV51&tp_b=3W92K5RLWV3Q2Z4SYIYJRGBRZ6SV51&c=365799&tp_c=365799","heads":8,"tails":2,"studentIndex":9,"studentTrueHypers":{"a":2,"b":8},"studentGuess":0.5,"delta":0.30000000000000004,"totalExamples":10,"bonusSoFar":1},{"rt":6960,"response":{"heads":"16","tails":"4"},"type":"response","condition":"seqNoFeedback","trueTheta":0.8,"classrooms":["C","D"],"studentTrueClassroom":"C","exampleSet":"second","trial_type":"survey-html-form","trial_index":120,"time_elapsed":997717,"internal_node_id":"0.0-88.0-0.0","params":{"nStudents":24,"maxFlips":30,"completionMinutes":45,"basePay":8,"maxBonus":9,"perTrialBonus":0.5,"perTrialBonusThreshold":0.05,"exampleCost":0.01},"classroomParams":{"A":{"a":1,"b":4},"B":{"a":4,"b":1},"C":{"a":2,"b":8},"D":{"a":8,"b":2}},"conditions":["nonSeqFull","nonSeqPartial","seqNoFeedback","seqFeedback"],"classroomPairings":[["A","B"],["C","D"]],"coinWeights":[0.2,0.5,0.8],"subjectId":"A2KHMKJUVDMK1N","assignmentId":"3W92K5RLWV3Q2Z4SYIYJRGBRZ6SV51","hitId":"3JGHED38EDDK7DFM0KVY7GXU94LY7W","url":"https://gershmanlab.com/experiments/alicia/teaching/experiment/?hitId=3JGHED38EDDK7DFM0KVY7GXU94LY7W&workerId=A2KHMKJUVDMK1N&assignmentId=3W92K5RLWV3Q2Z4SYIYJRGBRZ6SV51&a=LK9W9&tp_a=LK9W9&b=3W92K5RLWV3Q2Z4SYIYJRGBRZ6SV51&tp_b=3W92K5RLWV3Q2Z4SYIYJRGBRZ6SV51&c=365799&tp_c=365799","firstResponseHeads":8,"firstResponseTails":2,"secondResponseHeads":16,"secondResponseTails":4,"totalHeads":24,"totalTails":6,"studentIndex":9,"studentTrueHypers":{"a":2,"b":8},"studentGuess":0.65,"delta":0.15000000000000002,"bonus":0,"bonusSoFar":1,"totalExamples":30},{"rt":8067,"response":{"heads":"2","tails":"8"},"type":"response","condition":"seqFeedback","trueTheta":0.2,"classrooms":["C","D"],"studentTrueClassroom":"D","exampleSet":"first","trial_type":"survey-html-form","trial_index":126,"time_elapsed":1019473,"internal_node_id":"0.0-94.0-0.0","params":{"nStudents":24,"maxFlips":30,"completionMinutes":45,"basePay":8,"maxBonus":9,"perTrialBonus":0.5,"perTrialBonusThreshold":0.05,"exampleCost":0.01},"classroomParams":{"A":{"a":1,"b":4},"B":{"a":4,"b":1},"C":{"a":2,"b":8},"D":{"a":8,"b":2}},"conditions":["nonSeqFull","nonSeqPartial","seqNoFeedback","seqFeedback"],"classroomPairings":[["A","B"],["C","D"]],"coinWeights":[0.2,0.5,0.8],"subjectId":"A2KHMKJUVDMK1N","assignmentId":"3W92K5RLWV3Q2Z4SYIYJRGBRZ6SV51","hitId":"3JGHED38EDDK7DFM0KVY7GXU94LY7W","url":"https://gershmanlab.com/experiments/alicia/teaching/experiment/?hitId=3JGHED38EDDK7DFM0KVY7GXU94LY7W&workerId=A2KHMKJUVDMK1N&assignmentId=3W92K5RLWV3Q2Z4SYIYJRGBRZ6SV51&a=LK9W9&tp_a=LK9W9&b=3W92K5RLWV3Q2Z4SYIYJRGBRZ6SV51&tp_b=3W92K5RLWV3Q2Z4SYIYJRGBRZ6SV51&c=365799&tp_c=365799","heads":2,"tails":8,"studentIndex":10,"studentTrueHypers":{"a":8,"b":2},"studentGuess":0.5,"delta":0.3,"totalExamples":10,"bonusSoFar":1},{"rt":8359,"response":{"heads":"4","tails":"16"},"type":"response","condition":"seqFeedback","trueTheta":0.2,"classrooms":["C","D"],"studentTrueClassroom":"D","exampleSet":"second","trial_type":"survey-html-form","trial_index":130,"time_elapsed":1037265,"internal_node_id":"0.0-98.0-0.0","params":{"nStudents":24,"maxFlips":30,"completionMinutes":45,"basePay":8,"maxBonus":9,"perTrialBonus":0.5,"perTrialBonusThreshold":0.05,"exampleCost":0.01},"classroomParams":{"A":{"a":1,"b":4},"B":{"a":4,"b":1},"C":{"a":2,"b":8},"D":{"a":8,"b":2}},"conditions":["nonSeqFull","nonSeqPartial","seqNoFeedback","seqFeedback"],"classroomPairings":[["A","B"],["C","D"]],"coinWeights":[0.2,0.5,0.8],"subjectId":"A2KHMKJUVDMK1N","assignmentId":"3W92K5RLWV3Q2Z4SYIYJRGBRZ6SV51","hitId":"3JGHED38EDDK7DFM0KVY7GXU94LY7W","url":"https://gershmanlab.com/experiments/alicia/teaching/experiment/?hitId=3JGHED38EDDK7DFM0KVY7GXU94LY7W&workerId=A2KHMKJUVDMK1N&assignmentId=3W92K5RLWV3Q2Z4SYIYJRGBRZ6SV51&a=LK9W9&tp_a=LK9W9&b=3W92K5RLWV3Q2Z4SYIYJRGBRZ6SV51&tp_b=3W92K5RLWV3Q2Z4SYIYJRGBRZ6SV51&c=365799&tp_c=365799","firstResponseHeads":2,"firstResponseTails":8,"secondResponseHeads":4,"secondResponseTails":16,"totalHeads":6,"totalTails":24,"studentIndex":10,"studentTrueHypers":{"a":8,"b":2},"studentGuess":0.35,"delta":0.14999999999999997,"bonus":0,"bonusSoFar":1,"totalExamples":30},{"rt":3717,"response":{"heads":"10","tails":"10"},"type":"response","condition":"nonSeqPartial","trueTheta":0.5,"classrooms":["A","B"],"studentTrueClassroom":"A","exampleSet":"first","trial_type":"survey-html-form","trial_index":136,"time_elapsed":1054907,"internal_node_id":"0.0-104.0-0.0","params":{"nStudents":24,"maxFlips":30,"completionMinutes":45,"basePay":8,"maxBonus":9,"perTrialBonus":0.5,"perTrialBonusThreshold":0.05,"exampleCost":0.01},"classroomParams":{"A":{"a":1,"b":4},"B":{"a":4,"b":1},"C":{"a":2,"b":8},"D":{"a":8,"b":2}},"conditions":["nonSeqFull","nonSeqPartial","seqNoFeedback","seqFeedback"],"classroomPairings":[["A","B"],["C","D"]],"coinWeights":[0.2,0.5,0.8],"subjectId":"A2KHMKJUVDMK1N","assignmentId":"3W92K5RLWV3Q2Z4SYIYJRGBRZ6SV51","hitId":"3JGHED38EDDK7DFM0KVY7GXU94LY7W","url":"https://gershmanlab.com/experiments/alicia/teaching/experiment/?hitId=3JGHED38EDDK7DFM0KVY7GXU94LY7W&workerId=A2KHMKJUVDMK1N&assignmentId=3W92K5RLWV3Q2Z4SYIYJRGBRZ6SV51&a=LK9W9&tp_a=LK9W9&b=3W92K5RLWV3Q2Z4SYIYJRGBRZ6SV51&tp_b=3W92K5RLWV3Q2Z4SYIYJRGBRZ6SV51&c=365799&tp_c=365799","heads":10,"tails":10,"studentIndex":11,"studentTrueHypers":{"a":1,"b":4},"studentGuess":0.44,"delta":0.06,"totalExamples":20,"bonus":0,"bonusSoFar":1},{"rt":4383,"response":{"heads":"16","tails":"4"},"type":"response","condition":"nonSeqPartial","trueTheta":0.8,"classrooms":["C","D"],"studentTrueClassroom":"C","exampleSet":"first","trial_type":"survey-html-form","trial_index":142,"time_elapsed":1071931,"internal_node_id":"0.0-110.0-0.0","params":{"nStudents":24,"maxFlips":30,"completionMinutes":45,"basePay":8,"maxBonus":9,"perTrialBonus":0.5,"perTrialBonusThreshold":0.05,"exampleCost":0.01},"classroomParams":{"A":{"a":1,"b":4},"B":{"a":4,"b":1},"C":{"a":2,"b":8},"D":{"a":8,"b":2}},"conditions":["nonSeqFull","nonSeqPartial","seqNoFeedback","seqFeedback"],"classroomPairings":[["A","B"],["C","D"]],"coinWeights":[0.2,0.5,0.8],"subjectId":"A2KHMKJUVDMK1N","assignmentId":"3W92K5RLWV3Q2Z4SYIYJRGBRZ6SV51","hitId":"3JGHED38EDDK7DFM0KVY7GXU94LY7W","url":"https://gershmanlab.com/experiments/alicia/teaching/experiment/?hitId=3JGHED38EDDK7DFM0KVY7GXU94LY7W&workerId=A2KHMKJUVDMK1N&assignmentId=3W92K5RLWV3Q2Z4SYIYJRGBRZ6SV51&a=LK9W9&tp_a=LK9W9&b=3W92K5RLWV3Q2Z4SYIYJRGBRZ6SV51&tp_b=3W92K5RLWV3Q2Z4SYIYJRGBRZ6SV51&c=365799&tp_c=365799","heads":16,"tails":4,"studentIndex":12,"studentTrueHypers":{"a":2,"b":8},"studentGuess":0.6,"delta":0.20000000000000007,"totalExamples":20,"bonus":0,"bonusSoFar":1},{"rt":5240,"response":{"heads":"4","tails":"16"},"type":"response","condition":"nonSeqPartial","trueTheta":0.2,"classrooms":["A","B"],"studentTrueClassroom":"A","exampleSet":"first","trial_type":"survey-html-form","trial_index":148,"time_elapsed":1089427,"internal_node_id":"0.0-116.0-0.0","params":{"nStudents":24,"maxFlips":30,"completionMinutes":45,"basePay":8,"maxBonus":9,"perTrialBonus":0.5,"perTrialBonusThreshold":0.05,"exampleCost":0.01},"classroomParams":{"A":{"a":1,"b":4},"B":{"a":4,"b":1},"C":{"a":2,"b":8},"D":{"a":8,"b":2}},"conditions":["nonSeqFull","nonSeqPartial","seqNoFeedback","seqFeedback"],"classroomPairings":[["A","B"],["C","D"]],"coinWeights":[0.2,0.5,0.8],"subjectId":"A2KHMKJUVDMK1N","assignmentId":"3W92K5RLWV3Q2Z4SYIYJRGBRZ6SV51","hitId":"3JGHED38EDDK7DFM0KVY7GXU94LY7W","url":"https://gershmanlab.com/experiments/alicia/teaching/experiment/?hitId=3JGHED38EDDK7DFM0KVY7GXU94LY7W&workerId=A2KHMKJUVDMK1N&assignmentId=3W92K5RLWV3Q2Z4SYIYJRGBRZ6SV51&a=LK9W9&tp_a=LK9W9&b=3W92K5RLWV3Q2Z4SYIYJRGBRZ6SV51&tp_b=3W92K5RLWV3Q2Z4SYIYJRGBRZ6SV51&c=365799&tp_c=365799","heads":4,"tails":16,"studentIndex":13,"studentTrueHypers":{"a":1,"b":4},"studentGuess":0.2,"delta":0,"totalExamples":20,"bonus":0.3,"bonusSoFar":1.3},{"rt":3267,"response":{"heads":"16","tails":"4"},"type":"response","condition":"nonSeqFull","trueTheta":0.8,"classrooms":["A","B"],"studentTrueClassroom":"A","exampleSet":"first","trial_type":"survey-html-form","trial_index":154,"time_elapsed":1104098,"internal_node_id":"0.0-122.0-0.0","params":{"nStudents":24,"maxFlips":30,"completionMinutes":45,"basePay":8,"maxBonus":9,"perTrialBonus":0.5,"perTrialBonusThreshold":0.05,"exampleCost":0.01},"classroomParams":{"A":{"a":1,"b":4},"B":{"a":4,"b":1},"C":{"a":2,"b":8},"D":{"a":8,"b":2}},"conditions":["nonSeqFull","nonSeqPartial","seqNoFeedback","seqFeedback"],"classroomPairings":[["A","B"],["C","D"]],"coinWeights":[0.2,0.5,0.8],"subjectId":"A2KHMKJUVDMK1N","assignmentId":"3W92K5RLWV3Q2Z4SYIYJRGBRZ6SV51","hitId":"3JGHED38EDDK7DFM0KVY7GXU94LY7W","url":"https://gershmanlab.com/experiments/alicia/teaching/experiment/?hitId=3JGHED38EDDK7DFM0KVY7GXU94LY7W&workerId=A2KHMKJUVDMK1N&assignmentId=3W92K5RLWV3Q2Z4SYIYJRGBRZ6SV51&a=LK9W9&tp_a=LK9W9&b=3W92K5RLWV3Q2Z4SYIYJRGBRZ6SV51&tp_b=3W92K5RLWV3Q2Z4SYIYJRGBRZ6SV51&c=365799&tp_c=365799","heads":16,"tails":4,"studentIndex":14,"studentTrueHypers":{"a":1,"b":4},"studentGuess":0.68,"delta":0.12,"totalExamples":20,"bonus":0,"bonusSoFar":1.3},{"rt":3361,"response":{"heads":"4","tails":"16"},"type":"response","condition":"seqNoFeedback","trueTheta":0.2,"classrooms":["C","D"],"studentTrueClassroom":"D","exampleSet":"first","trial_type":"survey-html-form","trial_index":160,"time_elapsed":1118505,"internal_node_id":"0.0-128.0-0.0","params":{"nStudents":24,"maxFlips":30,"completionMinutes":45,"basePay":8,"maxBonus":9,"perTrialBonus":0.5,"perTrialBonusThreshold":0.05,"exampleCost":0.01},"classroomParams":{"A":{"a":1,"b":4},"B":{"a":4,"b":1},"C":{"a":2,"b":8},"D":{"a":8,"b":2}},"conditions":["nonSeqFull","nonSeqPartial","seqNoFeedback","seqFeedback"],"classroomPairings":[["A","B"],["C","D"]],"coinWeights":[0.2,0.5,0.8],"subjectId":"A2KHMKJUVDMK1N","assignmentId":"3W92K5RLWV3Q2Z4SYIYJRGBRZ6SV51","hitId":"3JGHED38EDDK7DFM0KVY7GXU94LY7W","url":"https://gershmanlab.com/experiments/alicia/teaching/experiment/?hitId=3JGHED38EDDK7DFM0KVY7GXU94LY7W&workerId=A2KHMKJUVDMK1N&assignmentId=3W92K5RLWV3Q2Z4SYIYJRGBRZ6SV51&a=LK9W9&tp_a=LK9W9&b=3W92K5RLWV3Q2Z4SYIYJRGBRZ6SV51&tp_b=3W92K5RLWV3Q2Z4SYIYJRGBRZ6SV51&c=365799&tp_c=365799","heads":4,"tails":16,"studentIndex":15,"studentTrueHypers":{"a":8,"b":2},"studentGuess":0.4,"delta":0.2,"totalExamples":20,"bonusSoFar":1.3},{"rt":4355,"response":{"heads":"4","tails":"16"},"type":"response","condition":"seqNoFeedback","trueTheta":0.2,"classrooms":["C","D"],"studentTrueClassroom":"D","exampleSet":"second","trial_type":"survey-html-form","trial_index":163,"time_elapsed":1128863,"internal_node_id":"0.0-131.0-0.0","params":{"nStudents":24,"maxFlips":30,"completionMinutes":45,"basePay":8,"maxBonus":9,"perTrialBonus":0.5,"perTrialBonusThreshold":0.05,"exampleCost":0.01},"classroomParams":{"A":{"a":1,"b":4},"B":{"a":4,"b":1},"C":{"a":2,"b":8},"D":{"a":8,"b":2}},"conditions":["nonSeqFull","nonSeqPartial","seqNoFeedback","seqFeedback"],"classroomPairings":[["A","B"],["C","D"]],"coinWeights":[0.2,0.5,0.8],"subjectId":"A2KHMKJUVDMK1N","assignmentId":"3W92K5RLWV3Q2Z4SYIYJRGBRZ6SV51","hitId":"3JGHED38EDDK7DFM0KVY7GXU94LY7W","url":"https://gershmanlab.com/experiments/alicia/teaching/experiment/?hitId=3JGHED38EDDK7DFM0KVY7GXU94LY7W&workerId=A2KHMKJUVDMK1N&assignmentId=3W92K5RLWV3Q2Z4SYIYJRGBRZ6SV51&a=LK9W9&tp_a=LK9W9&b=3W92K5RLWV3Q2Z4SYIYJRGBRZ6SV51&tp_b=3W92K5RLWV3Q2Z4SYIYJRGBRZ6SV51&c=365799&tp_c=365799","firstResponseHeads":4,"firstResponseTails":16,"secondResponseHeads":4,"secondResponseTails":16,"totalHeads":8,"totalTails":32,"studentIndex":15,"studentTrueHypers":{"a":8,"b":2},"studentGuess":0.32,"delta":0.12,"bonus":0,"bonusSoFar":1.3,"totalExamples":40},{"rt":3096,"response":{"heads":"4","tails":"16"},"type":"response","condition":"nonSeqPartial","trueTheta":0.2,"classrooms":["C","D"],"studentTrueClassroom":"C","exampleSet":"first","trial_type":"survey-html-form","trial_index":169,"time_elapsed":1142650,"internal_node_id":"0.0-137.0-0.0","params":{"nStudents":24,"maxFlips":30,"completionMinutes":45,"basePay":8,"maxBonus":9,"perTrialBonus":0.5,"perTrialBonusThreshold":0.05,"exampleCost":0.01},"classroomParams":{"A":{"a":1,"b":4},"B":{"a":4,"b":1},"C":{"a":2,"b":8},"D":{"a":8,"b":2}},"conditions":["nonSeqFull","nonSeqPartial","seqNoFeedback","seqFeedback"],"classroomPairings":[["A","B"],["C","D"]],"coinWeights":[0.2,0.5,0.8],"subjectId":"A2KHMKJUVDMK1N","assignmentId":"3W92K5RLWV3Q2Z4SYIYJRGBRZ6SV51","hitId":"3JGHED38EDDK7DFM0KVY7GXU94LY7W","url":"https://gershmanlab.com/experiments/alicia/teaching/experiment/?hitId=3JGHED38EDDK7DFM0KVY7GXU94LY7W&workerId=A2KHMKJUVDMK1N&assignmentId=3W92K5RLWV3Q2Z4SYIYJRGBRZ6SV51&a=LK9W9&tp_a=LK9W9&b=3W92K5RLWV3Q2Z4SYIYJRGBRZ6SV51&tp_b=3W92K5RLWV3Q2Z4SYIYJRGBRZ6SV51&c=365799&tp_c=365799","heads":4,"tails":16,"studentIndex":16,"studentTrueHypers":{"a":2,"b":8},"studentGuess":0.2,"delta":0,"totalExamples":20,"bonus":0.3,"bonusSoFar":1.6},{"rt":4265,"response":{"heads":"10","tails":"10"},"type":"response","condition":"nonSeqFull","trueTheta":0.5,"classrooms":["A","B"],"studentTrueClassroom":"A","exampleSet":"first","trial_type":"survey-html-form","trial_index":175,"time_elapsed":1157510,"internal_node_id":"0.0-143.0-0.0","params":{"nStudents":24,"maxFlips":30,"completionMinutes":45,"basePay":8,"maxBonus":9,"perTrialBonus":0.5,"perTrialBonusThreshold":0.05,"exampleCost":0.01},"classroomParams":{"A":{"a":1,"b":4},"B":{"a":4,"b":1},"C":{"a":2,"b":8},"D":{"a":8,"b":2}},"conditions":["nonSeqFull","nonSeqPartial","seqNoFeedback","seqFeedback"],"classroomPairings":[["A","B"],["C","D"]],"coinWeights":[0.2,0.5,0.8],"subjectId":"A2KHMKJUVDMK1N","assignmentId":"3W92K5RLWV3Q2Z4SYIYJRGBRZ6SV51","hitId":"3JGHED38EDDK7DFM0KVY7GXU94LY7W","url":"https://gershmanlab.com/experiments/alicia/teaching/experiment/?hitId=3JGHED38EDDK7DFM0KVY7GXU94LY7W&workerId=A2KHMKJUVDMK1N&assignmentId=3W92K5RLWV3Q2Z4SYIYJRGBRZ6SV51&a=LK9W9&tp_a=LK9W9&b=3W92K5RLWV3Q2Z4SYIYJRGBRZ6SV51&tp_b=3W92K5RLWV3Q2Z4SYIYJRGBRZ6SV51&c=365799&tp_c=365799","heads":10,"tails":10,"studentIndex":17,"studentTrueHypers":{"a":1,"b":4},"studentGuess":0.44,"delta":0.06,"totalExamples":20,"bonus":0,"bonusSoFar":1.6},{"rt":3135,"response":{"heads":"8","tails":"2"},"type":"response","condition":"seqFeedback","trueTheta":0.8,"classrooms":["C","D"],"studentTrueClassroom":"C","exampleSet":"first","trial_type":"survey-html-form","trial_index":181,"time_elapsed":1173361,"internal_node_id":"0.0-149.0-0.0","params":{"nStudents":24,"maxFlips":30,"completionMinutes":45,"basePay":8,"maxBonus":9,"perTrialBonus":0.5,"perTrialBonusThreshold":0.05,"exampleCost":0.01},"classroomParams":{"A":{"a":1,"b":4},"B":{"a":4,"b":1},"C":{"a":2,"b":8},"D":{"a":8,"b":2}},"conditions":["nonSeqFull","nonSeqPartial","seqNoFeedback","seqFeedback"],"classroomPairings":[["A","B"],["C","D"]],"coinWeights":[0.2,0.5,0.8],"subjectId":"A2KHMKJUVDMK1N","assignmentId":"3W92K5RLWV3Q2Z4SYIYJRGBRZ6SV51","hitId":"3JGHED38EDDK7DFM0KVY7GXU94LY7W","url":"https://gershmanlab.com/experiments/alicia/teaching/experiment/?hitId=3JGHED38EDDK7DFM0KVY7GXU94LY7W&workerId=A2KHMKJUVDMK1N&assignmentId=3W92K5RLWV3Q2Z4SYIYJRGBRZ6SV51&a=LK9W9&tp_a=LK9W9&b=3W92K5RLWV3Q2Z4SYIYJRGBRZ6SV51&tp_b=3W92K5RLWV3Q2Z4SYIYJRGBRZ6SV51&c=365799&tp_c=365799","heads":8,"tails":2,"studentIndex":18,"studentTrueHypers":{"a":2,"b":8},"studentGuess":0.5,"delta":0.30000000000000004,"totalExamples":10,"bonusSoFar":1.6},{"rt":4003,"response":{"heads":"16","tails":"4"},"type":"response","condition":"seqFeedback","trueTheta":0.8,"classrooms":["C","D"],"studentTrueClassroom":"C","exampleSet":"second","trial_type":"survey-html-form","trial_index":185,"time_elapsed":1185932,"internal_node_id":"0.0-153.0-0.0","params":{"nStudents":24,"maxFlips":30,"completionMinutes":45,"basePay":8,"maxBonus":9,"perTrialBonus":0.5,"perTrialBonusThreshold":0.05,"exampleCost":0.01},"classroomParams":{"A":{"a":1,"b":4},"B":{"a":4,"b":1},"C":{"a":2,"b":8},"D":{"a":8,"b":2}},"conditions":["nonSeqFull","nonSeqPartial","seqNoFeedback","seqFeedback"],"classroomPairings":[["A","B"],["C","D"]],"coinWeights":[0.2,0.5,0.8],"subjectId":"A2KHMKJUVDMK1N","assignmentId":"3W92K5RLWV3Q2Z4SYIYJRGBRZ6SV51","hitId":"3JGHED38EDDK7DFM0KVY7GXU94LY7W","url":"https://gershmanlab.com/experiments/alicia/teaching/experiment/?hitId=3JGHED38EDDK7DFM0KVY7GXU94LY7W&workerId=A2KHMKJUVDMK1N&assignmentId=3W92K5RLWV3Q2Z4SYIYJRGBRZ6SV51&a=LK9W9&tp_a=LK9W9&b=3W92K5RLWV3Q2Z4SYIYJRGBRZ6SV51&tp_b=3W92K5RLWV3Q2Z4SYIYJRGBRZ6SV51&c=365799&tp_c=365799","firstResponseHeads":8,"firstResponseTails":2,"secondResponseHeads":16,"secondResponseTails":4,"totalHeads":24,"totalTails":6,"studentIndex":18,"studentTrueHypers":{"a":2,"b":8},"studentGuess":0.65,"delta":0.15000000000000002,"bonus":0,"bonusSoFar":1.6,"totalExamples":30},{"rt":3113,"response":{"heads":"4","tails":"16"},"type":"response","condition":"nonSeqFull","trueTheta":0.2,"classrooms":["A","B"],"studentTrueClassroom":"A","exampleSet":"first","trial_type":"survey-html-form","trial_index":191,"time_elapsed":1201218,"internal_node_id":"0.0-159.0-0.0","params":{"nStudents":24,"maxFlips":30,"completionMinutes":45,"basePay":8,"maxBonus":9,"perTrialBonus":0.5,"perTrialBonusThreshold":0.05,"exampleCost":0.01},"classroomParams":{"A":{"a":1,"b":4},"B":{"a":4,"b":1},"C":{"a":2,"b":8},"D":{"a":8,"b":2}},"conditions":["nonSeqFull","nonSeqPartial","seqNoFeedback","seqFeedback"],"classroomPairings":[["A","B"],["C","D"]],"coinWeights":[0.2,0.5,0.8],"subjectId":"A2KHMKJUVDMK1N","assignmentId":"3W92K5RLWV3Q2Z4SYIYJRGBRZ6SV51","hitId":"3JGHED38EDDK7DFM0KVY7GXU94LY7W","url":"https://gershmanlab.com/experiments/alicia/teaching/experiment/?hitId=3JGHED38EDDK7DFM0KVY7GXU94LY7W&workerId=A2KHMKJUVDMK1N&assignmentId=3W92K5RLWV3Q2Z4SYIYJRGBRZ6SV51&a=LK9W9&tp_a=LK9W9&b=3W92K5RLWV3Q2Z4SYIYJRGBRZ6SV51&tp_b=3W92K5RLWV3Q2Z4SYIYJRGBRZ6SV51&c=365799&tp_c=365799","heads":4,"tails":16,"studentIndex":19,"studentTrueHypers":{"a":1,"b":4},"studentGuess":0.2,"delta":0,"totalExamples":20,"bonus":0.3,"bonusSoFar":1.9},{"rt":3169,"response":{"heads":"15","tails":"15"},"type":"response","condition":"nonSeqPartial","trueTheta":0.5,"classrooms":["C","D"],"studentTrueClassroom":"D","exampleSet":"first","trial_type":"survey-html-form","trial_index":197,"time_elapsed":1217035,"internal_node_id":"0.0-165.0-0.0","params":{"nStudents":24,"maxFlips":30,"completionMinutes":45,"basePay":8,"maxBonus":9,"perTrialBonus":0.5,"perTrialBonusThreshold":0.05,"exampleCost":0.01},"classroomParams":{"A":{"a":1,"b":4},"B":{"a":4,"b":1},"C":{"a":2,"b":8},"D":{"a":8,"b":2}},"conditions":["nonSeqFull","nonSeqPartial","seqNoFeedback","seqFeedback"],"classroomPairings":[["A","B"],["C","D"]],"coinWeights":[0.2,0.5,0.8],"subjectId":"A2KHMKJUVDMK1N","assignmentId":"3W92K5RLWV3Q2Z4SYIYJRGBRZ6SV51","hitId":"3JGHED38EDDK7DFM0KVY7GXU94LY7W","url":"https://gershmanlab.com/experiments/alicia/teaching/experiment/?hitId=3JGHED38EDDK7DFM0KVY7GXU94LY7W&workerId=A2KHMKJUVDMK1N&assignmentId=3W92K5RLWV3Q2Z4SYIYJRGBRZ6SV51&a=LK9W9&tp_a=LK9W9&b=3W92K5RLWV3Q2Z4SYIYJRGBRZ6SV51&tp_b=3W92K5RLWV3Q2Z4SYIYJRGBRZ6SV51&c=365799&tp_c=365799","heads":15,"tails":15,"studentIndex":20,"studentTrueHypers":{"a":8,"b":2},"studentGuess":0.575,"delta":0.07499999999999996,"totalExamples":30,"bonus":0,"bonusSoFar":1.9},{"rt":3164,"response":{"heads":"15","tails":"15"},"type":"response","condition":"seqNoFeedback","trueTheta":0.5,"classrooms":["A","B"],"studentTrueClassroom":"A","exampleSet":"first","trial_type":"survey-html-form","trial_index":203,"time_elapsed":1232920,"internal_node_id":"0.0-171.0-0.0","params":{"nStudents":24,"maxFlips":30,"completionMinutes":45,"basePay":8,"maxBonus":9,"perTrialBonus":0.5,"perTrialBonusThreshold":0.05,"exampleCost":0.01},"classroomParams":{"A":{"a":1,"b":4},"B":{"a":4,"b":1},"C":{"a":2,"b":8},"D":{"a":8,"b":2}},"conditions":["nonSeqFull","nonSeqPartial","seqNoFeedback","seqFeedback"],"classroomPairings":[["A","B"],["C","D"]],"coinWeights":[0.2,0.5,0.8],"subjectId":"A2KHMKJUVDMK1N","assignmentId":"3W92K5RLWV3Q2Z4SYIYJRGBRZ6SV51","hitId":"3JGHED38EDDK7DFM0KVY7GXU94LY7W","url":"https://gershmanlab.com/experiments/alicia/teaching/experiment/?hitId=3JGHED38EDDK7DFM0KVY7GXU94LY7W&workerId=A2KHMKJUVDMK1N&assignmentId=3W92K5RLWV3Q2Z4SYIYJRGBRZ6SV51&a=LK9W9&tp_a=LK9W9&b=3W92K5RLWV3Q2Z4SYIYJRGBRZ6SV51&tp_b=3W92K5RLWV3Q2Z4SYIYJRGBRZ6SV51&c=365799&tp_c=365799","heads":15,"tails":15,"studentIndex":21,"studentTrueHypers":{"a":1,"b":4},"studentGuess":0.45714285714285713,"delta":0.04285714285714287,"totalExamples":30,"bonusSoFar":1.9},{"rt":3925,"response":{"heads":"15","tails":"15"},"type":"response","condition":"seqNoFeedback","trueTheta":0.5,"classrooms":["A","B"],"studentTrueClassroom":"A","exampleSet":"second","trial_type":"survey-html-form","trial_index":206,"time_elapsed":1242861,"internal_node_id":"0.0-174.0-0.0","params":{"nStudents":24,"maxFlips":30,"completionMinutes":45,"basePay":8,"maxBonus":9,"perTrialBonus":0.5,"perTrialBonusThreshold":0.05,"exampleCost":0.01},"classroomParams":{"A":{"a":1,"b":4},"B":{"a":4,"b":1},"C":{"a":2,"b":8},"D":{"a":8,"b":2}},"conditions":["nonSeqFull","nonSeqPartial","seqNoFeedback","seqFeedback"],"classroomPairings":[["A","B"],["C","D"]],"coinWeights":[0.2,0.5,0.8],"subjectId":"A2KHMKJUVDMK1N","assignmentId":"3W92K5RLWV3Q2Z4SYIYJRGBRZ6SV51","hitId":"3JGHED38EDDK7DFM0KVY7GXU94LY7W","url":"https://gershmanlab.com/experiments/alicia/teaching/experiment/?hitId=3JGHED38EDDK7DFM0KVY7GXU94LY7W&workerId=A2KHMKJUVDMK1N&assignmentId=3W92K5RLWV3Q2Z4SYIYJRGBRZ6SV51&a=LK9W9&tp_a=LK9W9&b=3W92K5RLWV3Q2Z4SYIYJRGBRZ6SV51&tp_b=3W92K5RLWV3Q2Z4SYIYJRGBRZ6SV51&c=365799&tp_c=365799","firstResponseHeads":15,"firstResponseTails":15,"secondResponseHeads":15,"secondResponseTails":15,"totalHeads":30,"totalTails":30,"studentIndex":21,"studentTrueHypers":{"a":1,"b":4},"studentGuess":0.47692307692307695,"delta":0.02307692307692305,"bonus":0,"bonusSoFar":1.9,"totalExamples":60},{"rt":8344,"response":{"heads":"16","tails":"4"},"type":"response","condition":"nonSeqFull","trueTheta":0.8,"classrooms":["C","D"],"studentTrueClassroom":"C","exampleSet":"first","trial_type":"survey-html-form","trial_index":212,"time_elapsed":1265390,"internal_node_id":"0.0-180.0-0.0","params":{"nStudents":24,"maxFlips":30,"completionMinutes":45,"basePay":8,"maxBonus":9,"perTrialBonus":0.5,"perTrialBonusThreshold":0.05,"exampleCost":0.01},"classroomParams":{"A":{"a":1,"b":4},"B":{"a":4,"b":1},"C":{"a":2,"b":8},"D":{"a":8,"b":2}},"conditions":["nonSeqFull","nonSeqPartial","seqNoFeedback","seqFeedback"],"classroomPairings":[["A","B"],["C","D"]],"coinWeights":[0.2,0.5,0.8],"subjectId":"A2KHMKJUVDMK1N","assignmentId":"3W92K5RLWV3Q2Z4SYIYJRGBRZ6SV51","hitId":"3JGHED38EDDK7DFM0KVY7GXU94LY7W","url":"https://gershmanlab.com/experiments/alicia/teaching/experiment/?hitId=3JGHED38EDDK7DFM0KVY7GXU94LY7W&workerId=A2KHMKJUVDMK1N&assignmentId=3W92K5RLWV3Q2Z4SYIYJRGBRZ6SV51&a=LK9W9&tp_a=LK9W9&b=3W92K5RLWV3Q2Z4SYIYJRGBRZ6SV51&tp_b=3W92K5RLWV3Q2Z4SYIYJRGBRZ6SV51&c=365799&tp_c=365799","heads":16,"tails":4,"studentIndex":22,"studentTrueHypers":{"a":2,"b":8},"studentGuess":0.6,"delta":0.20000000000000007,"totalExamples":20,"bonus":0,"bonusSoFar":1.9},{"rt":3231,"response":{"heads":"4","tails":"16"},"type":"response","condition":"nonSeqFull","trueTheta":0.2,"classrooms":["C","D"],"studentTrueClassroom":"D","exampleSet":"first","trial_type":"survey-html-form","trial_index":218,"time_elapsed":1297751,"internal_node_id":"0.0-186.0-0.0","params":{"nStudents":24,"maxFlips":30,"completionMinutes":45,"basePay":8,"maxBonus":9,"perTrialBonus":0.5,"perTrialBonusThreshold":0.05,"exampleCost":0.01},"classroomParams":{"A":{"a":1,"b":4},"B":{"a":4,"b":1},"C":{"a":2,"b":8},"D":{"a":8,"b":2}},"conditions":["nonSeqFull","nonSeqPartial","seqNoFeedback","seqFeedback"],"classroomPairings":[["A","B"],["C","D"]],"coinWeights":[0.2,0.5,0.8],"subjectId":"A2KHMKJUVDMK1N","assignmentId":"3W92K5RLWV3Q2Z4SYIYJRGBRZ6SV51","hitId":"3JGHED38EDDK7DFM0KVY7GXU94LY7W","url":"https://gershmanlab.com/experiments/alicia/teaching/experiment/?hitId=3JGHED38EDDK7DFM0KVY7GXU94LY7W&workerId=A2KHMKJUVDMK1N&assignmentId=3W92K5RLWV3Q2Z4SYIYJRGBRZ6SV51&a=LK9W9&tp_a=LK9W9&b=3W92K5RLWV3Q2Z4SYIYJRGBRZ6SV51&tp_b=3W92K5RLWV3Q2Z4SYIYJRGBRZ6SV51&c=365799&tp_c=365799","heads":4,"tails":16,"studentIndex":23,"studentTrueHypers":{"a":8,"b":2},"studentGuess":0.4,"delta":0.2,"totalExamples":20,"bonus":0,"bonusSoFar":1.9},{"rt":6081,"response":{"gender":"male","age":"34","understood":"yes","comments":""},"type":"response","trial_type":"survey-html-form","trial_index":222,"time_elapsed":1312763,"internal_node_id":"0.0-191.0","params":{"nStudents":24,"maxFlips":30,"completionMinutes":45,"basePay":8,"maxBonus":9,"perTrialBonus":0.5,"perTrialBonusThreshold":0.05,"exampleCost":0.01},"classroomParams":{"A":{"a":1,"b":4},"B":{"a":4,"b":1},"C":{"a":2,"b":8},"D":{"a":8,"b":2}},"conditions":["nonSeqFull","nonSeqPartial","seqNoFeedback","seqFeedback"],"classroomPairings":[["A","B"],["C","D"]],"coinWeights":[0.2,0.5,0.8],"subjectId":"A2KHMKJUVDMK1N","assignmentId":"3W92K5RLWV3Q2Z4SYIYJRGBRZ6SV51","hitId":"3JGHED38EDDK7DFM0KVY7GXU94LY7W","url":"https://gershmanlab.com/experiments/alicia/teaching/experiment/?hitId=3JGHED38EDDK7DFM0KVY7GXU94LY7W&workerId=A2KHMKJUVDMK1N&assignmentId=3W92K5RLWV3Q2Z4SYIYJRGBRZ6SV51&a=LK9W9&tp_a=LK9W9&b=3W92K5RLWV3Q2Z4SYIYJRGBRZ6SV51&tp_b=3W92K5RLWV3Q2Z4SYIYJRGBRZ6SV51&c=365799&tp_c=365799","totalBonus":1.9}]