[{"rt":43555,"response":{"heads":"2","tails":"8"},"type":"response","condition":"nonSeqPartial","trueTheta":0.2,"classrooms":["C","D"],"studentTrueClassroom":"D","exampleSet":"first","trial_type":"survey-html-form","trial_index":10,"time_elapsed":581573,"internal_node_id":"0.0-6.0-0.0","params":{"nStudents":24,"maxFlips":30,"completionMinutes":45,"basePay":8,"maxBonus":9,"perTrialBonus":0.5,"perTrialBonusThreshold":0.05,"exampleCost":0.01},"classroomParams":{"A":{"a":1,"b":4},"B":{"a":4,"b":1},"C":{"a":2,"b":8},"D":{"a":8,"b":2}},"conditions":["nonSeqFull","nonSeqPartial","seqNoFeedback","seqFeedback"],"classroomPairings":[["A","B"],["C","D"]],"coinWeights":[0.2,0.5,0.8],"subjectId":"A2L5QFUJKKYE6G","assignmentId":"3I33IC7ZWGOEBEI7545PXMU2ULGA2S","hitId":"34KYK9TV2RUAD363EVFPUWVPB97SBP","url":"https://gershmanlab.com/experiments/alicia/teaching/experiment/?hitId=34KYK9TV2RUAD363EVFPUWVPB97SBP&workerId=A2L5QFUJKKYE6G&assignmentId=3I33IC7ZWGOEBEI7545PXMU2ULGA2S&a=ZI3I7&tp_a=ZI3I7&b=3I33IC7ZWGOEBEI7545PXMU2ULGA2S&tp_b=3I33IC7ZWGOEBEI7545PXMU2ULGA2S&c=365717&tp_c=365717","heads":2,"tails":8,"studentIndex":0,"studentTrueHypers":{"a":8,"b":2},"studentGuess":0.5,"delta":0.3,"totalExamples":10,"bonus":0,"bonusSoFar":0},{"rt":31601,"response":{"heads":"1","tails":"4"},"type":"response","condition":"seqFeedback","trueTheta":0.2,"classrooms":["A","B"],"studentTrueClassroom":"B","exampleSet":"first","trial_type":"survey-html-form","trial_index":16,"time_elapsed":641575,"internal_node_id":"0.0-12.0-0.0","params":{"nStudents":24,"maxFlips":30,"completionMinutes":45,"basePay":8,"maxBonus":9,"perTrialBonus":0.5,"perTrialBonusThreshold":0.05,"exampleCost":0.01},"classroomParams":{"A":{"a":1,"b":4},"B":{"a":4,"b":1},"C":{"a":2,"b":8},"D":{"a":8,"b":2}},"conditions":["nonSeqFull","nonSeqPartial","seqNoFeedback","seqFeedback"],"classroomPairings":[["A","B"],["C","D"]],"coinWeights":[0.2,0.5,0.8],"subjectId":"A2L5QFUJKKYE6G","assignmentId":"3I33IC7ZWGOEBEI7545PXMU2ULGA2S","hitId":"34KYK9TV2RUAD363EVFPUWVPB97SBP","url":"https://gershmanlab.com/experiments/alicia/teaching/experiment/?hitId=34KYK9TV2RUAD363EVFPUWVPB97SBP&workerId=A2L5QFUJKKYE6G&assignmentId=3I33IC7ZWGOEBEI7545PXMU2ULGA2S&a=ZI3I7&tp_a=ZI3I7&b=3I33IC7ZWGOEBEI7545PXMU2ULGA2S&tp_b=3I33IC7ZWGOEBEI7545PXMU2ULGA2S&c=365717&tp_c=365717","heads":1,"tails":4,"studentIndex":1,"studentTrueHypers":{"a":4,"b":1},"studentGuess":0.5,"delta":0.3,"totalExamples":5,"bonusSoFar":0},{"rt":31275,"response":{"heads":"2","tails":"6"},"type":"response","condition":"seqFeedback","trueTheta":0.2,"classrooms":["A","B"],"studentTrueClassroom":"B","exampleSet":"second","trial_type":"survey-html-form","trial_index":20,"time_elapsed":694121,"internal_node_id":"0.0-16.0-0.0","params":{"nStudents":24,"maxFlips":30,"completionMinutes":45,"basePay":8,"maxBonus":9,"perTrialBonus":0.5,"perTrialBonusThreshold":0.05,"exampleCost":0.01},"classroomParams":{"A":{"a":1,"b":4},"B":{"a":4,"b":1},"C":{"a":2,"b":8},"D":{"a":8,"b":2}},"conditions":["nonSeqFull","nonSeqPartial","seqNoFeedback","seqFeedback"],"classroomPairings":[["A","B"],["C","D"]],"coinWeights":[0.2,0.5,0.8],"subjectId":"A2L5QFUJKKYE6G","assignmentId":"3I33IC7ZWGOEBEI7545PXMU2ULGA2S","hitId":"34KYK9TV2RUAD363EVFPUWVPB97SBP","url":"https://gershmanlab.com/experiments/alicia/teaching/experiment/?hitId=34KYK9TV2RUAD363EVFPUWVPB97SBP&workerId=A2L5QFUJKKYE6G&assignmentId=3I33IC7ZWGOEBEI7545PXMU2ULGA2S&a=ZI3I7&tp_a=ZI3I7&b=3I33IC7ZWGOEBEI7545PXMU2ULGA2S&tp_b=3I33IC7ZWGOEBEI7545PXMU2ULGA2S&c=365717&tp_c=365717","firstResponseHeads":1,"firstResponseTails":4,"secondResponseHeads":2,"secondResponseTails":6,"totalHeads":3,"totalTails":10,"studentIndex":1,"studentTrueHypers":{"a":4,"b":1},"studentGuess":0.3888888888888889,"delta":0.18888888888888888,"bonus":0,"bonusSoFar":0,"totalExamples":13},{"rt":17073,"response":{"heads":"4","tails":"4"},"type":"response","condition":"seqFeedback","trueTheta":0.5,"classrooms":["C","D"],"studentTrueClassroom":"D","exampleSet":"first","trial_type":"survey-html-form","trial_index":26,"time_elapsed":733535,"internal_node_id":"0.0-22.0-0.0","params":{"nStudents":24,"maxFlips":30,"completionMinutes":45,"basePay":8,"maxBonus":9,"perTrialBonus":0.5,"perTrialBonusThreshold":0.05,"exampleCost":0.01},"classroomParams":{"A":{"a":1,"b":4},"B":{"a":4,"b":1},"C":{"a":2,"b":8},"D":{"a":8,"b":2}},"conditions":["nonSeqFull","nonSeqPartial","seqNoFeedback","seqFeedback"],"classroomPairings":[["A","B"],["C","D"]],"coinWeights":[0.2,0.5,0.8],"subjectId":"A2L5QFUJKKYE6G","assignmentId":"3I33IC7ZWGOEBEI7545PXMU2ULGA2S","hitId":"34KYK9TV2RUAD363EVFPUWVPB97SBP","url":"https://gershmanlab.com/experiments/alicia/teaching/experiment/?hitId=34KYK9TV2RUAD363EVFPUWVPB97SBP&workerId=A2L5QFUJKKYE6G&assignmentId=3I33IC7ZWGOEBEI7545PXMU2ULGA2S&a=ZI3I7&tp_a=ZI3I7&b=3I33IC7ZWGOEBEI7545PXMU2ULGA2S&tp_b=3I33IC7ZWGOEBEI7545PXMU2ULGA2S&c=365717&tp_c=365717","heads":4,"tails":4,"studentIndex":2,"studentTrueHypers":{"a":8,"b":2},"studentGuess":0.6666666666666666,"delta":0.16666666666666663,"totalExamples":8,"bonusSoFar":0},{"rt":13840,"response":{"heads":"8","tails":"8"},"type":"response","condition":"seqFeedback","trueTheta":0.5,"classrooms":["C","D"],"studentTrueClassroom":"D","exampleSet":"second","trial_type":"survey-html-form","trial_index":30,"time_elapsed":764022,"internal_node_id":"0.0-26.0-0.0","params":{"nStudents":24,"maxFlips":30,"completionMinutes":45,"basePay":8,"maxBonus":9,"perTrialBonus":0.5,"perTrialBonusThreshold":0.05,"exampleCost":0.01},"classroomParams":{"A":{"a":1,"b":4},"B":{"a":4,"b":1},"C":{"a":2,"b":8},"D":{"a":8,"b":2}},"conditions":["nonSeqFull","nonSeqPartial","seqNoFeedback","seqFeedback"],"classroomPairings":[["A","B"],["C","D"]],"coinWeights":[0.2,0.5,0.8],"subjectId":"A2L5QFUJKKYE6G","assignmentId":"3I33IC7ZWGOEBEI7545PXMU2ULGA2S","hitId":"34KYK9TV2RUAD363EVFPUWVPB97SBP","url":"https://gershmanlab.com/experiments/alicia/teaching/experiment/?hitId=34KYK9TV2RUAD363EVFPUWVPB97SBP&workerId=A2L5QFUJKKYE6G&assignmentId=3I33IC7ZWGOEBEI7545PXMU2ULGA2S&a=ZI3I7&tp_a=ZI3I7&b=3I33IC7ZWGOEBEI7545PXMU2ULGA2S&tp_b=3I33IC7ZWGOEBEI7545PXMU2ULGA2S&c=365717&tp_c=365717","firstResponseHeads":4,"firstResponseTails":4,"secondResponseHeads":8,"secondResponseTails":8,"totalHeads":12,"totalTails":12,"studentIndex":2,"studentTrueHypers":{"a":8,"b":2},"studentGuess":0.5882352941176471,"delta":0.08823529411764708,"bonus":0,"bonusSoFar":0,"totalExamples":24},{"rt":36052,"response":{"heads":"4","tails":"12"},"type":"response","condition":"seqNoFeedback","trueTheta":0.8,"classrooms":["C","D"],"studentTrueClassroom":"D","exampleSet":"first","trial_type":"survey-html-form","trial_index":36,"time_elapsed":817771,"internal_node_id":"0.0-32.0-0.0","params":{"nStudents":24,"maxFlips":30,"completionMinutes":45,"basePay":8,"maxBonus":9,"perTrialBonus":0.5,"perTrialBonusThreshold":0.05,"exampleCost":0.01},"classroomParams":{"A":{"a":1,"b":4},"B":{"a":4,"b":1},"C":{"a":2,"b":8},"D":{"a":8,"b":2}},"conditions":["nonSeqFull","nonSeqPartial","seqNoFeedback","seqFeedback"],"classroomPairings":[["A","B"],["C","D"]],"coinWeights":[0.2,0.5,0.8],"subjectId":"A2L5QFUJKKYE6G","assignmentId":"3I33IC7ZWGOEBEI7545PXMU2ULGA2S","hitId":"34KYK9TV2RUAD363EVFPUWVPB97SBP","url":"https://gershmanlab.com/experiments/alicia/teaching/experiment/?hitId=34KYK9TV2RUAD363EVFPUWVPB97SBP&workerId=A2L5QFUJKKYE6G&assignmentId=3I33IC7ZWGOEBEI7545PXMU2ULGA2S&a=ZI3I7&tp_a=ZI3I7&b=3I33IC7ZWGOEBEI7545PXMU2ULGA2S&tp_b=3I33IC7ZWGOEBEI7545PXMU2ULGA2S&c=365717&tp_c=365717","heads":4,"tails":12,"studentIndex":3,"studentTrueHypers":{"a":8,"b":2},"studentGuess":0.46153846153846156,"delta":0.3384615384615385,"totalExamples":16,"bonusSoFar":0},{"rt":24715,"response":{"heads":"12","tails":"4"},"type":"response","condition":"seqNoFeedback","trueTheta":0.8,"classrooms":["C","D"],"studentTrueClassroom":"D","exampleSet":"second","trial_type":"survey-html-form","trial_index":39,"time_elapsed":849516,"internal_node_id":"0.0-35.0-0.0","params":{"nStudents":24,"maxFlips":30,"completionMinutes":45,"basePay":8,"maxBonus":9,"perTrialBonus":0.5,"perTrialBonusThreshold":0.05,"exampleCost":0.01},"classroomParams":{"A":{"a":1,"b":4},"B":{"a":4,"b":1},"C":{"a":2,"b":8},"D":{"a":8,"b":2}},"conditions":["nonSeqFull","nonSeqPartial","seqNoFeedback","seqFeedback"],"classroomPairings":[["A","B"],["C","D"]],"coinWeights":[0.2,0.5,0.8],"subjectId":"A2L5QFUJKKYE6G","assignmentId":"3I33IC7ZWGOEBEI7545PXMU2ULGA2S","hitId":"34KYK9TV2RUAD363EVFPUWVPB97SBP","url":"https://gershmanlab.com/experiments/alicia/teaching/experiment/?hitId=34KYK9TV2RUAD363EVFPUWVPB97SBP&workerId=A2L5QFUJKKYE6G&assignmentId=3I33IC7ZWGOEBEI7545PXMU2ULGA2S&a=ZI3I7&tp_a=ZI3I7&b=3I33IC7ZWGOEBEI7545PXMU2ULGA2S&tp_b=3I33IC7ZWGOEBEI7545PXMU2ULGA2S&c=365717&tp_c=365717","firstResponseHeads":4,"firstResponseTails":12,"secondResponseHeads":12,"secondResponseTails":4,"totalHeads":16,"totalTails":16,"studentIndex":3,"studentTrueHypers":{"a":8,"b":2},"studentGuess":0.5714285714285714,"delta":0.22857142857142865,"bonus":0,"bonusSoFar":0,"totalExamples":32},{"rt":15564,"response":{"heads":"10","tails":"5"},"type":"response","condition":"seqNoFeedback","trueTheta":0.5,"classrooms":["A","B"],"studentTrueClassroom":"A","exampleSet":"first","trial_type":"survey-html-form","trial_index":45,"time_elapsed":889243,"internal_node_id":"0.0-41.0-0.0","params":{"nStudents":24,"maxFlips":30,"completionMinutes":45,"basePay":8,"maxBonus":9,"perTrialBonus":0.5,"perTrialBonusThreshold":0.05,"exampleCost":0.01},"classroomParams":{"A":{"a":1,"b":4},"B":{"a":4,"b":1},"C":{"a":2,"b":8},"D":{"a":8,"b":2}},"conditions":["nonSeqFull","nonSeqPartial","seqNoFeedback","seqFeedback"],"classroomPairings":[["A","B"],["C","D"]],"coinWeights":[0.2,0.5,0.8],"subjectId":"A2L5QFUJKKYE6G","assignmentId":"3I33IC7ZWGOEBEI7545PXMU2ULGA2S","hitId":"34KYK9TV2RUAD363EVFPUWVPB97SBP","url":"https://gershmanlab.com/experiments/alicia/teaching/experiment/?hitId=34KYK9TV2RUAD363EVFPUWVPB97SBP&workerId=A2L5QFUJKKYE6G&assignmentId=3I33IC7ZWGOEBEI7545PXMU2ULGA2S&a=ZI3I7&tp_a=ZI3I7&b=3I33IC7ZWGOEBEI7545PXMU2ULGA2S&tp_b=3I33IC7ZWGOEBEI7545PXMU2ULGA2S&c=365717&tp_c=365717","heads":10,"tails":5,"studentIndex":4,"studentTrueHypers":{"a":1,"b":4},"studentGuess":0.55,"delta":0.050000000000000044,"totalExamples":15,"bonusSoFar":0},{"rt":15464,"response":{"heads":"10","tails":"5"},"type":"response","condition":"seqNoFeedback","trueTheta":0.5,"classrooms":["A","B"],"studentTrueClassroom":"A","exampleSet":"second","trial_type":"survey-html-form","trial_index":48,"time_elapsed":910495,"internal_node_id":"0.0-44.0-0.0","params":{"nStudents":24,"maxFlips":30,"completionMinutes":45,"basePay":8,"maxBonus":9,"perTrialBonus":0.5,"perTrialBonusThreshold":0.05,"exampleCost":0.01},"classroomParams":{"A":{"a":1,"b":4},"B":{"a":4,"b":1},"C":{"a":2,"b":8},"D":{"a":8,"b":2}},"conditions":["nonSeqFull","nonSeqPartial","seqNoFeedback","seqFeedback"],"classroomPairings":[["A","B"],["C","D"]],"coinWeights":[0.2,0.5,0.8],"subjectId":"A2L5QFUJKKYE6G","assignmentId":"3I33IC7ZWGOEBEI7545PXMU2ULGA2S","hitId":"34KYK9TV2RUAD363EVFPUWVPB97SBP","url":"https://gershmanlab.com/experiments/alicia/teaching/experiment/?hitId=34KYK9TV2RUAD363EVFPUWVPB97SBP&workerId=A2L5QFUJKKYE6G&assignmentId=3I33IC7ZWGOEBEI7545PXMU2ULGA2S&a=ZI3I7&tp_a=ZI3I7&b=3I33IC7ZWGOEBEI7545PXMU2ULGA2S&tp_b=3I33IC7ZWGOEBEI7545PXMU2ULGA2S&c=365717&tp_c=365717","firstResponseHeads":10,"firstResponseTails":5,"secondResponseHeads":10,"secondResponseTails":5,"totalHeads":20,"totalTails":10,"studentIndex":4,"studentTrueHypers":{"a":1,"b":4},"studentGuess":0.6,"delta":0.09999999999999998,"bonus":0,"bonusSoFar":0,"totalExamples":30},{"rt":26519,"response":{"heads":"10","tails":"10"},"type":"response","condition":"nonSeqPartial","trueTheta":0.5,"classrooms":["C","D"],"studentTrueClassroom":"D","exampleSet":"first","trial_type":"survey-html-form","trial_index":54,"time_elapsed":955479,"internal_node_id":"0.0-50.0-0.0","params":{"nStudents":24,"maxFlips":30,"completionMinutes":45,"basePay":8,"maxBonus":9,"perTrialBonus":0.5,"perTrialBonusThreshold":0.05,"exampleCost":0.01},"classroomParams":{"A":{"a":1,"b":4},"B":{"a":4,"b":1},"C":{"a":2,"b":8},"D":{"a":8,"b":2}},"conditions":["nonSeqFull","nonSeqPartial","seqNoFeedback","seqFeedback"],"classroomPairings":[["A","B"],["C","D"]],"coinWeights":[0.2,0.5,0.8],"subjectId":"A2L5QFUJKKYE6G","assignmentId":"3I33IC7ZWGOEBEI7545PXMU2ULGA2S","hitId":"34KYK9TV2RUAD363EVFPUWVPB97SBP","url":"https://gershmanlab.com/experiments/alicia/teaching/experiment/?hitId=34KYK9TV2RUAD363EVFPUWVPB97SBP&workerId=A2L5QFUJKKYE6G&assignmentId=3I33IC7ZWGOEBEI7545PXMU2ULGA2S&a=ZI3I7&tp_a=ZI3I7&b=3I33IC7ZWGOEBEI7545PXMU2ULGA2S&tp_b=3I33IC7ZWGOEBEI7545PXMU2ULGA2S&c=365717&tp_c=365717","heads":10,"tails":10,"studentIndex":5,"studentTrueHypers":{"a":8,"b":2},"studentGuess":0.6,"delta":0.09999999999999998,"totalExamples":20,"bonus":0,"bonusSoFar":0},{"rt":13976,"response":{"heads":"1","tails":"3"},"type":"response","condition":"seqNoFeedback","trueTheta":0.2,"classrooms":["A","B"],"studentTrueClassroom":"B","exampleSet":"first","trial_type":"survey-html-form","trial_index":60,"time_elapsed":982265,"internal_node_id":"0.0-56.0-0.0","params":{"nStudents":24,"maxFlips":30,"completionMinutes":45,"basePay":8,"maxBonus":9,"perTrialBonus":0.5,"perTrialBonusThreshold":0.05,"exampleCost":0.01},"classroomParams":{"A":{"a":1,"b":4},"B":{"a":4,"b":1},"C":{"a":2,"b":8},"D":{"a":8,"b":2}},"conditions":["nonSeqFull","nonSeqPartial","seqNoFeedback","seqFeedback"],"classroomPairings":[["A","B"],["C","D"]],"coinWeights":[0.2,0.5,0.8],"subjectId":"A2L5QFUJKKYE6G","assignmentId":"3I33IC7ZWGOEBEI7545PXMU2ULGA2S","hitId":"34KYK9TV2RUAD363EVFPUWVPB97SBP","url":"https://gershmanlab.com/experiments/alicia/teaching/experiment/?hitId=34KYK9TV2RUAD363EVFPUWVPB97SBP&workerId=A2L5QFUJKKYE6G&assignmentId=3I33IC7ZWGOEBEI7545PXMU2ULGA2S&a=ZI3I7&tp_a=ZI3I7&b=3I33IC7ZWGOEBEI7545PXMU2ULGA2S&tp_b=3I33IC7ZWGOEBEI7545PXMU2ULGA2S&c=365717&tp_c=365717","heads":1,"tails":3,"studentIndex":6,"studentTrueHypers":{"a":4,"b":1},"studentGuess":0.5555555555555556,"delta":0.35555555555555557,"totalExamples":4,"bonusSoFar":0},{"rt":8521,"response":{"heads":"1","tails":"3"},"type":"response","condition":"seqNoFeedback","trueTheta":0.2,"classrooms":["A","B"],"studentTrueClassroom":"B","exampleSet":"second","trial_type":"survey-html-form","trial_index":63,"time_elapsed":997552,"internal_node_id":"0.0-59.0-0.0","params":{"nStudents":24,"maxFlips":30,"completionMinutes":45,"basePay":8,"maxBonus":9,"perTrialBonus":0.5,"perTrialBonusThreshold":0.05,"exampleCost":0.01},"classroomParams":{"A":{"a":1,"b":4},"B":{"a":4,"b":1},"C":{"a":2,"b":8},"D":{"a":8,"b":2}},"conditions":["nonSeqFull","nonSeqPartial","seqNoFeedback","seqFeedback"],"classroomPairings":[["A","B"],["C","D"]],"coinWeights":[0.2,0.5,0.8],"subjectId":"A2L5QFUJKKYE6G","assignmentId":"3I33IC7ZWGOEBEI7545PXMU2ULGA2S","hitId":"34KYK9TV2RUAD363EVFPUWVPB97SBP","url":"https://gershmanlab.com/experiments/alicia/teaching/experiment/?hitId=34KYK9TV2RUAD363EVFPUWVPB97SBP&workerId=A2L5QFUJKKYE6G&assignmentId=3I33IC7ZWGOEBEI7545PXMU2ULGA2S&a=ZI3I7&tp_a=ZI3I7&b=3I33IC7ZWGOEBEI7545PXMU2ULGA2S&tp_b=3I33IC7ZWGOEBEI7545PXMU2ULGA2S&c=365717&tp_c=365717","firstResponseHeads":1,"firstResponseTails":3,"secondResponseHeads":1,"secondResponseTails":3,"totalHeads":2,"totalTails":6,"studentIndex":6,"studentTrueHypers":{"a":4,"b":1},"studentGuess":0.46153846153846156,"delta":0.26153846153846155,"bonus":0,"bonusSoFar":0,"totalExamples":8},{"rt":7791,"response":{"heads":"2","tails":"4"},"type":"response","condition":"nonSeqFull","trueTheta":0.2,"classrooms":["A","B"],"studentTrueClassroom":"A","exampleSet":"first","trial_type":"survey-html-form","trial_index":69,"time_elapsed":1027205,"internal_node_id":"0.0-65.0-0.0","params":{"nStudents":24,"maxFlips":30,"completionMinutes":45,"basePay":8,"maxBonus":9,"perTrialBonus":0.5,"perTrialBonusThreshold":0.05,"exampleCost":0.01},"classroomParams":{"A":{"a":1,"b":4},"B":{"a":4,"b":1},"C":{"a":2,"b":8},"D":{"a":8,"b":2}},"conditions":["nonSeqFull","nonSeqPartial","seqNoFeedback","seqFeedback"],"classroomPairings":[["A","B"],["C","D"]],"coinWeights":[0.2,0.5,0.8],"subjectId":"A2L5QFUJKKYE6G","assignmentId":"3I33IC7ZWGOEBEI7545PXMU2ULGA2S","hitId":"34KYK9TV2RUAD363EVFPUWVPB97SBP","url":"https://gershmanlab.com/experiments/alicia/teaching/experiment/?hitId=34KYK9TV2RUAD363EVFPUWVPB97SBP&workerId=A2L5QFUJKKYE6G&assignmentId=3I33IC7ZWGOEBEI7545PXMU2ULGA2S&a=ZI3I7&tp_a=ZI3I7&b=3I33IC7ZWGOEBEI7545PXMU2ULGA2S&tp_b=3I33IC7ZWGOEBEI7545PXMU2ULGA2S&c=365717&tp_c=365717","heads":2,"tails":4,"studentIndex":7,"studentTrueHypers":{"a":1,"b":4},"studentGuess":0.2727272727272727,"delta":0.0727272727272727,"totalExamples":6,"bonus":0,"bonusSoFar":0},{"rt":20706,"response":{"heads":"8","tails":"2"},"type":"response","condition":"nonSeqFull","trueTheta":0.8,"classrooms":["C","D"],"studentTrueClassroom":"C","exampleSet":"first","trial_type":"survey-html-form","trial_index":75,"time_elapsed":1063044,"internal_node_id":"0.0-71.0-0.0","params":{"nStudents":24,"maxFlips":30,"completionMinutes":45,"basePay":8,"maxBonus":9,"perTrialBonus":0.5,"perTrialBonusThreshold":0.05,"exampleCost":0.01},"classroomParams":{"A":{"a":1,"b":4},"B":{"a":4,"b":1},"C":{"a":2,"b":8},"D":{"a":8,"b":2}},"conditions":["nonSeqFull","nonSeqPartial","seqNoFeedback","seqFeedback"],"classroomPairings":[["A","B"],["C","D"]],"coinWeights":[0.2,0.5,0.8],"subjectId":"A2L5QFUJKKYE6G","assignmentId":"3I33IC7ZWGOEBEI7545PXMU2ULGA2S","hitId":"34KYK9TV2RUAD363EVFPUWVPB97SBP","url":"https://gershmanlab.com/experiments/alicia/teaching/experiment/?hitId=34KYK9TV2RUAD363EVFPUWVPB97SBP&workerId=A2L5QFUJKKYE6G&assignmentId=3I33IC7ZWGOEBEI7545PXMU2ULGA2S&a=ZI3I7&tp_a=ZI3I7&b=3I33IC7ZWGOEBEI7545PXMU2ULGA2S&tp_b=3I33IC7ZWGOEBEI7545PXMU2ULGA2S&c=365717&tp_c=365717","heads":8,"tails":2,"studentIndex":8,"studentTrueHypers":{"a":2,"b":8},"studentGuess":0.5,"delta":0.30000000000000004,"totalExamples":10,"bonus":0,"bonusSoFar":0},{"rt":7061,"response":{"heads":"1","tails":"4"},"type":"response","condition":"nonSeqPartial","trueTheta":0.2,"classrooms":["A","B"],"studentTrueClassroom":"B","exampleSet":"first","trial_type":"survey-html-form","trial_index":81,"time_elapsed":1089794,"internal_node_id":"0.0-77.0-0.0","params":{"nStudents":24,"maxFlips":30,"completionMinutes":45,"basePay":8,"maxBonus":9,"perTrialBonus":0.5,"perTrialBonusThreshold":0.05,"exampleCost":0.01},"classroomParams":{"A":{"a":1,"b":4},"B":{"a":4,"b":1},"C":{"a":2,"b":8},"D":{"a":8,"b":2}},"conditions":["nonSeqFull","nonSeqPartial","seqNoFeedback","seqFeedback"],"classroomPairings":[["A","B"],["C","D"]],"coinWeights":[0.2,0.5,0.8],"subjectId":"A2L5QFUJKKYE6G","assignmentId":"3I33IC7ZWGOEBEI7545PXMU2ULGA2S","hitId":"34KYK9TV2RUAD363EVFPUWVPB97SBP","url":"https://gershmanlab.com/experiments/alicia/teaching/experiment/?hitId=34KYK9TV2RUAD363EVFPUWVPB97SBP&workerId=A2L5QFUJKKYE6G&assignmentId=3I33IC7ZWGOEBEI7545PXMU2ULGA2S&a=ZI3I7&tp_a=ZI3I7&b=3I33IC7ZWGOEBEI7545PXMU2ULGA2S&tp_b=3I33IC7ZWGOEBEI7545PXMU2ULGA2S&c=365717&tp_c=365717","heads":1,"tails":4,"studentIndex":9,"studentTrueHypers":{"a":4,"b":1},"studentGuess":0.5,"delta":0.3,"totalExamples":5,"bonus":0,"bonusSoFar":0},{"rt":15395,"response":{"heads":"2","tails":"8"},"type":"response","condition":"seqNoFeedback","trueTheta":0.5,"classrooms":["C","D"],"studentTrueClassroom":"D","exampleSet":"first","trial_type":"survey-html-form","trial_index":87,"time_elapsed":1117771,"internal_node_id":"0.0-83.0-0.0","params":{"nStudents":24,"maxFlips":30,"completionMinutes":45,"basePay":8,"maxBonus":9,"perTrialBonus":0.5,"perTrialBonusThreshold":0.05,"exampleCost":0.01},"classroomParams":{"A":{"a":1,"b":4},"B":{"a":4,"b":1},"C":{"a":2,"b":8},"D":{"a":8,"b":2}},"conditions":["nonSeqFull","nonSeqPartial","seqNoFeedback","seqFeedback"],"classroomPairings":[["A","B"],["C","D"]],"coinWeights":[0.2,0.5,0.8],"subjectId":"A2L5QFUJKKYE6G","assignmentId":"3I33IC7ZWGOEBEI7545PXMU2ULGA2S","hitId":"34KYK9TV2RUAD363EVFPUWVPB97SBP","url":"https://gershmanlab.com/experiments/alicia/teaching/experiment/?hitId=34KYK9TV2RUAD363EVFPUWVPB97SBP&workerId=A2L5QFUJKKYE6G&assignmentId=3I33IC7ZWGOEBEI7545PXMU2ULGA2S&a=ZI3I7&tp_a=ZI3I7&b=3I33IC7ZWGOEBEI7545PXMU2ULGA2S&tp_b=3I33IC7ZWGOEBEI7545PXMU2ULGA2S&c=365717&tp_c=365717","heads":2,"tails":8,"studentIndex":10,"studentTrueHypers":{"a":8,"b":2},"studentGuess":0.5,"delta":0,"totalExamples":10,"bonusSoFar":0},{"rt":16645,"response":{"heads":"1","tails":"1"},"type":"response","condition":"seqNoFeedback","trueTheta":0.5,"classrooms":["C","D"],"studentTrueClassroom":"D","exampleSet":"second","trial_type":"survey-html-form","trial_index":90,"time_elapsed":1140455,"internal_node_id":"0.0-86.0-0.0","params":{"nStudents":24,"maxFlips":30,"completionMinutes":45,"basePay":8,"maxBonus":9,"perTrialBonus":0.5,"perTrialBonusThreshold":0.05,"exampleCost":0.01},"classroomParams":{"A":{"a":1,"b":4},"B":{"a":4,"b":1},"C":{"a":2,"b":8},"D":{"a":8,"b":2}},"conditions":["nonSeqFull","nonSeqPartial","seqNoFeedback","seqFeedback"],"classroomPairings":[["A","B"],["C","D"]],"coinWeights":[0.2,0.5,0.8],"subjectId":"A2L5QFUJKKYE6G","assignmentId":"3I33IC7ZWGOEBEI7545PXMU2ULGA2S","hitId":"34KYK9TV2RUAD363EVFPUWVPB97SBP","url":"https://gershmanlab.com/experiments/alicia/teaching/experiment/?hitId=34KYK9TV2RUAD363EVFPUWVPB97SBP&workerId=A2L5QFUJKKYE6G&assignmentId=3I33IC7ZWGOEBEI7545PXMU2ULGA2S&a=ZI3I7&tp_a=ZI3I7&b=3I33IC7ZWGOEBEI7545PXMU2ULGA2S&tp_b=3I33IC7ZWGOEBEI7545PXMU2ULGA2S&c=365717&tp_c=365717","firstResponseHeads":2,"firstResponseTails":8,"secondResponseHeads":1,"secondResponseTails":1,"totalHeads":3,"totalTails":9,"studentIndex":10,"studentTrueHypers":{"a":8,"b":2},"studentGuess":0.5,"delta":0,"bonus":0.38,"bonusSoFar":0.38,"totalExamples":12},{"rt":9455,"response":{"heads":"1","tails":"1"},"type":"response","condition":"nonSeqFull","trueTheta":0.5,"classrooms":["C","D"],"studentTrueClassroom":"C","exampleSet":"first","trial_type":"survey-html-form","trial_index":96,"time_elapsed":1176703,"internal_node_id":"0.0-92.0-0.0","params":{"nStudents":24,"maxFlips":30,"completionMinutes":45,"basePay":8,"maxBonus":9,"perTrialBonus":0.5,"perTrialBonusThreshold":0.05,"exampleCost":0.01},"classroomParams":{"A":{"a":1,"b":4},"B":{"a":4,"b":1},"C":{"a":2,"b":8},"D":{"a":8,"b":2}},"conditions":["nonSeqFull","nonSeqPartial","seqNoFeedback","seqFeedback"],"classroomPairings":[["A","B"],["C","D"]],"coinWeights":[0.2,0.5,0.8],"subjectId":"A2L5QFUJKKYE6G","assignmentId":"3I33IC7ZWGOEBEI7545PXMU2ULGA2S","hitId":"34KYK9TV2RUAD363EVFPUWVPB97SBP","url":"https://gershmanlab.com/experiments/alicia/teaching/experiment/?hitId=34KYK9TV2RUAD363EVFPUWVPB97SBP&workerId=A2L5QFUJKKYE6G&assignmentId=3I33IC7ZWGOEBEI7545PXMU2ULGA2S&a=ZI3I7&tp_a=ZI3I7&b=3I33IC7ZWGOEBEI7545PXMU2ULGA2S&tp_b=3I33IC7ZWGOEBEI7545PXMU2ULGA2S&c=365717&tp_c=365717","heads":1,"tails":1,"studentIndex":11,"studentTrueHypers":{"a":2,"b":8},"studentGuess":0.25,"delta":0.25,"totalExamples":2,"bonus":0,"bonusSoFar":0.38},{"rt":43032,"response":{"heads":"6","tails":"24"},"type":"response","condition":"nonSeqPartial","trueTheta":0.8,"classrooms":["C","D"],"studentTrueClassroom":"C","exampleSet":"first","trial_type":"survey-html-form","trial_index":102,"time_elapsed":1238962,"internal_node_id":"0.0-98.0-0.0","params":{"nStudents":24,"maxFlips":30,"completionMinutes":45,"basePay":8,"maxBonus":9,"perTrialBonus":0.5,"perTrialBonusThreshold":0.05,"exampleCost":0.01},"classroomParams":{"A":{"a":1,"b":4},"B":{"a":4,"b":1},"C":{"a":2,"b":8},"D":{"a":8,"b":2}},"conditions":["nonSeqFull","nonSeqPartial","seqNoFeedback","seqFeedback"],"classroomPairings":[["A","B"],["C","D"]],"coinWeights":[0.2,0.5,0.8],"subjectId":"A2L5QFUJKKYE6G","assignmentId":"3I33IC7ZWGOEBEI7545PXMU2ULGA2S","hitId":"34KYK9TV2RUAD363EVFPUWVPB97SBP","url":"https://gershmanlab.com/experiments/alicia/teaching/experiment/?hitId=34KYK9TV2RUAD363EVFPUWVPB97SBP&workerId=A2L5QFUJKKYE6G&assignmentId=3I33IC7ZWGOEBEI7545PXMU2ULGA2S&a=ZI3I7&tp_a=ZI3I7&b=3I33IC7ZWGOEBEI7545PXMU2ULGA2S&tp_b=3I33IC7ZWGOEBEI7545PXMU2ULGA2S&c=365717&tp_c=365717","heads":6,"tails":24,"studentIndex":12,"studentTrueHypers":{"a":2,"b":8},"studentGuess":0.2,"delta":0.6000000000000001,"totalExamples":30,"bonus":0,"bonusSoFar":0.38},{"rt":24361,"response":{"heads":"24","tails":"6"},"type":"response","condition":"seqNoFeedback","trueTheta":0.8,"classrooms":["A","B"],"studentTrueClassroom":"A","exampleSet":"first","trial_type":"survey-html-form","trial_index":108,"time_elapsed":1287603,"internal_node_id":"0.0-104.0-0.0","params":{"nStudents":24,"maxFlips":30,"completionMinutes":45,"basePay":8,"maxBonus":9,"perTrialBonus":0.5,"perTrialBonusThreshold":0.05,"exampleCost":0.01},"classroomParams":{"A":{"a":1,"b":4},"B":{"a":4,"b":1},"C":{"a":2,"b":8},"D":{"a":8,"b":2}},"conditions":["nonSeqFull","nonSeqPartial","seqNoFeedback","seqFeedback"],"classroomPairings":[["A","B"],["C","D"]],"coinWeights":[0.2,0.5,0.8],"subjectId":"A2L5QFUJKKYE6G","assignmentId":"3I33IC7ZWGOEBEI7545PXMU2ULGA2S","hitId":"34KYK9TV2RUAD363EVFPUWVPB97SBP","url":"https://gershmanlab.com/experiments/alicia/teaching/experiment/?hitId=34KYK9TV2RUAD363EVFPUWVPB97SBP&workerId=A2L5QFUJKKYE6G&assignmentId=3I33IC7ZWGOEBEI7545PXMU2ULGA2S&a=ZI3I7&tp_a=ZI3I7&b=3I33IC7ZWGOEBEI7545PXMU2ULGA2S&tp_b=3I33IC7ZWGOEBEI7545PXMU2ULGA2S&c=365717&tp_c=365717","heads":24,"tails":6,"studentIndex":13,"studentTrueHypers":{"a":1,"b":4},"studentGuess":0.7142857142857143,"delta":0.08571428571428574,"totalExamples":30,"bonusSoFar":0.38},{"rt":28517,"response":{"heads":"24","tails":"6"},"type":"response","condition":"seqNoFeedback","trueTheta":0.8,"classrooms":["A","B"],"studentTrueClassroom":"A","exampleSet":"second","trial_type":"survey-html-form","trial_index":111,"time_elapsed":1323139,"internal_node_id":"0.0-107.0-0.0","params":{"nStudents":24,"maxFlips":30,"completionMinutes":45,"basePay":8,"maxBonus":9,"perTrialBonus":0.5,"perTrialBonusThreshold":0.05,"exampleCost":0.01},"classroomParams":{"A":{"a":1,"b":4},"B":{"a":4,"b":1},"C":{"a":2,"b":8},"D":{"a":8,"b":2}},"conditions":["nonSeqFull","nonSeqPartial","seqNoFeedback","seqFeedback"],"classroomPairings":[["A","B"],["C","D"]],"coinWeights":[0.2,0.5,0.8],"subjectId":"A2L5QFUJKKYE6G","assignmentId":"3I33IC7ZWGOEBEI7545PXMU2ULGA2S","hitId":"34KYK9TV2RUAD363EVFPUWVPB97SBP","url":"https://gershmanlab.com/experiments/alicia/teaching/experiment/?hitId=34KYK9TV2RUAD363EVFPUWVPB97SBP&workerId=A2L5QFUJKKYE6G&assignmentId=3I33IC7ZWGOEBEI7545PXMU2ULGA2S&a=ZI3I7&tp_a=ZI3I7&b=3I33IC7ZWGOEBEI7545PXMU2ULGA2S&tp_b=3I33IC7ZWGOEBEI7545PXMU2ULGA2S&c=365717&tp_c=365717","firstResponseHeads":24,"firstResponseTails":6,"secondResponseHeads":24,"secondResponseTails":6,"totalHeads":48,"totalTails":12,"studentIndex":13,"studentTrueHypers":{"a":1,"b":4},"studentGuess":0.7538461538461538,"delta":0.04615384615384621,"bonus":0,"bonusSoFar":0.38,"totalExamples":60},{"rt":19785,"response":{"heads":"2","tails":"8"},"type":"response","condition":"seqFeedback","trueTheta":0.2,"classrooms":["C","D"],"studentTrueClassroom":"D","exampleSet":"first","trial_type":"survey-html-form","trial_index":117,"time_elapsed":1441996,"internal_node_id":"0.0-113.0-0.0","params":{"nStudents":24,"maxFlips":30,"completionMinutes":45,"basePay":8,"maxBonus":9,"perTrialBonus":0.5,"perTrialBonusThreshold":0.05,"exampleCost":0.01},"classroomParams":{"A":{"a":1,"b":4},"B":{"a":4,"b":1},"C":{"a":2,"b":8},"D":{"a":8,"b":2}},"conditions":["nonSeqFull","nonSeqPartial","seqNoFeedback","seqFeedback"],"classroomPairings":[["A","B"],["C","D"]],"coinWeights":[0.2,0.5,0.8],"subjectId":"A2L5QFUJKKYE6G","assignmentId":"3I33IC7ZWGOEBEI7545PXMU2ULGA2S","hitId":"34KYK9TV2RUAD363EVFPUWVPB97SBP","url":"https://gershmanlab.com/experiments/alicia/teaching/experiment/?hitId=34KYK9TV2RUAD363EVFPUWVPB97SBP&workerId=A2L5QFUJKKYE6G&assignmentId=3I33IC7ZWGOEBEI7545PXMU2ULGA2S&a=ZI3I7&tp_a=ZI3I7&b=3I33IC7ZWGOEBEI7545PXMU2ULGA2S&tp_b=3I33IC7ZWGOEBEI7545PXMU2ULGA2S&c=365717&tp_c=365717","heads":2,"tails":8,"studentIndex":14,"studentTrueHypers":{"a":8,"b":2},"studentGuess":0.5,"delta":0.3,"totalExamples":10,"bonusSoFar":0.38},{"rt":33655,"response":{"heads":"0","tails":"0"},"type":"response","condition":"seqFeedback","trueTheta":0.2,"classrooms":["C","D"],"studentTrueClassroom":"D","exampleSet":"second","trial_type":"survey-html-form","trial_index":121,"time_elapsed":1491311,"internal_node_id":"0.0-117.0-0.0","params":{"nStudents":24,"maxFlips":30,"completionMinutes":45,"basePay":8,"maxBonus":9,"perTrialBonus":0.5,"perTrialBonusThreshold":0.05,"exampleCost":0.01},"classroomParams":{"A":{"a":1,"b":4},"B":{"a":4,"b":1},"C":{"a":2,"b":8},"D":{"a":8,"b":2}},"conditions":["nonSeqFull","nonSeqPartial","seqNoFeedback","seqFeedback"],"classroomPairings":[["A","B"],["C","D"]],"coinWeights":[0.2,0.5,0.8],"subjectId":"A2L5QFUJKKYE6G","assignmentId":"3I33IC7ZWGOEBEI7545PXMU2ULGA2S","hitId":"34KYK9TV2RUAD363EVFPUWVPB97SBP","url":"https://gershmanlab.com/experiments/alicia/teaching/experiment/?hitId=34KYK9TV2RUAD363EVFPUWVPB97SBP&workerId=A2L5QFUJKKYE6G&assignmentId=3I33IC7ZWGOEBEI7545PXMU2ULGA2S&a=ZI3I7&tp_a=ZI3I7&b=3I33IC7ZWGOEBEI7545PXMU2ULGA2S&tp_b=3I33IC7ZWGOEBEI7545PXMU2ULGA2S&c=365717&tp_c=365717","firstResponseHeads":2,"firstResponseTails":8,"secondResponseHeads":0,"secondResponseTails":0,"totalHeads":2,"totalTails":8,"studentIndex":14,"studentTrueHypers":{"a":8,"b":2},"studentGuess":0.5,"delta":0.3,"bonus":0,"bonusSoFar":0.38,"totalExamples":10},{"rt":3278,"response":{"heads":"0","tails":"0"},"type":"response","condition":"seqFeedback","trueTheta":0.2,"classrooms":["C","D"],"studentTrueClassroom":"D","exampleSet":"second","trial_type":"survey-html-form","trial_index":122,"time_elapsed":1494593,"internal_node_id":"0.0-117.1-0.1","params":{"nStudents":24,"maxFlips":30,"completionMinutes":45,"basePay":8,"maxBonus":9,"perTrialBonus":0.5,"perTrialBonusThreshold":0.05,"exampleCost":0.01},"classroomParams":{"A":{"a":1,"b":4},"B":{"a":4,"b":1},"C":{"a":2,"b":8},"D":{"a":8,"b":2}},"conditions":["nonSeqFull","nonSeqPartial","seqNoFeedback","seqFeedback"],"classroomPairings":[["A","B"],["C","D"]],"coinWeights":[0.2,0.5,0.8],"subjectId":"A2L5QFUJKKYE6G","assignmentId":"3I33IC7ZWGOEBEI7545PXMU2ULGA2S","hitId":"34KYK9TV2RUAD363EVFPUWVPB97SBP","url":"https://gershmanlab.com/experiments/alicia/teaching/experiment/?hitId=34KYK9TV2RUAD363EVFPUWVPB97SBP&workerId=A2L5QFUJKKYE6G&assignmentId=3I33IC7ZWGOEBEI7545PXMU2ULGA2S&a=ZI3I7&tp_a=ZI3I7&b=3I33IC7ZWGOEBEI7545PXMU2ULGA2S&tp_b=3I33IC7ZWGOEBEI7545PXMU2ULGA2S&c=365717&tp_c=365717","firstResponseHeads":2,"firstResponseTails":8,"secondResponseHeads":0,"secondResponseTails":0,"totalHeads":2,"totalTails":8,"studentIndex":14,"studentTrueHypers":{"a":8,"b":2},"studentGuess":0.5,"delta":0.3,"bonus":0,"bonusSoFar":0.38,"totalExamples":10},{"rt":4273,"response":{"heads":"1","tails":"1"},"type":"response","condition":"seqFeedback","trueTheta":0.2,"classrooms":["C","D"],"studentTrueClassroom":"D","exampleSet":"second","trial_type":"survey-html-form","trial_index":123,"time_elapsed":1498868,"internal_node_id":"0.0-117.2-0.2","params":{"nStudents":24,"maxFlips":30,"completionMinutes":45,"basePay":8,"maxBonus":9,"perTrialBonus":0.5,"perTrialBonusThreshold":0.05,"exampleCost":0.01},"classroomParams":{"A":{"a":1,"b":4},"B":{"a":4,"b":1},"C":{"a":2,"b":8},"D":{"a":8,"b":2}},"conditions":["nonSeqFull","nonSeqPartial","seqNoFeedback","seqFeedback"],"classroomPairings":[["A","B"],["C","D"]],"coinWeights":[0.2,0.5,0.8],"subjectId":"A2L5QFUJKKYE6G","assignmentId":"3I33IC7ZWGOEBEI7545PXMU2ULGA2S","hitId":"34KYK9TV2RUAD363EVFPUWVPB97SBP","url":"https://gershmanlab.com/experiments/alicia/teaching/experiment/?hitId=34KYK9TV2RUAD363EVFPUWVPB97SBP&workerId=A2L5QFUJKKYE6G&assignmentId=3I33IC7ZWGOEBEI7545PXMU2ULGA2S&a=ZI3I7&tp_a=ZI3I7&b=3I33IC7ZWGOEBEI7545PXMU2ULGA2S&tp_b=3I33IC7ZWGOEBEI7545PXMU2ULGA2S&c=365717&tp_c=365717","firstResponseHeads":2,"firstResponseTails":8,"secondResponseHeads":1,"secondResponseTails":1,"totalHeads":3,"totalTails":9,"studentIndex":14,"studentTrueHypers":{"a":8,"b":2},"studentGuess":0.5,"delta":0.3,"bonus":0,"bonusSoFar":0.38,"totalExamples":12},{"rt":13844,"response":{"heads":"1","tails":"1"},"type":"response","condition":"seqFeedback","trueTheta":0.5,"classrooms":["A","B"],"studentTrueClassroom":"A","exampleSet":"first","trial_type":"survey-html-form","trial_index":129,"time_elapsed":1659151,"internal_node_id":"0.0-123.0-0.0","params":{"nStudents":24,"maxFlips":30,"completionMinutes":45,"basePay":8,"maxBonus":9,"perTrialBonus":0.5,"perTrialBonusThreshold":0.05,"exampleCost":0.01},"classroomParams":{"A":{"a":1,"b":4},"B":{"a":4,"b":1},"C":{"a":2,"b":8},"D":{"a":8,"b":2}},"conditions":["nonSeqFull","nonSeqPartial","seqNoFeedback","seqFeedback"],"classroomPairings":[["A","B"],["C","D"]],"coinWeights":[0.2,0.5,0.8],"subjectId":"A2L5QFUJKKYE6G","assignmentId":"3I33IC7ZWGOEBEI7545PXMU2ULGA2S","hitId":"34KYK9TV2RUAD363EVFPUWVPB97SBP","url":"https://gershmanlab.com/experiments/alicia/teaching/experiment/?hitId=34KYK9TV2RUAD363EVFPUWVPB97SBP&workerId=A2L5QFUJKKYE6G&assignmentId=3I33IC7ZWGOEBEI7545PXMU2ULGA2S&a=ZI3I7&tp_a=ZI3I7&b=3I33IC7ZWGOEBEI7545PXMU2ULGA2S&tp_b=3I33IC7ZWGOEBEI7545PXMU2ULGA2S&c=365717&tp_c=365717","heads":1,"tails":1,"studentIndex":15,"studentTrueHypers":{"a":1,"b":4},"studentGuess":0.2857142857142857,"delta":0.2142857142857143,"totalExamples":2,"bonusSoFar":0.38},{"rt":9940,"response":{"heads":"1","tails":"2"},"type":"response","condition":"seqFeedback","trueTheta":0.5,"classrooms":["A","B"],"studentTrueClassroom":"A","exampleSet":"second","trial_type":"survey-html-form","trial_index":133,"time_elapsed":1690095,"internal_node_id":"0.0-127.0-0.0","params":{"nStudents":24,"maxFlips":30,"completionMinutes":45,"basePay":8,"maxBonus":9,"perTrialBonus":0.5,"perTrialBonusThreshold":0.05,"exampleCost":0.01},"classroomParams":{"A":{"a":1,"b":4},"B":{"a":4,"b":1},"C":{"a":2,"b":8},"D":{"a":8,"b":2}},"conditions":["nonSeqFull","nonSeqPartial","seqNoFeedback","seqFeedback"],"classroomPairings":[["A","B"],["C","D"]],"coinWeights":[0.2,0.5,0.8],"subjectId":"A2L5QFUJKKYE6G","assignmentId":"3I33IC7ZWGOEBEI7545PXMU2ULGA2S","hitId":"34KYK9TV2RUAD363EVFPUWVPB97SBP","url":"https://gershmanlab.com/experiments/alicia/teaching/experiment/?hitId=34KYK9TV2RUAD363EVFPUWVPB97SBP&workerId=A2L5QFUJKKYE6G&assignmentId=3I33IC7ZWGOEBEI7545PXMU2ULGA2S&a=ZI3I7&tp_a=ZI3I7&b=3I33IC7ZWGOEBEI7545PXMU2ULGA2S&tp_b=3I33IC7ZWGOEBEI7545PXMU2ULGA2S&c=365717&tp_c=365717","firstResponseHeads":1,"firstResponseTails":1,"secondResponseHeads":1,"secondResponseTails":2,"totalHeads":2,"totalTails":3,"studentIndex":15,"studentTrueHypers":{"a":1,"b":4},"studentGuess":0.3,"delta":0.2,"bonus":0,"bonusSoFar":0.38,"totalExamples":5},{"rt":25515,"response":{"heads":"8","tails":"2"},"type":"response","condition":"nonSeqFull","trueTheta":0.8,"classrooms":["A","B"],"studentTrueClassroom":"B","exampleSet":"first","trial_type":"survey-html-form","trial_index":139,"time_elapsed":2097371,"internal_node_id":"0.0-133.0-0.0","params":{"nStudents":24,"maxFlips":30,"completionMinutes":45,"basePay":8,"maxBonus":9,"perTrialBonus":0.5,"perTrialBonusThreshold":0.05,"exampleCost":0.01},"classroomParams":{"A":{"a":1,"b":4},"B":{"a":4,"b":1},"C":{"a":2,"b":8},"D":{"a":8,"b":2}},"conditions":["nonSeqFull","nonSeqPartial","seqNoFeedback","seqFeedback"],"classroomPairings":[["A","B"],["C","D"]],"coinWeights":[0.2,0.5,0.8],"subjectId":"A2L5QFUJKKYE6G","assignmentId":"3I33IC7ZWGOEBEI7545PXMU2ULGA2S","hitId":"34KYK9TV2RUAD363EVFPUWVPB97SBP","url":"https://gershmanlab.com/experiments/alicia/teaching/experiment/?hitId=34KYK9TV2RUAD363EVFPUWVPB97SBP&workerId=A2L5QFUJKKYE6G&assignmentId=3I33IC7ZWGOEBEI7545PXMU2ULGA2S&a=ZI3I7&tp_a=ZI3I7&b=3I33IC7ZWGOEBEI7545PXMU2ULGA2S&tp_b=3I33IC7ZWGOEBEI7545PXMU2ULGA2S&c=365717&tp_c=365717","heads":8,"tails":2,"studentIndex":16,"studentTrueHypers":{"a":4,"b":1},"studentGuess":0.8,"delta":0,"totalExamples":10,"bonus":0.4,"bonusSoFar":0.78},{"rt":42016,"response":{"heads":"2","tails":"2"},"type":"response","condition":"nonSeqPartial","trueTheta":0.5,"classrooms":["A","B"],"studentTrueClassroom":"A","exampleSet":"first","trial_type":"survey-html-form","trial_index":145,"time_elapsed":2222418,"internal_node_id":"0.0-139.0-0.0","params":{"nStudents":24,"maxFlips":30,"completionMinutes":45,"basePay":8,"maxBonus":9,"perTrialBonus":0.5,"perTrialBonusThreshold":0.05,"exampleCost":0.01},"classroomParams":{"A":{"a":1,"b":4},"B":{"a":4,"b":1},"C":{"a":2,"b":8},"D":{"a":8,"b":2}},"conditions":["nonSeqFull","nonSeqPartial","seqNoFeedback","seqFeedback"],"classroomPairings":[["A","B"],["C","D"]],"coinWeights":[0.2,0.5,0.8],"subjectId":"A2L5QFUJKKYE6G","assignmentId":"3I33IC7ZWGOEBEI7545PXMU2ULGA2S","hitId":"34KYK9TV2RUAD363EVFPUWVPB97SBP","url":"https://gershmanlab.com/experiments/alicia/teaching/experiment/?hitId=34KYK9TV2RUAD363EVFPUWVPB97SBP&workerId=A2L5QFUJKKYE6G&assignmentId=3I33IC7ZWGOEBEI7545PXMU2ULGA2S&a=ZI3I7&tp_a=ZI3I7&b=3I33IC7ZWGOEBEI7545PXMU2ULGA2S&tp_b=3I33IC7ZWGOEBEI7545PXMU2ULGA2S&c=365717&tp_c=365717","heads":2,"tails":2,"studentIndex":17,"studentTrueHypers":{"a":1,"b":4},"studentGuess":0.3333333333333333,"delta":0.16666666666666669,"totalExamples":4,"bonus":0,"bonusSoFar":0.78},{"rt":14068,"response":{"heads":"2","tails":"8"},"type":"response","condition":"nonSeqFull","trueTheta":0.2,"classrooms":["C","D"],"studentTrueClassroom":"D","exampleSet":"first","trial_type":"survey-html-form","trial_index":151,"time_elapsed":2251851,"internal_node_id":"0.0-145.0-0.0","params":{"nStudents":24,"maxFlips":30,"completionMinutes":45,"basePay":8,"maxBonus":9,"perTrialBonus":0.5,"perTrialBonusThreshold":0.05,"exampleCost":0.01},"classroomParams":{"A":{"a":1,"b":4},"B":{"a":4,"b":1},"C":{"a":2,"b":8},"D":{"a":8,"b":2}},"conditions":["nonSeqFull","nonSeqPartial","seqNoFeedback","seqFeedback"],"classroomPairings":[["A","B"],["C","D"]],"coinWeights":[0.2,0.5,0.8],"subjectId":"A2L5QFUJKKYE6G","assignmentId":"3I33IC7ZWGOEBEI7545PXMU2ULGA2S","hitId":"34KYK9TV2RUAD363EVFPUWVPB97SBP","url":"https://gershmanlab.com/experiments/alicia/teaching/experiment/?hitId=34KYK9TV2RUAD363EVFPUWVPB97SBP&workerId=A2L5QFUJKKYE6G&assignmentId=3I33IC7ZWGOEBEI7545PXMU2ULGA2S&a=ZI3I7&tp_a=ZI3I7&b=3I33IC7ZWGOEBEI7545PXMU2ULGA2S&tp_b=3I33IC7ZWGOEBEI7545PXMU2ULGA2S&c=365717&tp_c=365717","heads":2,"tails":8,"studentIndex":18,"studentTrueHypers":{"a":8,"b":2},"studentGuess":0.5,"delta":0.3,"totalExamples":10,"bonus":0,"bonusSoFar":0.78},{"rt":22755,"response":{"heads":"24","tails":"6"},"type":"response","condition":"seqFeedback","trueTheta":0.8,"classrooms":["C","D"],"studentTrueClassroom":"C","exampleSet":"first","trial_type":"survey-html-form","trial_index":157,"time_elapsed":2332845,"internal_node_id":"0.0-151.0-0.0","params":{"nStudents":24,"maxFlips":30,"completionMinutes":45,"basePay":8,"maxBonus":9,"perTrialBonus":0.5,"perTrialBonusThreshold":0.05,"exampleCost":0.01},"classroomParams":{"A":{"a":1,"b":4},"B":{"a":4,"b":1},"C":{"a":2,"b":8},"D":{"a":8,"b":2}},"conditions":["nonSeqFull","nonSeqPartial","seqNoFeedback","seqFeedback"],"classroomPairings":[["A","B"],["C","D"]],"coinWeights":[0.2,0.5,0.8],"subjectId":"A2L5QFUJKKYE6G","assignmentId":"3I33IC7ZWGOEBEI7545PXMU2ULGA2S","hitId":"34KYK9TV2RUAD363EVFPUWVPB97SBP","url":"https://gershmanlab.com/experiments/alicia/teaching/experiment/?hitId=34KYK9TV2RUAD363EVFPUWVPB97SBP&workerId=A2L5QFUJKKYE6G&assignmentId=3I33IC7ZWGOEBEI7545PXMU2ULGA2S&a=ZI3I7&tp_a=ZI3I7&b=3I33IC7ZWGOEBEI7545PXMU2ULGA2S&tp_b=3I33IC7ZWGOEBEI7545PXMU2ULGA2S&c=365717&tp_c=365717","heads":24,"tails":6,"studentIndex":19,"studentTrueHypers":{"a":2,"b":8},"studentGuess":0.65,"delta":0.15000000000000002,"totalExamples":30,"bonusSoFar":0.78},{"rt":16437,"response":{"heads":"20","tails":"10"},"type":"response","condition":"seqFeedback","trueTheta":0.8,"classrooms":["C","D"],"studentTrueClassroom":"C","exampleSet":"second","trial_type":"survey-html-form","trial_index":161,"time_elapsed":2371830,"internal_node_id":"0.0-155.0-0.0","params":{"nStudents":24,"maxFlips":30,"completionMinutes":45,"basePay":8,"maxBonus":9,"perTrialBonus":0.5,"perTrialBonusThreshold":0.05,"exampleCost":0.01},"classroomParams":{"A":{"a":1,"b":4},"B":{"a":4,"b":1},"C":{"a":2,"b":8},"D":{"a":8,"b":2}},"conditions":["nonSeqFull","nonSeqPartial","seqNoFeedback","seqFeedback"],"classroomPairings":[["A","B"],["C","D"]],"coinWeights":[0.2,0.5,0.8],"subjectId":"A2L5QFUJKKYE6G","assignmentId":"3I33IC7ZWGOEBEI7545PXMU2ULGA2S","hitId":"34KYK9TV2RUAD363EVFPUWVPB97SBP","url":"https://gershmanlab.com/experiments/alicia/teaching/experiment/?hitId=34KYK9TV2RUAD363EVFPUWVPB97SBP&workerId=A2L5QFUJKKYE6G&assignmentId=3I33IC7ZWGOEBEI7545PXMU2ULGA2S&a=ZI3I7&tp_a=ZI3I7&b=3I33IC7ZWGOEBEI7545PXMU2ULGA2S&tp_b=3I33IC7ZWGOEBEI7545PXMU2ULGA2S&c=365717&tp_c=365717","firstResponseHeads":24,"firstResponseTails":6,"secondResponseHeads":20,"secondResponseTails":10,"totalHeads":44,"totalTails":16,"studentIndex":19,"studentTrueHypers":{"a":2,"b":8},"studentGuess":0.6571428571428571,"delta":0.1428571428571429,"bonus":0,"bonusSoFar":0.78,"totalExamples":60},{"rt":13302,"response":{"heads":"2","tails":"8"},"type":"response","condition":"seqNoFeedback","trueTheta":0.2,"classrooms":["C","D"],"studentTrueClassroom":"C","exampleSet":"first","trial_type":"survey-html-form","trial_index":167,"time_elapsed":2407688,"internal_node_id":"0.0-161.0-0.0","params":{"nStudents":24,"maxFlips":30,"completionMinutes":45,"basePay":8,"maxBonus":9,"perTrialBonus":0.5,"perTrialBonusThreshold":0.05,"exampleCost":0.01},"classroomParams":{"A":{"a":1,"b":4},"B":{"a":4,"b":1},"C":{"a":2,"b":8},"D":{"a":8,"b":2}},"conditions":["nonSeqFull","nonSeqPartial","seqNoFeedback","seqFeedback"],"classroomPairings":[["A","B"],["C","D"]],"coinWeights":[0.2,0.5,0.8],"subjectId":"A2L5QFUJKKYE6G","assignmentId":"3I33IC7ZWGOEBEI7545PXMU2ULGA2S","hitId":"34KYK9TV2RUAD363EVFPUWVPB97SBP","url":"https://gershmanlab.com/experiments/alicia/teaching/experiment/?hitId=34KYK9TV2RUAD363EVFPUWVPB97SBP&workerId=A2L5QFUJKKYE6G&assignmentId=3I33IC7ZWGOEBEI7545PXMU2ULGA2S&a=ZI3I7&tp_a=ZI3I7&b=3I33IC7ZWGOEBEI7545PXMU2ULGA2S&tp_b=3I33IC7ZWGOEBEI7545PXMU2ULGA2S&c=365717&tp_c=365717","heads":2,"tails":8,"studentIndex":20,"studentTrueHypers":{"a":2,"b":8},"studentGuess":0.2,"delta":0,"totalExamples":10,"bonusSoFar":0.78},{"rt":12745,"response":{"heads":"8","tails":"2"},"type":"response","condition":"seqNoFeedback","trueTheta":0.2,"classrooms":["C","D"],"studentTrueClassroom":"C","exampleSet":"second","trial_type":"survey-html-form","trial_index":170,"time_elapsed":2427200,"internal_node_id":"0.0-164.0-0.0","params":{"nStudents":24,"maxFlips":30,"completionMinutes":45,"basePay":8,"maxBonus":9,"perTrialBonus":0.5,"perTrialBonusThreshold":0.05,"exampleCost":0.01},"classroomParams":{"A":{"a":1,"b":4},"B":{"a":4,"b":1},"C":{"a":2,"b":8},"D":{"a":8,"b":2}},"conditions":["nonSeqFull","nonSeqPartial","seqNoFeedback","seqFeedback"],"classroomPairings":[["A","B"],["C","D"]],"coinWeights":[0.2,0.5,0.8],"subjectId":"A2L5QFUJKKYE6G","assignmentId":"3I33IC7ZWGOEBEI7545PXMU2ULGA2S","hitId":"34KYK9TV2RUAD363EVFPUWVPB97SBP","url":"https://gershmanlab.com/experiments/alicia/teaching/experiment/?hitId=34KYK9TV2RUAD363EVFPUWVPB97SBP&workerId=A2L5QFUJKKYE6G&assignmentId=3I33IC7ZWGOEBEI7545PXMU2ULGA2S&a=ZI3I7&tp_a=ZI3I7&b=3I33IC7ZWGOEBEI7545PXMU2ULGA2S&tp_b=3I33IC7ZWGOEBEI7545PXMU2ULGA2S&c=365717&tp_c=365717","firstResponseHeads":2,"firstResponseTails":8,"secondResponseHeads":8,"secondResponseTails":2,"totalHeads":10,"totalTails":10,"studentIndex":20,"studentTrueHypers":{"a":2,"b":8},"studentGuess":0.4,"delta":0.2,"bonus":0,"bonusSoFar":0.78,"totalExamples":20},{"rt":16092,"response":{"heads":"8","tails":"2"},"type":"response","condition":"nonSeqFull","trueTheta":0.5,"classrooms":["A","B"],"studentTrueClassroom":"B","exampleSet":"first","trial_type":"survey-html-form","trial_index":176,"time_elapsed":2469650,"internal_node_id":"0.0-170.0-0.0","params":{"nStudents":24,"maxFlips":30,"completionMinutes":45,"basePay":8,"maxBonus":9,"perTrialBonus":0.5,"perTrialBonusThreshold":0.05,"exampleCost":0.01},"classroomParams":{"A":{"a":1,"b":4},"B":{"a":4,"b":1},"C":{"a":2,"b":8},"D":{"a":8,"b":2}},"conditions":["nonSeqFull","nonSeqPartial","seqNoFeedback","seqFeedback"],"classroomPairings":[["A","B"],["C","D"]],"coinWeights":[0.2,0.5,0.8],"subjectId":"A2L5QFUJKKYE6G","assignmentId":"3I33IC7ZWGOEBEI7545PXMU2ULGA2S","hitId":"34KYK9TV2RUAD363EVFPUWVPB97SBP","url":"https://gershmanlab.com/experiments/alicia/teaching/experiment/?hitId=34KYK9TV2RUAD363EVFPUWVPB97SBP&workerId=A2L5QFUJKKYE6G&assignmentId=3I33IC7ZWGOEBEI7545PXMU2ULGA2S&a=ZI3I7&tp_a=ZI3I7&b=3I33IC7ZWGOEBEI7545PXMU2ULGA2S&tp_b=3I33IC7ZWGOEBEI7545PXMU2ULGA2S&c=365717&tp_c=365717","heads":8,"tails":2,"studentIndex":21,"studentTrueHypers":{"a":4,"b":1},"studentGuess":0.8,"delta":0.30000000000000004,"totalExamples":10,"bonus":0,"bonusSoFar":0.78},{"rt":11675,"response":{"heads":"8","tails":"2"},"type":"response","condition":"nonSeqPartial","trueTheta":0.8,"classrooms":["A","B"],"studentTrueClassroom":"A","exampleSet":"first","trial_type":"survey-html-form","trial_index":182,"time_elapsed":2503955,"internal_node_id":"0.0-176.0-0.0","params":{"nStudents":24,"maxFlips":30,"completionMinutes":45,"basePay":8,"maxBonus":9,"perTrialBonus":0.5,"perTrialBonusThreshold":0.05,"exampleCost":0.01},"classroomParams":{"A":{"a":1,"b":4},"B":{"a":4,"b":1},"C":{"a":2,"b":8},"D":{"a":8,"b":2}},"conditions":["nonSeqFull","nonSeqPartial","seqNoFeedback","seqFeedback"],"classroomPairings":[["A","B"],["C","D"]],"coinWeights":[0.2,0.5,0.8],"subjectId":"A2L5QFUJKKYE6G","assignmentId":"3I33IC7ZWGOEBEI7545PXMU2ULGA2S","hitId":"34KYK9TV2RUAD363EVFPUWVPB97SBP","url":"https://gershmanlab.com/experiments/alicia/teaching/experiment/?hitId=34KYK9TV2RUAD363EVFPUWVPB97SBP&workerId=A2L5QFUJKKYE6G&assignmentId=3I33IC7ZWGOEBEI7545PXMU2ULGA2S&a=ZI3I7&tp_a=ZI3I7&b=3I33IC7ZWGOEBEI7545PXMU2ULGA2S&tp_b=3I33IC7ZWGOEBEI7545PXMU2ULGA2S&c=365717&tp_c=365717","heads":8,"tails":2,"studentIndex":22,"studentTrueHypers":{"a":1,"b":4},"studentGuess":0.6,"delta":0.20000000000000007,"totalExamples":10,"bonus":0,"bonusSoFar":0.78},{"rt":19420,"response":{"heads":"2","tails":"8"},"type":"response","condition":"seqFeedback","trueTheta":0.8,"classrooms":["A","B"],"studentTrueClassroom":"A","exampleSet":"first","trial_type":"survey-html-form","trial_index":188,"time_elapsed":2676078,"internal_node_id":"0.0-182.0-0.0","params":{"nStudents":24,"maxFlips":30,"completionMinutes":45,"basePay":8,"maxBonus":9,"perTrialBonus":0.5,"perTrialBonusThreshold":0.05,"exampleCost":0.01},"classroomParams":{"A":{"a":1,"b":4},"B":{"a":4,"b":1},"C":{"a":2,"b":8},"D":{"a":8,"b":2}},"conditions":["nonSeqFull","nonSeqPartial","seqNoFeedback","seqFeedback"],"classroomPairings":[["A","B"],["C","D"]],"coinWeights":[0.2,0.5,0.8],"subjectId":"A2L5QFUJKKYE6G","assignmentId":"3I33IC7ZWGOEBEI7545PXMU2ULGA2S","hitId":"34KYK9TV2RUAD363EVFPUWVPB97SBP","url":"https://gershmanlab.com/experiments/alicia/teaching/experiment/?hitId=34KYK9TV2RUAD363EVFPUWVPB97SBP&workerId=A2L5QFUJKKYE6G&assignmentId=3I33IC7ZWGOEBEI7545PXMU2ULGA2S&a=ZI3I7&tp_a=ZI3I7&b=3I33IC7ZWGOEBEI7545PXMU2ULGA2S&tp_b=3I33IC7ZWGOEBEI7545PXMU2ULGA2S&c=365717&tp_c=365717","heads":2,"tails":8,"studentIndex":23,"studentTrueHypers":{"a":1,"b":4},"studentGuess":0.2,"delta":0.6000000000000001,"totalExamples":10,"bonusSoFar":0.78},{"rt":11560,"response":{"heads":"8","tails":"2"},"type":"response","condition":"seqFeedback","trueTheta":0.8,"classrooms":["A","B"],"studentTrueClassroom":"A","exampleSet":"second","trial_type":"survey-html-form","trial_index":192,"time_elapsed":2707307,"internal_node_id":"0.0-186.0-0.0","params":{"nStudents":24,"maxFlips":30,"completionMinutes":45,"basePay":8,"maxBonus":9,"perTrialBonus":0.5,"perTrialBonusThreshold":0.05,"exampleCost":0.01},"classroomParams":{"A":{"a":1,"b":4},"B":{"a":4,"b":1},"C":{"a":2,"b":8},"D":{"a":8,"b":2}},"conditions":["nonSeqFull","nonSeqPartial","seqNoFeedback","seqFeedback"],"classroomPairings":[["A","B"],["C","D"]],"coinWeights":[0.2,0.5,0.8],"subjectId":"A2L5QFUJKKYE6G","assignmentId":"3I33IC7ZWGOEBEI7545PXMU2ULGA2S","hitId":"34KYK9TV2RUAD363EVFPUWVPB97SBP","url":"https://gershmanlab.com/experiments/alicia/teaching/experiment/?hitId=34KYK9TV2RUAD363EVFPUWVPB97SBP&workerId=A2L5QFUJKKYE6G&assignmentId=3I33IC7ZWGOEBEI7545PXMU2ULGA2S&a=ZI3I7&tp_a=ZI3I7&b=3I33IC7ZWGOEBEI7545PXMU2ULGA2S&tp_b=3I33IC7ZWGOEBEI7545PXMU2ULGA2S&c=365717&tp_c=365717","firstResponseHeads":2,"firstResponseTails":8,"secondResponseHeads":8,"secondResponseTails":2,"totalHeads":10,"totalTails":10,"studentIndex":23,"studentTrueHypers":{"a":1,"b":4},"studentGuess":0.44,"delta":0.36000000000000004,"bonus":0,"bonusSoFar":0.78,"totalExamples":20},{"rt":22938,"response":{"gender":"female","age":"20","understood":"yes","comments":""},"type":"response","trial_type":"survey-html-form","trial_index":196,"time_elapsed":2741177,"internal_node_id":"0.0-191.0","params":{"nStudents":24,"maxFlips":30,"completionMinutes":45,"basePay":8,"maxBonus":9,"perTrialBonus":0.5,"perTrialBonusThreshold":0.05,"exampleCost":0.01},"classroomParams":{"A":{"a":1,"b":4},"B":{"a":4,"b":1},"C":{"a":2,"b":8},"D":{"a":8,"b":2}},"conditions":["nonSeqFull","nonSeqPartial","seqNoFeedback","seqFeedback"],"classroomPairings":[["A","B"],["C","D"]],"coinWeights":[0.2,0.5,0.8],"subjectId":"A2L5QFUJKKYE6G","assignmentId":"3I33IC7ZWGOEBEI7545PXMU2ULGA2S","hitId":"34KYK9TV2RUAD363EVFPUWVPB97SBP","url":"https://gershmanlab.com/experiments/alicia/teaching/experiment/?hitId=34KYK9TV2RUAD363EVFPUWVPB97SBP&workerId=A2L5QFUJKKYE6G&assignmentId=3I33IC7ZWGOEBEI7545PXMU2ULGA2S&a=ZI3I7&tp_a=ZI3I7&b=3I33IC7ZWGOEBEI7545PXMU2ULGA2S&tp_b=3I33IC7ZWGOEBEI7545PXMU2ULGA2S&c=365717&tp_c=365717","totalBonus":0.78}]