[{"rt":20635,"response":{"heads":"1","tails":"1"},"type":"response","condition":"nonSeqPartial","trueTheta":0.5,"classrooms":["A","B"],"studentTrueClassroom":"A","exampleSet":"first","trial_type":"survey-html-form","trial_index":7,"time_elapsed":209899,"internal_node_id":"0.0-6.0-0.0","params":{"nStudents":24,"maxFlips":30,"completionMinutes":45,"basePay":8,"maxBonus":9,"perTrialBonus":0.5,"perTrialBonusThreshold":0.05,"exampleCost":0.01},"classroomParams":{"A":{"a":1,"b":4},"B":{"a":4,"b":1},"C":{"a":2,"b":8},"D":{"a":8,"b":2}},"conditions":["nonSeqFull","nonSeqPartial","seqNoFeedback","seqFeedback"],"classroomPairings":[["A","B"],["C","D"]],"coinWeights":[0.2,0.5,0.8],"subjectId":"A2LMQ4497NMK3S","assignmentId":"31UV0MXWNRYLGTKSZBZ0CRLXR4WI5R","hitId":"3Z3R5YC0P3915KVY8X6BNRIWSQNFTT","url":"https://gershmanlab.com/experiments/alicia/teaching/experiment/?hitId=3Z3R5YC0P3915KVY8X6BNRIWSQNFTT&workerId=A2LMQ4497NMK3S&assignmentId=31UV0MXWNRYLGTKSZBZ0CRLXR4WI5R&a=W0U19&tp_a=W0U19&b=31UV0MXWNRYLGTKSZBZ0CRLXR4WI5R&tp_b=31UV0MXWNRYLGTKSZBZ0CRLXR4WI5R&c=365799&tp_c=365799","heads":1,"tails":1,"studentIndex":0,"studentTrueHypers":{"a":1,"b":4},"studentGuess":0.2857142857142857,"delta":0.2142857142857143,"totalExamples":2,"bonus":0,"bonusSoFar":0},{"rt":19053,"response":{"heads":"0","tails":"0"},"type":"response","condition":"seqFeedback","trueTheta":0.2,"classrooms":["C","D"],"studentTrueClassroom":"C","exampleSet":"first","trial_type":"survey-html-form","trial_index":13,"time_elapsed":268817,"internal_node_id":"0.0-12.0-0.0","params":{"nStudents":24,"maxFlips":30,"completionMinutes":45,"basePay":8,"maxBonus":9,"perTrialBonus":0.5,"perTrialBonusThreshold":0.05,"exampleCost":0.01},"classroomParams":{"A":{"a":1,"b":4},"B":{"a":4,"b":1},"C":{"a":2,"b":8},"D":{"a":8,"b":2}},"conditions":["nonSeqFull","nonSeqPartial","seqNoFeedback","seqFeedback"],"classroomPairings":[["A","B"],["C","D"]],"coinWeights":[0.2,0.5,0.8],"subjectId":"A2LMQ4497NMK3S","assignmentId":"31UV0MXWNRYLGTKSZBZ0CRLXR4WI5R","hitId":"3Z3R5YC0P3915KVY8X6BNRIWSQNFTT","url":"https://gershmanlab.com/experiments/alicia/teaching/experiment/?hitId=3Z3R5YC0P3915KVY8X6BNRIWSQNFTT&workerId=A2LMQ4497NMK3S&assignmentId=31UV0MXWNRYLGTKSZBZ0CRLXR4WI5R&a=W0U19&tp_a=W0U19&b=31UV0MXWNRYLGTKSZBZ0CRLXR4WI5R&tp_b=31UV0MXWNRYLGTKSZBZ0CRLXR4WI5R&c=365799&tp_c=365799","heads":0,"tails":0,"studentIndex":1,"studentTrueHypers":{"a":2,"b":8},"studentGuess":0.2,"delta":0,"totalExamples":0,"bonusSoFar":0},{"rt":6464,"response":{"heads":"1","tails":"1"},"type":"response","condition":"seqFeedback","trueTheta":0.2,"classrooms":["C","D"],"studentTrueClassroom":"C","exampleSet":"first","trial_type":"survey-html-form","trial_index":14,"time_elapsed":275283,"internal_node_id":"0.0-12.1-0.1","params":{"nStudents":24,"maxFlips":30,"completionMinutes":45,"basePay":8,"maxBonus":9,"perTrialBonus":0.5,"perTrialBonusThreshold":0.05,"exampleCost":0.01},"classroomParams":{"A":{"a":1,"b":4},"B":{"a":4,"b":1},"C":{"a":2,"b":8},"D":{"a":8,"b":2}},"conditions":["nonSeqFull","nonSeqPartial","seqNoFeedback","seqFeedback"],"classroomPairings":[["A","B"],["C","D"]],"coinWeights":[0.2,0.5,0.8],"subjectId":"A2LMQ4497NMK3S","assignmentId":"31UV0MXWNRYLGTKSZBZ0CRLXR4WI5R","hitId":"3Z3R5YC0P3915KVY8X6BNRIWSQNFTT","url":"https://gershmanlab.com/experiments/alicia/teaching/experiment/?hitId=3Z3R5YC0P3915KVY8X6BNRIWSQNFTT&workerId=A2LMQ4497NMK3S&assignmentId=31UV0MXWNRYLGTKSZBZ0CRLXR4WI5R&a=W0U19&tp_a=W0U19&b=31UV0MXWNRYLGTKSZBZ0CRLXR4WI5R&tp_b=31UV0MXWNRYLGTKSZBZ0CRLXR4WI5R&c=365799&tp_c=365799","heads":1,"tails":1,"studentIndex":1,"studentTrueHypers":{"a":2,"b":8},"studentGuess":0.25,"delta":0.04999999999999999,"totalExamples":2,"bonusSoFar":0},{"rt":9077,"response":{"heads":"0","tails":"0"},"type":"response","condition":"seqFeedback","trueTheta":0.2,"classrooms":["C","D"],"studentTrueClassroom":"C","exampleSet":"second","trial_type":"survey-html-form","trial_index":18,"time_elapsed":296205,"internal_node_id":"0.0-16.0-0.0","params":{"nStudents":24,"maxFlips":30,"completionMinutes":45,"basePay":8,"maxBonus":9,"perTrialBonus":0.5,"perTrialBonusThreshold":0.05,"exampleCost":0.01},"classroomParams":{"A":{"a":1,"b":4},"B":{"a":4,"b":1},"C":{"a":2,"b":8},"D":{"a":8,"b":2}},"conditions":["nonSeqFull","nonSeqPartial","seqNoFeedback","seqFeedback"],"classroomPairings":[["A","B"],["C","D"]],"coinWeights":[0.2,0.5,0.8],"subjectId":"A2LMQ4497NMK3S","assignmentId":"31UV0MXWNRYLGTKSZBZ0CRLXR4WI5R","hitId":"3Z3R5YC0P3915KVY8X6BNRIWSQNFTT","url":"https://gershmanlab.com/experiments/alicia/teaching/experiment/?hitId=3Z3R5YC0P3915KVY8X6BNRIWSQNFTT&workerId=A2LMQ4497NMK3S&assignmentId=31UV0MXWNRYLGTKSZBZ0CRLXR4WI5R&a=W0U19&tp_a=W0U19&b=31UV0MXWNRYLGTKSZBZ0CRLXR4WI5R&tp_b=31UV0MXWNRYLGTKSZBZ0CRLXR4WI5R&c=365799&tp_c=365799","firstResponseHeads":0,"firstResponseTails":0,"secondResponseHeads":0,"secondResponseTails":0,"totalHeads":0,"totalTails":0,"studentIndex":1,"studentTrueHypers":{"a":2,"b":8},"studentGuess":0.2,"delta":0,"bonus":0.5,"bonusSoFar":0.5,"totalExamples":0},{"rt":4152,"response":{"heads":"1","tails":"1"},"type":"response","condition":"seqFeedback","trueTheta":0.2,"classrooms":["C","D"],"studentTrueClassroom":"C","exampleSet":"second","trial_type":"survey-html-form","trial_index":19,"time_elapsed":300359,"internal_node_id":"0.0-16.1-0.1","params":{"nStudents":24,"maxFlips":30,"completionMinutes":45,"basePay":8,"maxBonus":9,"perTrialBonus":0.5,"perTrialBonusThreshold":0.05,"exampleCost":0.01},"classroomParams":{"A":{"a":1,"b":4},"B":{"a":4,"b":1},"C":{"a":2,"b":8},"D":{"a":8,"b":2}},"conditions":["nonSeqFull","nonSeqPartial","seqNoFeedback","seqFeedback"],"classroomPairings":[["A","B"],["C","D"]],"coinWeights":[0.2,0.5,0.8],"subjectId":"A2LMQ4497NMK3S","assignmentId":"31UV0MXWNRYLGTKSZBZ0CRLXR4WI5R","hitId":"3Z3R5YC0P3915KVY8X6BNRIWSQNFTT","url":"https://gershmanlab.com/experiments/alicia/teaching/experiment/?hitId=3Z3R5YC0P3915KVY8X6BNRIWSQNFTT&workerId=A2LMQ4497NMK3S&assignmentId=31UV0MXWNRYLGTKSZBZ0CRLXR4WI5R&a=W0U19&tp_a=W0U19&b=31UV0MXWNRYLGTKSZBZ0CRLXR4WI5R&tp_b=31UV0MXWNRYLGTKSZBZ0CRLXR4WI5R&c=365799&tp_c=365799","firstResponseHeads":0,"firstResponseTails":0,"secondResponseHeads":1,"secondResponseTails":1,"totalHeads":1,"totalTails":1,"studentIndex":1,"studentTrueHypers":{"a":2,"b":8},"studentGuess":0.25,"delta":0.04999999999999999,"bonus":0.48,"bonusSoFar":0.98,"totalExamples":2},{"rt":39807,"response":{"heads":"1","tails":"0"},"type":"response","condition":"nonSeqPartial","trueTheta":0.8,"classrooms":["C","D"],"studentTrueClassroom":"D","exampleSet":"first","trial_type":"survey-html-form","trial_index":25,"time_elapsed":361957,"internal_node_id":"0.0-22.0-0.0","params":{"nStudents":24,"maxFlips":30,"completionMinutes":45,"basePay":8,"maxBonus":9,"perTrialBonus":0.5,"perTrialBonusThreshold":0.05,"exampleCost":0.01},"classroomParams":{"A":{"a":1,"b":4},"B":{"a":4,"b":1},"C":{"a":2,"b":8},"D":{"a":8,"b":2}},"conditions":["nonSeqFull","nonSeqPartial","seqNoFeedback","seqFeedback"],"classroomPairings":[["A","B"],["C","D"]],"coinWeights":[0.2,0.5,0.8],"subjectId":"A2LMQ4497NMK3S","assignmentId":"31UV0MXWNRYLGTKSZBZ0CRLXR4WI5R","hitId":"3Z3R5YC0P3915KVY8X6BNRIWSQNFTT","url":"https://gershmanlab.com/experiments/alicia/teaching/experiment/?hitId=3Z3R5YC0P3915KVY8X6BNRIWSQNFTT&workerId=A2LMQ4497NMK3S&assignmentId=31UV0MXWNRYLGTKSZBZ0CRLXR4WI5R&a=W0U19&tp_a=W0U19&b=31UV0MXWNRYLGTKSZBZ0CRLXR4WI5R&tp_b=31UV0MXWNRYLGTKSZBZ0CRLXR4WI5R&c=365799&tp_c=365799","heads":1,"tails":0,"studentIndex":2,"studentTrueHypers":{"a":8,"b":2},"studentGuess":0.8181818181818182,"delta":0.018181818181818188,"totalExamples":1,"bonus":0.49,"bonusSoFar":1.47},{"rt":9599,"response":{"heads":"6","tails":"0"},"type":"response","condition":"nonSeqFull","trueTheta":0.5,"classrooms":["C","D"],"studentTrueClassroom":"C","exampleSet":"first","trial_type":"survey-html-form","trial_index":31,"time_elapsed":394347,"internal_node_id":"0.0-28.0-0.0","params":{"nStudents":24,"maxFlips":30,"completionMinutes":45,"basePay":8,"maxBonus":9,"perTrialBonus":0.5,"perTrialBonusThreshold":0.05,"exampleCost":0.01},"classroomParams":{"A":{"a":1,"b":4},"B":{"a":4,"b":1},"C":{"a":2,"b":8},"D":{"a":8,"b":2}},"conditions":["nonSeqFull","nonSeqPartial","seqNoFeedback","seqFeedback"],"classroomPairings":[["A","B"],["C","D"]],"coinWeights":[0.2,0.5,0.8],"subjectId":"A2LMQ4497NMK3S","assignmentId":"31UV0MXWNRYLGTKSZBZ0CRLXR4WI5R","hitId":"3Z3R5YC0P3915KVY8X6BNRIWSQNFTT","url":"https://gershmanlab.com/experiments/alicia/teaching/experiment/?hitId=3Z3R5YC0P3915KVY8X6BNRIWSQNFTT&workerId=A2LMQ4497NMK3S&assignmentId=31UV0MXWNRYLGTKSZBZ0CRLXR4WI5R&a=W0U19&tp_a=W0U19&b=31UV0MXWNRYLGTKSZBZ0CRLXR4WI5R&tp_b=31UV0MXWNRYLGTKSZBZ0CRLXR4WI5R&c=365799&tp_c=365799","heads":6,"tails":0,"studentIndex":3,"studentTrueHypers":{"a":2,"b":8},"studentGuess":0.5,"delta":0,"totalExamples":6,"bonus":0.44,"bonusSoFar":1.91},{"rt":14725,"response":{"heads":"1","tails":"0"},"type":"response","condition":"seqNoFeedback","trueTheta":0.8,"classrooms":["A","B"],"studentTrueClassroom":"A","exampleSet":"first","trial_type":"survey-html-form","trial_index":37,"time_elapsed":423715,"internal_node_id":"0.0-34.0-0.0","params":{"nStudents":24,"maxFlips":30,"completionMinutes":45,"basePay":8,"maxBonus":9,"perTrialBonus":0.5,"perTrialBonusThreshold":0.05,"exampleCost":0.01},"classroomParams":{"A":{"a":1,"b":4},"B":{"a":4,"b":1},"C":{"a":2,"b":8},"D":{"a":8,"b":2}},"conditions":["nonSeqFull","nonSeqPartial","seqNoFeedback","seqFeedback"],"classroomPairings":[["A","B"],["C","D"]],"coinWeights":[0.2,0.5,0.8],"subjectId":"A2LMQ4497NMK3S","assignmentId":"31UV0MXWNRYLGTKSZBZ0CRLXR4WI5R","hitId":"3Z3R5YC0P3915KVY8X6BNRIWSQNFTT","url":"https://gershmanlab.com/experiments/alicia/teaching/experiment/?hitId=3Z3R5YC0P3915KVY8X6BNRIWSQNFTT&workerId=A2LMQ4497NMK3S&assignmentId=31UV0MXWNRYLGTKSZBZ0CRLXR4WI5R&a=W0U19&tp_a=W0U19&b=31UV0MXWNRYLGTKSZBZ0CRLXR4WI5R&tp_b=31UV0MXWNRYLGTKSZBZ0CRLXR4WI5R&c=365799&tp_c=365799","heads":1,"tails":0,"studentIndex":4,"studentTrueHypers":{"a":1,"b":4},"studentGuess":0.3333333333333333,"delta":0.46666666666666673,"totalExamples":1,"bonusSoFar":1.91},{"rt":12447,"response":{"heads":"1","tails":"0"},"type":"response","condition":"seqNoFeedback","trueTheta":0.8,"classrooms":["A","B"],"studentTrueClassroom":"A","exampleSet":"second","trial_type":"survey-html-form","trial_index":40,"time_elapsed":442423,"internal_node_id":"0.0-37.0-0.0","params":{"nStudents":24,"maxFlips":30,"completionMinutes":45,"basePay":8,"maxBonus":9,"perTrialBonus":0.5,"perTrialBonusThreshold":0.05,"exampleCost":0.01},"classroomParams":{"A":{"a":1,"b":4},"B":{"a":4,"b":1},"C":{"a":2,"b":8},"D":{"a":8,"b":2}},"conditions":["nonSeqFull","nonSeqPartial","seqNoFeedback","seqFeedback"],"classroomPairings":[["A","B"],["C","D"]],"coinWeights":[0.2,0.5,0.8],"subjectId":"A2LMQ4497NMK3S","assignmentId":"31UV0MXWNRYLGTKSZBZ0CRLXR4WI5R","hitId":"3Z3R5YC0P3915KVY8X6BNRIWSQNFTT","url":"https://gershmanlab.com/experiments/alicia/teaching/experiment/?hitId=3Z3R5YC0P3915KVY8X6BNRIWSQNFTT&workerId=A2LMQ4497NMK3S&assignmentId=31UV0MXWNRYLGTKSZBZ0CRLXR4WI5R&a=W0U19&tp_a=W0U19&b=31UV0MXWNRYLGTKSZBZ0CRLXR4WI5R&tp_b=31UV0MXWNRYLGTKSZBZ0CRLXR4WI5R&c=365799&tp_c=365799","firstResponseHeads":1,"firstResponseTails":0,"secondResponseHeads":1,"secondResponseTails":0,"totalHeads":2,"totalTails":0,"studentIndex":4,"studentTrueHypers":{"a":1,"b":4},"studentGuess":0.42857142857142855,"delta":0.3714285714285715,"bonus":0,"bonusSoFar":1.91,"totalExamples":2},{"rt":7867,"response":{"heads":"1","tails":"1"},"type":"response","condition":"nonSeqPartial","trueTheta":0.2,"classrooms":["C","D"],"studentTrueClassroom":"C","exampleSet":"first","trial_type":"survey-html-form","trial_index":46,"time_elapsed":469323,"internal_node_id":"0.0-43.0-0.0","params":{"nStudents":24,"maxFlips":30,"completionMinutes":45,"basePay":8,"maxBonus":9,"perTrialBonus":0.5,"perTrialBonusThreshold":0.05,"exampleCost":0.01},"classroomParams":{"A":{"a":1,"b":4},"B":{"a":4,"b":1},"C":{"a":2,"b":8},"D":{"a":8,"b":2}},"conditions":["nonSeqFull","nonSeqPartial","seqNoFeedback","seqFeedback"],"classroomPairings":[["A","B"],["C","D"]],"coinWeights":[0.2,0.5,0.8],"subjectId":"A2LMQ4497NMK3S","assignmentId":"31UV0MXWNRYLGTKSZBZ0CRLXR4WI5R","hitId":"3Z3R5YC0P3915KVY8X6BNRIWSQNFTT","url":"https://gershmanlab.com/experiments/alicia/teaching/experiment/?hitId=3Z3R5YC0P3915KVY8X6BNRIWSQNFTT&workerId=A2LMQ4497NMK3S&assignmentId=31UV0MXWNRYLGTKSZBZ0CRLXR4WI5R&a=W0U19&tp_a=W0U19&b=31UV0MXWNRYLGTKSZBZ0CRLXR4WI5R&tp_b=31UV0MXWNRYLGTKSZBZ0CRLXR4WI5R&c=365799&tp_c=365799","heads":1,"tails":1,"studentIndex":5,"studentTrueHypers":{"a":2,"b":8},"studentGuess":0.25,"delta":0.04999999999999999,"totalExamples":2,"bonus":0.48,"bonusSoFar":2.39},{"rt":34157,"response":{"heads":"20","tails":"0"},"type":"response","condition":"nonSeqFull","trueTheta":0.8,"classrooms":["A","B"],"studentTrueClassroom":"A","exampleSet":"first","trial_type":"survey-html-form","trial_index":52,"time_elapsed":520795,"internal_node_id":"0.0-49.0-0.0","params":{"nStudents":24,"maxFlips":30,"completionMinutes":45,"basePay":8,"maxBonus":9,"perTrialBonus":0.5,"perTrialBonusThreshold":0.05,"exampleCost":0.01},"classroomParams":{"A":{"a":1,"b":4},"B":{"a":4,"b":1},"C":{"a":2,"b":8},"D":{"a":8,"b":2}},"conditions":["nonSeqFull","nonSeqPartial","seqNoFeedback","seqFeedback"],"classroomPairings":[["A","B"],["C","D"]],"coinWeights":[0.2,0.5,0.8],"subjectId":"A2LMQ4497NMK3S","assignmentId":"31UV0MXWNRYLGTKSZBZ0CRLXR4WI5R","hitId":"3Z3R5YC0P3915KVY8X6BNRIWSQNFTT","url":"https://gershmanlab.com/experiments/alicia/teaching/experiment/?hitId=3Z3R5YC0P3915KVY8X6BNRIWSQNFTT&workerId=A2LMQ4497NMK3S&assignmentId=31UV0MXWNRYLGTKSZBZ0CRLXR4WI5R&a=W0U19&tp_a=W0U19&b=31UV0MXWNRYLGTKSZBZ0CRLXR4WI5R&tp_b=31UV0MXWNRYLGTKSZBZ0CRLXR4WI5R&c=365799&tp_c=365799","heads":20,"tails":0,"studentIndex":6,"studentTrueHypers":{"a":1,"b":4},"studentGuess":0.84,"delta":0.039999999999999925,"totalExamples":20,"bonus":0.3,"bonusSoFar":2.69},{"rt":23215,"response":{"heads":"30","tails":"0"},"type":"response","condition":"nonSeqFull","trueTheta":0.8,"classrooms":["C","D"],"studentTrueClassroom":"C","exampleSet":"first","trial_type":"survey-html-form","trial_index":58,"time_elapsed":558178,"internal_node_id":"0.0-55.0-0.0","params":{"nStudents":24,"maxFlips":30,"completionMinutes":45,"basePay":8,"maxBonus":9,"perTrialBonus":0.5,"perTrialBonusThreshold":0.05,"exampleCost":0.01},"classroomParams":{"A":{"a":1,"b":4},"B":{"a":4,"b":1},"C":{"a":2,"b":8},"D":{"a":8,"b":2}},"conditions":["nonSeqFull","nonSeqPartial","seqNoFeedback","seqFeedback"],"classroomPairings":[["A","B"],["C","D"]],"coinWeights":[0.2,0.5,0.8],"subjectId":"A2LMQ4497NMK3S","assignmentId":"31UV0MXWNRYLGTKSZBZ0CRLXR4WI5R","hitId":"3Z3R5YC0P3915KVY8X6BNRIWSQNFTT","url":"https://gershmanlab.com/experiments/alicia/teaching/experiment/?hitId=3Z3R5YC0P3915KVY8X6BNRIWSQNFTT&workerId=A2LMQ4497NMK3S&assignmentId=31UV0MXWNRYLGTKSZBZ0CRLXR4WI5R&a=W0U19&tp_a=W0U19&b=31UV0MXWNRYLGTKSZBZ0CRLXR4WI5R&tp_b=31UV0MXWNRYLGTKSZBZ0CRLXR4WI5R&c=365799&tp_c=365799","heads":30,"tails":0,"studentIndex":7,"studentTrueHypers":{"a":2,"b":8},"studentGuess":0.8,"delta":0,"totalExamples":30,"bonus":0.2,"bonusSoFar":2.89},{"rt":12921,"response":{"heads":"1","tails":"0"},"type":"response","condition":"nonSeqPartial","trueTheta":0.8,"classrooms":["A","B"],"studentTrueClassroom":"A","exampleSet":"first","trial_type":"survey-html-form","trial_index":64,"time_elapsed":584794,"internal_node_id":"0.0-61.0-0.0","params":{"nStudents":24,"maxFlips":30,"completionMinutes":45,"basePay":8,"maxBonus":9,"perTrialBonus":0.5,"perTrialBonusThreshold":0.05,"exampleCost":0.01},"classroomParams":{"A":{"a":1,"b":4},"B":{"a":4,"b":1},"C":{"a":2,"b":8},"D":{"a":8,"b":2}},"conditions":["nonSeqFull","nonSeqPartial","seqNoFeedback","seqFeedback"],"classroomPairings":[["A","B"],["C","D"]],"coinWeights":[0.2,0.5,0.8],"subjectId":"A2LMQ4497NMK3S","assignmentId":"31UV0MXWNRYLGTKSZBZ0CRLXR4WI5R","hitId":"3Z3R5YC0P3915KVY8X6BNRIWSQNFTT","url":"https://gershmanlab.com/experiments/alicia/teaching/experiment/?hitId=3Z3R5YC0P3915KVY8X6BNRIWSQNFTT&workerId=A2LMQ4497NMK3S&assignmentId=31UV0MXWNRYLGTKSZBZ0CRLXR4WI5R&a=W0U19&tp_a=W0U19&b=31UV0MXWNRYLGTKSZBZ0CRLXR4WI5R&tp_b=31UV0MXWNRYLGTKSZBZ0CRLXR4WI5R&c=365799&tp_c=365799","heads":1,"tails":0,"studentIndex":8,"studentTrueHypers":{"a":1,"b":4},"studentGuess":0.3333333333333333,"delta":0.46666666666666673,"totalExamples":1,"bonus":0,"bonusSoFar":2.89},{"rt":12985,"response":{"heads":"0","tails":"20"},"type":"response","condition":"nonSeqFull","trueTheta":0.2,"classrooms":["A","B"],"studentTrueClassroom":"B","exampleSet":"first","trial_type":"survey-html-form","trial_index":70,"time_elapsed":612823,"internal_node_id":"0.0-67.0-0.0","params":{"nStudents":24,"maxFlips":30,"completionMinutes":45,"basePay":8,"maxBonus":9,"perTrialBonus":0.5,"perTrialBonusThreshold":0.05,"exampleCost":0.01},"classroomParams":{"A":{"a":1,"b":4},"B":{"a":4,"b":1},"C":{"a":2,"b":8},"D":{"a":8,"b":2}},"conditions":["nonSeqFull","nonSeqPartial","seqNoFeedback","seqFeedback"],"classroomPairings":[["A","B"],["C","D"]],"coinWeights":[0.2,0.5,0.8],"subjectId":"A2LMQ4497NMK3S","assignmentId":"31UV0MXWNRYLGTKSZBZ0CRLXR4WI5R","hitId":"3Z3R5YC0P3915KVY8X6BNRIWSQNFTT","url":"https://gershmanlab.com/experiments/alicia/teaching/experiment/?hitId=3Z3R5YC0P3915KVY8X6BNRIWSQNFTT&workerId=A2LMQ4497NMK3S&assignmentId=31UV0MXWNRYLGTKSZBZ0CRLXR4WI5R&a=W0U19&tp_a=W0U19&b=31UV0MXWNRYLGTKSZBZ0CRLXR4WI5R&tp_b=31UV0MXWNRYLGTKSZBZ0CRLXR4WI5R&c=365799&tp_c=365799","heads":0,"tails":20,"studentIndex":9,"studentTrueHypers":{"a":4,"b":1},"studentGuess":0.16,"delta":0.04000000000000001,"totalExamples":20,"bonus":0.3,"bonusSoFar":3.19},{"rt":6503,"response":{"heads":"0","tails":"3"},"type":"response","condition":"nonSeqFull","trueTheta":0.5,"classrooms":["A","B"],"studentTrueClassroom":"B","exampleSet":"first","trial_type":"survey-html-form","trial_index":76,"time_elapsed":633349,"internal_node_id":"0.0-73.0-0.0","params":{"nStudents":24,"maxFlips":30,"completionMinutes":45,"basePay":8,"maxBonus":9,"perTrialBonus":0.5,"perTrialBonusThreshold":0.05,"exampleCost":0.01},"classroomParams":{"A":{"a":1,"b":4},"B":{"a":4,"b":1},"C":{"a":2,"b":8},"D":{"a":8,"b":2}},"conditions":["nonSeqFull","nonSeqPartial","seqNoFeedback","seqFeedback"],"classroomPairings":[["A","B"],["C","D"]],"coinWeights":[0.2,0.5,0.8],"subjectId":"A2LMQ4497NMK3S","assignmentId":"31UV0MXWNRYLGTKSZBZ0CRLXR4WI5R","hitId":"3Z3R5YC0P3915KVY8X6BNRIWSQNFTT","url":"https://gershmanlab.com/experiments/alicia/teaching/experiment/?hitId=3Z3R5YC0P3915KVY8X6BNRIWSQNFTT&workerId=A2LMQ4497NMK3S&assignmentId=31UV0MXWNRYLGTKSZBZ0CRLXR4WI5R&a=W0U19&tp_a=W0U19&b=31UV0MXWNRYLGTKSZBZ0CRLXR4WI5R&tp_b=31UV0MXWNRYLGTKSZBZ0CRLXR4WI5R&c=365799&tp_c=365799","heads":0,"tails":3,"studentIndex":10,"studentTrueHypers":{"a":4,"b":1},"studentGuess":0.5,"delta":0,"totalExamples":3,"bonus":0.47,"bonusSoFar":3.66},{"rt":6573,"response":{"heads":"1","tails":"0"},"type":"response","condition":"seqFeedback","trueTheta":0.8,"classrooms":["A","B"],"studentTrueClassroom":"B","exampleSet":"first","trial_type":"survey-html-form","trial_index":82,"time_elapsed":658179,"internal_node_id":"0.0-79.0-0.0","params":{"nStudents":24,"maxFlips":30,"completionMinutes":45,"basePay":8,"maxBonus":9,"perTrialBonus":0.5,"perTrialBonusThreshold":0.05,"exampleCost":0.01},"classroomParams":{"A":{"a":1,"b":4},"B":{"a":4,"b":1},"C":{"a":2,"b":8},"D":{"a":8,"b":2}},"conditions":["nonSeqFull","nonSeqPartial","seqNoFeedback","seqFeedback"],"classroomPairings":[["A","B"],["C","D"]],"coinWeights":[0.2,0.5,0.8],"subjectId":"A2LMQ4497NMK3S","assignmentId":"31UV0MXWNRYLGTKSZBZ0CRLXR4WI5R","hitId":"3Z3R5YC0P3915KVY8X6BNRIWSQNFTT","url":"https://gershmanlab.com/experiments/alicia/teaching/experiment/?hitId=3Z3R5YC0P3915KVY8X6BNRIWSQNFTT&workerId=A2LMQ4497NMK3S&assignmentId=31UV0MXWNRYLGTKSZBZ0CRLXR4WI5R&a=W0U19&tp_a=W0U19&b=31UV0MXWNRYLGTKSZBZ0CRLXR4WI5R&tp_b=31UV0MXWNRYLGTKSZBZ0CRLXR4WI5R&c=365799&tp_c=365799","heads":1,"tails":0,"studentIndex":11,"studentTrueHypers":{"a":4,"b":1},"studentGuess":0.8333333333333334,"delta":0.033333333333333326,"totalExamples":1,"bonusSoFar":3.66},{"rt":8559,"response":{"heads":"0","tails":"1"},"type":"response","condition":"seqFeedback","trueTheta":0.8,"classrooms":["A","B"],"studentTrueClassroom":"B","exampleSet":"second","trial_type":"survey-html-form","trial_index":86,"time_elapsed":677671,"internal_node_id":"0.0-83.0-0.0","params":{"nStudents":24,"maxFlips":30,"completionMinutes":45,"basePay":8,"maxBonus":9,"perTrialBonus":0.5,"perTrialBonusThreshold":0.05,"exampleCost":0.01},"classroomParams":{"A":{"a":1,"b":4},"B":{"a":4,"b":1},"C":{"a":2,"b":8},"D":{"a":8,"b":2}},"conditions":["nonSeqFull","nonSeqPartial","seqNoFeedback","seqFeedback"],"classroomPairings":[["A","B"],["C","D"]],"coinWeights":[0.2,0.5,0.8],"subjectId":"A2LMQ4497NMK3S","assignmentId":"31UV0MXWNRYLGTKSZBZ0CRLXR4WI5R","hitId":"3Z3R5YC0P3915KVY8X6BNRIWSQNFTT","url":"https://gershmanlab.com/experiments/alicia/teaching/experiment/?hitId=3Z3R5YC0P3915KVY8X6BNRIWSQNFTT&workerId=A2LMQ4497NMK3S&assignmentId=31UV0MXWNRYLGTKSZBZ0CRLXR4WI5R&a=W0U19&tp_a=W0U19&b=31UV0MXWNRYLGTKSZBZ0CRLXR4WI5R&tp_b=31UV0MXWNRYLGTKSZBZ0CRLXR4WI5R&c=365799&tp_c=365799","firstResponseHeads":1,"firstResponseTails":0,"secondResponseHeads":0,"secondResponseTails":1,"totalHeads":1,"totalTails":1,"studentIndex":11,"studentTrueHypers":{"a":4,"b":1},"studentGuess":0.7142857142857143,"delta":0.08571428571428574,"bonus":0,"bonusSoFar":3.66,"totalExamples":2},{"rt":9301,"response":{"heads":"0","tails":"6"},"type":"response","condition":"seqFeedback","trueTheta":0.5,"classrooms":["C","D"],"studentTrueClassroom":"D","exampleSet":"first","trial_type":"survey-html-form","trial_index":92,"time_elapsed":704050,"internal_node_id":"0.0-89.0-0.0","params":{"nStudents":24,"maxFlips":30,"completionMinutes":45,"basePay":8,"maxBonus":9,"perTrialBonus":0.5,"perTrialBonusThreshold":0.05,"exampleCost":0.01},"classroomParams":{"A":{"a":1,"b":4},"B":{"a":4,"b":1},"C":{"a":2,"b":8},"D":{"a":8,"b":2}},"conditions":["nonSeqFull","nonSeqPartial","seqNoFeedback","seqFeedback"],"classroomPairings":[["A","B"],["C","D"]],"coinWeights":[0.2,0.5,0.8],"subjectId":"A2LMQ4497NMK3S","assignmentId":"31UV0MXWNRYLGTKSZBZ0CRLXR4WI5R","hitId":"3Z3R5YC0P3915KVY8X6BNRIWSQNFTT","url":"https://gershmanlab.com/experiments/alicia/teaching/experiment/?hitId=3Z3R5YC0P3915KVY8X6BNRIWSQNFTT&workerId=A2LMQ4497NMK3S&assignmentId=31UV0MXWNRYLGTKSZBZ0CRLXR4WI5R&a=W0U19&tp_a=W0U19&b=31UV0MXWNRYLGTKSZBZ0CRLXR4WI5R&tp_b=31UV0MXWNRYLGTKSZBZ0CRLXR4WI5R&c=365799&tp_c=365799","heads":0,"tails":6,"studentIndex":12,"studentTrueHypers":{"a":8,"b":2},"studentGuess":0.5,"delta":0,"totalExamples":6,"bonusSoFar":3.66},{"rt":4466,"response":{"heads":"1","tails":"1"},"type":"response","condition":"seqFeedback","trueTheta":0.5,"classrooms":["C","D"],"studentTrueClassroom":"D","exampleSet":"second","trial_type":"survey-html-form","trial_index":96,"time_elapsed":719569,"internal_node_id":"0.0-93.0-0.0","params":{"nStudents":24,"maxFlips":30,"completionMinutes":45,"basePay":8,"maxBonus":9,"perTrialBonus":0.5,"perTrialBonusThreshold":0.05,"exampleCost":0.01},"classroomParams":{"A":{"a":1,"b":4},"B":{"a":4,"b":1},"C":{"a":2,"b":8},"D":{"a":8,"b":2}},"conditions":["nonSeqFull","nonSeqPartial","seqNoFeedback","seqFeedback"],"classroomPairings":[["A","B"],["C","D"]],"coinWeights":[0.2,0.5,0.8],"subjectId":"A2LMQ4497NMK3S","assignmentId":"31UV0MXWNRYLGTKSZBZ0CRLXR4WI5R","hitId":"3Z3R5YC0P3915KVY8X6BNRIWSQNFTT","url":"https://gershmanlab.com/experiments/alicia/teaching/experiment/?hitId=3Z3R5YC0P3915KVY8X6BNRIWSQNFTT&workerId=A2LMQ4497NMK3S&assignmentId=31UV0MXWNRYLGTKSZBZ0CRLXR4WI5R&a=W0U19&tp_a=W0U19&b=31UV0MXWNRYLGTKSZBZ0CRLXR4WI5R&tp_b=31UV0MXWNRYLGTKSZBZ0CRLXR4WI5R&c=365799&tp_c=365799","firstResponseHeads":0,"firstResponseTails":6,"secondResponseHeads":1,"secondResponseTails":1,"totalHeads":1,"totalTails":7,"studentIndex":12,"studentTrueHypers":{"a":8,"b":2},"studentGuess":0.5,"delta":0,"bonus":0.42,"bonusSoFar":4.08,"totalExamples":8},{"rt":11033,"response":{"heads":"0","tails":"1"},"type":"response","condition":"seqNoFeedback","trueTheta":0.2,"classrooms":["A","B"],"studentTrueClassroom":"A","exampleSet":"first","trial_type":"survey-html-form","trial_index":102,"time_elapsed":743441,"internal_node_id":"0.0-99.0-0.0","params":{"nStudents":24,"maxFlips":30,"completionMinutes":45,"basePay":8,"maxBonus":9,"perTrialBonus":0.5,"perTrialBonusThreshold":0.05,"exampleCost":0.01},"classroomParams":{"A":{"a":1,"b":4},"B":{"a":4,"b":1},"C":{"a":2,"b":8},"D":{"a":8,"b":2}},"conditions":["nonSeqFull","nonSeqPartial","seqNoFeedback","seqFeedback"],"classroomPairings":[["A","B"],["C","D"]],"coinWeights":[0.2,0.5,0.8],"subjectId":"A2LMQ4497NMK3S","assignmentId":"31UV0MXWNRYLGTKSZBZ0CRLXR4WI5R","hitId":"3Z3R5YC0P3915KVY8X6BNRIWSQNFTT","url":"https://gershmanlab.com/experiments/alicia/teaching/experiment/?hitId=3Z3R5YC0P3915KVY8X6BNRIWSQNFTT&workerId=A2LMQ4497NMK3S&assignmentId=31UV0MXWNRYLGTKSZBZ0CRLXR4WI5R&a=W0U19&tp_a=W0U19&b=31UV0MXWNRYLGTKSZBZ0CRLXR4WI5R&tp_b=31UV0MXWNRYLGTKSZBZ0CRLXR4WI5R&c=365799&tp_c=365799","heads":0,"tails":1,"studentIndex":13,"studentTrueHypers":{"a":1,"b":4},"studentGuess":0.16666666666666666,"delta":0.033333333333333354,"totalExamples":1,"bonusSoFar":4.08},{"rt":8009,"response":{"heads":"1","tails":"1"},"type":"response","condition":"seqNoFeedback","trueTheta":0.2,"classrooms":["A","B"],"studentTrueClassroom":"A","exampleSet":"second","trial_type":"survey-html-form","trial_index":105,"time_elapsed":757711,"internal_node_id":"0.0-102.0-0.0","params":{"nStudents":24,"maxFlips":30,"completionMinutes":45,"basePay":8,"maxBonus":9,"perTrialBonus":0.5,"perTrialBonusThreshold":0.05,"exampleCost":0.01},"classroomParams":{"A":{"a":1,"b":4},"B":{"a":4,"b":1},"C":{"a":2,"b":8},"D":{"a":8,"b":2}},"conditions":["nonSeqFull","nonSeqPartial","seqNoFeedback","seqFeedback"],"classroomPairings":[["A","B"],["C","D"]],"coinWeights":[0.2,0.5,0.8],"subjectId":"A2LMQ4497NMK3S","assignmentId":"31UV0MXWNRYLGTKSZBZ0CRLXR4WI5R","hitId":"3Z3R5YC0P3915KVY8X6BNRIWSQNFTT","url":"https://gershmanlab.com/experiments/alicia/teaching/experiment/?hitId=3Z3R5YC0P3915KVY8X6BNRIWSQNFTT&workerId=A2LMQ4497NMK3S&assignmentId=31UV0MXWNRYLGTKSZBZ0CRLXR4WI5R&a=W0U19&tp_a=W0U19&b=31UV0MXWNRYLGTKSZBZ0CRLXR4WI5R&tp_b=31UV0MXWNRYLGTKSZBZ0CRLXR4WI5R&c=365799&tp_c=365799","firstResponseHeads":0,"firstResponseTails":1,"secondResponseHeads":1,"secondResponseTails":1,"totalHeads":1,"totalTails":2,"studentIndex":13,"studentTrueHypers":{"a":1,"b":4},"studentGuess":0.25,"delta":0.04999999999999999,"bonus":0.47,"bonusSoFar":4.55,"totalExamples":3},{"rt":5563,"response":{"heads":"0","tails":"3"},"type":"response","condition":"seqNoFeedback","trueTheta":0.5,"classrooms":["A","B"],"studentTrueClassroom":"A","exampleSet":"first","trial_type":"survey-html-form","trial_index":111,"time_elapsed":779552,"internal_node_id":"0.0-108.0-0.0","params":{"nStudents":24,"maxFlips":30,"completionMinutes":45,"basePay":8,"maxBonus":9,"perTrialBonus":0.5,"perTrialBonusThreshold":0.05,"exampleCost":0.01},"classroomParams":{"A":{"a":1,"b":4},"B":{"a":4,"b":1},"C":{"a":2,"b":8},"D":{"a":8,"b":2}},"conditions":["nonSeqFull","nonSeqPartial","seqNoFeedback","seqFeedback"],"classroomPairings":[["A","B"],["C","D"]],"coinWeights":[0.2,0.5,0.8],"subjectId":"A2LMQ4497NMK3S","assignmentId":"31UV0MXWNRYLGTKSZBZ0CRLXR4WI5R","hitId":"3Z3R5YC0P3915KVY8X6BNRIWSQNFTT","url":"https://gershmanlab.com/experiments/alicia/teaching/experiment/?hitId=3Z3R5YC0P3915KVY8X6BNRIWSQNFTT&workerId=A2LMQ4497NMK3S&assignmentId=31UV0MXWNRYLGTKSZBZ0CRLXR4WI5R&a=W0U19&tp_a=W0U19&b=31UV0MXWNRYLGTKSZBZ0CRLXR4WI5R&tp_b=31UV0MXWNRYLGTKSZBZ0CRLXR4WI5R&c=365799&tp_c=365799","heads":0,"tails":3,"studentIndex":14,"studentTrueHypers":{"a":1,"b":4},"studentGuess":0.125,"delta":0.375,"totalExamples":3,"bonusSoFar":4.55},{"rt":6029,"response":{"heads":"1","tails":"1"},"type":"response","condition":"seqNoFeedback","trueTheta":0.5,"classrooms":["A","B"],"studentTrueClassroom":"A","exampleSet":"second","trial_type":"survey-html-form","trial_index":114,"time_elapsed":792842,"internal_node_id":"0.0-111.0-0.0","params":{"nStudents":24,"maxFlips":30,"completionMinutes":45,"basePay":8,"maxBonus":9,"perTrialBonus":0.5,"perTrialBonusThreshold":0.05,"exampleCost":0.01},"classroomParams":{"A":{"a":1,"b":4},"B":{"a":4,"b":1},"C":{"a":2,"b":8},"D":{"a":8,"b":2}},"conditions":["nonSeqFull","nonSeqPartial","seqNoFeedback","seqFeedback"],"classroomPairings":[["A","B"],["C","D"]],"coinWeights":[0.2,0.5,0.8],"subjectId":"A2LMQ4497NMK3S","assignmentId":"31UV0MXWNRYLGTKSZBZ0CRLXR4WI5R","hitId":"3Z3R5YC0P3915KVY8X6BNRIWSQNFTT","url":"https://gershmanlab.com/experiments/alicia/teaching/experiment/?hitId=3Z3R5YC0P3915KVY8X6BNRIWSQNFTT&workerId=A2LMQ4497NMK3S&assignmentId=31UV0MXWNRYLGTKSZBZ0CRLXR4WI5R&a=W0U19&tp_a=W0U19&b=31UV0MXWNRYLGTKSZBZ0CRLXR4WI5R&tp_b=31UV0MXWNRYLGTKSZBZ0CRLXR4WI5R&c=365799&tp_c=365799","firstResponseHeads":0,"firstResponseTails":3,"secondResponseHeads":1,"secondResponseTails":1,"totalHeads":1,"totalTails":4,"studentIndex":14,"studentTrueHypers":{"a":1,"b":4},"studentGuess":0.2,"delta":0.3,"bonus":0,"bonusSoFar":4.55,"totalExamples":5},{"rt":24473,"response":{"heads":"0","tails":"1"},"type":"response","condition":"nonSeqPartial","trueTheta":0.2,"classrooms":["A","B"],"studentTrueClassroom":"B","exampleSet":"first","trial_type":"survey-html-form","trial_index":120,"time_elapsed":830044,"internal_node_id":"0.0-117.0-0.0","params":{"nStudents":24,"maxFlips":30,"completionMinutes":45,"basePay":8,"maxBonus":9,"perTrialBonus":0.5,"perTrialBonusThreshold":0.05,"exampleCost":0.01},"classroomParams":{"A":{"a":1,"b":4},"B":{"a":4,"b":1},"C":{"a":2,"b":8},"D":{"a":8,"b":2}},"conditions":["nonSeqFull","nonSeqPartial","seqNoFeedback","seqFeedback"],"classroomPairings":[["A","B"],["C","D"]],"coinWeights":[0.2,0.5,0.8],"subjectId":"A2LMQ4497NMK3S","assignmentId":"31UV0MXWNRYLGTKSZBZ0CRLXR4WI5R","hitId":"3Z3R5YC0P3915KVY8X6BNRIWSQNFTT","url":"https://gershmanlab.com/experiments/alicia/teaching/experiment/?hitId=3Z3R5YC0P3915KVY8X6BNRIWSQNFTT&workerId=A2LMQ4497NMK3S&assignmentId=31UV0MXWNRYLGTKSZBZ0CRLXR4WI5R&a=W0U19&tp_a=W0U19&b=31UV0MXWNRYLGTKSZBZ0CRLXR4WI5R&tp_b=31UV0MXWNRYLGTKSZBZ0CRLXR4WI5R&c=365799&tp_c=365799","heads":0,"tails":1,"studentIndex":15,"studentTrueHypers":{"a":4,"b":1},"studentGuess":0.6666666666666666,"delta":0.4666666666666666,"totalExamples":1,"bonus":0,"bonusSoFar":4.55},{"rt":10201,"response":{"heads":"0","tails":"1"},"type":"response","condition":"seqFeedback","trueTheta":0.8,"classrooms":["C","D"],"studentTrueClassroom":"D","exampleSet":"first","trial_type":"survey-html-form","trial_index":126,"time_elapsed":857201,"internal_node_id":"0.0-123.0-0.0","params":{"nStudents":24,"maxFlips":30,"completionMinutes":45,"basePay":8,"maxBonus":9,"perTrialBonus":0.5,"perTrialBonusThreshold":0.05,"exampleCost":0.01},"classroomParams":{"A":{"a":1,"b":4},"B":{"a":4,"b":1},"C":{"a":2,"b":8},"D":{"a":8,"b":2}},"conditions":["nonSeqFull","nonSeqPartial","seqNoFeedback","seqFeedback"],"classroomPairings":[["A","B"],["C","D"]],"coinWeights":[0.2,0.5,0.8],"subjectId":"A2LMQ4497NMK3S","assignmentId":"31UV0MXWNRYLGTKSZBZ0CRLXR4WI5R","hitId":"3Z3R5YC0P3915KVY8X6BNRIWSQNFTT","url":"https://gershmanlab.com/experiments/alicia/teaching/experiment/?hitId=3Z3R5YC0P3915KVY8X6BNRIWSQNFTT&workerId=A2LMQ4497NMK3S&assignmentId=31UV0MXWNRYLGTKSZBZ0CRLXR4WI5R&a=W0U19&tp_a=W0U19&b=31UV0MXWNRYLGTKSZBZ0CRLXR4WI5R&tp_b=31UV0MXWNRYLGTKSZBZ0CRLXR4WI5R&c=365799&tp_c=365799","heads":0,"tails":1,"studentIndex":16,"studentTrueHypers":{"a":8,"b":2},"studentGuess":0.7272727272727273,"delta":0.07272727272727275,"totalExamples":1,"bonusSoFar":4.55},{"rt":4349,"response":{"heads":"2","tails":"0"},"type":"response","condition":"seqFeedback","trueTheta":0.8,"classrooms":["C","D"],"studentTrueClassroom":"D","exampleSet":"second","trial_type":"survey-html-form","trial_index":130,"time_elapsed":872597,"internal_node_id":"0.0-127.0-0.0","params":{"nStudents":24,"maxFlips":30,"completionMinutes":45,"basePay":8,"maxBonus":9,"perTrialBonus":0.5,"perTrialBonusThreshold":0.05,"exampleCost":0.01},"classroomParams":{"A":{"a":1,"b":4},"B":{"a":4,"b":1},"C":{"a":2,"b":8},"D":{"a":8,"b":2}},"conditions":["nonSeqFull","nonSeqPartial","seqNoFeedback","seqFeedback"],"classroomPairings":[["A","B"],["C","D"]],"coinWeights":[0.2,0.5,0.8],"subjectId":"A2LMQ4497NMK3S","assignmentId":"31UV0MXWNRYLGTKSZBZ0CRLXR4WI5R","hitId":"3Z3R5YC0P3915KVY8X6BNRIWSQNFTT","url":"https://gershmanlab.com/experiments/alicia/teaching/experiment/?hitId=3Z3R5YC0P3915KVY8X6BNRIWSQNFTT&workerId=A2LMQ4497NMK3S&assignmentId=31UV0MXWNRYLGTKSZBZ0CRLXR4WI5R&a=W0U19&tp_a=W0U19&b=31UV0MXWNRYLGTKSZBZ0CRLXR4WI5R&tp_b=31UV0MXWNRYLGTKSZBZ0CRLXR4WI5R&c=365799&tp_c=365799","firstResponseHeads":0,"firstResponseTails":1,"secondResponseHeads":2,"secondResponseTails":0,"totalHeads":2,"totalTails":1,"studentIndex":16,"studentTrueHypers":{"a":8,"b":2},"studentGuess":0.7692307692307693,"delta":0.03076923076923077,"bonus":0.47,"bonusSoFar":5.02,"totalExamples":3},{"rt":6275,"response":{"heads":"0","tails":"1"},"type":"response","condition":"seqFeedback","trueTheta":0.2,"classrooms":["A","B"],"studentTrueClassroom":"B","exampleSet":"first","trial_type":"survey-html-form","trial_index":136,"time_elapsed":893321,"internal_node_id":"0.0-133.0-0.0","params":{"nStudents":24,"maxFlips":30,"completionMinutes":45,"basePay":8,"maxBonus":9,"perTrialBonus":0.5,"perTrialBonusThreshold":0.05,"exampleCost":0.01},"classroomParams":{"A":{"a":1,"b":4},"B":{"a":4,"b":1},"C":{"a":2,"b":8},"D":{"a":8,"b":2}},"conditions":["nonSeqFull","nonSeqPartial","seqNoFeedback","seqFeedback"],"classroomPairings":[["A","B"],["C","D"]],"coinWeights":[0.2,0.5,0.8],"subjectId":"A2LMQ4497NMK3S","assignmentId":"31UV0MXWNRYLGTKSZBZ0CRLXR4WI5R","hitId":"3Z3R5YC0P3915KVY8X6BNRIWSQNFTT","url":"https://gershmanlab.com/experiments/alicia/teaching/experiment/?hitId=3Z3R5YC0P3915KVY8X6BNRIWSQNFTT&workerId=A2LMQ4497NMK3S&assignmentId=31UV0MXWNRYLGTKSZBZ0CRLXR4WI5R&a=W0U19&tp_a=W0U19&b=31UV0MXWNRYLGTKSZBZ0CRLXR4WI5R&tp_b=31UV0MXWNRYLGTKSZBZ0CRLXR4WI5R&c=365799&tp_c=365799","heads":0,"tails":1,"studentIndex":17,"studentTrueHypers":{"a":4,"b":1},"studentGuess":0.6666666666666666,"delta":0.4666666666666666,"totalExamples":1,"bonusSoFar":5.02},{"rt":9388,"response":{"heads":"0","tails":"10"},"type":"response","condition":"seqFeedback","trueTheta":0.2,"classrooms":["A","B"],"studentTrueClassroom":"B","exampleSet":"second","trial_type":"survey-html-form","trial_index":140,"time_elapsed":917059,"internal_node_id":"0.0-137.0-0.0","params":{"nStudents":24,"maxFlips":30,"completionMinutes":45,"basePay":8,"maxBonus":9,"perTrialBonus":0.5,"perTrialBonusThreshold":0.05,"exampleCost":0.01},"classroomParams":{"A":{"a":1,"b":4},"B":{"a":4,"b":1},"C":{"a":2,"b":8},"D":{"a":8,"b":2}},"conditions":["nonSeqFull","nonSeqPartial","seqNoFeedback","seqFeedback"],"classroomPairings":[["A","B"],["C","D"]],"coinWeights":[0.2,0.5,0.8],"subjectId":"A2LMQ4497NMK3S","assignmentId":"31UV0MXWNRYLGTKSZBZ0CRLXR4WI5R","hitId":"3Z3R5YC0P3915KVY8X6BNRIWSQNFTT","url":"https://gershmanlab.com/experiments/alicia/teaching/experiment/?hitId=3Z3R5YC0P3915KVY8X6BNRIWSQNFTT&workerId=A2LMQ4497NMK3S&assignmentId=31UV0MXWNRYLGTKSZBZ0CRLXR4WI5R&a=W0U19&tp_a=W0U19&b=31UV0MXWNRYLGTKSZBZ0CRLXR4WI5R&tp_b=31UV0MXWNRYLGTKSZBZ0CRLXR4WI5R&c=365799&tp_c=365799","firstResponseHeads":0,"firstResponseTails":1,"secondResponseHeads":0,"secondResponseTails":10,"totalHeads":0,"totalTails":11,"studentIndex":17,"studentTrueHypers":{"a":4,"b":1},"studentGuess":0.25,"delta":0.04999999999999999,"bonus":0.39,"bonusSoFar":5.41,"totalExamples":11},{"rt":7851,"response":{"heads":"0","tails":"1"},"type":"response","condition":"seqNoFeedback","trueTheta":0.8,"classrooms":["C","D"],"studentTrueClassroom":"D","exampleSet":"first","trial_type":"survey-html-form","trial_index":146,"time_elapsed":944741,"internal_node_id":"0.0-143.0-0.0","params":{"nStudents":24,"maxFlips":30,"completionMinutes":45,"basePay":8,"maxBonus":9,"perTrialBonus":0.5,"perTrialBonusThreshold":0.05,"exampleCost":0.01},"classroomParams":{"A":{"a":1,"b":4},"B":{"a":4,"b":1},"C":{"a":2,"b":8},"D":{"a":8,"b":2}},"conditions":["nonSeqFull","nonSeqPartial","seqNoFeedback","seqFeedback"],"classroomPairings":[["A","B"],["C","D"]],"coinWeights":[0.2,0.5,0.8],"subjectId":"A2LMQ4497NMK3S","assignmentId":"31UV0MXWNRYLGTKSZBZ0CRLXR4WI5R","hitId":"3Z3R5YC0P3915KVY8X6BNRIWSQNFTT","url":"https://gershmanlab.com/experiments/alicia/teaching/experiment/?hitId=3Z3R5YC0P3915KVY8X6BNRIWSQNFTT&workerId=A2LMQ4497NMK3S&assignmentId=31UV0MXWNRYLGTKSZBZ0CRLXR4WI5R&a=W0U19&tp_a=W0U19&b=31UV0MXWNRYLGTKSZBZ0CRLXR4WI5R&tp_b=31UV0MXWNRYLGTKSZBZ0CRLXR4WI5R&c=365799&tp_c=365799","heads":0,"tails":1,"studentIndex":18,"studentTrueHypers":{"a":8,"b":2},"studentGuess":0.7272727272727273,"delta":0.07272727272727275,"totalExamples":1,"bonusSoFar":5.41},{"rt":4102,"response":{"heads":"1","tails":"0"},"type":"response","condition":"seqNoFeedback","trueTheta":0.8,"classrooms":["C","D"],"studentTrueClassroom":"D","exampleSet":"second","trial_type":"survey-html-form","trial_index":149,"time_elapsed":954115,"internal_node_id":"0.0-146.0-0.0","params":{"nStudents":24,"maxFlips":30,"completionMinutes":45,"basePay":8,"maxBonus":9,"perTrialBonus":0.5,"perTrialBonusThreshold":0.05,"exampleCost":0.01},"classroomParams":{"A":{"a":1,"b":4},"B":{"a":4,"b":1},"C":{"a":2,"b":8},"D":{"a":8,"b":2}},"conditions":["nonSeqFull","nonSeqPartial","seqNoFeedback","seqFeedback"],"classroomPairings":[["A","B"],["C","D"]],"coinWeights":[0.2,0.5,0.8],"subjectId":"A2LMQ4497NMK3S","assignmentId":"31UV0MXWNRYLGTKSZBZ0CRLXR4WI5R","hitId":"3Z3R5YC0P3915KVY8X6BNRIWSQNFTT","url":"https://gershmanlab.com/experiments/alicia/teaching/experiment/?hitId=3Z3R5YC0P3915KVY8X6BNRIWSQNFTT&workerId=A2LMQ4497NMK3S&assignmentId=31UV0MXWNRYLGTKSZBZ0CRLXR4WI5R&a=W0U19&tp_a=W0U19&b=31UV0MXWNRYLGTKSZBZ0CRLXR4WI5R&tp_b=31UV0MXWNRYLGTKSZBZ0CRLXR4WI5R&c=365799&tp_c=365799","firstResponseHeads":0,"firstResponseTails":1,"secondResponseHeads":1,"secondResponseTails":0,"totalHeads":1,"totalTails":1,"studentIndex":18,"studentTrueHypers":{"a":8,"b":2},"studentGuess":0.75,"delta":0.050000000000000044,"bonus":0,"bonusSoFar":5.41,"totalExamples":2},{"rt":8995,"response":{"heads":"0","tails":"1"},"type":"response","condition":"seqNoFeedback","trueTheta":0.2,"classrooms":["C","D"],"studentTrueClassroom":"D","exampleSet":"first","trial_type":"survey-html-form","trial_index":155,"time_elapsed":980814,"internal_node_id":"0.0-152.0-0.0","params":{"nStudents":24,"maxFlips":30,"completionMinutes":45,"basePay":8,"maxBonus":9,"perTrialBonus":0.5,"perTrialBonusThreshold":0.05,"exampleCost":0.01},"classroomParams":{"A":{"a":1,"b":4},"B":{"a":4,"b":1},"C":{"a":2,"b":8},"D":{"a":8,"b":2}},"conditions":["nonSeqFull","nonSeqPartial","seqNoFeedback","seqFeedback"],"classroomPairings":[["A","B"],["C","D"]],"coinWeights":[0.2,0.5,0.8],"subjectId":"A2LMQ4497NMK3S","assignmentId":"31UV0MXWNRYLGTKSZBZ0CRLXR4WI5R","hitId":"3Z3R5YC0P3915KVY8X6BNRIWSQNFTT","url":"https://gershmanlab.com/experiments/alicia/teaching/experiment/?hitId=3Z3R5YC0P3915KVY8X6BNRIWSQNFTT&workerId=A2LMQ4497NMK3S&assignmentId=31UV0MXWNRYLGTKSZBZ0CRLXR4WI5R&a=W0U19&tp_a=W0U19&b=31UV0MXWNRYLGTKSZBZ0CRLXR4WI5R&tp_b=31UV0MXWNRYLGTKSZBZ0CRLXR4WI5R&c=365799&tp_c=365799","heads":0,"tails":1,"studentIndex":19,"studentTrueHypers":{"a":8,"b":2},"studentGuess":0.7272727272727273,"delta":0.5272727272727273,"totalExamples":1,"bonusSoFar":5.41},{"rt":4016,"response":{"heads":"1","tails":"0"},"type":"response","condition":"seqNoFeedback","trueTheta":0.2,"classrooms":["C","D"],"studentTrueClassroom":"D","exampleSet":"second","trial_type":"survey-html-form","trial_index":158,"time_elapsed":991348,"internal_node_id":"0.0-155.0-0.0","params":{"nStudents":24,"maxFlips":30,"completionMinutes":45,"basePay":8,"maxBonus":9,"perTrialBonus":0.5,"perTrialBonusThreshold":0.05,"exampleCost":0.01},"classroomParams":{"A":{"a":1,"b":4},"B":{"a":4,"b":1},"C":{"a":2,"b":8},"D":{"a":8,"b":2}},"conditions":["nonSeqFull","nonSeqPartial","seqNoFeedback","seqFeedback"],"classroomPairings":[["A","B"],["C","D"]],"coinWeights":[0.2,0.5,0.8],"subjectId":"A2LMQ4497NMK3S","assignmentId":"31UV0MXWNRYLGTKSZBZ0CRLXR4WI5R","hitId":"3Z3R5YC0P3915KVY8X6BNRIWSQNFTT","url":"https://gershmanlab.com/experiments/alicia/teaching/experiment/?hitId=3Z3R5YC0P3915KVY8X6BNRIWSQNFTT&workerId=A2LMQ4497NMK3S&assignmentId=31UV0MXWNRYLGTKSZBZ0CRLXR4WI5R&a=W0U19&tp_a=W0U19&b=31UV0MXWNRYLGTKSZBZ0CRLXR4WI5R&tp_b=31UV0MXWNRYLGTKSZBZ0CRLXR4WI5R&c=365799&tp_c=365799","firstResponseHeads":0,"firstResponseTails":1,"secondResponseHeads":1,"secondResponseTails":0,"totalHeads":1,"totalTails":1,"studentIndex":19,"studentTrueHypers":{"a":8,"b":2},"studentGuess":0.75,"delta":0.55,"bonus":0,"bonusSoFar":5.41,"totalExamples":2},{"rt":14661,"response":{"heads":"10","tails":"10"},"type":"response","condition":"seqFeedback","trueTheta":0.5,"classrooms":["A","B"],"studentTrueClassroom":"A","exampleSet":"first","trial_type":"survey-html-form","trial_index":164,"time_elapsed":1019609,"internal_node_id":"0.0-161.0-0.0","params":{"nStudents":24,"maxFlips":30,"completionMinutes":45,"basePay":8,"maxBonus":9,"perTrialBonus":0.5,"perTrialBonusThreshold":0.05,"exampleCost":0.01},"classroomParams":{"A":{"a":1,"b":4},"B":{"a":4,"b":1},"C":{"a":2,"b":8},"D":{"a":8,"b":2}},"conditions":["nonSeqFull","nonSeqPartial","seqNoFeedback","seqFeedback"],"classroomPairings":[["A","B"],["C","D"]],"coinWeights":[0.2,0.5,0.8],"subjectId":"A2LMQ4497NMK3S","assignmentId":"31UV0MXWNRYLGTKSZBZ0CRLXR4WI5R","hitId":"3Z3R5YC0P3915KVY8X6BNRIWSQNFTT","url":"https://gershmanlab.com/experiments/alicia/teaching/experiment/?hitId=3Z3R5YC0P3915KVY8X6BNRIWSQNFTT&workerId=A2LMQ4497NMK3S&assignmentId=31UV0MXWNRYLGTKSZBZ0CRLXR4WI5R&a=W0U19&tp_a=W0U19&b=31UV0MXWNRYLGTKSZBZ0CRLXR4WI5R&tp_b=31UV0MXWNRYLGTKSZBZ0CRLXR4WI5R&c=365799&tp_c=365799","heads":10,"tails":10,"studentIndex":20,"studentTrueHypers":{"a":1,"b":4},"studentGuess":0.44,"delta":0.06,"totalExamples":20,"bonusSoFar":5.41},{"rt":4623,"response":{"heads":"5","tails":"5"},"type":"response","condition":"seqFeedback","trueTheta":0.5,"classrooms":["A","B"],"studentTrueClassroom":"A","exampleSet":"second","trial_type":"survey-html-form","trial_index":168,"time_elapsed":1035863,"internal_node_id":"0.0-165.0-0.0","params":{"nStudents":24,"maxFlips":30,"completionMinutes":45,"basePay":8,"maxBonus":9,"perTrialBonus":0.5,"perTrialBonusThreshold":0.05,"exampleCost":0.01},"classroomParams":{"A":{"a":1,"b":4},"B":{"a":4,"b":1},"C":{"a":2,"b":8},"D":{"a":8,"b":2}},"conditions":["nonSeqFull","nonSeqPartial","seqNoFeedback","seqFeedback"],"classroomPairings":[["A","B"],["C","D"]],"coinWeights":[0.2,0.5,0.8],"subjectId":"A2LMQ4497NMK3S","assignmentId":"31UV0MXWNRYLGTKSZBZ0CRLXR4WI5R","hitId":"3Z3R5YC0P3915KVY8X6BNRIWSQNFTT","url":"https://gershmanlab.com/experiments/alicia/teaching/experiment/?hitId=3Z3R5YC0P3915KVY8X6BNRIWSQNFTT&workerId=A2LMQ4497NMK3S&assignmentId=31UV0MXWNRYLGTKSZBZ0CRLXR4WI5R&a=W0U19&tp_a=W0U19&b=31UV0MXWNRYLGTKSZBZ0CRLXR4WI5R&tp_b=31UV0MXWNRYLGTKSZBZ0CRLXR4WI5R&c=365799&tp_c=365799","firstResponseHeads":10,"firstResponseTails":10,"secondResponseHeads":5,"secondResponseTails":5,"totalHeads":15,"totalTails":15,"studentIndex":20,"studentTrueHypers":{"a":1,"b":4},"studentGuess":0.45714285714285713,"delta":0.04285714285714287,"bonus":0.2,"bonusSoFar":5.61,"totalExamples":30},{"rt":8045,"response":{"heads":"6","tails":"0"},"type":"response","condition":"nonSeqPartial","trueTheta":0.5,"classrooms":["C","D"],"studentTrueClassroom":"D","exampleSet":"first","trial_type":"survey-html-form","trial_index":174,"time_elapsed":1058557,"internal_node_id":"0.0-171.0-0.0","params":{"nStudents":24,"maxFlips":30,"completionMinutes":45,"basePay":8,"maxBonus":9,"perTrialBonus":0.5,"perTrialBonusThreshold":0.05,"exampleCost":0.01},"classroomParams":{"A":{"a":1,"b":4},"B":{"a":4,"b":1},"C":{"a":2,"b":8},"D":{"a":8,"b":2}},"conditions":["nonSeqFull","nonSeqPartial","seqNoFeedback","seqFeedback"],"classroomPairings":[["A","B"],["C","D"]],"coinWeights":[0.2,0.5,0.8],"subjectId":"A2LMQ4497NMK3S","assignmentId":"31UV0MXWNRYLGTKSZBZ0CRLXR4WI5R","hitId":"3Z3R5YC0P3915KVY8X6BNRIWSQNFTT","url":"https://gershmanlab.com/experiments/alicia/teaching/experiment/?hitId=3Z3R5YC0P3915KVY8X6BNRIWSQNFTT&workerId=A2LMQ4497NMK3S&assignmentId=31UV0MXWNRYLGTKSZBZ0CRLXR4WI5R&a=W0U19&tp_a=W0U19&b=31UV0MXWNRYLGTKSZBZ0CRLXR4WI5R&tp_b=31UV0MXWNRYLGTKSZBZ0CRLXR4WI5R&c=365799&tp_c=365799","heads":6,"tails":0,"studentIndex":21,"studentTrueHypers":{"a":8,"b":2},"studentGuess":0.875,"delta":0.375,"totalExamples":6,"bonus":0,"bonusSoFar":5.61},{"rt":19647,"response":{"heads":"0","tails":"30"},"type":"response","condition":"nonSeqFull","trueTheta":0.2,"classrooms":["C","D"],"studentTrueClassroom":"D","exampleSet":"first","trial_type":"survey-html-form","trial_index":180,"time_elapsed":1090205,"internal_node_id":"0.0-177.0-0.0","params":{"nStudents":24,"maxFlips":30,"completionMinutes":45,"basePay":8,"maxBonus":9,"perTrialBonus":0.5,"perTrialBonusThreshold":0.05,"exampleCost":0.01},"classroomParams":{"A":{"a":1,"b":4},"B":{"a":4,"b":1},"C":{"a":2,"b":8},"D":{"a":8,"b":2}},"conditions":["nonSeqFull","nonSeqPartial","seqNoFeedback","seqFeedback"],"classroomPairings":[["A","B"],["C","D"]],"coinWeights":[0.2,0.5,0.8],"subjectId":"A2LMQ4497NMK3S","assignmentId":"31UV0MXWNRYLGTKSZBZ0CRLXR4WI5R","hitId":"3Z3R5YC0P3915KVY8X6BNRIWSQNFTT","url":"https://gershmanlab.com/experiments/alicia/teaching/experiment/?hitId=3Z3R5YC0P3915KVY8X6BNRIWSQNFTT&workerId=A2LMQ4497NMK3S&assignmentId=31UV0MXWNRYLGTKSZBZ0CRLXR4WI5R&a=W0U19&tp_a=W0U19&b=31UV0MXWNRYLGTKSZBZ0CRLXR4WI5R&tp_b=31UV0MXWNRYLGTKSZBZ0CRLXR4WI5R&c=365799&tp_c=365799","heads":0,"tails":30,"studentIndex":22,"studentTrueHypers":{"a":8,"b":2},"studentGuess":0.2,"delta":0,"totalExamples":30,"bonus":0.2,"bonusSoFar":5.81},{"rt":13119,"response":{"heads":"15","tails":"15"},"type":"response","condition":"seqNoFeedback","trueTheta":0.5,"classrooms":["C","D"],"studentTrueClassroom":"C","exampleSet":"first","trial_type":"survey-html-form","trial_index":186,"time_elapsed":1117989,"internal_node_id":"0.0-183.0-0.0","params":{"nStudents":24,"maxFlips":30,"completionMinutes":45,"basePay":8,"maxBonus":9,"perTrialBonus":0.5,"perTrialBonusThreshold":0.05,"exampleCost":0.01},"classroomParams":{"A":{"a":1,"b":4},"B":{"a":4,"b":1},"C":{"a":2,"b":8},"D":{"a":8,"b":2}},"conditions":["nonSeqFull","nonSeqPartial","seqNoFeedback","seqFeedback"],"classroomPairings":[["A","B"],["C","D"]],"coinWeights":[0.2,0.5,0.8],"subjectId":"A2LMQ4497NMK3S","assignmentId":"31UV0MXWNRYLGTKSZBZ0CRLXR4WI5R","hitId":"3Z3R5YC0P3915KVY8X6BNRIWSQNFTT","url":"https://gershmanlab.com/experiments/alicia/teaching/experiment/?hitId=3Z3R5YC0P3915KVY8X6BNRIWSQNFTT&workerId=A2LMQ4497NMK3S&assignmentId=31UV0MXWNRYLGTKSZBZ0CRLXR4WI5R&a=W0U19&tp_a=W0U19&b=31UV0MXWNRYLGTKSZBZ0CRLXR4WI5R&tp_b=31UV0MXWNRYLGTKSZBZ0CRLXR4WI5R&c=365799&tp_c=365799","heads":15,"tails":15,"studentIndex":23,"studentTrueHypers":{"a":2,"b":8},"studentGuess":0.425,"delta":0.07500000000000001,"totalExamples":30,"bonusSoFar":5.81},{"rt":6220,"response":{"heads":"5","tails":"5"},"type":"response","condition":"seqNoFeedback","trueTheta":0.5,"classrooms":["C","D"],"studentTrueClassroom":"C","exampleSet":"second","trial_type":"survey-html-form","trial_index":189,"time_elapsed":1131743,"internal_node_id":"0.0-186.0-0.0","params":{"nStudents":24,"maxFlips":30,"completionMinutes":45,"basePay":8,"maxBonus":9,"perTrialBonus":0.5,"perTrialBonusThreshold":0.05,"exampleCost":0.01},"classroomParams":{"A":{"a":1,"b":4},"B":{"a":4,"b":1},"C":{"a":2,"b":8},"D":{"a":8,"b":2}},"conditions":["nonSeqFull","nonSeqPartial","seqNoFeedback","seqFeedback"],"classroomPairings":[["A","B"],["C","D"]],"coinWeights":[0.2,0.5,0.8],"subjectId":"A2LMQ4497NMK3S","assignmentId":"31UV0MXWNRYLGTKSZBZ0CRLXR4WI5R","hitId":"3Z3R5YC0P3915KVY8X6BNRIWSQNFTT","url":"https://gershmanlab.com/experiments/alicia/teaching/experiment/?hitId=3Z3R5YC0P3915KVY8X6BNRIWSQNFTT&workerId=A2LMQ4497NMK3S&assignmentId=31UV0MXWNRYLGTKSZBZ0CRLXR4WI5R&a=W0U19&tp_a=W0U19&b=31UV0MXWNRYLGTKSZBZ0CRLXR4WI5R&tp_b=31UV0MXWNRYLGTKSZBZ0CRLXR4WI5R&c=365799&tp_c=365799","firstResponseHeads":15,"firstResponseTails":15,"secondResponseHeads":5,"secondResponseTails":5,"totalHeads":20,"totalTails":20,"studentIndex":23,"studentTrueHypers":{"a":2,"b":8},"studentGuess":0.44,"delta":0.06,"bonus":0,"bonusSoFar":5.81,"totalExamples":40},{"rt":9703,"response":{"gender":"male","age":"40","understood":"yes","comments":""},"type":"response","trial_type":"survey-html-form","trial_index":193,"time_elapsed":1150967,"internal_node_id":"0.0-191.0","params":{"nStudents":24,"maxFlips":30,"completionMinutes":45,"basePay":8,"maxBonus":9,"perTrialBonus":0.5,"perTrialBonusThreshold":0.05,"exampleCost":0.01},"classroomParams":{"A":{"a":1,"b":4},"B":{"a":4,"b":1},"C":{"a":2,"b":8},"D":{"a":8,"b":2}},"conditions":["nonSeqFull","nonSeqPartial","seqNoFeedback","seqFeedback"],"classroomPairings":[["A","B"],["C","D"]],"coinWeights":[0.2,0.5,0.8],"subjectId":"A2LMQ4497NMK3S","assignmentId":"31UV0MXWNRYLGTKSZBZ0CRLXR4WI5R","hitId":"3Z3R5YC0P3915KVY8X6BNRIWSQNFTT","url":"https://gershmanlab.com/experiments/alicia/teaching/experiment/?hitId=3Z3R5YC0P3915KVY8X6BNRIWSQNFTT&workerId=A2LMQ4497NMK3S&assignmentId=31UV0MXWNRYLGTKSZBZ0CRLXR4WI5R&a=W0U19&tp_a=W0U19&b=31UV0MXWNRYLGTKSZBZ0CRLXR4WI5R&tp_b=31UV0MXWNRYLGTKSZBZ0CRLXR4WI5R&c=365799&tp_c=365799","totalBonus":5.81}]