[{"rt":25077,"response":{"heads":"4","tails":"1"},"type":"response","condition":"seqFeedback","trueTheta":0.8,"classrooms":["C","D"],"studentTrueClassroom":"D","exampleSet":"first","trial_type":"survey-html-form","trial_index":13,"time_elapsed":752337,"internal_node_id":"0.0-6.0-0.0","params":{"nStudents":24,"maxFlips":30,"completionMinutes":45,"basePay":8,"maxBonus":9,"perTrialBonus":0.5,"perTrialBonusThreshold":0.05,"exampleCost":0.01},"classroomParams":{"A":{"a":1,"b":4},"B":{"a":4,"b":1},"C":{"a":2,"b":8},"D":{"a":8,"b":2}},"conditions":["nonSeqFull","nonSeqPartial","seqNoFeedback","seqFeedback"],"classroomPairings":[["A","B"],["C","D"]],"coinWeights":[0.2,0.5,0.8],"subjectId":"A2M183CETUMR96","assignmentId":"36ZN444YTSK7O3QA4QVZLXLO8Z1IOW","hitId":"3NI0WFPPI9246I5W92FX9A3E2GN605","url":"https://gershmanlab.com/experiments/alicia/teaching/experiment/?hitId=3NI0WFPPI9246I5W92FX9A3E2GN605&workerId=A2M183CETUMR96&assignmentId=36ZN444YTSK7O3QA4QVZLXLO8Z1IOW&a=Y4Z69&tp_a=Y4Z69&b=36ZN444YTSK7O3QA4QVZLXLO8Z1IOW&tp_b=36ZN444YTSK7O3QA4QVZLXLO8Z1IOW&c=365799&tp_c=365799","heads":4,"tails":1,"studentIndex":0,"studentTrueHypers":{"a":8,"b":2},"studentGuess":0.8,"delta":0,"totalExamples":5,"bonusSoFar":0},{"rt":8502,"response":{"heads":"1","tails":"4"},"type":"response","condition":"seqFeedback","trueTheta":0.8,"classrooms":["C","D"],"studentTrueClassroom":"D","exampleSet":"second","trial_type":"survey-html-form","trial_index":17,"time_elapsed":776149,"internal_node_id":"0.0-10.0-0.0","params":{"nStudents":24,"maxFlips":30,"completionMinutes":45,"basePay":8,"maxBonus":9,"perTrialBonus":0.5,"perTrialBonusThreshold":0.05,"exampleCost":0.01},"classroomParams":{"A":{"a":1,"b":4},"B":{"a":4,"b":1},"C":{"a":2,"b":8},"D":{"a":8,"b":2}},"conditions":["nonSeqFull","nonSeqPartial","seqNoFeedback","seqFeedback"],"classroomPairings":[["A","B"],["C","D"]],"coinWeights":[0.2,0.5,0.8],"subjectId":"A2M183CETUMR96","assignmentId":"36ZN444YTSK7O3QA4QVZLXLO8Z1IOW","hitId":"3NI0WFPPI9246I5W92FX9A3E2GN605","url":"https://gershmanlab.com/experiments/alicia/teaching/experiment/?hitId=3NI0WFPPI9246I5W92FX9A3E2GN605&workerId=A2M183CETUMR96&assignmentId=36ZN444YTSK7O3QA4QVZLXLO8Z1IOW&a=Y4Z69&tp_a=Y4Z69&b=36ZN444YTSK7O3QA4QVZLXLO8Z1IOW&tp_b=36ZN444YTSK7O3QA4QVZLXLO8Z1IOW&c=365799&tp_c=365799","firstResponseHeads":4,"firstResponseTails":1,"secondResponseHeads":1,"secondResponseTails":4,"totalHeads":5,"totalTails":5,"studentIndex":0,"studentTrueHypers":{"a":8,"b":2},"studentGuess":0.65,"delta":0.15000000000000002,"bonus":0,"bonusSoFar":0,"totalExamples":10},{"rt":18086,"response":{"heads":"4","tails":"1"},"type":"response","condition":"nonSeqPartial","trueTheta":0.8,"classrooms":["A","B"],"studentTrueClassroom":"A","exampleSet":"first","trial_type":"survey-html-form","trial_index":23,"time_elapsed":820665,"internal_node_id":"0.0-16.0-0.0","params":{"nStudents":24,"maxFlips":30,"completionMinutes":45,"basePay":8,"maxBonus":9,"perTrialBonus":0.5,"perTrialBonusThreshold":0.05,"exampleCost":0.01},"classroomParams":{"A":{"a":1,"b":4},"B":{"a":4,"b":1},"C":{"a":2,"b":8},"D":{"a":8,"b":2}},"conditions":["nonSeqFull","nonSeqPartial","seqNoFeedback","seqFeedback"],"classroomPairings":[["A","B"],["C","D"]],"coinWeights":[0.2,0.5,0.8],"subjectId":"A2M183CETUMR96","assignmentId":"36ZN444YTSK7O3QA4QVZLXLO8Z1IOW","hitId":"3NI0WFPPI9246I5W92FX9A3E2GN605","url":"https://gershmanlab.com/experiments/alicia/teaching/experiment/?hitId=3NI0WFPPI9246I5W92FX9A3E2GN605&workerId=A2M183CETUMR96&assignmentId=36ZN444YTSK7O3QA4QVZLXLO8Z1IOW&a=Y4Z69&tp_a=Y4Z69&b=36ZN444YTSK7O3QA4QVZLXLO8Z1IOW&tp_b=36ZN444YTSK7O3QA4QVZLXLO8Z1IOW&c=365799&tp_c=365799","heads":4,"tails":1,"studentIndex":1,"studentTrueHypers":{"a":1,"b":4},"studentGuess":0.5,"delta":0.30000000000000004,"totalExamples":5,"bonus":0,"bonusSoFar":0},{"rt":12404,"response":{"heads":"1","tails":"4"},"type":"response","condition":"nonSeqFull","trueTheta":0.8,"classrooms":["A","B"],"studentTrueClassroom":"A","exampleSet":"first","trial_type":"survey-html-form","trial_index":29,"time_elapsed":852038,"internal_node_id":"0.0-22.0-0.0","params":{"nStudents":24,"maxFlips":30,"completionMinutes":45,"basePay":8,"maxBonus":9,"perTrialBonus":0.5,"perTrialBonusThreshold":0.05,"exampleCost":0.01},"classroomParams":{"A":{"a":1,"b":4},"B":{"a":4,"b":1},"C":{"a":2,"b":8},"D":{"a":8,"b":2}},"conditions":["nonSeqFull","nonSeqPartial","seqNoFeedback","seqFeedback"],"classroomPairings":[["A","B"],["C","D"]],"coinWeights":[0.2,0.5,0.8],"subjectId":"A2M183CETUMR96","assignmentId":"36ZN444YTSK7O3QA4QVZLXLO8Z1IOW","hitId":"3NI0WFPPI9246I5W92FX9A3E2GN605","url":"https://gershmanlab.com/experiments/alicia/teaching/experiment/?hitId=3NI0WFPPI9246I5W92FX9A3E2GN605&workerId=A2M183CETUMR96&assignmentId=36ZN444YTSK7O3QA4QVZLXLO8Z1IOW&a=Y4Z69&tp_a=Y4Z69&b=36ZN444YTSK7O3QA4QVZLXLO8Z1IOW&tp_b=36ZN444YTSK7O3QA4QVZLXLO8Z1IOW&c=365799&tp_c=365799","heads":1,"tails":4,"studentIndex":2,"studentTrueHypers":{"a":1,"b":4},"studentGuess":0.2,"delta":0.6000000000000001,"totalExamples":5,"bonus":0,"bonusSoFar":0},{"rt":9158,"response":{"heads":"4","tails":"1"},"type":"response","condition":"seqNoFeedback","trueTheta":0.8,"classrooms":["C","D"],"studentTrueClassroom":"C","exampleSet":"first","trial_type":"survey-html-form","trial_index":35,"time_elapsed":875552,"internal_node_id":"0.0-28.0-0.0","params":{"nStudents":24,"maxFlips":30,"completionMinutes":45,"basePay":8,"maxBonus":9,"perTrialBonus":0.5,"perTrialBonusThreshold":0.05,"exampleCost":0.01},"classroomParams":{"A":{"a":1,"b":4},"B":{"a":4,"b":1},"C":{"a":2,"b":8},"D":{"a":8,"b":2}},"conditions":["nonSeqFull","nonSeqPartial","seqNoFeedback","seqFeedback"],"classroomPairings":[["A","B"],["C","D"]],"coinWeights":[0.2,0.5,0.8],"subjectId":"A2M183CETUMR96","assignmentId":"36ZN444YTSK7O3QA4QVZLXLO8Z1IOW","hitId":"3NI0WFPPI9246I5W92FX9A3E2GN605","url":"https://gershmanlab.com/experiments/alicia/teaching/experiment/?hitId=3NI0WFPPI9246I5W92FX9A3E2GN605&workerId=A2M183CETUMR96&assignmentId=36ZN444YTSK7O3QA4QVZLXLO8Z1IOW&a=Y4Z69&tp_a=Y4Z69&b=36ZN444YTSK7O3QA4QVZLXLO8Z1IOW&tp_b=36ZN444YTSK7O3QA4QVZLXLO8Z1IOW&c=365799&tp_c=365799","heads":4,"tails":1,"studentIndex":3,"studentTrueHypers":{"a":2,"b":8},"studentGuess":0.4,"delta":0.4,"totalExamples":5,"bonusSoFar":0},{"rt":23675,"response":{"heads":"8","tails":"2"},"type":"response","condition":"seqNoFeedback","trueTheta":0.8,"classrooms":["C","D"],"studentTrueClassroom":"C","exampleSet":"second","trial_type":"survey-html-form","trial_index":38,"time_elapsed":906478,"internal_node_id":"0.0-31.0-0.0","params":{"nStudents":24,"maxFlips":30,"completionMinutes":45,"basePay":8,"maxBonus":9,"perTrialBonus":0.5,"perTrialBonusThreshold":0.05,"exampleCost":0.01},"classroomParams":{"A":{"a":1,"b":4},"B":{"a":4,"b":1},"C":{"a":2,"b":8},"D":{"a":8,"b":2}},"conditions":["nonSeqFull","nonSeqPartial","seqNoFeedback","seqFeedback"],"classroomPairings":[["A","B"],["C","D"]],"coinWeights":[0.2,0.5,0.8],"subjectId":"A2M183CETUMR96","assignmentId":"36ZN444YTSK7O3QA4QVZLXLO8Z1IOW","hitId":"3NI0WFPPI9246I5W92FX9A3E2GN605","url":"https://gershmanlab.com/experiments/alicia/teaching/experiment/?hitId=3NI0WFPPI9246I5W92FX9A3E2GN605&workerId=A2M183CETUMR96&assignmentId=36ZN444YTSK7O3QA4QVZLXLO8Z1IOW&a=Y4Z69&tp_a=Y4Z69&b=36ZN444YTSK7O3QA4QVZLXLO8Z1IOW&tp_b=36ZN444YTSK7O3QA4QVZLXLO8Z1IOW&c=365799&tp_c=365799","firstResponseHeads":4,"firstResponseTails":1,"secondResponseHeads":8,"secondResponseTails":2,"totalHeads":12,"totalTails":3,"studentIndex":3,"studentTrueHypers":{"a":2,"b":8},"studentGuess":0.56,"delta":0.24,"bonus":0,"bonusSoFar":0,"totalExamples":15},{"rt":21110,"response":{"heads":"2","tails":"2"},"type":"response","condition":"nonSeqFull","trueTheta":0.5,"classrooms":["A","B"],"studentTrueClassroom":"A","exampleSet":"first","trial_type":"survey-html-form","trial_index":44,"time_elapsed":946782,"internal_node_id":"0.0-37.0-0.0","params":{"nStudents":24,"maxFlips":30,"completionMinutes":45,"basePay":8,"maxBonus":9,"perTrialBonus":0.5,"perTrialBonusThreshold":0.05,"exampleCost":0.01},"classroomParams":{"A":{"a":1,"b":4},"B":{"a":4,"b":1},"C":{"a":2,"b":8},"D":{"a":8,"b":2}},"conditions":["nonSeqFull","nonSeqPartial","seqNoFeedback","seqFeedback"],"classroomPairings":[["A","B"],["C","D"]],"coinWeights":[0.2,0.5,0.8],"subjectId":"A2M183CETUMR96","assignmentId":"36ZN444YTSK7O3QA4QVZLXLO8Z1IOW","hitId":"3NI0WFPPI9246I5W92FX9A3E2GN605","url":"https://gershmanlab.com/experiments/alicia/teaching/experiment/?hitId=3NI0WFPPI9246I5W92FX9A3E2GN605&workerId=A2M183CETUMR96&assignmentId=36ZN444YTSK7O3QA4QVZLXLO8Z1IOW&a=Y4Z69&tp_a=Y4Z69&b=36ZN444YTSK7O3QA4QVZLXLO8Z1IOW&tp_b=36ZN444YTSK7O3QA4QVZLXLO8Z1IOW&c=365799&tp_c=365799","heads":2,"tails":2,"studentIndex":4,"studentTrueHypers":{"a":1,"b":4},"studentGuess":0.3333333333333333,"delta":0.16666666666666669,"totalExamples":4,"bonus":0,"bonusSoFar":0},{"rt":18165,"response":{"heads":"4","tails":"1"},"type":"response","condition":"seqNoFeedback","trueTheta":0.8,"classrooms":["A","B"],"studentTrueClassroom":"A","exampleSet":"first","trial_type":"survey-html-form","trial_index":50,"time_elapsed":988265,"internal_node_id":"0.0-43.0-0.0","params":{"nStudents":24,"maxFlips":30,"completionMinutes":45,"basePay":8,"maxBonus":9,"perTrialBonus":0.5,"perTrialBonusThreshold":0.05,"exampleCost":0.01},"classroomParams":{"A":{"a":1,"b":4},"B":{"a":4,"b":1},"C":{"a":2,"b":8},"D":{"a":8,"b":2}},"conditions":["nonSeqFull","nonSeqPartial","seqNoFeedback","seqFeedback"],"classroomPairings":[["A","B"],["C","D"]],"coinWeights":[0.2,0.5,0.8],"subjectId":"A2M183CETUMR96","assignmentId":"36ZN444YTSK7O3QA4QVZLXLO8Z1IOW","hitId":"3NI0WFPPI9246I5W92FX9A3E2GN605","url":"https://gershmanlab.com/experiments/alicia/teaching/experiment/?hitId=3NI0WFPPI9246I5W92FX9A3E2GN605&workerId=A2M183CETUMR96&assignmentId=36ZN444YTSK7O3QA4QVZLXLO8Z1IOW&a=Y4Z69&tp_a=Y4Z69&b=36ZN444YTSK7O3QA4QVZLXLO8Z1IOW&tp_b=36ZN444YTSK7O3QA4QVZLXLO8Z1IOW&c=365799&tp_c=365799","heads":4,"tails":1,"studentIndex":5,"studentTrueHypers":{"a":1,"b":4},"studentGuess":0.5,"delta":0.30000000000000004,"totalExamples":5,"bonusSoFar":0},{"rt":9549,"response":{"heads":"4","tails":"1"},"type":"response","condition":"seqNoFeedback","trueTheta":0.8,"classrooms":["A","B"],"studentTrueClassroom":"A","exampleSet":"second","trial_type":"survey-html-form","trial_index":53,"time_elapsed":1005066,"internal_node_id":"0.0-46.0-0.0","params":{"nStudents":24,"maxFlips":30,"completionMinutes":45,"basePay":8,"maxBonus":9,"perTrialBonus":0.5,"perTrialBonusThreshold":0.05,"exampleCost":0.01},"classroomParams":{"A":{"a":1,"b":4},"B":{"a":4,"b":1},"C":{"a":2,"b":8},"D":{"a":8,"b":2}},"conditions":["nonSeqFull","nonSeqPartial","seqNoFeedback","seqFeedback"],"classroomPairings":[["A","B"],["C","D"]],"coinWeights":[0.2,0.5,0.8],"subjectId":"A2M183CETUMR96","assignmentId":"36ZN444YTSK7O3QA4QVZLXLO8Z1IOW","hitId":"3NI0WFPPI9246I5W92FX9A3E2GN605","url":"https://gershmanlab.com/experiments/alicia/teaching/experiment/?hitId=3NI0WFPPI9246I5W92FX9A3E2GN605&workerId=A2M183CETUMR96&assignmentId=36ZN444YTSK7O3QA4QVZLXLO8Z1IOW&a=Y4Z69&tp_a=Y4Z69&b=36ZN444YTSK7O3QA4QVZLXLO8Z1IOW&tp_b=36ZN444YTSK7O3QA4QVZLXLO8Z1IOW&c=365799&tp_c=365799","firstResponseHeads":4,"firstResponseTails":1,"secondResponseHeads":4,"secondResponseTails":1,"totalHeads":8,"totalTails":2,"studentIndex":5,"studentTrueHypers":{"a":1,"b":4},"studentGuess":0.6,"delta":0.20000000000000007,"bonus":0,"bonusSoFar":0,"totalExamples":10},{"rt":12233,"response":{"heads":"8","tails":"2"},"type":"response","condition":"nonSeqFull","trueTheta":0.8,"classrooms":["C","D"],"studentTrueClassroom":"C","exampleSet":"first","trial_type":"survey-html-form","trial_index":59,"time_elapsed":1032313,"internal_node_id":"0.0-52.0-0.0","params":{"nStudents":24,"maxFlips":30,"completionMinutes":45,"basePay":8,"maxBonus":9,"perTrialBonus":0.5,"perTrialBonusThreshold":0.05,"exampleCost":0.01},"classroomParams":{"A":{"a":1,"b":4},"B":{"a":4,"b":1},"C":{"a":2,"b":8},"D":{"a":8,"b":2}},"conditions":["nonSeqFull","nonSeqPartial","seqNoFeedback","seqFeedback"],"classroomPairings":[["A","B"],["C","D"]],"coinWeights":[0.2,0.5,0.8],"subjectId":"A2M183CETUMR96","assignmentId":"36ZN444YTSK7O3QA4QVZLXLO8Z1IOW","hitId":"3NI0WFPPI9246I5W92FX9A3E2GN605","url":"https://gershmanlab.com/experiments/alicia/teaching/experiment/?hitId=3NI0WFPPI9246I5W92FX9A3E2GN605&workerId=A2M183CETUMR96&assignmentId=36ZN444YTSK7O3QA4QVZLXLO8Z1IOW&a=Y4Z69&tp_a=Y4Z69&b=36ZN444YTSK7O3QA4QVZLXLO8Z1IOW&tp_b=36ZN444YTSK7O3QA4QVZLXLO8Z1IOW&c=365799&tp_c=365799","heads":8,"tails":2,"studentIndex":6,"studentTrueHypers":{"a":2,"b":8},"studentGuess":0.5,"delta":0.30000000000000004,"totalExamples":10,"bonus":0,"bonusSoFar":0},{"rt":70607,"response":{"heads":"2","tails":"8"},"type":"response","condition":"seqFeedback","trueTheta":0.2,"classrooms":["A","B"],"studentTrueClassroom":"B","exampleSet":"first","trial_type":"survey-html-form","trial_index":65,"time_elapsed":1119761,"internal_node_id":"0.0-58.0-0.0","params":{"nStudents":24,"maxFlips":30,"completionMinutes":45,"basePay":8,"maxBonus":9,"perTrialBonus":0.5,"perTrialBonusThreshold":0.05,"exampleCost":0.01},"classroomParams":{"A":{"a":1,"b":4},"B":{"a":4,"b":1},"C":{"a":2,"b":8},"D":{"a":8,"b":2}},"conditions":["nonSeqFull","nonSeqPartial","seqNoFeedback","seqFeedback"],"classroomPairings":[["A","B"],["C","D"]],"coinWeights":[0.2,0.5,0.8],"subjectId":"A2M183CETUMR96","assignmentId":"36ZN444YTSK7O3QA4QVZLXLO8Z1IOW","hitId":"3NI0WFPPI9246I5W92FX9A3E2GN605","url":"https://gershmanlab.com/experiments/alicia/teaching/experiment/?hitId=3NI0WFPPI9246I5W92FX9A3E2GN605&workerId=A2M183CETUMR96&assignmentId=36ZN444YTSK7O3QA4QVZLXLO8Z1IOW&a=Y4Z69&tp_a=Y4Z69&b=36ZN444YTSK7O3QA4QVZLXLO8Z1IOW&tp_b=36ZN444YTSK7O3QA4QVZLXLO8Z1IOW&c=365799&tp_c=365799","heads":2,"tails":8,"studentIndex":7,"studentTrueHypers":{"a":4,"b":1},"studentGuess":0.4,"delta":0.2,"totalExamples":10,"bonusSoFar":0},{"rt":12700,"response":{"heads":"1","tails":"4"},"type":"response","condition":"seqFeedback","trueTheta":0.2,"classrooms":["A","B"],"studentTrueClassroom":"B","exampleSet":"second","trial_type":"survey-html-form","trial_index":69,"time_elapsed":1143036,"internal_node_id":"0.0-62.0-0.0","params":{"nStudents":24,"maxFlips":30,"completionMinutes":45,"basePay":8,"maxBonus":9,"perTrialBonus":0.5,"perTrialBonusThreshold":0.05,"exampleCost":0.01},"classroomParams":{"A":{"a":1,"b":4},"B":{"a":4,"b":1},"C":{"a":2,"b":8},"D":{"a":8,"b":2}},"conditions":["nonSeqFull","nonSeqPartial","seqNoFeedback","seqFeedback"],"classroomPairings":[["A","B"],["C","D"]],"coinWeights":[0.2,0.5,0.8],"subjectId":"A2M183CETUMR96","assignmentId":"36ZN444YTSK7O3QA4QVZLXLO8Z1IOW","hitId":"3NI0WFPPI9246I5W92FX9A3E2GN605","url":"https://gershmanlab.com/experiments/alicia/teaching/experiment/?hitId=3NI0WFPPI9246I5W92FX9A3E2GN605&workerId=A2M183CETUMR96&assignmentId=36ZN444YTSK7O3QA4QVZLXLO8Z1IOW&a=Y4Z69&tp_a=Y4Z69&b=36ZN444YTSK7O3QA4QVZLXLO8Z1IOW&tp_b=36ZN444YTSK7O3QA4QVZLXLO8Z1IOW&c=365799&tp_c=365799","firstResponseHeads":2,"firstResponseTails":8,"secondResponseHeads":1,"secondResponseTails":4,"totalHeads":3,"totalTails":12,"studentIndex":7,"studentTrueHypers":{"a":4,"b":1},"studentGuess":0.35,"delta":0.14999999999999997,"bonus":0,"bonusSoFar":0,"totalExamples":15},{"rt":6593,"response":{"heads":"5","tails":"5"},"type":"response","condition":"nonSeqPartial","trueTheta":0.5,"classrooms":["A","B"],"studentTrueClassroom":"B","exampleSet":"first","trial_type":"survey-html-form","trial_index":75,"time_elapsed":1162150,"internal_node_id":"0.0-68.0-0.0","params":{"nStudents":24,"maxFlips":30,"completionMinutes":45,"basePay":8,"maxBonus":9,"perTrialBonus":0.5,"perTrialBonusThreshold":0.05,"exampleCost":0.01},"classroomParams":{"A":{"a":1,"b":4},"B":{"a":4,"b":1},"C":{"a":2,"b":8},"D":{"a":8,"b":2}},"conditions":["nonSeqFull","nonSeqPartial","seqNoFeedback","seqFeedback"],"classroomPairings":[["A","B"],["C","D"]],"coinWeights":[0.2,0.5,0.8],"subjectId":"A2M183CETUMR96","assignmentId":"36ZN444YTSK7O3QA4QVZLXLO8Z1IOW","hitId":"3NI0WFPPI9246I5W92FX9A3E2GN605","url":"https://gershmanlab.com/experiments/alicia/teaching/experiment/?hitId=3NI0WFPPI9246I5W92FX9A3E2GN605&workerId=A2M183CETUMR96&assignmentId=36ZN444YTSK7O3QA4QVZLXLO8Z1IOW&a=Y4Z69&tp_a=Y4Z69&b=36ZN444YTSK7O3QA4QVZLXLO8Z1IOW&tp_b=36ZN444YTSK7O3QA4QVZLXLO8Z1IOW&c=365799&tp_c=365799","heads":5,"tails":5,"studentIndex":8,"studentTrueHypers":{"a":4,"b":1},"studentGuess":0.6,"delta":0.09999999999999998,"totalExamples":10,"bonus":0,"bonusSoFar":0},{"rt":7920,"response":{"heads":"5","tails":"5"},"type":"response","condition":"nonSeqPartial","trueTheta":0.5,"classrooms":["C","D"],"studentTrueClassroom":"D","exampleSet":"first","trial_type":"survey-html-form","trial_index":81,"time_elapsed":1195006,"internal_node_id":"0.0-74.0-0.0","params":{"nStudents":24,"maxFlips":30,"completionMinutes":45,"basePay":8,"maxBonus":9,"perTrialBonus":0.5,"perTrialBonusThreshold":0.05,"exampleCost":0.01},"classroomParams":{"A":{"a":1,"b":4},"B":{"a":4,"b":1},"C":{"a":2,"b":8},"D":{"a":8,"b":2}},"conditions":["nonSeqFull","nonSeqPartial","seqNoFeedback","seqFeedback"],"classroomPairings":[["A","B"],["C","D"]],"coinWeights":[0.2,0.5,0.8],"subjectId":"A2M183CETUMR96","assignmentId":"36ZN444YTSK7O3QA4QVZLXLO8Z1IOW","hitId":"3NI0WFPPI9246I5W92FX9A3E2GN605","url":"https://gershmanlab.com/experiments/alicia/teaching/experiment/?hitId=3NI0WFPPI9246I5W92FX9A3E2GN605&workerId=A2M183CETUMR96&assignmentId=36ZN444YTSK7O3QA4QVZLXLO8Z1IOW&a=Y4Z69&tp_a=Y4Z69&b=36ZN444YTSK7O3QA4QVZLXLO8Z1IOW&tp_b=36ZN444YTSK7O3QA4QVZLXLO8Z1IOW&c=365799&tp_c=365799","heads":5,"tails":5,"studentIndex":9,"studentTrueHypers":{"a":8,"b":2},"studentGuess":0.65,"delta":0.15000000000000002,"totalExamples":10,"bonus":0,"bonusSoFar":0},{"rt":6315,"response":{"heads":"1","tails":"4"},"type":"response","condition":"nonSeqPartial","trueTheta":0.2,"classrooms":["A","B"],"studentTrueClassroom":"A","exampleSet":"first","trial_type":"survey-html-form","trial_index":87,"time_elapsed":1219591,"internal_node_id":"0.0-80.0-0.0","params":{"nStudents":24,"maxFlips":30,"completionMinutes":45,"basePay":8,"maxBonus":9,"perTrialBonus":0.5,"perTrialBonusThreshold":0.05,"exampleCost":0.01},"classroomParams":{"A":{"a":1,"b":4},"B":{"a":4,"b":1},"C":{"a":2,"b":8},"D":{"a":8,"b":2}},"conditions":["nonSeqFull","nonSeqPartial","seqNoFeedback","seqFeedback"],"classroomPairings":[["A","B"],["C","D"]],"coinWeights":[0.2,0.5,0.8],"subjectId":"A2M183CETUMR96","assignmentId":"36ZN444YTSK7O3QA4QVZLXLO8Z1IOW","hitId":"3NI0WFPPI9246I5W92FX9A3E2GN605","url":"https://gershmanlab.com/experiments/alicia/teaching/experiment/?hitId=3NI0WFPPI9246I5W92FX9A3E2GN605&workerId=A2M183CETUMR96&assignmentId=36ZN444YTSK7O3QA4QVZLXLO8Z1IOW&a=Y4Z69&tp_a=Y4Z69&b=36ZN444YTSK7O3QA4QVZLXLO8Z1IOW&tp_b=36ZN444YTSK7O3QA4QVZLXLO8Z1IOW&c=365799&tp_c=365799","heads":1,"tails":4,"studentIndex":10,"studentTrueHypers":{"a":1,"b":4},"studentGuess":0.2,"delta":0,"totalExamples":5,"bonus":0.45,"bonusSoFar":0.45},{"rt":10485,"response":{"heads":"10","tails":"10"},"type":"response","condition":"seqNoFeedback","trueTheta":0.5,"classrooms":["A","B"],"studentTrueClassroom":"B","exampleSet":"first","trial_type":"survey-html-form","trial_index":93,"time_elapsed":1242740,"internal_node_id":"0.0-86.0-0.0","params":{"nStudents":24,"maxFlips":30,"completionMinutes":45,"basePay":8,"maxBonus":9,"perTrialBonus":0.5,"perTrialBonusThreshold":0.05,"exampleCost":0.01},"classroomParams":{"A":{"a":1,"b":4},"B":{"a":4,"b":1},"C":{"a":2,"b":8},"D":{"a":8,"b":2}},"conditions":["nonSeqFull","nonSeqPartial","seqNoFeedback","seqFeedback"],"classroomPairings":[["A","B"],["C","D"]],"coinWeights":[0.2,0.5,0.8],"subjectId":"A2M183CETUMR96","assignmentId":"36ZN444YTSK7O3QA4QVZLXLO8Z1IOW","hitId":"3NI0WFPPI9246I5W92FX9A3E2GN605","url":"https://gershmanlab.com/experiments/alicia/teaching/experiment/?hitId=3NI0WFPPI9246I5W92FX9A3E2GN605&workerId=A2M183CETUMR96&assignmentId=36ZN444YTSK7O3QA4QVZLXLO8Z1IOW&a=Y4Z69&tp_a=Y4Z69&b=36ZN444YTSK7O3QA4QVZLXLO8Z1IOW&tp_b=36ZN444YTSK7O3QA4QVZLXLO8Z1IOW&c=365799&tp_c=365799","heads":10,"tails":10,"studentIndex":11,"studentTrueHypers":{"a":4,"b":1},"studentGuess":0.56,"delta":0.06000000000000005,"totalExamples":20,"bonusSoFar":0.45},{"rt":14405,"response":{"heads":"2","tails":"2"},"type":"response","condition":"seqNoFeedback","trueTheta":0.5,"classrooms":["A","B"],"studentTrueClassroom":"B","exampleSet":"second","trial_type":"survey-html-form","trial_index":96,"time_elapsed":1264647,"internal_node_id":"0.0-89.0-0.0","params":{"nStudents":24,"maxFlips":30,"completionMinutes":45,"basePay":8,"maxBonus":9,"perTrialBonus":0.5,"perTrialBonusThreshold":0.05,"exampleCost":0.01},"classroomParams":{"A":{"a":1,"b":4},"B":{"a":4,"b":1},"C":{"a":2,"b":8},"D":{"a":8,"b":2}},"conditions":["nonSeqFull","nonSeqPartial","seqNoFeedback","seqFeedback"],"classroomPairings":[["A","B"],["C","D"]],"coinWeights":[0.2,0.5,0.8],"subjectId":"A2M183CETUMR96","assignmentId":"36ZN444YTSK7O3QA4QVZLXLO8Z1IOW","hitId":"3NI0WFPPI9246I5W92FX9A3E2GN605","url":"https://gershmanlab.com/experiments/alicia/teaching/experiment/?hitId=3NI0WFPPI9246I5W92FX9A3E2GN605&workerId=A2M183CETUMR96&assignmentId=36ZN444YTSK7O3QA4QVZLXLO8Z1IOW&a=Y4Z69&tp_a=Y4Z69&b=36ZN444YTSK7O3QA4QVZLXLO8Z1IOW&tp_b=36ZN444YTSK7O3QA4QVZLXLO8Z1IOW&c=365799&tp_c=365799","firstResponseHeads":10,"firstResponseTails":10,"secondResponseHeads":2,"secondResponseTails":2,"totalHeads":12,"totalTails":12,"studentIndex":11,"studentTrueHypers":{"a":4,"b":1},"studentGuess":0.5517241379310345,"delta":0.051724137931034475,"bonus":0,"bonusSoFar":0.45,"totalExamples":24},{"rt":8593,"response":{"heads":"2","tails":"8"},"type":"response","condition":"nonSeqPartial","trueTheta":0.2,"classrooms":["C","D"],"studentTrueClassroom":"C","exampleSet":"first","trial_type":"survey-html-form","trial_index":102,"time_elapsed":1306839,"internal_node_id":"0.0-95.0-0.0","params":{"nStudents":24,"maxFlips":30,"completionMinutes":45,"basePay":8,"maxBonus":9,"perTrialBonus":0.5,"perTrialBonusThreshold":0.05,"exampleCost":0.01},"classroomParams":{"A":{"a":1,"b":4},"B":{"a":4,"b":1},"C":{"a":2,"b":8},"D":{"a":8,"b":2}},"conditions":["nonSeqFull","nonSeqPartial","seqNoFeedback","seqFeedback"],"classroomPairings":[["A","B"],["C","D"]],"coinWeights":[0.2,0.5,0.8],"subjectId":"A2M183CETUMR96","assignmentId":"36ZN444YTSK7O3QA4QVZLXLO8Z1IOW","hitId":"3NI0WFPPI9246I5W92FX9A3E2GN605","url":"https://gershmanlab.com/experiments/alicia/teaching/experiment/?hitId=3NI0WFPPI9246I5W92FX9A3E2GN605&workerId=A2M183CETUMR96&assignmentId=36ZN444YTSK7O3QA4QVZLXLO8Z1IOW&a=Y4Z69&tp_a=Y4Z69&b=36ZN444YTSK7O3QA4QVZLXLO8Z1IOW&tp_b=36ZN444YTSK7O3QA4QVZLXLO8Z1IOW&c=365799&tp_c=365799","heads":2,"tails":8,"studentIndex":12,"studentTrueHypers":{"a":2,"b":8},"studentGuess":0.2,"delta":0,"totalExamples":10,"bonus":0.4,"bonusSoFar":0.85},{"rt":7934,"response":{"heads":"1","tails":"1"},"type":"response","condition":"nonSeqFull","trueTheta":0.5,"classrooms":["C","D"],"studentTrueClassroom":"C","exampleSet":"first","trial_type":"survey-html-form","trial_index":108,"time_elapsed":1328723,"internal_node_id":"0.0-101.0-0.0","params":{"nStudents":24,"maxFlips":30,"completionMinutes":45,"basePay":8,"maxBonus":9,"perTrialBonus":0.5,"perTrialBonusThreshold":0.05,"exampleCost":0.01},"classroomParams":{"A":{"a":1,"b":4},"B":{"a":4,"b":1},"C":{"a":2,"b":8},"D":{"a":8,"b":2}},"conditions":["nonSeqFull","nonSeqPartial","seqNoFeedback","seqFeedback"],"classroomPairings":[["A","B"],["C","D"]],"coinWeights":[0.2,0.5,0.8],"subjectId":"A2M183CETUMR96","assignmentId":"36ZN444YTSK7O3QA4QVZLXLO8Z1IOW","hitId":"3NI0WFPPI9246I5W92FX9A3E2GN605","url":"https://gershmanlab.com/experiments/alicia/teaching/experiment/?hitId=3NI0WFPPI9246I5W92FX9A3E2GN605&workerId=A2M183CETUMR96&assignmentId=36ZN444YTSK7O3QA4QVZLXLO8Z1IOW&a=Y4Z69&tp_a=Y4Z69&b=36ZN444YTSK7O3QA4QVZLXLO8Z1IOW&tp_b=36ZN444YTSK7O3QA4QVZLXLO8Z1IOW&c=365799&tp_c=365799","heads":1,"tails":1,"studentIndex":13,"studentTrueHypers":{"a":2,"b":8},"studentGuess":0.25,"delta":0.25,"totalExamples":2,"bonus":0,"bonusSoFar":0.85},{"rt":11489,"response":{"heads":"1","tails":"4"},"type":"response","condition":"nonSeqFull","trueTheta":0.2,"classrooms":["A","B"],"studentTrueClassroom":"A","exampleSet":"first","trial_type":"survey-html-form","trial_index":114,"time_elapsed":1358723,"internal_node_id":"0.0-107.0-0.0","params":{"nStudents":24,"maxFlips":30,"completionMinutes":45,"basePay":8,"maxBonus":9,"perTrialBonus":0.5,"perTrialBonusThreshold":0.05,"exampleCost":0.01},"classroomParams":{"A":{"a":1,"b":4},"B":{"a":4,"b":1},"C":{"a":2,"b":8},"D":{"a":8,"b":2}},"conditions":["nonSeqFull","nonSeqPartial","seqNoFeedback","seqFeedback"],"classroomPairings":[["A","B"],["C","D"]],"coinWeights":[0.2,0.5,0.8],"subjectId":"A2M183CETUMR96","assignmentId":"36ZN444YTSK7O3QA4QVZLXLO8Z1IOW","hitId":"3NI0WFPPI9246I5W92FX9A3E2GN605","url":"https://gershmanlab.com/experiments/alicia/teaching/experiment/?hitId=3NI0WFPPI9246I5W92FX9A3E2GN605&workerId=A2M183CETUMR96&assignmentId=36ZN444YTSK7O3QA4QVZLXLO8Z1IOW&a=Y4Z69&tp_a=Y4Z69&b=36ZN444YTSK7O3QA4QVZLXLO8Z1IOW&tp_b=36ZN444YTSK7O3QA4QVZLXLO8Z1IOW&c=365799&tp_c=365799","heads":1,"tails":4,"studentIndex":14,"studentTrueHypers":{"a":1,"b":4},"studentGuess":0.2,"delta":0,"totalExamples":5,"bonus":0.45,"bonusSoFar":1.3},{"rt":11677,"response":{"heads":"2","tails":"8"},"type":"response","condition":"nonSeqFull","trueTheta":0.2,"classrooms":["C","D"],"studentTrueClassroom":"D","exampleSet":"first","trial_type":"survey-html-form","trial_index":120,"time_elapsed":1382383,"internal_node_id":"0.0-113.0-0.0","params":{"nStudents":24,"maxFlips":30,"completionMinutes":45,"basePay":8,"maxBonus":9,"perTrialBonus":0.5,"perTrialBonusThreshold":0.05,"exampleCost":0.01},"classroomParams":{"A":{"a":1,"b":4},"B":{"a":4,"b":1},"C":{"a":2,"b":8},"D":{"a":8,"b":2}},"conditions":["nonSeqFull","nonSeqPartial","seqNoFeedback","seqFeedback"],"classroomPairings":[["A","B"],["C","D"]],"coinWeights":[0.2,0.5,0.8],"subjectId":"A2M183CETUMR96","assignmentId":"36ZN444YTSK7O3QA4QVZLXLO8Z1IOW","hitId":"3NI0WFPPI9246I5W92FX9A3E2GN605","url":"https://gershmanlab.com/experiments/alicia/teaching/experiment/?hitId=3NI0WFPPI9246I5W92FX9A3E2GN605&workerId=A2M183CETUMR96&assignmentId=36ZN444YTSK7O3QA4QVZLXLO8Z1IOW&a=Y4Z69&tp_a=Y4Z69&b=36ZN444YTSK7O3QA4QVZLXLO8Z1IOW&tp_b=36ZN444YTSK7O3QA4QVZLXLO8Z1IOW&c=365799&tp_c=365799","heads":2,"tails":8,"studentIndex":15,"studentTrueHypers":{"a":8,"b":2},"studentGuess":0.5,"delta":0.3,"totalExamples":10,"bonus":0,"bonusSoFar":1.3},{"rt":6638,"response":{"heads":"2","tails":"8"},"type":"response","condition":"seqFeedback","trueTheta":0.2,"classrooms":["C","D"],"studentTrueClassroom":"C","exampleSet":"first","trial_type":"survey-html-form","trial_index":126,"time_elapsed":1405039,"internal_node_id":"0.0-119.0-0.0","params":{"nStudents":24,"maxFlips":30,"completionMinutes":45,"basePay":8,"maxBonus":9,"perTrialBonus":0.5,"perTrialBonusThreshold":0.05,"exampleCost":0.01},"classroomParams":{"A":{"a":1,"b":4},"B":{"a":4,"b":1},"C":{"a":2,"b":8},"D":{"a":8,"b":2}},"conditions":["nonSeqFull","nonSeqPartial","seqNoFeedback","seqFeedback"],"classroomPairings":[["A","B"],["C","D"]],"coinWeights":[0.2,0.5,0.8],"subjectId":"A2M183CETUMR96","assignmentId":"36ZN444YTSK7O3QA4QVZLXLO8Z1IOW","hitId":"3NI0WFPPI9246I5W92FX9A3E2GN605","url":"https://gershmanlab.com/experiments/alicia/teaching/experiment/?hitId=3NI0WFPPI9246I5W92FX9A3E2GN605&workerId=A2M183CETUMR96&assignmentId=36ZN444YTSK7O3QA4QVZLXLO8Z1IOW&a=Y4Z69&tp_a=Y4Z69&b=36ZN444YTSK7O3QA4QVZLXLO8Z1IOW&tp_b=36ZN444YTSK7O3QA4QVZLXLO8Z1IOW&c=365799&tp_c=365799","heads":2,"tails":8,"studentIndex":16,"studentTrueHypers":{"a":2,"b":8},"studentGuess":0.2,"delta":0,"totalExamples":10,"bonusSoFar":1.3},{"rt":5580,"response":{"heads":"2","tails":"8"},"type":"response","condition":"seqFeedback","trueTheta":0.2,"classrooms":["C","D"],"studentTrueClassroom":"C","exampleSet":"second","trial_type":"survey-html-form","trial_index":130,"time_elapsed":1423561,"internal_node_id":"0.0-123.0-0.0","params":{"nStudents":24,"maxFlips":30,"completionMinutes":45,"basePay":8,"maxBonus":9,"perTrialBonus":0.5,"perTrialBonusThreshold":0.05,"exampleCost":0.01},"classroomParams":{"A":{"a":1,"b":4},"B":{"a":4,"b":1},"C":{"a":2,"b":8},"D":{"a":8,"b":2}},"conditions":["nonSeqFull","nonSeqPartial","seqNoFeedback","seqFeedback"],"classroomPairings":[["A","B"],["C","D"]],"coinWeights":[0.2,0.5,0.8],"subjectId":"A2M183CETUMR96","assignmentId":"36ZN444YTSK7O3QA4QVZLXLO8Z1IOW","hitId":"3NI0WFPPI9246I5W92FX9A3E2GN605","url":"https://gershmanlab.com/experiments/alicia/teaching/experiment/?hitId=3NI0WFPPI9246I5W92FX9A3E2GN605&workerId=A2M183CETUMR96&assignmentId=36ZN444YTSK7O3QA4QVZLXLO8Z1IOW&a=Y4Z69&tp_a=Y4Z69&b=36ZN444YTSK7O3QA4QVZLXLO8Z1IOW&tp_b=36ZN444YTSK7O3QA4QVZLXLO8Z1IOW&c=365799&tp_c=365799","firstResponseHeads":2,"firstResponseTails":8,"secondResponseHeads":2,"secondResponseTails":8,"totalHeads":4,"totalTails":16,"studentIndex":16,"studentTrueHypers":{"a":2,"b":8},"studentGuess":0.2,"delta":0,"bonus":0.3,"bonusSoFar":1.6,"totalExamples":20},{"rt":18528,"response":{"heads":"8","tails":"8"},"type":"response","condition":"seqNoFeedback","trueTheta":0.5,"classrooms":["C","D"],"studentTrueClassroom":"C","exampleSet":"first","trial_type":"survey-html-form","trial_index":136,"time_elapsed":1454612,"internal_node_id":"0.0-129.0-0.0","params":{"nStudents":24,"maxFlips":30,"completionMinutes":45,"basePay":8,"maxBonus":9,"perTrialBonus":0.5,"perTrialBonusThreshold":0.05,"exampleCost":0.01},"classroomParams":{"A":{"a":1,"b":4},"B":{"a":4,"b":1},"C":{"a":2,"b":8},"D":{"a":8,"b":2}},"conditions":["nonSeqFull","nonSeqPartial","seqNoFeedback","seqFeedback"],"classroomPairings":[["A","B"],["C","D"]],"coinWeights":[0.2,0.5,0.8],"subjectId":"A2M183CETUMR96","assignmentId":"36ZN444YTSK7O3QA4QVZLXLO8Z1IOW","hitId":"3NI0WFPPI9246I5W92FX9A3E2GN605","url":"https://gershmanlab.com/experiments/alicia/teaching/experiment/?hitId=3NI0WFPPI9246I5W92FX9A3E2GN605&workerId=A2M183CETUMR96&assignmentId=36ZN444YTSK7O3QA4QVZLXLO8Z1IOW&a=Y4Z69&tp_a=Y4Z69&b=36ZN444YTSK7O3QA4QVZLXLO8Z1IOW&tp_b=36ZN444YTSK7O3QA4QVZLXLO8Z1IOW&c=365799&tp_c=365799","heads":8,"tails":8,"studentIndex":17,"studentTrueHypers":{"a":2,"b":8},"studentGuess":0.38461538461538464,"delta":0.11538461538461536,"totalExamples":16,"bonusSoFar":1.6},{"rt":11086,"response":{"heads":"8","tails":"8"},"type":"response","condition":"seqNoFeedback","trueTheta":0.5,"classrooms":["C","D"],"studentTrueClassroom":"C","exampleSet":"second","trial_type":"survey-html-form","trial_index":139,"time_elapsed":1471700,"internal_node_id":"0.0-132.0-0.0","params":{"nStudents":24,"maxFlips":30,"completionMinutes":45,"basePay":8,"maxBonus":9,"perTrialBonus":0.5,"perTrialBonusThreshold":0.05,"exampleCost":0.01},"classroomParams":{"A":{"a":1,"b":4},"B":{"a":4,"b":1},"C":{"a":2,"b":8},"D":{"a":8,"b":2}},"conditions":["nonSeqFull","nonSeqPartial","seqNoFeedback","seqFeedback"],"classroomPairings":[["A","B"],["C","D"]],"coinWeights":[0.2,0.5,0.8],"subjectId":"A2M183CETUMR96","assignmentId":"36ZN444YTSK7O3QA4QVZLXLO8Z1IOW","hitId":"3NI0WFPPI9246I5W92FX9A3E2GN605","url":"https://gershmanlab.com/experiments/alicia/teaching/experiment/?hitId=3NI0WFPPI9246I5W92FX9A3E2GN605&workerId=A2M183CETUMR96&assignmentId=36ZN444YTSK7O3QA4QVZLXLO8Z1IOW&a=Y4Z69&tp_a=Y4Z69&b=36ZN444YTSK7O3QA4QVZLXLO8Z1IOW&tp_b=36ZN444YTSK7O3QA4QVZLXLO8Z1IOW&c=365799&tp_c=365799","firstResponseHeads":8,"firstResponseTails":8,"secondResponseHeads":8,"secondResponseTails":8,"totalHeads":16,"totalTails":16,"studentIndex":17,"studentTrueHypers":{"a":2,"b":8},"studentGuess":0.42857142857142855,"delta":0.07142857142857145,"bonus":0,"bonusSoFar":1.6,"totalExamples":32},{"rt":7195,"response":{"heads":"4","tails":"1"},"type":"response","condition":"seqFeedback","trueTheta":0.8,"classrooms":["A","B"],"studentTrueClassroom":"A","exampleSet":"first","trial_type":"survey-html-form","trial_index":145,"time_elapsed":1497920,"internal_node_id":"0.0-138.0-0.0","params":{"nStudents":24,"maxFlips":30,"completionMinutes":45,"basePay":8,"maxBonus":9,"perTrialBonus":0.5,"perTrialBonusThreshold":0.05,"exampleCost":0.01},"classroomParams":{"A":{"a":1,"b":4},"B":{"a":4,"b":1},"C":{"a":2,"b":8},"D":{"a":8,"b":2}},"conditions":["nonSeqFull","nonSeqPartial","seqNoFeedback","seqFeedback"],"classroomPairings":[["A","B"],["C","D"]],"coinWeights":[0.2,0.5,0.8],"subjectId":"A2M183CETUMR96","assignmentId":"36ZN444YTSK7O3QA4QVZLXLO8Z1IOW","hitId":"3NI0WFPPI9246I5W92FX9A3E2GN605","url":"https://gershmanlab.com/experiments/alicia/teaching/experiment/?hitId=3NI0WFPPI9246I5W92FX9A3E2GN605&workerId=A2M183CETUMR96&assignmentId=36ZN444YTSK7O3QA4QVZLXLO8Z1IOW&a=Y4Z69&tp_a=Y4Z69&b=36ZN444YTSK7O3QA4QVZLXLO8Z1IOW&tp_b=36ZN444YTSK7O3QA4QVZLXLO8Z1IOW&c=365799&tp_c=365799","heads":4,"tails":1,"studentIndex":18,"studentTrueHypers":{"a":1,"b":4},"studentGuess":0.5,"delta":0.30000000000000004,"totalExamples":5,"bonusSoFar":1.6},{"rt":21235,"response":{"heads":"5","tails":"3"},"type":"response","condition":"seqFeedback","trueTheta":0.8,"classrooms":["A","B"],"studentTrueClassroom":"A","exampleSet":"second","trial_type":"survey-html-form","trial_index":149,"time_elapsed":1528100,"internal_node_id":"0.0-142.0-0.0","params":{"nStudents":24,"maxFlips":30,"completionMinutes":45,"basePay":8,"maxBonus":9,"perTrialBonus":0.5,"perTrialBonusThreshold":0.05,"exampleCost":0.01},"classroomParams":{"A":{"a":1,"b":4},"B":{"a":4,"b":1},"C":{"a":2,"b":8},"D":{"a":8,"b":2}},"conditions":["nonSeqFull","nonSeqPartial","seqNoFeedback","seqFeedback"],"classroomPairings":[["A","B"],["C","D"]],"coinWeights":[0.2,0.5,0.8],"subjectId":"A2M183CETUMR96","assignmentId":"36ZN444YTSK7O3QA4QVZLXLO8Z1IOW","hitId":"3NI0WFPPI9246I5W92FX9A3E2GN605","url":"https://gershmanlab.com/experiments/alicia/teaching/experiment/?hitId=3NI0WFPPI9246I5W92FX9A3E2GN605&workerId=A2M183CETUMR96&assignmentId=36ZN444YTSK7O3QA4QVZLXLO8Z1IOW&a=Y4Z69&tp_a=Y4Z69&b=36ZN444YTSK7O3QA4QVZLXLO8Z1IOW&tp_b=36ZN444YTSK7O3QA4QVZLXLO8Z1IOW&c=365799&tp_c=365799","firstResponseHeads":4,"firstResponseTails":1,"secondResponseHeads":5,"secondResponseTails":3,"totalHeads":9,"totalTails":4,"studentIndex":18,"studentTrueHypers":{"a":1,"b":4},"studentGuess":0.5555555555555556,"delta":0.24444444444444446,"bonus":0,"bonusSoFar":1.6,"totalExamples":13},{"rt":5396,"response":{"heads":"1","tails":"4"},"type":"response","condition":"seqNoFeedback","trueTheta":0.2,"classrooms":["A","B"],"studentTrueClassroom":"B","exampleSet":"first","trial_type":"survey-html-form","trial_index":155,"time_elapsed":1546346,"internal_node_id":"0.0-148.0-0.0","params":{"nStudents":24,"maxFlips":30,"completionMinutes":45,"basePay":8,"maxBonus":9,"perTrialBonus":0.5,"perTrialBonusThreshold":0.05,"exampleCost":0.01},"classroomParams":{"A":{"a":1,"b":4},"B":{"a":4,"b":1},"C":{"a":2,"b":8},"D":{"a":8,"b":2}},"conditions":["nonSeqFull","nonSeqPartial","seqNoFeedback","seqFeedback"],"classroomPairings":[["A","B"],["C","D"]],"coinWeights":[0.2,0.5,0.8],"subjectId":"A2M183CETUMR96","assignmentId":"36ZN444YTSK7O3QA4QVZLXLO8Z1IOW","hitId":"3NI0WFPPI9246I5W92FX9A3E2GN605","url":"https://gershmanlab.com/experiments/alicia/teaching/experiment/?hitId=3NI0WFPPI9246I5W92FX9A3E2GN605&workerId=A2M183CETUMR96&assignmentId=36ZN444YTSK7O3QA4QVZLXLO8Z1IOW&a=Y4Z69&tp_a=Y4Z69&b=36ZN444YTSK7O3QA4QVZLXLO8Z1IOW&tp_b=36ZN444YTSK7O3QA4QVZLXLO8Z1IOW&c=365799&tp_c=365799","heads":1,"tails":4,"studentIndex":19,"studentTrueHypers":{"a":4,"b":1},"studentGuess":0.5,"delta":0.3,"totalExamples":5,"bonusSoFar":1.6},{"rt":16904,"response":{"heads":"2","tails":"8"},"type":"response","condition":"seqNoFeedback","trueTheta":0.2,"classrooms":["A","B"],"studentTrueClassroom":"B","exampleSet":"second","trial_type":"survey-html-form","trial_index":158,"time_elapsed":1569502,"internal_node_id":"0.0-151.0-0.0","params":{"nStudents":24,"maxFlips":30,"completionMinutes":45,"basePay":8,"maxBonus":9,"perTrialBonus":0.5,"perTrialBonusThreshold":0.05,"exampleCost":0.01},"classroomParams":{"A":{"a":1,"b":4},"B":{"a":4,"b":1},"C":{"a":2,"b":8},"D":{"a":8,"b":2}},"conditions":["nonSeqFull","nonSeqPartial","seqNoFeedback","seqFeedback"],"classroomPairings":[["A","B"],["C","D"]],"coinWeights":[0.2,0.5,0.8],"subjectId":"A2M183CETUMR96","assignmentId":"36ZN444YTSK7O3QA4QVZLXLO8Z1IOW","hitId":"3NI0WFPPI9246I5W92FX9A3E2GN605","url":"https://gershmanlab.com/experiments/alicia/teaching/experiment/?hitId=3NI0WFPPI9246I5W92FX9A3E2GN605&workerId=A2M183CETUMR96&assignmentId=36ZN444YTSK7O3QA4QVZLXLO8Z1IOW&a=Y4Z69&tp_a=Y4Z69&b=36ZN444YTSK7O3QA4QVZLXLO8Z1IOW&tp_b=36ZN444YTSK7O3QA4QVZLXLO8Z1IOW&c=365799&tp_c=365799","firstResponseHeads":1,"firstResponseTails":4,"secondResponseHeads":2,"secondResponseTails":8,"totalHeads":3,"totalTails":12,"studentIndex":19,"studentTrueHypers":{"a":4,"b":1},"studentGuess":0.35,"delta":0.14999999999999997,"bonus":0,"bonusSoFar":1.6,"totalExamples":15},{"rt":12297,"response":{"heads":"2","tails":"8"},"type":"response","condition":"seqNoFeedback","trueTheta":0.2,"classrooms":["C","D"],"studentTrueClassroom":"C","exampleSet":"first","trial_type":"survey-html-form","trial_index":164,"time_elapsed":1596206,"internal_node_id":"0.0-157.0-0.0","params":{"nStudents":24,"maxFlips":30,"completionMinutes":45,"basePay":8,"maxBonus":9,"perTrialBonus":0.5,"perTrialBonusThreshold":0.05,"exampleCost":0.01},"classroomParams":{"A":{"a":1,"b":4},"B":{"a":4,"b":1},"C":{"a":2,"b":8},"D":{"a":8,"b":2}},"conditions":["nonSeqFull","nonSeqPartial","seqNoFeedback","seqFeedback"],"classroomPairings":[["A","B"],["C","D"]],"coinWeights":[0.2,0.5,0.8],"subjectId":"A2M183CETUMR96","assignmentId":"36ZN444YTSK7O3QA4QVZLXLO8Z1IOW","hitId":"3NI0WFPPI9246I5W92FX9A3E2GN605","url":"https://gershmanlab.com/experiments/alicia/teaching/experiment/?hitId=3NI0WFPPI9246I5W92FX9A3E2GN605&workerId=A2M183CETUMR96&assignmentId=36ZN444YTSK7O3QA4QVZLXLO8Z1IOW&a=Y4Z69&tp_a=Y4Z69&b=36ZN444YTSK7O3QA4QVZLXLO8Z1IOW&tp_b=36ZN444YTSK7O3QA4QVZLXLO8Z1IOW&c=365799&tp_c=365799","heads":2,"tails":8,"studentIndex":20,"studentTrueHypers":{"a":2,"b":8},"studentGuess":0.2,"delta":0,"totalExamples":10,"bonusSoFar":1.6},{"rt":11673,"response":{"heads":"1","tails":"4"},"type":"response","condition":"seqNoFeedback","trueTheta":0.2,"classrooms":["C","D"],"studentTrueClassroom":"C","exampleSet":"second","trial_type":"survey-html-form","trial_index":167,"time_elapsed":1614881,"internal_node_id":"0.0-160.0-0.0","params":{"nStudents":24,"maxFlips":30,"completionMinutes":45,"basePay":8,"maxBonus":9,"perTrialBonus":0.5,"perTrialBonusThreshold":0.05,"exampleCost":0.01},"classroomParams":{"A":{"a":1,"b":4},"B":{"a":4,"b":1},"C":{"a":2,"b":8},"D":{"a":8,"b":2}},"conditions":["nonSeqFull","nonSeqPartial","seqNoFeedback","seqFeedback"],"classroomPairings":[["A","B"],["C","D"]],"coinWeights":[0.2,0.5,0.8],"subjectId":"A2M183CETUMR96","assignmentId":"36ZN444YTSK7O3QA4QVZLXLO8Z1IOW","hitId":"3NI0WFPPI9246I5W92FX9A3E2GN605","url":"https://gershmanlab.com/experiments/alicia/teaching/experiment/?hitId=3NI0WFPPI9246I5W92FX9A3E2GN605&workerId=A2M183CETUMR96&assignmentId=36ZN444YTSK7O3QA4QVZLXLO8Z1IOW&a=Y4Z69&tp_a=Y4Z69&b=36ZN444YTSK7O3QA4QVZLXLO8Z1IOW&tp_b=36ZN444YTSK7O3QA4QVZLXLO8Z1IOW&c=365799&tp_c=365799","firstResponseHeads":2,"firstResponseTails":8,"secondResponseHeads":1,"secondResponseTails":4,"totalHeads":3,"totalTails":12,"studentIndex":20,"studentTrueHypers":{"a":2,"b":8},"studentGuess":0.2,"delta":0,"bonus":0.35,"bonusSoFar":1.95,"totalExamples":15},{"rt":6347,"response":{"heads":"5","tails":"5"},"type":"response","condition":"seqFeedback","trueTheta":0.5,"classrooms":["C","D"],"studentTrueClassroom":"C","exampleSet":"first","trial_type":"survey-html-form","trial_index":173,"time_elapsed":1634899,"internal_node_id":"0.0-166.0-0.0","params":{"nStudents":24,"maxFlips":30,"completionMinutes":45,"basePay":8,"maxBonus":9,"perTrialBonus":0.5,"perTrialBonusThreshold":0.05,"exampleCost":0.01},"classroomParams":{"A":{"a":1,"b":4},"B":{"a":4,"b":1},"C":{"a":2,"b":8},"D":{"a":8,"b":2}},"conditions":["nonSeqFull","nonSeqPartial","seqNoFeedback","seqFeedback"],"classroomPairings":[["A","B"],["C","D"]],"coinWeights":[0.2,0.5,0.8],"subjectId":"A2M183CETUMR96","assignmentId":"36ZN444YTSK7O3QA4QVZLXLO8Z1IOW","hitId":"3NI0WFPPI9246I5W92FX9A3E2GN605","url":"https://gershmanlab.com/experiments/alicia/teaching/experiment/?hitId=3NI0WFPPI9246I5W92FX9A3E2GN605&workerId=A2M183CETUMR96&assignmentId=36ZN444YTSK7O3QA4QVZLXLO8Z1IOW&a=Y4Z69&tp_a=Y4Z69&b=36ZN444YTSK7O3QA4QVZLXLO8Z1IOW&tp_b=36ZN444YTSK7O3QA4QVZLXLO8Z1IOW&c=365799&tp_c=365799","heads":5,"tails":5,"studentIndex":21,"studentTrueHypers":{"a":2,"b":8},"studentGuess":0.35,"delta":0.15000000000000002,"totalExamples":10,"bonusSoFar":1.95},{"rt":35641,"response":{"heads":"7","tails":"7"},"type":"response","condition":"seqFeedback","trueTheta":0.5,"classrooms":["C","D"],"studentTrueClassroom":"C","exampleSet":"second","trial_type":"survey-html-form","trial_index":177,"time_elapsed":1679309,"internal_node_id":"0.0-170.0-0.0","params":{"nStudents":24,"maxFlips":30,"completionMinutes":45,"basePay":8,"maxBonus":9,"perTrialBonus":0.5,"perTrialBonusThreshold":0.05,"exampleCost":0.01},"classroomParams":{"A":{"a":1,"b":4},"B":{"a":4,"b":1},"C":{"a":2,"b":8},"D":{"a":8,"b":2}},"conditions":["nonSeqFull","nonSeqPartial","seqNoFeedback","seqFeedback"],"classroomPairings":[["A","B"],["C","D"]],"coinWeights":[0.2,0.5,0.8],"subjectId":"A2M183CETUMR96","assignmentId":"36ZN444YTSK7O3QA4QVZLXLO8Z1IOW","hitId":"3NI0WFPPI9246I5W92FX9A3E2GN605","url":"https://gershmanlab.com/experiments/alicia/teaching/experiment/?hitId=3NI0WFPPI9246I5W92FX9A3E2GN605&workerId=A2M183CETUMR96&assignmentId=36ZN444YTSK7O3QA4QVZLXLO8Z1IOW&a=Y4Z69&tp_a=Y4Z69&b=36ZN444YTSK7O3QA4QVZLXLO8Z1IOW&tp_b=36ZN444YTSK7O3QA4QVZLXLO8Z1IOW&c=365799&tp_c=365799","firstResponseHeads":5,"firstResponseTails":5,"secondResponseHeads":7,"secondResponseTails":7,"totalHeads":12,"totalTails":12,"studentIndex":21,"studentTrueHypers":{"a":2,"b":8},"studentGuess":0.4117647058823529,"delta":0.08823529411764708,"bonus":0,"bonusSoFar":1.95,"totalExamples":24},{"rt":9580,"response":{"heads":"4","tails":"4"},"type":"response","condition":"seqFeedback","trueTheta":0.5,"classrooms":["A","B"],"studentTrueClassroom":"B","exampleSet":"first","trial_type":"survey-html-form","trial_index":183,"time_elapsed":1702908,"internal_node_id":"0.0-176.0-0.0","params":{"nStudents":24,"maxFlips":30,"completionMinutes":45,"basePay":8,"maxBonus":9,"perTrialBonus":0.5,"perTrialBonusThreshold":0.05,"exampleCost":0.01},"classroomParams":{"A":{"a":1,"b":4},"B":{"a":4,"b":1},"C":{"a":2,"b":8},"D":{"a":8,"b":2}},"conditions":["nonSeqFull","nonSeqPartial","seqNoFeedback","seqFeedback"],"classroomPairings":[["A","B"],["C","D"]],"coinWeights":[0.2,0.5,0.8],"subjectId":"A2M183CETUMR96","assignmentId":"36ZN444YTSK7O3QA4QVZLXLO8Z1IOW","hitId":"3NI0WFPPI9246I5W92FX9A3E2GN605","url":"https://gershmanlab.com/experiments/alicia/teaching/experiment/?hitId=3NI0WFPPI9246I5W92FX9A3E2GN605&workerId=A2M183CETUMR96&assignmentId=36ZN444YTSK7O3QA4QVZLXLO8Z1IOW&a=Y4Z69&tp_a=Y4Z69&b=36ZN444YTSK7O3QA4QVZLXLO8Z1IOW&tp_b=36ZN444YTSK7O3QA4QVZLXLO8Z1IOW&c=365799&tp_c=365799","heads":4,"tails":4,"studentIndex":22,"studentTrueHypers":{"a":4,"b":1},"studentGuess":0.6153846153846154,"delta":0.11538461538461542,"totalExamples":8,"bonusSoFar":1.95},{"rt":9034,"response":{"heads":"3","tails":"4"},"type":"response","condition":"seqFeedback","trueTheta":0.5,"classrooms":["A","B"],"studentTrueClassroom":"B","exampleSet":"second","trial_type":"survey-html-form","trial_index":187,"time_elapsed":1719767,"internal_node_id":"0.0-180.0-0.0","params":{"nStudents":24,"maxFlips":30,"completionMinutes":45,"basePay":8,"maxBonus":9,"perTrialBonus":0.5,"perTrialBonusThreshold":0.05,"exampleCost":0.01},"classroomParams":{"A":{"a":1,"b":4},"B":{"a":4,"b":1},"C":{"a":2,"b":8},"D":{"a":8,"b":2}},"conditions":["nonSeqFull","nonSeqPartial","seqNoFeedback","seqFeedback"],"classroomPairings":[["A","B"],["C","D"]],"coinWeights":[0.2,0.5,0.8],"subjectId":"A2M183CETUMR96","assignmentId":"36ZN444YTSK7O3QA4QVZLXLO8Z1IOW","hitId":"3NI0WFPPI9246I5W92FX9A3E2GN605","url":"https://gershmanlab.com/experiments/alicia/teaching/experiment/?hitId=3NI0WFPPI9246I5W92FX9A3E2GN605&workerId=A2M183CETUMR96&assignmentId=36ZN444YTSK7O3QA4QVZLXLO8Z1IOW&a=Y4Z69&tp_a=Y4Z69&b=36ZN444YTSK7O3QA4QVZLXLO8Z1IOW&tp_b=36ZN444YTSK7O3QA4QVZLXLO8Z1IOW&c=365799&tp_c=365799","firstResponseHeads":4,"firstResponseTails":4,"secondResponseHeads":3,"secondResponseTails":4,"totalHeads":7,"totalTails":8,"studentIndex":22,"studentTrueHypers":{"a":4,"b":1},"studentGuess":0.55,"delta":0.050000000000000044,"bonus":0,"bonusSoFar":1.95,"totalExamples":15},{"rt":6337,"response":{"heads":"8","tails":"2"},"type":"response","condition":"nonSeqPartial","trueTheta":0.8,"classrooms":["C","D"],"studentTrueClassroom":"C","exampleSet":"first","trial_type":"survey-html-form","trial_index":193,"time_elapsed":1772121,"internal_node_id":"0.0-186.0-0.0","params":{"nStudents":24,"maxFlips":30,"completionMinutes":45,"basePay":8,"maxBonus":9,"perTrialBonus":0.5,"perTrialBonusThreshold":0.05,"exampleCost":0.01},"classroomParams":{"A":{"a":1,"b":4},"B":{"a":4,"b":1},"C":{"a":2,"b":8},"D":{"a":8,"b":2}},"conditions":["nonSeqFull","nonSeqPartial","seqNoFeedback","seqFeedback"],"classroomPairings":[["A","B"],["C","D"]],"coinWeights":[0.2,0.5,0.8],"subjectId":"A2M183CETUMR96","assignmentId":"36ZN444YTSK7O3QA4QVZLXLO8Z1IOW","hitId":"3NI0WFPPI9246I5W92FX9A3E2GN605","url":"https://gershmanlab.com/experiments/alicia/teaching/experiment/?hitId=3NI0WFPPI9246I5W92FX9A3E2GN605&workerId=A2M183CETUMR96&assignmentId=36ZN444YTSK7O3QA4QVZLXLO8Z1IOW&a=Y4Z69&tp_a=Y4Z69&b=36ZN444YTSK7O3QA4QVZLXLO8Z1IOW&tp_b=36ZN444YTSK7O3QA4QVZLXLO8Z1IOW&c=365799&tp_c=365799","heads":8,"tails":2,"studentIndex":23,"studentTrueHypers":{"a":2,"b":8},"studentGuess":0.5,"delta":0.30000000000000004,"totalExamples":10,"bonus":0,"bonusSoFar":1.95},{"rt":106579,"response":{"gender":"male","age":"39","understood":"yes","comments":"I believe the instructions said if the student was 0.05 off it would still give the bonus but when they guessed 0.55 on a 0.50 coin it didn't count."},"type":"response","trial_type":"survey-html-form","trial_index":197,"time_elapsed":1887380,"internal_node_id":"0.0-191.0","params":{"nStudents":24,"maxFlips":30,"completionMinutes":45,"basePay":8,"maxBonus":9,"perTrialBonus":0.5,"perTrialBonusThreshold":0.05,"exampleCost":0.01},"classroomParams":{"A":{"a":1,"b":4},"B":{"a":4,"b":1},"C":{"a":2,"b":8},"D":{"a":8,"b":2}},"conditions":["nonSeqFull","nonSeqPartial","seqNoFeedback","seqFeedback"],"classroomPairings":[["A","B"],["C","D"]],"coinWeights":[0.2,0.5,0.8],"subjectId":"A2M183CETUMR96","assignmentId":"36ZN444YTSK7O3QA4QVZLXLO8Z1IOW","hitId":"3NI0WFPPI9246I5W92FX9A3E2GN605","url":"https://gershmanlab.com/experiments/alicia/teaching/experiment/?hitId=3NI0WFPPI9246I5W92FX9A3E2GN605&workerId=A2M183CETUMR96&assignmentId=36ZN444YTSK7O3QA4QVZLXLO8Z1IOW&a=Y4Z69&tp_a=Y4Z69&b=36ZN444YTSK7O3QA4QVZLXLO8Z1IOW&tp_b=36ZN444YTSK7O3QA4QVZLXLO8Z1IOW&c=365799&tp_c=365799","totalBonus":1.95}]