[{"rt":18182,"response":{"heads":"5","tails":"3"},"type":"response","condition":"seqNoFeedback","trueTheta":0.5,"classrooms":["A","B"],"studentTrueClassroom":"B","exampleSet":"first","trial_type":"survey-html-form","trial_index":25,"time_elapsed":730203,"internal_node_id":"0.0-6.0-0.0","params":{"nStudents":24,"maxFlips":30,"completionMinutes":45,"basePay":8,"maxBonus":9,"perTrialBonus":0.5,"perTrialBonusThreshold":0.05,"exampleCost":0.01},"classroomParams":{"A":{"a":1,"b":4},"B":{"a":4,"b":1},"C":{"a":2,"b":8},"D":{"a":8,"b":2}},"conditions":["nonSeqFull","nonSeqPartial","seqNoFeedback","seqFeedback"],"classroomPairings":[["A","B"],["C","D"]],"coinWeights":[0.2,0.5,0.8],"subjectId":"A2MUCL20GTQJA0","assignmentId":"3LYA37P8IR9EB4RP0OBPST02T47KB5","hitId":"3Z3R5YC0P3915KVY8X6BNRIWSQNFTT","url":"https://gershmanlab.com/experiments/alicia/teaching/experiment/?hitId=3Z3R5YC0P3915KVY8X6BNRIWSQNFTT&workerId=A2MUCL20GTQJA0&assignmentId=3LYA37P8IR9EB4RP0OBPST02T47KB5&a=83YL9&tp_a=83YL9&b=3LYA37P8IR9EB4RP0OBPST02T47KB5&tp_b=3LYA37P8IR9EB4RP0OBPST02T47KB5&c=365799&tp_c=365799","heads":5,"tails":3,"studentIndex":0,"studentTrueHypers":{"a":4,"b":1},"studentGuess":0.6923076923076923,"delta":0.1923076923076923,"totalExamples":8,"bonusSoFar":0},{"rt":17134,"response":{"heads":"10","tails":"8"},"type":"response","condition":"seqNoFeedback","trueTheta":0.5,"classrooms":["A","B"],"studentTrueClassroom":"B","exampleSet":"second","trial_type":"survey-html-form","trial_index":28,"time_elapsed":754107,"internal_node_id":"0.0-9.0-0.0","params":{"nStudents":24,"maxFlips":30,"completionMinutes":45,"basePay":8,"maxBonus":9,"perTrialBonus":0.5,"perTrialBonusThreshold":0.05,"exampleCost":0.01},"classroomParams":{"A":{"a":1,"b":4},"B":{"a":4,"b":1},"C":{"a":2,"b":8},"D":{"a":8,"b":2}},"conditions":["nonSeqFull","nonSeqPartial","seqNoFeedback","seqFeedback"],"classroomPairings":[["A","B"],["C","D"]],"coinWeights":[0.2,0.5,0.8],"subjectId":"A2MUCL20GTQJA0","assignmentId":"3LYA37P8IR9EB4RP0OBPST02T47KB5","hitId":"3Z3R5YC0P3915KVY8X6BNRIWSQNFTT","url":"https://gershmanlab.com/experiments/alicia/teaching/experiment/?hitId=3Z3R5YC0P3915KVY8X6BNRIWSQNFTT&workerId=A2MUCL20GTQJA0&assignmentId=3LYA37P8IR9EB4RP0OBPST02T47KB5&a=83YL9&tp_a=83YL9&b=3LYA37P8IR9EB4RP0OBPST02T47KB5&tp_b=3LYA37P8IR9EB4RP0OBPST02T47KB5&c=365799&tp_c=365799","firstResponseHeads":5,"firstResponseTails":3,"secondResponseHeads":10,"secondResponseTails":8,"totalHeads":15,"totalTails":11,"studentIndex":0,"studentTrueHypers":{"a":4,"b":1},"studentGuess":0.6129032258064516,"delta":0.11290322580645162,"bonus":0,"bonusSoFar":0,"totalExamples":26},{"rt":14153,"response":{"heads":"5","tails":"5"},"type":"response","condition":"nonSeqPartial","trueTheta":0.5,"classrooms":["A","B"],"studentTrueClassroom":"B","exampleSet":"first","trial_type":"survey-html-form","trial_index":34,"time_elapsed":785417,"internal_node_id":"0.0-15.0-0.0","params":{"nStudents":24,"maxFlips":30,"completionMinutes":45,"basePay":8,"maxBonus":9,"perTrialBonus":0.5,"perTrialBonusThreshold":0.05,"exampleCost":0.01},"classroomParams":{"A":{"a":1,"b":4},"B":{"a":4,"b":1},"C":{"a":2,"b":8},"D":{"a":8,"b":2}},"conditions":["nonSeqFull","nonSeqPartial","seqNoFeedback","seqFeedback"],"classroomPairings":[["A","B"],["C","D"]],"coinWeights":[0.2,0.5,0.8],"subjectId":"A2MUCL20GTQJA0","assignmentId":"3LYA37P8IR9EB4RP0OBPST02T47KB5","hitId":"3Z3R5YC0P3915KVY8X6BNRIWSQNFTT","url":"https://gershmanlab.com/experiments/alicia/teaching/experiment/?hitId=3Z3R5YC0P3915KVY8X6BNRIWSQNFTT&workerId=A2MUCL20GTQJA0&assignmentId=3LYA37P8IR9EB4RP0OBPST02T47KB5&a=83YL9&tp_a=83YL9&b=3LYA37P8IR9EB4RP0OBPST02T47KB5&tp_b=3LYA37P8IR9EB4RP0OBPST02T47KB5&c=365799&tp_c=365799","heads":5,"tails":5,"studentIndex":1,"studentTrueHypers":{"a":4,"b":1},"studentGuess":0.6,"delta":0.09999999999999998,"totalExamples":10,"bonus":0,"bonusSoFar":0},{"rt":12063,"response":{"heads":"8","tails":"2"},"type":"response","condition":"nonSeqFull","trueTheta":0.2,"classrooms":["C","D"],"studentTrueClassroom":"D","exampleSet":"first","trial_type":"survey-html-form","trial_index":40,"time_elapsed":812330,"internal_node_id":"0.0-21.0-0.0","params":{"nStudents":24,"maxFlips":30,"completionMinutes":45,"basePay":8,"maxBonus":9,"perTrialBonus":0.5,"perTrialBonusThreshold":0.05,"exampleCost":0.01},"classroomParams":{"A":{"a":1,"b":4},"B":{"a":4,"b":1},"C":{"a":2,"b":8},"D":{"a":8,"b":2}},"conditions":["nonSeqFull","nonSeqPartial","seqNoFeedback","seqFeedback"],"classroomPairings":[["A","B"],["C","D"]],"coinWeights":[0.2,0.5,0.8],"subjectId":"A2MUCL20GTQJA0","assignmentId":"3LYA37P8IR9EB4RP0OBPST02T47KB5","hitId":"3Z3R5YC0P3915KVY8X6BNRIWSQNFTT","url":"https://gershmanlab.com/experiments/alicia/teaching/experiment/?hitId=3Z3R5YC0P3915KVY8X6BNRIWSQNFTT&workerId=A2MUCL20GTQJA0&assignmentId=3LYA37P8IR9EB4RP0OBPST02T47KB5&a=83YL9&tp_a=83YL9&b=3LYA37P8IR9EB4RP0OBPST02T47KB5&tp_b=3LYA37P8IR9EB4RP0OBPST02T47KB5&c=365799&tp_c=365799","heads":8,"tails":2,"studentIndex":2,"studentTrueHypers":{"a":8,"b":2},"studentGuess":0.8,"delta":0.6000000000000001,"totalExamples":10,"bonus":0,"bonusSoFar":0},{"rt":13240,"response":{"heads":"2","tails":"8"},"type":"response","condition":"nonSeqPartial","trueTheta":0.2,"classrooms":["A","B"],"studentTrueClassroom":"A","exampleSet":"first","trial_type":"survey-html-form","trial_index":46,"time_elapsed":838612,"internal_node_id":"0.0-27.0-0.0","params":{"nStudents":24,"maxFlips":30,"completionMinutes":45,"basePay":8,"maxBonus":9,"perTrialBonus":0.5,"perTrialBonusThreshold":0.05,"exampleCost":0.01},"classroomParams":{"A":{"a":1,"b":4},"B":{"a":4,"b":1},"C":{"a":2,"b":8},"D":{"a":8,"b":2}},"conditions":["nonSeqFull","nonSeqPartial","seqNoFeedback","seqFeedback"],"classroomPairings":[["A","B"],["C","D"]],"coinWeights":[0.2,0.5,0.8],"subjectId":"A2MUCL20GTQJA0","assignmentId":"3LYA37P8IR9EB4RP0OBPST02T47KB5","hitId":"3Z3R5YC0P3915KVY8X6BNRIWSQNFTT","url":"https://gershmanlab.com/experiments/alicia/teaching/experiment/?hitId=3Z3R5YC0P3915KVY8X6BNRIWSQNFTT&workerId=A2MUCL20GTQJA0&assignmentId=3LYA37P8IR9EB4RP0OBPST02T47KB5&a=83YL9&tp_a=83YL9&b=3LYA37P8IR9EB4RP0OBPST02T47KB5&tp_b=3LYA37P8IR9EB4RP0OBPST02T47KB5&c=365799&tp_c=365799","heads":2,"tails":8,"studentIndex":3,"studentTrueHypers":{"a":1,"b":4},"studentGuess":0.2,"delta":0,"totalExamples":10,"bonus":0.4,"bonusSoFar":0.4},{"rt":11465,"response":{"heads":"4","tails":"2"},"type":"response","condition":"nonSeqFull","trueTheta":0.5,"classrooms":["A","B"],"studentTrueClassroom":"A","exampleSet":"first","trial_type":"survey-html-form","trial_index":52,"time_elapsed":863806,"internal_node_id":"0.0-33.0-0.0","params":{"nStudents":24,"maxFlips":30,"completionMinutes":45,"basePay":8,"maxBonus":9,"perTrialBonus":0.5,"perTrialBonusThreshold":0.05,"exampleCost":0.01},"classroomParams":{"A":{"a":1,"b":4},"B":{"a":4,"b":1},"C":{"a":2,"b":8},"D":{"a":8,"b":2}},"conditions":["nonSeqFull","nonSeqPartial","seqNoFeedback","seqFeedback"],"classroomPairings":[["A","B"],["C","D"]],"coinWeights":[0.2,0.5,0.8],"subjectId":"A2MUCL20GTQJA0","assignmentId":"3LYA37P8IR9EB4RP0OBPST02T47KB5","hitId":"3Z3R5YC0P3915KVY8X6BNRIWSQNFTT","url":"https://gershmanlab.com/experiments/alicia/teaching/experiment/?hitId=3Z3R5YC0P3915KVY8X6BNRIWSQNFTT&workerId=A2MUCL20GTQJA0&assignmentId=3LYA37P8IR9EB4RP0OBPST02T47KB5&a=83YL9&tp_a=83YL9&b=3LYA37P8IR9EB4RP0OBPST02T47KB5&tp_b=3LYA37P8IR9EB4RP0OBPST02T47KB5&c=365799&tp_c=365799","heads":4,"tails":2,"studentIndex":4,"studentTrueHypers":{"a":1,"b":4},"studentGuess":0.45454545454545453,"delta":0.04545454545454547,"totalExamples":6,"bonus":0.44,"bonusSoFar":0.84},{"rt":11434,"response":{"heads":"6","tails":"2"},"type":"response","condition":"seqFeedback","trueTheta":0.5,"classrooms":["A","B"],"studentTrueClassroom":"A","exampleSet":"first","trial_type":"survey-html-form","trial_index":58,"time_elapsed":899683,"internal_node_id":"0.0-39.0-0.0","params":{"nStudents":24,"maxFlips":30,"completionMinutes":45,"basePay":8,"maxBonus":9,"perTrialBonus":0.5,"perTrialBonusThreshold":0.05,"exampleCost":0.01},"classroomParams":{"A":{"a":1,"b":4},"B":{"a":4,"b":1},"C":{"a":2,"b":8},"D":{"a":8,"b":2}},"conditions":["nonSeqFull","nonSeqPartial","seqNoFeedback","seqFeedback"],"classroomPairings":[["A","B"],["C","D"]],"coinWeights":[0.2,0.5,0.8],"subjectId":"A2MUCL20GTQJA0","assignmentId":"3LYA37P8IR9EB4RP0OBPST02T47KB5","hitId":"3Z3R5YC0P3915KVY8X6BNRIWSQNFTT","url":"https://gershmanlab.com/experiments/alicia/teaching/experiment/?hitId=3Z3R5YC0P3915KVY8X6BNRIWSQNFTT&workerId=A2MUCL20GTQJA0&assignmentId=3LYA37P8IR9EB4RP0OBPST02T47KB5&a=83YL9&tp_a=83YL9&b=3LYA37P8IR9EB4RP0OBPST02T47KB5&tp_b=3LYA37P8IR9EB4RP0OBPST02T47KB5&c=365799&tp_c=365799","heads":6,"tails":2,"studentIndex":5,"studentTrueHypers":{"a":1,"b":4},"studentGuess":0.5384615384615384,"delta":0.038461538461538436,"totalExamples":8,"bonusSoFar":0.84},{"rt":8324,"response":{"heads":"6","tails":"2"},"type":"response","condition":"seqFeedback","trueTheta":0.5,"classrooms":["A","B"],"studentTrueClassroom":"A","exampleSet":"second","trial_type":"survey-html-form","trial_index":62,"time_elapsed":920364,"internal_node_id":"0.0-43.0-0.0","params":{"nStudents":24,"maxFlips":30,"completionMinutes":45,"basePay":8,"maxBonus":9,"perTrialBonus":0.5,"perTrialBonusThreshold":0.05,"exampleCost":0.01},"classroomParams":{"A":{"a":1,"b":4},"B":{"a":4,"b":1},"C":{"a":2,"b":8},"D":{"a":8,"b":2}},"conditions":["nonSeqFull","nonSeqPartial","seqNoFeedback","seqFeedback"],"classroomPairings":[["A","B"],["C","D"]],"coinWeights":[0.2,0.5,0.8],"subjectId":"A2MUCL20GTQJA0","assignmentId":"3LYA37P8IR9EB4RP0OBPST02T47KB5","hitId":"3Z3R5YC0P3915KVY8X6BNRIWSQNFTT","url":"https://gershmanlab.com/experiments/alicia/teaching/experiment/?hitId=3Z3R5YC0P3915KVY8X6BNRIWSQNFTT&workerId=A2MUCL20GTQJA0&assignmentId=3LYA37P8IR9EB4RP0OBPST02T47KB5&a=83YL9&tp_a=83YL9&b=3LYA37P8IR9EB4RP0OBPST02T47KB5&tp_b=3LYA37P8IR9EB4RP0OBPST02T47KB5&c=365799&tp_c=365799","firstResponseHeads":6,"firstResponseTails":2,"secondResponseHeads":6,"secondResponseTails":2,"totalHeads":12,"totalTails":4,"studentIndex":5,"studentTrueHypers":{"a":1,"b":4},"studentGuess":0.6190476190476191,"delta":0.11904761904761907,"bonus":0,"bonusSoFar":0.84,"totalExamples":16},{"rt":8328,"response":{"heads":"7","tails":"3"},"type":"response","condition":"seqNoFeedback","trueTheta":0.5,"classrooms":["C","D"],"studentTrueClassroom":"D","exampleSet":"first","trial_type":"survey-html-form","trial_index":68,"time_elapsed":943757,"internal_node_id":"0.0-49.0-0.0","params":{"nStudents":24,"maxFlips":30,"completionMinutes":45,"basePay":8,"maxBonus":9,"perTrialBonus":0.5,"perTrialBonusThreshold":0.05,"exampleCost":0.01},"classroomParams":{"A":{"a":1,"b":4},"B":{"a":4,"b":1},"C":{"a":2,"b":8},"D":{"a":8,"b":2}},"conditions":["nonSeqFull","nonSeqPartial","seqNoFeedback","seqFeedback"],"classroomPairings":[["A","B"],["C","D"]],"coinWeights":[0.2,0.5,0.8],"subjectId":"A2MUCL20GTQJA0","assignmentId":"3LYA37P8IR9EB4RP0OBPST02T47KB5","hitId":"3Z3R5YC0P3915KVY8X6BNRIWSQNFTT","url":"https://gershmanlab.com/experiments/alicia/teaching/experiment/?hitId=3Z3R5YC0P3915KVY8X6BNRIWSQNFTT&workerId=A2MUCL20GTQJA0&assignmentId=3LYA37P8IR9EB4RP0OBPST02T47KB5&a=83YL9&tp_a=83YL9&b=3LYA37P8IR9EB4RP0OBPST02T47KB5&tp_b=3LYA37P8IR9EB4RP0OBPST02T47KB5&c=365799&tp_c=365799","heads":7,"tails":3,"studentIndex":6,"studentTrueHypers":{"a":8,"b":2},"studentGuess":0.75,"delta":0.25,"totalExamples":10,"bonusSoFar":0.84},{"rt":10833,"response":{"heads":"6","tails":"1"},"type":"response","condition":"seqNoFeedback","trueTheta":0.5,"classrooms":["C","D"],"studentTrueClassroom":"D","exampleSet":"second","trial_type":"survey-html-form","trial_index":71,"time_elapsed":960605,"internal_node_id":"0.0-52.0-0.0","params":{"nStudents":24,"maxFlips":30,"completionMinutes":45,"basePay":8,"maxBonus":9,"perTrialBonus":0.5,"perTrialBonusThreshold":0.05,"exampleCost":0.01},"classroomParams":{"A":{"a":1,"b":4},"B":{"a":4,"b":1},"C":{"a":2,"b":8},"D":{"a":8,"b":2}},"conditions":["nonSeqFull","nonSeqPartial","seqNoFeedback","seqFeedback"],"classroomPairings":[["A","B"],["C","D"]],"coinWeights":[0.2,0.5,0.8],"subjectId":"A2MUCL20GTQJA0","assignmentId":"3LYA37P8IR9EB4RP0OBPST02T47KB5","hitId":"3Z3R5YC0P3915KVY8X6BNRIWSQNFTT","url":"https://gershmanlab.com/experiments/alicia/teaching/experiment/?hitId=3Z3R5YC0P3915KVY8X6BNRIWSQNFTT&workerId=A2MUCL20GTQJA0&assignmentId=3LYA37P8IR9EB4RP0OBPST02T47KB5&a=83YL9&tp_a=83YL9&b=3LYA37P8IR9EB4RP0OBPST02T47KB5&tp_b=3LYA37P8IR9EB4RP0OBPST02T47KB5&c=365799&tp_c=365799","firstResponseHeads":7,"firstResponseTails":3,"secondResponseHeads":6,"secondResponseTails":1,"totalHeads":13,"totalTails":4,"studentIndex":6,"studentTrueHypers":{"a":8,"b":2},"studentGuess":0.7777777777777778,"delta":0.2777777777777778,"bonus":0,"bonusSoFar":0.84,"totalExamples":17},{"rt":11353,"response":{"heads":"5","tails":"10"},"type":"response","condition":"nonSeqFull","trueTheta":0.2,"classrooms":["A","B"],"studentTrueClassroom":"A","exampleSet":"first","trial_type":"survey-html-form","trial_index":77,"time_elapsed":986764,"internal_node_id":"0.0-58.0-0.0","params":{"nStudents":24,"maxFlips":30,"completionMinutes":45,"basePay":8,"maxBonus":9,"perTrialBonus":0.5,"perTrialBonusThreshold":0.05,"exampleCost":0.01},"classroomParams":{"A":{"a":1,"b":4},"B":{"a":4,"b":1},"C":{"a":2,"b":8},"D":{"a":8,"b":2}},"conditions":["nonSeqFull","nonSeqPartial","seqNoFeedback","seqFeedback"],"classroomPairings":[["A","B"],["C","D"]],"coinWeights":[0.2,0.5,0.8],"subjectId":"A2MUCL20GTQJA0","assignmentId":"3LYA37P8IR9EB4RP0OBPST02T47KB5","hitId":"3Z3R5YC0P3915KVY8X6BNRIWSQNFTT","url":"https://gershmanlab.com/experiments/alicia/teaching/experiment/?hitId=3Z3R5YC0P3915KVY8X6BNRIWSQNFTT&workerId=A2MUCL20GTQJA0&assignmentId=3LYA37P8IR9EB4RP0OBPST02T47KB5&a=83YL9&tp_a=83YL9&b=3LYA37P8IR9EB4RP0OBPST02T47KB5&tp_b=3LYA37P8IR9EB4RP0OBPST02T47KB5&c=365799&tp_c=365799","heads":5,"tails":10,"studentIndex":7,"studentTrueHypers":{"a":1,"b":4},"studentGuess":0.3,"delta":0.09999999999999998,"totalExamples":15,"bonus":0,"bonusSoFar":0.84},{"rt":5386,"response":{"heads":"10","tails":"0"},"type":"response","condition":"seqNoFeedback","trueTheta":0.8,"classrooms":["C","D"],"studentTrueClassroom":"C","exampleSet":"first","trial_type":"survey-html-form","trial_index":83,"time_elapsed":1005373,"internal_node_id":"0.0-64.0-0.0","params":{"nStudents":24,"maxFlips":30,"completionMinutes":45,"basePay":8,"maxBonus":9,"perTrialBonus":0.5,"perTrialBonusThreshold":0.05,"exampleCost":0.01},"classroomParams":{"A":{"a":1,"b":4},"B":{"a":4,"b":1},"C":{"a":2,"b":8},"D":{"a":8,"b":2}},"conditions":["nonSeqFull","nonSeqPartial","seqNoFeedback","seqFeedback"],"classroomPairings":[["A","B"],["C","D"]],"coinWeights":[0.2,0.5,0.8],"subjectId":"A2MUCL20GTQJA0","assignmentId":"3LYA37P8IR9EB4RP0OBPST02T47KB5","hitId":"3Z3R5YC0P3915KVY8X6BNRIWSQNFTT","url":"https://gershmanlab.com/experiments/alicia/teaching/experiment/?hitId=3Z3R5YC0P3915KVY8X6BNRIWSQNFTT&workerId=A2MUCL20GTQJA0&assignmentId=3LYA37P8IR9EB4RP0OBPST02T47KB5&a=83YL9&tp_a=83YL9&b=3LYA37P8IR9EB4RP0OBPST02T47KB5&tp_b=3LYA37P8IR9EB4RP0OBPST02T47KB5&c=365799&tp_c=365799","heads":10,"tails":0,"studentIndex":8,"studentTrueHypers":{"a":2,"b":8},"studentGuess":0.6,"delta":0.20000000000000007,"totalExamples":10,"bonusSoFar":0.84},{"rt":8824,"response":{"heads":"10","tails":"4"},"type":"response","condition":"seqNoFeedback","trueTheta":0.8,"classrooms":["C","D"],"studentTrueClassroom":"C","exampleSet":"second","trial_type":"survey-html-form","trial_index":86,"time_elapsed":1020206,"internal_node_id":"0.0-67.0-0.0","params":{"nStudents":24,"maxFlips":30,"completionMinutes":45,"basePay":8,"maxBonus":9,"perTrialBonus":0.5,"perTrialBonusThreshold":0.05,"exampleCost":0.01},"classroomParams":{"A":{"a":1,"b":4},"B":{"a":4,"b":1},"C":{"a":2,"b":8},"D":{"a":8,"b":2}},"conditions":["nonSeqFull","nonSeqPartial","seqNoFeedback","seqFeedback"],"classroomPairings":[["A","B"],["C","D"]],"coinWeights":[0.2,0.5,0.8],"subjectId":"A2MUCL20GTQJA0","assignmentId":"3LYA37P8IR9EB4RP0OBPST02T47KB5","hitId":"3Z3R5YC0P3915KVY8X6BNRIWSQNFTT","url":"https://gershmanlab.com/experiments/alicia/teaching/experiment/?hitId=3Z3R5YC0P3915KVY8X6BNRIWSQNFTT&workerId=A2MUCL20GTQJA0&assignmentId=3LYA37P8IR9EB4RP0OBPST02T47KB5&a=83YL9&tp_a=83YL9&b=3LYA37P8IR9EB4RP0OBPST02T47KB5&tp_b=3LYA37P8IR9EB4RP0OBPST02T47KB5&c=365799&tp_c=365799","firstResponseHeads":10,"firstResponseTails":0,"secondResponseHeads":10,"secondResponseTails":4,"totalHeads":20,"totalTails":4,"studentIndex":8,"studentTrueHypers":{"a":2,"b":8},"studentGuess":0.6470588235294118,"delta":0.15294117647058825,"bonus":0,"bonusSoFar":0.84,"totalExamples":24},{"rt":7924,"response":{"heads":"8","tails":"2"},"type":"response","condition":"seqFeedback","trueTheta":0.8,"classrooms":["C","D"],"studentTrueClassroom":"D","exampleSet":"first","trial_type":"survey-html-form","trial_index":92,"time_elapsed":1041958,"internal_node_id":"0.0-73.0-0.0","params":{"nStudents":24,"maxFlips":30,"completionMinutes":45,"basePay":8,"maxBonus":9,"perTrialBonus":0.5,"perTrialBonusThreshold":0.05,"exampleCost":0.01},"classroomParams":{"A":{"a":1,"b":4},"B":{"a":4,"b":1},"C":{"a":2,"b":8},"D":{"a":8,"b":2}},"conditions":["nonSeqFull","nonSeqPartial","seqNoFeedback","seqFeedback"],"classroomPairings":[["A","B"],["C","D"]],"coinWeights":[0.2,0.5,0.8],"subjectId":"A2MUCL20GTQJA0","assignmentId":"3LYA37P8IR9EB4RP0OBPST02T47KB5","hitId":"3Z3R5YC0P3915KVY8X6BNRIWSQNFTT","url":"https://gershmanlab.com/experiments/alicia/teaching/experiment/?hitId=3Z3R5YC0P3915KVY8X6BNRIWSQNFTT&workerId=A2MUCL20GTQJA0&assignmentId=3LYA37P8IR9EB4RP0OBPST02T47KB5&a=83YL9&tp_a=83YL9&b=3LYA37P8IR9EB4RP0OBPST02T47KB5&tp_b=3LYA37P8IR9EB4RP0OBPST02T47KB5&c=365799&tp_c=365799","heads":8,"tails":2,"studentIndex":9,"studentTrueHypers":{"a":8,"b":2},"studentGuess":0.8,"delta":0,"totalExamples":10,"bonusSoFar":0.84},{"rt":5325,"response":{"heads":"8","tails":"2"},"type":"response","condition":"seqFeedback","trueTheta":0.8,"classrooms":["C","D"],"studentTrueClassroom":"D","exampleSet":"second","trial_type":"survey-html-form","trial_index":96,"time_elapsed":1056557,"internal_node_id":"0.0-77.0-0.0","params":{"nStudents":24,"maxFlips":30,"completionMinutes":45,"basePay":8,"maxBonus":9,"perTrialBonus":0.5,"perTrialBonusThreshold":0.05,"exampleCost":0.01},"classroomParams":{"A":{"a":1,"b":4},"B":{"a":4,"b":1},"C":{"a":2,"b":8},"D":{"a":8,"b":2}},"conditions":["nonSeqFull","nonSeqPartial","seqNoFeedback","seqFeedback"],"classroomPairings":[["A","B"],["C","D"]],"coinWeights":[0.2,0.5,0.8],"subjectId":"A2MUCL20GTQJA0","assignmentId":"3LYA37P8IR9EB4RP0OBPST02T47KB5","hitId":"3Z3R5YC0P3915KVY8X6BNRIWSQNFTT","url":"https://gershmanlab.com/experiments/alicia/teaching/experiment/?hitId=3Z3R5YC0P3915KVY8X6BNRIWSQNFTT&workerId=A2MUCL20GTQJA0&assignmentId=3LYA37P8IR9EB4RP0OBPST02T47KB5&a=83YL9&tp_a=83YL9&b=3LYA37P8IR9EB4RP0OBPST02T47KB5&tp_b=3LYA37P8IR9EB4RP0OBPST02T47KB5&c=365799&tp_c=365799","firstResponseHeads":8,"firstResponseTails":2,"secondResponseHeads":8,"secondResponseTails":2,"totalHeads":16,"totalTails":4,"studentIndex":9,"studentTrueHypers":{"a":8,"b":2},"studentGuess":0.8,"delta":0,"bonus":0.3,"bonusSoFar":1.14,"totalExamples":20},{"rt":6309,"response":{"heads":"12","tails":"8"},"type":"response","condition":"seqFeedback","trueTheta":0.8,"classrooms":["A","B"],"studentTrueClassroom":"B","exampleSet":"first","trial_type":"survey-html-form","trial_index":102,"time_elapsed":1074838,"internal_node_id":"0.0-83.0-0.0","params":{"nStudents":24,"maxFlips":30,"completionMinutes":45,"basePay":8,"maxBonus":9,"perTrialBonus":0.5,"perTrialBonusThreshold":0.05,"exampleCost":0.01},"classroomParams":{"A":{"a":1,"b":4},"B":{"a":4,"b":1},"C":{"a":2,"b":8},"D":{"a":8,"b":2}},"conditions":["nonSeqFull","nonSeqPartial","seqNoFeedback","seqFeedback"],"classroomPairings":[["A","B"],["C","D"]],"coinWeights":[0.2,0.5,0.8],"subjectId":"A2MUCL20GTQJA0","assignmentId":"3LYA37P8IR9EB4RP0OBPST02T47KB5","hitId":"3Z3R5YC0P3915KVY8X6BNRIWSQNFTT","url":"https://gershmanlab.com/experiments/alicia/teaching/experiment/?hitId=3Z3R5YC0P3915KVY8X6BNRIWSQNFTT&workerId=A2MUCL20GTQJA0&assignmentId=3LYA37P8IR9EB4RP0OBPST02T47KB5&a=83YL9&tp_a=83YL9&b=3LYA37P8IR9EB4RP0OBPST02T47KB5&tp_b=3LYA37P8IR9EB4RP0OBPST02T47KB5&c=365799&tp_c=365799","heads":12,"tails":8,"studentIndex":10,"studentTrueHypers":{"a":4,"b":1},"studentGuess":0.64,"delta":0.16000000000000003,"totalExamples":20,"bonusSoFar":1.14},{"rt":4664,"response":{"heads":"16","tails":"4"},"type":"response","condition":"seqFeedback","trueTheta":0.8,"classrooms":["A","B"],"studentTrueClassroom":"B","exampleSet":"second","trial_type":"survey-html-form","trial_index":106,"time_elapsed":1091071,"internal_node_id":"0.0-87.0-0.0","params":{"nStudents":24,"maxFlips":30,"completionMinutes":45,"basePay":8,"maxBonus":9,"perTrialBonus":0.5,"perTrialBonusThreshold":0.05,"exampleCost":0.01},"classroomParams":{"A":{"a":1,"b":4},"B":{"a":4,"b":1},"C":{"a":2,"b":8},"D":{"a":8,"b":2}},"conditions":["nonSeqFull","nonSeqPartial","seqNoFeedback","seqFeedback"],"classroomPairings":[["A","B"],["C","D"]],"coinWeights":[0.2,0.5,0.8],"subjectId":"A2MUCL20GTQJA0","assignmentId":"3LYA37P8IR9EB4RP0OBPST02T47KB5","hitId":"3Z3R5YC0P3915KVY8X6BNRIWSQNFTT","url":"https://gershmanlab.com/experiments/alicia/teaching/experiment/?hitId=3Z3R5YC0P3915KVY8X6BNRIWSQNFTT&workerId=A2MUCL20GTQJA0&assignmentId=3LYA37P8IR9EB4RP0OBPST02T47KB5&a=83YL9&tp_a=83YL9&b=3LYA37P8IR9EB4RP0OBPST02T47KB5&tp_b=3LYA37P8IR9EB4RP0OBPST02T47KB5&c=365799&tp_c=365799","firstResponseHeads":12,"firstResponseTails":8,"secondResponseHeads":16,"secondResponseTails":4,"totalHeads":28,"totalTails":12,"studentIndex":10,"studentTrueHypers":{"a":4,"b":1},"studentGuess":0.7111111111111111,"delta":0.0888888888888889,"bonus":0,"bonusSoFar":1.14,"totalExamples":40},{"rt":14526,"response":{"heads":"16","tails":"14"},"type":"response","condition":"nonSeqPartial","trueTheta":0.5,"classrooms":["C","D"],"studentTrueClassroom":"D","exampleSet":"first","trial_type":"survey-html-form","trial_index":112,"time_elapsed":1123319,"internal_node_id":"0.0-93.0-0.0","params":{"nStudents":24,"maxFlips":30,"completionMinutes":45,"basePay":8,"maxBonus":9,"perTrialBonus":0.5,"perTrialBonusThreshold":0.05,"exampleCost":0.01},"classroomParams":{"A":{"a":1,"b":4},"B":{"a":4,"b":1},"C":{"a":2,"b":8},"D":{"a":8,"b":2}},"conditions":["nonSeqFull","nonSeqPartial","seqNoFeedback","seqFeedback"],"classroomPairings":[["A","B"],["C","D"]],"coinWeights":[0.2,0.5,0.8],"subjectId":"A2MUCL20GTQJA0","assignmentId":"3LYA37P8IR9EB4RP0OBPST02T47KB5","hitId":"3Z3R5YC0P3915KVY8X6BNRIWSQNFTT","url":"https://gershmanlab.com/experiments/alicia/teaching/experiment/?hitId=3Z3R5YC0P3915KVY8X6BNRIWSQNFTT&workerId=A2MUCL20GTQJA0&assignmentId=3LYA37P8IR9EB4RP0OBPST02T47KB5&a=83YL9&tp_a=83YL9&b=3LYA37P8IR9EB4RP0OBPST02T47KB5&tp_b=3LYA37P8IR9EB4RP0OBPST02T47KB5&c=365799&tp_c=365799","heads":16,"tails":14,"studentIndex":11,"studentTrueHypers":{"a":8,"b":2},"studentGuess":0.6,"delta":0.09999999999999998,"totalExamples":30,"bonus":0,"bonusSoFar":1.14},{"rt":5227,"response":{"heads":"2","tails":"18"},"type":"response","condition":"seqNoFeedback","trueTheta":0.2,"classrooms":["A","B"],"studentTrueClassroom":"B","exampleSet":"first","trial_type":"survey-html-form","trial_index":118,"time_elapsed":1143740,"internal_node_id":"0.0-99.0-0.0","params":{"nStudents":24,"maxFlips":30,"completionMinutes":45,"basePay":8,"maxBonus":9,"perTrialBonus":0.5,"perTrialBonusThreshold":0.05,"exampleCost":0.01},"classroomParams":{"A":{"a":1,"b":4},"B":{"a":4,"b":1},"C":{"a":2,"b":8},"D":{"a":8,"b":2}},"conditions":["nonSeqFull","nonSeqPartial","seqNoFeedback","seqFeedback"],"classroomPairings":[["A","B"],["C","D"]],"coinWeights":[0.2,0.5,0.8],"subjectId":"A2MUCL20GTQJA0","assignmentId":"3LYA37P8IR9EB4RP0OBPST02T47KB5","hitId":"3Z3R5YC0P3915KVY8X6BNRIWSQNFTT","url":"https://gershmanlab.com/experiments/alicia/teaching/experiment/?hitId=3Z3R5YC0P3915KVY8X6BNRIWSQNFTT&workerId=A2MUCL20GTQJA0&assignmentId=3LYA37P8IR9EB4RP0OBPST02T47KB5&a=83YL9&tp_a=83YL9&b=3LYA37P8IR9EB4RP0OBPST02T47KB5&tp_b=3LYA37P8IR9EB4RP0OBPST02T47KB5&c=365799&tp_c=365799","heads":2,"tails":18,"studentIndex":12,"studentTrueHypers":{"a":4,"b":1},"studentGuess":0.24,"delta":0.03999999999999998,"totalExamples":20,"bonusSoFar":1.14},{"rt":7575,"response":{"heads":"4","tails":"16"},"type":"response","condition":"seqNoFeedback","trueTheta":0.2,"classrooms":["A","B"],"studentTrueClassroom":"B","exampleSet":"second","trial_type":"survey-html-form","trial_index":121,"time_elapsed":1158829,"internal_node_id":"0.0-102.0-0.0","params":{"nStudents":24,"maxFlips":30,"completionMinutes":45,"basePay":8,"maxBonus":9,"perTrialBonus":0.5,"perTrialBonusThreshold":0.05,"exampleCost":0.01},"classroomParams":{"A":{"a":1,"b":4},"B":{"a":4,"b":1},"C":{"a":2,"b":8},"D":{"a":8,"b":2}},"conditions":["nonSeqFull","nonSeqPartial","seqNoFeedback","seqFeedback"],"classroomPairings":[["A","B"],["C","D"]],"coinWeights":[0.2,0.5,0.8],"subjectId":"A2MUCL20GTQJA0","assignmentId":"3LYA37P8IR9EB4RP0OBPST02T47KB5","hitId":"3Z3R5YC0P3915KVY8X6BNRIWSQNFTT","url":"https://gershmanlab.com/experiments/alicia/teaching/experiment/?hitId=3Z3R5YC0P3915KVY8X6BNRIWSQNFTT&workerId=A2MUCL20GTQJA0&assignmentId=3LYA37P8IR9EB4RP0OBPST02T47KB5&a=83YL9&tp_a=83YL9&b=3LYA37P8IR9EB4RP0OBPST02T47KB5&tp_b=3LYA37P8IR9EB4RP0OBPST02T47KB5&c=365799&tp_c=365799","firstResponseHeads":2,"firstResponseTails":18,"secondResponseHeads":4,"secondResponseTails":16,"totalHeads":6,"totalTails":34,"studentIndex":12,"studentTrueHypers":{"a":4,"b":1},"studentGuess":0.2222222222222222,"delta":0.0222222222222222,"bonus":0.1,"bonusSoFar":1.24,"totalExamples":40},{"rt":6100,"response":{"heads":"15","tails":"2"},"type":"response","condition":"nonSeqFull","trueTheta":0.8,"classrooms":["A","B"],"studentTrueClassroom":"B","exampleSet":"first","trial_type":"survey-html-form","trial_index":127,"time_elapsed":1182156,"internal_node_id":"0.0-108.0-0.0","params":{"nStudents":24,"maxFlips":30,"completionMinutes":45,"basePay":8,"maxBonus":9,"perTrialBonus":0.5,"perTrialBonusThreshold":0.05,"exampleCost":0.01},"classroomParams":{"A":{"a":1,"b":4},"B":{"a":4,"b":1},"C":{"a":2,"b":8},"D":{"a":8,"b":2}},"conditions":["nonSeqFull","nonSeqPartial","seqNoFeedback","seqFeedback"],"classroomPairings":[["A","B"],["C","D"]],"coinWeights":[0.2,0.5,0.8],"subjectId":"A2MUCL20GTQJA0","assignmentId":"3LYA37P8IR9EB4RP0OBPST02T47KB5","hitId":"3Z3R5YC0P3915KVY8X6BNRIWSQNFTT","url":"https://gershmanlab.com/experiments/alicia/teaching/experiment/?hitId=3Z3R5YC0P3915KVY8X6BNRIWSQNFTT&workerId=A2MUCL20GTQJA0&assignmentId=3LYA37P8IR9EB4RP0OBPST02T47KB5&a=83YL9&tp_a=83YL9&b=3LYA37P8IR9EB4RP0OBPST02T47KB5&tp_b=3LYA37P8IR9EB4RP0OBPST02T47KB5&c=365799&tp_c=365799","heads":15,"tails":2,"studentIndex":13,"studentTrueHypers":{"a":4,"b":1},"studentGuess":0.8636363636363636,"delta":0.0636363636363636,"totalExamples":17,"bonus":0,"bonusSoFar":1.24},{"rt":9826,"response":{"heads":"10","tails":"10"},"type":"response","condition":"seqFeedback","trueTheta":0.5,"classrooms":["C","D"],"studentTrueClassroom":"C","exampleSet":"first","trial_type":"survey-html-form","trial_index":133,"time_elapsed":1211765,"internal_node_id":"0.0-114.0-0.0","params":{"nStudents":24,"maxFlips":30,"completionMinutes":45,"basePay":8,"maxBonus":9,"perTrialBonus":0.5,"perTrialBonusThreshold":0.05,"exampleCost":0.01},"classroomParams":{"A":{"a":1,"b":4},"B":{"a":4,"b":1},"C":{"a":2,"b":8},"D":{"a":8,"b":2}},"conditions":["nonSeqFull","nonSeqPartial","seqNoFeedback","seqFeedback"],"classroomPairings":[["A","B"],["C","D"]],"coinWeights":[0.2,0.5,0.8],"subjectId":"A2MUCL20GTQJA0","assignmentId":"3LYA37P8IR9EB4RP0OBPST02T47KB5","hitId":"3Z3R5YC0P3915KVY8X6BNRIWSQNFTT","url":"https://gershmanlab.com/experiments/alicia/teaching/experiment/?hitId=3Z3R5YC0P3915KVY8X6BNRIWSQNFTT&workerId=A2MUCL20GTQJA0&assignmentId=3LYA37P8IR9EB4RP0OBPST02T47KB5&a=83YL9&tp_a=83YL9&b=3LYA37P8IR9EB4RP0OBPST02T47KB5&tp_b=3LYA37P8IR9EB4RP0OBPST02T47KB5&c=365799&tp_c=365799","heads":10,"tails":10,"studentIndex":14,"studentTrueHypers":{"a":2,"b":8},"studentGuess":0.4,"delta":0.09999999999999998,"totalExamples":20,"bonusSoFar":1.24},{"rt":7832,"response":{"heads":"16","tails":"8"},"type":"response","condition":"seqFeedback","trueTheta":0.5,"classrooms":["C","D"],"studentTrueClassroom":"C","exampleSet":"second","trial_type":"survey-html-form","trial_index":137,"time_elapsed":1230174,"internal_node_id":"0.0-118.0-0.0","params":{"nStudents":24,"maxFlips":30,"completionMinutes":45,"basePay":8,"maxBonus":9,"perTrialBonus":0.5,"perTrialBonusThreshold":0.05,"exampleCost":0.01},"classroomParams":{"A":{"a":1,"b":4},"B":{"a":4,"b":1},"C":{"a":2,"b":8},"D":{"a":8,"b":2}},"conditions":["nonSeqFull","nonSeqPartial","seqNoFeedback","seqFeedback"],"classroomPairings":[["A","B"],["C","D"]],"coinWeights":[0.2,0.5,0.8],"subjectId":"A2MUCL20GTQJA0","assignmentId":"3LYA37P8IR9EB4RP0OBPST02T47KB5","hitId":"3Z3R5YC0P3915KVY8X6BNRIWSQNFTT","url":"https://gershmanlab.com/experiments/alicia/teaching/experiment/?hitId=3Z3R5YC0P3915KVY8X6BNRIWSQNFTT&workerId=A2MUCL20GTQJA0&assignmentId=3LYA37P8IR9EB4RP0OBPST02T47KB5&a=83YL9&tp_a=83YL9&b=3LYA37P8IR9EB4RP0OBPST02T47KB5&tp_b=3LYA37P8IR9EB4RP0OBPST02T47KB5&c=365799&tp_c=365799","firstResponseHeads":10,"firstResponseTails":10,"secondResponseHeads":16,"secondResponseTails":8,"totalHeads":26,"totalTails":18,"studentIndex":14,"studentTrueHypers":{"a":2,"b":8},"studentGuess":0.5185185185185185,"delta":0.01851851851851849,"bonus":0.06,"bonusSoFar":1.3,"totalExamples":44},{"rt":4930,"response":{"heads":"17","tails":"4"},"type":"response","condition":"seqNoFeedback","trueTheta":0.8,"classrooms":["A","B"],"studentTrueClassroom":"B","exampleSet":"first","trial_type":"survey-html-form","trial_index":143,"time_elapsed":1248341,"internal_node_id":"0.0-124.0-0.0","params":{"nStudents":24,"maxFlips":30,"completionMinutes":45,"basePay":8,"maxBonus":9,"perTrialBonus":0.5,"perTrialBonusThreshold":0.05,"exampleCost":0.01},"classroomParams":{"A":{"a":1,"b":4},"B":{"a":4,"b":1},"C":{"a":2,"b":8},"D":{"a":8,"b":2}},"conditions":["nonSeqFull","nonSeqPartial","seqNoFeedback","seqFeedback"],"classroomPairings":[["A","B"],["C","D"]],"coinWeights":[0.2,0.5,0.8],"subjectId":"A2MUCL20GTQJA0","assignmentId":"3LYA37P8IR9EB4RP0OBPST02T47KB5","hitId":"3Z3R5YC0P3915KVY8X6BNRIWSQNFTT","url":"https://gershmanlab.com/experiments/alicia/teaching/experiment/?hitId=3Z3R5YC0P3915KVY8X6BNRIWSQNFTT&workerId=A2MUCL20GTQJA0&assignmentId=3LYA37P8IR9EB4RP0OBPST02T47KB5&a=83YL9&tp_a=83YL9&b=3LYA37P8IR9EB4RP0OBPST02T47KB5&tp_b=3LYA37P8IR9EB4RP0OBPST02T47KB5&c=365799&tp_c=365799","heads":17,"tails":4,"studentIndex":15,"studentTrueHypers":{"a":4,"b":1},"studentGuess":0.8076923076923077,"delta":0.007692307692307665,"totalExamples":21,"bonusSoFar":1.3},{"rt":4769,"response":{"heads":"18","tails":"3"},"type":"response","condition":"seqNoFeedback","trueTheta":0.8,"classrooms":["A","B"],"studentTrueClassroom":"B","exampleSet":"second","trial_type":"survey-html-form","trial_index":146,"time_elapsed":1260384,"internal_node_id":"0.0-127.0-0.0","params":{"nStudents":24,"maxFlips":30,"completionMinutes":45,"basePay":8,"maxBonus":9,"perTrialBonus":0.5,"perTrialBonusThreshold":0.05,"exampleCost":0.01},"classroomParams":{"A":{"a":1,"b":4},"B":{"a":4,"b":1},"C":{"a":2,"b":8},"D":{"a":8,"b":2}},"conditions":["nonSeqFull","nonSeqPartial","seqNoFeedback","seqFeedback"],"classroomPairings":[["A","B"],["C","D"]],"coinWeights":[0.2,0.5,0.8],"subjectId":"A2MUCL20GTQJA0","assignmentId":"3LYA37P8IR9EB4RP0OBPST02T47KB5","hitId":"3Z3R5YC0P3915KVY8X6BNRIWSQNFTT","url":"https://gershmanlab.com/experiments/alicia/teaching/experiment/?hitId=3Z3R5YC0P3915KVY8X6BNRIWSQNFTT&workerId=A2MUCL20GTQJA0&assignmentId=3LYA37P8IR9EB4RP0OBPST02T47KB5&a=83YL9&tp_a=83YL9&b=3LYA37P8IR9EB4RP0OBPST02T47KB5&tp_b=3LYA37P8IR9EB4RP0OBPST02T47KB5&c=365799&tp_c=365799","firstResponseHeads":17,"firstResponseTails":4,"secondResponseHeads":18,"secondResponseTails":3,"totalHeads":35,"totalTails":7,"studentIndex":15,"studentTrueHypers":{"a":4,"b":1},"studentGuess":0.8297872340425532,"delta":0.029787234042553123,"bonus":0.08,"bonusSoFar":1.38,"totalExamples":42},{"rt":5744,"response":{"heads":"3","tails":"16"},"type":"response","condition":"nonSeqPartial","trueTheta":0.2,"classrooms":["C","D"],"studentTrueClassroom":"D","exampleSet":"first","trial_type":"survey-html-form","trial_index":152,"time_elapsed":1279065,"internal_node_id":"0.0-133.0-0.0","params":{"nStudents":24,"maxFlips":30,"completionMinutes":45,"basePay":8,"maxBonus":9,"perTrialBonus":0.5,"perTrialBonusThreshold":0.05,"exampleCost":0.01},"classroomParams":{"A":{"a":1,"b":4},"B":{"a":4,"b":1},"C":{"a":2,"b":8},"D":{"a":8,"b":2}},"conditions":["nonSeqFull","nonSeqPartial","seqNoFeedback","seqFeedback"],"classroomPairings":[["A","B"],["C","D"]],"coinWeights":[0.2,0.5,0.8],"subjectId":"A2MUCL20GTQJA0","assignmentId":"3LYA37P8IR9EB4RP0OBPST02T47KB5","hitId":"3Z3R5YC0P3915KVY8X6BNRIWSQNFTT","url":"https://gershmanlab.com/experiments/alicia/teaching/experiment/?hitId=3Z3R5YC0P3915KVY8X6BNRIWSQNFTT&workerId=A2MUCL20GTQJA0&assignmentId=3LYA37P8IR9EB4RP0OBPST02T47KB5&a=83YL9&tp_a=83YL9&b=3LYA37P8IR9EB4RP0OBPST02T47KB5&tp_b=3LYA37P8IR9EB4RP0OBPST02T47KB5&c=365799&tp_c=365799","heads":3,"tails":16,"studentIndex":16,"studentTrueHypers":{"a":8,"b":2},"studentGuess":0.3793103448275862,"delta":0.17931034482758618,"totalExamples":19,"bonus":0,"bonusSoFar":1.38},{"rt":5318,"response":{"heads":"4","tails":"16"},"type":"response","condition":"seqNoFeedback","trueTheta":0.2,"classrooms":["C","D"],"studentTrueClassroom":"D","exampleSet":"first","trial_type":"survey-html-form","trial_index":158,"time_elapsed":1297073,"internal_node_id":"0.0-139.0-0.0","params":{"nStudents":24,"maxFlips":30,"completionMinutes":45,"basePay":8,"maxBonus":9,"perTrialBonus":0.5,"perTrialBonusThreshold":0.05,"exampleCost":0.01},"classroomParams":{"A":{"a":1,"b":4},"B":{"a":4,"b":1},"C":{"a":2,"b":8},"D":{"a":8,"b":2}},"conditions":["nonSeqFull","nonSeqPartial","seqNoFeedback","seqFeedback"],"classroomPairings":[["A","B"],["C","D"]],"coinWeights":[0.2,0.5,0.8],"subjectId":"A2MUCL20GTQJA0","assignmentId":"3LYA37P8IR9EB4RP0OBPST02T47KB5","hitId":"3Z3R5YC0P3915KVY8X6BNRIWSQNFTT","url":"https://gershmanlab.com/experiments/alicia/teaching/experiment/?hitId=3Z3R5YC0P3915KVY8X6BNRIWSQNFTT&workerId=A2MUCL20GTQJA0&assignmentId=3LYA37P8IR9EB4RP0OBPST02T47KB5&a=83YL9&tp_a=83YL9&b=3LYA37P8IR9EB4RP0OBPST02T47KB5&tp_b=3LYA37P8IR9EB4RP0OBPST02T47KB5&c=365799&tp_c=365799","heads":4,"tails":16,"studentIndex":17,"studentTrueHypers":{"a":8,"b":2},"studentGuess":0.4,"delta":0.2,"totalExamples":20,"bonusSoFar":1.38},{"rt":4515,"response":{"heads":"4","tails":"15"},"type":"response","condition":"seqNoFeedback","trueTheta":0.2,"classrooms":["C","D"],"studentTrueClassroom":"D","exampleSet":"second","trial_type":"survey-html-form","trial_index":161,"time_elapsed":1307610,"internal_node_id":"0.0-142.0-0.0","params":{"nStudents":24,"maxFlips":30,"completionMinutes":45,"basePay":8,"maxBonus":9,"perTrialBonus":0.5,"perTrialBonusThreshold":0.05,"exampleCost":0.01},"classroomParams":{"A":{"a":1,"b":4},"B":{"a":4,"b":1},"C":{"a":2,"b":8},"D":{"a":8,"b":2}},"conditions":["nonSeqFull","nonSeqPartial","seqNoFeedback","seqFeedback"],"classroomPairings":[["A","B"],["C","D"]],"coinWeights":[0.2,0.5,0.8],"subjectId":"A2MUCL20GTQJA0","assignmentId":"3LYA37P8IR9EB4RP0OBPST02T47KB5","hitId":"3Z3R5YC0P3915KVY8X6BNRIWSQNFTT","url":"https://gershmanlab.com/experiments/alicia/teaching/experiment/?hitId=3Z3R5YC0P3915KVY8X6BNRIWSQNFTT&workerId=A2MUCL20GTQJA0&assignmentId=3LYA37P8IR9EB4RP0OBPST02T47KB5&a=83YL9&tp_a=83YL9&b=3LYA37P8IR9EB4RP0OBPST02T47KB5&tp_b=3LYA37P8IR9EB4RP0OBPST02T47KB5&c=365799&tp_c=365799","firstResponseHeads":4,"firstResponseTails":16,"secondResponseHeads":4,"secondResponseTails":15,"totalHeads":8,"totalTails":31,"studentIndex":17,"studentTrueHypers":{"a":8,"b":2},"studentGuess":0.32653061224489793,"delta":0.12653061224489792,"bonus":0,"bonusSoFar":1.38,"totalExamples":39},{"rt":6019,"response":{"heads":"8","tails":"2"},"type":"response","condition":"nonSeqFull","trueTheta":0.8,"classrooms":["C","D"],"studentTrueClassroom":"C","exampleSet":"first","trial_type":"survey-html-form","trial_index":167,"time_elapsed":1328621,"internal_node_id":"0.0-148.0-0.0","params":{"nStudents":24,"maxFlips":30,"completionMinutes":45,"basePay":8,"maxBonus":9,"perTrialBonus":0.5,"perTrialBonusThreshold":0.05,"exampleCost":0.01},"classroomParams":{"A":{"a":1,"b":4},"B":{"a":4,"b":1},"C":{"a":2,"b":8},"D":{"a":8,"b":2}},"conditions":["nonSeqFull","nonSeqPartial","seqNoFeedback","seqFeedback"],"classroomPairings":[["A","B"],["C","D"]],"coinWeights":[0.2,0.5,0.8],"subjectId":"A2MUCL20GTQJA0","assignmentId":"3LYA37P8IR9EB4RP0OBPST02T47KB5","hitId":"3Z3R5YC0P3915KVY8X6BNRIWSQNFTT","url":"https://gershmanlab.com/experiments/alicia/teaching/experiment/?hitId=3Z3R5YC0P3915KVY8X6BNRIWSQNFTT&workerId=A2MUCL20GTQJA0&assignmentId=3LYA37P8IR9EB4RP0OBPST02T47KB5&a=83YL9&tp_a=83YL9&b=3LYA37P8IR9EB4RP0OBPST02T47KB5&tp_b=3LYA37P8IR9EB4RP0OBPST02T47KB5&c=365799&tp_c=365799","heads":8,"tails":2,"studentIndex":18,"studentTrueHypers":{"a":2,"b":8},"studentGuess":0.5,"delta":0.30000000000000004,"totalExamples":10,"bonus":0,"bonusSoFar":1.38},{"rt":5493,"response":{"heads":"3","tails":"7"},"type":"response","condition":"seqFeedback","trueTheta":0.2,"classrooms":["A","B"],"studentTrueClassroom":"A","exampleSet":"first","trial_type":"survey-html-form","trial_index":173,"time_elapsed":1349729,"internal_node_id":"0.0-154.0-0.0","params":{"nStudents":24,"maxFlips":30,"completionMinutes":45,"basePay":8,"maxBonus":9,"perTrialBonus":0.5,"perTrialBonusThreshold":0.05,"exampleCost":0.01},"classroomParams":{"A":{"a":1,"b":4},"B":{"a":4,"b":1},"C":{"a":2,"b":8},"D":{"a":8,"b":2}},"conditions":["nonSeqFull","nonSeqPartial","seqNoFeedback","seqFeedback"],"classroomPairings":[["A","B"],["C","D"]],"coinWeights":[0.2,0.5,0.8],"subjectId":"A2MUCL20GTQJA0","assignmentId":"3LYA37P8IR9EB4RP0OBPST02T47KB5","hitId":"3Z3R5YC0P3915KVY8X6BNRIWSQNFTT","url":"https://gershmanlab.com/experiments/alicia/teaching/experiment/?hitId=3Z3R5YC0P3915KVY8X6BNRIWSQNFTT&workerId=A2MUCL20GTQJA0&assignmentId=3LYA37P8IR9EB4RP0OBPST02T47KB5&a=83YL9&tp_a=83YL9&b=3LYA37P8IR9EB4RP0OBPST02T47KB5&tp_b=3LYA37P8IR9EB4RP0OBPST02T47KB5&c=365799&tp_c=365799","heads":3,"tails":7,"studentIndex":19,"studentTrueHypers":{"a":1,"b":4},"studentGuess":0.26666666666666666,"delta":0.06666666666666665,"totalExamples":10,"bonusSoFar":1.38},{"rt":6477,"response":{"heads":"2","tails":"8"},"type":"response","condition":"seqFeedback","trueTheta":0.2,"classrooms":["A","B"],"studentTrueClassroom":"A","exampleSet":"second","trial_type":"survey-html-form","trial_index":177,"time_elapsed":1367238,"internal_node_id":"0.0-158.0-0.0","params":{"nStudents":24,"maxFlips":30,"completionMinutes":45,"basePay":8,"maxBonus":9,"perTrialBonus":0.5,"perTrialBonusThreshold":0.05,"exampleCost":0.01},"classroomParams":{"A":{"a":1,"b":4},"B":{"a":4,"b":1},"C":{"a":2,"b":8},"D":{"a":8,"b":2}},"conditions":["nonSeqFull","nonSeqPartial","seqNoFeedback","seqFeedback"],"classroomPairings":[["A","B"],["C","D"]],"coinWeights":[0.2,0.5,0.8],"subjectId":"A2MUCL20GTQJA0","assignmentId":"3LYA37P8IR9EB4RP0OBPST02T47KB5","hitId":"3Z3R5YC0P3915KVY8X6BNRIWSQNFTT","url":"https://gershmanlab.com/experiments/alicia/teaching/experiment/?hitId=3Z3R5YC0P3915KVY8X6BNRIWSQNFTT&workerId=A2MUCL20GTQJA0&assignmentId=3LYA37P8IR9EB4RP0OBPST02T47KB5&a=83YL9&tp_a=83YL9&b=3LYA37P8IR9EB4RP0OBPST02T47KB5&tp_b=3LYA37P8IR9EB4RP0OBPST02T47KB5&c=365799&tp_c=365799","firstResponseHeads":3,"firstResponseTails":7,"secondResponseHeads":2,"secondResponseTails":8,"totalHeads":5,"totalTails":15,"studentIndex":19,"studentTrueHypers":{"a":1,"b":4},"studentGuess":0.24,"delta":0.03999999999999998,"bonus":0.3,"bonusSoFar":1.68,"totalExamples":20},{"rt":6939,"response":{"heads":"8","tails":"2"},"type":"response","condition":"nonSeqPartial","trueTheta":0.8,"classrooms":["A","B"],"studentTrueClassroom":"A","exampleSet":"first","trial_type":"survey-html-form","trial_index":183,"time_elapsed":1387099,"internal_node_id":"0.0-164.0-0.0","params":{"nStudents":24,"maxFlips":30,"completionMinutes":45,"basePay":8,"maxBonus":9,"perTrialBonus":0.5,"perTrialBonusThreshold":0.05,"exampleCost":0.01},"classroomParams":{"A":{"a":1,"b":4},"B":{"a":4,"b":1},"C":{"a":2,"b":8},"D":{"a":8,"b":2}},"conditions":["nonSeqFull","nonSeqPartial","seqNoFeedback","seqFeedback"],"classroomPairings":[["A","B"],["C","D"]],"coinWeights":[0.2,0.5,0.8],"subjectId":"A2MUCL20GTQJA0","assignmentId":"3LYA37P8IR9EB4RP0OBPST02T47KB5","hitId":"3Z3R5YC0P3915KVY8X6BNRIWSQNFTT","url":"https://gershmanlab.com/experiments/alicia/teaching/experiment/?hitId=3Z3R5YC0P3915KVY8X6BNRIWSQNFTT&workerId=A2MUCL20GTQJA0&assignmentId=3LYA37P8IR9EB4RP0OBPST02T47KB5&a=83YL9&tp_a=83YL9&b=3LYA37P8IR9EB4RP0OBPST02T47KB5&tp_b=3LYA37P8IR9EB4RP0OBPST02T47KB5&c=365799&tp_c=365799","heads":8,"tails":2,"studentIndex":20,"studentTrueHypers":{"a":1,"b":4},"studentGuess":0.6,"delta":0.20000000000000007,"totalExamples":10,"bonus":0,"bonusSoFar":1.68},{"rt":10447,"response":{"heads":"3","tails":"7"},"type":"response","condition":"nonSeqFull","trueTheta":0.5,"classrooms":["C","D"],"studentTrueClassroom":"D","exampleSet":"first","trial_type":"survey-html-form","trial_index":189,"time_elapsed":1409680,"internal_node_id":"0.0-170.0-0.0","params":{"nStudents":24,"maxFlips":30,"completionMinutes":45,"basePay":8,"maxBonus":9,"perTrialBonus":0.5,"perTrialBonusThreshold":0.05,"exampleCost":0.01},"classroomParams":{"A":{"a":1,"b":4},"B":{"a":4,"b":1},"C":{"a":2,"b":8},"D":{"a":8,"b":2}},"conditions":["nonSeqFull","nonSeqPartial","seqNoFeedback","seqFeedback"],"classroomPairings":[["A","B"],["C","D"]],"coinWeights":[0.2,0.5,0.8],"subjectId":"A2MUCL20GTQJA0","assignmentId":"3LYA37P8IR9EB4RP0OBPST02T47KB5","hitId":"3Z3R5YC0P3915KVY8X6BNRIWSQNFTT","url":"https://gershmanlab.com/experiments/alicia/teaching/experiment/?hitId=3Z3R5YC0P3915KVY8X6BNRIWSQNFTT&workerId=A2MUCL20GTQJA0&assignmentId=3LYA37P8IR9EB4RP0OBPST02T47KB5&a=83YL9&tp_a=83YL9&b=3LYA37P8IR9EB4RP0OBPST02T47KB5&tp_b=3LYA37P8IR9EB4RP0OBPST02T47KB5&c=365799&tp_c=365799","heads":3,"tails":7,"studentIndex":21,"studentTrueHypers":{"a":8,"b":2},"studentGuess":0.55,"delta":0.050000000000000044,"totalExamples":10,"bonus":0,"bonusSoFar":1.68},{"rt":13634,"response":{"heads":"14","tails":"3"},"type":"response","condition":"nonSeqPartial","trueTheta":0.8,"classrooms":["C","D"],"studentTrueClassroom":"D","exampleSet":"first","trial_type":"survey-html-form","trial_index":195,"time_elapsed":1435695,"internal_node_id":"0.0-176.0-0.0","params":{"nStudents":24,"maxFlips":30,"completionMinutes":45,"basePay":8,"maxBonus":9,"perTrialBonus":0.5,"perTrialBonusThreshold":0.05,"exampleCost":0.01},"classroomParams":{"A":{"a":1,"b":4},"B":{"a":4,"b":1},"C":{"a":2,"b":8},"D":{"a":8,"b":2}},"conditions":["nonSeqFull","nonSeqPartial","seqNoFeedback","seqFeedback"],"classroomPairings":[["A","B"],["C","D"]],"coinWeights":[0.2,0.5,0.8],"subjectId":"A2MUCL20GTQJA0","assignmentId":"3LYA37P8IR9EB4RP0OBPST02T47KB5","hitId":"3Z3R5YC0P3915KVY8X6BNRIWSQNFTT","url":"https://gershmanlab.com/experiments/alicia/teaching/experiment/?hitId=3Z3R5YC0P3915KVY8X6BNRIWSQNFTT&workerId=A2MUCL20GTQJA0&assignmentId=3LYA37P8IR9EB4RP0OBPST02T47KB5&a=83YL9&tp_a=83YL9&b=3LYA37P8IR9EB4RP0OBPST02T47KB5&tp_b=3LYA37P8IR9EB4RP0OBPST02T47KB5&c=365799&tp_c=365799","heads":14,"tails":3,"studentIndex":22,"studentTrueHypers":{"a":8,"b":2},"studentGuess":0.8148148148148148,"delta":0.014814814814814725,"totalExamples":17,"bonus":0.33,"bonusSoFar":2.01},{"rt":10690,"response":{"heads":"1","tails":"12"},"type":"response","condition":"seqFeedback","trueTheta":0.2,"classrooms":["C","D"],"studentTrueClassroom":"C","exampleSet":"first","trial_type":"survey-html-form","trial_index":201,"time_elapsed":1460846,"internal_node_id":"0.0-182.0-0.0","params":{"nStudents":24,"maxFlips":30,"completionMinutes":45,"basePay":8,"maxBonus":9,"perTrialBonus":0.5,"perTrialBonusThreshold":0.05,"exampleCost":0.01},"classroomParams":{"A":{"a":1,"b":4},"B":{"a":4,"b":1},"C":{"a":2,"b":8},"D":{"a":8,"b":2}},"conditions":["nonSeqFull","nonSeqPartial","seqNoFeedback","seqFeedback"],"classroomPairings":[["A","B"],["C","D"]],"coinWeights":[0.2,0.5,0.8],"subjectId":"A2MUCL20GTQJA0","assignmentId":"3LYA37P8IR9EB4RP0OBPST02T47KB5","hitId":"3Z3R5YC0P3915KVY8X6BNRIWSQNFTT","url":"https://gershmanlab.com/experiments/alicia/teaching/experiment/?hitId=3Z3R5YC0P3915KVY8X6BNRIWSQNFTT&workerId=A2MUCL20GTQJA0&assignmentId=3LYA37P8IR9EB4RP0OBPST02T47KB5&a=83YL9&tp_a=83YL9&b=3LYA37P8IR9EB4RP0OBPST02T47KB5&tp_b=3LYA37P8IR9EB4RP0OBPST02T47KB5&c=365799&tp_c=365799","heads":1,"tails":12,"studentIndex":23,"studentTrueHypers":{"a":2,"b":8},"studentGuess":0.13043478260869565,"delta":0.06956521739130436,"totalExamples":13,"bonusSoFar":2.01},{"rt":5709,"response":{"heads":"3","tails":"15"},"type":"response","condition":"seqFeedback","trueTheta":0.2,"classrooms":["C","D"],"studentTrueClassroom":"C","exampleSet":"second","trial_type":"survey-html-form","trial_index":205,"time_elapsed":1475982,"internal_node_id":"0.0-186.0-0.0","params":{"nStudents":24,"maxFlips":30,"completionMinutes":45,"basePay":8,"maxBonus":9,"perTrialBonus":0.5,"perTrialBonusThreshold":0.05,"exampleCost":0.01},"classroomParams":{"A":{"a":1,"b":4},"B":{"a":4,"b":1},"C":{"a":2,"b":8},"D":{"a":8,"b":2}},"conditions":["nonSeqFull","nonSeqPartial","seqNoFeedback","seqFeedback"],"classroomPairings":[["A","B"],["C","D"]],"coinWeights":[0.2,0.5,0.8],"subjectId":"A2MUCL20GTQJA0","assignmentId":"3LYA37P8IR9EB4RP0OBPST02T47KB5","hitId":"3Z3R5YC0P3915KVY8X6BNRIWSQNFTT","url":"https://gershmanlab.com/experiments/alicia/teaching/experiment/?hitId=3Z3R5YC0P3915KVY8X6BNRIWSQNFTT&workerId=A2MUCL20GTQJA0&assignmentId=3LYA37P8IR9EB4RP0OBPST02T47KB5&a=83YL9&tp_a=83YL9&b=3LYA37P8IR9EB4RP0OBPST02T47KB5&tp_b=3LYA37P8IR9EB4RP0OBPST02T47KB5&c=365799&tp_c=365799","firstResponseHeads":1,"firstResponseTails":12,"secondResponseHeads":3,"secondResponseTails":15,"totalHeads":4,"totalTails":27,"studentIndex":23,"studentTrueHypers":{"a":2,"b":8},"studentGuess":0.14634146341463414,"delta":0.053658536585365874,"bonus":0,"bonusSoFar":2.01,"totalExamples":31},{"rt":8284,"response":{"gender":"male","age":"35","understood":"yes","comments":""},"type":"response","trial_type":"survey-html-form","trial_index":209,"time_elapsed":1497558,"internal_node_id":"0.0-191.0","params":{"nStudents":24,"maxFlips":30,"completionMinutes":45,"basePay":8,"maxBonus":9,"perTrialBonus":0.5,"perTrialBonusThreshold":0.05,"exampleCost":0.01},"classroomParams":{"A":{"a":1,"b":4},"B":{"a":4,"b":1},"C":{"a":2,"b":8},"D":{"a":8,"b":2}},"conditions":["nonSeqFull","nonSeqPartial","seqNoFeedback","seqFeedback"],"classroomPairings":[["A","B"],["C","D"]],"coinWeights":[0.2,0.5,0.8],"subjectId":"A2MUCL20GTQJA0","assignmentId":"3LYA37P8IR9EB4RP0OBPST02T47KB5","hitId":"3Z3R5YC0P3915KVY8X6BNRIWSQNFTT","url":"https://gershmanlab.com/experiments/alicia/teaching/experiment/?hitId=3Z3R5YC0P3915KVY8X6BNRIWSQNFTT&workerId=A2MUCL20GTQJA0&assignmentId=3LYA37P8IR9EB4RP0OBPST02T47KB5&a=83YL9&tp_a=83YL9&b=3LYA37P8IR9EB4RP0OBPST02T47KB5&tp_b=3LYA37P8IR9EB4RP0OBPST02T47KB5&c=365799&tp_c=365799","totalBonus":2.01}]