[{"rt":32080,"response":{"heads":"2","tails":"8"},"type":"response","condition":"nonSeqPartial","trueTheta":0.2,"classrooms":["C","D"],"studentTrueClassroom":"D","exampleSet":"first","trial_type":"survey-html-form","trial_index":10,"time_elapsed":592583,"internal_node_id":"0.0-6.0-0.0","params":{"nStudents":24,"maxFlips":30,"completionMinutes":45,"basePay":8,"maxBonus":9,"perTrialBonus":0.5,"perTrialBonusThreshold":0.05,"exampleCost":0.01},"classroomParams":{"A":{"a":1,"b":4},"B":{"a":4,"b":1},"C":{"a":2,"b":8},"D":{"a":8,"b":2}},"conditions":["nonSeqFull","nonSeqPartial","seqNoFeedback","seqFeedback"],"classroomPairings":[["A","B"],["C","D"]],"coinWeights":[0.2,0.5,0.8],"subjectId":"A2NEFRREWF33YP","assignmentId":"34FNN24DCNV76TZX3TL3YFFLHM9Y5Q","hitId":"34XASH8KLQ89J2U8D314D7180O4PMV","url":"https://gershmanlab.com/experiments/alicia/teaching/experiment/?hitId=34XASH8KLQ89J2U8D314D7180O4PMV&workerId=A2NEFRREWF33YP&assignmentId=34FNN24DCNV76TZX3TL3YFFLHM9Y5Q&a=DNF47&tp_a=DNF47&b=34FNN24DCNV76TZX3TL3YFFLHM9Y5Q&tp_b=34FNN24DCNV76TZX3TL3YFFLHM9Y5Q&c=365717&tp_c=365717","heads":2,"tails":8,"studentIndex":0,"studentTrueHypers":{"a":8,"b":2},"studentGuess":0.5,"delta":0.3,"totalExamples":10,"bonus":0,"bonusSoFar":0},{"rt":6866,"response":{"heads":"5","tails":"5"},"type":"response","condition":"seqFeedback","trueTheta":0.5,"classrooms":["C","D"],"studentTrueClassroom":"C","exampleSet":"first","trial_type":"survey-html-form","trial_index":16,"time_elapsed":621444,"internal_node_id":"0.0-12.0-0.0","params":{"nStudents":24,"maxFlips":30,"completionMinutes":45,"basePay":8,"maxBonus":9,"perTrialBonus":0.5,"perTrialBonusThreshold":0.05,"exampleCost":0.01},"classroomParams":{"A":{"a":1,"b":4},"B":{"a":4,"b":1},"C":{"a":2,"b":8},"D":{"a":8,"b":2}},"conditions":["nonSeqFull","nonSeqPartial","seqNoFeedback","seqFeedback"],"classroomPairings":[["A","B"],["C","D"]],"coinWeights":[0.2,0.5,0.8],"subjectId":"A2NEFRREWF33YP","assignmentId":"34FNN24DCNV76TZX3TL3YFFLHM9Y5Q","hitId":"34XASH8KLQ89J2U8D314D7180O4PMV","url":"https://gershmanlab.com/experiments/alicia/teaching/experiment/?hitId=34XASH8KLQ89J2U8D314D7180O4PMV&workerId=A2NEFRREWF33YP&assignmentId=34FNN24DCNV76TZX3TL3YFFLHM9Y5Q&a=DNF47&tp_a=DNF47&b=34FNN24DCNV76TZX3TL3YFFLHM9Y5Q&tp_b=34FNN24DCNV76TZX3TL3YFFLHM9Y5Q&c=365717&tp_c=365717","heads":5,"tails":5,"studentIndex":1,"studentTrueHypers":{"a":2,"b":8},"studentGuess":0.35,"delta":0.15000000000000002,"totalExamples":10,"bonusSoFar":0},{"rt":15191,"response":{"heads":"5","tails":"5"},"type":"response","condition":"seqFeedback","trueTheta":0.5,"classrooms":["C","D"],"studentTrueClassroom":"C","exampleSet":"second","trial_type":"survey-html-form","trial_index":20,"time_elapsed":649089,"internal_node_id":"0.0-16.0-0.0","params":{"nStudents":24,"maxFlips":30,"completionMinutes":45,"basePay":8,"maxBonus":9,"perTrialBonus":0.5,"perTrialBonusThreshold":0.05,"exampleCost":0.01},"classroomParams":{"A":{"a":1,"b":4},"B":{"a":4,"b":1},"C":{"a":2,"b":8},"D":{"a":8,"b":2}},"conditions":["nonSeqFull","nonSeqPartial","seqNoFeedback","seqFeedback"],"classroomPairings":[["A","B"],["C","D"]],"coinWeights":[0.2,0.5,0.8],"subjectId":"A2NEFRREWF33YP","assignmentId":"34FNN24DCNV76TZX3TL3YFFLHM9Y5Q","hitId":"34XASH8KLQ89J2U8D314D7180O4PMV","url":"https://gershmanlab.com/experiments/alicia/teaching/experiment/?hitId=34XASH8KLQ89J2U8D314D7180O4PMV&workerId=A2NEFRREWF33YP&assignmentId=34FNN24DCNV76TZX3TL3YFFLHM9Y5Q&a=DNF47&tp_a=DNF47&b=34FNN24DCNV76TZX3TL3YFFLHM9Y5Q&tp_b=34FNN24DCNV76TZX3TL3YFFLHM9Y5Q&c=365717&tp_c=365717","firstResponseHeads":5,"firstResponseTails":5,"secondResponseHeads":5,"secondResponseTails":5,"totalHeads":10,"totalTails":10,"studentIndex":1,"studentTrueHypers":{"a":2,"b":8},"studentGuess":0.4,"delta":0.09999999999999998,"bonus":0,"bonusSoFar":0,"totalExamples":20},{"rt":9015,"response":{"heads":"3","tails":"7"},"type":"response","condition":"nonSeqFull","trueTheta":0.2,"classrooms":["A","B"],"studentTrueClassroom":"A","exampleSet":"first","trial_type":"survey-html-form","trial_index":26,"time_elapsed":675091,"internal_node_id":"0.0-22.0-0.0","params":{"nStudents":24,"maxFlips":30,"completionMinutes":45,"basePay":8,"maxBonus":9,"perTrialBonus":0.5,"perTrialBonusThreshold":0.05,"exampleCost":0.01},"classroomParams":{"A":{"a":1,"b":4},"B":{"a":4,"b":1},"C":{"a":2,"b":8},"D":{"a":8,"b":2}},"conditions":["nonSeqFull","nonSeqPartial","seqNoFeedback","seqFeedback"],"classroomPairings":[["A","B"],["C","D"]],"coinWeights":[0.2,0.5,0.8],"subjectId":"A2NEFRREWF33YP","assignmentId":"34FNN24DCNV76TZX3TL3YFFLHM9Y5Q","hitId":"34XASH8KLQ89J2U8D314D7180O4PMV","url":"https://gershmanlab.com/experiments/alicia/teaching/experiment/?hitId=34XASH8KLQ89J2U8D314D7180O4PMV&workerId=A2NEFRREWF33YP&assignmentId=34FNN24DCNV76TZX3TL3YFFLHM9Y5Q&a=DNF47&tp_a=DNF47&b=34FNN24DCNV76TZX3TL3YFFLHM9Y5Q&tp_b=34FNN24DCNV76TZX3TL3YFFLHM9Y5Q&c=365717&tp_c=365717","heads":3,"tails":7,"studentIndex":2,"studentTrueHypers":{"a":1,"b":4},"studentGuess":0.26666666666666666,"delta":0.06666666666666665,"totalExamples":10,"bonus":0,"bonusSoFar":0},{"rt":16344,"response":{"heads":"0","tails":"8"},"type":"response","condition":"nonSeqFull","trueTheta":0.2,"classrooms":["C","D"],"studentTrueClassroom":"C","exampleSet":"first","trial_type":"survey-html-form","trial_index":32,"time_elapsed":708724,"internal_node_id":"0.0-28.0-0.0","params":{"nStudents":24,"maxFlips":30,"completionMinutes":45,"basePay":8,"maxBonus":9,"perTrialBonus":0.5,"perTrialBonusThreshold":0.05,"exampleCost":0.01},"classroomParams":{"A":{"a":1,"b":4},"B":{"a":4,"b":1},"C":{"a":2,"b":8},"D":{"a":8,"b":2}},"conditions":["nonSeqFull","nonSeqPartial","seqNoFeedback","seqFeedback"],"classroomPairings":[["A","B"],["C","D"]],"coinWeights":[0.2,0.5,0.8],"subjectId":"A2NEFRREWF33YP","assignmentId":"34FNN24DCNV76TZX3TL3YFFLHM9Y5Q","hitId":"34XASH8KLQ89J2U8D314D7180O4PMV","url":"https://gershmanlab.com/experiments/alicia/teaching/experiment/?hitId=34XASH8KLQ89J2U8D314D7180O4PMV&workerId=A2NEFRREWF33YP&assignmentId=34FNN24DCNV76TZX3TL3YFFLHM9Y5Q&a=DNF47&tp_a=DNF47&b=34FNN24DCNV76TZX3TL3YFFLHM9Y5Q&tp_b=34FNN24DCNV76TZX3TL3YFFLHM9Y5Q&c=365717&tp_c=365717","heads":0,"tails":8,"studentIndex":3,"studentTrueHypers":{"a":2,"b":8},"studentGuess":0.1111111111111111,"delta":0.0888888888888889,"totalExamples":8,"bonus":0,"bonusSoFar":0},{"rt":14064,"response":{"heads":"5","tails":"0"},"type":"response","condition":"seqFeedback","trueTheta":0.5,"classrooms":["A","B"],"studentTrueClassroom":"A","exampleSet":"first","trial_type":"survey-html-form","trial_index":38,"time_elapsed":737505,"internal_node_id":"0.0-34.0-0.0","params":{"nStudents":24,"maxFlips":30,"completionMinutes":45,"basePay":8,"maxBonus":9,"perTrialBonus":0.5,"perTrialBonusThreshold":0.05,"exampleCost":0.01},"classroomParams":{"A":{"a":1,"b":4},"B":{"a":4,"b":1},"C":{"a":2,"b":8},"D":{"a":8,"b":2}},"conditions":["nonSeqFull","nonSeqPartial","seqNoFeedback","seqFeedback"],"classroomPairings":[["A","B"],["C","D"]],"coinWeights":[0.2,0.5,0.8],"subjectId":"A2NEFRREWF33YP","assignmentId":"34FNN24DCNV76TZX3TL3YFFLHM9Y5Q","hitId":"34XASH8KLQ89J2U8D314D7180O4PMV","url":"https://gershmanlab.com/experiments/alicia/teaching/experiment/?hitId=34XASH8KLQ89J2U8D314D7180O4PMV&workerId=A2NEFRREWF33YP&assignmentId=34FNN24DCNV76TZX3TL3YFFLHM9Y5Q&a=DNF47&tp_a=DNF47&b=34FNN24DCNV76TZX3TL3YFFLHM9Y5Q&tp_b=34FNN24DCNV76TZX3TL3YFFLHM9Y5Q&c=365717&tp_c=365717","heads":5,"tails":0,"studentIndex":4,"studentTrueHypers":{"a":1,"b":4},"studentGuess":0.6,"delta":0.09999999999999998,"totalExamples":5,"bonusSoFar":0},{"rt":4368,"response":{"heads":"5","tails":"5"},"type":"response","condition":"seqFeedback","trueTheta":0.5,"classrooms":["A","B"],"studentTrueClassroom":"A","exampleSet":"second","trial_type":"survey-html-form","trial_index":42,"time_elapsed":753551,"internal_node_id":"0.0-38.0-0.0","params":{"nStudents":24,"maxFlips":30,"completionMinutes":45,"basePay":8,"maxBonus":9,"perTrialBonus":0.5,"perTrialBonusThreshold":0.05,"exampleCost":0.01},"classroomParams":{"A":{"a":1,"b":4},"B":{"a":4,"b":1},"C":{"a":2,"b":8},"D":{"a":8,"b":2}},"conditions":["nonSeqFull","nonSeqPartial","seqNoFeedback","seqFeedback"],"classroomPairings":[["A","B"],["C","D"]],"coinWeights":[0.2,0.5,0.8],"subjectId":"A2NEFRREWF33YP","assignmentId":"34FNN24DCNV76TZX3TL3YFFLHM9Y5Q","hitId":"34XASH8KLQ89J2U8D314D7180O4PMV","url":"https://gershmanlab.com/experiments/alicia/teaching/experiment/?hitId=34XASH8KLQ89J2U8D314D7180O4PMV&workerId=A2NEFRREWF33YP&assignmentId=34FNN24DCNV76TZX3TL3YFFLHM9Y5Q&a=DNF47&tp_a=DNF47&b=34FNN24DCNV76TZX3TL3YFFLHM9Y5Q&tp_b=34FNN24DCNV76TZX3TL3YFFLHM9Y5Q&c=365717&tp_c=365717","firstResponseHeads":5,"firstResponseTails":0,"secondResponseHeads":5,"secondResponseTails":5,"totalHeads":10,"totalTails":5,"studentIndex":4,"studentTrueHypers":{"a":1,"b":4},"studentGuess":0.55,"delta":0.050000000000000044,"bonus":0,"bonusSoFar":0,"totalExamples":15},{"rt":25934,"response":{"heads":"5","tails":"0"},"type":"response","condition":"nonSeqPartial","trueTheta":0.5,"classrooms":["A","B"],"studentTrueClassroom":"A","exampleSet":"first","trial_type":"survey-html-form","trial_index":48,"time_elapsed":796086,"internal_node_id":"0.0-44.0-0.0","params":{"nStudents":24,"maxFlips":30,"completionMinutes":45,"basePay":8,"maxBonus":9,"perTrialBonus":0.5,"perTrialBonusThreshold":0.05,"exampleCost":0.01},"classroomParams":{"A":{"a":1,"b":4},"B":{"a":4,"b":1},"C":{"a":2,"b":8},"D":{"a":8,"b":2}},"conditions":["nonSeqFull","nonSeqPartial","seqNoFeedback","seqFeedback"],"classroomPairings":[["A","B"],["C","D"]],"coinWeights":[0.2,0.5,0.8],"subjectId":"A2NEFRREWF33YP","assignmentId":"34FNN24DCNV76TZX3TL3YFFLHM9Y5Q","hitId":"34XASH8KLQ89J2U8D314D7180O4PMV","url":"https://gershmanlab.com/experiments/alicia/teaching/experiment/?hitId=34XASH8KLQ89J2U8D314D7180O4PMV&workerId=A2NEFRREWF33YP&assignmentId=34FNN24DCNV76TZX3TL3YFFLHM9Y5Q&a=DNF47&tp_a=DNF47&b=34FNN24DCNV76TZX3TL3YFFLHM9Y5Q&tp_b=34FNN24DCNV76TZX3TL3YFFLHM9Y5Q&c=365717&tp_c=365717","heads":5,"tails":0,"studentIndex":5,"studentTrueHypers":{"a":1,"b":4},"studentGuess":0.6,"delta":0.09999999999999998,"totalExamples":5,"bonus":0,"bonusSoFar":0},{"rt":36584,"response":{"heads":"24","tails":"0"},"type":"response","condition":"nonSeqFull","trueTheta":0.8,"classrooms":["C","D"],"studentTrueClassroom":"C","exampleSet":"first","trial_type":"survey-html-form","trial_index":54,"time_elapsed":848292,"internal_node_id":"0.0-50.0-0.0","params":{"nStudents":24,"maxFlips":30,"completionMinutes":45,"basePay":8,"maxBonus":9,"perTrialBonus":0.5,"perTrialBonusThreshold":0.05,"exampleCost":0.01},"classroomParams":{"A":{"a":1,"b":4},"B":{"a":4,"b":1},"C":{"a":2,"b":8},"D":{"a":8,"b":2}},"conditions":["nonSeqFull","nonSeqPartial","seqNoFeedback","seqFeedback"],"classroomPairings":[["A","B"],["C","D"]],"coinWeights":[0.2,0.5,0.8],"subjectId":"A2NEFRREWF33YP","assignmentId":"34FNN24DCNV76TZX3TL3YFFLHM9Y5Q","hitId":"34XASH8KLQ89J2U8D314D7180O4PMV","url":"https://gershmanlab.com/experiments/alicia/teaching/experiment/?hitId=34XASH8KLQ89J2U8D314D7180O4PMV&workerId=A2NEFRREWF33YP&assignmentId=34FNN24DCNV76TZX3TL3YFFLHM9Y5Q&a=DNF47&tp_a=DNF47&b=34FNN24DCNV76TZX3TL3YFFLHM9Y5Q&tp_b=34FNN24DCNV76TZX3TL3YFFLHM9Y5Q&c=365717&tp_c=365717","heads":24,"tails":0,"studentIndex":6,"studentTrueHypers":{"a":2,"b":8},"studentGuess":0.7647058823529411,"delta":0.03529411764705892,"totalExamples":24,"bonus":0.26,"bonusSoFar":0.26},{"rt":33602,"response":{"heads":"24","tails":"0"},"type":"response","condition":"nonSeqFull","trueTheta":0.8,"classrooms":["A","B"],"studentTrueClassroom":"B","exampleSet":"first","trial_type":"survey-html-form","trial_index":60,"time_elapsed":904183,"internal_node_id":"0.0-56.0-0.0","params":{"nStudents":24,"maxFlips":30,"completionMinutes":45,"basePay":8,"maxBonus":9,"perTrialBonus":0.5,"perTrialBonusThreshold":0.05,"exampleCost":0.01},"classroomParams":{"A":{"a":1,"b":4},"B":{"a":4,"b":1},"C":{"a":2,"b":8},"D":{"a":8,"b":2}},"conditions":["nonSeqFull","nonSeqPartial","seqNoFeedback","seqFeedback"],"classroomPairings":[["A","B"],["C","D"]],"coinWeights":[0.2,0.5,0.8],"subjectId":"A2NEFRREWF33YP","assignmentId":"34FNN24DCNV76TZX3TL3YFFLHM9Y5Q","hitId":"34XASH8KLQ89J2U8D314D7180O4PMV","url":"https://gershmanlab.com/experiments/alicia/teaching/experiment/?hitId=34XASH8KLQ89J2U8D314D7180O4PMV&workerId=A2NEFRREWF33YP&assignmentId=34FNN24DCNV76TZX3TL3YFFLHM9Y5Q&a=DNF47&tp_a=DNF47&b=34FNN24DCNV76TZX3TL3YFFLHM9Y5Q&tp_b=34FNN24DCNV76TZX3TL3YFFLHM9Y5Q&c=365717&tp_c=365717","heads":24,"tails":0,"studentIndex":7,"studentTrueHypers":{"a":4,"b":1},"studentGuess":0.9655172413793104,"delta":0.16551724137931034,"totalExamples":24,"bonus":0,"bonusSoFar":0.26},{"rt":34846,"response":{"heads":"15","tails":"15"},"type":"response","condition":"nonSeqPartial","trueTheta":0.5,"classrooms":["C","D"],"studentTrueClassroom":"D","exampleSet":"first","trial_type":"survey-html-form","trial_index":66,"time_elapsed":960606,"internal_node_id":"0.0-62.0-0.0","params":{"nStudents":24,"maxFlips":30,"completionMinutes":45,"basePay":8,"maxBonus":9,"perTrialBonus":0.5,"perTrialBonusThreshold":0.05,"exampleCost":0.01},"classroomParams":{"A":{"a":1,"b":4},"B":{"a":4,"b":1},"C":{"a":2,"b":8},"D":{"a":8,"b":2}},"conditions":["nonSeqFull","nonSeqPartial","seqNoFeedback","seqFeedback"],"classroomPairings":[["A","B"],["C","D"]],"coinWeights":[0.2,0.5,0.8],"subjectId":"A2NEFRREWF33YP","assignmentId":"34FNN24DCNV76TZX3TL3YFFLHM9Y5Q","hitId":"34XASH8KLQ89J2U8D314D7180O4PMV","url":"https://gershmanlab.com/experiments/alicia/teaching/experiment/?hitId=34XASH8KLQ89J2U8D314D7180O4PMV&workerId=A2NEFRREWF33YP&assignmentId=34FNN24DCNV76TZX3TL3YFFLHM9Y5Q&a=DNF47&tp_a=DNF47&b=34FNN24DCNV76TZX3TL3YFFLHM9Y5Q&tp_b=34FNN24DCNV76TZX3TL3YFFLHM9Y5Q&c=365717&tp_c=365717","heads":15,"tails":15,"studentIndex":8,"studentTrueHypers":{"a":8,"b":2},"studentGuess":0.575,"delta":0.07499999999999996,"totalExamples":30,"bonus":0,"bonusSoFar":0.26},{"rt":21397,"response":{"heads":"6","tails":"0"},"type":"response","condition":"seqNoFeedback","trueTheta":0.8,"classrooms":["C","D"],"studentTrueClassroom":"D","exampleSet":"first","trial_type":"survey-html-form","trial_index":72,"time_elapsed":999836,"internal_node_id":"0.0-68.0-0.0","params":{"nStudents":24,"maxFlips":30,"completionMinutes":45,"basePay":8,"maxBonus":9,"perTrialBonus":0.5,"perTrialBonusThreshold":0.05,"exampleCost":0.01},"classroomParams":{"A":{"a":1,"b":4},"B":{"a":4,"b":1},"C":{"a":2,"b":8},"D":{"a":8,"b":2}},"conditions":["nonSeqFull","nonSeqPartial","seqNoFeedback","seqFeedback"],"classroomPairings":[["A","B"],["C","D"]],"coinWeights":[0.2,0.5,0.8],"subjectId":"A2NEFRREWF33YP","assignmentId":"34FNN24DCNV76TZX3TL3YFFLHM9Y5Q","hitId":"34XASH8KLQ89J2U8D314D7180O4PMV","url":"https://gershmanlab.com/experiments/alicia/teaching/experiment/?hitId=34XASH8KLQ89J2U8D314D7180O4PMV&workerId=A2NEFRREWF33YP&assignmentId=34FNN24DCNV76TZX3TL3YFFLHM9Y5Q&a=DNF47&tp_a=DNF47&b=34FNN24DCNV76TZX3TL3YFFLHM9Y5Q&tp_b=34FNN24DCNV76TZX3TL3YFFLHM9Y5Q&c=365717&tp_c=365717","heads":6,"tails":0,"studentIndex":9,"studentTrueHypers":{"a":8,"b":2},"studentGuess":0.875,"delta":0.07499999999999996,"totalExamples":6,"bonusSoFar":0.26},{"rt":11558,"response":{"heads":"6","tails":"0"},"type":"response","condition":"seqNoFeedback","trueTheta":0.8,"classrooms":["C","D"],"studentTrueClassroom":"D","exampleSet":"second","trial_type":"survey-html-form","trial_index":75,"time_elapsed":1018405,"internal_node_id":"0.0-71.0-0.0","params":{"nStudents":24,"maxFlips":30,"completionMinutes":45,"basePay":8,"maxBonus":9,"perTrialBonus":0.5,"perTrialBonusThreshold":0.05,"exampleCost":0.01},"classroomParams":{"A":{"a":1,"b":4},"B":{"a":4,"b":1},"C":{"a":2,"b":8},"D":{"a":8,"b":2}},"conditions":["nonSeqFull","nonSeqPartial","seqNoFeedback","seqFeedback"],"classroomPairings":[["A","B"],["C","D"]],"coinWeights":[0.2,0.5,0.8],"subjectId":"A2NEFRREWF33YP","assignmentId":"34FNN24DCNV76TZX3TL3YFFLHM9Y5Q","hitId":"34XASH8KLQ89J2U8D314D7180O4PMV","url":"https://gershmanlab.com/experiments/alicia/teaching/experiment/?hitId=34XASH8KLQ89J2U8D314D7180O4PMV&workerId=A2NEFRREWF33YP&assignmentId=34FNN24DCNV76TZX3TL3YFFLHM9Y5Q&a=DNF47&tp_a=DNF47&b=34FNN24DCNV76TZX3TL3YFFLHM9Y5Q&tp_b=34FNN24DCNV76TZX3TL3YFFLHM9Y5Q&c=365717&tp_c=365717","firstResponseHeads":6,"firstResponseTails":0,"secondResponseHeads":6,"secondResponseTails":0,"totalHeads":12,"totalTails":0,"studentIndex":9,"studentTrueHypers":{"a":8,"b":2},"studentGuess":0.9090909090909091,"delta":0.10909090909090902,"bonus":0,"bonusSoFar":0.26,"totalExamples":12},{"rt":86989,"response":{"heads":"8","tails":"2"},"type":"response","condition":"nonSeqPartial","trueTheta":0.8,"classrooms":["A","B"],"studentTrueClassroom":"B","exampleSet":"first","trial_type":"survey-html-form","trial_index":81,"time_elapsed":1125620,"internal_node_id":"0.0-77.0-0.0","params":{"nStudents":24,"maxFlips":30,"completionMinutes":45,"basePay":8,"maxBonus":9,"perTrialBonus":0.5,"perTrialBonusThreshold":0.05,"exampleCost":0.01},"classroomParams":{"A":{"a":1,"b":4},"B":{"a":4,"b":1},"C":{"a":2,"b":8},"D":{"a":8,"b":2}},"conditions":["nonSeqFull","nonSeqPartial","seqNoFeedback","seqFeedback"],"classroomPairings":[["A","B"],["C","D"]],"coinWeights":[0.2,0.5,0.8],"subjectId":"A2NEFRREWF33YP","assignmentId":"34FNN24DCNV76TZX3TL3YFFLHM9Y5Q","hitId":"34XASH8KLQ89J2U8D314D7180O4PMV","url":"https://gershmanlab.com/experiments/alicia/teaching/experiment/?hitId=34XASH8KLQ89J2U8D314D7180O4PMV&workerId=A2NEFRREWF33YP&assignmentId=34FNN24DCNV76TZX3TL3YFFLHM9Y5Q&a=DNF47&tp_a=DNF47&b=34FNN24DCNV76TZX3TL3YFFLHM9Y5Q&tp_b=34FNN24DCNV76TZX3TL3YFFLHM9Y5Q&c=365717&tp_c=365717","heads":8,"tails":2,"studentIndex":10,"studentTrueHypers":{"a":4,"b":1},"studentGuess":0.8,"delta":0,"totalExamples":10,"bonus":0.4,"bonusSoFar":0.66},{"rt":10763,"response":{"heads":"5","tails":"5"},"type":"response","condition":"seqNoFeedback","trueTheta":0.5,"classrooms":["C","D"],"studentTrueClassroom":"D","exampleSet":"first","trial_type":"survey-html-form","trial_index":87,"time_elapsed":1152752,"internal_node_id":"0.0-83.0-0.0","params":{"nStudents":24,"maxFlips":30,"completionMinutes":45,"basePay":8,"maxBonus":9,"perTrialBonus":0.5,"perTrialBonusThreshold":0.05,"exampleCost":0.01},"classroomParams":{"A":{"a":1,"b":4},"B":{"a":4,"b":1},"C":{"a":2,"b":8},"D":{"a":8,"b":2}},"conditions":["nonSeqFull","nonSeqPartial","seqNoFeedback","seqFeedback"],"classroomPairings":[["A","B"],["C","D"]],"coinWeights":[0.2,0.5,0.8],"subjectId":"A2NEFRREWF33YP","assignmentId":"34FNN24DCNV76TZX3TL3YFFLHM9Y5Q","hitId":"34XASH8KLQ89J2U8D314D7180O4PMV","url":"https://gershmanlab.com/experiments/alicia/teaching/experiment/?hitId=34XASH8KLQ89J2U8D314D7180O4PMV&workerId=A2NEFRREWF33YP&assignmentId=34FNN24DCNV76TZX3TL3YFFLHM9Y5Q&a=DNF47&tp_a=DNF47&b=34FNN24DCNV76TZX3TL3YFFLHM9Y5Q&tp_b=34FNN24DCNV76TZX3TL3YFFLHM9Y5Q&c=365717&tp_c=365717","heads":5,"tails":5,"studentIndex":11,"studentTrueHypers":{"a":8,"b":2},"studentGuess":0.65,"delta":0.15000000000000002,"totalExamples":10,"bonusSoFar":0.66},{"rt":13110,"response":{"heads":"15","tails":"15"},"type":"response","condition":"seqNoFeedback","trueTheta":0.5,"classrooms":["C","D"],"studentTrueClassroom":"D","exampleSet":"second","trial_type":"survey-html-form","trial_index":90,"time_elapsed":1171616,"internal_node_id":"0.0-86.0-0.0","params":{"nStudents":24,"maxFlips":30,"completionMinutes":45,"basePay":8,"maxBonus":9,"perTrialBonus":0.5,"perTrialBonusThreshold":0.05,"exampleCost":0.01},"classroomParams":{"A":{"a":1,"b":4},"B":{"a":4,"b":1},"C":{"a":2,"b":8},"D":{"a":8,"b":2}},"conditions":["nonSeqFull","nonSeqPartial","seqNoFeedback","seqFeedback"],"classroomPairings":[["A","B"],["C","D"]],"coinWeights":[0.2,0.5,0.8],"subjectId":"A2NEFRREWF33YP","assignmentId":"34FNN24DCNV76TZX3TL3YFFLHM9Y5Q","hitId":"34XASH8KLQ89J2U8D314D7180O4PMV","url":"https://gershmanlab.com/experiments/alicia/teaching/experiment/?hitId=34XASH8KLQ89J2U8D314D7180O4PMV&workerId=A2NEFRREWF33YP&assignmentId=34FNN24DCNV76TZX3TL3YFFLHM9Y5Q&a=DNF47&tp_a=DNF47&b=34FNN24DCNV76TZX3TL3YFFLHM9Y5Q&tp_b=34FNN24DCNV76TZX3TL3YFFLHM9Y5Q&c=365717&tp_c=365717","firstResponseHeads":5,"firstResponseTails":5,"secondResponseHeads":15,"secondResponseTails":15,"totalHeads":20,"totalTails":20,"studentIndex":11,"studentTrueHypers":{"a":8,"b":2},"studentGuess":0.56,"delta":0.06000000000000005,"bonus":0,"bonusSoFar":0.66,"totalExamples":40},{"rt":22217,"response":{"heads":"24","tails":"6"},"type":"response","condition":"seqFeedback","trueTheta":0.8,"classrooms":["C","D"],"studentTrueClassroom":"D","exampleSet":"first","trial_type":"survey-html-form","trial_index":96,"time_elapsed":1224649,"internal_node_id":"0.0-92.0-0.0","params":{"nStudents":24,"maxFlips":30,"completionMinutes":45,"basePay":8,"maxBonus":9,"perTrialBonus":0.5,"perTrialBonusThreshold":0.05,"exampleCost":0.01},"classroomParams":{"A":{"a":1,"b":4},"B":{"a":4,"b":1},"C":{"a":2,"b":8},"D":{"a":8,"b":2}},"conditions":["nonSeqFull","nonSeqPartial","seqNoFeedback","seqFeedback"],"classroomPairings":[["A","B"],["C","D"]],"coinWeights":[0.2,0.5,0.8],"subjectId":"A2NEFRREWF33YP","assignmentId":"34FNN24DCNV76TZX3TL3YFFLHM9Y5Q","hitId":"34XASH8KLQ89J2U8D314D7180O4PMV","url":"https://gershmanlab.com/experiments/alicia/teaching/experiment/?hitId=34XASH8KLQ89J2U8D314D7180O4PMV&workerId=A2NEFRREWF33YP&assignmentId=34FNN24DCNV76TZX3TL3YFFLHM9Y5Q&a=DNF47&tp_a=DNF47&b=34FNN24DCNV76TZX3TL3YFFLHM9Y5Q&tp_b=34FNN24DCNV76TZX3TL3YFFLHM9Y5Q&c=365717&tp_c=365717","heads":24,"tails":6,"studentIndex":12,"studentTrueHypers":{"a":8,"b":2},"studentGuess":0.8,"delta":0,"totalExamples":30,"bonusSoFar":0.66},{"rt":16529,"response":{"heads":"8","tails":"2"},"type":"response","condition":"seqFeedback","trueTheta":0.8,"classrooms":["C","D"],"studentTrueClassroom":"D","exampleSet":"second","trial_type":"survey-html-form","trial_index":100,"time_elapsed":1252155,"internal_node_id":"0.0-96.0-0.0","params":{"nStudents":24,"maxFlips":30,"completionMinutes":45,"basePay":8,"maxBonus":9,"perTrialBonus":0.5,"perTrialBonusThreshold":0.05,"exampleCost":0.01},"classroomParams":{"A":{"a":1,"b":4},"B":{"a":4,"b":1},"C":{"a":2,"b":8},"D":{"a":8,"b":2}},"conditions":["nonSeqFull","nonSeqPartial","seqNoFeedback","seqFeedback"],"classroomPairings":[["A","B"],["C","D"]],"coinWeights":[0.2,0.5,0.8],"subjectId":"A2NEFRREWF33YP","assignmentId":"34FNN24DCNV76TZX3TL3YFFLHM9Y5Q","hitId":"34XASH8KLQ89J2U8D314D7180O4PMV","url":"https://gershmanlab.com/experiments/alicia/teaching/experiment/?hitId=34XASH8KLQ89J2U8D314D7180O4PMV&workerId=A2NEFRREWF33YP&assignmentId=34FNN24DCNV76TZX3TL3YFFLHM9Y5Q&a=DNF47&tp_a=DNF47&b=34FNN24DCNV76TZX3TL3YFFLHM9Y5Q&tp_b=34FNN24DCNV76TZX3TL3YFFLHM9Y5Q&c=365717&tp_c=365717","firstResponseHeads":24,"firstResponseTails":6,"secondResponseHeads":8,"secondResponseTails":2,"totalHeads":32,"totalTails":8,"studentIndex":12,"studentTrueHypers":{"a":8,"b":2},"studentGuess":0.8,"delta":0,"bonus":0.1,"bonusSoFar":0.76,"totalExamples":40},{"rt":12046,"response":{"heads":"15","tails":"15"},"type":"response","condition":"seqNoFeedback","trueTheta":0.5,"classrooms":["A","B"],"studentTrueClassroom":"A","exampleSet":"first","trial_type":"survey-html-form","trial_index":106,"time_elapsed":1277971,"internal_node_id":"0.0-102.0-0.0","params":{"nStudents":24,"maxFlips":30,"completionMinutes":45,"basePay":8,"maxBonus":9,"perTrialBonus":0.5,"perTrialBonusThreshold":0.05,"exampleCost":0.01},"classroomParams":{"A":{"a":1,"b":4},"B":{"a":4,"b":1},"C":{"a":2,"b":8},"D":{"a":8,"b":2}},"conditions":["nonSeqFull","nonSeqPartial","seqNoFeedback","seqFeedback"],"classroomPairings":[["A","B"],["C","D"]],"coinWeights":[0.2,0.5,0.8],"subjectId":"A2NEFRREWF33YP","assignmentId":"34FNN24DCNV76TZX3TL3YFFLHM9Y5Q","hitId":"34XASH8KLQ89J2U8D314D7180O4PMV","url":"https://gershmanlab.com/experiments/alicia/teaching/experiment/?hitId=34XASH8KLQ89J2U8D314D7180O4PMV&workerId=A2NEFRREWF33YP&assignmentId=34FNN24DCNV76TZX3TL3YFFLHM9Y5Q&a=DNF47&tp_a=DNF47&b=34FNN24DCNV76TZX3TL3YFFLHM9Y5Q&tp_b=34FNN24DCNV76TZX3TL3YFFLHM9Y5Q&c=365717&tp_c=365717","heads":15,"tails":15,"studentIndex":13,"studentTrueHypers":{"a":1,"b":4},"studentGuess":0.45714285714285713,"delta":0.04285714285714287,"totalExamples":30,"bonusSoFar":0.76},{"rt":10179,"response":{"heads":"5","tails":"5"},"type":"response","condition":"seqNoFeedback","trueTheta":0.5,"classrooms":["A","B"],"studentTrueClassroom":"A","exampleSet":"second","trial_type":"survey-html-form","trial_index":109,"time_elapsed":1294903,"internal_node_id":"0.0-105.0-0.0","params":{"nStudents":24,"maxFlips":30,"completionMinutes":45,"basePay":8,"maxBonus":9,"perTrialBonus":0.5,"perTrialBonusThreshold":0.05,"exampleCost":0.01},"classroomParams":{"A":{"a":1,"b":4},"B":{"a":4,"b":1},"C":{"a":2,"b":8},"D":{"a":8,"b":2}},"conditions":["nonSeqFull","nonSeqPartial","seqNoFeedback","seqFeedback"],"classroomPairings":[["A","B"],["C","D"]],"coinWeights":[0.2,0.5,0.8],"subjectId":"A2NEFRREWF33YP","assignmentId":"34FNN24DCNV76TZX3TL3YFFLHM9Y5Q","hitId":"34XASH8KLQ89J2U8D314D7180O4PMV","url":"https://gershmanlab.com/experiments/alicia/teaching/experiment/?hitId=34XASH8KLQ89J2U8D314D7180O4PMV&workerId=A2NEFRREWF33YP&assignmentId=34FNN24DCNV76TZX3TL3YFFLHM9Y5Q&a=DNF47&tp_a=DNF47&b=34FNN24DCNV76TZX3TL3YFFLHM9Y5Q&tp_b=34FNN24DCNV76TZX3TL3YFFLHM9Y5Q&c=365717&tp_c=365717","firstResponseHeads":15,"firstResponseTails":15,"secondResponseHeads":5,"secondResponseTails":5,"totalHeads":20,"totalTails":20,"studentIndex":13,"studentTrueHypers":{"a":1,"b":4},"studentGuess":0.4666666666666667,"delta":0.033333333333333326,"bonus":0.1,"bonusSoFar":0.86,"totalExamples":40},{"rt":26680,"response":{"heads":"6","tails":"24"},"type":"response","condition":"nonSeqPartial","trueTheta":0.2,"classrooms":["A","B"],"studentTrueClassroom":"B","exampleSet":"first","trial_type":"survey-html-form","trial_index":115,"time_elapsed":1337983,"internal_node_id":"0.0-111.0-0.0","params":{"nStudents":24,"maxFlips":30,"completionMinutes":45,"basePay":8,"maxBonus":9,"perTrialBonus":0.5,"perTrialBonusThreshold":0.05,"exampleCost":0.01},"classroomParams":{"A":{"a":1,"b":4},"B":{"a":4,"b":1},"C":{"a":2,"b":8},"D":{"a":8,"b":2}},"conditions":["nonSeqFull","nonSeqPartial","seqNoFeedback","seqFeedback"],"classroomPairings":[["A","B"],["C","D"]],"coinWeights":[0.2,0.5,0.8],"subjectId":"A2NEFRREWF33YP","assignmentId":"34FNN24DCNV76TZX3TL3YFFLHM9Y5Q","hitId":"34XASH8KLQ89J2U8D314D7180O4PMV","url":"https://gershmanlab.com/experiments/alicia/teaching/experiment/?hitId=34XASH8KLQ89J2U8D314D7180O4PMV&workerId=A2NEFRREWF33YP&assignmentId=34FNN24DCNV76TZX3TL3YFFLHM9Y5Q&a=DNF47&tp_a=DNF47&b=34FNN24DCNV76TZX3TL3YFFLHM9Y5Q&tp_b=34FNN24DCNV76TZX3TL3YFFLHM9Y5Q&c=365717&tp_c=365717","heads":6,"tails":24,"studentIndex":14,"studentTrueHypers":{"a":4,"b":1},"studentGuess":0.2857142857142857,"delta":0.08571428571428569,"totalExamples":30,"bonus":0,"bonusSoFar":0.86},{"rt":21746,"response":{"heads":"1","tails":"4"},"type":"response","condition":"seqNoFeedback","trueTheta":0.2,"classrooms":["A","B"],"studentTrueClassroom":"B","exampleSet":"first","trial_type":"survey-html-form","trial_index":121,"time_elapsed":1376576,"internal_node_id":"0.0-117.0-0.0","params":{"nStudents":24,"maxFlips":30,"completionMinutes":45,"basePay":8,"maxBonus":9,"perTrialBonus":0.5,"perTrialBonusThreshold":0.05,"exampleCost":0.01},"classroomParams":{"A":{"a":1,"b":4},"B":{"a":4,"b":1},"C":{"a":2,"b":8},"D":{"a":8,"b":2}},"conditions":["nonSeqFull","nonSeqPartial","seqNoFeedback","seqFeedback"],"classroomPairings":[["A","B"],["C","D"]],"coinWeights":[0.2,0.5,0.8],"subjectId":"A2NEFRREWF33YP","assignmentId":"34FNN24DCNV76TZX3TL3YFFLHM9Y5Q","hitId":"34XASH8KLQ89J2U8D314D7180O4PMV","url":"https://gershmanlab.com/experiments/alicia/teaching/experiment/?hitId=34XASH8KLQ89J2U8D314D7180O4PMV&workerId=A2NEFRREWF33YP&assignmentId=34FNN24DCNV76TZX3TL3YFFLHM9Y5Q&a=DNF47&tp_a=DNF47&b=34FNN24DCNV76TZX3TL3YFFLHM9Y5Q&tp_b=34FNN24DCNV76TZX3TL3YFFLHM9Y5Q&c=365717&tp_c=365717","heads":1,"tails":4,"studentIndex":15,"studentTrueHypers":{"a":4,"b":1},"studentGuess":0.5,"delta":0.3,"totalExamples":5,"bonusSoFar":0.86},{"rt":8214,"response":{"heads":"2","tails":"8"},"type":"response","condition":"seqNoFeedback","trueTheta":0.2,"classrooms":["A","B"],"studentTrueClassroom":"B","exampleSet":"second","trial_type":"survey-html-form","trial_index":124,"time_elapsed":1390294,"internal_node_id":"0.0-120.0-0.0","params":{"nStudents":24,"maxFlips":30,"completionMinutes":45,"basePay":8,"maxBonus":9,"perTrialBonus":0.5,"perTrialBonusThreshold":0.05,"exampleCost":0.01},"classroomParams":{"A":{"a":1,"b":4},"B":{"a":4,"b":1},"C":{"a":2,"b":8},"D":{"a":8,"b":2}},"conditions":["nonSeqFull","nonSeqPartial","seqNoFeedback","seqFeedback"],"classroomPairings":[["A","B"],["C","D"]],"coinWeights":[0.2,0.5,0.8],"subjectId":"A2NEFRREWF33YP","assignmentId":"34FNN24DCNV76TZX3TL3YFFLHM9Y5Q","hitId":"34XASH8KLQ89J2U8D314D7180O4PMV","url":"https://gershmanlab.com/experiments/alicia/teaching/experiment/?hitId=34XASH8KLQ89J2U8D314D7180O4PMV&workerId=A2NEFRREWF33YP&assignmentId=34FNN24DCNV76TZX3TL3YFFLHM9Y5Q&a=DNF47&tp_a=DNF47&b=34FNN24DCNV76TZX3TL3YFFLHM9Y5Q&tp_b=34FNN24DCNV76TZX3TL3YFFLHM9Y5Q&c=365717&tp_c=365717","firstResponseHeads":1,"firstResponseTails":4,"secondResponseHeads":2,"secondResponseTails":8,"totalHeads":3,"totalTails":12,"studentIndex":15,"studentTrueHypers":{"a":4,"b":1},"studentGuess":0.35,"delta":0.14999999999999997,"bonus":0,"bonusSoFar":0.86,"totalExamples":15},{"rt":9537,"response":{"heads":"6","tails":"24"},"type":"response","condition":"seqFeedback","trueTheta":0.2,"classrooms":["A","B"],"studentTrueClassroom":"A","exampleSet":"first","trial_type":"survey-html-form","trial_index":130,"time_elapsed":1414183,"internal_node_id":"0.0-126.0-0.0","params":{"nStudents":24,"maxFlips":30,"completionMinutes":45,"basePay":8,"maxBonus":9,"perTrialBonus":0.5,"perTrialBonusThreshold":0.05,"exampleCost":0.01},"classroomParams":{"A":{"a":1,"b":4},"B":{"a":4,"b":1},"C":{"a":2,"b":8},"D":{"a":8,"b":2}},"conditions":["nonSeqFull","nonSeqPartial","seqNoFeedback","seqFeedback"],"classroomPairings":[["A","B"],["C","D"]],"coinWeights":[0.2,0.5,0.8],"subjectId":"A2NEFRREWF33YP","assignmentId":"34FNN24DCNV76TZX3TL3YFFLHM9Y5Q","hitId":"34XASH8KLQ89J2U8D314D7180O4PMV","url":"https://gershmanlab.com/experiments/alicia/teaching/experiment/?hitId=34XASH8KLQ89J2U8D314D7180O4PMV&workerId=A2NEFRREWF33YP&assignmentId=34FNN24DCNV76TZX3TL3YFFLHM9Y5Q&a=DNF47&tp_a=DNF47&b=34FNN24DCNV76TZX3TL3YFFLHM9Y5Q&tp_b=34FNN24DCNV76TZX3TL3YFFLHM9Y5Q&c=365717&tp_c=365717","heads":6,"tails":24,"studentIndex":16,"studentTrueHypers":{"a":1,"b":4},"studentGuess":0.2,"delta":0,"totalExamples":30,"bonusSoFar":0.86},{"rt":8333,"response":{"heads":"1","tails":"4"},"type":"response","condition":"seqFeedback","trueTheta":0.2,"classrooms":["A","B"],"studentTrueClassroom":"A","exampleSet":"second","trial_type":"survey-html-form","trial_index":134,"time_elapsed":1435944,"internal_node_id":"0.0-130.0-0.0","params":{"nStudents":24,"maxFlips":30,"completionMinutes":45,"basePay":8,"maxBonus":9,"perTrialBonus":0.5,"perTrialBonusThreshold":0.05,"exampleCost":0.01},"classroomParams":{"A":{"a":1,"b":4},"B":{"a":4,"b":1},"C":{"a":2,"b":8},"D":{"a":8,"b":2}},"conditions":["nonSeqFull","nonSeqPartial","seqNoFeedback","seqFeedback"],"classroomPairings":[["A","B"],["C","D"]],"coinWeights":[0.2,0.5,0.8],"subjectId":"A2NEFRREWF33YP","assignmentId":"34FNN24DCNV76TZX3TL3YFFLHM9Y5Q","hitId":"34XASH8KLQ89J2U8D314D7180O4PMV","url":"https://gershmanlab.com/experiments/alicia/teaching/experiment/?hitId=34XASH8KLQ89J2U8D314D7180O4PMV&workerId=A2NEFRREWF33YP&assignmentId=34FNN24DCNV76TZX3TL3YFFLHM9Y5Q&a=DNF47&tp_a=DNF47&b=34FNN24DCNV76TZX3TL3YFFLHM9Y5Q&tp_b=34FNN24DCNV76TZX3TL3YFFLHM9Y5Q&c=365717&tp_c=365717","firstResponseHeads":6,"firstResponseTails":24,"secondResponseHeads":1,"secondResponseTails":4,"totalHeads":7,"totalTails":28,"studentIndex":16,"studentTrueHypers":{"a":1,"b":4},"studentGuess":0.2,"delta":0,"bonus":0.15,"bonusSoFar":1.01,"totalExamples":35},{"rt":18485,"response":{"heads":"1","tails":"3"},"type":"response","condition":"seqNoFeedback","trueTheta":0.2,"classrooms":["C","D"],"studentTrueClassroom":"C","exampleSet":"first","trial_type":"survey-html-form","trial_index":140,"time_elapsed":1467838,"internal_node_id":"0.0-136.0-0.0","params":{"nStudents":24,"maxFlips":30,"completionMinutes":45,"basePay":8,"maxBonus":9,"perTrialBonus":0.5,"perTrialBonusThreshold":0.05,"exampleCost":0.01},"classroomParams":{"A":{"a":1,"b":4},"B":{"a":4,"b":1},"C":{"a":2,"b":8},"D":{"a":8,"b":2}},"conditions":["nonSeqFull","nonSeqPartial","seqNoFeedback","seqFeedback"],"classroomPairings":[["A","B"],["C","D"]],"coinWeights":[0.2,0.5,0.8],"subjectId":"A2NEFRREWF33YP","assignmentId":"34FNN24DCNV76TZX3TL3YFFLHM9Y5Q","hitId":"34XASH8KLQ89J2U8D314D7180O4PMV","url":"https://gershmanlab.com/experiments/alicia/teaching/experiment/?hitId=34XASH8KLQ89J2U8D314D7180O4PMV&workerId=A2NEFRREWF33YP&assignmentId=34FNN24DCNV76TZX3TL3YFFLHM9Y5Q&a=DNF47&tp_a=DNF47&b=34FNN24DCNV76TZX3TL3YFFLHM9Y5Q&tp_b=34FNN24DCNV76TZX3TL3YFFLHM9Y5Q&c=365717&tp_c=365717","heads":1,"tails":3,"studentIndex":17,"studentTrueHypers":{"a":2,"b":8},"studentGuess":0.21428571428571427,"delta":0.014285714285714263,"totalExamples":4,"bonusSoFar":1.01},{"rt":14893,"response":{"heads":"1","tails":"4"},"type":"response","condition":"seqNoFeedback","trueTheta":0.2,"classrooms":["C","D"],"studentTrueClassroom":"C","exampleSet":"second","trial_type":"survey-html-form","trial_index":143,"time_elapsed":1488244,"internal_node_id":"0.0-139.0-0.0","params":{"nStudents":24,"maxFlips":30,"completionMinutes":45,"basePay":8,"maxBonus":9,"perTrialBonus":0.5,"perTrialBonusThreshold":0.05,"exampleCost":0.01},"classroomParams":{"A":{"a":1,"b":4},"B":{"a":4,"b":1},"C":{"a":2,"b":8},"D":{"a":8,"b":2}},"conditions":["nonSeqFull","nonSeqPartial","seqNoFeedback","seqFeedback"],"classroomPairings":[["A","B"],["C","D"]],"coinWeights":[0.2,0.5,0.8],"subjectId":"A2NEFRREWF33YP","assignmentId":"34FNN24DCNV76TZX3TL3YFFLHM9Y5Q","hitId":"34XASH8KLQ89J2U8D314D7180O4PMV","url":"https://gershmanlab.com/experiments/alicia/teaching/experiment/?hitId=34XASH8KLQ89J2U8D314D7180O4PMV&workerId=A2NEFRREWF33YP&assignmentId=34FNN24DCNV76TZX3TL3YFFLHM9Y5Q&a=DNF47&tp_a=DNF47&b=34FNN24DCNV76TZX3TL3YFFLHM9Y5Q&tp_b=34FNN24DCNV76TZX3TL3YFFLHM9Y5Q&c=365717&tp_c=365717","firstResponseHeads":1,"firstResponseTails":3,"secondResponseHeads":1,"secondResponseTails":4,"totalHeads":2,"totalTails":7,"studentIndex":17,"studentTrueHypers":{"a":2,"b":8},"studentGuess":0.21052631578947367,"delta":0.010526315789473661,"bonus":0.41,"bonusSoFar":1.42,"totalExamples":9},{"rt":14511,"response":{"heads":"4","tails":"1"},"type":"response","condition":"nonSeqPartial","trueTheta":0.8,"classrooms":["C","D"],"studentTrueClassroom":"C","exampleSet":"first","trial_type":"survey-html-form","trial_index":149,"time_elapsed":1519321,"internal_node_id":"0.0-145.0-0.0","params":{"nStudents":24,"maxFlips":30,"completionMinutes":45,"basePay":8,"maxBonus":9,"perTrialBonus":0.5,"perTrialBonusThreshold":0.05,"exampleCost":0.01},"classroomParams":{"A":{"a":1,"b":4},"B":{"a":4,"b":1},"C":{"a":2,"b":8},"D":{"a":8,"b":2}},"conditions":["nonSeqFull","nonSeqPartial","seqNoFeedback","seqFeedback"],"classroomPairings":[["A","B"],["C","D"]],"coinWeights":[0.2,0.5,0.8],"subjectId":"A2NEFRREWF33YP","assignmentId":"34FNN24DCNV76TZX3TL3YFFLHM9Y5Q","hitId":"34XASH8KLQ89J2U8D314D7180O4PMV","url":"https://gershmanlab.com/experiments/alicia/teaching/experiment/?hitId=34XASH8KLQ89J2U8D314D7180O4PMV&workerId=A2NEFRREWF33YP&assignmentId=34FNN24DCNV76TZX3TL3YFFLHM9Y5Q&a=DNF47&tp_a=DNF47&b=34FNN24DCNV76TZX3TL3YFFLHM9Y5Q&tp_b=34FNN24DCNV76TZX3TL3YFFLHM9Y5Q&c=365717&tp_c=365717","heads":4,"tails":1,"studentIndex":18,"studentTrueHypers":{"a":2,"b":8},"studentGuess":0.4,"delta":0.4,"totalExamples":5,"bonus":0,"bonusSoFar":1.42},{"rt":8249,"response":{"heads":"1","tails":"4"},"type":"response","condition":"seqFeedback","trueTheta":0.8,"classrooms":["A","B"],"studentTrueClassroom":"B","exampleSet":"first","trial_type":"survey-html-form","trial_index":155,"time_elapsed":1547588,"internal_node_id":"0.0-151.0-0.0","params":{"nStudents":24,"maxFlips":30,"completionMinutes":45,"basePay":8,"maxBonus":9,"perTrialBonus":0.5,"perTrialBonusThreshold":0.05,"exampleCost":0.01},"classroomParams":{"A":{"a":1,"b":4},"B":{"a":4,"b":1},"C":{"a":2,"b":8},"D":{"a":8,"b":2}},"conditions":["nonSeqFull","nonSeqPartial","seqNoFeedback","seqFeedback"],"classroomPairings":[["A","B"],["C","D"]],"coinWeights":[0.2,0.5,0.8],"subjectId":"A2NEFRREWF33YP","assignmentId":"34FNN24DCNV76TZX3TL3YFFLHM9Y5Q","hitId":"34XASH8KLQ89J2U8D314D7180O4PMV","url":"https://gershmanlab.com/experiments/alicia/teaching/experiment/?hitId=34XASH8KLQ89J2U8D314D7180O4PMV&workerId=A2NEFRREWF33YP&assignmentId=34FNN24DCNV76TZX3TL3YFFLHM9Y5Q&a=DNF47&tp_a=DNF47&b=34FNN24DCNV76TZX3TL3YFFLHM9Y5Q&tp_b=34FNN24DCNV76TZX3TL3YFFLHM9Y5Q&c=365717&tp_c=365717","heads":1,"tails":4,"studentIndex":19,"studentTrueHypers":{"a":4,"b":1},"studentGuess":0.5,"delta":0.30000000000000004,"totalExamples":5,"bonusSoFar":1.42},{"rt":11822,"response":{"heads":"8","tails":"2"},"type":"response","condition":"seqFeedback","trueTheta":0.8,"classrooms":["A","B"],"studentTrueClassroom":"B","exampleSet":"second","trial_type":"survey-html-form","trial_index":159,"time_elapsed":1569635,"internal_node_id":"0.0-155.0-0.0","params":{"nStudents":24,"maxFlips":30,"completionMinutes":45,"basePay":8,"maxBonus":9,"perTrialBonus":0.5,"perTrialBonusThreshold":0.05,"exampleCost":0.01},"classroomParams":{"A":{"a":1,"b":4},"B":{"a":4,"b":1},"C":{"a":2,"b":8},"D":{"a":8,"b":2}},"conditions":["nonSeqFull","nonSeqPartial","seqNoFeedback","seqFeedback"],"classroomPairings":[["A","B"],["C","D"]],"coinWeights":[0.2,0.5,0.8],"subjectId":"A2NEFRREWF33YP","assignmentId":"34FNN24DCNV76TZX3TL3YFFLHM9Y5Q","hitId":"34XASH8KLQ89J2U8D314D7180O4PMV","url":"https://gershmanlab.com/experiments/alicia/teaching/experiment/?hitId=34XASH8KLQ89J2U8D314D7180O4PMV&workerId=A2NEFRREWF33YP&assignmentId=34FNN24DCNV76TZX3TL3YFFLHM9Y5Q&a=DNF47&tp_a=DNF47&b=34FNN24DCNV76TZX3TL3YFFLHM9Y5Q&tp_b=34FNN24DCNV76TZX3TL3YFFLHM9Y5Q&c=365717&tp_c=365717","firstResponseHeads":1,"firstResponseTails":4,"secondResponseHeads":8,"secondResponseTails":2,"totalHeads":9,"totalTails":6,"studentIndex":19,"studentTrueHypers":{"a":4,"b":1},"studentGuess":0.65,"delta":0.15000000000000002,"bonus":0,"bonusSoFar":1.42,"totalExamples":15},{"rt":7474,"response":{"heads":"4","tails":"1"},"type":"response","condition":"seqNoFeedback","trueTheta":0.8,"classrooms":["A","B"],"studentTrueClassroom":"A","exampleSet":"first","trial_type":"survey-html-form","trial_index":165,"time_elapsed":1590827,"internal_node_id":"0.0-161.0-0.0","params":{"nStudents":24,"maxFlips":30,"completionMinutes":45,"basePay":8,"maxBonus":9,"perTrialBonus":0.5,"perTrialBonusThreshold":0.05,"exampleCost":0.01},"classroomParams":{"A":{"a":1,"b":4},"B":{"a":4,"b":1},"C":{"a":2,"b":8},"D":{"a":8,"b":2}},"conditions":["nonSeqFull","nonSeqPartial","seqNoFeedback","seqFeedback"],"classroomPairings":[["A","B"],["C","D"]],"coinWeights":[0.2,0.5,0.8],"subjectId":"A2NEFRREWF33YP","assignmentId":"34FNN24DCNV76TZX3TL3YFFLHM9Y5Q","hitId":"34XASH8KLQ89J2U8D314D7180O4PMV","url":"https://gershmanlab.com/experiments/alicia/teaching/experiment/?hitId=34XASH8KLQ89J2U8D314D7180O4PMV&workerId=A2NEFRREWF33YP&assignmentId=34FNN24DCNV76TZX3TL3YFFLHM9Y5Q&a=DNF47&tp_a=DNF47&b=34FNN24DCNV76TZX3TL3YFFLHM9Y5Q&tp_b=34FNN24DCNV76TZX3TL3YFFLHM9Y5Q&c=365717&tp_c=365717","heads":4,"tails":1,"studentIndex":20,"studentTrueHypers":{"a":1,"b":4},"studentGuess":0.5,"delta":0.30000000000000004,"totalExamples":5,"bonusSoFar":1.42},{"rt":10937,"response":{"heads":"8","tails":"2"},"type":"response","condition":"seqNoFeedback","trueTheta":0.8,"classrooms":["A","B"],"studentTrueClassroom":"A","exampleSet":"second","trial_type":"survey-html-form","trial_index":168,"time_elapsed":1608269,"internal_node_id":"0.0-164.0-0.0","params":{"nStudents":24,"maxFlips":30,"completionMinutes":45,"basePay":8,"maxBonus":9,"perTrialBonus":0.5,"perTrialBonusThreshold":0.05,"exampleCost":0.01},"classroomParams":{"A":{"a":1,"b":4},"B":{"a":4,"b":1},"C":{"a":2,"b":8},"D":{"a":8,"b":2}},"conditions":["nonSeqFull","nonSeqPartial","seqNoFeedback","seqFeedback"],"classroomPairings":[["A","B"],["C","D"]],"coinWeights":[0.2,0.5,0.8],"subjectId":"A2NEFRREWF33YP","assignmentId":"34FNN24DCNV76TZX3TL3YFFLHM9Y5Q","hitId":"34XASH8KLQ89J2U8D314D7180O4PMV","url":"https://gershmanlab.com/experiments/alicia/teaching/experiment/?hitId=34XASH8KLQ89J2U8D314D7180O4PMV&workerId=A2NEFRREWF33YP&assignmentId=34FNN24DCNV76TZX3TL3YFFLHM9Y5Q&a=DNF47&tp_a=DNF47&b=34FNN24DCNV76TZX3TL3YFFLHM9Y5Q&tp_b=34FNN24DCNV76TZX3TL3YFFLHM9Y5Q&c=365717&tp_c=365717","firstResponseHeads":4,"firstResponseTails":1,"secondResponseHeads":8,"secondResponseTails":2,"totalHeads":12,"totalTails":3,"studentIndex":20,"studentTrueHypers":{"a":1,"b":4},"studentGuess":0.65,"delta":0.15000000000000002,"bonus":0,"bonusSoFar":1.42,"totalExamples":15},{"rt":15535,"response":{"heads":"1","tails":"2"},"type":"response","condition":"nonSeqFull","trueTheta":0.5,"classrooms":["C","D"],"studentTrueClassroom":"D","exampleSet":"first","trial_type":"survey-html-form","trial_index":174,"time_elapsed":1640145,"internal_node_id":"0.0-170.0-0.0","params":{"nStudents":24,"maxFlips":30,"completionMinutes":45,"basePay":8,"maxBonus":9,"perTrialBonus":0.5,"perTrialBonusThreshold":0.05,"exampleCost":0.01},"classroomParams":{"A":{"a":1,"b":4},"B":{"a":4,"b":1},"C":{"a":2,"b":8},"D":{"a":8,"b":2}},"conditions":["nonSeqFull","nonSeqPartial","seqNoFeedback","seqFeedback"],"classroomPairings":[["A","B"],["C","D"]],"coinWeights":[0.2,0.5,0.8],"subjectId":"A2NEFRREWF33YP","assignmentId":"34FNN24DCNV76TZX3TL3YFFLHM9Y5Q","hitId":"34XASH8KLQ89J2U8D314D7180O4PMV","url":"https://gershmanlab.com/experiments/alicia/teaching/experiment/?hitId=34XASH8KLQ89J2U8D314D7180O4PMV&workerId=A2NEFRREWF33YP&assignmentId=34FNN24DCNV76TZX3TL3YFFLHM9Y5Q&a=DNF47&tp_a=DNF47&b=34FNN24DCNV76TZX3TL3YFFLHM9Y5Q&tp_b=34FNN24DCNV76TZX3TL3YFFLHM9Y5Q&c=365717&tp_c=365717","heads":1,"tails":2,"studentIndex":21,"studentTrueHypers":{"a":8,"b":2},"studentGuess":0.6923076923076923,"delta":0.1923076923076923,"totalExamples":3,"bonus":0,"bonusSoFar":1.42},{"rt":9942,"response":{"heads":"1","tails":"4"},"type":"response","condition":"seqFeedback","trueTheta":0.2,"classrooms":["C","D"],"studentTrueClassroom":"D","exampleSet":"first","trial_type":"survey-html-form","trial_index":180,"time_elapsed":1663911,"internal_node_id":"0.0-176.0-0.0","params":{"nStudents":24,"maxFlips":30,"completionMinutes":45,"basePay":8,"maxBonus":9,"perTrialBonus":0.5,"perTrialBonusThreshold":0.05,"exampleCost":0.01},"classroomParams":{"A":{"a":1,"b":4},"B":{"a":4,"b":1},"C":{"a":2,"b":8},"D":{"a":8,"b":2}},"conditions":["nonSeqFull","nonSeqPartial","seqNoFeedback","seqFeedback"],"classroomPairings":[["A","B"],["C","D"]],"coinWeights":[0.2,0.5,0.8],"subjectId":"A2NEFRREWF33YP","assignmentId":"34FNN24DCNV76TZX3TL3YFFLHM9Y5Q","hitId":"34XASH8KLQ89J2U8D314D7180O4PMV","url":"https://gershmanlab.com/experiments/alicia/teaching/experiment/?hitId=34XASH8KLQ89J2U8D314D7180O4PMV&workerId=A2NEFRREWF33YP&assignmentId=34FNN24DCNV76TZX3TL3YFFLHM9Y5Q&a=DNF47&tp_a=DNF47&b=34FNN24DCNV76TZX3TL3YFFLHM9Y5Q&tp_b=34FNN24DCNV76TZX3TL3YFFLHM9Y5Q&c=365717&tp_c=365717","heads":1,"tails":4,"studentIndex":22,"studentTrueHypers":{"a":8,"b":2},"studentGuess":0.6,"delta":0.39999999999999997,"totalExamples":5,"bonusSoFar":1.42},{"rt":6847,"response":{"heads":"2","tails":"0"},"type":"response","condition":"seqFeedback","trueTheta":0.2,"classrooms":["C","D"],"studentTrueClassroom":"D","exampleSet":"second","trial_type":"survey-html-form","trial_index":184,"time_elapsed":1679613,"internal_node_id":"0.0-180.0-0.0","params":{"nStudents":24,"maxFlips":30,"completionMinutes":45,"basePay":8,"maxBonus":9,"perTrialBonus":0.5,"perTrialBonusThreshold":0.05,"exampleCost":0.01},"classroomParams":{"A":{"a":1,"b":4},"B":{"a":4,"b":1},"C":{"a":2,"b":8},"D":{"a":8,"b":2}},"conditions":["nonSeqFull","nonSeqPartial","seqNoFeedback","seqFeedback"],"classroomPairings":[["A","B"],["C","D"]],"coinWeights":[0.2,0.5,0.8],"subjectId":"A2NEFRREWF33YP","assignmentId":"34FNN24DCNV76TZX3TL3YFFLHM9Y5Q","hitId":"34XASH8KLQ89J2U8D314D7180O4PMV","url":"https://gershmanlab.com/experiments/alicia/teaching/experiment/?hitId=34XASH8KLQ89J2U8D314D7180O4PMV&workerId=A2NEFRREWF33YP&assignmentId=34FNN24DCNV76TZX3TL3YFFLHM9Y5Q&a=DNF47&tp_a=DNF47&b=34FNN24DCNV76TZX3TL3YFFLHM9Y5Q&tp_b=34FNN24DCNV76TZX3TL3YFFLHM9Y5Q&c=365717&tp_c=365717","firstResponseHeads":1,"firstResponseTails":4,"secondResponseHeads":2,"secondResponseTails":0,"totalHeads":3,"totalTails":4,"studentIndex":22,"studentTrueHypers":{"a":8,"b":2},"studentGuess":0.6470588235294118,"delta":0.4470588235294118,"bonus":0,"bonusSoFar":1.42,"totalExamples":7},{"rt":14847,"response":{"heads":"5","tails":"5"},"type":"response","condition":"nonSeqFull","trueTheta":0.5,"classrooms":["A","B"],"studentTrueClassroom":"B","exampleSet":"first","trial_type":"survey-html-form","trial_index":190,"time_elapsed":1707221,"internal_node_id":"0.0-186.0-0.0","params":{"nStudents":24,"maxFlips":30,"completionMinutes":45,"basePay":8,"maxBonus":9,"perTrialBonus":0.5,"perTrialBonusThreshold":0.05,"exampleCost":0.01},"classroomParams":{"A":{"a":1,"b":4},"B":{"a":4,"b":1},"C":{"a":2,"b":8},"D":{"a":8,"b":2}},"conditions":["nonSeqFull","nonSeqPartial","seqNoFeedback","seqFeedback"],"classroomPairings":[["A","B"],["C","D"]],"coinWeights":[0.2,0.5,0.8],"subjectId":"A2NEFRREWF33YP","assignmentId":"34FNN24DCNV76TZX3TL3YFFLHM9Y5Q","hitId":"34XASH8KLQ89J2U8D314D7180O4PMV","url":"https://gershmanlab.com/experiments/alicia/teaching/experiment/?hitId=34XASH8KLQ89J2U8D314D7180O4PMV&workerId=A2NEFRREWF33YP&assignmentId=34FNN24DCNV76TZX3TL3YFFLHM9Y5Q&a=DNF47&tp_a=DNF47&b=34FNN24DCNV76TZX3TL3YFFLHM9Y5Q&tp_b=34FNN24DCNV76TZX3TL3YFFLHM9Y5Q&c=365717&tp_c=365717","heads":5,"tails":5,"studentIndex":23,"studentTrueHypers":{"a":4,"b":1},"studentGuess":0.6,"delta":0.09999999999999998,"totalExamples":10,"bonus":0,"bonusSoFar":1.42},{"rt":17948,"response":{"gender":"female","age":"55","understood":"yes","comments":"I was terrible at this."},"type":"response","trial_type":"survey-html-form","trial_index":194,"time_elapsed":1734377,"internal_node_id":"0.0-191.0","params":{"nStudents":24,"maxFlips":30,"completionMinutes":45,"basePay":8,"maxBonus":9,"perTrialBonus":0.5,"perTrialBonusThreshold":0.05,"exampleCost":0.01},"classroomParams":{"A":{"a":1,"b":4},"B":{"a":4,"b":1},"C":{"a":2,"b":8},"D":{"a":8,"b":2}},"conditions":["nonSeqFull","nonSeqPartial","seqNoFeedback","seqFeedback"],"classroomPairings":[["A","B"],["C","D"]],"coinWeights":[0.2,0.5,0.8],"subjectId":"A2NEFRREWF33YP","assignmentId":"34FNN24DCNV76TZX3TL3YFFLHM9Y5Q","hitId":"34XASH8KLQ89J2U8D314D7180O4PMV","url":"https://gershmanlab.com/experiments/alicia/teaching/experiment/?hitId=34XASH8KLQ89J2U8D314D7180O4PMV&workerId=A2NEFRREWF33YP&assignmentId=34FNN24DCNV76TZX3TL3YFFLHM9Y5Q&a=DNF47&tp_a=DNF47&b=34FNN24DCNV76TZX3TL3YFFLHM9Y5Q&tp_b=34FNN24DCNV76TZX3TL3YFFLHM9Y5Q&c=365717&tp_c=365717","totalBonus":1.42}]