[{"rt":33194,"response":{"heads":"1","tails":"1"},"type":"response","condition":"nonSeqFull","trueTheta":0.5,"classrooms":["A","B"],"studentTrueClassroom":"B","exampleSet":"first","trial_type":"survey-html-form","trial_index":7,"time_elapsed":429523,"internal_node_id":"0.0-6.0-0.0","params":{"nStudents":24,"maxFlips":30,"completionMinutes":45,"basePay":8,"maxBonus":9,"perTrialBonus":0.5,"perTrialBonusThreshold":0.05,"exampleCost":0.01},"classroomParams":{"A":{"a":1,"b":4},"B":{"a":4,"b":1},"C":{"a":2,"b":8},"D":{"a":8,"b":2}},"conditions":["nonSeqFull","nonSeqPartial","seqNoFeedback","seqFeedback"],"classroomPairings":[["A","B"],["C","D"]],"coinWeights":[0.2,0.5,0.8],"subjectId":"A2NJ7N8INZOB00","assignmentId":"3IOEN3P9S856ZRO8WNOZCYIB6WC61H","hitId":"3ZG552ORAMQWHINBPXRJ4QCSG7OV2V","url":"https://gershmanlab.com/experiments/alicia/teaching/experiment/?hitId=3ZG552ORAMQWHINBPXRJ4QCSG7OV2V&workerId=A2NJ7N8INZOB00&assignmentId=3IOEN3P9S856ZRO8WNOZCYIB6WC61H&a=9NOI7&tp_a=9NOI7&b=3IOEN3P9S856ZRO8WNOZCYIB6WC61H&tp_b=3IOEN3P9S856ZRO8WNOZCYIB6WC61H&c=365717&tp_c=365717","heads":1,"tails":1,"studentIndex":0,"studentTrueHypers":{"a":4,"b":1},"studentGuess":0.7142857142857143,"delta":0.2142857142857143,"totalExamples":2,"bonus":0,"bonusSoFar":0},{"rt":31996,"response":{"heads":"8","tails":"02"},"type":"response","condition":"seqFeedback","trueTheta":0.8,"classrooms":["C","D"],"studentTrueClassroom":"C","exampleSet":"first","trial_type":"survey-html-form","trial_index":13,"time_elapsed":508389,"internal_node_id":"0.0-12.0-0.0","params":{"nStudents":24,"maxFlips":30,"completionMinutes":45,"basePay":8,"maxBonus":9,"perTrialBonus":0.5,"perTrialBonusThreshold":0.05,"exampleCost":0.01},"classroomParams":{"A":{"a":1,"b":4},"B":{"a":4,"b":1},"C":{"a":2,"b":8},"D":{"a":8,"b":2}},"conditions":["nonSeqFull","nonSeqPartial","seqNoFeedback","seqFeedback"],"classroomPairings":[["A","B"],["C","D"]],"coinWeights":[0.2,0.5,0.8],"subjectId":"A2NJ7N8INZOB00","assignmentId":"3IOEN3P9S856ZRO8WNOZCYIB6WC61H","hitId":"3ZG552ORAMQWHINBPXRJ4QCSG7OV2V","url":"https://gershmanlab.com/experiments/alicia/teaching/experiment/?hitId=3ZG552ORAMQWHINBPXRJ4QCSG7OV2V&workerId=A2NJ7N8INZOB00&assignmentId=3IOEN3P9S856ZRO8WNOZCYIB6WC61H&a=9NOI7&tp_a=9NOI7&b=3IOEN3P9S856ZRO8WNOZCYIB6WC61H&tp_b=3IOEN3P9S856ZRO8WNOZCYIB6WC61H&c=365717&tp_c=365717","heads":8,"tails":2,"studentIndex":1,"studentTrueHypers":{"a":2,"b":8},"studentGuess":0.5,"delta":0.30000000000000004,"totalExamples":10,"bonusSoFar":0},{"rt":15430,"response":{"heads":"8","tails":"2"},"type":"response","condition":"seqFeedback","trueTheta":0.8,"classrooms":["C","D"],"studentTrueClassroom":"C","exampleSet":"second","trial_type":"survey-html-form","trial_index":17,"time_elapsed":560352,"internal_node_id":"0.0-16.0-0.0","params":{"nStudents":24,"maxFlips":30,"completionMinutes":45,"basePay":8,"maxBonus":9,"perTrialBonus":0.5,"perTrialBonusThreshold":0.05,"exampleCost":0.01},"classroomParams":{"A":{"a":1,"b":4},"B":{"a":4,"b":1},"C":{"a":2,"b":8},"D":{"a":8,"b":2}},"conditions":["nonSeqFull","nonSeqPartial","seqNoFeedback","seqFeedback"],"classroomPairings":[["A","B"],["C","D"]],"coinWeights":[0.2,0.5,0.8],"subjectId":"A2NJ7N8INZOB00","assignmentId":"3IOEN3P9S856ZRO8WNOZCYIB6WC61H","hitId":"3ZG552ORAMQWHINBPXRJ4QCSG7OV2V","url":"https://gershmanlab.com/experiments/alicia/teaching/experiment/?hitId=3ZG552ORAMQWHINBPXRJ4QCSG7OV2V&workerId=A2NJ7N8INZOB00&assignmentId=3IOEN3P9S856ZRO8WNOZCYIB6WC61H&a=9NOI7&tp_a=9NOI7&b=3IOEN3P9S856ZRO8WNOZCYIB6WC61H&tp_b=3IOEN3P9S856ZRO8WNOZCYIB6WC61H&c=365717&tp_c=365717","firstResponseHeads":8,"firstResponseTails":2,"secondResponseHeads":8,"secondResponseTails":2,"totalHeads":16,"totalTails":4,"studentIndex":1,"studentTrueHypers":{"a":2,"b":8},"studentGuess":0.6,"delta":0.20000000000000007,"bonus":0,"bonusSoFar":0,"totalExamples":20},{"rt":11429,"response":{"heads":"5","tails":"5"},"type":"response","condition":"seqNoFeedback","trueTheta":0.5,"classrooms":["C","D"],"studentTrueClassroom":"D","exampleSet":"first","trial_type":"survey-html-form","trial_index":23,"time_elapsed":614238,"internal_node_id":"0.0-22.0-0.0","params":{"nStudents":24,"maxFlips":30,"completionMinutes":45,"basePay":8,"maxBonus":9,"perTrialBonus":0.5,"perTrialBonusThreshold":0.05,"exampleCost":0.01},"classroomParams":{"A":{"a":1,"b":4},"B":{"a":4,"b":1},"C":{"a":2,"b":8},"D":{"a":8,"b":2}},"conditions":["nonSeqFull","nonSeqPartial","seqNoFeedback","seqFeedback"],"classroomPairings":[["A","B"],["C","D"]],"coinWeights":[0.2,0.5,0.8],"subjectId":"A2NJ7N8INZOB00","assignmentId":"3IOEN3P9S856ZRO8WNOZCYIB6WC61H","hitId":"3ZG552ORAMQWHINBPXRJ4QCSG7OV2V","url":"https://gershmanlab.com/experiments/alicia/teaching/experiment/?hitId=3ZG552ORAMQWHINBPXRJ4QCSG7OV2V&workerId=A2NJ7N8INZOB00&assignmentId=3IOEN3P9S856ZRO8WNOZCYIB6WC61H&a=9NOI7&tp_a=9NOI7&b=3IOEN3P9S856ZRO8WNOZCYIB6WC61H&tp_b=3IOEN3P9S856ZRO8WNOZCYIB6WC61H&c=365717&tp_c=365717","heads":5,"tails":5,"studentIndex":2,"studentTrueHypers":{"a":8,"b":2},"studentGuess":0.65,"delta":0.15000000000000002,"totalExamples":10,"bonusSoFar":0},{"rt":22660,"response":{"heads":"1","tails":"1"},"type":"response","condition":"seqNoFeedback","trueTheta":0.5,"classrooms":["C","D"],"studentTrueClassroom":"D","exampleSet":"second","trial_type":"survey-html-form","trial_index":26,"time_elapsed":642162,"internal_node_id":"0.0-25.0-0.0","params":{"nStudents":24,"maxFlips":30,"completionMinutes":45,"basePay":8,"maxBonus":9,"perTrialBonus":0.5,"perTrialBonusThreshold":0.05,"exampleCost":0.01},"classroomParams":{"A":{"a":1,"b":4},"B":{"a":4,"b":1},"C":{"a":2,"b":8},"D":{"a":8,"b":2}},"conditions":["nonSeqFull","nonSeqPartial","seqNoFeedback","seqFeedback"],"classroomPairings":[["A","B"],["C","D"]],"coinWeights":[0.2,0.5,0.8],"subjectId":"A2NJ7N8INZOB00","assignmentId":"3IOEN3P9S856ZRO8WNOZCYIB6WC61H","hitId":"3ZG552ORAMQWHINBPXRJ4QCSG7OV2V","url":"https://gershmanlab.com/experiments/alicia/teaching/experiment/?hitId=3ZG552ORAMQWHINBPXRJ4QCSG7OV2V&workerId=A2NJ7N8INZOB00&assignmentId=3IOEN3P9S856ZRO8WNOZCYIB6WC61H&a=9NOI7&tp_a=9NOI7&b=3IOEN3P9S856ZRO8WNOZCYIB6WC61H&tp_b=3IOEN3P9S856ZRO8WNOZCYIB6WC61H&c=365717&tp_c=365717","firstResponseHeads":5,"firstResponseTails":5,"secondResponseHeads":1,"secondResponseTails":1,"totalHeads":6,"totalTails":6,"studentIndex":2,"studentTrueHypers":{"a":8,"b":2},"studentGuess":0.6363636363636364,"delta":0.13636363636363635,"bonus":0,"bonusSoFar":0,"totalExamples":12},{"rt":5324,"response":{"heads":"8","tails":"0"},"type":"response","condition":"seqNoFeedback","trueTheta":0.8,"classrooms":["C","D"],"studentTrueClassroom":"C","exampleSet":"first","trial_type":"survey-html-form","trial_index":32,"time_elapsed":674181,"internal_node_id":"0.0-31.0-0.0","params":{"nStudents":24,"maxFlips":30,"completionMinutes":45,"basePay":8,"maxBonus":9,"perTrialBonus":0.5,"perTrialBonusThreshold":0.05,"exampleCost":0.01},"classroomParams":{"A":{"a":1,"b":4},"B":{"a":4,"b":1},"C":{"a":2,"b":8},"D":{"a":8,"b":2}},"conditions":["nonSeqFull","nonSeqPartial","seqNoFeedback","seqFeedback"],"classroomPairings":[["A","B"],["C","D"]],"coinWeights":[0.2,0.5,0.8],"subjectId":"A2NJ7N8INZOB00","assignmentId":"3IOEN3P9S856ZRO8WNOZCYIB6WC61H","hitId":"3ZG552ORAMQWHINBPXRJ4QCSG7OV2V","url":"https://gershmanlab.com/experiments/alicia/teaching/experiment/?hitId=3ZG552ORAMQWHINBPXRJ4QCSG7OV2V&workerId=A2NJ7N8INZOB00&assignmentId=3IOEN3P9S856ZRO8WNOZCYIB6WC61H&a=9NOI7&tp_a=9NOI7&b=3IOEN3P9S856ZRO8WNOZCYIB6WC61H&tp_b=3IOEN3P9S856ZRO8WNOZCYIB6WC61H&c=365717&tp_c=365717","heads":8,"tails":0,"studentIndex":3,"studentTrueHypers":{"a":2,"b":8},"studentGuess":0.5555555555555556,"delta":0.24444444444444446,"totalExamples":8,"bonusSoFar":0},{"rt":10501,"response":{"heads":"8","tails":"0"},"type":"response","condition":"seqNoFeedback","trueTheta":0.8,"classrooms":["C","D"],"studentTrueClassroom":"C","exampleSet":"second","trial_type":"survey-html-form","trial_index":35,"time_elapsed":691195,"internal_node_id":"0.0-34.0-0.0","params":{"nStudents":24,"maxFlips":30,"completionMinutes":45,"basePay":8,"maxBonus":9,"perTrialBonus":0.5,"perTrialBonusThreshold":0.05,"exampleCost":0.01},"classroomParams":{"A":{"a":1,"b":4},"B":{"a":4,"b":1},"C":{"a":2,"b":8},"D":{"a":8,"b":2}},"conditions":["nonSeqFull","nonSeqPartial","seqNoFeedback","seqFeedback"],"classroomPairings":[["A","B"],["C","D"]],"coinWeights":[0.2,0.5,0.8],"subjectId":"A2NJ7N8INZOB00","assignmentId":"3IOEN3P9S856ZRO8WNOZCYIB6WC61H","hitId":"3ZG552ORAMQWHINBPXRJ4QCSG7OV2V","url":"https://gershmanlab.com/experiments/alicia/teaching/experiment/?hitId=3ZG552ORAMQWHINBPXRJ4QCSG7OV2V&workerId=A2NJ7N8INZOB00&assignmentId=3IOEN3P9S856ZRO8WNOZCYIB6WC61H&a=9NOI7&tp_a=9NOI7&b=3IOEN3P9S856ZRO8WNOZCYIB6WC61H&tp_b=3IOEN3P9S856ZRO8WNOZCYIB6WC61H&c=365717&tp_c=365717","firstResponseHeads":8,"firstResponseTails":0,"secondResponseHeads":8,"secondResponseTails":0,"totalHeads":16,"totalTails":0,"studentIndex":3,"studentTrueHypers":{"a":2,"b":8},"studentGuess":0.6923076923076923,"delta":0.10769230769230775,"bonus":0,"bonusSoFar":0,"totalExamples":16},{"rt":6224,"response":{"heads":"1","tails":"1"},"type":"response","condition":"seqNoFeedback","trueTheta":0.5,"classrooms":["A","B"],"studentTrueClassroom":"B","exampleSet":"first","trial_type":"survey-html-form","trial_index":41,"time_elapsed":716694,"internal_node_id":"0.0-40.0-0.0","params":{"nStudents":24,"maxFlips":30,"completionMinutes":45,"basePay":8,"maxBonus":9,"perTrialBonus":0.5,"perTrialBonusThreshold":0.05,"exampleCost":0.01},"classroomParams":{"A":{"a":1,"b":4},"B":{"a":4,"b":1},"C":{"a":2,"b":8},"D":{"a":8,"b":2}},"conditions":["nonSeqFull","nonSeqPartial","seqNoFeedback","seqFeedback"],"classroomPairings":[["A","B"],["C","D"]],"coinWeights":[0.2,0.5,0.8],"subjectId":"A2NJ7N8INZOB00","assignmentId":"3IOEN3P9S856ZRO8WNOZCYIB6WC61H","hitId":"3ZG552ORAMQWHINBPXRJ4QCSG7OV2V","url":"https://gershmanlab.com/experiments/alicia/teaching/experiment/?hitId=3ZG552ORAMQWHINBPXRJ4QCSG7OV2V&workerId=A2NJ7N8INZOB00&assignmentId=3IOEN3P9S856ZRO8WNOZCYIB6WC61H&a=9NOI7&tp_a=9NOI7&b=3IOEN3P9S856ZRO8WNOZCYIB6WC61H&tp_b=3IOEN3P9S856ZRO8WNOZCYIB6WC61H&c=365717&tp_c=365717","heads":1,"tails":1,"studentIndex":4,"studentTrueHypers":{"a":4,"b":1},"studentGuess":0.7142857142857143,"delta":0.2142857142857143,"totalExamples":2,"bonusSoFar":0},{"rt":11465,"response":{"heads":"1","tails":"1"},"type":"response","condition":"seqNoFeedback","trueTheta":0.5,"classrooms":["A","B"],"studentTrueClassroom":"B","exampleSet":"second","trial_type":"survey-html-form","trial_index":44,"time_elapsed":735688,"internal_node_id":"0.0-43.0-0.0","params":{"nStudents":24,"maxFlips":30,"completionMinutes":45,"basePay":8,"maxBonus":9,"perTrialBonus":0.5,"perTrialBonusThreshold":0.05,"exampleCost":0.01},"classroomParams":{"A":{"a":1,"b":4},"B":{"a":4,"b":1},"C":{"a":2,"b":8},"D":{"a":8,"b":2}},"conditions":["nonSeqFull","nonSeqPartial","seqNoFeedback","seqFeedback"],"classroomPairings":[["A","B"],["C","D"]],"coinWeights":[0.2,0.5,0.8],"subjectId":"A2NJ7N8INZOB00","assignmentId":"3IOEN3P9S856ZRO8WNOZCYIB6WC61H","hitId":"3ZG552ORAMQWHINBPXRJ4QCSG7OV2V","url":"https://gershmanlab.com/experiments/alicia/teaching/experiment/?hitId=3ZG552ORAMQWHINBPXRJ4QCSG7OV2V&workerId=A2NJ7N8INZOB00&assignmentId=3IOEN3P9S856ZRO8WNOZCYIB6WC61H&a=9NOI7&tp_a=9NOI7&b=3IOEN3P9S856ZRO8WNOZCYIB6WC61H&tp_b=3IOEN3P9S856ZRO8WNOZCYIB6WC61H&c=365717&tp_c=365717","firstResponseHeads":1,"firstResponseTails":1,"secondResponseHeads":1,"secondResponseTails":1,"totalHeads":2,"totalTails":2,"studentIndex":4,"studentTrueHypers":{"a":4,"b":1},"studentGuess":0.6666666666666666,"delta":0.16666666666666663,"bonus":0,"bonusSoFar":0,"totalExamples":4},{"rt":10637,"response":{"heads":"2","tails":"8"},"type":"response","condition":"seqFeedback","trueTheta":0.2,"classrooms":["C","D"],"studentTrueClassroom":"C","exampleSet":"first","trial_type":"survey-html-form","trial_index":50,"time_elapsed":765726,"internal_node_id":"0.0-49.0-0.0","params":{"nStudents":24,"maxFlips":30,"completionMinutes":45,"basePay":8,"maxBonus":9,"perTrialBonus":0.5,"perTrialBonusThreshold":0.05,"exampleCost":0.01},"classroomParams":{"A":{"a":1,"b":4},"B":{"a":4,"b":1},"C":{"a":2,"b":8},"D":{"a":8,"b":2}},"conditions":["nonSeqFull","nonSeqPartial","seqNoFeedback","seqFeedback"],"classroomPairings":[["A","B"],["C","D"]],"coinWeights":[0.2,0.5,0.8],"subjectId":"A2NJ7N8INZOB00","assignmentId":"3IOEN3P9S856ZRO8WNOZCYIB6WC61H","hitId":"3ZG552ORAMQWHINBPXRJ4QCSG7OV2V","url":"https://gershmanlab.com/experiments/alicia/teaching/experiment/?hitId=3ZG552ORAMQWHINBPXRJ4QCSG7OV2V&workerId=A2NJ7N8INZOB00&assignmentId=3IOEN3P9S856ZRO8WNOZCYIB6WC61H&a=9NOI7&tp_a=9NOI7&b=3IOEN3P9S856ZRO8WNOZCYIB6WC61H&tp_b=3IOEN3P9S856ZRO8WNOZCYIB6WC61H&c=365717&tp_c=365717","heads":2,"tails":8,"studentIndex":5,"studentTrueHypers":{"a":2,"b":8},"studentGuess":0.2,"delta":0,"totalExamples":10,"bonusSoFar":0},{"rt":13998,"response":{"heads":"8","tails":"0"},"type":"response","condition":"seqFeedback","trueTheta":0.2,"classrooms":["C","D"],"studentTrueClassroom":"C","exampleSet":"second","trial_type":"survey-html-form","trial_index":54,"time_elapsed":795257,"internal_node_id":"0.0-53.0-0.0","params":{"nStudents":24,"maxFlips":30,"completionMinutes":45,"basePay":8,"maxBonus":9,"perTrialBonus":0.5,"perTrialBonusThreshold":0.05,"exampleCost":0.01},"classroomParams":{"A":{"a":1,"b":4},"B":{"a":4,"b":1},"C":{"a":2,"b":8},"D":{"a":8,"b":2}},"conditions":["nonSeqFull","nonSeqPartial","seqNoFeedback","seqFeedback"],"classroomPairings":[["A","B"],["C","D"]],"coinWeights":[0.2,0.5,0.8],"subjectId":"A2NJ7N8INZOB00","assignmentId":"3IOEN3P9S856ZRO8WNOZCYIB6WC61H","hitId":"3ZG552ORAMQWHINBPXRJ4QCSG7OV2V","url":"https://gershmanlab.com/experiments/alicia/teaching/experiment/?hitId=3ZG552ORAMQWHINBPXRJ4QCSG7OV2V&workerId=A2NJ7N8INZOB00&assignmentId=3IOEN3P9S856ZRO8WNOZCYIB6WC61H&a=9NOI7&tp_a=9NOI7&b=3IOEN3P9S856ZRO8WNOZCYIB6WC61H&tp_b=3IOEN3P9S856ZRO8WNOZCYIB6WC61H&c=365717&tp_c=365717","firstResponseHeads":2,"firstResponseTails":8,"secondResponseHeads":8,"secondResponseTails":0,"totalHeads":10,"totalTails":8,"studentIndex":5,"studentTrueHypers":{"a":2,"b":8},"studentGuess":0.42857142857142855,"delta":0.22857142857142854,"bonus":0,"bonusSoFar":0,"totalExamples":18},{"rt":7223,"response":{"heads":"0","tails":"8"},"type":"response","condition":"seqNoFeedback","trueTheta":0.8,"classrooms":["A","B"],"studentTrueClassroom":"A","exampleSet":"first","trial_type":"survey-html-form","trial_index":60,"time_elapsed":821703,"internal_node_id":"0.0-59.0-0.0","params":{"nStudents":24,"maxFlips":30,"completionMinutes":45,"basePay":8,"maxBonus":9,"perTrialBonus":0.5,"perTrialBonusThreshold":0.05,"exampleCost":0.01},"classroomParams":{"A":{"a":1,"b":4},"B":{"a":4,"b":1},"C":{"a":2,"b":8},"D":{"a":8,"b":2}},"conditions":["nonSeqFull","nonSeqPartial","seqNoFeedback","seqFeedback"],"classroomPairings":[["A","B"],["C","D"]],"coinWeights":[0.2,0.5,0.8],"subjectId":"A2NJ7N8INZOB00","assignmentId":"3IOEN3P9S856ZRO8WNOZCYIB6WC61H","hitId":"3ZG552ORAMQWHINBPXRJ4QCSG7OV2V","url":"https://gershmanlab.com/experiments/alicia/teaching/experiment/?hitId=3ZG552ORAMQWHINBPXRJ4QCSG7OV2V&workerId=A2NJ7N8INZOB00&assignmentId=3IOEN3P9S856ZRO8WNOZCYIB6WC61H&a=9NOI7&tp_a=9NOI7&b=3IOEN3P9S856ZRO8WNOZCYIB6WC61H&tp_b=3IOEN3P9S856ZRO8WNOZCYIB6WC61H&c=365717&tp_c=365717","heads":0,"tails":8,"studentIndex":6,"studentTrueHypers":{"a":1,"b":4},"studentGuess":0.07692307692307693,"delta":0.7230769230769232,"totalExamples":8,"bonusSoFar":0},{"rt":11540,"response":{"heads":"0","tails":"8"},"type":"response","condition":"seqNoFeedback","trueTheta":0.8,"classrooms":["A","B"],"studentTrueClassroom":"A","exampleSet":"second","trial_type":"survey-html-form","trial_index":63,"time_elapsed":840004,"internal_node_id":"0.0-62.0-0.0","params":{"nStudents":24,"maxFlips":30,"completionMinutes":45,"basePay":8,"maxBonus":9,"perTrialBonus":0.5,"perTrialBonusThreshold":0.05,"exampleCost":0.01},"classroomParams":{"A":{"a":1,"b":4},"B":{"a":4,"b":1},"C":{"a":2,"b":8},"D":{"a":8,"b":2}},"conditions":["nonSeqFull","nonSeqPartial","seqNoFeedback","seqFeedback"],"classroomPairings":[["A","B"],["C","D"]],"coinWeights":[0.2,0.5,0.8],"subjectId":"A2NJ7N8INZOB00","assignmentId":"3IOEN3P9S856ZRO8WNOZCYIB6WC61H","hitId":"3ZG552ORAMQWHINBPXRJ4QCSG7OV2V","url":"https://gershmanlab.com/experiments/alicia/teaching/experiment/?hitId=3ZG552ORAMQWHINBPXRJ4QCSG7OV2V&workerId=A2NJ7N8INZOB00&assignmentId=3IOEN3P9S856ZRO8WNOZCYIB6WC61H&a=9NOI7&tp_a=9NOI7&b=3IOEN3P9S856ZRO8WNOZCYIB6WC61H&tp_b=3IOEN3P9S856ZRO8WNOZCYIB6WC61H&c=365717&tp_c=365717","firstResponseHeads":0,"firstResponseTails":8,"secondResponseHeads":0,"secondResponseTails":8,"totalHeads":0,"totalTails":16,"studentIndex":6,"studentTrueHypers":{"a":1,"b":4},"studentGuess":0.047619047619047616,"delta":0.7523809523809524,"bonus":0,"bonusSoFar":0,"totalExamples":16},{"rt":5153,"response":{"heads":"0","tails":"5"},"type":"response","condition":"nonSeqPartial","trueTheta":0.5,"classrooms":["A","B"],"studentTrueClassroom":"A","exampleSet":"first","trial_type":"survey-html-form","trial_index":69,"time_elapsed":861062,"internal_node_id":"0.0-68.0-0.0","params":{"nStudents":24,"maxFlips":30,"completionMinutes":45,"basePay":8,"maxBonus":9,"perTrialBonus":0.5,"perTrialBonusThreshold":0.05,"exampleCost":0.01},"classroomParams":{"A":{"a":1,"b":4},"B":{"a":4,"b":1},"C":{"a":2,"b":8},"D":{"a":8,"b":2}},"conditions":["nonSeqFull","nonSeqPartial","seqNoFeedback","seqFeedback"],"classroomPairings":[["A","B"],["C","D"]],"coinWeights":[0.2,0.5,0.8],"subjectId":"A2NJ7N8INZOB00","assignmentId":"3IOEN3P9S856ZRO8WNOZCYIB6WC61H","hitId":"3ZG552ORAMQWHINBPXRJ4QCSG7OV2V","url":"https://gershmanlab.com/experiments/alicia/teaching/experiment/?hitId=3ZG552ORAMQWHINBPXRJ4QCSG7OV2V&workerId=A2NJ7N8INZOB00&assignmentId=3IOEN3P9S856ZRO8WNOZCYIB6WC61H&a=9NOI7&tp_a=9NOI7&b=3IOEN3P9S856ZRO8WNOZCYIB6WC61H&tp_b=3IOEN3P9S856ZRO8WNOZCYIB6WC61H&c=365717&tp_c=365717","heads":0,"tails":5,"studentIndex":7,"studentTrueHypers":{"a":1,"b":4},"studentGuess":0.1,"delta":0.4,"totalExamples":5,"bonus":0,"bonusSoFar":0},{"rt":6633,"response":{"heads":"2","tails":"8"},"type":"response","condition":"seqNoFeedback","trueTheta":0.2,"classrooms":["A","B"],"studentTrueClassroom":"B","exampleSet":"first","trial_type":"survey-html-form","trial_index":75,"time_elapsed":884982,"internal_node_id":"0.0-74.0-0.0","params":{"nStudents":24,"maxFlips":30,"completionMinutes":45,"basePay":8,"maxBonus":9,"perTrialBonus":0.5,"perTrialBonusThreshold":0.05,"exampleCost":0.01},"classroomParams":{"A":{"a":1,"b":4},"B":{"a":4,"b":1},"C":{"a":2,"b":8},"D":{"a":8,"b":2}},"conditions":["nonSeqFull","nonSeqPartial","seqNoFeedback","seqFeedback"],"classroomPairings":[["A","B"],["C","D"]],"coinWeights":[0.2,0.5,0.8],"subjectId":"A2NJ7N8INZOB00","assignmentId":"3IOEN3P9S856ZRO8WNOZCYIB6WC61H","hitId":"3ZG552ORAMQWHINBPXRJ4QCSG7OV2V","url":"https://gershmanlab.com/experiments/alicia/teaching/experiment/?hitId=3ZG552ORAMQWHINBPXRJ4QCSG7OV2V&workerId=A2NJ7N8INZOB00&assignmentId=3IOEN3P9S856ZRO8WNOZCYIB6WC61H&a=9NOI7&tp_a=9NOI7&b=3IOEN3P9S856ZRO8WNOZCYIB6WC61H&tp_b=3IOEN3P9S856ZRO8WNOZCYIB6WC61H&c=365717&tp_c=365717","heads":2,"tails":8,"studentIndex":8,"studentTrueHypers":{"a":4,"b":1},"studentGuess":0.4,"delta":0.2,"totalExamples":10,"bonusSoFar":0},{"rt":10500,"response":{"heads":"2","tails":"8"},"type":"response","condition":"seqNoFeedback","trueTheta":0.2,"classrooms":["A","B"],"studentTrueClassroom":"B","exampleSet":"second","trial_type":"survey-html-form","trial_index":78,"time_elapsed":900996,"internal_node_id":"0.0-77.0-0.0","params":{"nStudents":24,"maxFlips":30,"completionMinutes":45,"basePay":8,"maxBonus":9,"perTrialBonus":0.5,"perTrialBonusThreshold":0.05,"exampleCost":0.01},"classroomParams":{"A":{"a":1,"b":4},"B":{"a":4,"b":1},"C":{"a":2,"b":8},"D":{"a":8,"b":2}},"conditions":["nonSeqFull","nonSeqPartial","seqNoFeedback","seqFeedback"],"classroomPairings":[["A","B"],["C","D"]],"coinWeights":[0.2,0.5,0.8],"subjectId":"A2NJ7N8INZOB00","assignmentId":"3IOEN3P9S856ZRO8WNOZCYIB6WC61H","hitId":"3ZG552ORAMQWHINBPXRJ4QCSG7OV2V","url":"https://gershmanlab.com/experiments/alicia/teaching/experiment/?hitId=3ZG552ORAMQWHINBPXRJ4QCSG7OV2V&workerId=A2NJ7N8INZOB00&assignmentId=3IOEN3P9S856ZRO8WNOZCYIB6WC61H&a=9NOI7&tp_a=9NOI7&b=3IOEN3P9S856ZRO8WNOZCYIB6WC61H&tp_b=3IOEN3P9S856ZRO8WNOZCYIB6WC61H&c=365717&tp_c=365717","firstResponseHeads":2,"firstResponseTails":8,"secondResponseHeads":2,"secondResponseTails":8,"totalHeads":4,"totalTails":16,"studentIndex":8,"studentTrueHypers":{"a":4,"b":1},"studentGuess":0.32,"delta":0.12,"bonus":0,"bonusSoFar":0,"totalExamples":20},{"rt":5014,"response":{"heads":"2","tails":"0"},"type":"response","condition":"seqFeedback","trueTheta":0.2,"classrooms":["A","B"],"studentTrueClassroom":"A","exampleSet":"first","trial_type":"survey-html-form","trial_index":84,"time_elapsed":949577,"internal_node_id":"0.0-83.0-0.0","params":{"nStudents":24,"maxFlips":30,"completionMinutes":45,"basePay":8,"maxBonus":9,"perTrialBonus":0.5,"perTrialBonusThreshold":0.05,"exampleCost":0.01},"classroomParams":{"A":{"a":1,"b":4},"B":{"a":4,"b":1},"C":{"a":2,"b":8},"D":{"a":8,"b":2}},"conditions":["nonSeqFull","nonSeqPartial","seqNoFeedback","seqFeedback"],"classroomPairings":[["A","B"],["C","D"]],"coinWeights":[0.2,0.5,0.8],"subjectId":"A2NJ7N8INZOB00","assignmentId":"3IOEN3P9S856ZRO8WNOZCYIB6WC61H","hitId":"3ZG552ORAMQWHINBPXRJ4QCSG7OV2V","url":"https://gershmanlab.com/experiments/alicia/teaching/experiment/?hitId=3ZG552ORAMQWHINBPXRJ4QCSG7OV2V&workerId=A2NJ7N8INZOB00&assignmentId=3IOEN3P9S856ZRO8WNOZCYIB6WC61H&a=9NOI7&tp_a=9NOI7&b=3IOEN3P9S856ZRO8WNOZCYIB6WC61H&tp_b=3IOEN3P9S856ZRO8WNOZCYIB6WC61H&c=365717&tp_c=365717","heads":2,"tails":0,"studentIndex":9,"studentTrueHypers":{"a":1,"b":4},"studentGuess":0.42857142857142855,"delta":0.22857142857142854,"totalExamples":2,"bonusSoFar":0},{"rt":5047,"response":{"heads":"2","tails":"0"},"type":"response","condition":"seqFeedback","trueTheta":0.2,"classrooms":["A","B"],"studentTrueClassroom":"A","exampleSet":"second","trial_type":"survey-html-form","trial_index":88,"time_elapsed":964413,"internal_node_id":"0.0-87.0-0.0","params":{"nStudents":24,"maxFlips":30,"completionMinutes":45,"basePay":8,"maxBonus":9,"perTrialBonus":0.5,"perTrialBonusThreshold":0.05,"exampleCost":0.01},"classroomParams":{"A":{"a":1,"b":4},"B":{"a":4,"b":1},"C":{"a":2,"b":8},"D":{"a":8,"b":2}},"conditions":["nonSeqFull","nonSeqPartial","seqNoFeedback","seqFeedback"],"classroomPairings":[["A","B"],["C","D"]],"coinWeights":[0.2,0.5,0.8],"subjectId":"A2NJ7N8INZOB00","assignmentId":"3IOEN3P9S856ZRO8WNOZCYIB6WC61H","hitId":"3ZG552ORAMQWHINBPXRJ4QCSG7OV2V","url":"https://gershmanlab.com/experiments/alicia/teaching/experiment/?hitId=3ZG552ORAMQWHINBPXRJ4QCSG7OV2V&workerId=A2NJ7N8INZOB00&assignmentId=3IOEN3P9S856ZRO8WNOZCYIB6WC61H&a=9NOI7&tp_a=9NOI7&b=3IOEN3P9S856ZRO8WNOZCYIB6WC61H&tp_b=3IOEN3P9S856ZRO8WNOZCYIB6WC61H&c=365717&tp_c=365717","firstResponseHeads":2,"firstResponseTails":0,"secondResponseHeads":2,"secondResponseTails":0,"totalHeads":4,"totalTails":0,"studentIndex":9,"studentTrueHypers":{"a":1,"b":4},"studentGuess":0.5555555555555556,"delta":0.35555555555555557,"bonus":0,"bonusSoFar":0,"totalExamples":4},{"rt":4325,"response":{"heads":"8","tails":"0"},"type":"response","condition":"nonSeqPartial","trueTheta":0.8,"classrooms":["C","D"],"studentTrueClassroom":"D","exampleSet":"first","trial_type":"survey-html-form","trial_index":94,"time_elapsed":984444,"internal_node_id":"0.0-93.0-0.0","params":{"nStudents":24,"maxFlips":30,"completionMinutes":45,"basePay":8,"maxBonus":9,"perTrialBonus":0.5,"perTrialBonusThreshold":0.05,"exampleCost":0.01},"classroomParams":{"A":{"a":1,"b":4},"B":{"a":4,"b":1},"C":{"a":2,"b":8},"D":{"a":8,"b":2}},"conditions":["nonSeqFull","nonSeqPartial","seqNoFeedback","seqFeedback"],"classroomPairings":[["A","B"],["C","D"]],"coinWeights":[0.2,0.5,0.8],"subjectId":"A2NJ7N8INZOB00","assignmentId":"3IOEN3P9S856ZRO8WNOZCYIB6WC61H","hitId":"3ZG552ORAMQWHINBPXRJ4QCSG7OV2V","url":"https://gershmanlab.com/experiments/alicia/teaching/experiment/?hitId=3ZG552ORAMQWHINBPXRJ4QCSG7OV2V&workerId=A2NJ7N8INZOB00&assignmentId=3IOEN3P9S856ZRO8WNOZCYIB6WC61H&a=9NOI7&tp_a=9NOI7&b=3IOEN3P9S856ZRO8WNOZCYIB6WC61H&tp_b=3IOEN3P9S856ZRO8WNOZCYIB6WC61H&c=365717&tp_c=365717","heads":8,"tails":0,"studentIndex":10,"studentTrueHypers":{"a":8,"b":2},"studentGuess":0.8888888888888888,"delta":0.0888888888888888,"totalExamples":8,"bonus":0,"bonusSoFar":0},{"rt":7713,"response":{"heads":"5","tails":"5"},"type":"response","condition":"seqFeedback","trueTheta":0.5,"classrooms":["A","B"],"studentTrueClassroom":"B","exampleSet":"first","trial_type":"survey-html-form","trial_index":100,"time_elapsed":1014879,"internal_node_id":"0.0-99.0-0.0","params":{"nStudents":24,"maxFlips":30,"completionMinutes":45,"basePay":8,"maxBonus":9,"perTrialBonus":0.5,"perTrialBonusThreshold":0.05,"exampleCost":0.01},"classroomParams":{"A":{"a":1,"b":4},"B":{"a":4,"b":1},"C":{"a":2,"b":8},"D":{"a":8,"b":2}},"conditions":["nonSeqFull","nonSeqPartial","seqNoFeedback","seqFeedback"],"classroomPairings":[["A","B"],["C","D"]],"coinWeights":[0.2,0.5,0.8],"subjectId":"A2NJ7N8INZOB00","assignmentId":"3IOEN3P9S856ZRO8WNOZCYIB6WC61H","hitId":"3ZG552ORAMQWHINBPXRJ4QCSG7OV2V","url":"https://gershmanlab.com/experiments/alicia/teaching/experiment/?hitId=3ZG552ORAMQWHINBPXRJ4QCSG7OV2V&workerId=A2NJ7N8INZOB00&assignmentId=3IOEN3P9S856ZRO8WNOZCYIB6WC61H&a=9NOI7&tp_a=9NOI7&b=3IOEN3P9S856ZRO8WNOZCYIB6WC61H&tp_b=3IOEN3P9S856ZRO8WNOZCYIB6WC61H&c=365717&tp_c=365717","heads":5,"tails":5,"studentIndex":11,"studentTrueHypers":{"a":4,"b":1},"studentGuess":0.6,"delta":0.09999999999999998,"totalExamples":10,"bonusSoFar":0},{"rt":8648,"response":{"heads":"4","tails":"4"},"type":"response","condition":"seqFeedback","trueTheta":0.5,"classrooms":["A","B"],"studentTrueClassroom":"B","exampleSet":"second","trial_type":"survey-html-form","trial_index":104,"time_elapsed":1034328,"internal_node_id":"0.0-103.0-0.0","params":{"nStudents":24,"maxFlips":30,"completionMinutes":45,"basePay":8,"maxBonus":9,"perTrialBonus":0.5,"perTrialBonusThreshold":0.05,"exampleCost":0.01},"classroomParams":{"A":{"a":1,"b":4},"B":{"a":4,"b":1},"C":{"a":2,"b":8},"D":{"a":8,"b":2}},"conditions":["nonSeqFull","nonSeqPartial","seqNoFeedback","seqFeedback"],"classroomPairings":[["A","B"],["C","D"]],"coinWeights":[0.2,0.5,0.8],"subjectId":"A2NJ7N8INZOB00","assignmentId":"3IOEN3P9S856ZRO8WNOZCYIB6WC61H","hitId":"3ZG552ORAMQWHINBPXRJ4QCSG7OV2V","url":"https://gershmanlab.com/experiments/alicia/teaching/experiment/?hitId=3ZG552ORAMQWHINBPXRJ4QCSG7OV2V&workerId=A2NJ7N8INZOB00&assignmentId=3IOEN3P9S856ZRO8WNOZCYIB6WC61H&a=9NOI7&tp_a=9NOI7&b=3IOEN3P9S856ZRO8WNOZCYIB6WC61H&tp_b=3IOEN3P9S856ZRO8WNOZCYIB6WC61H&c=365717&tp_c=365717","firstResponseHeads":5,"firstResponseTails":5,"secondResponseHeads":4,"secondResponseTails":4,"totalHeads":9,"totalTails":9,"studentIndex":11,"studentTrueHypers":{"a":4,"b":1},"studentGuess":0.5652173913043478,"delta":0.06521739130434778,"bonus":0,"bonusSoFar":0,"totalExamples":18},{"rt":5760,"response":{"heads":"5","tails":"5"},"type":"response","condition":"nonSeqFull","trueTheta":0.5,"classrooms":["C","D"],"studentTrueClassroom":"C","exampleSet":"first","trial_type":"survey-html-form","trial_index":110,"time_elapsed":1057713,"internal_node_id":"0.0-109.0-0.0","params":{"nStudents":24,"maxFlips":30,"completionMinutes":45,"basePay":8,"maxBonus":9,"perTrialBonus":0.5,"perTrialBonusThreshold":0.05,"exampleCost":0.01},"classroomParams":{"A":{"a":1,"b":4},"B":{"a":4,"b":1},"C":{"a":2,"b":8},"D":{"a":8,"b":2}},"conditions":["nonSeqFull","nonSeqPartial","seqNoFeedback","seqFeedback"],"classroomPairings":[["A","B"],["C","D"]],"coinWeights":[0.2,0.5,0.8],"subjectId":"A2NJ7N8INZOB00","assignmentId":"3IOEN3P9S856ZRO8WNOZCYIB6WC61H","hitId":"3ZG552ORAMQWHINBPXRJ4QCSG7OV2V","url":"https://gershmanlab.com/experiments/alicia/teaching/experiment/?hitId=3ZG552ORAMQWHINBPXRJ4QCSG7OV2V&workerId=A2NJ7N8INZOB00&assignmentId=3IOEN3P9S856ZRO8WNOZCYIB6WC61H&a=9NOI7&tp_a=9NOI7&b=3IOEN3P9S856ZRO8WNOZCYIB6WC61H&tp_b=3IOEN3P9S856ZRO8WNOZCYIB6WC61H&c=365717&tp_c=365717","heads":5,"tails":5,"studentIndex":12,"studentTrueHypers":{"a":2,"b":8},"studentGuess":0.35,"delta":0.15000000000000002,"totalExamples":10,"bonus":0,"bonusSoFar":0},{"rt":5140,"response":{"heads":"1","tails":"1"},"type":"response","condition":"nonSeqPartial","trueTheta":0.5,"classrooms":["C","D"],"studentTrueClassroom":"C","exampleSet":"first","trial_type":"survey-html-form","trial_index":116,"time_elapsed":1078326,"internal_node_id":"0.0-115.0-0.0","params":{"nStudents":24,"maxFlips":30,"completionMinutes":45,"basePay":8,"maxBonus":9,"perTrialBonus":0.5,"perTrialBonusThreshold":0.05,"exampleCost":0.01},"classroomParams":{"A":{"a":1,"b":4},"B":{"a":4,"b":1},"C":{"a":2,"b":8},"D":{"a":8,"b":2}},"conditions":["nonSeqFull","nonSeqPartial","seqNoFeedback","seqFeedback"],"classroomPairings":[["A","B"],["C","D"]],"coinWeights":[0.2,0.5,0.8],"subjectId":"A2NJ7N8INZOB00","assignmentId":"3IOEN3P9S856ZRO8WNOZCYIB6WC61H","hitId":"3ZG552ORAMQWHINBPXRJ4QCSG7OV2V","url":"https://gershmanlab.com/experiments/alicia/teaching/experiment/?hitId=3ZG552ORAMQWHINBPXRJ4QCSG7OV2V&workerId=A2NJ7N8INZOB00&assignmentId=3IOEN3P9S856ZRO8WNOZCYIB6WC61H&a=9NOI7&tp_a=9NOI7&b=3IOEN3P9S856ZRO8WNOZCYIB6WC61H&tp_b=3IOEN3P9S856ZRO8WNOZCYIB6WC61H&c=365717&tp_c=365717","heads":1,"tails":1,"studentIndex":13,"studentTrueHypers":{"a":2,"b":8},"studentGuess":0.25,"delta":0.25,"totalExamples":2,"bonus":0,"bonusSoFar":0},{"rt":1156,"response":{"heads":"0","tails":"0"},"type":"response","condition":"nonSeqFull","trueTheta":0.8,"classrooms":["A","B"],"studentTrueClassroom":"B","exampleSet":"first","trial_type":"survey-html-form","trial_index":122,"time_elapsed":1096220,"internal_node_id":"0.0-121.0-0.0","params":{"nStudents":24,"maxFlips":30,"completionMinutes":45,"basePay":8,"maxBonus":9,"perTrialBonus":0.5,"perTrialBonusThreshold":0.05,"exampleCost":0.01},"classroomParams":{"A":{"a":1,"b":4},"B":{"a":4,"b":1},"C":{"a":2,"b":8},"D":{"a":8,"b":2}},"conditions":["nonSeqFull","nonSeqPartial","seqNoFeedback","seqFeedback"],"classroomPairings":[["A","B"],["C","D"]],"coinWeights":[0.2,0.5,0.8],"subjectId":"A2NJ7N8INZOB00","assignmentId":"3IOEN3P9S856ZRO8WNOZCYIB6WC61H","hitId":"3ZG552ORAMQWHINBPXRJ4QCSG7OV2V","url":"https://gershmanlab.com/experiments/alicia/teaching/experiment/?hitId=3ZG552ORAMQWHINBPXRJ4QCSG7OV2V&workerId=A2NJ7N8INZOB00&assignmentId=3IOEN3P9S856ZRO8WNOZCYIB6WC61H&a=9NOI7&tp_a=9NOI7&b=3IOEN3P9S856ZRO8WNOZCYIB6WC61H&tp_b=3IOEN3P9S856ZRO8WNOZCYIB6WC61H&c=365717&tp_c=365717","heads":0,"tails":0,"studentIndex":14,"studentTrueHypers":{"a":4,"b":1},"studentGuess":0.8,"delta":0,"totalExamples":0,"bonus":0.5,"bonusSoFar":0.5},{"rt":1152,"response":{"heads":"0","tails":"0"},"type":"response","condition":"nonSeqFull","trueTheta":0.8,"classrooms":["A","B"],"studentTrueClassroom":"B","exampleSet":"first","trial_type":"survey-html-form","trial_index":123,"time_elapsed":1097382,"internal_node_id":"0.0-121.1-0.1","params":{"nStudents":24,"maxFlips":30,"completionMinutes":45,"basePay":8,"maxBonus":9,"perTrialBonus":0.5,"perTrialBonusThreshold":0.05,"exampleCost":0.01},"classroomParams":{"A":{"a":1,"b":4},"B":{"a":4,"b":1},"C":{"a":2,"b":8},"D":{"a":8,"b":2}},"conditions":["nonSeqFull","nonSeqPartial","seqNoFeedback","seqFeedback"],"classroomPairings":[["A","B"],["C","D"]],"coinWeights":[0.2,0.5,0.8],"subjectId":"A2NJ7N8INZOB00","assignmentId":"3IOEN3P9S856ZRO8WNOZCYIB6WC61H","hitId":"3ZG552ORAMQWHINBPXRJ4QCSG7OV2V","url":"https://gershmanlab.com/experiments/alicia/teaching/experiment/?hitId=3ZG552ORAMQWHINBPXRJ4QCSG7OV2V&workerId=A2NJ7N8INZOB00&assignmentId=3IOEN3P9S856ZRO8WNOZCYIB6WC61H&a=9NOI7&tp_a=9NOI7&b=3IOEN3P9S856ZRO8WNOZCYIB6WC61H&tp_b=3IOEN3P9S856ZRO8WNOZCYIB6WC61H&c=365717&tp_c=365717","heads":0,"tails":0,"studentIndex":14,"studentTrueHypers":{"a":4,"b":1},"studentGuess":0.8,"delta":0,"totalExamples":0,"bonus":0.5,"bonusSoFar":1},{"rt":4379,"response":{"heads":"8","tails":"0"},"type":"response","condition":"nonSeqFull","trueTheta":0.8,"classrooms":["A","B"],"studentTrueClassroom":"B","exampleSet":"first","trial_type":"survey-html-form","trial_index":124,"time_elapsed":1101766,"internal_node_id":"0.0-121.2-0.2","params":{"nStudents":24,"maxFlips":30,"completionMinutes":45,"basePay":8,"maxBonus":9,"perTrialBonus":0.5,"perTrialBonusThreshold":0.05,"exampleCost":0.01},"classroomParams":{"A":{"a":1,"b":4},"B":{"a":4,"b":1},"C":{"a":2,"b":8},"D":{"a":8,"b":2}},"conditions":["nonSeqFull","nonSeqPartial","seqNoFeedback","seqFeedback"],"classroomPairings":[["A","B"],["C","D"]],"coinWeights":[0.2,0.5,0.8],"subjectId":"A2NJ7N8INZOB00","assignmentId":"3IOEN3P9S856ZRO8WNOZCYIB6WC61H","hitId":"3ZG552ORAMQWHINBPXRJ4QCSG7OV2V","url":"https://gershmanlab.com/experiments/alicia/teaching/experiment/?hitId=3ZG552ORAMQWHINBPXRJ4QCSG7OV2V&workerId=A2NJ7N8INZOB00&assignmentId=3IOEN3P9S856ZRO8WNOZCYIB6WC61H&a=9NOI7&tp_a=9NOI7&b=3IOEN3P9S856ZRO8WNOZCYIB6WC61H&tp_b=3IOEN3P9S856ZRO8WNOZCYIB6WC61H&c=365717&tp_c=365717","heads":8,"tails":0,"studentIndex":14,"studentTrueHypers":{"a":4,"b":1},"studentGuess":0.9230769230769231,"delta":0.12307692307692308,"totalExamples":8,"bonus":0,"bonusSoFar":1},{"rt":3428,"response":{"heads":"8","tails":"0"},"type":"response","condition":"seqFeedback","trueTheta":0.8,"classrooms":["A","B"],"studentTrueClassroom":"B","exampleSet":"first","trial_type":"survey-html-form","trial_index":130,"time_elapsed":1125944,"internal_node_id":"0.0-127.0-0.0","params":{"nStudents":24,"maxFlips":30,"completionMinutes":45,"basePay":8,"maxBonus":9,"perTrialBonus":0.5,"perTrialBonusThreshold":0.05,"exampleCost":0.01},"classroomParams":{"A":{"a":1,"b":4},"B":{"a":4,"b":1},"C":{"a":2,"b":8},"D":{"a":8,"b":2}},"conditions":["nonSeqFull","nonSeqPartial","seqNoFeedback","seqFeedback"],"classroomPairings":[["A","B"],["C","D"]],"coinWeights":[0.2,0.5,0.8],"subjectId":"A2NJ7N8INZOB00","assignmentId":"3IOEN3P9S856ZRO8WNOZCYIB6WC61H","hitId":"3ZG552ORAMQWHINBPXRJ4QCSG7OV2V","url":"https://gershmanlab.com/experiments/alicia/teaching/experiment/?hitId=3ZG552ORAMQWHINBPXRJ4QCSG7OV2V&workerId=A2NJ7N8INZOB00&assignmentId=3IOEN3P9S856ZRO8WNOZCYIB6WC61H&a=9NOI7&tp_a=9NOI7&b=3IOEN3P9S856ZRO8WNOZCYIB6WC61H&tp_b=3IOEN3P9S856ZRO8WNOZCYIB6WC61H&c=365717&tp_c=365717","heads":8,"tails":0,"studentIndex":15,"studentTrueHypers":{"a":4,"b":1},"studentGuess":0.9230769230769231,"delta":0.12307692307692308,"totalExamples":8,"bonusSoFar":1},{"rt":10849,"response":{"heads":"6","tails":"0"},"type":"response","condition":"seqFeedback","trueTheta":0.8,"classrooms":["A","B"],"studentTrueClassroom":"B","exampleSet":"second","trial_type":"survey-html-form","trial_index":134,"time_elapsed":1151210,"internal_node_id":"0.0-131.0-0.0","params":{"nStudents":24,"maxFlips":30,"completionMinutes":45,"basePay":8,"maxBonus":9,"perTrialBonus":0.5,"perTrialBonusThreshold":0.05,"exampleCost":0.01},"classroomParams":{"A":{"a":1,"b":4},"B":{"a":4,"b":1},"C":{"a":2,"b":8},"D":{"a":8,"b":2}},"conditions":["nonSeqFull","nonSeqPartial","seqNoFeedback","seqFeedback"],"classroomPairings":[["A","B"],["C","D"]],"coinWeights":[0.2,0.5,0.8],"subjectId":"A2NJ7N8INZOB00","assignmentId":"3IOEN3P9S856ZRO8WNOZCYIB6WC61H","hitId":"3ZG552ORAMQWHINBPXRJ4QCSG7OV2V","url":"https://gershmanlab.com/experiments/alicia/teaching/experiment/?hitId=3ZG552ORAMQWHINBPXRJ4QCSG7OV2V&workerId=A2NJ7N8INZOB00&assignmentId=3IOEN3P9S856ZRO8WNOZCYIB6WC61H&a=9NOI7&tp_a=9NOI7&b=3IOEN3P9S856ZRO8WNOZCYIB6WC61H&tp_b=3IOEN3P9S856ZRO8WNOZCYIB6WC61H&c=365717&tp_c=365717","firstResponseHeads":8,"firstResponseTails":0,"secondResponseHeads":6,"secondResponseTails":0,"totalHeads":14,"totalTails":0,"studentIndex":15,"studentTrueHypers":{"a":4,"b":1},"studentGuess":0.9473684210526315,"delta":0.14736842105263148,"bonus":0,"bonusSoFar":1,"totalExamples":14},{"rt":4727,"response":{"heads":"2","tails":"0"},"type":"response","condition":"nonSeqFull","trueTheta":0.2,"classrooms":["A","B"],"studentTrueClassroom":"A","exampleSet":"first","trial_type":"survey-html-form","trial_index":140,"time_elapsed":1170184,"internal_node_id":"0.0-137.0-0.0","params":{"nStudents":24,"maxFlips":30,"completionMinutes":45,"basePay":8,"maxBonus":9,"perTrialBonus":0.5,"perTrialBonusThreshold":0.05,"exampleCost":0.01},"classroomParams":{"A":{"a":1,"b":4},"B":{"a":4,"b":1},"C":{"a":2,"b":8},"D":{"a":8,"b":2}},"conditions":["nonSeqFull","nonSeqPartial","seqNoFeedback","seqFeedback"],"classroomPairings":[["A","B"],["C","D"]],"coinWeights":[0.2,0.5,0.8],"subjectId":"A2NJ7N8INZOB00","assignmentId":"3IOEN3P9S856ZRO8WNOZCYIB6WC61H","hitId":"3ZG552ORAMQWHINBPXRJ4QCSG7OV2V","url":"https://gershmanlab.com/experiments/alicia/teaching/experiment/?hitId=3ZG552ORAMQWHINBPXRJ4QCSG7OV2V&workerId=A2NJ7N8INZOB00&assignmentId=3IOEN3P9S856ZRO8WNOZCYIB6WC61H&a=9NOI7&tp_a=9NOI7&b=3IOEN3P9S856ZRO8WNOZCYIB6WC61H&tp_b=3IOEN3P9S856ZRO8WNOZCYIB6WC61H&c=365717&tp_c=365717","heads":2,"tails":0,"studentIndex":16,"studentTrueHypers":{"a":1,"b":4},"studentGuess":0.42857142857142855,"delta":0.22857142857142854,"totalExamples":2,"bonus":0,"bonusSoFar":1},{"rt":3902,"response":{"heads":"4","tails":"0"},"type":"response","condition":"nonSeqFull","trueTheta":0.8,"classrooms":["C","D"],"studentTrueClassroom":"D","exampleSet":"first","trial_type":"survey-html-form","trial_index":146,"time_elapsed":1189290,"internal_node_id":"0.0-143.0-0.0","params":{"nStudents":24,"maxFlips":30,"completionMinutes":45,"basePay":8,"maxBonus":9,"perTrialBonus":0.5,"perTrialBonusThreshold":0.05,"exampleCost":0.01},"classroomParams":{"A":{"a":1,"b":4},"B":{"a":4,"b":1},"C":{"a":2,"b":8},"D":{"a":8,"b":2}},"conditions":["nonSeqFull","nonSeqPartial","seqNoFeedback","seqFeedback"],"classroomPairings":[["A","B"],["C","D"]],"coinWeights":[0.2,0.5,0.8],"subjectId":"A2NJ7N8INZOB00","assignmentId":"3IOEN3P9S856ZRO8WNOZCYIB6WC61H","hitId":"3ZG552ORAMQWHINBPXRJ4QCSG7OV2V","url":"https://gershmanlab.com/experiments/alicia/teaching/experiment/?hitId=3ZG552ORAMQWHINBPXRJ4QCSG7OV2V&workerId=A2NJ7N8INZOB00&assignmentId=3IOEN3P9S856ZRO8WNOZCYIB6WC61H&a=9NOI7&tp_a=9NOI7&b=3IOEN3P9S856ZRO8WNOZCYIB6WC61H&tp_b=3IOEN3P9S856ZRO8WNOZCYIB6WC61H&c=365717&tp_c=365717","heads":4,"tails":0,"studentIndex":17,"studentTrueHypers":{"a":8,"b":2},"studentGuess":0.8571428571428571,"delta":0.05714285714285705,"totalExamples":4,"bonus":0,"bonusSoFar":1},{"rt":5778,"response":{"heads":"2","tails":"0"},"type":"response","condition":"seqNoFeedback","trueTheta":0.2,"classrooms":["C","D"],"studentTrueClassroom":"C","exampleSet":"first","trial_type":"survey-html-form","trial_index":152,"time_elapsed":1208368,"internal_node_id":"0.0-149.0-0.0","params":{"nStudents":24,"maxFlips":30,"completionMinutes":45,"basePay":8,"maxBonus":9,"perTrialBonus":0.5,"perTrialBonusThreshold":0.05,"exampleCost":0.01},"classroomParams":{"A":{"a":1,"b":4},"B":{"a":4,"b":1},"C":{"a":2,"b":8},"D":{"a":8,"b":2}},"conditions":["nonSeqFull","nonSeqPartial","seqNoFeedback","seqFeedback"],"classroomPairings":[["A","B"],["C","D"]],"coinWeights":[0.2,0.5,0.8],"subjectId":"A2NJ7N8INZOB00","assignmentId":"3IOEN3P9S856ZRO8WNOZCYIB6WC61H","hitId":"3ZG552ORAMQWHINBPXRJ4QCSG7OV2V","url":"https://gershmanlab.com/experiments/alicia/teaching/experiment/?hitId=3ZG552ORAMQWHINBPXRJ4QCSG7OV2V&workerId=A2NJ7N8INZOB00&assignmentId=3IOEN3P9S856ZRO8WNOZCYIB6WC61H&a=9NOI7&tp_a=9NOI7&b=3IOEN3P9S856ZRO8WNOZCYIB6WC61H&tp_b=3IOEN3P9S856ZRO8WNOZCYIB6WC61H&c=365717&tp_c=365717","heads":2,"tails":0,"studentIndex":18,"studentTrueHypers":{"a":2,"b":8},"studentGuess":0.3333333333333333,"delta":0.1333333333333333,"totalExamples":2,"bonusSoFar":1},{"rt":7579,"response":{"heads":"2","tails":"0"},"type":"response","condition":"seqNoFeedback","trueTheta":0.2,"classrooms":["C","D"],"studentTrueClassroom":"C","exampleSet":"second","trial_type":"survey-html-form","trial_index":155,"time_elapsed":1222216,"internal_node_id":"0.0-152.0-0.0","params":{"nStudents":24,"maxFlips":30,"completionMinutes":45,"basePay":8,"maxBonus":9,"perTrialBonus":0.5,"perTrialBonusThreshold":0.05,"exampleCost":0.01},"classroomParams":{"A":{"a":1,"b":4},"B":{"a":4,"b":1},"C":{"a":2,"b":8},"D":{"a":8,"b":2}},"conditions":["nonSeqFull","nonSeqPartial","seqNoFeedback","seqFeedback"],"classroomPairings":[["A","B"],["C","D"]],"coinWeights":[0.2,0.5,0.8],"subjectId":"A2NJ7N8INZOB00","assignmentId":"3IOEN3P9S856ZRO8WNOZCYIB6WC61H","hitId":"3ZG552ORAMQWHINBPXRJ4QCSG7OV2V","url":"https://gershmanlab.com/experiments/alicia/teaching/experiment/?hitId=3ZG552ORAMQWHINBPXRJ4QCSG7OV2V&workerId=A2NJ7N8INZOB00&assignmentId=3IOEN3P9S856ZRO8WNOZCYIB6WC61H&a=9NOI7&tp_a=9NOI7&b=3IOEN3P9S856ZRO8WNOZCYIB6WC61H&tp_b=3IOEN3P9S856ZRO8WNOZCYIB6WC61H&c=365717&tp_c=365717","firstResponseHeads":2,"firstResponseTails":0,"secondResponseHeads":2,"secondResponseTails":0,"totalHeads":4,"totalTails":0,"studentIndex":18,"studentTrueHypers":{"a":2,"b":8},"studentGuess":0.42857142857142855,"delta":0.22857142857142854,"bonus":0,"bonusSoFar":1,"totalExamples":4},{"rt":8242,"response":{"heads":"0","tails":"8"},"type":"response","condition":"nonSeqPartial","trueTheta":0.2,"classrooms":["C","D"],"studentTrueClassroom":"C","exampleSet":"first","trial_type":"survey-html-form","trial_index":161,"time_elapsed":1246555,"internal_node_id":"0.0-158.0-0.0","params":{"nStudents":24,"maxFlips":30,"completionMinutes":45,"basePay":8,"maxBonus":9,"perTrialBonus":0.5,"perTrialBonusThreshold":0.05,"exampleCost":0.01},"classroomParams":{"A":{"a":1,"b":4},"B":{"a":4,"b":1},"C":{"a":2,"b":8},"D":{"a":8,"b":2}},"conditions":["nonSeqFull","nonSeqPartial","seqNoFeedback","seqFeedback"],"classroomPairings":[["A","B"],["C","D"]],"coinWeights":[0.2,0.5,0.8],"subjectId":"A2NJ7N8INZOB00","assignmentId":"3IOEN3P9S856ZRO8WNOZCYIB6WC61H","hitId":"3ZG552ORAMQWHINBPXRJ4QCSG7OV2V","url":"https://gershmanlab.com/experiments/alicia/teaching/experiment/?hitId=3ZG552ORAMQWHINBPXRJ4QCSG7OV2V&workerId=A2NJ7N8INZOB00&assignmentId=3IOEN3P9S856ZRO8WNOZCYIB6WC61H&a=9NOI7&tp_a=9NOI7&b=3IOEN3P9S856ZRO8WNOZCYIB6WC61H&tp_b=3IOEN3P9S856ZRO8WNOZCYIB6WC61H&c=365717&tp_c=365717","heads":0,"tails":8,"studentIndex":19,"studentTrueHypers":{"a":2,"b":8},"studentGuess":0.1111111111111111,"delta":0.0888888888888889,"totalExamples":8,"bonus":0,"bonusSoFar":1},{"rt":4375,"response":{"heads":"2","tails":"0"},"type":"response","condition":"nonSeqFull","trueTheta":0.2,"classrooms":["C","D"],"studentTrueClassroom":"C","exampleSet":"first","trial_type":"survey-html-form","trial_index":167,"time_elapsed":1264868,"internal_node_id":"0.0-164.0-0.0","params":{"nStudents":24,"maxFlips":30,"completionMinutes":45,"basePay":8,"maxBonus":9,"perTrialBonus":0.5,"perTrialBonusThreshold":0.05,"exampleCost":0.01},"classroomParams":{"A":{"a":1,"b":4},"B":{"a":4,"b":1},"C":{"a":2,"b":8},"D":{"a":8,"b":2}},"conditions":["nonSeqFull","nonSeqPartial","seqNoFeedback","seqFeedback"],"classroomPairings":[["A","B"],["C","D"]],"coinWeights":[0.2,0.5,0.8],"subjectId":"A2NJ7N8INZOB00","assignmentId":"3IOEN3P9S856ZRO8WNOZCYIB6WC61H","hitId":"3ZG552ORAMQWHINBPXRJ4QCSG7OV2V","url":"https://gershmanlab.com/experiments/alicia/teaching/experiment/?hitId=3ZG552ORAMQWHINBPXRJ4QCSG7OV2V&workerId=A2NJ7N8INZOB00&assignmentId=3IOEN3P9S856ZRO8WNOZCYIB6WC61H&a=9NOI7&tp_a=9NOI7&b=3IOEN3P9S856ZRO8WNOZCYIB6WC61H&tp_b=3IOEN3P9S856ZRO8WNOZCYIB6WC61H&c=365717&tp_c=365717","heads":2,"tails":0,"studentIndex":20,"studentTrueHypers":{"a":2,"b":8},"studentGuess":0.3333333333333333,"delta":0.1333333333333333,"totalExamples":2,"bonus":0,"bonusSoFar":1},{"rt":7665,"response":{"heads":"1","tails":"1"},"type":"response","condition":"seqFeedback","trueTheta":0.5,"classrooms":["C","D"],"studentTrueClassroom":"D","exampleSet":"first","trial_type":"survey-html-form","trial_index":173,"time_elapsed":1286846,"internal_node_id":"0.0-170.0-0.0","params":{"nStudents":24,"maxFlips":30,"completionMinutes":45,"basePay":8,"maxBonus":9,"perTrialBonus":0.5,"perTrialBonusThreshold":0.05,"exampleCost":0.01},"classroomParams":{"A":{"a":1,"b":4},"B":{"a":4,"b":1},"C":{"a":2,"b":8},"D":{"a":8,"b":2}},"conditions":["nonSeqFull","nonSeqPartial","seqNoFeedback","seqFeedback"],"classroomPairings":[["A","B"],["C","D"]],"coinWeights":[0.2,0.5,0.8],"subjectId":"A2NJ7N8INZOB00","assignmentId":"3IOEN3P9S856ZRO8WNOZCYIB6WC61H","hitId":"3ZG552ORAMQWHINBPXRJ4QCSG7OV2V","url":"https://gershmanlab.com/experiments/alicia/teaching/experiment/?hitId=3ZG552ORAMQWHINBPXRJ4QCSG7OV2V&workerId=A2NJ7N8INZOB00&assignmentId=3IOEN3P9S856ZRO8WNOZCYIB6WC61H&a=9NOI7&tp_a=9NOI7&b=3IOEN3P9S856ZRO8WNOZCYIB6WC61H&tp_b=3IOEN3P9S856ZRO8WNOZCYIB6WC61H&c=365717&tp_c=365717","heads":1,"tails":1,"studentIndex":21,"studentTrueHypers":{"a":8,"b":2},"studentGuess":0.75,"delta":0.25,"totalExamples":2,"bonusSoFar":1},{"rt":6405,"response":{"heads":"2","tails":"2"},"type":"response","condition":"seqFeedback","trueTheta":0.5,"classrooms":["C","D"],"studentTrueClassroom":"D","exampleSet":"second","trial_type":"survey-html-form","trial_index":177,"time_elapsed":1302225,"internal_node_id":"0.0-174.0-0.0","params":{"nStudents":24,"maxFlips":30,"completionMinutes":45,"basePay":8,"maxBonus":9,"perTrialBonus":0.5,"perTrialBonusThreshold":0.05,"exampleCost":0.01},"classroomParams":{"A":{"a":1,"b":4},"B":{"a":4,"b":1},"C":{"a":2,"b":8},"D":{"a":8,"b":2}},"conditions":["nonSeqFull","nonSeqPartial","seqNoFeedback","seqFeedback"],"classroomPairings":[["A","B"],["C","D"]],"coinWeights":[0.2,0.5,0.8],"subjectId":"A2NJ7N8INZOB00","assignmentId":"3IOEN3P9S856ZRO8WNOZCYIB6WC61H","hitId":"3ZG552ORAMQWHINBPXRJ4QCSG7OV2V","url":"https://gershmanlab.com/experiments/alicia/teaching/experiment/?hitId=3ZG552ORAMQWHINBPXRJ4QCSG7OV2V&workerId=A2NJ7N8INZOB00&assignmentId=3IOEN3P9S856ZRO8WNOZCYIB6WC61H&a=9NOI7&tp_a=9NOI7&b=3IOEN3P9S856ZRO8WNOZCYIB6WC61H&tp_b=3IOEN3P9S856ZRO8WNOZCYIB6WC61H&c=365717&tp_c=365717","firstResponseHeads":1,"firstResponseTails":1,"secondResponseHeads":2,"secondResponseTails":2,"totalHeads":3,"totalTails":3,"studentIndex":21,"studentTrueHypers":{"a":8,"b":2},"studentGuess":0.6875,"delta":0.1875,"bonus":0,"bonusSoFar":1,"totalExamples":6},{"rt":5887,"response":{"heads":"08","tails":"0"},"type":"response","condition":"nonSeqPartial","trueTheta":0.8,"classrooms":["A","B"],"studentTrueClassroom":"B","exampleSet":"first","trial_type":"survey-html-form","trial_index":183,"time_elapsed":1321274,"internal_node_id":"0.0-180.0-0.0","params":{"nStudents":24,"maxFlips":30,"completionMinutes":45,"basePay":8,"maxBonus":9,"perTrialBonus":0.5,"perTrialBonusThreshold":0.05,"exampleCost":0.01},"classroomParams":{"A":{"a":1,"b":4},"B":{"a":4,"b":1},"C":{"a":2,"b":8},"D":{"a":8,"b":2}},"conditions":["nonSeqFull","nonSeqPartial","seqNoFeedback","seqFeedback"],"classroomPairings":[["A","B"],["C","D"]],"coinWeights":[0.2,0.5,0.8],"subjectId":"A2NJ7N8INZOB00","assignmentId":"3IOEN3P9S856ZRO8WNOZCYIB6WC61H","hitId":"3ZG552ORAMQWHINBPXRJ4QCSG7OV2V","url":"https://gershmanlab.com/experiments/alicia/teaching/experiment/?hitId=3ZG552ORAMQWHINBPXRJ4QCSG7OV2V&workerId=A2NJ7N8INZOB00&assignmentId=3IOEN3P9S856ZRO8WNOZCYIB6WC61H&a=9NOI7&tp_a=9NOI7&b=3IOEN3P9S856ZRO8WNOZCYIB6WC61H&tp_b=3IOEN3P9S856ZRO8WNOZCYIB6WC61H&c=365717&tp_c=365717","heads":8,"tails":0,"studentIndex":22,"studentTrueHypers":{"a":4,"b":1},"studentGuess":0.9230769230769231,"delta":0.12307692307692308,"totalExamples":8,"bonus":0,"bonusSoFar":1},{"rt":6103,"response":{"heads":"0","tails":"8"},"type":"response","condition":"nonSeqPartial","trueTheta":0.2,"classrooms":["A","B"],"studentTrueClassroom":"B","exampleSet":"first","trial_type":"survey-html-form","trial_index":189,"time_elapsed":1339846,"internal_node_id":"0.0-186.0-0.0","params":{"nStudents":24,"maxFlips":30,"completionMinutes":45,"basePay":8,"maxBonus":9,"perTrialBonus":0.5,"perTrialBonusThreshold":0.05,"exampleCost":0.01},"classroomParams":{"A":{"a":1,"b":4},"B":{"a":4,"b":1},"C":{"a":2,"b":8},"D":{"a":8,"b":2}},"conditions":["nonSeqFull","nonSeqPartial","seqNoFeedback","seqFeedback"],"classroomPairings":[["A","B"],["C","D"]],"coinWeights":[0.2,0.5,0.8],"subjectId":"A2NJ7N8INZOB00","assignmentId":"3IOEN3P9S856ZRO8WNOZCYIB6WC61H","hitId":"3ZG552ORAMQWHINBPXRJ4QCSG7OV2V","url":"https://gershmanlab.com/experiments/alicia/teaching/experiment/?hitId=3ZG552ORAMQWHINBPXRJ4QCSG7OV2V&workerId=A2NJ7N8INZOB00&assignmentId=3IOEN3P9S856ZRO8WNOZCYIB6WC61H&a=9NOI7&tp_a=9NOI7&b=3IOEN3P9S856ZRO8WNOZCYIB6WC61H&tp_b=3IOEN3P9S856ZRO8WNOZCYIB6WC61H&c=365717&tp_c=365717","heads":0,"tails":8,"studentIndex":23,"studentTrueHypers":{"a":4,"b":1},"studentGuess":0.3076923076923077,"delta":0.1076923076923077,"totalExamples":8,"bonus":0,"bonusSoFar":1},{"rt":33108,"response":{"gender":"female","age":"35","understood":"yes","comments":""},"type":"response","trial_type":"survey-html-form","trial_index":193,"time_elapsed":1381780,"internal_node_id":"0.0-191.0","params":{"nStudents":24,"maxFlips":30,"completionMinutes":45,"basePay":8,"maxBonus":9,"perTrialBonus":0.5,"perTrialBonusThreshold":0.05,"exampleCost":0.01},"classroomParams":{"A":{"a":1,"b":4},"B":{"a":4,"b":1},"C":{"a":2,"b":8},"D":{"a":8,"b":2}},"conditions":["nonSeqFull","nonSeqPartial","seqNoFeedback","seqFeedback"],"classroomPairings":[["A","B"],["C","D"]],"coinWeights":[0.2,0.5,0.8],"subjectId":"A2NJ7N8INZOB00","assignmentId":"3IOEN3P9S856ZRO8WNOZCYIB6WC61H","hitId":"3ZG552ORAMQWHINBPXRJ4QCSG7OV2V","url":"https://gershmanlab.com/experiments/alicia/teaching/experiment/?hitId=3ZG552ORAMQWHINBPXRJ4QCSG7OV2V&workerId=A2NJ7N8INZOB00&assignmentId=3IOEN3P9S856ZRO8WNOZCYIB6WC61H&a=9NOI7&tp_a=9NOI7&b=3IOEN3P9S856ZRO8WNOZCYIB6WC61H&tp_b=3IOEN3P9S856ZRO8WNOZCYIB6WC61H&c=365717&tp_c=365717","totalBonus":1}]