[{"rt":22744,"response":{"heads":"3","tails":"3"},"type":"response","condition":"seqNoFeedback","trueTheta":0.5,"classrooms":["C","D"],"studentTrueClassroom":"D","exampleSet":"first","trial_type":"survey-html-form","trial_index":7,"time_elapsed":318575,"internal_node_id":"0.0-6.0-0.0","params":{"nStudents":24,"maxFlips":30,"completionMinutes":45,"basePay":8,"maxBonus":9,"perTrialBonus":0.5,"perTrialBonusThreshold":0.05,"exampleCost":0.01},"classroomParams":{"A":{"a":1,"b":4},"B":{"a":4,"b":1},"C":{"a":2,"b":8},"D":{"a":8,"b":2}},"conditions":["nonSeqFull","nonSeqPartial","seqNoFeedback","seqFeedback"],"classroomPairings":[["A","B"],["C","D"]],"coinWeights":[0.2,0.5,0.8],"subjectId":"A2NXMRPHG86N2T","assignmentId":"3WI0P0II62ETD52444BSOVAGRGTDRC","hitId":"3FJ2RVH25ZSYKBA8MWMNC8NVPF629N","url":"https://gershmanlab.com/experiments/alicia/teaching/experiment/?hitId=3FJ2RVH25ZSYKBA8MWMNC8NVPF629N&workerId=A2NXMRPHG86N2T&assignmentId=3WI0P0II62ETD52444BSOVAGRGTDRC&a=IPIW7&tp_a=IPIW7&b=3WI0P0II62ETD52444BSOVAGRGTDRC&tp_b=3WI0P0II62ETD52444BSOVAGRGTDRC&c=365717&tp_c=365717","heads":3,"tails":3,"studentIndex":0,"studentTrueHypers":{"a":8,"b":2},"studentGuess":0.6875,"delta":0.1875,"totalExamples":6,"bonusSoFar":0},{"rt":12441,"response":{"heads":"2","tails":"2"},"type":"response","condition":"seqNoFeedback","trueTheta":0.5,"classrooms":["C","D"],"studentTrueClassroom":"D","exampleSet":"second","trial_type":"survey-html-form","trial_index":10,"time_elapsed":337302,"internal_node_id":"0.0-9.0-0.0","params":{"nStudents":24,"maxFlips":30,"completionMinutes":45,"basePay":8,"maxBonus":9,"perTrialBonus":0.5,"perTrialBonusThreshold":0.05,"exampleCost":0.01},"classroomParams":{"A":{"a":1,"b":4},"B":{"a":4,"b":1},"C":{"a":2,"b":8},"D":{"a":8,"b":2}},"conditions":["nonSeqFull","nonSeqPartial","seqNoFeedback","seqFeedback"],"classroomPairings":[["A","B"],["C","D"]],"coinWeights":[0.2,0.5,0.8],"subjectId":"A2NXMRPHG86N2T","assignmentId":"3WI0P0II62ETD52444BSOVAGRGTDRC","hitId":"3FJ2RVH25ZSYKBA8MWMNC8NVPF629N","url":"https://gershmanlab.com/experiments/alicia/teaching/experiment/?hitId=3FJ2RVH25ZSYKBA8MWMNC8NVPF629N&workerId=A2NXMRPHG86N2T&assignmentId=3WI0P0II62ETD52444BSOVAGRGTDRC&a=IPIW7&tp_a=IPIW7&b=3WI0P0II62ETD52444BSOVAGRGTDRC&tp_b=3WI0P0II62ETD52444BSOVAGRGTDRC&c=365717&tp_c=365717","firstResponseHeads":3,"firstResponseTails":3,"secondResponseHeads":2,"secondResponseTails":2,"totalHeads":5,"totalTails":5,"studentIndex":0,"studentTrueHypers":{"a":8,"b":2},"studentGuess":0.65,"delta":0.15000000000000002,"bonus":0,"bonusSoFar":0,"totalExamples":10},{"rt":7903,"response":{"heads":"8","tails":"2"},"type":"response","condition":"nonSeqFull","trueTheta":0.8,"classrooms":["C","D"],"studentTrueClassroom":"D","exampleSet":"first","trial_type":"survey-html-form","trial_index":16,"time_elapsed":374151,"internal_node_id":"0.0-15.0-0.0","params":{"nStudents":24,"maxFlips":30,"completionMinutes":45,"basePay":8,"maxBonus":9,"perTrialBonus":0.5,"perTrialBonusThreshold":0.05,"exampleCost":0.01},"classroomParams":{"A":{"a":1,"b":4},"B":{"a":4,"b":1},"C":{"a":2,"b":8},"D":{"a":8,"b":2}},"conditions":["nonSeqFull","nonSeqPartial","seqNoFeedback","seqFeedback"],"classroomPairings":[["A","B"],["C","D"]],"coinWeights":[0.2,0.5,0.8],"subjectId":"A2NXMRPHG86N2T","assignmentId":"3WI0P0II62ETD52444BSOVAGRGTDRC","hitId":"3FJ2RVH25ZSYKBA8MWMNC8NVPF629N","url":"https://gershmanlab.com/experiments/alicia/teaching/experiment/?hitId=3FJ2RVH25ZSYKBA8MWMNC8NVPF629N&workerId=A2NXMRPHG86N2T&assignmentId=3WI0P0II62ETD52444BSOVAGRGTDRC&a=IPIW7&tp_a=IPIW7&b=3WI0P0II62ETD52444BSOVAGRGTDRC&tp_b=3WI0P0II62ETD52444BSOVAGRGTDRC&c=365717&tp_c=365717","heads":8,"tails":2,"studentIndex":1,"studentTrueHypers":{"a":8,"b":2},"studentGuess":0.8,"delta":0,"totalExamples":10,"bonus":0.4,"bonusSoFar":0.4},{"rt":15822,"response":{"heads":"8","tails":"2"},"type":"response","condition":"nonSeqFull","trueTheta":0.8,"classrooms":["A","B"],"studentTrueClassroom":"B","exampleSet":"first","trial_type":"survey-html-form","trial_index":22,"time_elapsed":412033,"internal_node_id":"0.0-21.0-0.0","params":{"nStudents":24,"maxFlips":30,"completionMinutes":45,"basePay":8,"maxBonus":9,"perTrialBonus":0.5,"perTrialBonusThreshold":0.05,"exampleCost":0.01},"classroomParams":{"A":{"a":1,"b":4},"B":{"a":4,"b":1},"C":{"a":2,"b":8},"D":{"a":8,"b":2}},"conditions":["nonSeqFull","nonSeqPartial","seqNoFeedback","seqFeedback"],"classroomPairings":[["A","B"],["C","D"]],"coinWeights":[0.2,0.5,0.8],"subjectId":"A2NXMRPHG86N2T","assignmentId":"3WI0P0II62ETD52444BSOVAGRGTDRC","hitId":"3FJ2RVH25ZSYKBA8MWMNC8NVPF629N","url":"https://gershmanlab.com/experiments/alicia/teaching/experiment/?hitId=3FJ2RVH25ZSYKBA8MWMNC8NVPF629N&workerId=A2NXMRPHG86N2T&assignmentId=3WI0P0II62ETD52444BSOVAGRGTDRC&a=IPIW7&tp_a=IPIW7&b=3WI0P0II62ETD52444BSOVAGRGTDRC&tp_b=3WI0P0II62ETD52444BSOVAGRGTDRC&c=365717&tp_c=365717","heads":8,"tails":2,"studentIndex":2,"studentTrueHypers":{"a":4,"b":1},"studentGuess":0.8,"delta":0,"totalExamples":10,"bonus":0.4,"bonusSoFar":0.8},{"rt":7647,"response":{"heads":"2","tails":"8"},"type":"response","condition":"seqNoFeedback","trueTheta":0.2,"classrooms":["A","B"],"studentTrueClassroom":"B","exampleSet":"first","trial_type":"survey-html-form","trial_index":28,"time_elapsed":441784,"internal_node_id":"0.0-27.0-0.0","params":{"nStudents":24,"maxFlips":30,"completionMinutes":45,"basePay":8,"maxBonus":9,"perTrialBonus":0.5,"perTrialBonusThreshold":0.05,"exampleCost":0.01},"classroomParams":{"A":{"a":1,"b":4},"B":{"a":4,"b":1},"C":{"a":2,"b":8},"D":{"a":8,"b":2}},"conditions":["nonSeqFull","nonSeqPartial","seqNoFeedback","seqFeedback"],"classroomPairings":[["A","B"],["C","D"]],"coinWeights":[0.2,0.5,0.8],"subjectId":"A2NXMRPHG86N2T","assignmentId":"3WI0P0II62ETD52444BSOVAGRGTDRC","hitId":"3FJ2RVH25ZSYKBA8MWMNC8NVPF629N","url":"https://gershmanlab.com/experiments/alicia/teaching/experiment/?hitId=3FJ2RVH25ZSYKBA8MWMNC8NVPF629N&workerId=A2NXMRPHG86N2T&assignmentId=3WI0P0II62ETD52444BSOVAGRGTDRC&a=IPIW7&tp_a=IPIW7&b=3WI0P0II62ETD52444BSOVAGRGTDRC&tp_b=3WI0P0II62ETD52444BSOVAGRGTDRC&c=365717&tp_c=365717","heads":2,"tails":8,"studentIndex":3,"studentTrueHypers":{"a":4,"b":1},"studentGuess":0.4,"delta":0.2,"totalExamples":10,"bonusSoFar":0.8},{"rt":9517,"response":{"heads":"2","tails":"8"},"type":"response","condition":"seqNoFeedback","trueTheta":0.2,"classrooms":["A","B"],"studentTrueClassroom":"B","exampleSet":"second","trial_type":"survey-html-form","trial_index":31,"time_elapsed":459073,"internal_node_id":"0.0-30.0-0.0","params":{"nStudents":24,"maxFlips":30,"completionMinutes":45,"basePay":8,"maxBonus":9,"perTrialBonus":0.5,"perTrialBonusThreshold":0.05,"exampleCost":0.01},"classroomParams":{"A":{"a":1,"b":4},"B":{"a":4,"b":1},"C":{"a":2,"b":8},"D":{"a":8,"b":2}},"conditions":["nonSeqFull","nonSeqPartial","seqNoFeedback","seqFeedback"],"classroomPairings":[["A","B"],["C","D"]],"coinWeights":[0.2,0.5,0.8],"subjectId":"A2NXMRPHG86N2T","assignmentId":"3WI0P0II62ETD52444BSOVAGRGTDRC","hitId":"3FJ2RVH25ZSYKBA8MWMNC8NVPF629N","url":"https://gershmanlab.com/experiments/alicia/teaching/experiment/?hitId=3FJ2RVH25ZSYKBA8MWMNC8NVPF629N&workerId=A2NXMRPHG86N2T&assignmentId=3WI0P0II62ETD52444BSOVAGRGTDRC&a=IPIW7&tp_a=IPIW7&b=3WI0P0II62ETD52444BSOVAGRGTDRC&tp_b=3WI0P0II62ETD52444BSOVAGRGTDRC&c=365717&tp_c=365717","firstResponseHeads":2,"firstResponseTails":8,"secondResponseHeads":2,"secondResponseTails":8,"totalHeads":4,"totalTails":16,"studentIndex":3,"studentTrueHypers":{"a":4,"b":1},"studentGuess":0.32,"delta":0.12,"bonus":0,"bonusSoFar":0.8,"totalExamples":20},{"rt":16336,"response":{"heads":"2","tails":"8"},"type":"response","condition":"seqFeedback","trueTheta":0.2,"classrooms":["A","B"],"studentTrueClassroom":"A","exampleSet":"first","trial_type":"survey-html-form","trial_index":37,"time_elapsed":498290,"internal_node_id":"0.0-36.0-0.0","params":{"nStudents":24,"maxFlips":30,"completionMinutes":45,"basePay":8,"maxBonus":9,"perTrialBonus":0.5,"perTrialBonusThreshold":0.05,"exampleCost":0.01},"classroomParams":{"A":{"a":1,"b":4},"B":{"a":4,"b":1},"C":{"a":2,"b":8},"D":{"a":8,"b":2}},"conditions":["nonSeqFull","nonSeqPartial","seqNoFeedback","seqFeedback"],"classroomPairings":[["A","B"],["C","D"]],"coinWeights":[0.2,0.5,0.8],"subjectId":"A2NXMRPHG86N2T","assignmentId":"3WI0P0II62ETD52444BSOVAGRGTDRC","hitId":"3FJ2RVH25ZSYKBA8MWMNC8NVPF629N","url":"https://gershmanlab.com/experiments/alicia/teaching/experiment/?hitId=3FJ2RVH25ZSYKBA8MWMNC8NVPF629N&workerId=A2NXMRPHG86N2T&assignmentId=3WI0P0II62ETD52444BSOVAGRGTDRC&a=IPIW7&tp_a=IPIW7&b=3WI0P0II62ETD52444BSOVAGRGTDRC&tp_b=3WI0P0II62ETD52444BSOVAGRGTDRC&c=365717&tp_c=365717","heads":2,"tails":8,"studentIndex":4,"studentTrueHypers":{"a":1,"b":4},"studentGuess":0.2,"delta":0,"totalExamples":10,"bonusSoFar":0.8},{"rt":5791,"response":{"heads":"2","tails":"8"},"type":"response","condition":"seqFeedback","trueTheta":0.2,"classrooms":["A","B"],"studentTrueClassroom":"A","exampleSet":"second","trial_type":"survey-html-form","trial_index":41,"time_elapsed":517531,"internal_node_id":"0.0-40.0-0.0","params":{"nStudents":24,"maxFlips":30,"completionMinutes":45,"basePay":8,"maxBonus":9,"perTrialBonus":0.5,"perTrialBonusThreshold":0.05,"exampleCost":0.01},"classroomParams":{"A":{"a":1,"b":4},"B":{"a":4,"b":1},"C":{"a":2,"b":8},"D":{"a":8,"b":2}},"conditions":["nonSeqFull","nonSeqPartial","seqNoFeedback","seqFeedback"],"classroomPairings":[["A","B"],["C","D"]],"coinWeights":[0.2,0.5,0.8],"subjectId":"A2NXMRPHG86N2T","assignmentId":"3WI0P0II62ETD52444BSOVAGRGTDRC","hitId":"3FJ2RVH25ZSYKBA8MWMNC8NVPF629N","url":"https://gershmanlab.com/experiments/alicia/teaching/experiment/?hitId=3FJ2RVH25ZSYKBA8MWMNC8NVPF629N&workerId=A2NXMRPHG86N2T&assignmentId=3WI0P0II62ETD52444BSOVAGRGTDRC&a=IPIW7&tp_a=IPIW7&b=3WI0P0II62ETD52444BSOVAGRGTDRC&tp_b=3WI0P0II62ETD52444BSOVAGRGTDRC&c=365717&tp_c=365717","firstResponseHeads":2,"firstResponseTails":8,"secondResponseHeads":2,"secondResponseTails":8,"totalHeads":4,"totalTails":16,"studentIndex":4,"studentTrueHypers":{"a":1,"b":4},"studentGuess":0.2,"delta":0,"bonus":0.3,"bonusSoFar":1.1,"totalExamples":20},{"rt":7551,"response":{"heads":"5","tails":"5"},"type":"response","condition":"nonSeqFull","trueTheta":0.5,"classrooms":["C","D"],"studentTrueClassroom":"C","exampleSet":"first","trial_type":"survey-html-form","trial_index":47,"time_elapsed":542523,"internal_node_id":"0.0-46.0-0.0","params":{"nStudents":24,"maxFlips":30,"completionMinutes":45,"basePay":8,"maxBonus":9,"perTrialBonus":0.5,"perTrialBonusThreshold":0.05,"exampleCost":0.01},"classroomParams":{"A":{"a":1,"b":4},"B":{"a":4,"b":1},"C":{"a":2,"b":8},"D":{"a":8,"b":2}},"conditions":["nonSeqFull","nonSeqPartial","seqNoFeedback","seqFeedback"],"classroomPairings":[["A","B"],["C","D"]],"coinWeights":[0.2,0.5,0.8],"subjectId":"A2NXMRPHG86N2T","assignmentId":"3WI0P0II62ETD52444BSOVAGRGTDRC","hitId":"3FJ2RVH25ZSYKBA8MWMNC8NVPF629N","url":"https://gershmanlab.com/experiments/alicia/teaching/experiment/?hitId=3FJ2RVH25ZSYKBA8MWMNC8NVPF629N&workerId=A2NXMRPHG86N2T&assignmentId=3WI0P0II62ETD52444BSOVAGRGTDRC&a=IPIW7&tp_a=IPIW7&b=3WI0P0II62ETD52444BSOVAGRGTDRC&tp_b=3WI0P0II62ETD52444BSOVAGRGTDRC&c=365717&tp_c=365717","heads":5,"tails":5,"studentIndex":5,"studentTrueHypers":{"a":2,"b":8},"studentGuess":0.35,"delta":0.15000000000000002,"totalExamples":10,"bonus":0,"bonusSoFar":1.1},{"rt":7832,"response":{"heads":"3","tails":"3"},"type":"response","condition":"seqFeedback","trueTheta":0.5,"classrooms":["A","B"],"studentTrueClassroom":"A","exampleSet":"first","trial_type":"survey-html-form","trial_index":53,"time_elapsed":566957,"internal_node_id":"0.0-52.0-0.0","params":{"nStudents":24,"maxFlips":30,"completionMinutes":45,"basePay":8,"maxBonus":9,"perTrialBonus":0.5,"perTrialBonusThreshold":0.05,"exampleCost":0.01},"classroomParams":{"A":{"a":1,"b":4},"B":{"a":4,"b":1},"C":{"a":2,"b":8},"D":{"a":8,"b":2}},"conditions":["nonSeqFull","nonSeqPartial","seqNoFeedback","seqFeedback"],"classroomPairings":[["A","B"],["C","D"]],"coinWeights":[0.2,0.5,0.8],"subjectId":"A2NXMRPHG86N2T","assignmentId":"3WI0P0II62ETD52444BSOVAGRGTDRC","hitId":"3FJ2RVH25ZSYKBA8MWMNC8NVPF629N","url":"https://gershmanlab.com/experiments/alicia/teaching/experiment/?hitId=3FJ2RVH25ZSYKBA8MWMNC8NVPF629N&workerId=A2NXMRPHG86N2T&assignmentId=3WI0P0II62ETD52444BSOVAGRGTDRC&a=IPIW7&tp_a=IPIW7&b=3WI0P0II62ETD52444BSOVAGRGTDRC&tp_b=3WI0P0II62ETD52444BSOVAGRGTDRC&c=365717&tp_c=365717","heads":3,"tails":3,"studentIndex":6,"studentTrueHypers":{"a":1,"b":4},"studentGuess":0.36363636363636365,"delta":0.13636363636363635,"totalExamples":6,"bonusSoFar":1.1},{"rt":13679,"response":{"heads":"3","tails":"3"},"type":"response","condition":"seqFeedback","trueTheta":0.5,"classrooms":["A","B"],"studentTrueClassroom":"A","exampleSet":"second","trial_type":"survey-html-form","trial_index":57,"time_elapsed":593158,"internal_node_id":"0.0-56.0-0.0","params":{"nStudents":24,"maxFlips":30,"completionMinutes":45,"basePay":8,"maxBonus":9,"perTrialBonus":0.5,"perTrialBonusThreshold":0.05,"exampleCost":0.01},"classroomParams":{"A":{"a":1,"b":4},"B":{"a":4,"b":1},"C":{"a":2,"b":8},"D":{"a":8,"b":2}},"conditions":["nonSeqFull","nonSeqPartial","seqNoFeedback","seqFeedback"],"classroomPairings":[["A","B"],["C","D"]],"coinWeights":[0.2,0.5,0.8],"subjectId":"A2NXMRPHG86N2T","assignmentId":"3WI0P0II62ETD52444BSOVAGRGTDRC","hitId":"3FJ2RVH25ZSYKBA8MWMNC8NVPF629N","url":"https://gershmanlab.com/experiments/alicia/teaching/experiment/?hitId=3FJ2RVH25ZSYKBA8MWMNC8NVPF629N&workerId=A2NXMRPHG86N2T&assignmentId=3WI0P0II62ETD52444BSOVAGRGTDRC&a=IPIW7&tp_a=IPIW7&b=3WI0P0II62ETD52444BSOVAGRGTDRC&tp_b=3WI0P0II62ETD52444BSOVAGRGTDRC&c=365717&tp_c=365717","firstResponseHeads":3,"firstResponseTails":3,"secondResponseHeads":3,"secondResponseTails":3,"totalHeads":6,"totalTails":6,"studentIndex":6,"studentTrueHypers":{"a":1,"b":4},"studentGuess":0.4117647058823529,"delta":0.08823529411764708,"bonus":0,"bonusSoFar":1.1,"totalExamples":12},{"rt":5935,"response":{"heads":"8","tails":"2"},"type":"response","condition":"seqNoFeedback","trueTheta":0.8,"classrooms":["C","D"],"studentTrueClassroom":"C","exampleSet":"first","trial_type":"survey-html-form","trial_index":63,"time_elapsed":615190,"internal_node_id":"0.0-62.0-0.0","params":{"nStudents":24,"maxFlips":30,"completionMinutes":45,"basePay":8,"maxBonus":9,"perTrialBonus":0.5,"perTrialBonusThreshold":0.05,"exampleCost":0.01},"classroomParams":{"A":{"a":1,"b":4},"B":{"a":4,"b":1},"C":{"a":2,"b":8},"D":{"a":8,"b":2}},"conditions":["nonSeqFull","nonSeqPartial","seqNoFeedback","seqFeedback"],"classroomPairings":[["A","B"],["C","D"]],"coinWeights":[0.2,0.5,0.8],"subjectId":"A2NXMRPHG86N2T","assignmentId":"3WI0P0II62ETD52444BSOVAGRGTDRC","hitId":"3FJ2RVH25ZSYKBA8MWMNC8NVPF629N","url":"https://gershmanlab.com/experiments/alicia/teaching/experiment/?hitId=3FJ2RVH25ZSYKBA8MWMNC8NVPF629N&workerId=A2NXMRPHG86N2T&assignmentId=3WI0P0II62ETD52444BSOVAGRGTDRC&a=IPIW7&tp_a=IPIW7&b=3WI0P0II62ETD52444BSOVAGRGTDRC&tp_b=3WI0P0II62ETD52444BSOVAGRGTDRC&c=365717&tp_c=365717","heads":8,"tails":2,"studentIndex":7,"studentTrueHypers":{"a":2,"b":8},"studentGuess":0.5,"delta":0.30000000000000004,"totalExamples":10,"bonusSoFar":1.1},{"rt":10777,"response":{"heads":"8","tails":"2"},"type":"response","condition":"seqNoFeedback","trueTheta":0.8,"classrooms":["C","D"],"studentTrueClassroom":"C","exampleSet":"second","trial_type":"survey-html-form","trial_index":66,"time_elapsed":632735,"internal_node_id":"0.0-65.0-0.0","params":{"nStudents":24,"maxFlips":30,"completionMinutes":45,"basePay":8,"maxBonus":9,"perTrialBonus":0.5,"perTrialBonusThreshold":0.05,"exampleCost":0.01},"classroomParams":{"A":{"a":1,"b":4},"B":{"a":4,"b":1},"C":{"a":2,"b":8},"D":{"a":8,"b":2}},"conditions":["nonSeqFull","nonSeqPartial","seqNoFeedback","seqFeedback"],"classroomPairings":[["A","B"],["C","D"]],"coinWeights":[0.2,0.5,0.8],"subjectId":"A2NXMRPHG86N2T","assignmentId":"3WI0P0II62ETD52444BSOVAGRGTDRC","hitId":"3FJ2RVH25ZSYKBA8MWMNC8NVPF629N","url":"https://gershmanlab.com/experiments/alicia/teaching/experiment/?hitId=3FJ2RVH25ZSYKBA8MWMNC8NVPF629N&workerId=A2NXMRPHG86N2T&assignmentId=3WI0P0II62ETD52444BSOVAGRGTDRC&a=IPIW7&tp_a=IPIW7&b=3WI0P0II62ETD52444BSOVAGRGTDRC&tp_b=3WI0P0II62ETD52444BSOVAGRGTDRC&c=365717&tp_c=365717","firstResponseHeads":8,"firstResponseTails":2,"secondResponseHeads":8,"secondResponseTails":2,"totalHeads":16,"totalTails":4,"studentIndex":7,"studentTrueHypers":{"a":2,"b":8},"studentGuess":0.6,"delta":0.20000000000000007,"bonus":0,"bonusSoFar":1.1,"totalExamples":20},{"rt":12680,"response":{"heads":"2","tails":"8"},"type":"response","condition":"nonSeqFull","trueTheta":0.2,"classrooms":["A","B"],"studentTrueClassroom":"B","exampleSet":"first","trial_type":"survey-html-form","trial_index":72,"time_elapsed":664769,"internal_node_id":"0.0-71.0-0.0","params":{"nStudents":24,"maxFlips":30,"completionMinutes":45,"basePay":8,"maxBonus":9,"perTrialBonus":0.5,"perTrialBonusThreshold":0.05,"exampleCost":0.01},"classroomParams":{"A":{"a":1,"b":4},"B":{"a":4,"b":1},"C":{"a":2,"b":8},"D":{"a":8,"b":2}},"conditions":["nonSeqFull","nonSeqPartial","seqNoFeedback","seqFeedback"],"classroomPairings":[["A","B"],["C","D"]],"coinWeights":[0.2,0.5,0.8],"subjectId":"A2NXMRPHG86N2T","assignmentId":"3WI0P0II62ETD52444BSOVAGRGTDRC","hitId":"3FJ2RVH25ZSYKBA8MWMNC8NVPF629N","url":"https://gershmanlab.com/experiments/alicia/teaching/experiment/?hitId=3FJ2RVH25ZSYKBA8MWMNC8NVPF629N&workerId=A2NXMRPHG86N2T&assignmentId=3WI0P0II62ETD52444BSOVAGRGTDRC&a=IPIW7&tp_a=IPIW7&b=3WI0P0II62ETD52444BSOVAGRGTDRC&tp_b=3WI0P0II62ETD52444BSOVAGRGTDRC&c=365717&tp_c=365717","heads":2,"tails":8,"studentIndex":8,"studentTrueHypers":{"a":4,"b":1},"studentGuess":0.4,"delta":0.2,"totalExamples":10,"bonus":0,"bonusSoFar":1.1},{"rt":10056,"response":{"heads":"2","tails":"8"},"type":"response","condition":"seqNoFeedback","trueTheta":0.2,"classrooms":["C","D"],"studentTrueClassroom":"C","exampleSet":"first","trial_type":"survey-html-form","trial_index":78,"time_elapsed":690129,"internal_node_id":"0.0-77.0-0.0","params":{"nStudents":24,"maxFlips":30,"completionMinutes":45,"basePay":8,"maxBonus":9,"perTrialBonus":0.5,"perTrialBonusThreshold":0.05,"exampleCost":0.01},"classroomParams":{"A":{"a":1,"b":4},"B":{"a":4,"b":1},"C":{"a":2,"b":8},"D":{"a":8,"b":2}},"conditions":["nonSeqFull","nonSeqPartial","seqNoFeedback","seqFeedback"],"classroomPairings":[["A","B"],["C","D"]],"coinWeights":[0.2,0.5,0.8],"subjectId":"A2NXMRPHG86N2T","assignmentId":"3WI0P0II62ETD52444BSOVAGRGTDRC","hitId":"3FJ2RVH25ZSYKBA8MWMNC8NVPF629N","url":"https://gershmanlab.com/experiments/alicia/teaching/experiment/?hitId=3FJ2RVH25ZSYKBA8MWMNC8NVPF629N&workerId=A2NXMRPHG86N2T&assignmentId=3WI0P0II62ETD52444BSOVAGRGTDRC&a=IPIW7&tp_a=IPIW7&b=3WI0P0II62ETD52444BSOVAGRGTDRC&tp_b=3WI0P0II62ETD52444BSOVAGRGTDRC&c=365717&tp_c=365717","heads":2,"tails":8,"studentIndex":9,"studentTrueHypers":{"a":2,"b":8},"studentGuess":0.2,"delta":0,"totalExamples":10,"bonusSoFar":1.1},{"rt":11369,"response":{"heads":"2","tails":"8"},"type":"response","condition":"seqNoFeedback","trueTheta":0.2,"classrooms":["C","D"],"studentTrueClassroom":"C","exampleSet":"second","trial_type":"survey-html-form","trial_index":81,"time_elapsed":708769,"internal_node_id":"0.0-80.0-0.0","params":{"nStudents":24,"maxFlips":30,"completionMinutes":45,"basePay":8,"maxBonus":9,"perTrialBonus":0.5,"perTrialBonusThreshold":0.05,"exampleCost":0.01},"classroomParams":{"A":{"a":1,"b":4},"B":{"a":4,"b":1},"C":{"a":2,"b":8},"D":{"a":8,"b":2}},"conditions":["nonSeqFull","nonSeqPartial","seqNoFeedback","seqFeedback"],"classroomPairings":[["A","B"],["C","D"]],"coinWeights":[0.2,0.5,0.8],"subjectId":"A2NXMRPHG86N2T","assignmentId":"3WI0P0II62ETD52444BSOVAGRGTDRC","hitId":"3FJ2RVH25ZSYKBA8MWMNC8NVPF629N","url":"https://gershmanlab.com/experiments/alicia/teaching/experiment/?hitId=3FJ2RVH25ZSYKBA8MWMNC8NVPF629N&workerId=A2NXMRPHG86N2T&assignmentId=3WI0P0II62ETD52444BSOVAGRGTDRC&a=IPIW7&tp_a=IPIW7&b=3WI0P0II62ETD52444BSOVAGRGTDRC&tp_b=3WI0P0II62ETD52444BSOVAGRGTDRC&c=365717&tp_c=365717","firstResponseHeads":2,"firstResponseTails":8,"secondResponseHeads":2,"secondResponseTails":8,"totalHeads":4,"totalTails":16,"studentIndex":9,"studentTrueHypers":{"a":2,"b":8},"studentGuess":0.2,"delta":0,"bonus":0.3,"bonusSoFar":1.4,"totalExamples":20},{"rt":6960,"response":{"heads":"1","tails":"1"},"type":"response","condition":"seqFeedback","trueTheta":0.5,"classrooms":["C","D"],"studentTrueClassroom":"D","exampleSet":"first","trial_type":"survey-html-form","trial_index":87,"time_elapsed":736170,"internal_node_id":"0.0-86.0-0.0","params":{"nStudents":24,"maxFlips":30,"completionMinutes":45,"basePay":8,"maxBonus":9,"perTrialBonus":0.5,"perTrialBonusThreshold":0.05,"exampleCost":0.01},"classroomParams":{"A":{"a":1,"b":4},"B":{"a":4,"b":1},"C":{"a":2,"b":8},"D":{"a":8,"b":2}},"conditions":["nonSeqFull","nonSeqPartial","seqNoFeedback","seqFeedback"],"classroomPairings":[["A","B"],["C","D"]],"coinWeights":[0.2,0.5,0.8],"subjectId":"A2NXMRPHG86N2T","assignmentId":"3WI0P0II62ETD52444BSOVAGRGTDRC","hitId":"3FJ2RVH25ZSYKBA8MWMNC8NVPF629N","url":"https://gershmanlab.com/experiments/alicia/teaching/experiment/?hitId=3FJ2RVH25ZSYKBA8MWMNC8NVPF629N&workerId=A2NXMRPHG86N2T&assignmentId=3WI0P0II62ETD52444BSOVAGRGTDRC&a=IPIW7&tp_a=IPIW7&b=3WI0P0II62ETD52444BSOVAGRGTDRC&tp_b=3WI0P0II62ETD52444BSOVAGRGTDRC&c=365717&tp_c=365717","heads":1,"tails":1,"studentIndex":10,"studentTrueHypers":{"a":8,"b":2},"studentGuess":0.75,"delta":0.25,"totalExamples":2,"bonusSoFar":1.4},{"rt":21377,"response":{"heads":"5","tails":"10"},"type":"response","condition":"seqFeedback","trueTheta":0.5,"classrooms":["C","D"],"studentTrueClassroom":"D","exampleSet":"second","trial_type":"survey-html-form","trial_index":91,"time_elapsed":772276,"internal_node_id":"0.0-90.0-0.0","params":{"nStudents":24,"maxFlips":30,"completionMinutes":45,"basePay":8,"maxBonus":9,"perTrialBonus":0.5,"perTrialBonusThreshold":0.05,"exampleCost":0.01},"classroomParams":{"A":{"a":1,"b":4},"B":{"a":4,"b":1},"C":{"a":2,"b":8},"D":{"a":8,"b":2}},"conditions":["nonSeqFull","nonSeqPartial","seqNoFeedback","seqFeedback"],"classroomPairings":[["A","B"],["C","D"]],"coinWeights":[0.2,0.5,0.8],"subjectId":"A2NXMRPHG86N2T","assignmentId":"3WI0P0II62ETD52444BSOVAGRGTDRC","hitId":"3FJ2RVH25ZSYKBA8MWMNC8NVPF629N","url":"https://gershmanlab.com/experiments/alicia/teaching/experiment/?hitId=3FJ2RVH25ZSYKBA8MWMNC8NVPF629N&workerId=A2NXMRPHG86N2T&assignmentId=3WI0P0II62ETD52444BSOVAGRGTDRC&a=IPIW7&tp_a=IPIW7&b=3WI0P0II62ETD52444BSOVAGRGTDRC&tp_b=3WI0P0II62ETD52444BSOVAGRGTDRC&c=365717&tp_c=365717","firstResponseHeads":1,"firstResponseTails":1,"secondResponseHeads":5,"secondResponseTails":10,"totalHeads":6,"totalTails":11,"studentIndex":10,"studentTrueHypers":{"a":8,"b":2},"studentGuess":0.5185185185185185,"delta":0.01851851851851849,"bonus":0.33,"bonusSoFar":1.73,"totalExamples":17},{"rt":6622,"response":{"heads":"2","tails":"8"},"type":"response","condition":"nonSeqPartial","trueTheta":0.2,"classrooms":["C","D"],"studentTrueClassroom":"D","exampleSet":"first","trial_type":"survey-html-form","trial_index":97,"time_elapsed":797212,"internal_node_id":"0.0-96.0-0.0","params":{"nStudents":24,"maxFlips":30,"completionMinutes":45,"basePay":8,"maxBonus":9,"perTrialBonus":0.5,"perTrialBonusThreshold":0.05,"exampleCost":0.01},"classroomParams":{"A":{"a":1,"b":4},"B":{"a":4,"b":1},"C":{"a":2,"b":8},"D":{"a":8,"b":2}},"conditions":["nonSeqFull","nonSeqPartial","seqNoFeedback","seqFeedback"],"classroomPairings":[["A","B"],["C","D"]],"coinWeights":[0.2,0.5,0.8],"subjectId":"A2NXMRPHG86N2T","assignmentId":"3WI0P0II62ETD52444BSOVAGRGTDRC","hitId":"3FJ2RVH25ZSYKBA8MWMNC8NVPF629N","url":"https://gershmanlab.com/experiments/alicia/teaching/experiment/?hitId=3FJ2RVH25ZSYKBA8MWMNC8NVPF629N&workerId=A2NXMRPHG86N2T&assignmentId=3WI0P0II62ETD52444BSOVAGRGTDRC&a=IPIW7&tp_a=IPIW7&b=3WI0P0II62ETD52444BSOVAGRGTDRC&tp_b=3WI0P0II62ETD52444BSOVAGRGTDRC&c=365717&tp_c=365717","heads":2,"tails":8,"studentIndex":11,"studentTrueHypers":{"a":8,"b":2},"studentGuess":0.5,"delta":0.3,"totalExamples":10,"bonus":0,"bonusSoFar":1.73},{"rt":15016,"response":{"heads":"2","tails":"8"},"type":"response","condition":"seqFeedback","trueTheta":0.2,"classrooms":["C","D"],"studentTrueClassroom":"D","exampleSet":"first","trial_type":"survey-html-form","trial_index":103,"time_elapsed":830758,"internal_node_id":"0.0-102.0-0.0","params":{"nStudents":24,"maxFlips":30,"completionMinutes":45,"basePay":8,"maxBonus":9,"perTrialBonus":0.5,"perTrialBonusThreshold":0.05,"exampleCost":0.01},"classroomParams":{"A":{"a":1,"b":4},"B":{"a":4,"b":1},"C":{"a":2,"b":8},"D":{"a":8,"b":2}},"conditions":["nonSeqFull","nonSeqPartial","seqNoFeedback","seqFeedback"],"classroomPairings":[["A","B"],["C","D"]],"coinWeights":[0.2,0.5,0.8],"subjectId":"A2NXMRPHG86N2T","assignmentId":"3WI0P0II62ETD52444BSOVAGRGTDRC","hitId":"3FJ2RVH25ZSYKBA8MWMNC8NVPF629N","url":"https://gershmanlab.com/experiments/alicia/teaching/experiment/?hitId=3FJ2RVH25ZSYKBA8MWMNC8NVPF629N&workerId=A2NXMRPHG86N2T&assignmentId=3WI0P0II62ETD52444BSOVAGRGTDRC&a=IPIW7&tp_a=IPIW7&b=3WI0P0II62ETD52444BSOVAGRGTDRC&tp_b=3WI0P0II62ETD52444BSOVAGRGTDRC&c=365717&tp_c=365717","heads":2,"tails":8,"studentIndex":12,"studentTrueHypers":{"a":8,"b":2},"studentGuess":0.5,"delta":0.3,"totalExamples":10,"bonusSoFar":1.73},{"rt":8525,"response":{"heads":"1","tails":"9"},"type":"response","condition":"seqFeedback","trueTheta":0.2,"classrooms":["C","D"],"studentTrueClassroom":"D","exampleSet":"second","trial_type":"survey-html-form","trial_index":107,"time_elapsed":852380,"internal_node_id":"0.0-106.0-0.0","params":{"nStudents":24,"maxFlips":30,"completionMinutes":45,"basePay":8,"maxBonus":9,"perTrialBonus":0.5,"perTrialBonusThreshold":0.05,"exampleCost":0.01},"classroomParams":{"A":{"a":1,"b":4},"B":{"a":4,"b":1},"C":{"a":2,"b":8},"D":{"a":8,"b":2}},"conditions":["nonSeqFull","nonSeqPartial","seqNoFeedback","seqFeedback"],"classroomPairings":[["A","B"],["C","D"]],"coinWeights":[0.2,0.5,0.8],"subjectId":"A2NXMRPHG86N2T","assignmentId":"3WI0P0II62ETD52444BSOVAGRGTDRC","hitId":"3FJ2RVH25ZSYKBA8MWMNC8NVPF629N","url":"https://gershmanlab.com/experiments/alicia/teaching/experiment/?hitId=3FJ2RVH25ZSYKBA8MWMNC8NVPF629N&workerId=A2NXMRPHG86N2T&assignmentId=3WI0P0II62ETD52444BSOVAGRGTDRC&a=IPIW7&tp_a=IPIW7&b=3WI0P0II62ETD52444BSOVAGRGTDRC&tp_b=3WI0P0II62ETD52444BSOVAGRGTDRC&c=365717&tp_c=365717","firstResponseHeads":2,"firstResponseTails":8,"secondResponseHeads":1,"secondResponseTails":9,"totalHeads":3,"totalTails":17,"studentIndex":12,"studentTrueHypers":{"a":8,"b":2},"studentGuess":0.36666666666666664,"delta":0.16666666666666663,"bonus":0,"bonusSoFar":1.73,"totalExamples":20},{"rt":15992,"response":{"heads":"3","tails":"6"},"type":"response","condition":"nonSeqPartial","trueTheta":0.5,"classrooms":["A","B"],"studentTrueClassroom":"B","exampleSet":"first","trial_type":"survey-html-form","trial_index":113,"time_elapsed":886887,"internal_node_id":"0.0-112.0-0.0","params":{"nStudents":24,"maxFlips":30,"completionMinutes":45,"basePay":8,"maxBonus":9,"perTrialBonus":0.5,"perTrialBonusThreshold":0.05,"exampleCost":0.01},"classroomParams":{"A":{"a":1,"b":4},"B":{"a":4,"b":1},"C":{"a":2,"b":8},"D":{"a":8,"b":2}},"conditions":["nonSeqFull","nonSeqPartial","seqNoFeedback","seqFeedback"],"classroomPairings":[["A","B"],["C","D"]],"coinWeights":[0.2,0.5,0.8],"subjectId":"A2NXMRPHG86N2T","assignmentId":"3WI0P0II62ETD52444BSOVAGRGTDRC","hitId":"3FJ2RVH25ZSYKBA8MWMNC8NVPF629N","url":"https://gershmanlab.com/experiments/alicia/teaching/experiment/?hitId=3FJ2RVH25ZSYKBA8MWMNC8NVPF629N&workerId=A2NXMRPHG86N2T&assignmentId=3WI0P0II62ETD52444BSOVAGRGTDRC&a=IPIW7&tp_a=IPIW7&b=3WI0P0II62ETD52444BSOVAGRGTDRC&tp_b=3WI0P0II62ETD52444BSOVAGRGTDRC&c=365717&tp_c=365717","heads":3,"tails":6,"studentIndex":13,"studentTrueHypers":{"a":4,"b":1},"studentGuess":0.5,"delta":0,"totalExamples":9,"bonus":0.41,"bonusSoFar":2.14},{"rt":9512,"response":{"heads":"2","tails":"4"},"type":"response","condition":"nonSeqPartial","trueTheta":0.5,"classrooms":["C","D"],"studentTrueClassroom":"D","exampleSet":"first","trial_type":"survey-html-form","trial_index":119,"time_elapsed":912840,"internal_node_id":"0.0-118.0-0.0","params":{"nStudents":24,"maxFlips":30,"completionMinutes":45,"basePay":8,"maxBonus":9,"perTrialBonus":0.5,"perTrialBonusThreshold":0.05,"exampleCost":0.01},"classroomParams":{"A":{"a":1,"b":4},"B":{"a":4,"b":1},"C":{"a":2,"b":8},"D":{"a":8,"b":2}},"conditions":["nonSeqFull","nonSeqPartial","seqNoFeedback","seqFeedback"],"classroomPairings":[["A","B"],["C","D"]],"coinWeights":[0.2,0.5,0.8],"subjectId":"A2NXMRPHG86N2T","assignmentId":"3WI0P0II62ETD52444BSOVAGRGTDRC","hitId":"3FJ2RVH25ZSYKBA8MWMNC8NVPF629N","url":"https://gershmanlab.com/experiments/alicia/teaching/experiment/?hitId=3FJ2RVH25ZSYKBA8MWMNC8NVPF629N&workerId=A2NXMRPHG86N2T&assignmentId=3WI0P0II62ETD52444BSOVAGRGTDRC&a=IPIW7&tp_a=IPIW7&b=3WI0P0II62ETD52444BSOVAGRGTDRC&tp_b=3WI0P0II62ETD52444BSOVAGRGTDRC&c=365717&tp_c=365717","heads":2,"tails":4,"studentIndex":14,"studentTrueHypers":{"a":8,"b":2},"studentGuess":0.625,"delta":0.125,"totalExamples":6,"bonus":0,"bonusSoFar":2.14},{"rt":5471,"response":{"heads":"1","tails":"9"},"type":"response","condition":"nonSeqFull","trueTheta":0.2,"classrooms":["C","D"],"studentTrueClassroom":"C","exampleSet":"first","trial_type":"survey-html-form","trial_index":125,"time_elapsed":931872,"internal_node_id":"0.0-124.0-0.0","params":{"nStudents":24,"maxFlips":30,"completionMinutes":45,"basePay":8,"maxBonus":9,"perTrialBonus":0.5,"perTrialBonusThreshold":0.05,"exampleCost":0.01},"classroomParams":{"A":{"a":1,"b":4},"B":{"a":4,"b":1},"C":{"a":2,"b":8},"D":{"a":8,"b":2}},"conditions":["nonSeqFull","nonSeqPartial","seqNoFeedback","seqFeedback"],"classroomPairings":[["A","B"],["C","D"]],"coinWeights":[0.2,0.5,0.8],"subjectId":"A2NXMRPHG86N2T","assignmentId":"3WI0P0II62ETD52444BSOVAGRGTDRC","hitId":"3FJ2RVH25ZSYKBA8MWMNC8NVPF629N","url":"https://gershmanlab.com/experiments/alicia/teaching/experiment/?hitId=3FJ2RVH25ZSYKBA8MWMNC8NVPF629N&workerId=A2NXMRPHG86N2T&assignmentId=3WI0P0II62ETD52444BSOVAGRGTDRC&a=IPIW7&tp_a=IPIW7&b=3WI0P0II62ETD52444BSOVAGRGTDRC&tp_b=3WI0P0II62ETD52444BSOVAGRGTDRC&c=365717&tp_c=365717","heads":1,"tails":9,"studentIndex":15,"studentTrueHypers":{"a":2,"b":8},"studentGuess":0.15,"delta":0.05000000000000002,"totalExamples":10,"bonus":0,"bonusSoFar":2.14},{"rt":22176,"response":{"heads":"2","tails":"4"},"type":"response","condition":"seqNoFeedback","trueTheta":0.5,"classrooms":["A","B"],"studentTrueClassroom":"B","exampleSet":"first","trial_type":"survey-html-form","trial_index":131,"time_elapsed":974275,"internal_node_id":"0.0-130.0-0.0","params":{"nStudents":24,"maxFlips":30,"completionMinutes":45,"basePay":8,"maxBonus":9,"perTrialBonus":0.5,"perTrialBonusThreshold":0.05,"exampleCost":0.01},"classroomParams":{"A":{"a":1,"b":4},"B":{"a":4,"b":1},"C":{"a":2,"b":8},"D":{"a":8,"b":2}},"conditions":["nonSeqFull","nonSeqPartial","seqNoFeedback","seqFeedback"],"classroomPairings":[["A","B"],["C","D"]],"coinWeights":[0.2,0.5,0.8],"subjectId":"A2NXMRPHG86N2T","assignmentId":"3WI0P0II62ETD52444BSOVAGRGTDRC","hitId":"3FJ2RVH25ZSYKBA8MWMNC8NVPF629N","url":"https://gershmanlab.com/experiments/alicia/teaching/experiment/?hitId=3FJ2RVH25ZSYKBA8MWMNC8NVPF629N&workerId=A2NXMRPHG86N2T&assignmentId=3WI0P0II62ETD52444BSOVAGRGTDRC&a=IPIW7&tp_a=IPIW7&b=3WI0P0II62ETD52444BSOVAGRGTDRC&tp_b=3WI0P0II62ETD52444BSOVAGRGTDRC&c=365717&tp_c=365717","heads":2,"tails":4,"studentIndex":16,"studentTrueHypers":{"a":4,"b":1},"studentGuess":0.5454545454545454,"delta":0.045454545454545414,"totalExamples":6,"bonusSoFar":2.14},{"rt":9042,"response":{"heads":"3","tails":"6"},"type":"response","condition":"seqNoFeedback","trueTheta":0.5,"classrooms":["A","B"],"studentTrueClassroom":"B","exampleSet":"second","trial_type":"survey-html-form","trial_index":134,"time_elapsed":989347,"internal_node_id":"0.0-133.0-0.0","params":{"nStudents":24,"maxFlips":30,"completionMinutes":45,"basePay":8,"maxBonus":9,"perTrialBonus":0.5,"perTrialBonusThreshold":0.05,"exampleCost":0.01},"classroomParams":{"A":{"a":1,"b":4},"B":{"a":4,"b":1},"C":{"a":2,"b":8},"D":{"a":8,"b":2}},"conditions":["nonSeqFull","nonSeqPartial","seqNoFeedback","seqFeedback"],"classroomPairings":[["A","B"],["C","D"]],"coinWeights":[0.2,0.5,0.8],"subjectId":"A2NXMRPHG86N2T","assignmentId":"3WI0P0II62ETD52444BSOVAGRGTDRC","hitId":"3FJ2RVH25ZSYKBA8MWMNC8NVPF629N","url":"https://gershmanlab.com/experiments/alicia/teaching/experiment/?hitId=3FJ2RVH25ZSYKBA8MWMNC8NVPF629N&workerId=A2NXMRPHG86N2T&assignmentId=3WI0P0II62ETD52444BSOVAGRGTDRC&a=IPIW7&tp_a=IPIW7&b=3WI0P0II62ETD52444BSOVAGRGTDRC&tp_b=3WI0P0II62ETD52444BSOVAGRGTDRC&c=365717&tp_c=365717","firstResponseHeads":2,"firstResponseTails":4,"secondResponseHeads":3,"secondResponseTails":6,"totalHeads":5,"totalTails":10,"studentIndex":16,"studentTrueHypers":{"a":4,"b":1},"studentGuess":0.45,"delta":0.04999999999999999,"bonus":0.35,"bonusSoFar":2.49,"totalExamples":15},{"rt":5823,"response":{"heads":"2","tails":"10"},"type":"response","condition":"nonSeqPartial","trueTheta":0.2,"classrooms":["A","B"],"studentTrueClassroom":"B","exampleSet":"first","trial_type":"survey-html-form","trial_index":140,"time_elapsed":1013803,"internal_node_id":"0.0-139.0-0.0","params":{"nStudents":24,"maxFlips":30,"completionMinutes":45,"basePay":8,"maxBonus":9,"perTrialBonus":0.5,"perTrialBonusThreshold":0.05,"exampleCost":0.01},"classroomParams":{"A":{"a":1,"b":4},"B":{"a":4,"b":1},"C":{"a":2,"b":8},"D":{"a":8,"b":2}},"conditions":["nonSeqFull","nonSeqPartial","seqNoFeedback","seqFeedback"],"classroomPairings":[["A","B"],["C","D"]],"coinWeights":[0.2,0.5,0.8],"subjectId":"A2NXMRPHG86N2T","assignmentId":"3WI0P0II62ETD52444BSOVAGRGTDRC","hitId":"3FJ2RVH25ZSYKBA8MWMNC8NVPF629N","url":"https://gershmanlab.com/experiments/alicia/teaching/experiment/?hitId=3FJ2RVH25ZSYKBA8MWMNC8NVPF629N&workerId=A2NXMRPHG86N2T&assignmentId=3WI0P0II62ETD52444BSOVAGRGTDRC&a=IPIW7&tp_a=IPIW7&b=3WI0P0II62ETD52444BSOVAGRGTDRC&tp_b=3WI0P0II62ETD52444BSOVAGRGTDRC&c=365717&tp_c=365717","heads":2,"tails":10,"studentIndex":17,"studentTrueHypers":{"a":4,"b":1},"studentGuess":0.35294117647058826,"delta":0.15294117647058825,"totalExamples":12,"bonus":0,"bonusSoFar":2.49},{"rt":8455,"response":{"heads":"8","tails":"2"},"type":"response","condition":"seqNoFeedback","trueTheta":0.8,"classrooms":["A","B"],"studentTrueClassroom":"A","exampleSet":"first","trial_type":"survey-html-form","trial_index":146,"time_elapsed":1034531,"internal_node_id":"0.0-145.0-0.0","params":{"nStudents":24,"maxFlips":30,"completionMinutes":45,"basePay":8,"maxBonus":9,"perTrialBonus":0.5,"perTrialBonusThreshold":0.05,"exampleCost":0.01},"classroomParams":{"A":{"a":1,"b":4},"B":{"a":4,"b":1},"C":{"a":2,"b":8},"D":{"a":8,"b":2}},"conditions":["nonSeqFull","nonSeqPartial","seqNoFeedback","seqFeedback"],"classroomPairings":[["A","B"],["C","D"]],"coinWeights":[0.2,0.5,0.8],"subjectId":"A2NXMRPHG86N2T","assignmentId":"3WI0P0II62ETD52444BSOVAGRGTDRC","hitId":"3FJ2RVH25ZSYKBA8MWMNC8NVPF629N","url":"https://gershmanlab.com/experiments/alicia/teaching/experiment/?hitId=3FJ2RVH25ZSYKBA8MWMNC8NVPF629N&workerId=A2NXMRPHG86N2T&assignmentId=3WI0P0II62ETD52444BSOVAGRGTDRC&a=IPIW7&tp_a=IPIW7&b=3WI0P0II62ETD52444BSOVAGRGTDRC&tp_b=3WI0P0II62ETD52444BSOVAGRGTDRC&c=365717&tp_c=365717","heads":8,"tails":2,"studentIndex":18,"studentTrueHypers":{"a":1,"b":4},"studentGuess":0.6,"delta":0.20000000000000007,"totalExamples":10,"bonusSoFar":2.49},{"rt":7453,"response":{"heads":"8","tails":"2"},"type":"response","condition":"seqNoFeedback","trueTheta":0.8,"classrooms":["A","B"],"studentTrueClassroom":"A","exampleSet":"second","trial_type":"survey-html-form","trial_index":149,"time_elapsed":1048997,"internal_node_id":"0.0-148.0-0.0","params":{"nStudents":24,"maxFlips":30,"completionMinutes":45,"basePay":8,"maxBonus":9,"perTrialBonus":0.5,"perTrialBonusThreshold":0.05,"exampleCost":0.01},"classroomParams":{"A":{"a":1,"b":4},"B":{"a":4,"b":1},"C":{"a":2,"b":8},"D":{"a":8,"b":2}},"conditions":["nonSeqFull","nonSeqPartial","seqNoFeedback","seqFeedback"],"classroomPairings":[["A","B"],["C","D"]],"coinWeights":[0.2,0.5,0.8],"subjectId":"A2NXMRPHG86N2T","assignmentId":"3WI0P0II62ETD52444BSOVAGRGTDRC","hitId":"3FJ2RVH25ZSYKBA8MWMNC8NVPF629N","url":"https://gershmanlab.com/experiments/alicia/teaching/experiment/?hitId=3FJ2RVH25ZSYKBA8MWMNC8NVPF629N&workerId=A2NXMRPHG86N2T&assignmentId=3WI0P0II62ETD52444BSOVAGRGTDRC&a=IPIW7&tp_a=IPIW7&b=3WI0P0II62ETD52444BSOVAGRGTDRC&tp_b=3WI0P0II62ETD52444BSOVAGRGTDRC&c=365717&tp_c=365717","firstResponseHeads":8,"firstResponseTails":2,"secondResponseHeads":8,"secondResponseTails":2,"totalHeads":16,"totalTails":4,"studentIndex":18,"studentTrueHypers":{"a":1,"b":4},"studentGuess":0.68,"delta":0.12,"bonus":0,"bonusSoFar":2.49,"totalExamples":20},{"rt":7880,"response":{"heads":"8","tails":"2"},"type":"response","condition":"nonSeqPartial","trueTheta":0.8,"classrooms":["A","B"],"studentTrueClassroom":"B","exampleSet":"first","trial_type":"survey-html-form","trial_index":155,"time_elapsed":1069990,"internal_node_id":"0.0-154.0-0.0","params":{"nStudents":24,"maxFlips":30,"completionMinutes":45,"basePay":8,"maxBonus":9,"perTrialBonus":0.5,"perTrialBonusThreshold":0.05,"exampleCost":0.01},"classroomParams":{"A":{"a":1,"b":4},"B":{"a":4,"b":1},"C":{"a":2,"b":8},"D":{"a":8,"b":2}},"conditions":["nonSeqFull","nonSeqPartial","seqNoFeedback","seqFeedback"],"classroomPairings":[["A","B"],["C","D"]],"coinWeights":[0.2,0.5,0.8],"subjectId":"A2NXMRPHG86N2T","assignmentId":"3WI0P0II62ETD52444BSOVAGRGTDRC","hitId":"3FJ2RVH25ZSYKBA8MWMNC8NVPF629N","url":"https://gershmanlab.com/experiments/alicia/teaching/experiment/?hitId=3FJ2RVH25ZSYKBA8MWMNC8NVPF629N&workerId=A2NXMRPHG86N2T&assignmentId=3WI0P0II62ETD52444BSOVAGRGTDRC&a=IPIW7&tp_a=IPIW7&b=3WI0P0II62ETD52444BSOVAGRGTDRC&tp_b=3WI0P0II62ETD52444BSOVAGRGTDRC&c=365717&tp_c=365717","heads":8,"tails":2,"studentIndex":19,"studentTrueHypers":{"a":4,"b":1},"studentGuess":0.8,"delta":0,"totalExamples":10,"bonus":0.4,"bonusSoFar":2.89},{"rt":7302,"response":{"heads":"8","tails":"2"},"type":"response","condition":"seqFeedback","trueTheta":0.8,"classrooms":["A","B"],"studentTrueClassroom":"B","exampleSet":"first","trial_type":"survey-html-form","trial_index":161,"time_elapsed":1092958,"internal_node_id":"0.0-160.0-0.0","params":{"nStudents":24,"maxFlips":30,"completionMinutes":45,"basePay":8,"maxBonus":9,"perTrialBonus":0.5,"perTrialBonusThreshold":0.05,"exampleCost":0.01},"classroomParams":{"A":{"a":1,"b":4},"B":{"a":4,"b":1},"C":{"a":2,"b":8},"D":{"a":8,"b":2}},"conditions":["nonSeqFull","nonSeqPartial","seqNoFeedback","seqFeedback"],"classroomPairings":[["A","B"],["C","D"]],"coinWeights":[0.2,0.5,0.8],"subjectId":"A2NXMRPHG86N2T","assignmentId":"3WI0P0II62ETD52444BSOVAGRGTDRC","hitId":"3FJ2RVH25ZSYKBA8MWMNC8NVPF629N","url":"https://gershmanlab.com/experiments/alicia/teaching/experiment/?hitId=3FJ2RVH25ZSYKBA8MWMNC8NVPF629N&workerId=A2NXMRPHG86N2T&assignmentId=3WI0P0II62ETD52444BSOVAGRGTDRC&a=IPIW7&tp_a=IPIW7&b=3WI0P0II62ETD52444BSOVAGRGTDRC&tp_b=3WI0P0II62ETD52444BSOVAGRGTDRC&c=365717&tp_c=365717","heads":8,"tails":2,"studentIndex":20,"studentTrueHypers":{"a":4,"b":1},"studentGuess":0.8,"delta":0,"totalExamples":10,"bonusSoFar":2.89},{"rt":5400,"response":{"heads":"8","tails":"2"},"type":"response","condition":"seqFeedback","trueTheta":0.8,"classrooms":["A","B"],"studentTrueClassroom":"B","exampleSet":"second","trial_type":"survey-html-form","trial_index":165,"time_elapsed":1105950,"internal_node_id":"0.0-164.0-0.0","params":{"nStudents":24,"maxFlips":30,"completionMinutes":45,"basePay":8,"maxBonus":9,"perTrialBonus":0.5,"perTrialBonusThreshold":0.05,"exampleCost":0.01},"classroomParams":{"A":{"a":1,"b":4},"B":{"a":4,"b":1},"C":{"a":2,"b":8},"D":{"a":8,"b":2}},"conditions":["nonSeqFull","nonSeqPartial","seqNoFeedback","seqFeedback"],"classroomPairings":[["A","B"],["C","D"]],"coinWeights":[0.2,0.5,0.8],"subjectId":"A2NXMRPHG86N2T","assignmentId":"3WI0P0II62ETD52444BSOVAGRGTDRC","hitId":"3FJ2RVH25ZSYKBA8MWMNC8NVPF629N","url":"https://gershmanlab.com/experiments/alicia/teaching/experiment/?hitId=3FJ2RVH25ZSYKBA8MWMNC8NVPF629N&workerId=A2NXMRPHG86N2T&assignmentId=3WI0P0II62ETD52444BSOVAGRGTDRC&a=IPIW7&tp_a=IPIW7&b=3WI0P0II62ETD52444BSOVAGRGTDRC&tp_b=3WI0P0II62ETD52444BSOVAGRGTDRC&c=365717&tp_c=365717","firstResponseHeads":8,"firstResponseTails":2,"secondResponseHeads":8,"secondResponseTails":2,"totalHeads":16,"totalTails":4,"studentIndex":20,"studentTrueHypers":{"a":4,"b":1},"studentGuess":0.8,"delta":0,"bonus":0.3,"bonusSoFar":3.19,"totalExamples":20},{"rt":8676,"response":{"heads":"8","tails":"2"},"type":"response","condition":"nonSeqPartial","trueTheta":0.8,"classrooms":["C","D"],"studentTrueClassroom":"D","exampleSet":"first","trial_type":"survey-html-form","trial_index":171,"time_elapsed":1126004,"internal_node_id":"0.0-170.0-0.0","params":{"nStudents":24,"maxFlips":30,"completionMinutes":45,"basePay":8,"maxBonus":9,"perTrialBonus":0.5,"perTrialBonusThreshold":0.05,"exampleCost":0.01},"classroomParams":{"A":{"a":1,"b":4},"B":{"a":4,"b":1},"C":{"a":2,"b":8},"D":{"a":8,"b":2}},"conditions":["nonSeqFull","nonSeqPartial","seqNoFeedback","seqFeedback"],"classroomPairings":[["A","B"],["C","D"]],"coinWeights":[0.2,0.5,0.8],"subjectId":"A2NXMRPHG86N2T","assignmentId":"3WI0P0II62ETD52444BSOVAGRGTDRC","hitId":"3FJ2RVH25ZSYKBA8MWMNC8NVPF629N","url":"https://gershmanlab.com/experiments/alicia/teaching/experiment/?hitId=3FJ2RVH25ZSYKBA8MWMNC8NVPF629N&workerId=A2NXMRPHG86N2T&assignmentId=3WI0P0II62ETD52444BSOVAGRGTDRC&a=IPIW7&tp_a=IPIW7&b=3WI0P0II62ETD52444BSOVAGRGTDRC&tp_b=3WI0P0II62ETD52444BSOVAGRGTDRC&c=365717&tp_c=365717","heads":8,"tails":2,"studentIndex":21,"studentTrueHypers":{"a":8,"b":2},"studentGuess":0.8,"delta":0,"totalExamples":10,"bonus":0.4,"bonusSoFar":3.59},{"rt":6111,"response":{"heads":"8","tails":"2"},"type":"response","condition":"seqFeedback","trueTheta":0.8,"classrooms":["C","D"],"studentTrueClassroom":"D","exampleSet":"first","trial_type":"survey-html-form","trial_index":177,"time_elapsed":1142495,"internal_node_id":"0.0-176.0-0.0","params":{"nStudents":24,"maxFlips":30,"completionMinutes":45,"basePay":8,"maxBonus":9,"perTrialBonus":0.5,"perTrialBonusThreshold":0.05,"exampleCost":0.01},"classroomParams":{"A":{"a":1,"b":4},"B":{"a":4,"b":1},"C":{"a":2,"b":8},"D":{"a":8,"b":2}},"conditions":["nonSeqFull","nonSeqPartial","seqNoFeedback","seqFeedback"],"classroomPairings":[["A","B"],["C","D"]],"coinWeights":[0.2,0.5,0.8],"subjectId":"A2NXMRPHG86N2T","assignmentId":"3WI0P0II62ETD52444BSOVAGRGTDRC","hitId":"3FJ2RVH25ZSYKBA8MWMNC8NVPF629N","url":"https://gershmanlab.com/experiments/alicia/teaching/experiment/?hitId=3FJ2RVH25ZSYKBA8MWMNC8NVPF629N&workerId=A2NXMRPHG86N2T&assignmentId=3WI0P0II62ETD52444BSOVAGRGTDRC&a=IPIW7&tp_a=IPIW7&b=3WI0P0II62ETD52444BSOVAGRGTDRC&tp_b=3WI0P0II62ETD52444BSOVAGRGTDRC&c=365717&tp_c=365717","heads":8,"tails":2,"studentIndex":22,"studentTrueHypers":{"a":8,"b":2},"studentGuess":0.8,"delta":0,"totalExamples":10,"bonusSoFar":3.59},{"rt":5111,"response":{"heads":"8","tails":"2"},"type":"response","condition":"seqFeedback","trueTheta":0.8,"classrooms":["C","D"],"studentTrueClassroom":"D","exampleSet":"second","trial_type":"survey-html-form","trial_index":181,"time_elapsed":1156249,"internal_node_id":"0.0-180.0-0.0","params":{"nStudents":24,"maxFlips":30,"completionMinutes":45,"basePay":8,"maxBonus":9,"perTrialBonus":0.5,"perTrialBonusThreshold":0.05,"exampleCost":0.01},"classroomParams":{"A":{"a":1,"b":4},"B":{"a":4,"b":1},"C":{"a":2,"b":8},"D":{"a":8,"b":2}},"conditions":["nonSeqFull","nonSeqPartial","seqNoFeedback","seqFeedback"],"classroomPairings":[["A","B"],["C","D"]],"coinWeights":[0.2,0.5,0.8],"subjectId":"A2NXMRPHG86N2T","assignmentId":"3WI0P0II62ETD52444BSOVAGRGTDRC","hitId":"3FJ2RVH25ZSYKBA8MWMNC8NVPF629N","url":"https://gershmanlab.com/experiments/alicia/teaching/experiment/?hitId=3FJ2RVH25ZSYKBA8MWMNC8NVPF629N&workerId=A2NXMRPHG86N2T&assignmentId=3WI0P0II62ETD52444BSOVAGRGTDRC&a=IPIW7&tp_a=IPIW7&b=3WI0P0II62ETD52444BSOVAGRGTDRC&tp_b=3WI0P0II62ETD52444BSOVAGRGTDRC&c=365717&tp_c=365717","firstResponseHeads":8,"firstResponseTails":2,"secondResponseHeads":8,"secondResponseTails":2,"totalHeads":16,"totalTails":4,"studentIndex":22,"studentTrueHypers":{"a":8,"b":2},"studentGuess":0.8,"delta":0,"bonus":0.3,"bonusSoFar":3.89,"totalExamples":20},{"rt":33376,"response":{"heads":"5","tails":"5"},"type":"response","condition":"nonSeqFull","trueTheta":0.5,"classrooms":["A","B"],"studentTrueClassroom":"A","exampleSet":"first","trial_type":"survey-html-form","trial_index":187,"time_elapsed":1203802,"internal_node_id":"0.0-186.0-0.0","params":{"nStudents":24,"maxFlips":30,"completionMinutes":45,"basePay":8,"maxBonus":9,"perTrialBonus":0.5,"perTrialBonusThreshold":0.05,"exampleCost":0.01},"classroomParams":{"A":{"a":1,"b":4},"B":{"a":4,"b":1},"C":{"a":2,"b":8},"D":{"a":8,"b":2}},"conditions":["nonSeqFull","nonSeqPartial","seqNoFeedback","seqFeedback"],"classroomPairings":[["A","B"],["C","D"]],"coinWeights":[0.2,0.5,0.8],"subjectId":"A2NXMRPHG86N2T","assignmentId":"3WI0P0II62ETD52444BSOVAGRGTDRC","hitId":"3FJ2RVH25ZSYKBA8MWMNC8NVPF629N","url":"https://gershmanlab.com/experiments/alicia/teaching/experiment/?hitId=3FJ2RVH25ZSYKBA8MWMNC8NVPF629N&workerId=A2NXMRPHG86N2T&assignmentId=3WI0P0II62ETD52444BSOVAGRGTDRC&a=IPIW7&tp_a=IPIW7&b=3WI0P0II62ETD52444BSOVAGRGTDRC&tp_b=3WI0P0II62ETD52444BSOVAGRGTDRC&c=365717&tp_c=365717","heads":5,"tails":5,"studentIndex":23,"studentTrueHypers":{"a":1,"b":4},"studentGuess":0.4,"delta":0.09999999999999998,"totalExamples":10,"bonus":0,"bonusSoFar":3.89},{"rt":17423,"response":{"gender":"male","age":"48","understood":"yes","comments":""},"type":"response","trial_type":"survey-html-form","trial_index":191,"time_elapsed":1229907,"internal_node_id":"0.0-191.0","params":{"nStudents":24,"maxFlips":30,"completionMinutes":45,"basePay":8,"maxBonus":9,"perTrialBonus":0.5,"perTrialBonusThreshold":0.05,"exampleCost":0.01},"classroomParams":{"A":{"a":1,"b":4},"B":{"a":4,"b":1},"C":{"a":2,"b":8},"D":{"a":8,"b":2}},"conditions":["nonSeqFull","nonSeqPartial","seqNoFeedback","seqFeedback"],"classroomPairings":[["A","B"],["C","D"]],"coinWeights":[0.2,0.5,0.8],"subjectId":"A2NXMRPHG86N2T","assignmentId":"3WI0P0II62ETD52444BSOVAGRGTDRC","hitId":"3FJ2RVH25ZSYKBA8MWMNC8NVPF629N","url":"https://gershmanlab.com/experiments/alicia/teaching/experiment/?hitId=3FJ2RVH25ZSYKBA8MWMNC8NVPF629N&workerId=A2NXMRPHG86N2T&assignmentId=3WI0P0II62ETD52444BSOVAGRGTDRC&a=IPIW7&tp_a=IPIW7&b=3WI0P0II62ETD52444BSOVAGRGTDRC&tp_b=3WI0P0II62ETD52444BSOVAGRGTDRC&c=365717&tp_c=365717","totalBonus":3.89}]