[{"rt":62811,"response":{"heads":"11","tails":"0"},"type":"response","condition":"nonSeqPartial","trueTheta":0.8,"classrooms":["A","B"],"studentTrueClassroom":"B","exampleSet":"first","trial_type":"survey-html-form","trial_index":7,"time_elapsed":279522,"internal_node_id":"0.0-6.0-0.0","params":{"nStudents":24,"maxFlips":30,"completionMinutes":45,"basePay":8,"maxBonus":9,"perTrialBonus":0.5,"perTrialBonusThreshold":0.05,"exampleCost":0.01},"classroomParams":{"A":{"a":1,"b":4},"B":{"a":4,"b":1},"C":{"a":2,"b":8},"D":{"a":8,"b":2}},"conditions":["nonSeqFull","nonSeqPartial","seqNoFeedback","seqFeedback"],"classroomPairings":[["A","B"],["C","D"]],"coinWeights":[0.2,0.5,0.8],"subjectId":"A2ONILC0LZKG6Y","assignmentId":"3EA3QWIZ4JHN1VVI07HYF7RB77IITI","hitId":"363A7XIFV48LMLIF2CKYA8VQSVQAVR","url":"https://gershmanlab.com/experiments/alicia/teaching/experiment/?hitId=363A7XIFV48LMLIF2CKYA8VQSVQAVR&workerId=A2ONILC0LZKG6Y&assignmentId=3EA3QWIZ4JHN1VVI07HYF7RB77IITI&a=ZQAE9&tp_a=ZQAE9&b=3EA3QWIZ4JHN1VVI07HYF7RB77IITI&tp_b=3EA3QWIZ4JHN1VVI07HYF7RB77IITI&c=365799&tp_c=365799","heads":11,"tails":0,"studentIndex":0,"studentTrueHypers":{"a":4,"b":1},"studentGuess":0.9375,"delta":0.13749999999999996,"totalExamples":11,"bonus":0,"bonusSoFar":0},{"rt":15709,"response":{"heads":"6","tails":"6"},"type":"response","condition":"seqNoFeedback","trueTheta":0.5,"classrooms":["C","D"],"studentTrueClassroom":"D","exampleSet":"first","trial_type":"survey-html-form","trial_index":13,"time_elapsed":313383,"internal_node_id":"0.0-12.0-0.0","params":{"nStudents":24,"maxFlips":30,"completionMinutes":45,"basePay":8,"maxBonus":9,"perTrialBonus":0.5,"perTrialBonusThreshold":0.05,"exampleCost":0.01},"classroomParams":{"A":{"a":1,"b":4},"B":{"a":4,"b":1},"C":{"a":2,"b":8},"D":{"a":8,"b":2}},"conditions":["nonSeqFull","nonSeqPartial","seqNoFeedback","seqFeedback"],"classroomPairings":[["A","B"],["C","D"]],"coinWeights":[0.2,0.5,0.8],"subjectId":"A2ONILC0LZKG6Y","assignmentId":"3EA3QWIZ4JHN1VVI07HYF7RB77IITI","hitId":"363A7XIFV48LMLIF2CKYA8VQSVQAVR","url":"https://gershmanlab.com/experiments/alicia/teaching/experiment/?hitId=363A7XIFV48LMLIF2CKYA8VQSVQAVR&workerId=A2ONILC0LZKG6Y&assignmentId=3EA3QWIZ4JHN1VVI07HYF7RB77IITI&a=ZQAE9&tp_a=ZQAE9&b=3EA3QWIZ4JHN1VVI07HYF7RB77IITI&tp_b=3EA3QWIZ4JHN1VVI07HYF7RB77IITI&c=365799&tp_c=365799","heads":6,"tails":6,"studentIndex":1,"studentTrueHypers":{"a":8,"b":2},"studentGuess":0.6363636363636364,"delta":0.13636363636363635,"totalExamples":12,"bonusSoFar":0},{"rt":7600,"response":{"heads":"6","tails":"6"},"type":"response","condition":"seqNoFeedback","trueTheta":0.5,"classrooms":["C","D"],"studentTrueClassroom":"D","exampleSet":"second","trial_type":"survey-html-form","trial_index":16,"time_elapsed":326265,"internal_node_id":"0.0-15.0-0.0","params":{"nStudents":24,"maxFlips":30,"completionMinutes":45,"basePay":8,"maxBonus":9,"perTrialBonus":0.5,"perTrialBonusThreshold":0.05,"exampleCost":0.01},"classroomParams":{"A":{"a":1,"b":4},"B":{"a":4,"b":1},"C":{"a":2,"b":8},"D":{"a":8,"b":2}},"conditions":["nonSeqFull","nonSeqPartial","seqNoFeedback","seqFeedback"],"classroomPairings":[["A","B"],["C","D"]],"coinWeights":[0.2,0.5,0.8],"subjectId":"A2ONILC0LZKG6Y","assignmentId":"3EA3QWIZ4JHN1VVI07HYF7RB77IITI","hitId":"363A7XIFV48LMLIF2CKYA8VQSVQAVR","url":"https://gershmanlab.com/experiments/alicia/teaching/experiment/?hitId=363A7XIFV48LMLIF2CKYA8VQSVQAVR&workerId=A2ONILC0LZKG6Y&assignmentId=3EA3QWIZ4JHN1VVI07HYF7RB77IITI&a=ZQAE9&tp_a=ZQAE9&b=3EA3QWIZ4JHN1VVI07HYF7RB77IITI&tp_b=3EA3QWIZ4JHN1VVI07HYF7RB77IITI&c=365799&tp_c=365799","firstResponseHeads":6,"firstResponseTails":6,"secondResponseHeads":6,"secondResponseTails":6,"totalHeads":12,"totalTails":12,"studentIndex":1,"studentTrueHypers":{"a":8,"b":2},"studentGuess":0.5882352941176471,"delta":0.08823529411764708,"bonus":0,"bonusSoFar":0,"totalExamples":24},{"rt":12912,"response":{"heads":"10","tails":"10"},"type":"response","condition":"nonSeqFull","trueTheta":0.5,"classrooms":["C","D"],"studentTrueClassroom":"D","exampleSet":"first","trial_type":"survey-html-form","trial_index":22,"time_elapsed":354268,"internal_node_id":"0.0-21.0-0.0","params":{"nStudents":24,"maxFlips":30,"completionMinutes":45,"basePay":8,"maxBonus":9,"perTrialBonus":0.5,"perTrialBonusThreshold":0.05,"exampleCost":0.01},"classroomParams":{"A":{"a":1,"b":4},"B":{"a":4,"b":1},"C":{"a":2,"b":8},"D":{"a":8,"b":2}},"conditions":["nonSeqFull","nonSeqPartial","seqNoFeedback","seqFeedback"],"classroomPairings":[["A","B"],["C","D"]],"coinWeights":[0.2,0.5,0.8],"subjectId":"A2ONILC0LZKG6Y","assignmentId":"3EA3QWIZ4JHN1VVI07HYF7RB77IITI","hitId":"363A7XIFV48LMLIF2CKYA8VQSVQAVR","url":"https://gershmanlab.com/experiments/alicia/teaching/experiment/?hitId=363A7XIFV48LMLIF2CKYA8VQSVQAVR&workerId=A2ONILC0LZKG6Y&assignmentId=3EA3QWIZ4JHN1VVI07HYF7RB77IITI&a=ZQAE9&tp_a=ZQAE9&b=3EA3QWIZ4JHN1VVI07HYF7RB77IITI&tp_b=3EA3QWIZ4JHN1VVI07HYF7RB77IITI&c=365799&tp_c=365799","heads":10,"tails":10,"studentIndex":2,"studentTrueHypers":{"a":8,"b":2},"studentGuess":0.6,"delta":0.09999999999999998,"totalExamples":20,"bonus":0,"bonusSoFar":0},{"rt":19089,"response":{"heads":"2","tails":"7"},"type":"response","condition":"seqFeedback","trueTheta":0.2,"classrooms":["A","B"],"studentTrueClassroom":"A","exampleSet":"first","trial_type":"survey-html-form","trial_index":28,"time_elapsed":392617,"internal_node_id":"0.0-27.0-0.0","params":{"nStudents":24,"maxFlips":30,"completionMinutes":45,"basePay":8,"maxBonus":9,"perTrialBonus":0.5,"perTrialBonusThreshold":0.05,"exampleCost":0.01},"classroomParams":{"A":{"a":1,"b":4},"B":{"a":4,"b":1},"C":{"a":2,"b":8},"D":{"a":8,"b":2}},"conditions":["nonSeqFull","nonSeqPartial","seqNoFeedback","seqFeedback"],"classroomPairings":[["A","B"],["C","D"]],"coinWeights":[0.2,0.5,0.8],"subjectId":"A2ONILC0LZKG6Y","assignmentId":"3EA3QWIZ4JHN1VVI07HYF7RB77IITI","hitId":"363A7XIFV48LMLIF2CKYA8VQSVQAVR","url":"https://gershmanlab.com/experiments/alicia/teaching/experiment/?hitId=363A7XIFV48LMLIF2CKYA8VQSVQAVR&workerId=A2ONILC0LZKG6Y&assignmentId=3EA3QWIZ4JHN1VVI07HYF7RB77IITI&a=ZQAE9&tp_a=ZQAE9&b=3EA3QWIZ4JHN1VVI07HYF7RB77IITI&tp_b=3EA3QWIZ4JHN1VVI07HYF7RB77IITI&c=365799&tp_c=365799","heads":2,"tails":7,"studentIndex":3,"studentTrueHypers":{"a":1,"b":4},"studentGuess":0.21428571428571427,"delta":0.014285714285714263,"totalExamples":9,"bonusSoFar":0},{"rt":7131,"response":{"heads":"2","tails":"7"},"type":"response","condition":"seqFeedback","trueTheta":0.2,"classrooms":["A","B"],"studentTrueClassroom":"A","exampleSet":"second","trial_type":"survey-html-form","trial_index":32,"time_elapsed":412041,"internal_node_id":"0.0-31.0-0.0","params":{"nStudents":24,"maxFlips":30,"completionMinutes":45,"basePay":8,"maxBonus":9,"perTrialBonus":0.5,"perTrialBonusThreshold":0.05,"exampleCost":0.01},"classroomParams":{"A":{"a":1,"b":4},"B":{"a":4,"b":1},"C":{"a":2,"b":8},"D":{"a":8,"b":2}},"conditions":["nonSeqFull","nonSeqPartial","seqNoFeedback","seqFeedback"],"classroomPairings":[["A","B"],["C","D"]],"coinWeights":[0.2,0.5,0.8],"subjectId":"A2ONILC0LZKG6Y","assignmentId":"3EA3QWIZ4JHN1VVI07HYF7RB77IITI","hitId":"363A7XIFV48LMLIF2CKYA8VQSVQAVR","url":"https://gershmanlab.com/experiments/alicia/teaching/experiment/?hitId=363A7XIFV48LMLIF2CKYA8VQSVQAVR&workerId=A2ONILC0LZKG6Y&assignmentId=3EA3QWIZ4JHN1VVI07HYF7RB77IITI&a=ZQAE9&tp_a=ZQAE9&b=3EA3QWIZ4JHN1VVI07HYF7RB77IITI&tp_b=3EA3QWIZ4JHN1VVI07HYF7RB77IITI&c=365799&tp_c=365799","firstResponseHeads":2,"firstResponseTails":7,"secondResponseHeads":2,"secondResponseTails":7,"totalHeads":4,"totalTails":14,"studentIndex":3,"studentTrueHypers":{"a":1,"b":4},"studentGuess":0.21739130434782608,"delta":0.01739130434782607,"bonus":0.32,"bonusSoFar":0.32,"totalExamples":18},{"rt":9506,"response":{"heads":"2","tails":"7"},"type":"response","condition":"seqFeedback","trueTheta":0.2,"classrooms":["C","D"],"studentTrueClassroom":"D","exampleSet":"first","trial_type":"survey-html-form","trial_index":38,"time_elapsed":435571,"internal_node_id":"0.0-37.0-0.0","params":{"nStudents":24,"maxFlips":30,"completionMinutes":45,"basePay":8,"maxBonus":9,"perTrialBonus":0.5,"perTrialBonusThreshold":0.05,"exampleCost":0.01},"classroomParams":{"A":{"a":1,"b":4},"B":{"a":4,"b":1},"C":{"a":2,"b":8},"D":{"a":8,"b":2}},"conditions":["nonSeqFull","nonSeqPartial","seqNoFeedback","seqFeedback"],"classroomPairings":[["A","B"],["C","D"]],"coinWeights":[0.2,0.5,0.8],"subjectId":"A2ONILC0LZKG6Y","assignmentId":"3EA3QWIZ4JHN1VVI07HYF7RB77IITI","hitId":"363A7XIFV48LMLIF2CKYA8VQSVQAVR","url":"https://gershmanlab.com/experiments/alicia/teaching/experiment/?hitId=363A7XIFV48LMLIF2CKYA8VQSVQAVR&workerId=A2ONILC0LZKG6Y&assignmentId=3EA3QWIZ4JHN1VVI07HYF7RB77IITI&a=ZQAE9&tp_a=ZQAE9&b=3EA3QWIZ4JHN1VVI07HYF7RB77IITI&tp_b=3EA3QWIZ4JHN1VVI07HYF7RB77IITI&c=365799&tp_c=365799","heads":2,"tails":7,"studentIndex":4,"studentTrueHypers":{"a":8,"b":2},"studentGuess":0.5263157894736842,"delta":0.32631578947368417,"totalExamples":9,"bonusSoFar":0.32},{"rt":12151,"response":{"heads":"2","tails":"11"},"type":"response","condition":"seqFeedback","trueTheta":0.2,"classrooms":["C","D"],"studentTrueClassroom":"D","exampleSet":"second","trial_type":"survey-html-form","trial_index":42,"time_elapsed":456355,"internal_node_id":"0.0-41.0-0.0","params":{"nStudents":24,"maxFlips":30,"completionMinutes":45,"basePay":8,"maxBonus":9,"perTrialBonus":0.5,"perTrialBonusThreshold":0.05,"exampleCost":0.01},"classroomParams":{"A":{"a":1,"b":4},"B":{"a":4,"b":1},"C":{"a":2,"b":8},"D":{"a":8,"b":2}},"conditions":["nonSeqFull","nonSeqPartial","seqNoFeedback","seqFeedback"],"classroomPairings":[["A","B"],["C","D"]],"coinWeights":[0.2,0.5,0.8],"subjectId":"A2ONILC0LZKG6Y","assignmentId":"3EA3QWIZ4JHN1VVI07HYF7RB77IITI","hitId":"363A7XIFV48LMLIF2CKYA8VQSVQAVR","url":"https://gershmanlab.com/experiments/alicia/teaching/experiment/?hitId=363A7XIFV48LMLIF2CKYA8VQSVQAVR&workerId=A2ONILC0LZKG6Y&assignmentId=3EA3QWIZ4JHN1VVI07HYF7RB77IITI&a=ZQAE9&tp_a=ZQAE9&b=3EA3QWIZ4JHN1VVI07HYF7RB77IITI&tp_b=3EA3QWIZ4JHN1VVI07HYF7RB77IITI&c=365799&tp_c=365799","firstResponseHeads":2,"firstResponseTails":7,"secondResponseHeads":2,"secondResponseTails":11,"totalHeads":4,"totalTails":18,"studentIndex":4,"studentTrueHypers":{"a":8,"b":2},"studentGuess":0.375,"delta":0.175,"bonus":0,"bonusSoFar":0.32,"totalExamples":22},{"rt":10916,"response":{"heads":"8","tails":"2"},"type":"response","condition":"nonSeqPartial","trueTheta":0.8,"classrooms":["C","D"],"studentTrueClassroom":"D","exampleSet":"first","trial_type":"survey-html-form","trial_index":48,"time_elapsed":483739,"internal_node_id":"0.0-47.0-0.0","params":{"nStudents":24,"maxFlips":30,"completionMinutes":45,"basePay":8,"maxBonus":9,"perTrialBonus":0.5,"perTrialBonusThreshold":0.05,"exampleCost":0.01},"classroomParams":{"A":{"a":1,"b":4},"B":{"a":4,"b":1},"C":{"a":2,"b":8},"D":{"a":8,"b":2}},"conditions":["nonSeqFull","nonSeqPartial","seqNoFeedback","seqFeedback"],"classroomPairings":[["A","B"],["C","D"]],"coinWeights":[0.2,0.5,0.8],"subjectId":"A2ONILC0LZKG6Y","assignmentId":"3EA3QWIZ4JHN1VVI07HYF7RB77IITI","hitId":"363A7XIFV48LMLIF2CKYA8VQSVQAVR","url":"https://gershmanlab.com/experiments/alicia/teaching/experiment/?hitId=363A7XIFV48LMLIF2CKYA8VQSVQAVR&workerId=A2ONILC0LZKG6Y&assignmentId=3EA3QWIZ4JHN1VVI07HYF7RB77IITI&a=ZQAE9&tp_a=ZQAE9&b=3EA3QWIZ4JHN1VVI07HYF7RB77IITI&tp_b=3EA3QWIZ4JHN1VVI07HYF7RB77IITI&c=365799&tp_c=365799","heads":8,"tails":2,"studentIndex":5,"studentTrueHypers":{"a":8,"b":2},"studentGuess":0.8,"delta":0,"totalExamples":10,"bonus":0.4,"bonusSoFar":0.72},{"rt":8746,"response":{"heads":"5","tails":"5"},"type":"response","condition":"seqNoFeedback","trueTheta":0.5,"classrooms":["A","B"],"studentTrueClassroom":"A","exampleSet":"first","trial_type":"survey-html-form","trial_index":54,"time_elapsed":505467,"internal_node_id":"0.0-53.0-0.0","params":{"nStudents":24,"maxFlips":30,"completionMinutes":45,"basePay":8,"maxBonus":9,"perTrialBonus":0.5,"perTrialBonusThreshold":0.05,"exampleCost":0.01},"classroomParams":{"A":{"a":1,"b":4},"B":{"a":4,"b":1},"C":{"a":2,"b":8},"D":{"a":8,"b":2}},"conditions":["nonSeqFull","nonSeqPartial","seqNoFeedback","seqFeedback"],"classroomPairings":[["A","B"],["C","D"]],"coinWeights":[0.2,0.5,0.8],"subjectId":"A2ONILC0LZKG6Y","assignmentId":"3EA3QWIZ4JHN1VVI07HYF7RB77IITI","hitId":"363A7XIFV48LMLIF2CKYA8VQSVQAVR","url":"https://gershmanlab.com/experiments/alicia/teaching/experiment/?hitId=363A7XIFV48LMLIF2CKYA8VQSVQAVR&workerId=A2ONILC0LZKG6Y&assignmentId=3EA3QWIZ4JHN1VVI07HYF7RB77IITI&a=ZQAE9&tp_a=ZQAE9&b=3EA3QWIZ4JHN1VVI07HYF7RB77IITI&tp_b=3EA3QWIZ4JHN1VVI07HYF7RB77IITI&c=365799&tp_c=365799","heads":5,"tails":5,"studentIndex":6,"studentTrueHypers":{"a":1,"b":4},"studentGuess":0.4,"delta":0.09999999999999998,"totalExamples":10,"bonusSoFar":0.72},{"rt":6821,"response":{"heads":"7","tails":"7"},"type":"response","condition":"seqNoFeedback","trueTheta":0.5,"classrooms":["A","B"],"studentTrueClassroom":"A","exampleSet":"second","trial_type":"survey-html-form","trial_index":57,"time_elapsed":520051,"internal_node_id":"0.0-56.0-0.0","params":{"nStudents":24,"maxFlips":30,"completionMinutes":45,"basePay":8,"maxBonus":9,"perTrialBonus":0.5,"perTrialBonusThreshold":0.05,"exampleCost":0.01},"classroomParams":{"A":{"a":1,"b":4},"B":{"a":4,"b":1},"C":{"a":2,"b":8},"D":{"a":8,"b":2}},"conditions":["nonSeqFull","nonSeqPartial","seqNoFeedback","seqFeedback"],"classroomPairings":[["A","B"],["C","D"]],"coinWeights":[0.2,0.5,0.8],"subjectId":"A2ONILC0LZKG6Y","assignmentId":"3EA3QWIZ4JHN1VVI07HYF7RB77IITI","hitId":"363A7XIFV48LMLIF2CKYA8VQSVQAVR","url":"https://gershmanlab.com/experiments/alicia/teaching/experiment/?hitId=363A7XIFV48LMLIF2CKYA8VQSVQAVR&workerId=A2ONILC0LZKG6Y&assignmentId=3EA3QWIZ4JHN1VVI07HYF7RB77IITI&a=ZQAE9&tp_a=ZQAE9&b=3EA3QWIZ4JHN1VVI07HYF7RB77IITI&tp_b=3EA3QWIZ4JHN1VVI07HYF7RB77IITI&c=365799&tp_c=365799","firstResponseHeads":5,"firstResponseTails":5,"secondResponseHeads":7,"secondResponseTails":7,"totalHeads":12,"totalTails":12,"studentIndex":6,"studentTrueHypers":{"a":1,"b":4},"studentGuess":0.4482758620689655,"delta":0.051724137931034475,"bonus":0,"bonusSoFar":0.72,"totalExamples":24},{"rt":39187,"response":{"heads":"13","tails":"3"},"type":"response","condition":"seqNoFeedback","trueTheta":0.8,"classrooms":["A","B"],"studentTrueClassroom":"B","exampleSet":"first","trial_type":"survey-html-form","trial_index":63,"time_elapsed":574152,"internal_node_id":"0.0-62.0-0.0","params":{"nStudents":24,"maxFlips":30,"completionMinutes":45,"basePay":8,"maxBonus":9,"perTrialBonus":0.5,"perTrialBonusThreshold":0.05,"exampleCost":0.01},"classroomParams":{"A":{"a":1,"b":4},"B":{"a":4,"b":1},"C":{"a":2,"b":8},"D":{"a":8,"b":2}},"conditions":["nonSeqFull","nonSeqPartial","seqNoFeedback","seqFeedback"],"classroomPairings":[["A","B"],["C","D"]],"coinWeights":[0.2,0.5,0.8],"subjectId":"A2ONILC0LZKG6Y","assignmentId":"3EA3QWIZ4JHN1VVI07HYF7RB77IITI","hitId":"363A7XIFV48LMLIF2CKYA8VQSVQAVR","url":"https://gershmanlab.com/experiments/alicia/teaching/experiment/?hitId=363A7XIFV48LMLIF2CKYA8VQSVQAVR&workerId=A2ONILC0LZKG6Y&assignmentId=3EA3QWIZ4JHN1VVI07HYF7RB77IITI&a=ZQAE9&tp_a=ZQAE9&b=3EA3QWIZ4JHN1VVI07HYF7RB77IITI&tp_b=3EA3QWIZ4JHN1VVI07HYF7RB77IITI&c=365799&tp_c=365799","heads":13,"tails":3,"studentIndex":7,"studentTrueHypers":{"a":4,"b":1},"studentGuess":0.8095238095238095,"delta":0.00952380952380949,"totalExamples":16,"bonusSoFar":0.72},{"rt":10921,"response":{"heads":"8","tails":"2"},"type":"response","condition":"seqNoFeedback","trueTheta":0.8,"classrooms":["A","B"],"studentTrueClassroom":"B","exampleSet":"second","trial_type":"survey-html-form","trial_index":66,"time_elapsed":591337,"internal_node_id":"0.0-65.0-0.0","params":{"nStudents":24,"maxFlips":30,"completionMinutes":45,"basePay":8,"maxBonus":9,"perTrialBonus":0.5,"perTrialBonusThreshold":0.05,"exampleCost":0.01},"classroomParams":{"A":{"a":1,"b":4},"B":{"a":4,"b":1},"C":{"a":2,"b":8},"D":{"a":8,"b":2}},"conditions":["nonSeqFull","nonSeqPartial","seqNoFeedback","seqFeedback"],"classroomPairings":[["A","B"],["C","D"]],"coinWeights":[0.2,0.5,0.8],"subjectId":"A2ONILC0LZKG6Y","assignmentId":"3EA3QWIZ4JHN1VVI07HYF7RB77IITI","hitId":"363A7XIFV48LMLIF2CKYA8VQSVQAVR","url":"https://gershmanlab.com/experiments/alicia/teaching/experiment/?hitId=363A7XIFV48LMLIF2CKYA8VQSVQAVR&workerId=A2ONILC0LZKG6Y&assignmentId=3EA3QWIZ4JHN1VVI07HYF7RB77IITI&a=ZQAE9&tp_a=ZQAE9&b=3EA3QWIZ4JHN1VVI07HYF7RB77IITI&tp_b=3EA3QWIZ4JHN1VVI07HYF7RB77IITI&c=365799&tp_c=365799","firstResponseHeads":13,"firstResponseTails":3,"secondResponseHeads":8,"secondResponseTails":2,"totalHeads":21,"totalTails":5,"studentIndex":7,"studentTrueHypers":{"a":4,"b":1},"studentGuess":0.8064516129032258,"delta":0.006451612903225712,"bonus":0.24,"bonusSoFar":0.96,"totalExamples":26},{"rt":10506,"response":{"heads":"8","tails":"2"},"type":"response","condition":"nonSeqFull","trueTheta":0.8,"classrooms":["A","B"],"studentTrueClassroom":"B","exampleSet":"first","trial_type":"survey-html-form","trial_index":72,"time_elapsed":616118,"internal_node_id":"0.0-71.0-0.0","params":{"nStudents":24,"maxFlips":30,"completionMinutes":45,"basePay":8,"maxBonus":9,"perTrialBonus":0.5,"perTrialBonusThreshold":0.05,"exampleCost":0.01},"classroomParams":{"A":{"a":1,"b":4},"B":{"a":4,"b":1},"C":{"a":2,"b":8},"D":{"a":8,"b":2}},"conditions":["nonSeqFull","nonSeqPartial","seqNoFeedback","seqFeedback"],"classroomPairings":[["A","B"],["C","D"]],"coinWeights":[0.2,0.5,0.8],"subjectId":"A2ONILC0LZKG6Y","assignmentId":"3EA3QWIZ4JHN1VVI07HYF7RB77IITI","hitId":"363A7XIFV48LMLIF2CKYA8VQSVQAVR","url":"https://gershmanlab.com/experiments/alicia/teaching/experiment/?hitId=363A7XIFV48LMLIF2CKYA8VQSVQAVR&workerId=A2ONILC0LZKG6Y&assignmentId=3EA3QWIZ4JHN1VVI07HYF7RB77IITI&a=ZQAE9&tp_a=ZQAE9&b=3EA3QWIZ4JHN1VVI07HYF7RB77IITI&tp_b=3EA3QWIZ4JHN1VVI07HYF7RB77IITI&c=365799&tp_c=365799","heads":8,"tails":2,"studentIndex":8,"studentTrueHypers":{"a":4,"b":1},"studentGuess":0.8,"delta":0,"totalExamples":10,"bonus":0.4,"bonusSoFar":1.36},{"rt":26317,"response":{"heads":"2","tails":"10"},"type":"response","condition":"nonSeqPartial","trueTheta":0.2,"classrooms":["A","B"],"studentTrueClassroom":"A","exampleSet":"first","trial_type":"survey-html-form","trial_index":78,"time_elapsed":655527,"internal_node_id":"0.0-77.0-0.0","params":{"nStudents":24,"maxFlips":30,"completionMinutes":45,"basePay":8,"maxBonus":9,"perTrialBonus":0.5,"perTrialBonusThreshold":0.05,"exampleCost":0.01},"classroomParams":{"A":{"a":1,"b":4},"B":{"a":4,"b":1},"C":{"a":2,"b":8},"D":{"a":8,"b":2}},"conditions":["nonSeqFull","nonSeqPartial","seqNoFeedback","seqFeedback"],"classroomPairings":[["A","B"],["C","D"]],"coinWeights":[0.2,0.5,0.8],"subjectId":"A2ONILC0LZKG6Y","assignmentId":"3EA3QWIZ4JHN1VVI07HYF7RB77IITI","hitId":"363A7XIFV48LMLIF2CKYA8VQSVQAVR","url":"https://gershmanlab.com/experiments/alicia/teaching/experiment/?hitId=363A7XIFV48LMLIF2CKYA8VQSVQAVR&workerId=A2ONILC0LZKG6Y&assignmentId=3EA3QWIZ4JHN1VVI07HYF7RB77IITI&a=ZQAE9&tp_a=ZQAE9&b=3EA3QWIZ4JHN1VVI07HYF7RB77IITI&tp_b=3EA3QWIZ4JHN1VVI07HYF7RB77IITI&c=365799&tp_c=365799","heads":2,"tails":10,"studentIndex":9,"studentTrueHypers":{"a":1,"b":4},"studentGuess":0.17647058823529413,"delta":0.023529411764705882,"totalExamples":12,"bonus":0.38,"bonusSoFar":1.74},{"rt":9082,"response":{"heads":"5","tails":"5"},"type":"response","condition":"seqFeedback","trueTheta":0.5,"classrooms":["C","D"],"studentTrueClassroom":"C","exampleSet":"first","trial_type":"survey-html-form","trial_index":84,"time_elapsed":680562,"internal_node_id":"0.0-83.0-0.0","params":{"nStudents":24,"maxFlips":30,"completionMinutes":45,"basePay":8,"maxBonus":9,"perTrialBonus":0.5,"perTrialBonusThreshold":0.05,"exampleCost":0.01},"classroomParams":{"A":{"a":1,"b":4},"B":{"a":4,"b":1},"C":{"a":2,"b":8},"D":{"a":8,"b":2}},"conditions":["nonSeqFull","nonSeqPartial","seqNoFeedback","seqFeedback"],"classroomPairings":[["A","B"],["C","D"]],"coinWeights":[0.2,0.5,0.8],"subjectId":"A2ONILC0LZKG6Y","assignmentId":"3EA3QWIZ4JHN1VVI07HYF7RB77IITI","hitId":"363A7XIFV48LMLIF2CKYA8VQSVQAVR","url":"https://gershmanlab.com/experiments/alicia/teaching/experiment/?hitId=363A7XIFV48LMLIF2CKYA8VQSVQAVR&workerId=A2ONILC0LZKG6Y&assignmentId=3EA3QWIZ4JHN1VVI07HYF7RB77IITI&a=ZQAE9&tp_a=ZQAE9&b=3EA3QWIZ4JHN1VVI07HYF7RB77IITI&tp_b=3EA3QWIZ4JHN1VVI07HYF7RB77IITI&c=365799&tp_c=365799","heads":5,"tails":5,"studentIndex":10,"studentTrueHypers":{"a":2,"b":8},"studentGuess":0.35,"delta":0.15000000000000002,"totalExamples":10,"bonusSoFar":1.74},{"rt":7430,"response":{"heads":"8","tails":"8"},"type":"response","condition":"seqFeedback","trueTheta":0.5,"classrooms":["C","D"],"studentTrueClassroom":"C","exampleSet":"second","trial_type":"survey-html-form","trial_index":88,"time_elapsed":698557,"internal_node_id":"0.0-87.0-0.0","params":{"nStudents":24,"maxFlips":30,"completionMinutes":45,"basePay":8,"maxBonus":9,"perTrialBonus":0.5,"perTrialBonusThreshold":0.05,"exampleCost":0.01},"classroomParams":{"A":{"a":1,"b":4},"B":{"a":4,"b":1},"C":{"a":2,"b":8},"D":{"a":8,"b":2}},"conditions":["nonSeqFull","nonSeqPartial","seqNoFeedback","seqFeedback"],"classroomPairings":[["A","B"],["C","D"]],"coinWeights":[0.2,0.5,0.8],"subjectId":"A2ONILC0LZKG6Y","assignmentId":"3EA3QWIZ4JHN1VVI07HYF7RB77IITI","hitId":"363A7XIFV48LMLIF2CKYA8VQSVQAVR","url":"https://gershmanlab.com/experiments/alicia/teaching/experiment/?hitId=363A7XIFV48LMLIF2CKYA8VQSVQAVR&workerId=A2ONILC0LZKG6Y&assignmentId=3EA3QWIZ4JHN1VVI07HYF7RB77IITI&a=ZQAE9&tp_a=ZQAE9&b=3EA3QWIZ4JHN1VVI07HYF7RB77IITI&tp_b=3EA3QWIZ4JHN1VVI07HYF7RB77IITI&c=365799&tp_c=365799","firstResponseHeads":5,"firstResponseTails":5,"secondResponseHeads":8,"secondResponseTails":8,"totalHeads":13,"totalTails":13,"studentIndex":10,"studentTrueHypers":{"a":2,"b":8},"studentGuess":0.4166666666666667,"delta":0.08333333333333331,"bonus":0,"bonusSoFar":1.74,"totalExamples":26},{"rt":9382,"response":{"heads":"8","tails":"2"},"type":"response","condition":"seqFeedback","trueTheta":0.8,"classrooms":["C","D"],"studentTrueClassroom":"D","exampleSet":"first","trial_type":"survey-html-form","trial_index":94,"time_elapsed":722409,"internal_node_id":"0.0-93.0-0.0","params":{"nStudents":24,"maxFlips":30,"completionMinutes":45,"basePay":8,"maxBonus":9,"perTrialBonus":0.5,"perTrialBonusThreshold":0.05,"exampleCost":0.01},"classroomParams":{"A":{"a":1,"b":4},"B":{"a":4,"b":1},"C":{"a":2,"b":8},"D":{"a":8,"b":2}},"conditions":["nonSeqFull","nonSeqPartial","seqNoFeedback","seqFeedback"],"classroomPairings":[["A","B"],["C","D"]],"coinWeights":[0.2,0.5,0.8],"subjectId":"A2ONILC0LZKG6Y","assignmentId":"3EA3QWIZ4JHN1VVI07HYF7RB77IITI","hitId":"363A7XIFV48LMLIF2CKYA8VQSVQAVR","url":"https://gershmanlab.com/experiments/alicia/teaching/experiment/?hitId=363A7XIFV48LMLIF2CKYA8VQSVQAVR&workerId=A2ONILC0LZKG6Y&assignmentId=3EA3QWIZ4JHN1VVI07HYF7RB77IITI&a=ZQAE9&tp_a=ZQAE9&b=3EA3QWIZ4JHN1VVI07HYF7RB77IITI&tp_b=3EA3QWIZ4JHN1VVI07HYF7RB77IITI&c=365799&tp_c=365799","heads":8,"tails":2,"studentIndex":11,"studentTrueHypers":{"a":8,"b":2},"studentGuess":0.8,"delta":0,"totalExamples":10,"bonusSoFar":1.74},{"rt":7844,"response":{"heads":"8","tails":"2"},"type":"response","condition":"seqFeedback","trueTheta":0.8,"classrooms":["C","D"],"studentTrueClassroom":"D","exampleSet":"second","trial_type":"survey-html-form","trial_index":98,"time_elapsed":739709,"internal_node_id":"0.0-97.0-0.0","params":{"nStudents":24,"maxFlips":30,"completionMinutes":45,"basePay":8,"maxBonus":9,"perTrialBonus":0.5,"perTrialBonusThreshold":0.05,"exampleCost":0.01},"classroomParams":{"A":{"a":1,"b":4},"B":{"a":4,"b":1},"C":{"a":2,"b":8},"D":{"a":8,"b":2}},"conditions":["nonSeqFull","nonSeqPartial","seqNoFeedback","seqFeedback"],"classroomPairings":[["A","B"],["C","D"]],"coinWeights":[0.2,0.5,0.8],"subjectId":"A2ONILC0LZKG6Y","assignmentId":"3EA3QWIZ4JHN1VVI07HYF7RB77IITI","hitId":"363A7XIFV48LMLIF2CKYA8VQSVQAVR","url":"https://gershmanlab.com/experiments/alicia/teaching/experiment/?hitId=363A7XIFV48LMLIF2CKYA8VQSVQAVR&workerId=A2ONILC0LZKG6Y&assignmentId=3EA3QWIZ4JHN1VVI07HYF7RB77IITI&a=ZQAE9&tp_a=ZQAE9&b=3EA3QWIZ4JHN1VVI07HYF7RB77IITI&tp_b=3EA3QWIZ4JHN1VVI07HYF7RB77IITI&c=365799&tp_c=365799","firstResponseHeads":8,"firstResponseTails":2,"secondResponseHeads":8,"secondResponseTails":2,"totalHeads":16,"totalTails":4,"studentIndex":11,"studentTrueHypers":{"a":8,"b":2},"studentGuess":0.8,"delta":0,"bonus":0.3,"bonusSoFar":2.04,"totalExamples":20},{"rt":9023,"response":{"heads":"10","tails":"10"},"type":"response","condition":"nonSeqPartial","trueTheta":0.5,"classrooms":["A","B"],"studentTrueClassroom":"A","exampleSet":"first","trial_type":"survey-html-form","trial_index":104,"time_elapsed":761045,"internal_node_id":"0.0-103.0-0.0","params":{"nStudents":24,"maxFlips":30,"completionMinutes":45,"basePay":8,"maxBonus":9,"perTrialBonus":0.5,"perTrialBonusThreshold":0.05,"exampleCost":0.01},"classroomParams":{"A":{"a":1,"b":4},"B":{"a":4,"b":1},"C":{"a":2,"b":8},"D":{"a":8,"b":2}},"conditions":["nonSeqFull","nonSeqPartial","seqNoFeedback","seqFeedback"],"classroomPairings":[["A","B"],["C","D"]],"coinWeights":[0.2,0.5,0.8],"subjectId":"A2ONILC0LZKG6Y","assignmentId":"3EA3QWIZ4JHN1VVI07HYF7RB77IITI","hitId":"363A7XIFV48LMLIF2CKYA8VQSVQAVR","url":"https://gershmanlab.com/experiments/alicia/teaching/experiment/?hitId=363A7XIFV48LMLIF2CKYA8VQSVQAVR&workerId=A2ONILC0LZKG6Y&assignmentId=3EA3QWIZ4JHN1VVI07HYF7RB77IITI&a=ZQAE9&tp_a=ZQAE9&b=3EA3QWIZ4JHN1VVI07HYF7RB77IITI&tp_b=3EA3QWIZ4JHN1VVI07HYF7RB77IITI&c=365799&tp_c=365799","heads":10,"tails":10,"studentIndex":12,"studentTrueHypers":{"a":1,"b":4},"studentGuess":0.44,"delta":0.06,"totalExamples":20,"bonus":0,"bonusSoFar":2.04},{"rt":22108,"response":{"heads":"2","tails":"14"},"type":"response","condition":"nonSeqFull","trueTheta":0.2,"classrooms":["A","B"],"studentTrueClassroom":"B","exampleSet":"first","trial_type":"survey-html-form","trial_index":110,"time_elapsed":797195,"internal_node_id":"0.0-109.0-0.0","params":{"nStudents":24,"maxFlips":30,"completionMinutes":45,"basePay":8,"maxBonus":9,"perTrialBonus":0.5,"perTrialBonusThreshold":0.05,"exampleCost":0.01},"classroomParams":{"A":{"a":1,"b":4},"B":{"a":4,"b":1},"C":{"a":2,"b":8},"D":{"a":8,"b":2}},"conditions":["nonSeqFull","nonSeqPartial","seqNoFeedback","seqFeedback"],"classroomPairings":[["A","B"],["C","D"]],"coinWeights":[0.2,0.5,0.8],"subjectId":"A2ONILC0LZKG6Y","assignmentId":"3EA3QWIZ4JHN1VVI07HYF7RB77IITI","hitId":"363A7XIFV48LMLIF2CKYA8VQSVQAVR","url":"https://gershmanlab.com/experiments/alicia/teaching/experiment/?hitId=363A7XIFV48LMLIF2CKYA8VQSVQAVR&workerId=A2ONILC0LZKG6Y&assignmentId=3EA3QWIZ4JHN1VVI07HYF7RB77IITI&a=ZQAE9&tp_a=ZQAE9&b=3EA3QWIZ4JHN1VVI07HYF7RB77IITI&tp_b=3EA3QWIZ4JHN1VVI07HYF7RB77IITI&c=365799&tp_c=365799","heads":2,"tails":14,"studentIndex":13,"studentTrueHypers":{"a":4,"b":1},"studentGuess":0.2857142857142857,"delta":0.08571428571428569,"totalExamples":16,"bonus":0,"bonusSoFar":2.04},{"rt":7742,"response":{"heads":"2","tails":"12"},"type":"response","condition":"seqNoFeedback","trueTheta":0.2,"classrooms":["A","B"],"studentTrueClassroom":"B","exampleSet":"first","trial_type":"survey-html-form","trial_index":116,"time_elapsed":817432,"internal_node_id":"0.0-115.0-0.0","params":{"nStudents":24,"maxFlips":30,"completionMinutes":45,"basePay":8,"maxBonus":9,"perTrialBonus":0.5,"perTrialBonusThreshold":0.05,"exampleCost":0.01},"classroomParams":{"A":{"a":1,"b":4},"B":{"a":4,"b":1},"C":{"a":2,"b":8},"D":{"a":8,"b":2}},"conditions":["nonSeqFull","nonSeqPartial","seqNoFeedback","seqFeedback"],"classroomPairings":[["A","B"],["C","D"]],"coinWeights":[0.2,0.5,0.8],"subjectId":"A2ONILC0LZKG6Y","assignmentId":"3EA3QWIZ4JHN1VVI07HYF7RB77IITI","hitId":"363A7XIFV48LMLIF2CKYA8VQSVQAVR","url":"https://gershmanlab.com/experiments/alicia/teaching/experiment/?hitId=363A7XIFV48LMLIF2CKYA8VQSVQAVR&workerId=A2ONILC0LZKG6Y&assignmentId=3EA3QWIZ4JHN1VVI07HYF7RB77IITI&a=ZQAE9&tp_a=ZQAE9&b=3EA3QWIZ4JHN1VVI07HYF7RB77IITI&tp_b=3EA3QWIZ4JHN1VVI07HYF7RB77IITI&c=365799&tp_c=365799","heads":2,"tails":12,"studentIndex":14,"studentTrueHypers":{"a":4,"b":1},"studentGuess":0.3157894736842105,"delta":0.1157894736842105,"totalExamples":14,"bonusSoFar":2.04},{"rt":20813,"response":{"heads":"2","tails":"9"},"type":"response","condition":"seqNoFeedback","trueTheta":0.2,"classrooms":["A","B"],"studentTrueClassroom":"B","exampleSet":"second","trial_type":"survey-html-form","trial_index":119,"time_elapsed":844766,"internal_node_id":"0.0-118.0-0.0","params":{"nStudents":24,"maxFlips":30,"completionMinutes":45,"basePay":8,"maxBonus":9,"perTrialBonus":0.5,"perTrialBonusThreshold":0.05,"exampleCost":0.01},"classroomParams":{"A":{"a":1,"b":4},"B":{"a":4,"b":1},"C":{"a":2,"b":8},"D":{"a":8,"b":2}},"conditions":["nonSeqFull","nonSeqPartial","seqNoFeedback","seqFeedback"],"classroomPairings":[["A","B"],["C","D"]],"coinWeights":[0.2,0.5,0.8],"subjectId":"A2ONILC0LZKG6Y","assignmentId":"3EA3QWIZ4JHN1VVI07HYF7RB77IITI","hitId":"363A7XIFV48LMLIF2CKYA8VQSVQAVR","url":"https://gershmanlab.com/experiments/alicia/teaching/experiment/?hitId=363A7XIFV48LMLIF2CKYA8VQSVQAVR&workerId=A2ONILC0LZKG6Y&assignmentId=3EA3QWIZ4JHN1VVI07HYF7RB77IITI&a=ZQAE9&tp_a=ZQAE9&b=3EA3QWIZ4JHN1VVI07HYF7RB77IITI&tp_b=3EA3QWIZ4JHN1VVI07HYF7RB77IITI&c=365799&tp_c=365799","firstResponseHeads":2,"firstResponseTails":12,"secondResponseHeads":2,"secondResponseTails":9,"totalHeads":4,"totalTails":21,"studentIndex":14,"studentTrueHypers":{"a":4,"b":1},"studentGuess":0.26666666666666666,"delta":0.06666666666666665,"bonus":0,"bonusSoFar":2.04,"totalExamples":25},{"rt":10121,"response":{"heads":"8","tails":"2"},"type":"response","condition":"seqNoFeedback","trueTheta":0.8,"classrooms":["C","D"],"studentTrueClassroom":"C","exampleSet":"first","trial_type":"survey-html-form","trial_index":125,"time_elapsed":866132,"internal_node_id":"0.0-124.0-0.0","params":{"nStudents":24,"maxFlips":30,"completionMinutes":45,"basePay":8,"maxBonus":9,"perTrialBonus":0.5,"perTrialBonusThreshold":0.05,"exampleCost":0.01},"classroomParams":{"A":{"a":1,"b":4},"B":{"a":4,"b":1},"C":{"a":2,"b":8},"D":{"a":8,"b":2}},"conditions":["nonSeqFull","nonSeqPartial","seqNoFeedback","seqFeedback"],"classroomPairings":[["A","B"],["C","D"]],"coinWeights":[0.2,0.5,0.8],"subjectId":"A2ONILC0LZKG6Y","assignmentId":"3EA3QWIZ4JHN1VVI07HYF7RB77IITI","hitId":"363A7XIFV48LMLIF2CKYA8VQSVQAVR","url":"https://gershmanlab.com/experiments/alicia/teaching/experiment/?hitId=363A7XIFV48LMLIF2CKYA8VQSVQAVR&workerId=A2ONILC0LZKG6Y&assignmentId=3EA3QWIZ4JHN1VVI07HYF7RB77IITI&a=ZQAE9&tp_a=ZQAE9&b=3EA3QWIZ4JHN1VVI07HYF7RB77IITI&tp_b=3EA3QWIZ4JHN1VVI07HYF7RB77IITI&c=365799&tp_c=365799","heads":8,"tails":2,"studentIndex":15,"studentTrueHypers":{"a":2,"b":8},"studentGuess":0.5,"delta":0.30000000000000004,"totalExamples":10,"bonusSoFar":2.04},{"rt":21127,"response":{"heads":"8","tails":"2"},"type":"response","condition":"seqNoFeedback","trueTheta":0.8,"classrooms":["C","D"],"studentTrueClassroom":"C","exampleSet":"second","trial_type":"survey-html-form","trial_index":128,"time_elapsed":893791,"internal_node_id":"0.0-127.0-0.0","params":{"nStudents":24,"maxFlips":30,"completionMinutes":45,"basePay":8,"maxBonus":9,"perTrialBonus":0.5,"perTrialBonusThreshold":0.05,"exampleCost":0.01},"classroomParams":{"A":{"a":1,"b":4},"B":{"a":4,"b":1},"C":{"a":2,"b":8},"D":{"a":8,"b":2}},"conditions":["nonSeqFull","nonSeqPartial","seqNoFeedback","seqFeedback"],"classroomPairings":[["A","B"],["C","D"]],"coinWeights":[0.2,0.5,0.8],"subjectId":"A2ONILC0LZKG6Y","assignmentId":"3EA3QWIZ4JHN1VVI07HYF7RB77IITI","hitId":"363A7XIFV48LMLIF2CKYA8VQSVQAVR","url":"https://gershmanlab.com/experiments/alicia/teaching/experiment/?hitId=363A7XIFV48LMLIF2CKYA8VQSVQAVR&workerId=A2ONILC0LZKG6Y&assignmentId=3EA3QWIZ4JHN1VVI07HYF7RB77IITI&a=ZQAE9&tp_a=ZQAE9&b=3EA3QWIZ4JHN1VVI07HYF7RB77IITI&tp_b=3EA3QWIZ4JHN1VVI07HYF7RB77IITI&c=365799&tp_c=365799","firstResponseHeads":8,"firstResponseTails":2,"secondResponseHeads":8,"secondResponseTails":2,"totalHeads":16,"totalTails":4,"studentIndex":15,"studentTrueHypers":{"a":2,"b":8},"studentGuess":0.6,"delta":0.20000000000000007,"bonus":0,"bonusSoFar":2.04,"totalExamples":20},{"rt":9412,"response":{"heads":"7","tails":"7"},"type":"response","condition":"seqFeedback","trueTheta":0.5,"classrooms":["A","B"],"studentTrueClassroom":"B","exampleSet":"first","trial_type":"survey-html-form","trial_index":134,"time_elapsed":920697,"internal_node_id":"0.0-133.0-0.0","params":{"nStudents":24,"maxFlips":30,"completionMinutes":45,"basePay":8,"maxBonus":9,"perTrialBonus":0.5,"perTrialBonusThreshold":0.05,"exampleCost":0.01},"classroomParams":{"A":{"a":1,"b":4},"B":{"a":4,"b":1},"C":{"a":2,"b":8},"D":{"a":8,"b":2}},"conditions":["nonSeqFull","nonSeqPartial","seqNoFeedback","seqFeedback"],"classroomPairings":[["A","B"],["C","D"]],"coinWeights":[0.2,0.5,0.8],"subjectId":"A2ONILC0LZKG6Y","assignmentId":"3EA3QWIZ4JHN1VVI07HYF7RB77IITI","hitId":"363A7XIFV48LMLIF2CKYA8VQSVQAVR","url":"https://gershmanlab.com/experiments/alicia/teaching/experiment/?hitId=363A7XIFV48LMLIF2CKYA8VQSVQAVR&workerId=A2ONILC0LZKG6Y&assignmentId=3EA3QWIZ4JHN1VVI07HYF7RB77IITI&a=ZQAE9&tp_a=ZQAE9&b=3EA3QWIZ4JHN1VVI07HYF7RB77IITI&tp_b=3EA3QWIZ4JHN1VVI07HYF7RB77IITI&c=365799&tp_c=365799","heads":7,"tails":7,"studentIndex":16,"studentTrueHypers":{"a":4,"b":1},"studentGuess":0.5789473684210527,"delta":0.07894736842105265,"totalExamples":14,"bonusSoFar":2.04},{"rt":5429,"response":{"heads":"10","tails":"10"},"type":"response","condition":"seqFeedback","trueTheta":0.5,"classrooms":["A","B"],"studentTrueClassroom":"B","exampleSet":"second","trial_type":"survey-html-form","trial_index":138,"time_elapsed":934741,"internal_node_id":"0.0-137.0-0.0","params":{"nStudents":24,"maxFlips":30,"completionMinutes":45,"basePay":8,"maxBonus":9,"perTrialBonus":0.5,"perTrialBonusThreshold":0.05,"exampleCost":0.01},"classroomParams":{"A":{"a":1,"b":4},"B":{"a":4,"b":1},"C":{"a":2,"b":8},"D":{"a":8,"b":2}},"conditions":["nonSeqFull","nonSeqPartial","seqNoFeedback","seqFeedback"],"classroomPairings":[["A","B"],["C","D"]],"coinWeights":[0.2,0.5,0.8],"subjectId":"A2ONILC0LZKG6Y","assignmentId":"3EA3QWIZ4JHN1VVI07HYF7RB77IITI","hitId":"363A7XIFV48LMLIF2CKYA8VQSVQAVR","url":"https://gershmanlab.com/experiments/alicia/teaching/experiment/?hitId=363A7XIFV48LMLIF2CKYA8VQSVQAVR&workerId=A2ONILC0LZKG6Y&assignmentId=3EA3QWIZ4JHN1VVI07HYF7RB77IITI&a=ZQAE9&tp_a=ZQAE9&b=3EA3QWIZ4JHN1VVI07HYF7RB77IITI&tp_b=3EA3QWIZ4JHN1VVI07HYF7RB77IITI&c=365799&tp_c=365799","firstResponseHeads":7,"firstResponseTails":7,"secondResponseHeads":10,"secondResponseTails":10,"totalHeads":17,"totalTails":17,"studentIndex":16,"studentTrueHypers":{"a":4,"b":1},"studentGuess":0.5384615384615384,"delta":0.038461538461538436,"bonus":0.16,"bonusSoFar":2.2,"totalExamples":34},{"rt":11545,"response":{"heads":"12","tails":"12"},"type":"response","condition":"nonSeqPartial","trueTheta":0.5,"classrooms":["C","D"],"studentTrueClassroom":"D","exampleSet":"first","trial_type":"survey-html-form","trial_index":144,"time_elapsed":958278,"internal_node_id":"0.0-143.0-0.0","params":{"nStudents":24,"maxFlips":30,"completionMinutes":45,"basePay":8,"maxBonus":9,"perTrialBonus":0.5,"perTrialBonusThreshold":0.05,"exampleCost":0.01},"classroomParams":{"A":{"a":1,"b":4},"B":{"a":4,"b":1},"C":{"a":2,"b":8},"D":{"a":8,"b":2}},"conditions":["nonSeqFull","nonSeqPartial","seqNoFeedback","seqFeedback"],"classroomPairings":[["A","B"],["C","D"]],"coinWeights":[0.2,0.5,0.8],"subjectId":"A2ONILC0LZKG6Y","assignmentId":"3EA3QWIZ4JHN1VVI07HYF7RB77IITI","hitId":"363A7XIFV48LMLIF2CKYA8VQSVQAVR","url":"https://gershmanlab.com/experiments/alicia/teaching/experiment/?hitId=363A7XIFV48LMLIF2CKYA8VQSVQAVR&workerId=A2ONILC0LZKG6Y&assignmentId=3EA3QWIZ4JHN1VVI07HYF7RB77IITI&a=ZQAE9&tp_a=ZQAE9&b=3EA3QWIZ4JHN1VVI07HYF7RB77IITI&tp_b=3EA3QWIZ4JHN1VVI07HYF7RB77IITI&c=365799&tp_c=365799","heads":12,"tails":12,"studentIndex":17,"studentTrueHypers":{"a":8,"b":2},"studentGuess":0.5882352941176471,"delta":0.08823529411764708,"totalExamples":24,"bonus":0,"bonusSoFar":2.2},{"rt":8812,"response":{"heads":"2","tails":"8"},"type":"response","condition":"seqNoFeedback","trueTheta":0.2,"classrooms":["C","D"],"studentTrueClassroom":"C","exampleSet":"first","trial_type":"survey-html-form","trial_index":150,"time_elapsed":981316,"internal_node_id":"0.0-149.0-0.0","params":{"nStudents":24,"maxFlips":30,"completionMinutes":45,"basePay":8,"maxBonus":9,"perTrialBonus":0.5,"perTrialBonusThreshold":0.05,"exampleCost":0.01},"classroomParams":{"A":{"a":1,"b":4},"B":{"a":4,"b":1},"C":{"a":2,"b":8},"D":{"a":8,"b":2}},"conditions":["nonSeqFull","nonSeqPartial","seqNoFeedback","seqFeedback"],"classroomPairings":[["A","B"],["C","D"]],"coinWeights":[0.2,0.5,0.8],"subjectId":"A2ONILC0LZKG6Y","assignmentId":"3EA3QWIZ4JHN1VVI07HYF7RB77IITI","hitId":"363A7XIFV48LMLIF2CKYA8VQSVQAVR","url":"https://gershmanlab.com/experiments/alicia/teaching/experiment/?hitId=363A7XIFV48LMLIF2CKYA8VQSVQAVR&workerId=A2ONILC0LZKG6Y&assignmentId=3EA3QWIZ4JHN1VVI07HYF7RB77IITI&a=ZQAE9&tp_a=ZQAE9&b=3EA3QWIZ4JHN1VVI07HYF7RB77IITI&tp_b=3EA3QWIZ4JHN1VVI07HYF7RB77IITI&c=365799&tp_c=365799","heads":2,"tails":8,"studentIndex":18,"studentTrueHypers":{"a":2,"b":8},"studentGuess":0.2,"delta":0,"totalExamples":10,"bonusSoFar":2.2},{"rt":16162,"response":{"heads":"4","tails":"16"},"type":"response","condition":"seqNoFeedback","trueTheta":0.2,"classrooms":["C","D"],"studentTrueClassroom":"C","exampleSet":"second","trial_type":"survey-html-form","trial_index":153,"time_elapsed":1004754,"internal_node_id":"0.0-152.0-0.0","params":{"nStudents":24,"maxFlips":30,"completionMinutes":45,"basePay":8,"maxBonus":9,"perTrialBonus":0.5,"perTrialBonusThreshold":0.05,"exampleCost":0.01},"classroomParams":{"A":{"a":1,"b":4},"B":{"a":4,"b":1},"C":{"a":2,"b":8},"D":{"a":8,"b":2}},"conditions":["nonSeqFull","nonSeqPartial","seqNoFeedback","seqFeedback"],"classroomPairings":[["A","B"],["C","D"]],"coinWeights":[0.2,0.5,0.8],"subjectId":"A2ONILC0LZKG6Y","assignmentId":"3EA3QWIZ4JHN1VVI07HYF7RB77IITI","hitId":"363A7XIFV48LMLIF2CKYA8VQSVQAVR","url":"https://gershmanlab.com/experiments/alicia/teaching/experiment/?hitId=363A7XIFV48LMLIF2CKYA8VQSVQAVR&workerId=A2ONILC0LZKG6Y&assignmentId=3EA3QWIZ4JHN1VVI07HYF7RB77IITI&a=ZQAE9&tp_a=ZQAE9&b=3EA3QWIZ4JHN1VVI07HYF7RB77IITI&tp_b=3EA3QWIZ4JHN1VVI07HYF7RB77IITI&c=365799&tp_c=365799","firstResponseHeads":2,"firstResponseTails":8,"secondResponseHeads":4,"secondResponseTails":16,"totalHeads":6,"totalTails":24,"studentIndex":18,"studentTrueHypers":{"a":2,"b":8},"studentGuess":0.2,"delta":0,"bonus":0.2,"bonusSoFar":2.4,"totalExamples":30},{"rt":10715,"response":{"heads":"4","tails":"16"},"type":"response","condition":"nonSeqPartial","trueTheta":0.2,"classrooms":["C","D"],"studentTrueClassroom":"C","exampleSet":"first","trial_type":"survey-html-form","trial_index":159,"time_elapsed":1028037,"internal_node_id":"0.0-158.0-0.0","params":{"nStudents":24,"maxFlips":30,"completionMinutes":45,"basePay":8,"maxBonus":9,"perTrialBonus":0.5,"perTrialBonusThreshold":0.05,"exampleCost":0.01},"classroomParams":{"A":{"a":1,"b":4},"B":{"a":4,"b":1},"C":{"a":2,"b":8},"D":{"a":8,"b":2}},"conditions":["nonSeqFull","nonSeqPartial","seqNoFeedback","seqFeedback"],"classroomPairings":[["A","B"],["C","D"]],"coinWeights":[0.2,0.5,0.8],"subjectId":"A2ONILC0LZKG6Y","assignmentId":"3EA3QWIZ4JHN1VVI07HYF7RB77IITI","hitId":"363A7XIFV48LMLIF2CKYA8VQSVQAVR","url":"https://gershmanlab.com/experiments/alicia/teaching/experiment/?hitId=363A7XIFV48LMLIF2CKYA8VQSVQAVR&workerId=A2ONILC0LZKG6Y&assignmentId=3EA3QWIZ4JHN1VVI07HYF7RB77IITI&a=ZQAE9&tp_a=ZQAE9&b=3EA3QWIZ4JHN1VVI07HYF7RB77IITI&tp_b=3EA3QWIZ4JHN1VVI07HYF7RB77IITI&c=365799&tp_c=365799","heads":4,"tails":16,"studentIndex":19,"studentTrueHypers":{"a":2,"b":8},"studentGuess":0.2,"delta":0,"totalExamples":20,"bonus":0.3,"bonusSoFar":2.7},{"rt":8495,"response":{"heads":"8","tails":"2"},"type":"response","condition":"seqFeedback","trueTheta":0.8,"classrooms":["A","B"],"studentTrueClassroom":"A","exampleSet":"first","trial_type":"survey-html-form","trial_index":165,"time_elapsed":1048975,"internal_node_id":"0.0-164.0-0.0","params":{"nStudents":24,"maxFlips":30,"completionMinutes":45,"basePay":8,"maxBonus":9,"perTrialBonus":0.5,"perTrialBonusThreshold":0.05,"exampleCost":0.01},"classroomParams":{"A":{"a":1,"b":4},"B":{"a":4,"b":1},"C":{"a":2,"b":8},"D":{"a":8,"b":2}},"conditions":["nonSeqFull","nonSeqPartial","seqNoFeedback","seqFeedback"],"classroomPairings":[["A","B"],["C","D"]],"coinWeights":[0.2,0.5,0.8],"subjectId":"A2ONILC0LZKG6Y","assignmentId":"3EA3QWIZ4JHN1VVI07HYF7RB77IITI","hitId":"363A7XIFV48LMLIF2CKYA8VQSVQAVR","url":"https://gershmanlab.com/experiments/alicia/teaching/experiment/?hitId=363A7XIFV48LMLIF2CKYA8VQSVQAVR&workerId=A2ONILC0LZKG6Y&assignmentId=3EA3QWIZ4JHN1VVI07HYF7RB77IITI&a=ZQAE9&tp_a=ZQAE9&b=3EA3QWIZ4JHN1VVI07HYF7RB77IITI&tp_b=3EA3QWIZ4JHN1VVI07HYF7RB77IITI&c=365799&tp_c=365799","heads":8,"tails":2,"studentIndex":20,"studentTrueHypers":{"a":1,"b":4},"studentGuess":0.6,"delta":0.20000000000000007,"totalExamples":10,"bonusSoFar":2.7},{"rt":18366,"response":{"heads":"12","tails":"3"},"type":"response","condition":"seqFeedback","trueTheta":0.8,"classrooms":["A","B"],"studentTrueClassroom":"A","exampleSet":"second","trial_type":"survey-html-form","trial_index":169,"time_elapsed":1077295,"internal_node_id":"0.0-168.0-0.0","params":{"nStudents":24,"maxFlips":30,"completionMinutes":45,"basePay":8,"maxBonus":9,"perTrialBonus":0.5,"perTrialBonusThreshold":0.05,"exampleCost":0.01},"classroomParams":{"A":{"a":1,"b":4},"B":{"a":4,"b":1},"C":{"a":2,"b":8},"D":{"a":8,"b":2}},"conditions":["nonSeqFull","nonSeqPartial","seqNoFeedback","seqFeedback"],"classroomPairings":[["A","B"],["C","D"]],"coinWeights":[0.2,0.5,0.8],"subjectId":"A2ONILC0LZKG6Y","assignmentId":"3EA3QWIZ4JHN1VVI07HYF7RB77IITI","hitId":"363A7XIFV48LMLIF2CKYA8VQSVQAVR","url":"https://gershmanlab.com/experiments/alicia/teaching/experiment/?hitId=363A7XIFV48LMLIF2CKYA8VQSVQAVR&workerId=A2ONILC0LZKG6Y&assignmentId=3EA3QWIZ4JHN1VVI07HYF7RB77IITI&a=ZQAE9&tp_a=ZQAE9&b=3EA3QWIZ4JHN1VVI07HYF7RB77IITI&tp_b=3EA3QWIZ4JHN1VVI07HYF7RB77IITI&c=365799&tp_c=365799","firstResponseHeads":8,"firstResponseTails":2,"secondResponseHeads":12,"secondResponseTails":3,"totalHeads":20,"totalTails":5,"studentIndex":20,"studentTrueHypers":{"a":1,"b":4},"studentGuess":0.7,"delta":0.10000000000000009,"bonus":0,"bonusSoFar":2.7,"totalExamples":25},{"rt":15223,"response":{"heads":"12","tails":"10"},"type":"response","condition":"nonSeqFull","trueTheta":0.5,"classrooms":["A","B"],"studentTrueClassroom":"A","exampleSet":"first","trial_type":"survey-html-form","trial_index":175,"time_elapsed":1107831,"internal_node_id":"0.0-174.0-0.0","params":{"nStudents":24,"maxFlips":30,"completionMinutes":45,"basePay":8,"maxBonus":9,"perTrialBonus":0.5,"perTrialBonusThreshold":0.05,"exampleCost":0.01},"classroomParams":{"A":{"a":1,"b":4},"B":{"a":4,"b":1},"C":{"a":2,"b":8},"D":{"a":8,"b":2}},"conditions":["nonSeqFull","nonSeqPartial","seqNoFeedback","seqFeedback"],"classroomPairings":[["A","B"],["C","D"]],"coinWeights":[0.2,0.5,0.8],"subjectId":"A2ONILC0LZKG6Y","assignmentId":"3EA3QWIZ4JHN1VVI07HYF7RB77IITI","hitId":"363A7XIFV48LMLIF2CKYA8VQSVQAVR","url":"https://gershmanlab.com/experiments/alicia/teaching/experiment/?hitId=363A7XIFV48LMLIF2CKYA8VQSVQAVR&workerId=A2ONILC0LZKG6Y&assignmentId=3EA3QWIZ4JHN1VVI07HYF7RB77IITI&a=ZQAE9&tp_a=ZQAE9&b=3EA3QWIZ4JHN1VVI07HYF7RB77IITI&tp_b=3EA3QWIZ4JHN1VVI07HYF7RB77IITI&c=365799&tp_c=365799","heads":12,"tails":10,"studentIndex":21,"studentTrueHypers":{"a":1,"b":4},"studentGuess":0.48148148148148145,"delta":0.018518518518518545,"totalExamples":22,"bonus":0.28,"bonusSoFar":2.98},{"rt":46111,"response":{"heads":"0","tails":"20"},"type":"response","condition":"nonSeqFull","trueTheta":0.2,"classrooms":["C","D"],"studentTrueClassroom":"D","exampleSet":"first","trial_type":"survey-html-form","trial_index":181,"time_elapsed":1165475,"internal_node_id":"0.0-180.0-0.0","params":{"nStudents":24,"maxFlips":30,"completionMinutes":45,"basePay":8,"maxBonus":9,"perTrialBonus":0.5,"perTrialBonusThreshold":0.05,"exampleCost":0.01},"classroomParams":{"A":{"a":1,"b":4},"B":{"a":4,"b":1},"C":{"a":2,"b":8},"D":{"a":8,"b":2}},"conditions":["nonSeqFull","nonSeqPartial","seqNoFeedback","seqFeedback"],"classroomPairings":[["A","B"],["C","D"]],"coinWeights":[0.2,0.5,0.8],"subjectId":"A2ONILC0LZKG6Y","assignmentId":"3EA3QWIZ4JHN1VVI07HYF7RB77IITI","hitId":"363A7XIFV48LMLIF2CKYA8VQSVQAVR","url":"https://gershmanlab.com/experiments/alicia/teaching/experiment/?hitId=363A7XIFV48LMLIF2CKYA8VQSVQAVR&workerId=A2ONILC0LZKG6Y&assignmentId=3EA3QWIZ4JHN1VVI07HYF7RB77IITI&a=ZQAE9&tp_a=ZQAE9&b=3EA3QWIZ4JHN1VVI07HYF7RB77IITI&tp_b=3EA3QWIZ4JHN1VVI07HYF7RB77IITI&c=365799&tp_c=365799","heads":0,"tails":20,"studentIndex":22,"studentTrueHypers":{"a":8,"b":2},"studentGuess":0.26666666666666666,"delta":0.06666666666666665,"totalExamples":20,"bonus":0,"bonusSoFar":2.98},{"rt":37241,"response":{"heads":"24","tails":"0"},"type":"response","condition":"nonSeqFull","trueTheta":0.8,"classrooms":["C","D"],"studentTrueClassroom":"C","exampleSet":"first","trial_type":"survey-html-form","trial_index":187,"time_elapsed":1216053,"internal_node_id":"0.0-186.0-0.0","params":{"nStudents":24,"maxFlips":30,"completionMinutes":45,"basePay":8,"maxBonus":9,"perTrialBonus":0.5,"perTrialBonusThreshold":0.05,"exampleCost":0.01},"classroomParams":{"A":{"a":1,"b":4},"B":{"a":4,"b":1},"C":{"a":2,"b":8},"D":{"a":8,"b":2}},"conditions":["nonSeqFull","nonSeqPartial","seqNoFeedback","seqFeedback"],"classroomPairings":[["A","B"],["C","D"]],"coinWeights":[0.2,0.5,0.8],"subjectId":"A2ONILC0LZKG6Y","assignmentId":"3EA3QWIZ4JHN1VVI07HYF7RB77IITI","hitId":"363A7XIFV48LMLIF2CKYA8VQSVQAVR","url":"https://gershmanlab.com/experiments/alicia/teaching/experiment/?hitId=363A7XIFV48LMLIF2CKYA8VQSVQAVR&workerId=A2ONILC0LZKG6Y&assignmentId=3EA3QWIZ4JHN1VVI07HYF7RB77IITI&a=ZQAE9&tp_a=ZQAE9&b=3EA3QWIZ4JHN1VVI07HYF7RB77IITI&tp_b=3EA3QWIZ4JHN1VVI07HYF7RB77IITI&c=365799&tp_c=365799","heads":24,"tails":0,"studentIndex":23,"studentTrueHypers":{"a":2,"b":8},"studentGuess":0.7647058823529411,"delta":0.03529411764705892,"totalExamples":24,"bonus":0.26,"bonusSoFar":3.24},{"rt":17948,"response":{"gender":"female","age":"45","understood":"yes","comments":"No, thank you."},"type":"response","trial_type":"survey-html-form","trial_index":191,"time_elapsed":1243109,"internal_node_id":"0.0-191.0","params":{"nStudents":24,"maxFlips":30,"completionMinutes":45,"basePay":8,"maxBonus":9,"perTrialBonus":0.5,"perTrialBonusThreshold":0.05,"exampleCost":0.01},"classroomParams":{"A":{"a":1,"b":4},"B":{"a":4,"b":1},"C":{"a":2,"b":8},"D":{"a":8,"b":2}},"conditions":["nonSeqFull","nonSeqPartial","seqNoFeedback","seqFeedback"],"classroomPairings":[["A","B"],["C","D"]],"coinWeights":[0.2,0.5,0.8],"subjectId":"A2ONILC0LZKG6Y","assignmentId":"3EA3QWIZ4JHN1VVI07HYF7RB77IITI","hitId":"363A7XIFV48LMLIF2CKYA8VQSVQAVR","url":"https://gershmanlab.com/experiments/alicia/teaching/experiment/?hitId=363A7XIFV48LMLIF2CKYA8VQSVQAVR&workerId=A2ONILC0LZKG6Y&assignmentId=3EA3QWIZ4JHN1VVI07HYF7RB77IITI&a=ZQAE9&tp_a=ZQAE9&b=3EA3QWIZ4JHN1VVI07HYF7RB77IITI&tp_b=3EA3QWIZ4JHN1VVI07HYF7RB77IITI&c=365799&tp_c=365799","totalBonus":3.24}]