[{"rt":44937,"response":{"heads":"8","tails":"2"},"type":"response","condition":"nonSeqPartial","trueTheta":0.8,"classrooms":["C","D"],"studentTrueClassroom":"C","exampleSet":"first","trial_type":"survey-html-form","trial_index":22,"time_elapsed":576453,"internal_node_id":"0.0-6.0-0.0","params":{"nStudents":24,"maxFlips":30,"completionMinutes":45,"basePay":8,"maxBonus":9,"perTrialBonus":0.5,"perTrialBonusThreshold":0.05,"exampleCost":0.01},"classroomParams":{"A":{"a":1,"b":4},"B":{"a":4,"b":1},"C":{"a":2,"b":8},"D":{"a":8,"b":2}},"conditions":["nonSeqFull","nonSeqPartial","seqNoFeedback","seqFeedback"],"classroomPairings":[["A","B"],["C","D"]],"coinWeights":[0.2,0.5,0.8],"subjectId":"A2PN6GNPPPHWQO","assignmentId":"39K0FND3AI14IIM0FMO9CV800RHAM5","hitId":"3E9VAUV7BW02QFDK7N7IH7ZKACRYAN","url":"https://gershmanlab.com/experiments/alicia/teaching/experiment/?hitId=3E9VAUV7BW02QFDK7N7IH7ZKACRYAN&workerId=A2PN6GNPPPHWQO&assignmentId=39K0FND3AI14IIM0FMO9CV800RHAM5&a=3FK99&tp_a=3FK99&b=39K0FND3AI14IIM0FMO9CV800RHAM5&tp_b=39K0FND3AI14IIM0FMO9CV800RHAM5&c=365799&tp_c=365799","heads":8,"tails":2,"studentIndex":0,"studentTrueHypers":{"a":2,"b":8},"studentGuess":0.5,"delta":0.30000000000000004,"totalExamples":10,"bonus":0,"bonusSoFar":0},{"rt":52028,"response":{"heads":"18","tails":"2"},"type":"response","condition":"nonSeqFull","trueTheta":0.8,"classrooms":["C","D"],"studentTrueClassroom":"D","exampleSet":"first","trial_type":"survey-html-form","trial_index":28,"time_elapsed":654416,"internal_node_id":"0.0-12.0-0.0","params":{"nStudents":24,"maxFlips":30,"completionMinutes":45,"basePay":8,"maxBonus":9,"perTrialBonus":0.5,"perTrialBonusThreshold":0.05,"exampleCost":0.01},"classroomParams":{"A":{"a":1,"b":4},"B":{"a":4,"b":1},"C":{"a":2,"b":8},"D":{"a":8,"b":2}},"conditions":["nonSeqFull","nonSeqPartial","seqNoFeedback","seqFeedback"],"classroomPairings":[["A","B"],["C","D"]],"coinWeights":[0.2,0.5,0.8],"subjectId":"A2PN6GNPPPHWQO","assignmentId":"39K0FND3AI14IIM0FMO9CV800RHAM5","hitId":"3E9VAUV7BW02QFDK7N7IH7ZKACRYAN","url":"https://gershmanlab.com/experiments/alicia/teaching/experiment/?hitId=3E9VAUV7BW02QFDK7N7IH7ZKACRYAN&workerId=A2PN6GNPPPHWQO&assignmentId=39K0FND3AI14IIM0FMO9CV800RHAM5&a=3FK99&tp_a=3FK99&b=39K0FND3AI14IIM0FMO9CV800RHAM5&tp_b=39K0FND3AI14IIM0FMO9CV800RHAM5&c=365799&tp_c=365799","heads":18,"tails":2,"studentIndex":1,"studentTrueHypers":{"a":8,"b":2},"studentGuess":0.8666666666666667,"delta":0.06666666666666665,"totalExamples":20,"bonus":0,"bonusSoFar":0},{"rt":9589,"response":{"heads":"2","tails":"8"},"type":"response","condition":"nonSeqPartial","trueTheta":0.2,"classrooms":["A","B"],"studentTrueClassroom":"B","exampleSet":"first","trial_type":"survey-html-form","trial_index":34,"time_elapsed":680206,"internal_node_id":"0.0-18.0-0.0","params":{"nStudents":24,"maxFlips":30,"completionMinutes":45,"basePay":8,"maxBonus":9,"perTrialBonus":0.5,"perTrialBonusThreshold":0.05,"exampleCost":0.01},"classroomParams":{"A":{"a":1,"b":4},"B":{"a":4,"b":1},"C":{"a":2,"b":8},"D":{"a":8,"b":2}},"conditions":["nonSeqFull","nonSeqPartial","seqNoFeedback","seqFeedback"],"classroomPairings":[["A","B"],["C","D"]],"coinWeights":[0.2,0.5,0.8],"subjectId":"A2PN6GNPPPHWQO","assignmentId":"39K0FND3AI14IIM0FMO9CV800RHAM5","hitId":"3E9VAUV7BW02QFDK7N7IH7ZKACRYAN","url":"https://gershmanlab.com/experiments/alicia/teaching/experiment/?hitId=3E9VAUV7BW02QFDK7N7IH7ZKACRYAN&workerId=A2PN6GNPPPHWQO&assignmentId=39K0FND3AI14IIM0FMO9CV800RHAM5&a=3FK99&tp_a=3FK99&b=39K0FND3AI14IIM0FMO9CV800RHAM5&tp_b=39K0FND3AI14IIM0FMO9CV800RHAM5&c=365799&tp_c=365799","heads":2,"tails":8,"studentIndex":2,"studentTrueHypers":{"a":4,"b":1},"studentGuess":0.4,"delta":0.2,"totalExamples":10,"bonus":0,"bonusSoFar":0},{"rt":18779,"response":{"heads":"15","tails":"15"},"type":"response","condition":"nonSeqPartial","trueTheta":0.5,"classrooms":["A","B"],"studentTrueClassroom":"B","exampleSet":"first","trial_type":"survey-html-form","trial_index":40,"time_elapsed":713244,"internal_node_id":"0.0-24.0-0.0","params":{"nStudents":24,"maxFlips":30,"completionMinutes":45,"basePay":8,"maxBonus":9,"perTrialBonus":0.5,"perTrialBonusThreshold":0.05,"exampleCost":0.01},"classroomParams":{"A":{"a":1,"b":4},"B":{"a":4,"b":1},"C":{"a":2,"b":8},"D":{"a":8,"b":2}},"conditions":["nonSeqFull","nonSeqPartial","seqNoFeedback","seqFeedback"],"classroomPairings":[["A","B"],["C","D"]],"coinWeights":[0.2,0.5,0.8],"subjectId":"A2PN6GNPPPHWQO","assignmentId":"39K0FND3AI14IIM0FMO9CV800RHAM5","hitId":"3E9VAUV7BW02QFDK7N7IH7ZKACRYAN","url":"https://gershmanlab.com/experiments/alicia/teaching/experiment/?hitId=3E9VAUV7BW02QFDK7N7IH7ZKACRYAN&workerId=A2PN6GNPPPHWQO&assignmentId=39K0FND3AI14IIM0FMO9CV800RHAM5&a=3FK99&tp_a=3FK99&b=39K0FND3AI14IIM0FMO9CV800RHAM5&tp_b=39K0FND3AI14IIM0FMO9CV800RHAM5&c=365799&tp_c=365799","heads":15,"tails":15,"studentIndex":3,"studentTrueHypers":{"a":4,"b":1},"studentGuess":0.5428571428571428,"delta":0.042857142857142816,"totalExamples":30,"bonus":0.2,"bonusSoFar":0.2},{"rt":33751,"response":{"heads":"6","tails":"24"},"type":"response","condition":"seqNoFeedback","trueTheta":0.2,"classrooms":["C","D"],"studentTrueClassroom":"D","exampleSet":"first","trial_type":"survey-html-form","trial_index":46,"time_elapsed":765040,"internal_node_id":"0.0-30.0-0.0","params":{"nStudents":24,"maxFlips":30,"completionMinutes":45,"basePay":8,"maxBonus":9,"perTrialBonus":0.5,"perTrialBonusThreshold":0.05,"exampleCost":0.01},"classroomParams":{"A":{"a":1,"b":4},"B":{"a":4,"b":1},"C":{"a":2,"b":8},"D":{"a":8,"b":2}},"conditions":["nonSeqFull","nonSeqPartial","seqNoFeedback","seqFeedback"],"classroomPairings":[["A","B"],["C","D"]],"coinWeights":[0.2,0.5,0.8],"subjectId":"A2PN6GNPPPHWQO","assignmentId":"39K0FND3AI14IIM0FMO9CV800RHAM5","hitId":"3E9VAUV7BW02QFDK7N7IH7ZKACRYAN","url":"https://gershmanlab.com/experiments/alicia/teaching/experiment/?hitId=3E9VAUV7BW02QFDK7N7IH7ZKACRYAN&workerId=A2PN6GNPPPHWQO&assignmentId=39K0FND3AI14IIM0FMO9CV800RHAM5&a=3FK99&tp_a=3FK99&b=39K0FND3AI14IIM0FMO9CV800RHAM5&tp_b=39K0FND3AI14IIM0FMO9CV800RHAM5&c=365799&tp_c=365799","heads":6,"tails":24,"studentIndex":4,"studentTrueHypers":{"a":8,"b":2},"studentGuess":0.35,"delta":0.14999999999999997,"totalExamples":30,"bonusSoFar":0.2},{"rt":16547,"response":{"heads":"2","tails":"8"},"type":"response","condition":"seqNoFeedback","trueTheta":0.2,"classrooms":["C","D"],"studentTrueClassroom":"D","exampleSet":"second","trial_type":"survey-html-form","trial_index":49,"time_elapsed":788343,"internal_node_id":"0.0-33.0-0.0","params":{"nStudents":24,"maxFlips":30,"completionMinutes":45,"basePay":8,"maxBonus":9,"perTrialBonus":0.5,"perTrialBonusThreshold":0.05,"exampleCost":0.01},"classroomParams":{"A":{"a":1,"b":4},"B":{"a":4,"b":1},"C":{"a":2,"b":8},"D":{"a":8,"b":2}},"conditions":["nonSeqFull","nonSeqPartial","seqNoFeedback","seqFeedback"],"classroomPairings":[["A","B"],["C","D"]],"coinWeights":[0.2,0.5,0.8],"subjectId":"A2PN6GNPPPHWQO","assignmentId":"39K0FND3AI14IIM0FMO9CV800RHAM5","hitId":"3E9VAUV7BW02QFDK7N7IH7ZKACRYAN","url":"https://gershmanlab.com/experiments/alicia/teaching/experiment/?hitId=3E9VAUV7BW02QFDK7N7IH7ZKACRYAN&workerId=A2PN6GNPPPHWQO&assignmentId=39K0FND3AI14IIM0FMO9CV800RHAM5&a=3FK99&tp_a=3FK99&b=39K0FND3AI14IIM0FMO9CV800RHAM5&tp_b=39K0FND3AI14IIM0FMO9CV800RHAM5&c=365799&tp_c=365799","firstResponseHeads":6,"firstResponseTails":24,"secondResponseHeads":2,"secondResponseTails":8,"totalHeads":8,"totalTails":32,"studentIndex":4,"studentTrueHypers":{"a":8,"b":2},"studentGuess":0.32,"delta":0.12,"bonus":0,"bonusSoFar":0.2,"totalExamples":40},{"rt":15850,"response":{"heads":"15","tails":"15"},"type":"response","condition":"seqFeedback","trueTheta":0.5,"classrooms":["C","D"],"studentTrueClassroom":"C","exampleSet":"first","trial_type":"survey-html-form","trial_index":55,"time_elapsed":825774,"internal_node_id":"0.0-39.0-0.0","params":{"nStudents":24,"maxFlips":30,"completionMinutes":45,"basePay":8,"maxBonus":9,"perTrialBonus":0.5,"perTrialBonusThreshold":0.05,"exampleCost":0.01},"classroomParams":{"A":{"a":1,"b":4},"B":{"a":4,"b":1},"C":{"a":2,"b":8},"D":{"a":8,"b":2}},"conditions":["nonSeqFull","nonSeqPartial","seqNoFeedback","seqFeedback"],"classroomPairings":[["A","B"],["C","D"]],"coinWeights":[0.2,0.5,0.8],"subjectId":"A2PN6GNPPPHWQO","assignmentId":"39K0FND3AI14IIM0FMO9CV800RHAM5","hitId":"3E9VAUV7BW02QFDK7N7IH7ZKACRYAN","url":"https://gershmanlab.com/experiments/alicia/teaching/experiment/?hitId=3E9VAUV7BW02QFDK7N7IH7ZKACRYAN&workerId=A2PN6GNPPPHWQO&assignmentId=39K0FND3AI14IIM0FMO9CV800RHAM5&a=3FK99&tp_a=3FK99&b=39K0FND3AI14IIM0FMO9CV800RHAM5&tp_b=39K0FND3AI14IIM0FMO9CV800RHAM5&c=365799&tp_c=365799","heads":15,"tails":15,"studentIndex":5,"studentTrueHypers":{"a":2,"b":8},"studentGuess":0.425,"delta":0.07500000000000001,"totalExamples":30,"bonusSoFar":0.2},{"rt":12345,"response":{"heads":"5","tails":"5"},"type":"response","condition":"seqFeedback","trueTheta":0.5,"classrooms":["C","D"],"studentTrueClassroom":"C","exampleSet":"second","trial_type":"survey-html-form","trial_index":59,"time_elapsed":849130,"internal_node_id":"0.0-43.0-0.0","params":{"nStudents":24,"maxFlips":30,"completionMinutes":45,"basePay":8,"maxBonus":9,"perTrialBonus":0.5,"perTrialBonusThreshold":0.05,"exampleCost":0.01},"classroomParams":{"A":{"a":1,"b":4},"B":{"a":4,"b":1},"C":{"a":2,"b":8},"D":{"a":8,"b":2}},"conditions":["nonSeqFull","nonSeqPartial","seqNoFeedback","seqFeedback"],"classroomPairings":[["A","B"],["C","D"]],"coinWeights":[0.2,0.5,0.8],"subjectId":"A2PN6GNPPPHWQO","assignmentId":"39K0FND3AI14IIM0FMO9CV800RHAM5","hitId":"3E9VAUV7BW02QFDK7N7IH7ZKACRYAN","url":"https://gershmanlab.com/experiments/alicia/teaching/experiment/?hitId=3E9VAUV7BW02QFDK7N7IH7ZKACRYAN&workerId=A2PN6GNPPPHWQO&assignmentId=39K0FND3AI14IIM0FMO9CV800RHAM5&a=3FK99&tp_a=3FK99&b=39K0FND3AI14IIM0FMO9CV800RHAM5&tp_b=39K0FND3AI14IIM0FMO9CV800RHAM5&c=365799&tp_c=365799","firstResponseHeads":15,"firstResponseTails":15,"secondResponseHeads":5,"secondResponseTails":5,"totalHeads":20,"totalTails":20,"studentIndex":5,"studentTrueHypers":{"a":2,"b":8},"studentGuess":0.44,"delta":0.06,"bonus":0,"bonusSoFar":0.2,"totalExamples":40},{"rt":9738,"response":{"heads":"5","tails":"5"},"type":"response","condition":"nonSeqFull","trueTheta":0.5,"classrooms":["A","B"],"studentTrueClassroom":"A","exampleSet":"first","trial_type":"survey-html-form","trial_index":65,"time_elapsed":893130,"internal_node_id":"0.0-49.0-0.0","params":{"nStudents":24,"maxFlips":30,"completionMinutes":45,"basePay":8,"maxBonus":9,"perTrialBonus":0.5,"perTrialBonusThreshold":0.05,"exampleCost":0.01},"classroomParams":{"A":{"a":1,"b":4},"B":{"a":4,"b":1},"C":{"a":2,"b":8},"D":{"a":8,"b":2}},"conditions":["nonSeqFull","nonSeqPartial","seqNoFeedback","seqFeedback"],"classroomPairings":[["A","B"],["C","D"]],"coinWeights":[0.2,0.5,0.8],"subjectId":"A2PN6GNPPPHWQO","assignmentId":"39K0FND3AI14IIM0FMO9CV800RHAM5","hitId":"3E9VAUV7BW02QFDK7N7IH7ZKACRYAN","url":"https://gershmanlab.com/experiments/alicia/teaching/experiment/?hitId=3E9VAUV7BW02QFDK7N7IH7ZKACRYAN&workerId=A2PN6GNPPPHWQO&assignmentId=39K0FND3AI14IIM0FMO9CV800RHAM5&a=3FK99&tp_a=3FK99&b=39K0FND3AI14IIM0FMO9CV800RHAM5&tp_b=39K0FND3AI14IIM0FMO9CV800RHAM5&c=365799&tp_c=365799","heads":5,"tails":5,"studentIndex":6,"studentTrueHypers":{"a":1,"b":4},"studentGuess":0.4,"delta":0.09999999999999998,"totalExamples":10,"bonus":0,"bonusSoFar":0.2},{"rt":12011,"response":{"heads":"2","tails":"8"},"type":"response","condition":"nonSeqFull","trueTheta":0.2,"classrooms":["C","D"],"studentTrueClassroom":"D","exampleSet":"first","trial_type":"survey-html-form","trial_index":71,"time_elapsed":918801,"internal_node_id":"0.0-55.0-0.0","params":{"nStudents":24,"maxFlips":30,"completionMinutes":45,"basePay":8,"maxBonus":9,"perTrialBonus":0.5,"perTrialBonusThreshold":0.05,"exampleCost":0.01},"classroomParams":{"A":{"a":1,"b":4},"B":{"a":4,"b":1},"C":{"a":2,"b":8},"D":{"a":8,"b":2}},"conditions":["nonSeqFull","nonSeqPartial","seqNoFeedback","seqFeedback"],"classroomPairings":[["A","B"],["C","D"]],"coinWeights":[0.2,0.5,0.8],"subjectId":"A2PN6GNPPPHWQO","assignmentId":"39K0FND3AI14IIM0FMO9CV800RHAM5","hitId":"3E9VAUV7BW02QFDK7N7IH7ZKACRYAN","url":"https://gershmanlab.com/experiments/alicia/teaching/experiment/?hitId=3E9VAUV7BW02QFDK7N7IH7ZKACRYAN&workerId=A2PN6GNPPPHWQO&assignmentId=39K0FND3AI14IIM0FMO9CV800RHAM5&a=3FK99&tp_a=3FK99&b=39K0FND3AI14IIM0FMO9CV800RHAM5&tp_b=39K0FND3AI14IIM0FMO9CV800RHAM5&c=365799&tp_c=365799","heads":2,"tails":8,"studentIndex":7,"studentTrueHypers":{"a":8,"b":2},"studentGuess":0.5,"delta":0.3,"totalExamples":10,"bonus":0,"bonusSoFar":0.2},{"rt":10049,"response":{"heads":"8","tails":"2"},"type":"response","condition":"nonSeqPartial","trueTheta":0.5,"classrooms":["C","D"],"studentTrueClassroom":"C","exampleSet":"first","trial_type":"survey-html-form","trial_index":77,"time_elapsed":940019,"internal_node_id":"0.0-61.0-0.0","params":{"nStudents":24,"maxFlips":30,"completionMinutes":45,"basePay":8,"maxBonus":9,"perTrialBonus":0.5,"perTrialBonusThreshold":0.05,"exampleCost":0.01},"classroomParams":{"A":{"a":1,"b":4},"B":{"a":4,"b":1},"C":{"a":2,"b":8},"D":{"a":8,"b":2}},"conditions":["nonSeqFull","nonSeqPartial","seqNoFeedback","seqFeedback"],"classroomPairings":[["A","B"],["C","D"]],"coinWeights":[0.2,0.5,0.8],"subjectId":"A2PN6GNPPPHWQO","assignmentId":"39K0FND3AI14IIM0FMO9CV800RHAM5","hitId":"3E9VAUV7BW02QFDK7N7IH7ZKACRYAN","url":"https://gershmanlab.com/experiments/alicia/teaching/experiment/?hitId=3E9VAUV7BW02QFDK7N7IH7ZKACRYAN&workerId=A2PN6GNPPPHWQO&assignmentId=39K0FND3AI14IIM0FMO9CV800RHAM5&a=3FK99&tp_a=3FK99&b=39K0FND3AI14IIM0FMO9CV800RHAM5&tp_b=39K0FND3AI14IIM0FMO9CV800RHAM5&c=365799&tp_c=365799","heads":8,"tails":2,"studentIndex":8,"studentTrueHypers":{"a":2,"b":8},"studentGuess":0.5,"delta":0,"totalExamples":10,"bonus":0.4,"bonusSoFar":0.6},{"rt":9745,"response":{"heads":"1","tails":"4"},"type":"response","condition":"seqNoFeedback","trueTheta":0.5,"classrooms":["A","B"],"studentTrueClassroom":"B","exampleSet":"first","trial_type":"survey-html-form","trial_index":83,"time_elapsed":961399,"internal_node_id":"0.0-67.0-0.0","params":{"nStudents":24,"maxFlips":30,"completionMinutes":45,"basePay":8,"maxBonus":9,"perTrialBonus":0.5,"perTrialBonusThreshold":0.05,"exampleCost":0.01},"classroomParams":{"A":{"a":1,"b":4},"B":{"a":4,"b":1},"C":{"a":2,"b":8},"D":{"a":8,"b":2}},"conditions":["nonSeqFull","nonSeqPartial","seqNoFeedback","seqFeedback"],"classroomPairings":[["A","B"],["C","D"]],"coinWeights":[0.2,0.5,0.8],"subjectId":"A2PN6GNPPPHWQO","assignmentId":"39K0FND3AI14IIM0FMO9CV800RHAM5","hitId":"3E9VAUV7BW02QFDK7N7IH7ZKACRYAN","url":"https://gershmanlab.com/experiments/alicia/teaching/experiment/?hitId=3E9VAUV7BW02QFDK7N7IH7ZKACRYAN&workerId=A2PN6GNPPPHWQO&assignmentId=39K0FND3AI14IIM0FMO9CV800RHAM5&a=3FK99&tp_a=3FK99&b=39K0FND3AI14IIM0FMO9CV800RHAM5&tp_b=39K0FND3AI14IIM0FMO9CV800RHAM5&c=365799&tp_c=365799","heads":1,"tails":4,"studentIndex":9,"studentTrueHypers":{"a":4,"b":1},"studentGuess":0.5,"delta":0,"totalExamples":5,"bonusSoFar":0.6},{"rt":6961,"response":{"heads":"4","tails":"1"},"type":"response","condition":"seqNoFeedback","trueTheta":0.5,"classrooms":["A","B"],"studentTrueClassroom":"B","exampleSet":"second","trial_type":"survey-html-form","trial_index":86,"time_elapsed":974117,"internal_node_id":"0.0-70.0-0.0","params":{"nStudents":24,"maxFlips":30,"completionMinutes":45,"basePay":8,"maxBonus":9,"perTrialBonus":0.5,"perTrialBonusThreshold":0.05,"exampleCost":0.01},"classroomParams":{"A":{"a":1,"b":4},"B":{"a":4,"b":1},"C":{"a":2,"b":8},"D":{"a":8,"b":2}},"conditions":["nonSeqFull","nonSeqPartial","seqNoFeedback","seqFeedback"],"classroomPairings":[["A","B"],["C","D"]],"coinWeights":[0.2,0.5,0.8],"subjectId":"A2PN6GNPPPHWQO","assignmentId":"39K0FND3AI14IIM0FMO9CV800RHAM5","hitId":"3E9VAUV7BW02QFDK7N7IH7ZKACRYAN","url":"https://gershmanlab.com/experiments/alicia/teaching/experiment/?hitId=3E9VAUV7BW02QFDK7N7IH7ZKACRYAN&workerId=A2PN6GNPPPHWQO&assignmentId=39K0FND3AI14IIM0FMO9CV800RHAM5&a=3FK99&tp_a=3FK99&b=39K0FND3AI14IIM0FMO9CV800RHAM5&tp_b=39K0FND3AI14IIM0FMO9CV800RHAM5&c=365799&tp_c=365799","firstResponseHeads":1,"firstResponseTails":4,"secondResponseHeads":4,"secondResponseTails":1,"totalHeads":5,"totalTails":5,"studentIndex":9,"studentTrueHypers":{"a":4,"b":1},"studentGuess":0.6,"delta":0.09999999999999998,"bonus":0,"bonusSoFar":0.6,"totalExamples":10},{"rt":7319,"response":{"heads":"2","tails":"8"},"type":"response","condition":"seqNoFeedback","trueTheta":0.5,"classrooms":["C","D"],"studentTrueClassroom":"C","exampleSet":"first","trial_type":"survey-html-form","trial_index":92,"time_elapsed":998279,"internal_node_id":"0.0-76.0-0.0","params":{"nStudents":24,"maxFlips":30,"completionMinutes":45,"basePay":8,"maxBonus":9,"perTrialBonus":0.5,"perTrialBonusThreshold":0.05,"exampleCost":0.01},"classroomParams":{"A":{"a":1,"b":4},"B":{"a":4,"b":1},"C":{"a":2,"b":8},"D":{"a":8,"b":2}},"conditions":["nonSeqFull","nonSeqPartial","seqNoFeedback","seqFeedback"],"classroomPairings":[["A","B"],["C","D"]],"coinWeights":[0.2,0.5,0.8],"subjectId":"A2PN6GNPPPHWQO","assignmentId":"39K0FND3AI14IIM0FMO9CV800RHAM5","hitId":"3E9VAUV7BW02QFDK7N7IH7ZKACRYAN","url":"https://gershmanlab.com/experiments/alicia/teaching/experiment/?hitId=3E9VAUV7BW02QFDK7N7IH7ZKACRYAN&workerId=A2PN6GNPPPHWQO&assignmentId=39K0FND3AI14IIM0FMO9CV800RHAM5&a=3FK99&tp_a=3FK99&b=39K0FND3AI14IIM0FMO9CV800RHAM5&tp_b=39K0FND3AI14IIM0FMO9CV800RHAM5&c=365799&tp_c=365799","heads":2,"tails":8,"studentIndex":10,"studentTrueHypers":{"a":2,"b":8},"studentGuess":0.2,"delta":0.3,"totalExamples":10,"bonusSoFar":0.6},{"rt":7206,"response":{"heads":"8","tails":"2"},"type":"response","condition":"seqNoFeedback","trueTheta":0.5,"classrooms":["C","D"],"studentTrueClassroom":"C","exampleSet":"second","trial_type":"survey-html-form","trial_index":95,"time_elapsed":1013241,"internal_node_id":"0.0-79.0-0.0","params":{"nStudents":24,"maxFlips":30,"completionMinutes":45,"basePay":8,"maxBonus":9,"perTrialBonus":0.5,"perTrialBonusThreshold":0.05,"exampleCost":0.01},"classroomParams":{"A":{"a":1,"b":4},"B":{"a":4,"b":1},"C":{"a":2,"b":8},"D":{"a":8,"b":2}},"conditions":["nonSeqFull","nonSeqPartial","seqNoFeedback","seqFeedback"],"classroomPairings":[["A","B"],["C","D"]],"coinWeights":[0.2,0.5,0.8],"subjectId":"A2PN6GNPPPHWQO","assignmentId":"39K0FND3AI14IIM0FMO9CV800RHAM5","hitId":"3E9VAUV7BW02QFDK7N7IH7ZKACRYAN","url":"https://gershmanlab.com/experiments/alicia/teaching/experiment/?hitId=3E9VAUV7BW02QFDK7N7IH7ZKACRYAN&workerId=A2PN6GNPPPHWQO&assignmentId=39K0FND3AI14IIM0FMO9CV800RHAM5&a=3FK99&tp_a=3FK99&b=39K0FND3AI14IIM0FMO9CV800RHAM5&tp_b=39K0FND3AI14IIM0FMO9CV800RHAM5&c=365799&tp_c=365799","firstResponseHeads":2,"firstResponseTails":8,"secondResponseHeads":8,"secondResponseTails":2,"totalHeads":10,"totalTails":10,"studentIndex":10,"studentTrueHypers":{"a":2,"b":8},"studentGuess":0.4,"delta":0.09999999999999998,"bonus":0,"bonusSoFar":0.6,"totalExamples":20},{"rt":5487,"response":{"heads":"8","tails":"2"},"type":"response","condition":"nonSeqPartial","trueTheta":0.8,"classrooms":["A","B"],"studentTrueClassroom":"B","exampleSet":"first","trial_type":"survey-html-form","trial_index":101,"time_elapsed":1033178,"internal_node_id":"0.0-85.0-0.0","params":{"nStudents":24,"maxFlips":30,"completionMinutes":45,"basePay":8,"maxBonus":9,"perTrialBonus":0.5,"perTrialBonusThreshold":0.05,"exampleCost":0.01},"classroomParams":{"A":{"a":1,"b":4},"B":{"a":4,"b":1},"C":{"a":2,"b":8},"D":{"a":8,"b":2}},"conditions":["nonSeqFull","nonSeqPartial","seqNoFeedback","seqFeedback"],"classroomPairings":[["A","B"],["C","D"]],"coinWeights":[0.2,0.5,0.8],"subjectId":"A2PN6GNPPPHWQO","assignmentId":"39K0FND3AI14IIM0FMO9CV800RHAM5","hitId":"3E9VAUV7BW02QFDK7N7IH7ZKACRYAN","url":"https://gershmanlab.com/experiments/alicia/teaching/experiment/?hitId=3E9VAUV7BW02QFDK7N7IH7ZKACRYAN&workerId=A2PN6GNPPPHWQO&assignmentId=39K0FND3AI14IIM0FMO9CV800RHAM5&a=3FK99&tp_a=3FK99&b=39K0FND3AI14IIM0FMO9CV800RHAM5&tp_b=39K0FND3AI14IIM0FMO9CV800RHAM5&c=365799&tp_c=365799","heads":8,"tails":2,"studentIndex":11,"studentTrueHypers":{"a":4,"b":1},"studentGuess":0.8,"delta":0,"totalExamples":10,"bonus":0.4,"bonusSoFar":1},{"rt":9581,"response":{"heads":"8","tails":"2"},"type":"response","condition":"seqFeedback","trueTheta":0.8,"classrooms":["A","B"],"studentTrueClassroom":"A","exampleSet":"first","trial_type":"survey-html-form","trial_index":107,"time_elapsed":1056112,"internal_node_id":"0.0-91.0-0.0","params":{"nStudents":24,"maxFlips":30,"completionMinutes":45,"basePay":8,"maxBonus":9,"perTrialBonus":0.5,"perTrialBonusThreshold":0.05,"exampleCost":0.01},"classroomParams":{"A":{"a":1,"b":4},"B":{"a":4,"b":1},"C":{"a":2,"b":8},"D":{"a":8,"b":2}},"conditions":["nonSeqFull","nonSeqPartial","seqNoFeedback","seqFeedback"],"classroomPairings":[["A","B"],["C","D"]],"coinWeights":[0.2,0.5,0.8],"subjectId":"A2PN6GNPPPHWQO","assignmentId":"39K0FND3AI14IIM0FMO9CV800RHAM5","hitId":"3E9VAUV7BW02QFDK7N7IH7ZKACRYAN","url":"https://gershmanlab.com/experiments/alicia/teaching/experiment/?hitId=3E9VAUV7BW02QFDK7N7IH7ZKACRYAN&workerId=A2PN6GNPPPHWQO&assignmentId=39K0FND3AI14IIM0FMO9CV800RHAM5&a=3FK99&tp_a=3FK99&b=39K0FND3AI14IIM0FMO9CV800RHAM5&tp_b=39K0FND3AI14IIM0FMO9CV800RHAM5&c=365799&tp_c=365799","heads":8,"tails":2,"studentIndex":12,"studentTrueHypers":{"a":1,"b":4},"studentGuess":0.6,"delta":0.20000000000000007,"totalExamples":10,"bonusSoFar":1},{"rt":10620,"response":{"heads":"8","tails":"2"},"type":"response","condition":"seqFeedback","trueTheta":0.8,"classrooms":["A","B"],"studentTrueClassroom":"A","exampleSet":"second","trial_type":"survey-html-form","trial_index":111,"time_elapsed":1075778,"internal_node_id":"0.0-95.0-0.0","params":{"nStudents":24,"maxFlips":30,"completionMinutes":45,"basePay":8,"maxBonus":9,"perTrialBonus":0.5,"perTrialBonusThreshold":0.05,"exampleCost":0.01},"classroomParams":{"A":{"a":1,"b":4},"B":{"a":4,"b":1},"C":{"a":2,"b":8},"D":{"a":8,"b":2}},"conditions":["nonSeqFull","nonSeqPartial","seqNoFeedback","seqFeedback"],"classroomPairings":[["A","B"],["C","D"]],"coinWeights":[0.2,0.5,0.8],"subjectId":"A2PN6GNPPPHWQO","assignmentId":"39K0FND3AI14IIM0FMO9CV800RHAM5","hitId":"3E9VAUV7BW02QFDK7N7IH7ZKACRYAN","url":"https://gershmanlab.com/experiments/alicia/teaching/experiment/?hitId=3E9VAUV7BW02QFDK7N7IH7ZKACRYAN&workerId=A2PN6GNPPPHWQO&assignmentId=39K0FND3AI14IIM0FMO9CV800RHAM5&a=3FK99&tp_a=3FK99&b=39K0FND3AI14IIM0FMO9CV800RHAM5&tp_b=39K0FND3AI14IIM0FMO9CV800RHAM5&c=365799&tp_c=365799","firstResponseHeads":8,"firstResponseTails":2,"secondResponseHeads":8,"secondResponseTails":2,"totalHeads":16,"totalTails":4,"studentIndex":12,"studentTrueHypers":{"a":1,"b":4},"studentGuess":0.68,"delta":0.12,"bonus":0,"bonusSoFar":1,"totalExamples":20},{"rt":20552,"response":{"heads":"24","tails":"6"},"type":"response","condition":"seqNoFeedback","trueTheta":0.8,"classrooms":["C","D"],"studentTrueClassroom":"C","exampleSet":"first","trial_type":"survey-html-form","trial_index":117,"time_elapsed":1107700,"internal_node_id":"0.0-101.0-0.0","params":{"nStudents":24,"maxFlips":30,"completionMinutes":45,"basePay":8,"maxBonus":9,"perTrialBonus":0.5,"perTrialBonusThreshold":0.05,"exampleCost":0.01},"classroomParams":{"A":{"a":1,"b":4},"B":{"a":4,"b":1},"C":{"a":2,"b":8},"D":{"a":8,"b":2}},"conditions":["nonSeqFull","nonSeqPartial","seqNoFeedback","seqFeedback"],"classroomPairings":[["A","B"],["C","D"]],"coinWeights":[0.2,0.5,0.8],"subjectId":"A2PN6GNPPPHWQO","assignmentId":"39K0FND3AI14IIM0FMO9CV800RHAM5","hitId":"3E9VAUV7BW02QFDK7N7IH7ZKACRYAN","url":"https://gershmanlab.com/experiments/alicia/teaching/experiment/?hitId=3E9VAUV7BW02QFDK7N7IH7ZKACRYAN&workerId=A2PN6GNPPPHWQO&assignmentId=39K0FND3AI14IIM0FMO9CV800RHAM5&a=3FK99&tp_a=3FK99&b=39K0FND3AI14IIM0FMO9CV800RHAM5&tp_b=39K0FND3AI14IIM0FMO9CV800RHAM5&c=365799&tp_c=365799","heads":24,"tails":6,"studentIndex":13,"studentTrueHypers":{"a":2,"b":8},"studentGuess":0.65,"delta":0.15000000000000002,"totalExamples":30,"bonusSoFar":1},{"rt":12120,"response":{"heads":"24","tails":"6"},"type":"response","condition":"seqNoFeedback","trueTheta":0.8,"classrooms":["C","D"],"studentTrueClassroom":"C","exampleSet":"second","trial_type":"survey-html-form","trial_index":120,"time_elapsed":1126577,"internal_node_id":"0.0-104.0-0.0","params":{"nStudents":24,"maxFlips":30,"completionMinutes":45,"basePay":8,"maxBonus":9,"perTrialBonus":0.5,"perTrialBonusThreshold":0.05,"exampleCost":0.01},"classroomParams":{"A":{"a":1,"b":4},"B":{"a":4,"b":1},"C":{"a":2,"b":8},"D":{"a":8,"b":2}},"conditions":["nonSeqFull","nonSeqPartial","seqNoFeedback","seqFeedback"],"classroomPairings":[["A","B"],["C","D"]],"coinWeights":[0.2,0.5,0.8],"subjectId":"A2PN6GNPPPHWQO","assignmentId":"39K0FND3AI14IIM0FMO9CV800RHAM5","hitId":"3E9VAUV7BW02QFDK7N7IH7ZKACRYAN","url":"https://gershmanlab.com/experiments/alicia/teaching/experiment/?hitId=3E9VAUV7BW02QFDK7N7IH7ZKACRYAN&workerId=A2PN6GNPPPHWQO&assignmentId=39K0FND3AI14IIM0FMO9CV800RHAM5&a=3FK99&tp_a=3FK99&b=39K0FND3AI14IIM0FMO9CV800RHAM5&tp_b=39K0FND3AI14IIM0FMO9CV800RHAM5&c=365799&tp_c=365799","firstResponseHeads":24,"firstResponseTails":6,"secondResponseHeads":24,"secondResponseTails":6,"totalHeads":48,"totalTails":12,"studentIndex":13,"studentTrueHypers":{"a":2,"b":8},"studentGuess":0.7142857142857143,"delta":0.08571428571428574,"bonus":0,"bonusSoFar":1,"totalExamples":60},{"rt":6596,"response":{"heads":"2","tails":"8"},"type":"response","condition":"seqFeedback","trueTheta":0.2,"classrooms":["A","B"],"studentTrueClassroom":"B","exampleSet":"first","trial_type":"survey-html-form","trial_index":126,"time_elapsed":1147979,"internal_node_id":"0.0-110.0-0.0","params":{"nStudents":24,"maxFlips":30,"completionMinutes":45,"basePay":8,"maxBonus":9,"perTrialBonus":0.5,"perTrialBonusThreshold":0.05,"exampleCost":0.01},"classroomParams":{"A":{"a":1,"b":4},"B":{"a":4,"b":1},"C":{"a":2,"b":8},"D":{"a":8,"b":2}},"conditions":["nonSeqFull","nonSeqPartial","seqNoFeedback","seqFeedback"],"classroomPairings":[["A","B"],["C","D"]],"coinWeights":[0.2,0.5,0.8],"subjectId":"A2PN6GNPPPHWQO","assignmentId":"39K0FND3AI14IIM0FMO9CV800RHAM5","hitId":"3E9VAUV7BW02QFDK7N7IH7ZKACRYAN","url":"https://gershmanlab.com/experiments/alicia/teaching/experiment/?hitId=3E9VAUV7BW02QFDK7N7IH7ZKACRYAN&workerId=A2PN6GNPPPHWQO&assignmentId=39K0FND3AI14IIM0FMO9CV800RHAM5&a=3FK99&tp_a=3FK99&b=39K0FND3AI14IIM0FMO9CV800RHAM5&tp_b=39K0FND3AI14IIM0FMO9CV800RHAM5&c=365799&tp_c=365799","heads":2,"tails":8,"studentIndex":14,"studentTrueHypers":{"a":4,"b":1},"studentGuess":0.4,"delta":0.2,"totalExamples":10,"bonusSoFar":1},{"rt":7443,"response":{"heads":"2","tails":"8"},"type":"response","condition":"seqFeedback","trueTheta":0.2,"classrooms":["A","B"],"studentTrueClassroom":"B","exampleSet":"second","trial_type":"survey-html-form","trial_index":130,"time_elapsed":1165040,"internal_node_id":"0.0-114.0-0.0","params":{"nStudents":24,"maxFlips":30,"completionMinutes":45,"basePay":8,"maxBonus":9,"perTrialBonus":0.5,"perTrialBonusThreshold":0.05,"exampleCost":0.01},"classroomParams":{"A":{"a":1,"b":4},"B":{"a":4,"b":1},"C":{"a":2,"b":8},"D":{"a":8,"b":2}},"conditions":["nonSeqFull","nonSeqPartial","seqNoFeedback","seqFeedback"],"classroomPairings":[["A","B"],["C","D"]],"coinWeights":[0.2,0.5,0.8],"subjectId":"A2PN6GNPPPHWQO","assignmentId":"39K0FND3AI14IIM0FMO9CV800RHAM5","hitId":"3E9VAUV7BW02QFDK7N7IH7ZKACRYAN","url":"https://gershmanlab.com/experiments/alicia/teaching/experiment/?hitId=3E9VAUV7BW02QFDK7N7IH7ZKACRYAN&workerId=A2PN6GNPPPHWQO&assignmentId=39K0FND3AI14IIM0FMO9CV800RHAM5&a=3FK99&tp_a=3FK99&b=39K0FND3AI14IIM0FMO9CV800RHAM5&tp_b=39K0FND3AI14IIM0FMO9CV800RHAM5&c=365799&tp_c=365799","firstResponseHeads":2,"firstResponseTails":8,"secondResponseHeads":2,"secondResponseTails":8,"totalHeads":4,"totalTails":16,"studentIndex":14,"studentTrueHypers":{"a":4,"b":1},"studentGuess":0.32,"delta":0.12,"bonus":0,"bonusSoFar":1,"totalExamples":20},{"rt":18056,"response":{"heads":"8","tails":"1"},"type":"response","condition":"nonSeqFull","trueTheta":0.8,"classrooms":["A","B"],"studentTrueClassroom":"A","exampleSet":"first","trial_type":"survey-html-form","trial_index":136,"time_elapsed":1200504,"internal_node_id":"0.0-120.0-0.0","params":{"nStudents":24,"maxFlips":30,"completionMinutes":45,"basePay":8,"maxBonus":9,"perTrialBonus":0.5,"perTrialBonusThreshold":0.05,"exampleCost":0.01},"classroomParams":{"A":{"a":1,"b":4},"B":{"a":4,"b":1},"C":{"a":2,"b":8},"D":{"a":8,"b":2}},"conditions":["nonSeqFull","nonSeqPartial","seqNoFeedback","seqFeedback"],"classroomPairings":[["A","B"],["C","D"]],"coinWeights":[0.2,0.5,0.8],"subjectId":"A2PN6GNPPPHWQO","assignmentId":"39K0FND3AI14IIM0FMO9CV800RHAM5","hitId":"3E9VAUV7BW02QFDK7N7IH7ZKACRYAN","url":"https://gershmanlab.com/experiments/alicia/teaching/experiment/?hitId=3E9VAUV7BW02QFDK7N7IH7ZKACRYAN&workerId=A2PN6GNPPPHWQO&assignmentId=39K0FND3AI14IIM0FMO9CV800RHAM5&a=3FK99&tp_a=3FK99&b=39K0FND3AI14IIM0FMO9CV800RHAM5&tp_b=39K0FND3AI14IIM0FMO9CV800RHAM5&c=365799&tp_c=365799","heads":8,"tails":1,"studentIndex":15,"studentTrueHypers":{"a":1,"b":4},"studentGuess":0.6428571428571429,"delta":0.15714285714285714,"totalExamples":9,"bonus":0,"bonusSoFar":1},{"rt":21805,"response":{"heads":"6","tails":"24"},"type":"response","condition":"nonSeqPartial","trueTheta":0.2,"classrooms":["C","D"],"studentTrueClassroom":"D","exampleSet":"first","trial_type":"survey-html-form","trial_index":142,"time_elapsed":1234608,"internal_node_id":"0.0-126.0-0.0","params":{"nStudents":24,"maxFlips":30,"completionMinutes":45,"basePay":8,"maxBonus":9,"perTrialBonus":0.5,"perTrialBonusThreshold":0.05,"exampleCost":0.01},"classroomParams":{"A":{"a":1,"b":4},"B":{"a":4,"b":1},"C":{"a":2,"b":8},"D":{"a":8,"b":2}},"conditions":["nonSeqFull","nonSeqPartial","seqNoFeedback","seqFeedback"],"classroomPairings":[["A","B"],["C","D"]],"coinWeights":[0.2,0.5,0.8],"subjectId":"A2PN6GNPPPHWQO","assignmentId":"39K0FND3AI14IIM0FMO9CV800RHAM5","hitId":"3E9VAUV7BW02QFDK7N7IH7ZKACRYAN","url":"https://gershmanlab.com/experiments/alicia/teaching/experiment/?hitId=3E9VAUV7BW02QFDK7N7IH7ZKACRYAN&workerId=A2PN6GNPPPHWQO&assignmentId=39K0FND3AI14IIM0FMO9CV800RHAM5&a=3FK99&tp_a=3FK99&b=39K0FND3AI14IIM0FMO9CV800RHAM5&tp_b=39K0FND3AI14IIM0FMO9CV800RHAM5&c=365799&tp_c=365799","heads":6,"tails":24,"studentIndex":16,"studentTrueHypers":{"a":8,"b":2},"studentGuess":0.35,"delta":0.14999999999999997,"totalExamples":30,"bonus":0,"bonusSoFar":1},{"rt":7860,"response":{"heads":"2","tails":"8"},"type":"response","condition":"seqNoFeedback","trueTheta":0.2,"classrooms":["A","B"],"studentTrueClassroom":"B","exampleSet":"first","trial_type":"survey-html-form","trial_index":148,"time_elapsed":1254643,"internal_node_id":"0.0-132.0-0.0","params":{"nStudents":24,"maxFlips":30,"completionMinutes":45,"basePay":8,"maxBonus":9,"perTrialBonus":0.5,"perTrialBonusThreshold":0.05,"exampleCost":0.01},"classroomParams":{"A":{"a":1,"b":4},"B":{"a":4,"b":1},"C":{"a":2,"b":8},"D":{"a":8,"b":2}},"conditions":["nonSeqFull","nonSeqPartial","seqNoFeedback","seqFeedback"],"classroomPairings":[["A","B"],["C","D"]],"coinWeights":[0.2,0.5,0.8],"subjectId":"A2PN6GNPPPHWQO","assignmentId":"39K0FND3AI14IIM0FMO9CV800RHAM5","hitId":"3E9VAUV7BW02QFDK7N7IH7ZKACRYAN","url":"https://gershmanlab.com/experiments/alicia/teaching/experiment/?hitId=3E9VAUV7BW02QFDK7N7IH7ZKACRYAN&workerId=A2PN6GNPPPHWQO&assignmentId=39K0FND3AI14IIM0FMO9CV800RHAM5&a=3FK99&tp_a=3FK99&b=39K0FND3AI14IIM0FMO9CV800RHAM5&tp_b=39K0FND3AI14IIM0FMO9CV800RHAM5&c=365799&tp_c=365799","heads":2,"tails":8,"studentIndex":17,"studentTrueHypers":{"a":4,"b":1},"studentGuess":0.4,"delta":0.2,"totalExamples":10,"bonusSoFar":1},{"rt":11440,"response":{"heads":"2","tails":"8"},"type":"response","condition":"seqNoFeedback","trueTheta":0.2,"classrooms":["A","B"],"studentTrueClassroom":"B","exampleSet":"second","trial_type":"survey-html-form","trial_index":151,"time_elapsed":1272340,"internal_node_id":"0.0-135.0-0.0","params":{"nStudents":24,"maxFlips":30,"completionMinutes":45,"basePay":8,"maxBonus":9,"perTrialBonus":0.5,"perTrialBonusThreshold":0.05,"exampleCost":0.01},"classroomParams":{"A":{"a":1,"b":4},"B":{"a":4,"b":1},"C":{"a":2,"b":8},"D":{"a":8,"b":2}},"conditions":["nonSeqFull","nonSeqPartial","seqNoFeedback","seqFeedback"],"classroomPairings":[["A","B"],["C","D"]],"coinWeights":[0.2,0.5,0.8],"subjectId":"A2PN6GNPPPHWQO","assignmentId":"39K0FND3AI14IIM0FMO9CV800RHAM5","hitId":"3E9VAUV7BW02QFDK7N7IH7ZKACRYAN","url":"https://gershmanlab.com/experiments/alicia/teaching/experiment/?hitId=3E9VAUV7BW02QFDK7N7IH7ZKACRYAN&workerId=A2PN6GNPPPHWQO&assignmentId=39K0FND3AI14IIM0FMO9CV800RHAM5&a=3FK99&tp_a=3FK99&b=39K0FND3AI14IIM0FMO9CV800RHAM5&tp_b=39K0FND3AI14IIM0FMO9CV800RHAM5&c=365799&tp_c=365799","firstResponseHeads":2,"firstResponseTails":8,"secondResponseHeads":2,"secondResponseTails":8,"totalHeads":4,"totalTails":16,"studentIndex":17,"studentTrueHypers":{"a":4,"b":1},"studentGuess":0.32,"delta":0.12,"bonus":0,"bonusSoFar":1,"totalExamples":20},{"rt":4072,"response":{"heads":"8","tails":"0"},"type":"response","condition":"seqNoFeedback","trueTheta":0.8,"classrooms":["A","B"],"studentTrueClassroom":"B","exampleSet":"first","trial_type":"survey-html-form","trial_index":157,"time_elapsed":1290502,"internal_node_id":"0.0-141.0-0.0","params":{"nStudents":24,"maxFlips":30,"completionMinutes":45,"basePay":8,"maxBonus":9,"perTrialBonus":0.5,"perTrialBonusThreshold":0.05,"exampleCost":0.01},"classroomParams":{"A":{"a":1,"b":4},"B":{"a":4,"b":1},"C":{"a":2,"b":8},"D":{"a":8,"b":2}},"conditions":["nonSeqFull","nonSeqPartial","seqNoFeedback","seqFeedback"],"classroomPairings":[["A","B"],["C","D"]],"coinWeights":[0.2,0.5,0.8],"subjectId":"A2PN6GNPPPHWQO","assignmentId":"39K0FND3AI14IIM0FMO9CV800RHAM5","hitId":"3E9VAUV7BW02QFDK7N7IH7ZKACRYAN","url":"https://gershmanlab.com/experiments/alicia/teaching/experiment/?hitId=3E9VAUV7BW02QFDK7N7IH7ZKACRYAN&workerId=A2PN6GNPPPHWQO&assignmentId=39K0FND3AI14IIM0FMO9CV800RHAM5&a=3FK99&tp_a=3FK99&b=39K0FND3AI14IIM0FMO9CV800RHAM5&tp_b=39K0FND3AI14IIM0FMO9CV800RHAM5&c=365799&tp_c=365799","heads":8,"tails":0,"studentIndex":18,"studentTrueHypers":{"a":4,"b":1},"studentGuess":0.9230769230769231,"delta":0.12307692307692308,"totalExamples":8,"bonusSoFar":1},{"rt":14266,"response":{"heads":"8","tails":"0"},"type":"response","condition":"seqNoFeedback","trueTheta":0.8,"classrooms":["A","B"],"studentTrueClassroom":"B","exampleSet":"second","trial_type":"survey-html-form","trial_index":160,"time_elapsed":1312276,"internal_node_id":"0.0-144.0-0.0","params":{"nStudents":24,"maxFlips":30,"completionMinutes":45,"basePay":8,"maxBonus":9,"perTrialBonus":0.5,"perTrialBonusThreshold":0.05,"exampleCost":0.01},"classroomParams":{"A":{"a":1,"b":4},"B":{"a":4,"b":1},"C":{"a":2,"b":8},"D":{"a":8,"b":2}},"conditions":["nonSeqFull","nonSeqPartial","seqNoFeedback","seqFeedback"],"classroomPairings":[["A","B"],["C","D"]],"coinWeights":[0.2,0.5,0.8],"subjectId":"A2PN6GNPPPHWQO","assignmentId":"39K0FND3AI14IIM0FMO9CV800RHAM5","hitId":"3E9VAUV7BW02QFDK7N7IH7ZKACRYAN","url":"https://gershmanlab.com/experiments/alicia/teaching/experiment/?hitId=3E9VAUV7BW02QFDK7N7IH7ZKACRYAN&workerId=A2PN6GNPPPHWQO&assignmentId=39K0FND3AI14IIM0FMO9CV800RHAM5&a=3FK99&tp_a=3FK99&b=39K0FND3AI14IIM0FMO9CV800RHAM5&tp_b=39K0FND3AI14IIM0FMO9CV800RHAM5&c=365799&tp_c=365799","firstResponseHeads":8,"firstResponseTails":0,"secondResponseHeads":8,"secondResponseTails":0,"totalHeads":16,"totalTails":0,"studentIndex":18,"studentTrueHypers":{"a":4,"b":1},"studentGuess":0.9523809523809523,"delta":0.15238095238095228,"bonus":0,"bonusSoFar":1,"totalExamples":16},{"rt":7223,"response":{"heads":"2","tails":"8"},"type":"response","condition":"seqFeedback","trueTheta":0.2,"classrooms":["C","D"],"studentTrueClassroom":"C","exampleSet":"first","trial_type":"survey-html-form","trial_index":166,"time_elapsed":1333941,"internal_node_id":"0.0-150.0-0.0","params":{"nStudents":24,"maxFlips":30,"completionMinutes":45,"basePay":8,"maxBonus":9,"perTrialBonus":0.5,"perTrialBonusThreshold":0.05,"exampleCost":0.01},"classroomParams":{"A":{"a":1,"b":4},"B":{"a":4,"b":1},"C":{"a":2,"b":8},"D":{"a":8,"b":2}},"conditions":["nonSeqFull","nonSeqPartial","seqNoFeedback","seqFeedback"],"classroomPairings":[["A","B"],["C","D"]],"coinWeights":[0.2,0.5,0.8],"subjectId":"A2PN6GNPPPHWQO","assignmentId":"39K0FND3AI14IIM0FMO9CV800RHAM5","hitId":"3E9VAUV7BW02QFDK7N7IH7ZKACRYAN","url":"https://gershmanlab.com/experiments/alicia/teaching/experiment/?hitId=3E9VAUV7BW02QFDK7N7IH7ZKACRYAN&workerId=A2PN6GNPPPHWQO&assignmentId=39K0FND3AI14IIM0FMO9CV800RHAM5&a=3FK99&tp_a=3FK99&b=39K0FND3AI14IIM0FMO9CV800RHAM5&tp_b=39K0FND3AI14IIM0FMO9CV800RHAM5&c=365799&tp_c=365799","heads":2,"tails":8,"studentIndex":19,"studentTrueHypers":{"a":2,"b":8},"studentGuess":0.2,"delta":0,"totalExamples":10,"bonusSoFar":1},{"rt":8153,"response":{"heads":"2","tails":"8"},"type":"response","condition":"seqFeedback","trueTheta":0.2,"classrooms":["C","D"],"studentTrueClassroom":"C","exampleSet":"second","trial_type":"survey-html-form","trial_index":170,"time_elapsed":1350210,"internal_node_id":"0.0-154.0-0.0","params":{"nStudents":24,"maxFlips":30,"completionMinutes":45,"basePay":8,"maxBonus":9,"perTrialBonus":0.5,"perTrialBonusThreshold":0.05,"exampleCost":0.01},"classroomParams":{"A":{"a":1,"b":4},"B":{"a":4,"b":1},"C":{"a":2,"b":8},"D":{"a":8,"b":2}},"conditions":["nonSeqFull","nonSeqPartial","seqNoFeedback","seqFeedback"],"classroomPairings":[["A","B"],["C","D"]],"coinWeights":[0.2,0.5,0.8],"subjectId":"A2PN6GNPPPHWQO","assignmentId":"39K0FND3AI14IIM0FMO9CV800RHAM5","hitId":"3E9VAUV7BW02QFDK7N7IH7ZKACRYAN","url":"https://gershmanlab.com/experiments/alicia/teaching/experiment/?hitId=3E9VAUV7BW02QFDK7N7IH7ZKACRYAN&workerId=A2PN6GNPPPHWQO&assignmentId=39K0FND3AI14IIM0FMO9CV800RHAM5&a=3FK99&tp_a=3FK99&b=39K0FND3AI14IIM0FMO9CV800RHAM5&tp_b=39K0FND3AI14IIM0FMO9CV800RHAM5&c=365799&tp_c=365799","firstResponseHeads":2,"firstResponseTails":8,"secondResponseHeads":2,"secondResponseTails":8,"totalHeads":4,"totalTails":16,"studentIndex":19,"studentTrueHypers":{"a":2,"b":8},"studentGuess":0.2,"delta":0,"bonus":0.3,"bonusSoFar":1.3,"totalExamples":20},{"rt":9972,"response":{"heads":"5","tails":"5"},"type":"response","condition":"nonSeqFull","trueTheta":0.5,"classrooms":["C","D"],"studentTrueClassroom":"C","exampleSet":"first","trial_type":"survey-html-form","trial_index":176,"time_elapsed":1372263,"internal_node_id":"0.0-160.0-0.0","params":{"nStudents":24,"maxFlips":30,"completionMinutes":45,"basePay":8,"maxBonus":9,"perTrialBonus":0.5,"perTrialBonusThreshold":0.05,"exampleCost":0.01},"classroomParams":{"A":{"a":1,"b":4},"B":{"a":4,"b":1},"C":{"a":2,"b":8},"D":{"a":8,"b":2}},"conditions":["nonSeqFull","nonSeqPartial","seqNoFeedback","seqFeedback"],"classroomPairings":[["A","B"],["C","D"]],"coinWeights":[0.2,0.5,0.8],"subjectId":"A2PN6GNPPPHWQO","assignmentId":"39K0FND3AI14IIM0FMO9CV800RHAM5","hitId":"3E9VAUV7BW02QFDK7N7IH7ZKACRYAN","url":"https://gershmanlab.com/experiments/alicia/teaching/experiment/?hitId=3E9VAUV7BW02QFDK7N7IH7ZKACRYAN&workerId=A2PN6GNPPPHWQO&assignmentId=39K0FND3AI14IIM0FMO9CV800RHAM5&a=3FK99&tp_a=3FK99&b=39K0FND3AI14IIM0FMO9CV800RHAM5&tp_b=39K0FND3AI14IIM0FMO9CV800RHAM5&c=365799&tp_c=365799","heads":5,"tails":5,"studentIndex":20,"studentTrueHypers":{"a":2,"b":8},"studentGuess":0.35,"delta":0.15000000000000002,"totalExamples":10,"bonus":0,"bonusSoFar":1.3},{"rt":6574,"response":{"heads":"8","tails":"0"},"type":"response","condition":"seqFeedback","trueTheta":0.8,"classrooms":["C","D"],"studentTrueClassroom":"C","exampleSet":"first","trial_type":"survey-html-form","trial_index":182,"time_elapsed":1391877,"internal_node_id":"0.0-166.0-0.0","params":{"nStudents":24,"maxFlips":30,"completionMinutes":45,"basePay":8,"maxBonus":9,"perTrialBonus":0.5,"perTrialBonusThreshold":0.05,"exampleCost":0.01},"classroomParams":{"A":{"a":1,"b":4},"B":{"a":4,"b":1},"C":{"a":2,"b":8},"D":{"a":8,"b":2}},"conditions":["nonSeqFull","nonSeqPartial","seqNoFeedback","seqFeedback"],"classroomPairings":[["A","B"],["C","D"]],"coinWeights":[0.2,0.5,0.8],"subjectId":"A2PN6GNPPPHWQO","assignmentId":"39K0FND3AI14IIM0FMO9CV800RHAM5","hitId":"3E9VAUV7BW02QFDK7N7IH7ZKACRYAN","url":"https://gershmanlab.com/experiments/alicia/teaching/experiment/?hitId=3E9VAUV7BW02QFDK7N7IH7ZKACRYAN&workerId=A2PN6GNPPPHWQO&assignmentId=39K0FND3AI14IIM0FMO9CV800RHAM5&a=3FK99&tp_a=3FK99&b=39K0FND3AI14IIM0FMO9CV800RHAM5&tp_b=39K0FND3AI14IIM0FMO9CV800RHAM5&c=365799&tp_c=365799","heads":8,"tails":0,"studentIndex":21,"studentTrueHypers":{"a":2,"b":8},"studentGuess":0.5555555555555556,"delta":0.24444444444444446,"totalExamples":8,"bonusSoFar":1.3},{"rt":8213,"response":{"heads":"8","tails":"2"},"type":"response","condition":"seqFeedback","trueTheta":0.8,"classrooms":["C","D"],"studentTrueClassroom":"C","exampleSet":"second","trial_type":"survey-html-form","trial_index":186,"time_elapsed":1409812,"internal_node_id":"0.0-170.0-0.0","params":{"nStudents":24,"maxFlips":30,"completionMinutes":45,"basePay":8,"maxBonus":9,"perTrialBonus":0.5,"perTrialBonusThreshold":0.05,"exampleCost":0.01},"classroomParams":{"A":{"a":1,"b":4},"B":{"a":4,"b":1},"C":{"a":2,"b":8},"D":{"a":8,"b":2}},"conditions":["nonSeqFull","nonSeqPartial","seqNoFeedback","seqFeedback"],"classroomPairings":[["A","B"],["C","D"]],"coinWeights":[0.2,0.5,0.8],"subjectId":"A2PN6GNPPPHWQO","assignmentId":"39K0FND3AI14IIM0FMO9CV800RHAM5","hitId":"3E9VAUV7BW02QFDK7N7IH7ZKACRYAN","url":"https://gershmanlab.com/experiments/alicia/teaching/experiment/?hitId=3E9VAUV7BW02QFDK7N7IH7ZKACRYAN&workerId=A2PN6GNPPPHWQO&assignmentId=39K0FND3AI14IIM0FMO9CV800RHAM5&a=3FK99&tp_a=3FK99&b=39K0FND3AI14IIM0FMO9CV800RHAM5&tp_b=39K0FND3AI14IIM0FMO9CV800RHAM5&c=365799&tp_c=365799","firstResponseHeads":8,"firstResponseTails":0,"secondResponseHeads":8,"secondResponseTails":2,"totalHeads":16,"totalTails":2,"studentIndex":21,"studentTrueHypers":{"a":2,"b":8},"studentGuess":0.6428571428571429,"delta":0.15714285714285714,"bonus":0,"bonusSoFar":1.3,"totalExamples":18},{"rt":32313,"response":{"heads":"2","tails":"8"},"type":"response","condition":"nonSeqFull","trueTheta":0.2,"classrooms":["A","B"],"studentTrueClassroom":"A","exampleSet":"first","trial_type":"survey-html-form","trial_index":192,"time_elapsed":1454663,"internal_node_id":"0.0-176.0-0.0","params":{"nStudents":24,"maxFlips":30,"completionMinutes":45,"basePay":8,"maxBonus":9,"perTrialBonus":0.5,"perTrialBonusThreshold":0.05,"exampleCost":0.01},"classroomParams":{"A":{"a":1,"b":4},"B":{"a":4,"b":1},"C":{"a":2,"b":8},"D":{"a":8,"b":2}},"conditions":["nonSeqFull","nonSeqPartial","seqNoFeedback","seqFeedback"],"classroomPairings":[["A","B"],["C","D"]],"coinWeights":[0.2,0.5,0.8],"subjectId":"A2PN6GNPPPHWQO","assignmentId":"39K0FND3AI14IIM0FMO9CV800RHAM5","hitId":"3E9VAUV7BW02QFDK7N7IH7ZKACRYAN","url":"https://gershmanlab.com/experiments/alicia/teaching/experiment/?hitId=3E9VAUV7BW02QFDK7N7IH7ZKACRYAN&workerId=A2PN6GNPPPHWQO&assignmentId=39K0FND3AI14IIM0FMO9CV800RHAM5&a=3FK99&tp_a=3FK99&b=39K0FND3AI14IIM0FMO9CV800RHAM5&tp_b=39K0FND3AI14IIM0FMO9CV800RHAM5&c=365799&tp_c=365799","heads":2,"tails":8,"studentIndex":22,"studentTrueHypers":{"a":1,"b":4},"studentGuess":0.2,"delta":0,"totalExamples":10,"bonus":0.4,"bonusSoFar":1.7},{"rt":7190,"response":{"heads":"5","tails":"5"},"type":"response","condition":"seqFeedback","trueTheta":0.5,"classrooms":["A","B"],"studentTrueClassroom":"B","exampleSet":"first","trial_type":"survey-html-form","trial_index":198,"time_elapsed":1473513,"internal_node_id":"0.0-182.0-0.0","params":{"nStudents":24,"maxFlips":30,"completionMinutes":45,"basePay":8,"maxBonus":9,"perTrialBonus":0.5,"perTrialBonusThreshold":0.05,"exampleCost":0.01},"classroomParams":{"A":{"a":1,"b":4},"B":{"a":4,"b":1},"C":{"a":2,"b":8},"D":{"a":8,"b":2}},"conditions":["nonSeqFull","nonSeqPartial","seqNoFeedback","seqFeedback"],"classroomPairings":[["A","B"],["C","D"]],"coinWeights":[0.2,0.5,0.8],"subjectId":"A2PN6GNPPPHWQO","assignmentId":"39K0FND3AI14IIM0FMO9CV800RHAM5","hitId":"3E9VAUV7BW02QFDK7N7IH7ZKACRYAN","url":"https://gershmanlab.com/experiments/alicia/teaching/experiment/?hitId=3E9VAUV7BW02QFDK7N7IH7ZKACRYAN&workerId=A2PN6GNPPPHWQO&assignmentId=39K0FND3AI14IIM0FMO9CV800RHAM5&a=3FK99&tp_a=3FK99&b=39K0FND3AI14IIM0FMO9CV800RHAM5&tp_b=39K0FND3AI14IIM0FMO9CV800RHAM5&c=365799&tp_c=365799","heads":5,"tails":5,"studentIndex":23,"studentTrueHypers":{"a":4,"b":1},"studentGuess":0.6,"delta":0.09999999999999998,"totalExamples":10,"bonusSoFar":1.7},{"rt":11578,"response":{"heads":"6","tails":"4"},"type":"response","condition":"seqFeedback","trueTheta":0.5,"classrooms":["A","B"],"studentTrueClassroom":"B","exampleSet":"second","trial_type":"survey-html-form","trial_index":202,"time_elapsed":1493875,"internal_node_id":"0.0-186.0-0.0","params":{"nStudents":24,"maxFlips":30,"completionMinutes":45,"basePay":8,"maxBonus":9,"perTrialBonus":0.5,"perTrialBonusThreshold":0.05,"exampleCost":0.01},"classroomParams":{"A":{"a":1,"b":4},"B":{"a":4,"b":1},"C":{"a":2,"b":8},"D":{"a":8,"b":2}},"conditions":["nonSeqFull","nonSeqPartial","seqNoFeedback","seqFeedback"],"classroomPairings":[["A","B"],["C","D"]],"coinWeights":[0.2,0.5,0.8],"subjectId":"A2PN6GNPPPHWQO","assignmentId":"39K0FND3AI14IIM0FMO9CV800RHAM5","hitId":"3E9VAUV7BW02QFDK7N7IH7ZKACRYAN","url":"https://gershmanlab.com/experiments/alicia/teaching/experiment/?hitId=3E9VAUV7BW02QFDK7N7IH7ZKACRYAN&workerId=A2PN6GNPPPHWQO&assignmentId=39K0FND3AI14IIM0FMO9CV800RHAM5&a=3FK99&tp_a=3FK99&b=39K0FND3AI14IIM0FMO9CV800RHAM5&tp_b=39K0FND3AI14IIM0FMO9CV800RHAM5&c=365799&tp_c=365799","firstResponseHeads":5,"firstResponseTails":5,"secondResponseHeads":6,"secondResponseTails":4,"totalHeads":11,"totalTails":9,"studentIndex":23,"studentTrueHypers":{"a":4,"b":1},"studentGuess":0.6,"delta":0.09999999999999998,"bonus":0,"bonusSoFar":1.7,"totalExamples":20},{"rt":6895,"response":{"gender":"female","age":"22","understood":"yes","comments":""},"type":"response","trial_type":"survey-html-form","trial_index":206,"time_elapsed":1507747,"internal_node_id":"0.0-191.0","params":{"nStudents":24,"maxFlips":30,"completionMinutes":45,"basePay":8,"maxBonus":9,"perTrialBonus":0.5,"perTrialBonusThreshold":0.05,"exampleCost":0.01},"classroomParams":{"A":{"a":1,"b":4},"B":{"a":4,"b":1},"C":{"a":2,"b":8},"D":{"a":8,"b":2}},"conditions":["nonSeqFull","nonSeqPartial","seqNoFeedback","seqFeedback"],"classroomPairings":[["A","B"],["C","D"]],"coinWeights":[0.2,0.5,0.8],"subjectId":"A2PN6GNPPPHWQO","assignmentId":"39K0FND3AI14IIM0FMO9CV800RHAM5","hitId":"3E9VAUV7BW02QFDK7N7IH7ZKACRYAN","url":"https://gershmanlab.com/experiments/alicia/teaching/experiment/?hitId=3E9VAUV7BW02QFDK7N7IH7ZKACRYAN&workerId=A2PN6GNPPPHWQO&assignmentId=39K0FND3AI14IIM0FMO9CV800RHAM5&a=3FK99&tp_a=3FK99&b=39K0FND3AI14IIM0FMO9CV800RHAM5&tp_b=39K0FND3AI14IIM0FMO9CV800RHAM5&c=365799&tp_c=365799","totalBonus":1.7}]