[{"rt":94676,"response":{"heads":"15","tails":"15"},"type":"response","condition":"seqFeedback","trueTheta":0.5,"classrooms":["C","D"],"studentTrueClassroom":"D","exampleSet":"first","trial_type":"survey-html-form","trial_index":10,"time_elapsed":526759,"internal_node_id":"0.0-6.0-0.0","params":{"nStudents":24,"maxFlips":30,"completionMinutes":45,"basePay":8,"maxBonus":9,"perTrialBonus":0.5,"perTrialBonusThreshold":0.05,"exampleCost":0.01},"classroomParams":{"A":{"a":1,"b":4},"B":{"a":4,"b":1},"C":{"a":2,"b":8},"D":{"a":8,"b":2}},"conditions":["nonSeqFull","nonSeqPartial","seqNoFeedback","seqFeedback"],"classroomPairings":[["A","B"],["C","D"]],"coinWeights":[0.2,0.5,0.8],"subjectId":"A2PPTQXFVA9H38","assignmentId":"3ERMJ6L4DZEMZGO28JCP246AZIR7MP","hitId":"34XASH8KLQ89J2U8D314D7180O4PMV","url":"https://gershmanlab.com/experiments/alicia/teaching/experiment/?hitId=34XASH8KLQ89J2U8D314D7180O4PMV&workerId=A2PPTQXFVA9H38&assignmentId=3ERMJ6L4DZEMZGO28JCP246AZIR7MP&a=4JRE7&tp_a=4JRE7&b=3ERMJ6L4DZEMZGO28JCP246AZIR7MP&tp_b=3ERMJ6L4DZEMZGO28JCP246AZIR7MP&c=365717&tp_c=365717","heads":15,"tails":15,"studentIndex":0,"studentTrueHypers":{"a":8,"b":2},"studentGuess":0.575,"delta":0.07499999999999996,"totalExamples":30,"bonusSoFar":0},{"rt":54033,"response":{"heads":"15","tails":"15"},"type":"response","condition":"seqFeedback","trueTheta":0.5,"classrooms":["C","D"],"studentTrueClassroom":"D","exampleSet":"second","trial_type":"survey-html-form","trial_index":14,"time_elapsed":600355,"internal_node_id":"0.0-10.0-0.0","params":{"nStudents":24,"maxFlips":30,"completionMinutes":45,"basePay":8,"maxBonus":9,"perTrialBonus":0.5,"perTrialBonusThreshold":0.05,"exampleCost":0.01},"classroomParams":{"A":{"a":1,"b":4},"B":{"a":4,"b":1},"C":{"a":2,"b":8},"D":{"a":8,"b":2}},"conditions":["nonSeqFull","nonSeqPartial","seqNoFeedback","seqFeedback"],"classroomPairings":[["A","B"],["C","D"]],"coinWeights":[0.2,0.5,0.8],"subjectId":"A2PPTQXFVA9H38","assignmentId":"3ERMJ6L4DZEMZGO28JCP246AZIR7MP","hitId":"34XASH8KLQ89J2U8D314D7180O4PMV","url":"https://gershmanlab.com/experiments/alicia/teaching/experiment/?hitId=34XASH8KLQ89J2U8D314D7180O4PMV&workerId=A2PPTQXFVA9H38&assignmentId=3ERMJ6L4DZEMZGO28JCP246AZIR7MP&a=4JRE7&tp_a=4JRE7&b=3ERMJ6L4DZEMZGO28JCP246AZIR7MP&tp_b=3ERMJ6L4DZEMZGO28JCP246AZIR7MP&c=365717&tp_c=365717","firstResponseHeads":15,"firstResponseTails":15,"secondResponseHeads":15,"secondResponseTails":15,"totalHeads":30,"totalTails":30,"studentIndex":0,"studentTrueHypers":{"a":8,"b":2},"studentGuess":0.5428571428571428,"delta":0.042857142857142816,"bonus":0,"bonusSoFar":0,"totalExamples":60},{"rt":169384,"response":{"heads":"30","tails":"30"},"type":"response","condition":"nonSeqFull","trueTheta":0.5,"classrooms":["A","B"],"studentTrueClassroom":"B","exampleSet":"first","trial_type":"survey-html-form","trial_index":20,"time_elapsed":863697,"internal_node_id":"0.0-16.0-0.0","params":{"nStudents":24,"maxFlips":30,"completionMinutes":45,"basePay":8,"maxBonus":9,"perTrialBonus":0.5,"perTrialBonusThreshold":0.05,"exampleCost":0.01},"classroomParams":{"A":{"a":1,"b":4},"B":{"a":4,"b":1},"C":{"a":2,"b":8},"D":{"a":8,"b":2}},"conditions":["nonSeqFull","nonSeqPartial","seqNoFeedback","seqFeedback"],"classroomPairings":[["A","B"],["C","D"]],"coinWeights":[0.2,0.5,0.8],"subjectId":"A2PPTQXFVA9H38","assignmentId":"3ERMJ6L4DZEMZGO28JCP246AZIR7MP","hitId":"34XASH8KLQ89J2U8D314D7180O4PMV","url":"https://gershmanlab.com/experiments/alicia/teaching/experiment/?hitId=34XASH8KLQ89J2U8D314D7180O4PMV&workerId=A2PPTQXFVA9H38&assignmentId=3ERMJ6L4DZEMZGO28JCP246AZIR7MP&a=4JRE7&tp_a=4JRE7&b=3ERMJ6L4DZEMZGO28JCP246AZIR7MP&tp_b=3ERMJ6L4DZEMZGO28JCP246AZIR7MP&c=365717&tp_c=365717","heads":30,"tails":30,"studentIndex":1,"studentTrueHypers":{"a":4,"b":1},"studentGuess":0.5230769230769231,"delta":0.023076923076923106,"totalExamples":60,"bonus":0,"bonusSoFar":0},{"rt":4496,"response":{"heads":"30","tails":"30"},"type":"response","condition":"nonSeqFull","trueTheta":0.5,"classrooms":["A","B"],"studentTrueClassroom":"B","exampleSet":"first","trial_type":"survey-html-form","trial_index":21,"time_elapsed":868194,"internal_node_id":"0.0-16.1-0.1","params":{"nStudents":24,"maxFlips":30,"completionMinutes":45,"basePay":8,"maxBonus":9,"perTrialBonus":0.5,"perTrialBonusThreshold":0.05,"exampleCost":0.01},"classroomParams":{"A":{"a":1,"b":4},"B":{"a":4,"b":1},"C":{"a":2,"b":8},"D":{"a":8,"b":2}},"conditions":["nonSeqFull","nonSeqPartial","seqNoFeedback","seqFeedback"],"classroomPairings":[["A","B"],["C","D"]],"coinWeights":[0.2,0.5,0.8],"subjectId":"A2PPTQXFVA9H38","assignmentId":"3ERMJ6L4DZEMZGO28JCP246AZIR7MP","hitId":"34XASH8KLQ89J2U8D314D7180O4PMV","url":"https://gershmanlab.com/experiments/alicia/teaching/experiment/?hitId=34XASH8KLQ89J2U8D314D7180O4PMV&workerId=A2PPTQXFVA9H38&assignmentId=3ERMJ6L4DZEMZGO28JCP246AZIR7MP&a=4JRE7&tp_a=4JRE7&b=3ERMJ6L4DZEMZGO28JCP246AZIR7MP&tp_b=3ERMJ6L4DZEMZGO28JCP246AZIR7MP&c=365717&tp_c=365717","heads":30,"tails":30,"studentIndex":1,"studentTrueHypers":{"a":4,"b":1},"studentGuess":0.5230769230769231,"delta":0.023076923076923106,"totalExamples":60,"bonus":0,"bonusSoFar":0},{"rt":2730,"response":{"heads":"30","tails":"30"},"type":"response","condition":"nonSeqFull","trueTheta":0.5,"classrooms":["A","B"],"studentTrueClassroom":"B","exampleSet":"first","trial_type":"survey-html-form","trial_index":22,"time_elapsed":870925,"internal_node_id":"0.0-16.2-0.2","params":{"nStudents":24,"maxFlips":30,"completionMinutes":45,"basePay":8,"maxBonus":9,"perTrialBonus":0.5,"perTrialBonusThreshold":0.05,"exampleCost":0.01},"classroomParams":{"A":{"a":1,"b":4},"B":{"a":4,"b":1},"C":{"a":2,"b":8},"D":{"a":8,"b":2}},"conditions":["nonSeqFull","nonSeqPartial","seqNoFeedback","seqFeedback"],"classroomPairings":[["A","B"],["C","D"]],"coinWeights":[0.2,0.5,0.8],"subjectId":"A2PPTQXFVA9H38","assignmentId":"3ERMJ6L4DZEMZGO28JCP246AZIR7MP","hitId":"34XASH8KLQ89J2U8D314D7180O4PMV","url":"https://gershmanlab.com/experiments/alicia/teaching/experiment/?hitId=34XASH8KLQ89J2U8D314D7180O4PMV&workerId=A2PPTQXFVA9H38&assignmentId=3ERMJ6L4DZEMZGO28JCP246AZIR7MP&a=4JRE7&tp_a=4JRE7&b=3ERMJ6L4DZEMZGO28JCP246AZIR7MP&tp_b=3ERMJ6L4DZEMZGO28JCP246AZIR7MP&c=365717&tp_c=365717","heads":30,"tails":30,"studentIndex":1,"studentTrueHypers":{"a":4,"b":1},"studentGuess":0.5230769230769231,"delta":0.023076923076923106,"totalExamples":60,"bonus":0,"bonusSoFar":0},{"rt":21760,"response":{"heads":"2","tails":"2"},"type":"response","condition":"nonSeqFull","trueTheta":0.5,"classrooms":["A","B"],"studentTrueClassroom":"B","exampleSet":"first","trial_type":"survey-html-form","trial_index":23,"time_elapsed":892686,"internal_node_id":"0.0-16.3-0.3","params":{"nStudents":24,"maxFlips":30,"completionMinutes":45,"basePay":8,"maxBonus":9,"perTrialBonus":0.5,"perTrialBonusThreshold":0.05,"exampleCost":0.01},"classroomParams":{"A":{"a":1,"b":4},"B":{"a":4,"b":1},"C":{"a":2,"b":8},"D":{"a":8,"b":2}},"conditions":["nonSeqFull","nonSeqPartial","seqNoFeedback","seqFeedback"],"classroomPairings":[["A","B"],["C","D"]],"coinWeights":[0.2,0.5,0.8],"subjectId":"A2PPTQXFVA9H38","assignmentId":"3ERMJ6L4DZEMZGO28JCP246AZIR7MP","hitId":"34XASH8KLQ89J2U8D314D7180O4PMV","url":"https://gershmanlab.com/experiments/alicia/teaching/experiment/?hitId=34XASH8KLQ89J2U8D314D7180O4PMV&workerId=A2PPTQXFVA9H38&assignmentId=3ERMJ6L4DZEMZGO28JCP246AZIR7MP&a=4JRE7&tp_a=4JRE7&b=3ERMJ6L4DZEMZGO28JCP246AZIR7MP&tp_b=3ERMJ6L4DZEMZGO28JCP246AZIR7MP&c=365717&tp_c=365717","heads":2,"tails":2,"studentIndex":1,"studentTrueHypers":{"a":4,"b":1},"studentGuess":0.6666666666666666,"delta":0.16666666666666663,"totalExamples":4,"bonus":0,"bonusSoFar":0},{"rt":82197,"response":{"heads":"1","tails":"5"},"type":"response","condition":"nonSeqPartial","trueTheta":0.2,"classrooms":["A","B"],"studentTrueClassroom":"A","exampleSet":"first","trial_type":"survey-html-form","trial_index":29,"time_elapsed":992782,"internal_node_id":"0.0-22.0-0.0","params":{"nStudents":24,"maxFlips":30,"completionMinutes":45,"basePay":8,"maxBonus":9,"perTrialBonus":0.5,"perTrialBonusThreshold":0.05,"exampleCost":0.01},"classroomParams":{"A":{"a":1,"b":4},"B":{"a":4,"b":1},"C":{"a":2,"b":8},"D":{"a":8,"b":2}},"conditions":["nonSeqFull","nonSeqPartial","seqNoFeedback","seqFeedback"],"classroomPairings":[["A","B"],["C","D"]],"coinWeights":[0.2,0.5,0.8],"subjectId":"A2PPTQXFVA9H38","assignmentId":"3ERMJ6L4DZEMZGO28JCP246AZIR7MP","hitId":"34XASH8KLQ89J2U8D314D7180O4PMV","url":"https://gershmanlab.com/experiments/alicia/teaching/experiment/?hitId=34XASH8KLQ89J2U8D314D7180O4PMV&workerId=A2PPTQXFVA9H38&assignmentId=3ERMJ6L4DZEMZGO28JCP246AZIR7MP&a=4JRE7&tp_a=4JRE7&b=3ERMJ6L4DZEMZGO28JCP246AZIR7MP&tp_b=3ERMJ6L4DZEMZGO28JCP246AZIR7MP&c=365717&tp_c=365717","heads":1,"tails":5,"studentIndex":2,"studentTrueHypers":{"a":1,"b":4},"studentGuess":0.18181818181818182,"delta":0.018181818181818188,"totalExamples":6,"bonus":0.44,"bonusSoFar":0.44},{"rt":4198,"response":{"heads":"1","tails":"5"},"type":"response","condition":"seqNoFeedback","trueTheta":0.2,"classrooms":["A","B"],"studentTrueClassroom":"B","exampleSet":"first","trial_type":"survey-html-form","trial_index":35,"time_elapsed":1008944,"internal_node_id":"0.0-28.0-0.0","params":{"nStudents":24,"maxFlips":30,"completionMinutes":45,"basePay":8,"maxBonus":9,"perTrialBonus":0.5,"perTrialBonusThreshold":0.05,"exampleCost":0.01},"classroomParams":{"A":{"a":1,"b":4},"B":{"a":4,"b":1},"C":{"a":2,"b":8},"D":{"a":8,"b":2}},"conditions":["nonSeqFull","nonSeqPartial","seqNoFeedback","seqFeedback"],"classroomPairings":[["A","B"],["C","D"]],"coinWeights":[0.2,0.5,0.8],"subjectId":"A2PPTQXFVA9H38","assignmentId":"3ERMJ6L4DZEMZGO28JCP246AZIR7MP","hitId":"34XASH8KLQ89J2U8D314D7180O4PMV","url":"https://gershmanlab.com/experiments/alicia/teaching/experiment/?hitId=34XASH8KLQ89J2U8D314D7180O4PMV&workerId=A2PPTQXFVA9H38&assignmentId=3ERMJ6L4DZEMZGO28JCP246AZIR7MP&a=4JRE7&tp_a=4JRE7&b=3ERMJ6L4DZEMZGO28JCP246AZIR7MP&tp_b=3ERMJ6L4DZEMZGO28JCP246AZIR7MP&c=365717&tp_c=365717","heads":1,"tails":5,"studentIndex":3,"studentTrueHypers":{"a":4,"b":1},"studentGuess":0.45454545454545453,"delta":0.2545454545454545,"totalExamples":6,"bonusSoFar":0.44},{"rt":15242,"response":{"heads":"1","tails":"5"},"type":"response","condition":"seqNoFeedback","trueTheta":0.2,"classrooms":["A","B"],"studentTrueClassroom":"B","exampleSet":"second","trial_type":"survey-html-form","trial_index":38,"time_elapsed":1031460,"internal_node_id":"0.0-31.0-0.0","params":{"nStudents":24,"maxFlips":30,"completionMinutes":45,"basePay":8,"maxBonus":9,"perTrialBonus":0.5,"perTrialBonusThreshold":0.05,"exampleCost":0.01},"classroomParams":{"A":{"a":1,"b":4},"B":{"a":4,"b":1},"C":{"a":2,"b":8},"D":{"a":8,"b":2}},"conditions":["nonSeqFull","nonSeqPartial","seqNoFeedback","seqFeedback"],"classroomPairings":[["A","B"],["C","D"]],"coinWeights":[0.2,0.5,0.8],"subjectId":"A2PPTQXFVA9H38","assignmentId":"3ERMJ6L4DZEMZGO28JCP246AZIR7MP","hitId":"34XASH8KLQ89J2U8D314D7180O4PMV","url":"https://gershmanlab.com/experiments/alicia/teaching/experiment/?hitId=34XASH8KLQ89J2U8D314D7180O4PMV&workerId=A2PPTQXFVA9H38&assignmentId=3ERMJ6L4DZEMZGO28JCP246AZIR7MP&a=4JRE7&tp_a=4JRE7&b=3ERMJ6L4DZEMZGO28JCP246AZIR7MP&tp_b=3ERMJ6L4DZEMZGO28JCP246AZIR7MP&c=365717&tp_c=365717","firstResponseHeads":1,"firstResponseTails":5,"secondResponseHeads":1,"secondResponseTails":5,"totalHeads":2,"totalTails":10,"studentIndex":3,"studentTrueHypers":{"a":4,"b":1},"studentGuess":0.35294117647058826,"delta":0.15294117647058825,"bonus":0,"bonusSoFar":0.44,"totalExamples":12},{"rt":25821,"response":{"heads":"8","tails":"2"},"type":"response","condition":"seqFeedback","trueTheta":0.8,"classrooms":["A","B"],"studentTrueClassroom":"B","exampleSet":"first","trial_type":"survey-html-form","trial_index":44,"time_elapsed":1072434,"internal_node_id":"0.0-37.0-0.0","params":{"nStudents":24,"maxFlips":30,"completionMinutes":45,"basePay":8,"maxBonus":9,"perTrialBonus":0.5,"perTrialBonusThreshold":0.05,"exampleCost":0.01},"classroomParams":{"A":{"a":1,"b":4},"B":{"a":4,"b":1},"C":{"a":2,"b":8},"D":{"a":8,"b":2}},"conditions":["nonSeqFull","nonSeqPartial","seqNoFeedback","seqFeedback"],"classroomPairings":[["A","B"],["C","D"]],"coinWeights":[0.2,0.5,0.8],"subjectId":"A2PPTQXFVA9H38","assignmentId":"3ERMJ6L4DZEMZGO28JCP246AZIR7MP","hitId":"34XASH8KLQ89J2U8D314D7180O4PMV","url":"https://gershmanlab.com/experiments/alicia/teaching/experiment/?hitId=34XASH8KLQ89J2U8D314D7180O4PMV&workerId=A2PPTQXFVA9H38&assignmentId=3ERMJ6L4DZEMZGO28JCP246AZIR7MP&a=4JRE7&tp_a=4JRE7&b=3ERMJ6L4DZEMZGO28JCP246AZIR7MP&tp_b=3ERMJ6L4DZEMZGO28JCP246AZIR7MP&c=365717&tp_c=365717","heads":8,"tails":2,"studentIndex":4,"studentTrueHypers":{"a":4,"b":1},"studentGuess":0.8,"delta":0,"totalExamples":10,"bonusSoFar":0.44},{"rt":5026,"response":{"heads":"8","tails":"2"},"type":"response","condition":"seqFeedback","trueTheta":0.8,"classrooms":["A","B"],"studentTrueClassroom":"B","exampleSet":"second","trial_type":"survey-html-form","trial_index":48,"time_elapsed":1085956,"internal_node_id":"0.0-41.0-0.0","params":{"nStudents":24,"maxFlips":30,"completionMinutes":45,"basePay":8,"maxBonus":9,"perTrialBonus":0.5,"perTrialBonusThreshold":0.05,"exampleCost":0.01},"classroomParams":{"A":{"a":1,"b":4},"B":{"a":4,"b":1},"C":{"a":2,"b":8},"D":{"a":8,"b":2}},"conditions":["nonSeqFull","nonSeqPartial","seqNoFeedback","seqFeedback"],"classroomPairings":[["A","B"],["C","D"]],"coinWeights":[0.2,0.5,0.8],"subjectId":"A2PPTQXFVA9H38","assignmentId":"3ERMJ6L4DZEMZGO28JCP246AZIR7MP","hitId":"34XASH8KLQ89J2U8D314D7180O4PMV","url":"https://gershmanlab.com/experiments/alicia/teaching/experiment/?hitId=34XASH8KLQ89J2U8D314D7180O4PMV&workerId=A2PPTQXFVA9H38&assignmentId=3ERMJ6L4DZEMZGO28JCP246AZIR7MP&a=4JRE7&tp_a=4JRE7&b=3ERMJ6L4DZEMZGO28JCP246AZIR7MP&tp_b=3ERMJ6L4DZEMZGO28JCP246AZIR7MP&c=365717&tp_c=365717","firstResponseHeads":8,"firstResponseTails":2,"secondResponseHeads":8,"secondResponseTails":2,"totalHeads":16,"totalTails":4,"studentIndex":4,"studentTrueHypers":{"a":4,"b":1},"studentGuess":0.8,"delta":0,"bonus":0.3,"bonusSoFar":0.74,"totalExamples":20},{"rt":24630,"response":{"heads":"4","tails":"1"},"type":"response","condition":"seqNoFeedback","trueTheta":0.8,"classrooms":["A","B"],"studentTrueClassroom":"B","exampleSet":"first","trial_type":"survey-html-form","trial_index":54,"time_elapsed":2087336,"internal_node_id":"0.0-47.0-0.0","params":{"nStudents":24,"maxFlips":30,"completionMinutes":45,"basePay":8,"maxBonus":9,"perTrialBonus":0.5,"perTrialBonusThreshold":0.05,"exampleCost":0.01},"classroomParams":{"A":{"a":1,"b":4},"B":{"a":4,"b":1},"C":{"a":2,"b":8},"D":{"a":8,"b":2}},"conditions":["nonSeqFull","nonSeqPartial","seqNoFeedback","seqFeedback"],"classroomPairings":[["A","B"],["C","D"]],"coinWeights":[0.2,0.5,0.8],"subjectId":"A2PPTQXFVA9H38","assignmentId":"3ERMJ6L4DZEMZGO28JCP246AZIR7MP","hitId":"34XASH8KLQ89J2U8D314D7180O4PMV","url":"https://gershmanlab.com/experiments/alicia/teaching/experiment/?hitId=34XASH8KLQ89J2U8D314D7180O4PMV&workerId=A2PPTQXFVA9H38&assignmentId=3ERMJ6L4DZEMZGO28JCP246AZIR7MP&a=4JRE7&tp_a=4JRE7&b=3ERMJ6L4DZEMZGO28JCP246AZIR7MP&tp_b=3ERMJ6L4DZEMZGO28JCP246AZIR7MP&c=365717&tp_c=365717","heads":4,"tails":1,"studentIndex":5,"studentTrueHypers":{"a":4,"b":1},"studentGuess":0.8,"delta":0,"totalExamples":5,"bonusSoFar":0.74},{"rt":6834,"response":{"heads":"1","tails":"4"},"type":"response","condition":"seqNoFeedback","trueTheta":0.8,"classrooms":["A","B"],"studentTrueClassroom":"B","exampleSet":"second","trial_type":"survey-html-form","trial_index":57,"time_elapsed":2102194,"internal_node_id":"0.0-50.0-0.0","params":{"nStudents":24,"maxFlips":30,"completionMinutes":45,"basePay":8,"maxBonus":9,"perTrialBonus":0.5,"perTrialBonusThreshold":0.05,"exampleCost":0.01},"classroomParams":{"A":{"a":1,"b":4},"B":{"a":4,"b":1},"C":{"a":2,"b":8},"D":{"a":8,"b":2}},"conditions":["nonSeqFull","nonSeqPartial","seqNoFeedback","seqFeedback"],"classroomPairings":[["A","B"],["C","D"]],"coinWeights":[0.2,0.5,0.8],"subjectId":"A2PPTQXFVA9H38","assignmentId":"3ERMJ6L4DZEMZGO28JCP246AZIR7MP","hitId":"34XASH8KLQ89J2U8D314D7180O4PMV","url":"https://gershmanlab.com/experiments/alicia/teaching/experiment/?hitId=34XASH8KLQ89J2U8D314D7180O4PMV&workerId=A2PPTQXFVA9H38&assignmentId=3ERMJ6L4DZEMZGO28JCP246AZIR7MP&a=4JRE7&tp_a=4JRE7&b=3ERMJ6L4DZEMZGO28JCP246AZIR7MP&tp_b=3ERMJ6L4DZEMZGO28JCP246AZIR7MP&c=365717&tp_c=365717","firstResponseHeads":4,"firstResponseTails":1,"secondResponseHeads":1,"secondResponseTails":4,"totalHeads":5,"totalTails":5,"studentIndex":5,"studentTrueHypers":{"a":4,"b":1},"studentGuess":0.6,"delta":0.20000000000000007,"bonus":0,"bonusSoFar":0.74,"totalExamples":10},{"rt":6239,"response":{"heads":"4","tails":"1"},"type":"response","condition":"nonSeqFull","trueTheta":0.8,"classrooms":["C","D"],"studentTrueClassroom":"D","exampleSet":"first","trial_type":"survey-html-form","trial_index":63,"time_elapsed":2127132,"internal_node_id":"0.0-56.0-0.0","params":{"nStudents":24,"maxFlips":30,"completionMinutes":45,"basePay":8,"maxBonus":9,"perTrialBonus":0.5,"perTrialBonusThreshold":0.05,"exampleCost":0.01},"classroomParams":{"A":{"a":1,"b":4},"B":{"a":4,"b":1},"C":{"a":2,"b":8},"D":{"a":8,"b":2}},"conditions":["nonSeqFull","nonSeqPartial","seqNoFeedback","seqFeedback"],"classroomPairings":[["A","B"],["C","D"]],"coinWeights":[0.2,0.5,0.8],"subjectId":"A2PPTQXFVA9H38","assignmentId":"3ERMJ6L4DZEMZGO28JCP246AZIR7MP","hitId":"34XASH8KLQ89J2U8D314D7180O4PMV","url":"https://gershmanlab.com/experiments/alicia/teaching/experiment/?hitId=34XASH8KLQ89J2U8D314D7180O4PMV&workerId=A2PPTQXFVA9H38&assignmentId=3ERMJ6L4DZEMZGO28JCP246AZIR7MP&a=4JRE7&tp_a=4JRE7&b=3ERMJ6L4DZEMZGO28JCP246AZIR7MP&tp_b=3ERMJ6L4DZEMZGO28JCP246AZIR7MP&c=365717&tp_c=365717","heads":4,"tails":1,"studentIndex":6,"studentTrueHypers":{"a":8,"b":2},"studentGuess":0.8,"delta":0,"totalExamples":5,"bonus":0.45,"bonusSoFar":1.19},{"rt":11025,"response":{"heads":"5","tails":"5"},"type":"response","condition":"nonSeqPartial","trueTheta":0.5,"classrooms":["C","D"],"studentTrueClassroom":"C","exampleSet":"first","trial_type":"survey-html-form","trial_index":69,"time_elapsed":2150854,"internal_node_id":"0.0-62.0-0.0","params":{"nStudents":24,"maxFlips":30,"completionMinutes":45,"basePay":8,"maxBonus":9,"perTrialBonus":0.5,"perTrialBonusThreshold":0.05,"exampleCost":0.01},"classroomParams":{"A":{"a":1,"b":4},"B":{"a":4,"b":1},"C":{"a":2,"b":8},"D":{"a":8,"b":2}},"conditions":["nonSeqFull","nonSeqPartial","seqNoFeedback","seqFeedback"],"classroomPairings":[["A","B"],["C","D"]],"coinWeights":[0.2,0.5,0.8],"subjectId":"A2PPTQXFVA9H38","assignmentId":"3ERMJ6L4DZEMZGO28JCP246AZIR7MP","hitId":"34XASH8KLQ89J2U8D314D7180O4PMV","url":"https://gershmanlab.com/experiments/alicia/teaching/experiment/?hitId=34XASH8KLQ89J2U8D314D7180O4PMV&workerId=A2PPTQXFVA9H38&assignmentId=3ERMJ6L4DZEMZGO28JCP246AZIR7MP&a=4JRE7&tp_a=4JRE7&b=3ERMJ6L4DZEMZGO28JCP246AZIR7MP&tp_b=3ERMJ6L4DZEMZGO28JCP246AZIR7MP&c=365717&tp_c=365717","heads":5,"tails":5,"studentIndex":7,"studentTrueHypers":{"a":2,"b":8},"studentGuess":0.35,"delta":0.15000000000000002,"totalExamples":10,"bonus":0,"bonusSoFar":1.19},{"rt":17340,"response":{"heads":"4","tails":"4"},"type":"response","condition":"nonSeqPartial","trueTheta":0.5,"classrooms":["A","B"],"studentTrueClassroom":"B","exampleSet":"first","trial_type":"survey-html-form","trial_index":75,"time_elapsed":2179367,"internal_node_id":"0.0-68.0-0.0","params":{"nStudents":24,"maxFlips":30,"completionMinutes":45,"basePay":8,"maxBonus":9,"perTrialBonus":0.5,"perTrialBonusThreshold":0.05,"exampleCost":0.01},"classroomParams":{"A":{"a":1,"b":4},"B":{"a":4,"b":1},"C":{"a":2,"b":8},"D":{"a":8,"b":2}},"conditions":["nonSeqFull","nonSeqPartial","seqNoFeedback","seqFeedback"],"classroomPairings":[["A","B"],["C","D"]],"coinWeights":[0.2,0.5,0.8],"subjectId":"A2PPTQXFVA9H38","assignmentId":"3ERMJ6L4DZEMZGO28JCP246AZIR7MP","hitId":"34XASH8KLQ89J2U8D314D7180O4PMV","url":"https://gershmanlab.com/experiments/alicia/teaching/experiment/?hitId=34XASH8KLQ89J2U8D314D7180O4PMV&workerId=A2PPTQXFVA9H38&assignmentId=3ERMJ6L4DZEMZGO28JCP246AZIR7MP&a=4JRE7&tp_a=4JRE7&b=3ERMJ6L4DZEMZGO28JCP246AZIR7MP&tp_b=3ERMJ6L4DZEMZGO28JCP246AZIR7MP&c=365717&tp_c=365717","heads":4,"tails":4,"studentIndex":8,"studentTrueHypers":{"a":4,"b":1},"studentGuess":0.6153846153846154,"delta":0.11538461538461542,"totalExamples":8,"bonus":0,"bonusSoFar":1.19},{"rt":15661,"response":{"heads":"8","tails":"2"},"type":"response","condition":"seqFeedback","trueTheta":0.5,"classrooms":["A","B"],"studentTrueClassroom":"A","exampleSet":"first","trial_type":"survey-html-form","trial_index":81,"time_elapsed":2211638,"internal_node_id":"0.0-74.0-0.0","params":{"nStudents":24,"maxFlips":30,"completionMinutes":45,"basePay":8,"maxBonus":9,"perTrialBonus":0.5,"perTrialBonusThreshold":0.05,"exampleCost":0.01},"classroomParams":{"A":{"a":1,"b":4},"B":{"a":4,"b":1},"C":{"a":2,"b":8},"D":{"a":8,"b":2}},"conditions":["nonSeqFull","nonSeqPartial","seqNoFeedback","seqFeedback"],"classroomPairings":[["A","B"],["C","D"]],"coinWeights":[0.2,0.5,0.8],"subjectId":"A2PPTQXFVA9H38","assignmentId":"3ERMJ6L4DZEMZGO28JCP246AZIR7MP","hitId":"34XASH8KLQ89J2U8D314D7180O4PMV","url":"https://gershmanlab.com/experiments/alicia/teaching/experiment/?hitId=34XASH8KLQ89J2U8D314D7180O4PMV&workerId=A2PPTQXFVA9H38&assignmentId=3ERMJ6L4DZEMZGO28JCP246AZIR7MP&a=4JRE7&tp_a=4JRE7&b=3ERMJ6L4DZEMZGO28JCP246AZIR7MP&tp_b=3ERMJ6L4DZEMZGO28JCP246AZIR7MP&c=365717&tp_c=365717","heads":8,"tails":2,"studentIndex":9,"studentTrueHypers":{"a":1,"b":4},"studentGuess":0.6,"delta":0.09999999999999998,"totalExamples":10,"bonusSoFar":1.19},{"rt":9486,"response":{"heads":"6","tails":"3"},"type":"response","condition":"seqFeedback","trueTheta":0.5,"classrooms":["A","B"],"studentTrueClassroom":"A","exampleSet":"second","trial_type":"survey-html-form","trial_index":85,"time_elapsed":2230834,"internal_node_id":"0.0-78.0-0.0","params":{"nStudents":24,"maxFlips":30,"completionMinutes":45,"basePay":8,"maxBonus":9,"perTrialBonus":0.5,"perTrialBonusThreshold":0.05,"exampleCost":0.01},"classroomParams":{"A":{"a":1,"b":4},"B":{"a":4,"b":1},"C":{"a":2,"b":8},"D":{"a":8,"b":2}},"conditions":["nonSeqFull","nonSeqPartial","seqNoFeedback","seqFeedback"],"classroomPairings":[["A","B"],["C","D"]],"coinWeights":[0.2,0.5,0.8],"subjectId":"A2PPTQXFVA9H38","assignmentId":"3ERMJ6L4DZEMZGO28JCP246AZIR7MP","hitId":"34XASH8KLQ89J2U8D314D7180O4PMV","url":"https://gershmanlab.com/experiments/alicia/teaching/experiment/?hitId=34XASH8KLQ89J2U8D314D7180O4PMV&workerId=A2PPTQXFVA9H38&assignmentId=3ERMJ6L4DZEMZGO28JCP246AZIR7MP&a=4JRE7&tp_a=4JRE7&b=3ERMJ6L4DZEMZGO28JCP246AZIR7MP&tp_b=3ERMJ6L4DZEMZGO28JCP246AZIR7MP&c=365717&tp_c=365717","firstResponseHeads":8,"firstResponseTails":2,"secondResponseHeads":6,"secondResponseTails":3,"totalHeads":14,"totalTails":5,"studentIndex":9,"studentTrueHypers":{"a":1,"b":4},"studentGuess":0.625,"delta":0.125,"bonus":0,"bonusSoFar":1.19,"totalExamples":19},{"rt":24278,"response":{"heads":"16","tails":"4"},"type":"response","condition":"seqNoFeedback","trueTheta":0.5,"classrooms":["C","D"],"studentTrueClassroom":"C","exampleSet":"first","trial_type":"survey-html-form","trial_index":91,"time_elapsed":2266214,"internal_node_id":"0.0-84.0-0.0","params":{"nStudents":24,"maxFlips":30,"completionMinutes":45,"basePay":8,"maxBonus":9,"perTrialBonus":0.5,"perTrialBonusThreshold":0.05,"exampleCost":0.01},"classroomParams":{"A":{"a":1,"b":4},"B":{"a":4,"b":1},"C":{"a":2,"b":8},"D":{"a":8,"b":2}},"conditions":["nonSeqFull","nonSeqPartial","seqNoFeedback","seqFeedback"],"classroomPairings":[["A","B"],["C","D"]],"coinWeights":[0.2,0.5,0.8],"subjectId":"A2PPTQXFVA9H38","assignmentId":"3ERMJ6L4DZEMZGO28JCP246AZIR7MP","hitId":"34XASH8KLQ89J2U8D314D7180O4PMV","url":"https://gershmanlab.com/experiments/alicia/teaching/experiment/?hitId=34XASH8KLQ89J2U8D314D7180O4PMV&workerId=A2PPTQXFVA9H38&assignmentId=3ERMJ6L4DZEMZGO28JCP246AZIR7MP&a=4JRE7&tp_a=4JRE7&b=3ERMJ6L4DZEMZGO28JCP246AZIR7MP&tp_b=3ERMJ6L4DZEMZGO28JCP246AZIR7MP&c=365717&tp_c=365717","heads":16,"tails":4,"studentIndex":10,"studentTrueHypers":{"a":2,"b":8},"studentGuess":0.6,"delta":0.09999999999999998,"totalExamples":20,"bonusSoFar":1.19},{"rt":5359,"response":{"heads":"4","tails":"16"},"type":"response","condition":"seqNoFeedback","trueTheta":0.5,"classrooms":["C","D"],"studentTrueClassroom":"C","exampleSet":"second","trial_type":"survey-html-form","trial_index":94,"time_elapsed":2278349,"internal_node_id":"0.0-87.0-0.0","params":{"nStudents":24,"maxFlips":30,"completionMinutes":45,"basePay":8,"maxBonus":9,"perTrialBonus":0.5,"perTrialBonusThreshold":0.05,"exampleCost":0.01},"classroomParams":{"A":{"a":1,"b":4},"B":{"a":4,"b":1},"C":{"a":2,"b":8},"D":{"a":8,"b":2}},"conditions":["nonSeqFull","nonSeqPartial","seqNoFeedback","seqFeedback"],"classroomPairings":[["A","B"],["C","D"]],"coinWeights":[0.2,0.5,0.8],"subjectId":"A2PPTQXFVA9H38","assignmentId":"3ERMJ6L4DZEMZGO28JCP246AZIR7MP","hitId":"34XASH8KLQ89J2U8D314D7180O4PMV","url":"https://gershmanlab.com/experiments/alicia/teaching/experiment/?hitId=34XASH8KLQ89J2U8D314D7180O4PMV&workerId=A2PPTQXFVA9H38&assignmentId=3ERMJ6L4DZEMZGO28JCP246AZIR7MP&a=4JRE7&tp_a=4JRE7&b=3ERMJ6L4DZEMZGO28JCP246AZIR7MP&tp_b=3ERMJ6L4DZEMZGO28JCP246AZIR7MP&c=365717&tp_c=365717","firstResponseHeads":16,"firstResponseTails":4,"secondResponseHeads":4,"secondResponseTails":16,"totalHeads":20,"totalTails":20,"studentIndex":10,"studentTrueHypers":{"a":2,"b":8},"studentGuess":0.44,"delta":0.06,"bonus":0,"bonusSoFar":1.19,"totalExamples":40},{"rt":21778,"response":{"heads":"4","tails":"2"},"type":"response","condition":"nonSeqFull","trueTheta":0.5,"classrooms":["C","D"],"studentTrueClassroom":"C","exampleSet":"first","trial_type":"survey-html-form","trial_index":100,"time_elapsed":2313071,"internal_node_id":"0.0-93.0-0.0","params":{"nStudents":24,"maxFlips":30,"completionMinutes":45,"basePay":8,"maxBonus":9,"perTrialBonus":0.5,"perTrialBonusThreshold":0.05,"exampleCost":0.01},"classroomParams":{"A":{"a":1,"b":4},"B":{"a":4,"b":1},"C":{"a":2,"b":8},"D":{"a":8,"b":2}},"conditions":["nonSeqFull","nonSeqPartial","seqNoFeedback","seqFeedback"],"classroomPairings":[["A","B"],["C","D"]],"coinWeights":[0.2,0.5,0.8],"subjectId":"A2PPTQXFVA9H38","assignmentId":"3ERMJ6L4DZEMZGO28JCP246AZIR7MP","hitId":"34XASH8KLQ89J2U8D314D7180O4PMV","url":"https://gershmanlab.com/experiments/alicia/teaching/experiment/?hitId=34XASH8KLQ89J2U8D314D7180O4PMV&workerId=A2PPTQXFVA9H38&assignmentId=3ERMJ6L4DZEMZGO28JCP246AZIR7MP&a=4JRE7&tp_a=4JRE7&b=3ERMJ6L4DZEMZGO28JCP246AZIR7MP&tp_b=3ERMJ6L4DZEMZGO28JCP246AZIR7MP&c=365717&tp_c=365717","heads":4,"tails":2,"studentIndex":11,"studentTrueHypers":{"a":2,"b":8},"studentGuess":0.375,"delta":0.125,"totalExamples":6,"bonus":0,"bonusSoFar":1.19},{"rt":18210,"response":{"heads":"16","tails":"4"},"type":"response","condition":"nonSeqPartial","trueTheta":0.8,"classrooms":["C","D"],"studentTrueClassroom":"C","exampleSet":"first","trial_type":"survey-html-form","trial_index":106,"time_elapsed":2343680,"internal_node_id":"0.0-99.0-0.0","params":{"nStudents":24,"maxFlips":30,"completionMinutes":45,"basePay":8,"maxBonus":9,"perTrialBonus":0.5,"perTrialBonusThreshold":0.05,"exampleCost":0.01},"classroomParams":{"A":{"a":1,"b":4},"B":{"a":4,"b":1},"C":{"a":2,"b":8},"D":{"a":8,"b":2}},"conditions":["nonSeqFull","nonSeqPartial","seqNoFeedback","seqFeedback"],"classroomPairings":[["A","B"],["C","D"]],"coinWeights":[0.2,0.5,0.8],"subjectId":"A2PPTQXFVA9H38","assignmentId":"3ERMJ6L4DZEMZGO28JCP246AZIR7MP","hitId":"34XASH8KLQ89J2U8D314D7180O4PMV","url":"https://gershmanlab.com/experiments/alicia/teaching/experiment/?hitId=34XASH8KLQ89J2U8D314D7180O4PMV&workerId=A2PPTQXFVA9H38&assignmentId=3ERMJ6L4DZEMZGO28JCP246AZIR7MP&a=4JRE7&tp_a=4JRE7&b=3ERMJ6L4DZEMZGO28JCP246AZIR7MP&tp_b=3ERMJ6L4DZEMZGO28JCP246AZIR7MP&c=365717&tp_c=365717","heads":16,"tails":4,"studentIndex":12,"studentTrueHypers":{"a":2,"b":8},"studentGuess":0.6,"delta":0.20000000000000007,"totalExamples":20,"bonus":0,"bonusSoFar":1.19},{"rt":6091,"response":{"heads":"8","tails":"2"},"type":"response","condition":"nonSeqFull","trueTheta":0.2,"classrooms":["A","B"],"studentTrueClassroom":"B","exampleSet":"first","trial_type":"survey-html-form","trial_index":112,"time_elapsed":2361243,"internal_node_id":"0.0-105.0-0.0","params":{"nStudents":24,"maxFlips":30,"completionMinutes":45,"basePay":8,"maxBonus":9,"perTrialBonus":0.5,"perTrialBonusThreshold":0.05,"exampleCost":0.01},"classroomParams":{"A":{"a":1,"b":4},"B":{"a":4,"b":1},"C":{"a":2,"b":8},"D":{"a":8,"b":2}},"conditions":["nonSeqFull","nonSeqPartial","seqNoFeedback","seqFeedback"],"classroomPairings":[["A","B"],["C","D"]],"coinWeights":[0.2,0.5,0.8],"subjectId":"A2PPTQXFVA9H38","assignmentId":"3ERMJ6L4DZEMZGO28JCP246AZIR7MP","hitId":"34XASH8KLQ89J2U8D314D7180O4PMV","url":"https://gershmanlab.com/experiments/alicia/teaching/experiment/?hitId=34XASH8KLQ89J2U8D314D7180O4PMV&workerId=A2PPTQXFVA9H38&assignmentId=3ERMJ6L4DZEMZGO28JCP246AZIR7MP&a=4JRE7&tp_a=4JRE7&b=3ERMJ6L4DZEMZGO28JCP246AZIR7MP&tp_b=3ERMJ6L4DZEMZGO28JCP246AZIR7MP&c=365717&tp_c=365717","heads":8,"tails":2,"studentIndex":13,"studentTrueHypers":{"a":4,"b":1},"studentGuess":0.8,"delta":0.6000000000000001,"totalExamples":10,"bonus":0,"bonusSoFar":1.19},{"rt":4885,"response":{"heads":"2","tails":"8"},"type":"response","condition":"seqFeedback","trueTheta":0.2,"classrooms":["C","D"],"studentTrueClassroom":"D","exampleSet":"first","trial_type":"survey-html-form","trial_index":118,"time_elapsed":2377261,"internal_node_id":"0.0-111.0-0.0","params":{"nStudents":24,"maxFlips":30,"completionMinutes":45,"basePay":8,"maxBonus":9,"perTrialBonus":0.5,"perTrialBonusThreshold":0.05,"exampleCost":0.01},"classroomParams":{"A":{"a":1,"b":4},"B":{"a":4,"b":1},"C":{"a":2,"b":8},"D":{"a":8,"b":2}},"conditions":["nonSeqFull","nonSeqPartial","seqNoFeedback","seqFeedback"],"classroomPairings":[["A","B"],["C","D"]],"coinWeights":[0.2,0.5,0.8],"subjectId":"A2PPTQXFVA9H38","assignmentId":"3ERMJ6L4DZEMZGO28JCP246AZIR7MP","hitId":"34XASH8KLQ89J2U8D314D7180O4PMV","url":"https://gershmanlab.com/experiments/alicia/teaching/experiment/?hitId=34XASH8KLQ89J2U8D314D7180O4PMV&workerId=A2PPTQXFVA9H38&assignmentId=3ERMJ6L4DZEMZGO28JCP246AZIR7MP&a=4JRE7&tp_a=4JRE7&b=3ERMJ6L4DZEMZGO28JCP246AZIR7MP&tp_b=3ERMJ6L4DZEMZGO28JCP246AZIR7MP&c=365717&tp_c=365717","heads":2,"tails":8,"studentIndex":14,"studentTrueHypers":{"a":8,"b":2},"studentGuess":0.5,"delta":0.3,"totalExamples":10,"bonusSoFar":1.19},{"rt":19698,"response":{"heads":"16","tails":"4"},"type":"response","condition":"seqFeedback","trueTheta":0.2,"classrooms":["C","D"],"studentTrueClassroom":"D","exampleSet":"second","trial_type":"survey-html-form","trial_index":122,"time_elapsed":2404959,"internal_node_id":"0.0-115.0-0.0","params":{"nStudents":24,"maxFlips":30,"completionMinutes":45,"basePay":8,"maxBonus":9,"perTrialBonus":0.5,"perTrialBonusThreshold":0.05,"exampleCost":0.01},"classroomParams":{"A":{"a":1,"b":4},"B":{"a":4,"b":1},"C":{"a":2,"b":8},"D":{"a":8,"b":2}},"conditions":["nonSeqFull","nonSeqPartial","seqNoFeedback","seqFeedback"],"classroomPairings":[["A","B"],["C","D"]],"coinWeights":[0.2,0.5,0.8],"subjectId":"A2PPTQXFVA9H38","assignmentId":"3ERMJ6L4DZEMZGO28JCP246AZIR7MP","hitId":"34XASH8KLQ89J2U8D314D7180O4PMV","url":"https://gershmanlab.com/experiments/alicia/teaching/experiment/?hitId=34XASH8KLQ89J2U8D314D7180O4PMV&workerId=A2PPTQXFVA9H38&assignmentId=3ERMJ6L4DZEMZGO28JCP246AZIR7MP&a=4JRE7&tp_a=4JRE7&b=3ERMJ6L4DZEMZGO28JCP246AZIR7MP&tp_b=3ERMJ6L4DZEMZGO28JCP246AZIR7MP&c=365717&tp_c=365717","firstResponseHeads":2,"firstResponseTails":8,"secondResponseHeads":16,"secondResponseTails":4,"totalHeads":18,"totalTails":12,"studentIndex":14,"studentTrueHypers":{"a":8,"b":2},"studentGuess":0.65,"delta":0.45,"bonus":0,"bonusSoFar":1.19,"totalExamples":30},{"rt":22961,"response":{"heads":"8","tails":"2"},"type":"response","condition":"nonSeqPartial","trueTheta":0.8,"classrooms":["A","B"],"studentTrueClassroom":"A","exampleSet":"first","trial_type":"survey-html-form","trial_index":128,"time_elapsed":2440826,"internal_node_id":"0.0-121.0-0.0","params":{"nStudents":24,"maxFlips":30,"completionMinutes":45,"basePay":8,"maxBonus":9,"perTrialBonus":0.5,"perTrialBonusThreshold":0.05,"exampleCost":0.01},"classroomParams":{"A":{"a":1,"b":4},"B":{"a":4,"b":1},"C":{"a":2,"b":8},"D":{"a":8,"b":2}},"conditions":["nonSeqFull","nonSeqPartial","seqNoFeedback","seqFeedback"],"classroomPairings":[["A","B"],["C","D"]],"coinWeights":[0.2,0.5,0.8],"subjectId":"A2PPTQXFVA9H38","assignmentId":"3ERMJ6L4DZEMZGO28JCP246AZIR7MP","hitId":"34XASH8KLQ89J2U8D314D7180O4PMV","url":"https://gershmanlab.com/experiments/alicia/teaching/experiment/?hitId=34XASH8KLQ89J2U8D314D7180O4PMV&workerId=A2PPTQXFVA9H38&assignmentId=3ERMJ6L4DZEMZGO28JCP246AZIR7MP&a=4JRE7&tp_a=4JRE7&b=3ERMJ6L4DZEMZGO28JCP246AZIR7MP&tp_b=3ERMJ6L4DZEMZGO28JCP246AZIR7MP&c=365717&tp_c=365717","heads":8,"tails":2,"studentIndex":15,"studentTrueHypers":{"a":1,"b":4},"studentGuess":0.6,"delta":0.20000000000000007,"totalExamples":10,"bonus":0,"bonusSoFar":1.19},{"rt":35458,"response":{"heads":"5","tails":"1"},"type":"response","condition":"nonSeqFull","trueTheta":0.8,"classrooms":["A","B"],"studentTrueClassroom":"A","exampleSet":"first","trial_type":"survey-html-form","trial_index":134,"time_elapsed":2488505,"internal_node_id":"0.0-127.0-0.0","params":{"nStudents":24,"maxFlips":30,"completionMinutes":45,"basePay":8,"maxBonus":9,"perTrialBonus":0.5,"perTrialBonusThreshold":0.05,"exampleCost":0.01},"classroomParams":{"A":{"a":1,"b":4},"B":{"a":4,"b":1},"C":{"a":2,"b":8},"D":{"a":8,"b":2}},"conditions":["nonSeqFull","nonSeqPartial","seqNoFeedback","seqFeedback"],"classroomPairings":[["A","B"],["C","D"]],"coinWeights":[0.2,0.5,0.8],"subjectId":"A2PPTQXFVA9H38","assignmentId":"3ERMJ6L4DZEMZGO28JCP246AZIR7MP","hitId":"34XASH8KLQ89J2U8D314D7180O4PMV","url":"https://gershmanlab.com/experiments/alicia/teaching/experiment/?hitId=34XASH8KLQ89J2U8D314D7180O4PMV&workerId=A2PPTQXFVA9H38&assignmentId=3ERMJ6L4DZEMZGO28JCP246AZIR7MP&a=4JRE7&tp_a=4JRE7&b=3ERMJ6L4DZEMZGO28JCP246AZIR7MP&tp_b=3ERMJ6L4DZEMZGO28JCP246AZIR7MP&c=365717&tp_c=365717","heads":5,"tails":1,"studentIndex":16,"studentTrueHypers":{"a":1,"b":4},"studentGuess":0.5454545454545454,"delta":0.25454545454545463,"totalExamples":6,"bonus":0,"bonusSoFar":1.19},{"rt":17551,"response":{"heads":"4","tails":"20"},"type":"response","condition":"nonSeqFull","trueTheta":0.2,"classrooms":["C","D"],"studentTrueClassroom":"C","exampleSet":"first","trial_type":"survey-html-form","trial_index":140,"time_elapsed":2516893,"internal_node_id":"0.0-133.0-0.0","params":{"nStudents":24,"maxFlips":30,"completionMinutes":45,"basePay":8,"maxBonus":9,"perTrialBonus":0.5,"perTrialBonusThreshold":0.05,"exampleCost":0.01},"classroomParams":{"A":{"a":1,"b":4},"B":{"a":4,"b":1},"C":{"a":2,"b":8},"D":{"a":8,"b":2}},"conditions":["nonSeqFull","nonSeqPartial","seqNoFeedback","seqFeedback"],"classroomPairings":[["A","B"],["C","D"]],"coinWeights":[0.2,0.5,0.8],"subjectId":"A2PPTQXFVA9H38","assignmentId":"3ERMJ6L4DZEMZGO28JCP246AZIR7MP","hitId":"34XASH8KLQ89J2U8D314D7180O4PMV","url":"https://gershmanlab.com/experiments/alicia/teaching/experiment/?hitId=34XASH8KLQ89J2U8D314D7180O4PMV&workerId=A2PPTQXFVA9H38&assignmentId=3ERMJ6L4DZEMZGO28JCP246AZIR7MP&a=4JRE7&tp_a=4JRE7&b=3ERMJ6L4DZEMZGO28JCP246AZIR7MP&tp_b=3ERMJ6L4DZEMZGO28JCP246AZIR7MP&c=365717&tp_c=365717","heads":4,"tails":20,"studentIndex":17,"studentTrueHypers":{"a":2,"b":8},"studentGuess":0.17647058823529413,"delta":0.023529411764705882,"totalExamples":24,"bonus":0.26,"bonusSoFar":1.45},{"rt":9254,"response":{"heads":"20","tails":"4"},"type":"response","condition":"seqNoFeedback","trueTheta":0.2,"classrooms":["C","D"],"studentTrueClassroom":"C","exampleSet":"first","trial_type":"survey-html-form","trial_index":146,"time_elapsed":2538581,"internal_node_id":"0.0-139.0-0.0","params":{"nStudents":24,"maxFlips":30,"completionMinutes":45,"basePay":8,"maxBonus":9,"perTrialBonus":0.5,"perTrialBonusThreshold":0.05,"exampleCost":0.01},"classroomParams":{"A":{"a":1,"b":4},"B":{"a":4,"b":1},"C":{"a":2,"b":8},"D":{"a":8,"b":2}},"conditions":["nonSeqFull","nonSeqPartial","seqNoFeedback","seqFeedback"],"classroomPairings":[["A","B"],["C","D"]],"coinWeights":[0.2,0.5,0.8],"subjectId":"A2PPTQXFVA9H38","assignmentId":"3ERMJ6L4DZEMZGO28JCP246AZIR7MP","hitId":"34XASH8KLQ89J2U8D314D7180O4PMV","url":"https://gershmanlab.com/experiments/alicia/teaching/experiment/?hitId=34XASH8KLQ89J2U8D314D7180O4PMV&workerId=A2PPTQXFVA9H38&assignmentId=3ERMJ6L4DZEMZGO28JCP246AZIR7MP&a=4JRE7&tp_a=4JRE7&b=3ERMJ6L4DZEMZGO28JCP246AZIR7MP&tp_b=3ERMJ6L4DZEMZGO28JCP246AZIR7MP&c=365717&tp_c=365717","heads":20,"tails":4,"studentIndex":18,"studentTrueHypers":{"a":2,"b":8},"studentGuess":0.6470588235294118,"delta":0.4470588235294118,"totalExamples":24,"bonusSoFar":1.45},{"rt":7708,"response":{"heads":"20","tails":"4"},"type":"response","condition":"seqNoFeedback","trueTheta":0.2,"classrooms":["C","D"],"studentTrueClassroom":"C","exampleSet":"second","trial_type":"survey-html-form","trial_index":149,"time_elapsed":2553555,"internal_node_id":"0.0-142.0-0.0","params":{"nStudents":24,"maxFlips":30,"completionMinutes":45,"basePay":8,"maxBonus":9,"perTrialBonus":0.5,"perTrialBonusThreshold":0.05,"exampleCost":0.01},"classroomParams":{"A":{"a":1,"b":4},"B":{"a":4,"b":1},"C":{"a":2,"b":8},"D":{"a":8,"b":2}},"conditions":["nonSeqFull","nonSeqPartial","seqNoFeedback","seqFeedback"],"classroomPairings":[["A","B"],["C","D"]],"coinWeights":[0.2,0.5,0.8],"subjectId":"A2PPTQXFVA9H38","assignmentId":"3ERMJ6L4DZEMZGO28JCP246AZIR7MP","hitId":"34XASH8KLQ89J2U8D314D7180O4PMV","url":"https://gershmanlab.com/experiments/alicia/teaching/experiment/?hitId=34XASH8KLQ89J2U8D314D7180O4PMV&workerId=A2PPTQXFVA9H38&assignmentId=3ERMJ6L4DZEMZGO28JCP246AZIR7MP&a=4JRE7&tp_a=4JRE7&b=3ERMJ6L4DZEMZGO28JCP246AZIR7MP&tp_b=3ERMJ6L4DZEMZGO28JCP246AZIR7MP&c=365717&tp_c=365717","firstResponseHeads":20,"firstResponseTails":4,"secondResponseHeads":20,"secondResponseTails":4,"totalHeads":40,"totalTails":8,"studentIndex":18,"studentTrueHypers":{"a":2,"b":8},"studentGuess":0.7241379310344828,"delta":0.5241379310344827,"bonus":0,"bonusSoFar":1.45,"totalExamples":48},{"rt":9825,"response":{"heads":"2","tails":"1"},"type":"response","condition":"seqNoFeedback","trueTheta":0.5,"classrooms":["A","B"],"studentTrueClassroom":"B","exampleSet":"first","trial_type":"survey-html-form","trial_index":155,"time_elapsed":2589147,"internal_node_id":"0.0-148.0-0.0","params":{"nStudents":24,"maxFlips":30,"completionMinutes":45,"basePay":8,"maxBonus":9,"perTrialBonus":0.5,"perTrialBonusThreshold":0.05,"exampleCost":0.01},"classroomParams":{"A":{"a":1,"b":4},"B":{"a":4,"b":1},"C":{"a":2,"b":8},"D":{"a":8,"b":2}},"conditions":["nonSeqFull","nonSeqPartial","seqNoFeedback","seqFeedback"],"classroomPairings":[["A","B"],["C","D"]],"coinWeights":[0.2,0.5,0.8],"subjectId":"A2PPTQXFVA9H38","assignmentId":"3ERMJ6L4DZEMZGO28JCP246AZIR7MP","hitId":"34XASH8KLQ89J2U8D314D7180O4PMV","url":"https://gershmanlab.com/experiments/alicia/teaching/experiment/?hitId=34XASH8KLQ89J2U8D314D7180O4PMV&workerId=A2PPTQXFVA9H38&assignmentId=3ERMJ6L4DZEMZGO28JCP246AZIR7MP&a=4JRE7&tp_a=4JRE7&b=3ERMJ6L4DZEMZGO28JCP246AZIR7MP&tp_b=3ERMJ6L4DZEMZGO28JCP246AZIR7MP&c=365717&tp_c=365717","heads":2,"tails":1,"studentIndex":19,"studentTrueHypers":{"a":4,"b":1},"studentGuess":0.75,"delta":0.25,"totalExamples":3,"bonusSoFar":1.45},{"rt":3060,"response":{"heads":"1","tails":"1"},"type":"response","condition":"seqNoFeedback","trueTheta":0.5,"classrooms":["A","B"],"studentTrueClassroom":"B","exampleSet":"second","trial_type":"survey-html-form","trial_index":158,"time_elapsed":2597960,"internal_node_id":"0.0-151.0-0.0","params":{"nStudents":24,"maxFlips":30,"completionMinutes":45,"basePay":8,"maxBonus":9,"perTrialBonus":0.5,"perTrialBonusThreshold":0.05,"exampleCost":0.01},"classroomParams":{"A":{"a":1,"b":4},"B":{"a":4,"b":1},"C":{"a":2,"b":8},"D":{"a":8,"b":2}},"conditions":["nonSeqFull","nonSeqPartial","seqNoFeedback","seqFeedback"],"classroomPairings":[["A","B"],["C","D"]],"coinWeights":[0.2,0.5,0.8],"subjectId":"A2PPTQXFVA9H38","assignmentId":"3ERMJ6L4DZEMZGO28JCP246AZIR7MP","hitId":"34XASH8KLQ89J2U8D314D7180O4PMV","url":"https://gershmanlab.com/experiments/alicia/teaching/experiment/?hitId=34XASH8KLQ89J2U8D314D7180O4PMV&workerId=A2PPTQXFVA9H38&assignmentId=3ERMJ6L4DZEMZGO28JCP246AZIR7MP&a=4JRE7&tp_a=4JRE7&b=3ERMJ6L4DZEMZGO28JCP246AZIR7MP&tp_b=3ERMJ6L4DZEMZGO28JCP246AZIR7MP&c=365717&tp_c=365717","firstResponseHeads":2,"firstResponseTails":1,"secondResponseHeads":1,"secondResponseTails":1,"totalHeads":3,"totalTails":2,"studentIndex":19,"studentTrueHypers":{"a":4,"b":1},"studentGuess":0.7,"delta":0.19999999999999996,"bonus":0,"bonusSoFar":1.45,"totalExamples":5},{"rt":17842,"response":{"heads":"16","tails":"3"},"type":"response","condition":"seqFeedback","trueTheta":0.2,"classrooms":["A","B"],"studentTrueClassroom":"B","exampleSet":"first","trial_type":"survey-html-form","trial_index":164,"time_elapsed":2630366,"internal_node_id":"0.0-157.0-0.0","params":{"nStudents":24,"maxFlips":30,"completionMinutes":45,"basePay":8,"maxBonus":9,"perTrialBonus":0.5,"perTrialBonusThreshold":0.05,"exampleCost":0.01},"classroomParams":{"A":{"a":1,"b":4},"B":{"a":4,"b":1},"C":{"a":2,"b":8},"D":{"a":8,"b":2}},"conditions":["nonSeqFull","nonSeqPartial","seqNoFeedback","seqFeedback"],"classroomPairings":[["A","B"],["C","D"]],"coinWeights":[0.2,0.5,0.8],"subjectId":"A2PPTQXFVA9H38","assignmentId":"3ERMJ6L4DZEMZGO28JCP246AZIR7MP","hitId":"34XASH8KLQ89J2U8D314D7180O4PMV","url":"https://gershmanlab.com/experiments/alicia/teaching/experiment/?hitId=34XASH8KLQ89J2U8D314D7180O4PMV&workerId=A2PPTQXFVA9H38&assignmentId=3ERMJ6L4DZEMZGO28JCP246AZIR7MP&a=4JRE7&tp_a=4JRE7&b=3ERMJ6L4DZEMZGO28JCP246AZIR7MP&tp_b=3ERMJ6L4DZEMZGO28JCP246AZIR7MP&c=365717&tp_c=365717","heads":16,"tails":3,"studentIndex":20,"studentTrueHypers":{"a":4,"b":1},"studentGuess":0.8333333333333334,"delta":0.6333333333333333,"totalExamples":19,"bonusSoFar":1.45},{"rt":5701,"response":{"heads":"8","tails":"2"},"type":"response","condition":"seqFeedback","trueTheta":0.2,"classrooms":["A","B"],"studentTrueClassroom":"B","exampleSet":"second","trial_type":"survey-html-form","trial_index":168,"time_elapsed":2644135,"internal_node_id":"0.0-161.0-0.0","params":{"nStudents":24,"maxFlips":30,"completionMinutes":45,"basePay":8,"maxBonus":9,"perTrialBonus":0.5,"perTrialBonusThreshold":0.05,"exampleCost":0.01},"classroomParams":{"A":{"a":1,"b":4},"B":{"a":4,"b":1},"C":{"a":2,"b":8},"D":{"a":8,"b":2}},"conditions":["nonSeqFull","nonSeqPartial","seqNoFeedback","seqFeedback"],"classroomPairings":[["A","B"],["C","D"]],"coinWeights":[0.2,0.5,0.8],"subjectId":"A2PPTQXFVA9H38","assignmentId":"3ERMJ6L4DZEMZGO28JCP246AZIR7MP","hitId":"34XASH8KLQ89J2U8D314D7180O4PMV","url":"https://gershmanlab.com/experiments/alicia/teaching/experiment/?hitId=34XASH8KLQ89J2U8D314D7180O4PMV&workerId=A2PPTQXFVA9H38&assignmentId=3ERMJ6L4DZEMZGO28JCP246AZIR7MP&a=4JRE7&tp_a=4JRE7&b=3ERMJ6L4DZEMZGO28JCP246AZIR7MP&tp_b=3ERMJ6L4DZEMZGO28JCP246AZIR7MP&c=365717&tp_c=365717","firstResponseHeads":16,"firstResponseTails":3,"secondResponseHeads":8,"secondResponseTails":2,"totalHeads":24,"totalTails":5,"studentIndex":20,"studentTrueHypers":{"a":4,"b":1},"studentGuess":0.8235294117647058,"delta":0.6235294117647059,"bonus":0,"bonusSoFar":1.45,"totalExamples":29},{"rt":5534,"response":{"heads":"4","tails":"16"},"type":"response","condition":"seqFeedback","trueTheta":0.8,"classrooms":["C","D"],"studentTrueClassroom":"D","exampleSet":"first","trial_type":"survey-html-form","trial_index":174,"time_elapsed":2663257,"internal_node_id":"0.0-167.0-0.0","params":{"nStudents":24,"maxFlips":30,"completionMinutes":45,"basePay":8,"maxBonus":9,"perTrialBonus":0.5,"perTrialBonusThreshold":0.05,"exampleCost":0.01},"classroomParams":{"A":{"a":1,"b":4},"B":{"a":4,"b":1},"C":{"a":2,"b":8},"D":{"a":8,"b":2}},"conditions":["nonSeqFull","nonSeqPartial","seqNoFeedback","seqFeedback"],"classroomPairings":[["A","B"],["C","D"]],"coinWeights":[0.2,0.5,0.8],"subjectId":"A2PPTQXFVA9H38","assignmentId":"3ERMJ6L4DZEMZGO28JCP246AZIR7MP","hitId":"34XASH8KLQ89J2U8D314D7180O4PMV","url":"https://gershmanlab.com/experiments/alicia/teaching/experiment/?hitId=34XASH8KLQ89J2U8D314D7180O4PMV&workerId=A2PPTQXFVA9H38&assignmentId=3ERMJ6L4DZEMZGO28JCP246AZIR7MP&a=4JRE7&tp_a=4JRE7&b=3ERMJ6L4DZEMZGO28JCP246AZIR7MP&tp_b=3ERMJ6L4DZEMZGO28JCP246AZIR7MP&c=365717&tp_c=365717","heads":4,"tails":16,"studentIndex":21,"studentTrueHypers":{"a":8,"b":2},"studentGuess":0.4,"delta":0.4,"totalExamples":20,"bonusSoFar":1.45},{"rt":6074,"response":{"heads":"16","tails":"4"},"type":"response","condition":"seqFeedback","trueTheta":0.8,"classrooms":["C","D"],"studentTrueClassroom":"D","exampleSet":"second","trial_type":"survey-html-form","trial_index":178,"time_elapsed":2678158,"internal_node_id":"0.0-171.0-0.0","params":{"nStudents":24,"maxFlips":30,"completionMinutes":45,"basePay":8,"maxBonus":9,"perTrialBonus":0.5,"perTrialBonusThreshold":0.05,"exampleCost":0.01},"classroomParams":{"A":{"a":1,"b":4},"B":{"a":4,"b":1},"C":{"a":2,"b":8},"D":{"a":8,"b":2}},"conditions":["nonSeqFull","nonSeqPartial","seqNoFeedback","seqFeedback"],"classroomPairings":[["A","B"],["C","D"]],"coinWeights":[0.2,0.5,0.8],"subjectId":"A2PPTQXFVA9H38","assignmentId":"3ERMJ6L4DZEMZGO28JCP246AZIR7MP","hitId":"34XASH8KLQ89J2U8D314D7180O4PMV","url":"https://gershmanlab.com/experiments/alicia/teaching/experiment/?hitId=34XASH8KLQ89J2U8D314D7180O4PMV&workerId=A2PPTQXFVA9H38&assignmentId=3ERMJ6L4DZEMZGO28JCP246AZIR7MP&a=4JRE7&tp_a=4JRE7&b=3ERMJ6L4DZEMZGO28JCP246AZIR7MP&tp_b=3ERMJ6L4DZEMZGO28JCP246AZIR7MP&c=365717&tp_c=365717","firstResponseHeads":4,"firstResponseTails":16,"secondResponseHeads":16,"secondResponseTails":4,"totalHeads":20,"totalTails":20,"studentIndex":21,"studentTrueHypers":{"a":8,"b":2},"studentGuess":0.56,"delta":0.24,"bonus":0,"bonusSoFar":1.45,"totalExamples":40},{"rt":12794,"response":{"heads":"8","tails":"2"},"type":"response","condition":"seqNoFeedback","trueTheta":0.8,"classrooms":["C","D"],"studentTrueClassroom":"D","exampleSet":"first","trial_type":"survey-html-form","trial_index":184,"time_elapsed":2701136,"internal_node_id":"0.0-177.0-0.0","params":{"nStudents":24,"maxFlips":30,"completionMinutes":45,"basePay":8,"maxBonus":9,"perTrialBonus":0.5,"perTrialBonusThreshold":0.05,"exampleCost":0.01},"classroomParams":{"A":{"a":1,"b":4},"B":{"a":4,"b":1},"C":{"a":2,"b":8},"D":{"a":8,"b":2}},"conditions":["nonSeqFull","nonSeqPartial","seqNoFeedback","seqFeedback"],"classroomPairings":[["A","B"],["C","D"]],"coinWeights":[0.2,0.5,0.8],"subjectId":"A2PPTQXFVA9H38","assignmentId":"3ERMJ6L4DZEMZGO28JCP246AZIR7MP","hitId":"34XASH8KLQ89J2U8D314D7180O4PMV","url":"https://gershmanlab.com/experiments/alicia/teaching/experiment/?hitId=34XASH8KLQ89J2U8D314D7180O4PMV&workerId=A2PPTQXFVA9H38&assignmentId=3ERMJ6L4DZEMZGO28JCP246AZIR7MP&a=4JRE7&tp_a=4JRE7&b=3ERMJ6L4DZEMZGO28JCP246AZIR7MP&tp_b=3ERMJ6L4DZEMZGO28JCP246AZIR7MP&c=365717&tp_c=365717","heads":8,"tails":2,"studentIndex":22,"studentTrueHypers":{"a":8,"b":2},"studentGuess":0.8,"delta":0,"totalExamples":10,"bonusSoFar":1.45},{"rt":4668,"response":{"heads":"2","tails":"8"},"type":"response","condition":"seqNoFeedback","trueTheta":0.8,"classrooms":["C","D"],"studentTrueClassroom":"D","exampleSet":"second","trial_type":"survey-html-form","trial_index":187,"time_elapsed":2713308,"internal_node_id":"0.0-180.0-0.0","params":{"nStudents":24,"maxFlips":30,"completionMinutes":45,"basePay":8,"maxBonus":9,"perTrialBonus":0.5,"perTrialBonusThreshold":0.05,"exampleCost":0.01},"classroomParams":{"A":{"a":1,"b":4},"B":{"a":4,"b":1},"C":{"a":2,"b":8},"D":{"a":8,"b":2}},"conditions":["nonSeqFull","nonSeqPartial","seqNoFeedback","seqFeedback"],"classroomPairings":[["A","B"],["C","D"]],"coinWeights":[0.2,0.5,0.8],"subjectId":"A2PPTQXFVA9H38","assignmentId":"3ERMJ6L4DZEMZGO28JCP246AZIR7MP","hitId":"34XASH8KLQ89J2U8D314D7180O4PMV","url":"https://gershmanlab.com/experiments/alicia/teaching/experiment/?hitId=34XASH8KLQ89J2U8D314D7180O4PMV&workerId=A2PPTQXFVA9H38&assignmentId=3ERMJ6L4DZEMZGO28JCP246AZIR7MP&a=4JRE7&tp_a=4JRE7&b=3ERMJ6L4DZEMZGO28JCP246AZIR7MP&tp_b=3ERMJ6L4DZEMZGO28JCP246AZIR7MP&c=365717&tp_c=365717","firstResponseHeads":8,"firstResponseTails":2,"secondResponseHeads":2,"secondResponseTails":8,"totalHeads":10,"totalTails":10,"studentIndex":22,"studentTrueHypers":{"a":8,"b":2},"studentGuess":0.6,"delta":0.20000000000000007,"bonus":0,"bonusSoFar":1.45,"totalExamples":20},{"rt":12386,"response":{"heads":"10","tails":"2"},"type":"response","condition":"nonSeqPartial","trueTheta":0.2,"classrooms":["C","D"],"studentTrueClassroom":"C","exampleSet":"first","trial_type":"survey-html-form","trial_index":193,"time_elapsed":2738126,"internal_node_id":"0.0-186.0-0.0","params":{"nStudents":24,"maxFlips":30,"completionMinutes":45,"basePay":8,"maxBonus":9,"perTrialBonus":0.5,"perTrialBonusThreshold":0.05,"exampleCost":0.01},"classroomParams":{"A":{"a":1,"b":4},"B":{"a":4,"b":1},"C":{"a":2,"b":8},"D":{"a":8,"b":2}},"conditions":["nonSeqFull","nonSeqPartial","seqNoFeedback","seqFeedback"],"classroomPairings":[["A","B"],["C","D"]],"coinWeights":[0.2,0.5,0.8],"subjectId":"A2PPTQXFVA9H38","assignmentId":"3ERMJ6L4DZEMZGO28JCP246AZIR7MP","hitId":"34XASH8KLQ89J2U8D314D7180O4PMV","url":"https://gershmanlab.com/experiments/alicia/teaching/experiment/?hitId=34XASH8KLQ89J2U8D314D7180O4PMV&workerId=A2PPTQXFVA9H38&assignmentId=3ERMJ6L4DZEMZGO28JCP246AZIR7MP&a=4JRE7&tp_a=4JRE7&b=3ERMJ6L4DZEMZGO28JCP246AZIR7MP&tp_b=3ERMJ6L4DZEMZGO28JCP246AZIR7MP&c=365717&tp_c=365717","heads":10,"tails":2,"studentIndex":23,"studentTrueHypers":{"a":2,"b":8},"studentGuess":0.5454545454545454,"delta":0.3454545454545454,"totalExamples":12,"bonus":0,"bonusSoFar":1.45},{"rt":41120,"response":{"gender":"male","age":"29","understood":"yes","comments":"I felt like I understood the instructions but I just couldn't seem to figure it out practically. "},"type":"response","trial_type":"survey-html-form","trial_index":197,"time_elapsed":2786828,"internal_node_id":"0.0-191.0","params":{"nStudents":24,"maxFlips":30,"completionMinutes":45,"basePay":8,"maxBonus":9,"perTrialBonus":0.5,"perTrialBonusThreshold":0.05,"exampleCost":0.01},"classroomParams":{"A":{"a":1,"b":4},"B":{"a":4,"b":1},"C":{"a":2,"b":8},"D":{"a":8,"b":2}},"conditions":["nonSeqFull","nonSeqPartial","seqNoFeedback","seqFeedback"],"classroomPairings":[["A","B"],["C","D"]],"coinWeights":[0.2,0.5,0.8],"subjectId":"A2PPTQXFVA9H38","assignmentId":"3ERMJ6L4DZEMZGO28JCP246AZIR7MP","hitId":"34XASH8KLQ89J2U8D314D7180O4PMV","url":"https://gershmanlab.com/experiments/alicia/teaching/experiment/?hitId=34XASH8KLQ89J2U8D314D7180O4PMV&workerId=A2PPTQXFVA9H38&assignmentId=3ERMJ6L4DZEMZGO28JCP246AZIR7MP&a=4JRE7&tp_a=4JRE7&b=3ERMJ6L4DZEMZGO28JCP246AZIR7MP&tp_b=3ERMJ6L4DZEMZGO28JCP246AZIR7MP&c=365717&tp_c=365717","totalBonus":1.45}]