[{"rt":27519,"response":{"heads":"0","tails":"0"},"type":"response","condition":"nonSeqFull","trueTheta":0.5,"classrooms":["C","D"],"studentTrueClassroom":"C","exampleSet":"first","trial_type":"survey-html-form","trial_index":19,"time_elapsed":855817,"internal_node_id":"0.0-6.0-0.0","params":{"nStudents":24,"maxFlips":30,"completionMinutes":45,"basePay":8,"maxBonus":9,"perTrialBonus":0.5,"perTrialBonusThreshold":0.05,"exampleCost":0.01},"classroomParams":{"A":{"a":1,"b":4},"B":{"a":4,"b":1},"C":{"a":2,"b":8},"D":{"a":8,"b":2}},"conditions":["nonSeqFull","nonSeqPartial","seqNoFeedback","seqFeedback"],"classroomPairings":[["A","B"],["C","D"]],"coinWeights":[0.2,0.5,0.8],"subjectId":"A2PQDK3MLDFXYM","assignmentId":"358010RM5FFZ4IO24OHEJZ2BS4HVXO","hitId":"3FJ2RVH25ZSYKBA8MWMNC8NVPF629N","url":"https://gershmanlab.com/experiments/alicia/teaching/experiment/?hitId=3FJ2RVH25ZSYKBA8MWMNC8NVPF629N&workerId=A2PQDK3MLDFXYM&assignmentId=358010RM5FFZ4IO24OHEJZ2BS4HVXO&a=M1857&tp_a=M1857&b=358010RM5FFZ4IO24OHEJZ2BS4HVXO&tp_b=358010RM5FFZ4IO24OHEJZ2BS4HVXO&c=365717&tp_c=365717","heads":0,"tails":0,"studentIndex":0,"studentTrueHypers":{"a":2,"b":8},"studentGuess":0.2,"delta":0.3,"totalExamples":0,"bonus":0,"bonusSoFar":0},{"rt":6676,"response":{"heads":"0","tails":"1"},"type":"response","condition":"nonSeqFull","trueTheta":0.5,"classrooms":["C","D"],"studentTrueClassroom":"C","exampleSet":"first","trial_type":"survey-html-form","trial_index":20,"time_elapsed":862496,"internal_node_id":"0.0-6.1-0.1","params":{"nStudents":24,"maxFlips":30,"completionMinutes":45,"basePay":8,"maxBonus":9,"perTrialBonus":0.5,"perTrialBonusThreshold":0.05,"exampleCost":0.01},"classroomParams":{"A":{"a":1,"b":4},"B":{"a":4,"b":1},"C":{"a":2,"b":8},"D":{"a":8,"b":2}},"conditions":["nonSeqFull","nonSeqPartial","seqNoFeedback","seqFeedback"],"classroomPairings":[["A","B"],["C","D"]],"coinWeights":[0.2,0.5,0.8],"subjectId":"A2PQDK3MLDFXYM","assignmentId":"358010RM5FFZ4IO24OHEJZ2BS4HVXO","hitId":"3FJ2RVH25ZSYKBA8MWMNC8NVPF629N","url":"https://gershmanlab.com/experiments/alicia/teaching/experiment/?hitId=3FJ2RVH25ZSYKBA8MWMNC8NVPF629N&workerId=A2PQDK3MLDFXYM&assignmentId=358010RM5FFZ4IO24OHEJZ2BS4HVXO&a=M1857&tp_a=M1857&b=358010RM5FFZ4IO24OHEJZ2BS4HVXO&tp_b=358010RM5FFZ4IO24OHEJZ2BS4HVXO&c=365717&tp_c=365717","heads":0,"tails":1,"studentIndex":0,"studentTrueHypers":{"a":2,"b":8},"studentGuess":0.18181818181818182,"delta":0.3181818181818182,"totalExamples":1,"bonus":0,"bonusSoFar":0},{"rt":26327,"response":{"heads":"1","tails":"0"},"type":"response","condition":"seqFeedback","trueTheta":0.8,"classrooms":["C","D"],"studentTrueClassroom":"D","exampleSet":"first","trial_type":"survey-html-form","trial_index":26,"time_elapsed":922151,"internal_node_id":"0.0-12.0-0.0","params":{"nStudents":24,"maxFlips":30,"completionMinutes":45,"basePay":8,"maxBonus":9,"perTrialBonus":0.5,"perTrialBonusThreshold":0.05,"exampleCost":0.01},"classroomParams":{"A":{"a":1,"b":4},"B":{"a":4,"b":1},"C":{"a":2,"b":8},"D":{"a":8,"b":2}},"conditions":["nonSeqFull","nonSeqPartial","seqNoFeedback","seqFeedback"],"classroomPairings":[["A","B"],["C","D"]],"coinWeights":[0.2,0.5,0.8],"subjectId":"A2PQDK3MLDFXYM","assignmentId":"358010RM5FFZ4IO24OHEJZ2BS4HVXO","hitId":"3FJ2RVH25ZSYKBA8MWMNC8NVPF629N","url":"https://gershmanlab.com/experiments/alicia/teaching/experiment/?hitId=3FJ2RVH25ZSYKBA8MWMNC8NVPF629N&workerId=A2PQDK3MLDFXYM&assignmentId=358010RM5FFZ4IO24OHEJZ2BS4HVXO&a=M1857&tp_a=M1857&b=358010RM5FFZ4IO24OHEJZ2BS4HVXO&tp_b=358010RM5FFZ4IO24OHEJZ2BS4HVXO&c=365717&tp_c=365717","heads":1,"tails":0,"studentIndex":1,"studentTrueHypers":{"a":8,"b":2},"studentGuess":0.8181818181818182,"delta":0.018181818181818188,"totalExamples":1,"bonusSoFar":0},{"rt":11228,"response":{"heads":"1","tails":"0"},"type":"response","condition":"seqFeedback","trueTheta":0.8,"classrooms":["C","D"],"studentTrueClassroom":"D","exampleSet":"second","trial_type":"survey-html-form","trial_index":30,"time_elapsed":949223,"internal_node_id":"0.0-16.0-0.0","params":{"nStudents":24,"maxFlips":30,"completionMinutes":45,"basePay":8,"maxBonus":9,"perTrialBonus":0.5,"perTrialBonusThreshold":0.05,"exampleCost":0.01},"classroomParams":{"A":{"a":1,"b":4},"B":{"a":4,"b":1},"C":{"a":2,"b":8},"D":{"a":8,"b":2}},"conditions":["nonSeqFull","nonSeqPartial","seqNoFeedback","seqFeedback"],"classroomPairings":[["A","B"],["C","D"]],"coinWeights":[0.2,0.5,0.8],"subjectId":"A2PQDK3MLDFXYM","assignmentId":"358010RM5FFZ4IO24OHEJZ2BS4HVXO","hitId":"3FJ2RVH25ZSYKBA8MWMNC8NVPF629N","url":"https://gershmanlab.com/experiments/alicia/teaching/experiment/?hitId=3FJ2RVH25ZSYKBA8MWMNC8NVPF629N&workerId=A2PQDK3MLDFXYM&assignmentId=358010RM5FFZ4IO24OHEJZ2BS4HVXO&a=M1857&tp_a=M1857&b=358010RM5FFZ4IO24OHEJZ2BS4HVXO&tp_b=358010RM5FFZ4IO24OHEJZ2BS4HVXO&c=365717&tp_c=365717","firstResponseHeads":1,"firstResponseTails":0,"secondResponseHeads":1,"secondResponseTails":0,"totalHeads":2,"totalTails":0,"studentIndex":1,"studentTrueHypers":{"a":8,"b":2},"studentGuess":0.8333333333333334,"delta":0.033333333333333326,"bonus":0.48,"bonusSoFar":0.48,"totalExamples":2},{"rt":6760,"response":{"heads":"0","tails":"1"},"type":"response","condition":"seqNoFeedback","trueTheta":0.2,"classrooms":["A","B"],"studentTrueClassroom":"A","exampleSet":"first","trial_type":"survey-html-form","trial_index":36,"time_elapsed":972351,"internal_node_id":"0.0-22.0-0.0","params":{"nStudents":24,"maxFlips":30,"completionMinutes":45,"basePay":8,"maxBonus":9,"perTrialBonus":0.5,"perTrialBonusThreshold":0.05,"exampleCost":0.01},"classroomParams":{"A":{"a":1,"b":4},"B":{"a":4,"b":1},"C":{"a":2,"b":8},"D":{"a":8,"b":2}},"conditions":["nonSeqFull","nonSeqPartial","seqNoFeedback","seqFeedback"],"classroomPairings":[["A","B"],["C","D"]],"coinWeights":[0.2,0.5,0.8],"subjectId":"A2PQDK3MLDFXYM","assignmentId":"358010RM5FFZ4IO24OHEJZ2BS4HVXO","hitId":"3FJ2RVH25ZSYKBA8MWMNC8NVPF629N","url":"https://gershmanlab.com/experiments/alicia/teaching/experiment/?hitId=3FJ2RVH25ZSYKBA8MWMNC8NVPF629N&workerId=A2PQDK3MLDFXYM&assignmentId=358010RM5FFZ4IO24OHEJZ2BS4HVXO&a=M1857&tp_a=M1857&b=358010RM5FFZ4IO24OHEJZ2BS4HVXO&tp_b=358010RM5FFZ4IO24OHEJZ2BS4HVXO&c=365717&tp_c=365717","heads":0,"tails":1,"studentIndex":2,"studentTrueHypers":{"a":1,"b":4},"studentGuess":0.16666666666666666,"delta":0.033333333333333354,"totalExamples":1,"bonusSoFar":0.48},{"rt":10020,"response":{"heads":"0","tails":"1"},"type":"response","condition":"seqNoFeedback","trueTheta":0.2,"classrooms":["A","B"],"studentTrueClassroom":"A","exampleSet":"second","trial_type":"survey-html-form","trial_index":39,"time_elapsed":988639,"internal_node_id":"0.0-25.0-0.0","params":{"nStudents":24,"maxFlips":30,"completionMinutes":45,"basePay":8,"maxBonus":9,"perTrialBonus":0.5,"perTrialBonusThreshold":0.05,"exampleCost":0.01},"classroomParams":{"A":{"a":1,"b":4},"B":{"a":4,"b":1},"C":{"a":2,"b":8},"D":{"a":8,"b":2}},"conditions":["nonSeqFull","nonSeqPartial","seqNoFeedback","seqFeedback"],"classroomPairings":[["A","B"],["C","D"]],"coinWeights":[0.2,0.5,0.8],"subjectId":"A2PQDK3MLDFXYM","assignmentId":"358010RM5FFZ4IO24OHEJZ2BS4HVXO","hitId":"3FJ2RVH25ZSYKBA8MWMNC8NVPF629N","url":"https://gershmanlab.com/experiments/alicia/teaching/experiment/?hitId=3FJ2RVH25ZSYKBA8MWMNC8NVPF629N&workerId=A2PQDK3MLDFXYM&assignmentId=358010RM5FFZ4IO24OHEJZ2BS4HVXO&a=M1857&tp_a=M1857&b=358010RM5FFZ4IO24OHEJZ2BS4HVXO&tp_b=358010RM5FFZ4IO24OHEJZ2BS4HVXO&c=365717&tp_c=365717","firstResponseHeads":0,"firstResponseTails":1,"secondResponseHeads":0,"secondResponseTails":1,"totalHeads":0,"totalTails":2,"studentIndex":2,"studentTrueHypers":{"a":1,"b":4},"studentGuess":0.14285714285714285,"delta":0.05714285714285716,"bonus":0,"bonusSoFar":0.48,"totalExamples":2},{"rt":4263,"response":{"heads":"1","tails":"0"},"type":"response","condition":"seqNoFeedback","trueTheta":0.8,"classrooms":["A","B"],"studentTrueClassroom":"B","exampleSet":"first","trial_type":"survey-html-form","trial_index":45,"time_elapsed":1011863,"internal_node_id":"0.0-31.0-0.0","params":{"nStudents":24,"maxFlips":30,"completionMinutes":45,"basePay":8,"maxBonus":9,"perTrialBonus":0.5,"perTrialBonusThreshold":0.05,"exampleCost":0.01},"classroomParams":{"A":{"a":1,"b":4},"B":{"a":4,"b":1},"C":{"a":2,"b":8},"D":{"a":8,"b":2}},"conditions":["nonSeqFull","nonSeqPartial","seqNoFeedback","seqFeedback"],"classroomPairings":[["A","B"],["C","D"]],"coinWeights":[0.2,0.5,0.8],"subjectId":"A2PQDK3MLDFXYM","assignmentId":"358010RM5FFZ4IO24OHEJZ2BS4HVXO","hitId":"3FJ2RVH25ZSYKBA8MWMNC8NVPF629N","url":"https://gershmanlab.com/experiments/alicia/teaching/experiment/?hitId=3FJ2RVH25ZSYKBA8MWMNC8NVPF629N&workerId=A2PQDK3MLDFXYM&assignmentId=358010RM5FFZ4IO24OHEJZ2BS4HVXO&a=M1857&tp_a=M1857&b=358010RM5FFZ4IO24OHEJZ2BS4HVXO&tp_b=358010RM5FFZ4IO24OHEJZ2BS4HVXO&c=365717&tp_c=365717","heads":1,"tails":0,"studentIndex":3,"studentTrueHypers":{"a":4,"b":1},"studentGuess":0.8333333333333334,"delta":0.033333333333333326,"totalExamples":1,"bonusSoFar":0.48},{"rt":5920,"response":{"heads":"0","tails":"0"},"type":"response","condition":"seqNoFeedback","trueTheta":0.8,"classrooms":["A","B"],"studentTrueClassroom":"B","exampleSet":"second","trial_type":"survey-html-form","trial_index":48,"time_elapsed":1024798,"internal_node_id":"0.0-34.0-0.0","params":{"nStudents":24,"maxFlips":30,"completionMinutes":45,"basePay":8,"maxBonus":9,"perTrialBonus":0.5,"perTrialBonusThreshold":0.05,"exampleCost":0.01},"classroomParams":{"A":{"a":1,"b":4},"B":{"a":4,"b":1},"C":{"a":2,"b":8},"D":{"a":8,"b":2}},"conditions":["nonSeqFull","nonSeqPartial","seqNoFeedback","seqFeedback"],"classroomPairings":[["A","B"],["C","D"]],"coinWeights":[0.2,0.5,0.8],"subjectId":"A2PQDK3MLDFXYM","assignmentId":"358010RM5FFZ4IO24OHEJZ2BS4HVXO","hitId":"3FJ2RVH25ZSYKBA8MWMNC8NVPF629N","url":"https://gershmanlab.com/experiments/alicia/teaching/experiment/?hitId=3FJ2RVH25ZSYKBA8MWMNC8NVPF629N&workerId=A2PQDK3MLDFXYM&assignmentId=358010RM5FFZ4IO24OHEJZ2BS4HVXO&a=M1857&tp_a=M1857&b=358010RM5FFZ4IO24OHEJZ2BS4HVXO&tp_b=358010RM5FFZ4IO24OHEJZ2BS4HVXO&c=365717&tp_c=365717","firstResponseHeads":1,"firstResponseTails":0,"secondResponseHeads":0,"secondResponseTails":0,"totalHeads":1,"totalTails":0,"studentIndex":3,"studentTrueHypers":{"a":4,"b":1},"studentGuess":0.8333333333333334,"delta":0.033333333333333326,"bonus":0.49,"bonusSoFar":0.97,"totalExamples":1},{"rt":1559,"response":{"heads":"0","tails":"0"},"type":"response","condition":"seqNoFeedback","trueTheta":0.8,"classrooms":["A","B"],"studentTrueClassroom":"B","exampleSet":"second","trial_type":"survey-html-form","trial_index":49,"time_elapsed":1026358,"internal_node_id":"0.0-34.1-0.1","params":{"nStudents":24,"maxFlips":30,"completionMinutes":45,"basePay":8,"maxBonus":9,"perTrialBonus":0.5,"perTrialBonusThreshold":0.05,"exampleCost":0.01},"classroomParams":{"A":{"a":1,"b":4},"B":{"a":4,"b":1},"C":{"a":2,"b":8},"D":{"a":8,"b":2}},"conditions":["nonSeqFull","nonSeqPartial","seqNoFeedback","seqFeedback"],"classroomPairings":[["A","B"],["C","D"]],"coinWeights":[0.2,0.5,0.8],"subjectId":"A2PQDK3MLDFXYM","assignmentId":"358010RM5FFZ4IO24OHEJZ2BS4HVXO","hitId":"3FJ2RVH25ZSYKBA8MWMNC8NVPF629N","url":"https://gershmanlab.com/experiments/alicia/teaching/experiment/?hitId=3FJ2RVH25ZSYKBA8MWMNC8NVPF629N&workerId=A2PQDK3MLDFXYM&assignmentId=358010RM5FFZ4IO24OHEJZ2BS4HVXO&a=M1857&tp_a=M1857&b=358010RM5FFZ4IO24OHEJZ2BS4HVXO&tp_b=358010RM5FFZ4IO24OHEJZ2BS4HVXO&c=365717&tp_c=365717","firstResponseHeads":1,"firstResponseTails":0,"secondResponseHeads":0,"secondResponseTails":0,"totalHeads":1,"totalTails":0,"studentIndex":3,"studentTrueHypers":{"a":4,"b":1},"studentGuess":0.8333333333333334,"delta":0.033333333333333326,"bonus":0.49,"bonusSoFar":1.46,"totalExamples":1},{"rt":4703,"response":{"heads":"1","tails":"0"},"type":"response","condition":"seqNoFeedback","trueTheta":0.8,"classrooms":["A","B"],"studentTrueClassroom":"B","exampleSet":"second","trial_type":"survey-html-form","trial_index":50,"time_elapsed":1031063,"internal_node_id":"0.0-34.2-0.2","params":{"nStudents":24,"maxFlips":30,"completionMinutes":45,"basePay":8,"maxBonus":9,"perTrialBonus":0.5,"perTrialBonusThreshold":0.05,"exampleCost":0.01},"classroomParams":{"A":{"a":1,"b":4},"B":{"a":4,"b":1},"C":{"a":2,"b":8},"D":{"a":8,"b":2}},"conditions":["nonSeqFull","nonSeqPartial","seqNoFeedback","seqFeedback"],"classroomPairings":[["A","B"],["C","D"]],"coinWeights":[0.2,0.5,0.8],"subjectId":"A2PQDK3MLDFXYM","assignmentId":"358010RM5FFZ4IO24OHEJZ2BS4HVXO","hitId":"3FJ2RVH25ZSYKBA8MWMNC8NVPF629N","url":"https://gershmanlab.com/experiments/alicia/teaching/experiment/?hitId=3FJ2RVH25ZSYKBA8MWMNC8NVPF629N&workerId=A2PQDK3MLDFXYM&assignmentId=358010RM5FFZ4IO24OHEJZ2BS4HVXO&a=M1857&tp_a=M1857&b=358010RM5FFZ4IO24OHEJZ2BS4HVXO&tp_b=358010RM5FFZ4IO24OHEJZ2BS4HVXO&c=365717&tp_c=365717","firstResponseHeads":1,"firstResponseTails":0,"secondResponseHeads":1,"secondResponseTails":0,"totalHeads":2,"totalTails":0,"studentIndex":3,"studentTrueHypers":{"a":4,"b":1},"studentGuess":0.8571428571428571,"delta":0.05714285714285705,"bonus":0,"bonusSoFar":1.46,"totalExamples":2},{"rt":1911,"response":{"heads":"1","tails":"0"},"type":"response","condition":"nonSeqPartial","trueTheta":0.8,"classrooms":["C","D"],"studentTrueClassroom":"C","exampleSet":"first","trial_type":"survey-html-form","trial_index":56,"time_elapsed":1046911,"internal_node_id":"0.0-40.0-0.0","params":{"nStudents":24,"maxFlips":30,"completionMinutes":45,"basePay":8,"maxBonus":9,"perTrialBonus":0.5,"perTrialBonusThreshold":0.05,"exampleCost":0.01},"classroomParams":{"A":{"a":1,"b":4},"B":{"a":4,"b":1},"C":{"a":2,"b":8},"D":{"a":8,"b":2}},"conditions":["nonSeqFull","nonSeqPartial","seqNoFeedback","seqFeedback"],"classroomPairings":[["A","B"],["C","D"]],"coinWeights":[0.2,0.5,0.8],"subjectId":"A2PQDK3MLDFXYM","assignmentId":"358010RM5FFZ4IO24OHEJZ2BS4HVXO","hitId":"3FJ2RVH25ZSYKBA8MWMNC8NVPF629N","url":"https://gershmanlab.com/experiments/alicia/teaching/experiment/?hitId=3FJ2RVH25ZSYKBA8MWMNC8NVPF629N&workerId=A2PQDK3MLDFXYM&assignmentId=358010RM5FFZ4IO24OHEJZ2BS4HVXO&a=M1857&tp_a=M1857&b=358010RM5FFZ4IO24OHEJZ2BS4HVXO&tp_b=358010RM5FFZ4IO24OHEJZ2BS4HVXO&c=365717&tp_c=365717","heads":1,"tails":0,"studentIndex":4,"studentTrueHypers":{"a":2,"b":8},"studentGuess":0.2727272727272727,"delta":0.5272727272727273,"totalExamples":1,"bonus":0,"bonusSoFar":1.46},{"rt":5840,"response":{"heads":"1","tails":"1"},"type":"response","condition":"nonSeqPartial","trueTheta":0.5,"classrooms":["A","B"],"studentTrueClassroom":"A","exampleSet":"first","trial_type":"survey-html-form","trial_index":62,"time_elapsed":1064039,"internal_node_id":"0.0-46.0-0.0","params":{"nStudents":24,"maxFlips":30,"completionMinutes":45,"basePay":8,"maxBonus":9,"perTrialBonus":0.5,"perTrialBonusThreshold":0.05,"exampleCost":0.01},"classroomParams":{"A":{"a":1,"b":4},"B":{"a":4,"b":1},"C":{"a":2,"b":8},"D":{"a":8,"b":2}},"conditions":["nonSeqFull","nonSeqPartial","seqNoFeedback","seqFeedback"],"classroomPairings":[["A","B"],["C","D"]],"coinWeights":[0.2,0.5,0.8],"subjectId":"A2PQDK3MLDFXYM","assignmentId":"358010RM5FFZ4IO24OHEJZ2BS4HVXO","hitId":"3FJ2RVH25ZSYKBA8MWMNC8NVPF629N","url":"https://gershmanlab.com/experiments/alicia/teaching/experiment/?hitId=3FJ2RVH25ZSYKBA8MWMNC8NVPF629N&workerId=A2PQDK3MLDFXYM&assignmentId=358010RM5FFZ4IO24OHEJZ2BS4HVXO&a=M1857&tp_a=M1857&b=358010RM5FFZ4IO24OHEJZ2BS4HVXO&tp_b=358010RM5FFZ4IO24OHEJZ2BS4HVXO&c=365717&tp_c=365717","heads":1,"tails":1,"studentIndex":5,"studentTrueHypers":{"a":1,"b":4},"studentGuess":0.2857142857142857,"delta":0.2142857142857143,"totalExamples":2,"bonus":0,"bonusSoFar":1.46},{"rt":6455,"response":{"heads":"1","tails":"0"},"type":"response","condition":"seqNoFeedback","trueTheta":0.5,"classrooms":["A","B"],"studentTrueClassroom":"A","exampleSet":"first","trial_type":"survey-html-form","trial_index":68,"time_elapsed":1090990,"internal_node_id":"0.0-52.0-0.0","params":{"nStudents":24,"maxFlips":30,"completionMinutes":45,"basePay":8,"maxBonus":9,"perTrialBonus":0.5,"perTrialBonusThreshold":0.05,"exampleCost":0.01},"classroomParams":{"A":{"a":1,"b":4},"B":{"a":4,"b":1},"C":{"a":2,"b":8},"D":{"a":8,"b":2}},"conditions":["nonSeqFull","nonSeqPartial","seqNoFeedback","seqFeedback"],"classroomPairings":[["A","B"],["C","D"]],"coinWeights":[0.2,0.5,0.8],"subjectId":"A2PQDK3MLDFXYM","assignmentId":"358010RM5FFZ4IO24OHEJZ2BS4HVXO","hitId":"3FJ2RVH25ZSYKBA8MWMNC8NVPF629N","url":"https://gershmanlab.com/experiments/alicia/teaching/experiment/?hitId=3FJ2RVH25ZSYKBA8MWMNC8NVPF629N&workerId=A2PQDK3MLDFXYM&assignmentId=358010RM5FFZ4IO24OHEJZ2BS4HVXO&a=M1857&tp_a=M1857&b=358010RM5FFZ4IO24OHEJZ2BS4HVXO&tp_b=358010RM5FFZ4IO24OHEJZ2BS4HVXO&c=365717&tp_c=365717","heads":1,"tails":0,"studentIndex":6,"studentTrueHypers":{"a":1,"b":4},"studentGuess":0.3333333333333333,"delta":0.16666666666666669,"totalExamples":1,"bonusSoFar":1.46},{"rt":4036,"response":{"heads":"0","tails":"1"},"type":"response","condition":"seqNoFeedback","trueTheta":0.5,"classrooms":["A","B"],"studentTrueClassroom":"A","exampleSet":"second","trial_type":"survey-html-form","trial_index":71,"time_elapsed":1101550,"internal_node_id":"0.0-55.0-0.0","params":{"nStudents":24,"maxFlips":30,"completionMinutes":45,"basePay":8,"maxBonus":9,"perTrialBonus":0.5,"perTrialBonusThreshold":0.05,"exampleCost":0.01},"classroomParams":{"A":{"a":1,"b":4},"B":{"a":4,"b":1},"C":{"a":2,"b":8},"D":{"a":8,"b":2}},"conditions":["nonSeqFull","nonSeqPartial","seqNoFeedback","seqFeedback"],"classroomPairings":[["A","B"],["C","D"]],"coinWeights":[0.2,0.5,0.8],"subjectId":"A2PQDK3MLDFXYM","assignmentId":"358010RM5FFZ4IO24OHEJZ2BS4HVXO","hitId":"3FJ2RVH25ZSYKBA8MWMNC8NVPF629N","url":"https://gershmanlab.com/experiments/alicia/teaching/experiment/?hitId=3FJ2RVH25ZSYKBA8MWMNC8NVPF629N&workerId=A2PQDK3MLDFXYM&assignmentId=358010RM5FFZ4IO24OHEJZ2BS4HVXO&a=M1857&tp_a=M1857&b=358010RM5FFZ4IO24OHEJZ2BS4HVXO&tp_b=358010RM5FFZ4IO24OHEJZ2BS4HVXO&c=365717&tp_c=365717","firstResponseHeads":1,"firstResponseTails":0,"secondResponseHeads":0,"secondResponseTails":1,"totalHeads":1,"totalTails":1,"studentIndex":6,"studentTrueHypers":{"a":1,"b":4},"studentGuess":0.2857142857142857,"delta":0.2142857142857143,"bonus":0,"bonusSoFar":1.46,"totalExamples":2},{"rt":6967,"response":{"heads":"1","tails":"0"},"type":"response","condition":"nonSeqPartial","trueTheta":0.5,"classrooms":["C","D"],"studentTrueClassroom":"C","exampleSet":"first","trial_type":"survey-html-form","trial_index":77,"time_elapsed":1123542,"internal_node_id":"0.0-61.0-0.0","params":{"nStudents":24,"maxFlips":30,"completionMinutes":45,"basePay":8,"maxBonus":9,"perTrialBonus":0.5,"perTrialBonusThreshold":0.05,"exampleCost":0.01},"classroomParams":{"A":{"a":1,"b":4},"B":{"a":4,"b":1},"C":{"a":2,"b":8},"D":{"a":8,"b":2}},"conditions":["nonSeqFull","nonSeqPartial","seqNoFeedback","seqFeedback"],"classroomPairings":[["A","B"],["C","D"]],"coinWeights":[0.2,0.5,0.8],"subjectId":"A2PQDK3MLDFXYM","assignmentId":"358010RM5FFZ4IO24OHEJZ2BS4HVXO","hitId":"3FJ2RVH25ZSYKBA8MWMNC8NVPF629N","url":"https://gershmanlab.com/experiments/alicia/teaching/experiment/?hitId=3FJ2RVH25ZSYKBA8MWMNC8NVPF629N&workerId=A2PQDK3MLDFXYM&assignmentId=358010RM5FFZ4IO24OHEJZ2BS4HVXO&a=M1857&tp_a=M1857&b=358010RM5FFZ4IO24OHEJZ2BS4HVXO&tp_b=358010RM5FFZ4IO24OHEJZ2BS4HVXO&c=365717&tp_c=365717","heads":1,"tails":0,"studentIndex":7,"studentTrueHypers":{"a":2,"b":8},"studentGuess":0.2727272727272727,"delta":0.2272727272727273,"totalExamples":1,"bonus":0,"bonusSoFar":1.46},{"rt":16119,"response":{"heads":"0","tails":"1"},"type":"response","condition":"seqNoFeedback","trueTheta":0.5,"classrooms":["C","D"],"studentTrueClassroom":"D","exampleSet":"first","trial_type":"survey-html-form","trial_index":83,"time_elapsed":1158566,"internal_node_id":"0.0-67.0-0.0","params":{"nStudents":24,"maxFlips":30,"completionMinutes":45,"basePay":8,"maxBonus":9,"perTrialBonus":0.5,"perTrialBonusThreshold":0.05,"exampleCost":0.01},"classroomParams":{"A":{"a":1,"b":4},"B":{"a":4,"b":1},"C":{"a":2,"b":8},"D":{"a":8,"b":2}},"conditions":["nonSeqFull","nonSeqPartial","seqNoFeedback","seqFeedback"],"classroomPairings":[["A","B"],["C","D"]],"coinWeights":[0.2,0.5,0.8],"subjectId":"A2PQDK3MLDFXYM","assignmentId":"358010RM5FFZ4IO24OHEJZ2BS4HVXO","hitId":"3FJ2RVH25ZSYKBA8MWMNC8NVPF629N","url":"https://gershmanlab.com/experiments/alicia/teaching/experiment/?hitId=3FJ2RVH25ZSYKBA8MWMNC8NVPF629N&workerId=A2PQDK3MLDFXYM&assignmentId=358010RM5FFZ4IO24OHEJZ2BS4HVXO&a=M1857&tp_a=M1857&b=358010RM5FFZ4IO24OHEJZ2BS4HVXO&tp_b=358010RM5FFZ4IO24OHEJZ2BS4HVXO&c=365717&tp_c=365717","heads":0,"tails":1,"studentIndex":8,"studentTrueHypers":{"a":8,"b":2},"studentGuess":0.7272727272727273,"delta":0.2272727272727273,"totalExamples":1,"bonusSoFar":1.46},{"rt":3873,"response":{"heads":"0","tails":"1"},"type":"response","condition":"seqNoFeedback","trueTheta":0.5,"classrooms":["C","D"],"studentTrueClassroom":"D","exampleSet":"second","trial_type":"survey-html-form","trial_index":86,"time_elapsed":1169710,"internal_node_id":"0.0-70.0-0.0","params":{"nStudents":24,"maxFlips":30,"completionMinutes":45,"basePay":8,"maxBonus":9,"perTrialBonus":0.5,"perTrialBonusThreshold":0.05,"exampleCost":0.01},"classroomParams":{"A":{"a":1,"b":4},"B":{"a":4,"b":1},"C":{"a":2,"b":8},"D":{"a":8,"b":2}},"conditions":["nonSeqFull","nonSeqPartial","seqNoFeedback","seqFeedback"],"classroomPairings":[["A","B"],["C","D"]],"coinWeights":[0.2,0.5,0.8],"subjectId":"A2PQDK3MLDFXYM","assignmentId":"358010RM5FFZ4IO24OHEJZ2BS4HVXO","hitId":"3FJ2RVH25ZSYKBA8MWMNC8NVPF629N","url":"https://gershmanlab.com/experiments/alicia/teaching/experiment/?hitId=3FJ2RVH25ZSYKBA8MWMNC8NVPF629N&workerId=A2PQDK3MLDFXYM&assignmentId=358010RM5FFZ4IO24OHEJZ2BS4HVXO&a=M1857&tp_a=M1857&b=358010RM5FFZ4IO24OHEJZ2BS4HVXO&tp_b=358010RM5FFZ4IO24OHEJZ2BS4HVXO&c=365717&tp_c=365717","firstResponseHeads":0,"firstResponseTails":1,"secondResponseHeads":0,"secondResponseTails":1,"totalHeads":0,"totalTails":2,"studentIndex":8,"studentTrueHypers":{"a":8,"b":2},"studentGuess":0.6666666666666666,"delta":0.16666666666666663,"bonus":0,"bonusSoFar":1.46,"totalExamples":2},{"rt":10511,"response":{"heads":"0","tails":"1"},"type":"response","condition":"nonSeqFull","trueTheta":0.5,"classrooms":["A","B"],"studentTrueClassroom":"A","exampleSet":"first","trial_type":"survey-html-form","trial_index":92,"time_elapsed":1193782,"internal_node_id":"0.0-76.0-0.0","params":{"nStudents":24,"maxFlips":30,"completionMinutes":45,"basePay":8,"maxBonus":9,"perTrialBonus":0.5,"perTrialBonusThreshold":0.05,"exampleCost":0.01},"classroomParams":{"A":{"a":1,"b":4},"B":{"a":4,"b":1},"C":{"a":2,"b":8},"D":{"a":8,"b":2}},"conditions":["nonSeqFull","nonSeqPartial","seqNoFeedback","seqFeedback"],"classroomPairings":[["A","B"],["C","D"]],"coinWeights":[0.2,0.5,0.8],"subjectId":"A2PQDK3MLDFXYM","assignmentId":"358010RM5FFZ4IO24OHEJZ2BS4HVXO","hitId":"3FJ2RVH25ZSYKBA8MWMNC8NVPF629N","url":"https://gershmanlab.com/experiments/alicia/teaching/experiment/?hitId=3FJ2RVH25ZSYKBA8MWMNC8NVPF629N&workerId=A2PQDK3MLDFXYM&assignmentId=358010RM5FFZ4IO24OHEJZ2BS4HVXO&a=M1857&tp_a=M1857&b=358010RM5FFZ4IO24OHEJZ2BS4HVXO&tp_b=358010RM5FFZ4IO24OHEJZ2BS4HVXO&c=365717&tp_c=365717","heads":0,"tails":1,"studentIndex":9,"studentTrueHypers":{"a":1,"b":4},"studentGuess":0.16666666666666666,"delta":0.33333333333333337,"totalExamples":1,"bonus":0,"bonusSoFar":1.46},{"rt":3855,"response":{"heads":"1","tails":"0"},"type":"response","condition":"nonSeqFull","trueTheta":0.8,"classrooms":["A","B"],"studentTrueClassroom":"A","exampleSet":"first","trial_type":"survey-html-form","trial_index":98,"time_elapsed":1215477,"internal_node_id":"0.0-82.0-0.0","params":{"nStudents":24,"maxFlips":30,"completionMinutes":45,"basePay":8,"maxBonus":9,"perTrialBonus":0.5,"perTrialBonusThreshold":0.05,"exampleCost":0.01},"classroomParams":{"A":{"a":1,"b":4},"B":{"a":4,"b":1},"C":{"a":2,"b":8},"D":{"a":8,"b":2}},"conditions":["nonSeqFull","nonSeqPartial","seqNoFeedback","seqFeedback"],"classroomPairings":[["A","B"],["C","D"]],"coinWeights":[0.2,0.5,0.8],"subjectId":"A2PQDK3MLDFXYM","assignmentId":"358010RM5FFZ4IO24OHEJZ2BS4HVXO","hitId":"3FJ2RVH25ZSYKBA8MWMNC8NVPF629N","url":"https://gershmanlab.com/experiments/alicia/teaching/experiment/?hitId=3FJ2RVH25ZSYKBA8MWMNC8NVPF629N&workerId=A2PQDK3MLDFXYM&assignmentId=358010RM5FFZ4IO24OHEJZ2BS4HVXO&a=M1857&tp_a=M1857&b=358010RM5FFZ4IO24OHEJZ2BS4HVXO&tp_b=358010RM5FFZ4IO24OHEJZ2BS4HVXO&c=365717&tp_c=365717","heads":1,"tails":0,"studentIndex":10,"studentTrueHypers":{"a":1,"b":4},"studentGuess":0.3333333333333333,"delta":0.46666666666666673,"totalExamples":1,"bonus":0,"bonusSoFar":1.46},{"rt":7375,"response":{"heads":"0","tails":"1"},"type":"response","condition":"nonSeqFull","trueTheta":0.2,"classrooms":["C","D"],"studentTrueClassroom":"D","exampleSet":"first","trial_type":"survey-html-form","trial_index":104,"time_elapsed":1234870,"internal_node_id":"0.0-88.0-0.0","params":{"nStudents":24,"maxFlips":30,"completionMinutes":45,"basePay":8,"maxBonus":9,"perTrialBonus":0.5,"perTrialBonusThreshold":0.05,"exampleCost":0.01},"classroomParams":{"A":{"a":1,"b":4},"B":{"a":4,"b":1},"C":{"a":2,"b":8},"D":{"a":8,"b":2}},"conditions":["nonSeqFull","nonSeqPartial","seqNoFeedback","seqFeedback"],"classroomPairings":[["A","B"],["C","D"]],"coinWeights":[0.2,0.5,0.8],"subjectId":"A2PQDK3MLDFXYM","assignmentId":"358010RM5FFZ4IO24OHEJZ2BS4HVXO","hitId":"3FJ2RVH25ZSYKBA8MWMNC8NVPF629N","url":"https://gershmanlab.com/experiments/alicia/teaching/experiment/?hitId=3FJ2RVH25ZSYKBA8MWMNC8NVPF629N&workerId=A2PQDK3MLDFXYM&assignmentId=358010RM5FFZ4IO24OHEJZ2BS4HVXO&a=M1857&tp_a=M1857&b=358010RM5FFZ4IO24OHEJZ2BS4HVXO&tp_b=358010RM5FFZ4IO24OHEJZ2BS4HVXO&c=365717&tp_c=365717","heads":0,"tails":1,"studentIndex":11,"studentTrueHypers":{"a":8,"b":2},"studentGuess":0.7272727272727273,"delta":0.5272727272727273,"totalExamples":1,"bonus":0,"bonusSoFar":1.46},{"rt":2855,"response":{"heads":"1","tails":"0"},"type":"response","condition":"nonSeqFull","trueTheta":0.8,"classrooms":["C","D"],"studentTrueClassroom":"D","exampleSet":"first","trial_type":"survey-html-form","trial_index":110,"time_elapsed":1255893,"internal_node_id":"0.0-94.0-0.0","params":{"nStudents":24,"maxFlips":30,"completionMinutes":45,"basePay":8,"maxBonus":9,"perTrialBonus":0.5,"perTrialBonusThreshold":0.05,"exampleCost":0.01},"classroomParams":{"A":{"a":1,"b":4},"B":{"a":4,"b":1},"C":{"a":2,"b":8},"D":{"a":8,"b":2}},"conditions":["nonSeqFull","nonSeqPartial","seqNoFeedback","seqFeedback"],"classroomPairings":[["A","B"],["C","D"]],"coinWeights":[0.2,0.5,0.8],"subjectId":"A2PQDK3MLDFXYM","assignmentId":"358010RM5FFZ4IO24OHEJZ2BS4HVXO","hitId":"3FJ2RVH25ZSYKBA8MWMNC8NVPF629N","url":"https://gershmanlab.com/experiments/alicia/teaching/experiment/?hitId=3FJ2RVH25ZSYKBA8MWMNC8NVPF629N&workerId=A2PQDK3MLDFXYM&assignmentId=358010RM5FFZ4IO24OHEJZ2BS4HVXO&a=M1857&tp_a=M1857&b=358010RM5FFZ4IO24OHEJZ2BS4HVXO&tp_b=358010RM5FFZ4IO24OHEJZ2BS4HVXO&c=365717&tp_c=365717","heads":1,"tails":0,"studentIndex":12,"studentTrueHypers":{"a":8,"b":2},"studentGuess":0.8181818181818182,"delta":0.018181818181818188,"totalExamples":1,"bonus":0.49,"bonusSoFar":1.95},{"rt":4447,"response":{"heads":"0","tails":"1"},"type":"response","condition":"seqFeedback","trueTheta":0.5,"classrooms":["C","D"],"studentTrueClassroom":"D","exampleSet":"first","trial_type":"survey-html-form","trial_index":116,"time_elapsed":1282813,"internal_node_id":"0.0-100.0-0.0","params":{"nStudents":24,"maxFlips":30,"completionMinutes":45,"basePay":8,"maxBonus":9,"perTrialBonus":0.5,"perTrialBonusThreshold":0.05,"exampleCost":0.01},"classroomParams":{"A":{"a":1,"b":4},"B":{"a":4,"b":1},"C":{"a":2,"b":8},"D":{"a":8,"b":2}},"conditions":["nonSeqFull","nonSeqPartial","seqNoFeedback","seqFeedback"],"classroomPairings":[["A","B"],["C","D"]],"coinWeights":[0.2,0.5,0.8],"subjectId":"A2PQDK3MLDFXYM","assignmentId":"358010RM5FFZ4IO24OHEJZ2BS4HVXO","hitId":"3FJ2RVH25ZSYKBA8MWMNC8NVPF629N","url":"https://gershmanlab.com/experiments/alicia/teaching/experiment/?hitId=3FJ2RVH25ZSYKBA8MWMNC8NVPF629N&workerId=A2PQDK3MLDFXYM&assignmentId=358010RM5FFZ4IO24OHEJZ2BS4HVXO&a=M1857&tp_a=M1857&b=358010RM5FFZ4IO24OHEJZ2BS4HVXO&tp_b=358010RM5FFZ4IO24OHEJZ2BS4HVXO&c=365717&tp_c=365717","heads":0,"tails":1,"studentIndex":13,"studentTrueHypers":{"a":8,"b":2},"studentGuess":0.7272727272727273,"delta":0.2272727272727273,"totalExamples":1,"bonusSoFar":1.95},{"rt":7312,"response":{"heads":"0","tails":"1"},"type":"response","condition":"seqFeedback","trueTheta":0.5,"classrooms":["C","D"],"studentTrueClassroom":"D","exampleSet":"second","trial_type":"survey-html-form","trial_index":120,"time_elapsed":1300205,"internal_node_id":"0.0-104.0-0.0","params":{"nStudents":24,"maxFlips":30,"completionMinutes":45,"basePay":8,"maxBonus":9,"perTrialBonus":0.5,"perTrialBonusThreshold":0.05,"exampleCost":0.01},"classroomParams":{"A":{"a":1,"b":4},"B":{"a":4,"b":1},"C":{"a":2,"b":8},"D":{"a":8,"b":2}},"conditions":["nonSeqFull","nonSeqPartial","seqNoFeedback","seqFeedback"],"classroomPairings":[["A","B"],["C","D"]],"coinWeights":[0.2,0.5,0.8],"subjectId":"A2PQDK3MLDFXYM","assignmentId":"358010RM5FFZ4IO24OHEJZ2BS4HVXO","hitId":"3FJ2RVH25ZSYKBA8MWMNC8NVPF629N","url":"https://gershmanlab.com/experiments/alicia/teaching/experiment/?hitId=3FJ2RVH25ZSYKBA8MWMNC8NVPF629N&workerId=A2PQDK3MLDFXYM&assignmentId=358010RM5FFZ4IO24OHEJZ2BS4HVXO&a=M1857&tp_a=M1857&b=358010RM5FFZ4IO24OHEJZ2BS4HVXO&tp_b=358010RM5FFZ4IO24OHEJZ2BS4HVXO&c=365717&tp_c=365717","firstResponseHeads":0,"firstResponseTails":1,"secondResponseHeads":0,"secondResponseTails":1,"totalHeads":0,"totalTails":2,"studentIndex":13,"studentTrueHypers":{"a":8,"b":2},"studentGuess":0.6666666666666666,"delta":0.16666666666666663,"bonus":0,"bonusSoFar":1.95,"totalExamples":2},{"rt":6409,"response":{"heads":"0","tails":"2"},"type":"response","condition":"seqFeedback","trueTheta":0.2,"classrooms":["C","D"],"studentTrueClassroom":"C","exampleSet":"first","trial_type":"survey-html-form","trial_index":126,"time_elapsed":1328518,"internal_node_id":"0.0-110.0-0.0","params":{"nStudents":24,"maxFlips":30,"completionMinutes":45,"basePay":8,"maxBonus":9,"perTrialBonus":0.5,"perTrialBonusThreshold":0.05,"exampleCost":0.01},"classroomParams":{"A":{"a":1,"b":4},"B":{"a":4,"b":1},"C":{"a":2,"b":8},"D":{"a":8,"b":2}},"conditions":["nonSeqFull","nonSeqPartial","seqNoFeedback","seqFeedback"],"classroomPairings":[["A","B"],["C","D"]],"coinWeights":[0.2,0.5,0.8],"subjectId":"A2PQDK3MLDFXYM","assignmentId":"358010RM5FFZ4IO24OHEJZ2BS4HVXO","hitId":"3FJ2RVH25ZSYKBA8MWMNC8NVPF629N","url":"https://gershmanlab.com/experiments/alicia/teaching/experiment/?hitId=3FJ2RVH25ZSYKBA8MWMNC8NVPF629N&workerId=A2PQDK3MLDFXYM&assignmentId=358010RM5FFZ4IO24OHEJZ2BS4HVXO&a=M1857&tp_a=M1857&b=358010RM5FFZ4IO24OHEJZ2BS4HVXO&tp_b=358010RM5FFZ4IO24OHEJZ2BS4HVXO&c=365717&tp_c=365717","heads":0,"tails":2,"studentIndex":14,"studentTrueHypers":{"a":2,"b":8},"studentGuess":0.16666666666666666,"delta":0.033333333333333354,"totalExamples":2,"bonusSoFar":1.95},{"rt":4510,"response":{"heads":"0","tails":"2"},"type":"response","condition":"seqFeedback","trueTheta":0.2,"classrooms":["C","D"],"studentTrueClassroom":"C","exampleSet":"second","trial_type":"survey-html-form","trial_index":130,"time_elapsed":1343661,"internal_node_id":"0.0-114.0-0.0","params":{"nStudents":24,"maxFlips":30,"completionMinutes":45,"basePay":8,"maxBonus":9,"perTrialBonus":0.5,"perTrialBonusThreshold":0.05,"exampleCost":0.01},"classroomParams":{"A":{"a":1,"b":4},"B":{"a":4,"b":1},"C":{"a":2,"b":8},"D":{"a":8,"b":2}},"conditions":["nonSeqFull","nonSeqPartial","seqNoFeedback","seqFeedback"],"classroomPairings":[["A","B"],["C","D"]],"coinWeights":[0.2,0.5,0.8],"subjectId":"A2PQDK3MLDFXYM","assignmentId":"358010RM5FFZ4IO24OHEJZ2BS4HVXO","hitId":"3FJ2RVH25ZSYKBA8MWMNC8NVPF629N","url":"https://gershmanlab.com/experiments/alicia/teaching/experiment/?hitId=3FJ2RVH25ZSYKBA8MWMNC8NVPF629N&workerId=A2PQDK3MLDFXYM&assignmentId=358010RM5FFZ4IO24OHEJZ2BS4HVXO&a=M1857&tp_a=M1857&b=358010RM5FFZ4IO24OHEJZ2BS4HVXO&tp_b=358010RM5FFZ4IO24OHEJZ2BS4HVXO&c=365717&tp_c=365717","firstResponseHeads":0,"firstResponseTails":2,"secondResponseHeads":0,"secondResponseTails":2,"totalHeads":0,"totalTails":4,"studentIndex":14,"studentTrueHypers":{"a":2,"b":8},"studentGuess":0.14285714285714285,"delta":0.05714285714285716,"bonus":0,"bonusSoFar":1.95,"totalExamples":4},{"rt":1815,"response":{"heads":"1","tails":"0"},"type":"response","condition":"nonSeqPartial","trueTheta":0.8,"classrooms":["A","B"],"studentTrueClassroom":"A","exampleSet":"first","trial_type":"survey-html-form","trial_index":136,"time_elapsed":1363741,"internal_node_id":"0.0-120.0-0.0","params":{"nStudents":24,"maxFlips":30,"completionMinutes":45,"basePay":8,"maxBonus":9,"perTrialBonus":0.5,"perTrialBonusThreshold":0.05,"exampleCost":0.01},"classroomParams":{"A":{"a":1,"b":4},"B":{"a":4,"b":1},"C":{"a":2,"b":8},"D":{"a":8,"b":2}},"conditions":["nonSeqFull","nonSeqPartial","seqNoFeedback","seqFeedback"],"classroomPairings":[["A","B"],["C","D"]],"coinWeights":[0.2,0.5,0.8],"subjectId":"A2PQDK3MLDFXYM","assignmentId":"358010RM5FFZ4IO24OHEJZ2BS4HVXO","hitId":"3FJ2RVH25ZSYKBA8MWMNC8NVPF629N","url":"https://gershmanlab.com/experiments/alicia/teaching/experiment/?hitId=3FJ2RVH25ZSYKBA8MWMNC8NVPF629N&workerId=A2PQDK3MLDFXYM&assignmentId=358010RM5FFZ4IO24OHEJZ2BS4HVXO&a=M1857&tp_a=M1857&b=358010RM5FFZ4IO24OHEJZ2BS4HVXO&tp_b=358010RM5FFZ4IO24OHEJZ2BS4HVXO&c=365717&tp_c=365717","heads":1,"tails":0,"studentIndex":15,"studentTrueHypers":{"a":1,"b":4},"studentGuess":0.3333333333333333,"delta":0.46666666666666673,"totalExamples":1,"bonus":0,"bonusSoFar":1.95},{"rt":5423,"response":{"heads":"0","tails":"1"},"type":"response","condition":"nonSeqPartial","trueTheta":0.2,"classrooms":["C","D"],"studentTrueClassroom":"D","exampleSet":"first","trial_type":"survey-html-form","trial_index":142,"time_elapsed":1381789,"internal_node_id":"0.0-126.0-0.0","params":{"nStudents":24,"maxFlips":30,"completionMinutes":45,"basePay":8,"maxBonus":9,"perTrialBonus":0.5,"perTrialBonusThreshold":0.05,"exampleCost":0.01},"classroomParams":{"A":{"a":1,"b":4},"B":{"a":4,"b":1},"C":{"a":2,"b":8},"D":{"a":8,"b":2}},"conditions":["nonSeqFull","nonSeqPartial","seqNoFeedback","seqFeedback"],"classroomPairings":[["A","B"],["C","D"]],"coinWeights":[0.2,0.5,0.8],"subjectId":"A2PQDK3MLDFXYM","assignmentId":"358010RM5FFZ4IO24OHEJZ2BS4HVXO","hitId":"3FJ2RVH25ZSYKBA8MWMNC8NVPF629N","url":"https://gershmanlab.com/experiments/alicia/teaching/experiment/?hitId=3FJ2RVH25ZSYKBA8MWMNC8NVPF629N&workerId=A2PQDK3MLDFXYM&assignmentId=358010RM5FFZ4IO24OHEJZ2BS4HVXO&a=M1857&tp_a=M1857&b=358010RM5FFZ4IO24OHEJZ2BS4HVXO&tp_b=358010RM5FFZ4IO24OHEJZ2BS4HVXO&c=365717&tp_c=365717","heads":0,"tails":1,"studentIndex":16,"studentTrueHypers":{"a":8,"b":2},"studentGuess":0.7272727272727273,"delta":0.5272727272727273,"totalExamples":1,"bonus":0,"bonusSoFar":1.95},{"rt":1703,"response":{"heads":"1","tails":"0"},"type":"response","condition":"nonSeqPartial","trueTheta":0.2,"classrooms":["A","B"],"studentTrueClassroom":"B","exampleSet":"first","trial_type":"survey-html-form","trial_index":148,"time_elapsed":1394957,"internal_node_id":"0.0-132.0-0.0","params":{"nStudents":24,"maxFlips":30,"completionMinutes":45,"basePay":8,"maxBonus":9,"perTrialBonus":0.5,"perTrialBonusThreshold":0.05,"exampleCost":0.01},"classroomParams":{"A":{"a":1,"b":4},"B":{"a":4,"b":1},"C":{"a":2,"b":8},"D":{"a":8,"b":2}},"conditions":["nonSeqFull","nonSeqPartial","seqNoFeedback","seqFeedback"],"classroomPairings":[["A","B"],["C","D"]],"coinWeights":[0.2,0.5,0.8],"subjectId":"A2PQDK3MLDFXYM","assignmentId":"358010RM5FFZ4IO24OHEJZ2BS4HVXO","hitId":"3FJ2RVH25ZSYKBA8MWMNC8NVPF629N","url":"https://gershmanlab.com/experiments/alicia/teaching/experiment/?hitId=3FJ2RVH25ZSYKBA8MWMNC8NVPF629N&workerId=A2PQDK3MLDFXYM&assignmentId=358010RM5FFZ4IO24OHEJZ2BS4HVXO&a=M1857&tp_a=M1857&b=358010RM5FFZ4IO24OHEJZ2BS4HVXO&tp_b=358010RM5FFZ4IO24OHEJZ2BS4HVXO&c=365717&tp_c=365717","heads":1,"tails":0,"studentIndex":17,"studentTrueHypers":{"a":4,"b":1},"studentGuess":0.8333333333333334,"delta":0.6333333333333333,"totalExamples":1,"bonus":0,"bonusSoFar":1.95},{"rt":3239,"response":{"heads":"0","tails":"2"},"type":"response","condition":"seqNoFeedback","trueTheta":0.2,"classrooms":["C","D"],"studentTrueClassroom":"D","exampleSet":"first","trial_type":"survey-html-form","trial_index":154,"time_elapsed":1411133,"internal_node_id":"0.0-138.0-0.0","params":{"nStudents":24,"maxFlips":30,"completionMinutes":45,"basePay":8,"maxBonus":9,"perTrialBonus":0.5,"perTrialBonusThreshold":0.05,"exampleCost":0.01},"classroomParams":{"A":{"a":1,"b":4},"B":{"a":4,"b":1},"C":{"a":2,"b":8},"D":{"a":8,"b":2}},"conditions":["nonSeqFull","nonSeqPartial","seqNoFeedback","seqFeedback"],"classroomPairings":[["A","B"],["C","D"]],"coinWeights":[0.2,0.5,0.8],"subjectId":"A2PQDK3MLDFXYM","assignmentId":"358010RM5FFZ4IO24OHEJZ2BS4HVXO","hitId":"3FJ2RVH25ZSYKBA8MWMNC8NVPF629N","url":"https://gershmanlab.com/experiments/alicia/teaching/experiment/?hitId=3FJ2RVH25ZSYKBA8MWMNC8NVPF629N&workerId=A2PQDK3MLDFXYM&assignmentId=358010RM5FFZ4IO24OHEJZ2BS4HVXO&a=M1857&tp_a=M1857&b=358010RM5FFZ4IO24OHEJZ2BS4HVXO&tp_b=358010RM5FFZ4IO24OHEJZ2BS4HVXO&c=365717&tp_c=365717","heads":0,"tails":2,"studentIndex":18,"studentTrueHypers":{"a":8,"b":2},"studentGuess":0.6666666666666666,"delta":0.4666666666666666,"totalExamples":2,"bonusSoFar":1.95},{"rt":7332,"response":{"heads":"0","tails":"1"},"type":"response","condition":"seqNoFeedback","trueTheta":0.2,"classrooms":["C","D"],"studentTrueClassroom":"D","exampleSet":"second","trial_type":"survey-html-form","trial_index":157,"time_elapsed":1424508,"internal_node_id":"0.0-141.0-0.0","params":{"nStudents":24,"maxFlips":30,"completionMinutes":45,"basePay":8,"maxBonus":9,"perTrialBonus":0.5,"perTrialBonusThreshold":0.05,"exampleCost":0.01},"classroomParams":{"A":{"a":1,"b":4},"B":{"a":4,"b":1},"C":{"a":2,"b":8},"D":{"a":8,"b":2}},"conditions":["nonSeqFull","nonSeqPartial","seqNoFeedback","seqFeedback"],"classroomPairings":[["A","B"],["C","D"]],"coinWeights":[0.2,0.5,0.8],"subjectId":"A2PQDK3MLDFXYM","assignmentId":"358010RM5FFZ4IO24OHEJZ2BS4HVXO","hitId":"3FJ2RVH25ZSYKBA8MWMNC8NVPF629N","url":"https://gershmanlab.com/experiments/alicia/teaching/experiment/?hitId=3FJ2RVH25ZSYKBA8MWMNC8NVPF629N&workerId=A2PQDK3MLDFXYM&assignmentId=358010RM5FFZ4IO24OHEJZ2BS4HVXO&a=M1857&tp_a=M1857&b=358010RM5FFZ4IO24OHEJZ2BS4HVXO&tp_b=358010RM5FFZ4IO24OHEJZ2BS4HVXO&c=365717&tp_c=365717","firstResponseHeads":0,"firstResponseTails":2,"secondResponseHeads":0,"secondResponseTails":1,"totalHeads":0,"totalTails":3,"studentIndex":18,"studentTrueHypers":{"a":8,"b":2},"studentGuess":0.6153846153846154,"delta":0.4153846153846154,"bonus":0,"bonusSoFar":1.95,"totalExamples":3},{"rt":7831,"response":{"heads":"0","tails":"0"},"type":"response","condition":"nonSeqFull","trueTheta":0.2,"classrooms":["A","B"],"studentTrueClassroom":"A","exampleSet":"first","trial_type":"survey-html-form","trial_index":163,"time_elapsed":1446356,"internal_node_id":"0.0-147.0-0.0","params":{"nStudents":24,"maxFlips":30,"completionMinutes":45,"basePay":8,"maxBonus":9,"perTrialBonus":0.5,"perTrialBonusThreshold":0.05,"exampleCost":0.01},"classroomParams":{"A":{"a":1,"b":4},"B":{"a":4,"b":1},"C":{"a":2,"b":8},"D":{"a":8,"b":2}},"conditions":["nonSeqFull","nonSeqPartial","seqNoFeedback","seqFeedback"],"classroomPairings":[["A","B"],["C","D"]],"coinWeights":[0.2,0.5,0.8],"subjectId":"A2PQDK3MLDFXYM","assignmentId":"358010RM5FFZ4IO24OHEJZ2BS4HVXO","hitId":"3FJ2RVH25ZSYKBA8MWMNC8NVPF629N","url":"https://gershmanlab.com/experiments/alicia/teaching/experiment/?hitId=3FJ2RVH25ZSYKBA8MWMNC8NVPF629N&workerId=A2PQDK3MLDFXYM&assignmentId=358010RM5FFZ4IO24OHEJZ2BS4HVXO&a=M1857&tp_a=M1857&b=358010RM5FFZ4IO24OHEJZ2BS4HVXO&tp_b=358010RM5FFZ4IO24OHEJZ2BS4HVXO&c=365717&tp_c=365717","heads":0,"tails":0,"studentIndex":19,"studentTrueHypers":{"a":1,"b":4},"studentGuess":0.2,"delta":0,"totalExamples":0,"bonus":0.5,"bonusSoFar":2.45},{"rt":2103,"response":{"heads":"0","tails":"0"},"type":"response","condition":"nonSeqFull","trueTheta":0.2,"classrooms":["A","B"],"studentTrueClassroom":"A","exampleSet":"first","trial_type":"survey-html-form","trial_index":164,"time_elapsed":1448460,"internal_node_id":"0.0-147.1-0.1","params":{"nStudents":24,"maxFlips":30,"completionMinutes":45,"basePay":8,"maxBonus":9,"perTrialBonus":0.5,"perTrialBonusThreshold":0.05,"exampleCost":0.01},"classroomParams":{"A":{"a":1,"b":4},"B":{"a":4,"b":1},"C":{"a":2,"b":8},"D":{"a":8,"b":2}},"conditions":["nonSeqFull","nonSeqPartial","seqNoFeedback","seqFeedback"],"classroomPairings":[["A","B"],["C","D"]],"coinWeights":[0.2,0.5,0.8],"subjectId":"A2PQDK3MLDFXYM","assignmentId":"358010RM5FFZ4IO24OHEJZ2BS4HVXO","hitId":"3FJ2RVH25ZSYKBA8MWMNC8NVPF629N","url":"https://gershmanlab.com/experiments/alicia/teaching/experiment/?hitId=3FJ2RVH25ZSYKBA8MWMNC8NVPF629N&workerId=A2PQDK3MLDFXYM&assignmentId=358010RM5FFZ4IO24OHEJZ2BS4HVXO&a=M1857&tp_a=M1857&b=358010RM5FFZ4IO24OHEJZ2BS4HVXO&tp_b=358010RM5FFZ4IO24OHEJZ2BS4HVXO&c=365717&tp_c=365717","heads":0,"tails":0,"studentIndex":19,"studentTrueHypers":{"a":1,"b":4},"studentGuess":0.2,"delta":0,"totalExamples":0,"bonus":0.5,"bonusSoFar":2.95},{"rt":3143,"response":{"heads":"0","tails":"1"},"type":"response","condition":"nonSeqFull","trueTheta":0.2,"classrooms":["A","B"],"studentTrueClassroom":"A","exampleSet":"first","trial_type":"survey-html-form","trial_index":165,"time_elapsed":1451604,"internal_node_id":"0.0-147.2-0.2","params":{"nStudents":24,"maxFlips":30,"completionMinutes":45,"basePay":8,"maxBonus":9,"perTrialBonus":0.5,"perTrialBonusThreshold":0.05,"exampleCost":0.01},"classroomParams":{"A":{"a":1,"b":4},"B":{"a":4,"b":1},"C":{"a":2,"b":8},"D":{"a":8,"b":2}},"conditions":["nonSeqFull","nonSeqPartial","seqNoFeedback","seqFeedback"],"classroomPairings":[["A","B"],["C","D"]],"coinWeights":[0.2,0.5,0.8],"subjectId":"A2PQDK3MLDFXYM","assignmentId":"358010RM5FFZ4IO24OHEJZ2BS4HVXO","hitId":"3FJ2RVH25ZSYKBA8MWMNC8NVPF629N","url":"https://gershmanlab.com/experiments/alicia/teaching/experiment/?hitId=3FJ2RVH25ZSYKBA8MWMNC8NVPF629N&workerId=A2PQDK3MLDFXYM&assignmentId=358010RM5FFZ4IO24OHEJZ2BS4HVXO&a=M1857&tp_a=M1857&b=358010RM5FFZ4IO24OHEJZ2BS4HVXO&tp_b=358010RM5FFZ4IO24OHEJZ2BS4HVXO&c=365717&tp_c=365717","heads":0,"tails":1,"studentIndex":19,"studentTrueHypers":{"a":1,"b":4},"studentGuess":0.16666666666666666,"delta":0.033333333333333354,"totalExamples":1,"bonus":0.49,"bonusSoFar":3.44},{"rt":7447,"response":{"heads":"2","tails":"0"},"type":"response","condition":"seqNoFeedback","trueTheta":0.8,"classrooms":["C","D"],"studentTrueClassroom":"D","exampleSet":"first","trial_type":"survey-html-form","trial_index":171,"time_elapsed":1478964,"internal_node_id":"0.0-153.0-0.0","params":{"nStudents":24,"maxFlips":30,"completionMinutes":45,"basePay":8,"maxBonus":9,"perTrialBonus":0.5,"perTrialBonusThreshold":0.05,"exampleCost":0.01},"classroomParams":{"A":{"a":1,"b":4},"B":{"a":4,"b":1},"C":{"a":2,"b":8},"D":{"a":8,"b":2}},"conditions":["nonSeqFull","nonSeqPartial","seqNoFeedback","seqFeedback"],"classroomPairings":[["A","B"],["C","D"]],"coinWeights":[0.2,0.5,0.8],"subjectId":"A2PQDK3MLDFXYM","assignmentId":"358010RM5FFZ4IO24OHEJZ2BS4HVXO","hitId":"3FJ2RVH25ZSYKBA8MWMNC8NVPF629N","url":"https://gershmanlab.com/experiments/alicia/teaching/experiment/?hitId=3FJ2RVH25ZSYKBA8MWMNC8NVPF629N&workerId=A2PQDK3MLDFXYM&assignmentId=358010RM5FFZ4IO24OHEJZ2BS4HVXO&a=M1857&tp_a=M1857&b=358010RM5FFZ4IO24OHEJZ2BS4HVXO&tp_b=358010RM5FFZ4IO24OHEJZ2BS4HVXO&c=365717&tp_c=365717","heads":2,"tails":0,"studentIndex":20,"studentTrueHypers":{"a":8,"b":2},"studentGuess":0.8333333333333334,"delta":0.033333333333333326,"totalExamples":2,"bonusSoFar":3.44},{"rt":4026,"response":{"heads":"1","tails":"0"},"type":"response","condition":"seqNoFeedback","trueTheta":0.8,"classrooms":["C","D"],"studentTrueClassroom":"D","exampleSet":"second","trial_type":"survey-html-form","trial_index":174,"time_elapsed":1490260,"internal_node_id":"0.0-156.0-0.0","params":{"nStudents":24,"maxFlips":30,"completionMinutes":45,"basePay":8,"maxBonus":9,"perTrialBonus":0.5,"perTrialBonusThreshold":0.05,"exampleCost":0.01},"classroomParams":{"A":{"a":1,"b":4},"B":{"a":4,"b":1},"C":{"a":2,"b":8},"D":{"a":8,"b":2}},"conditions":["nonSeqFull","nonSeqPartial","seqNoFeedback","seqFeedback"],"classroomPairings":[["A","B"],["C","D"]],"coinWeights":[0.2,0.5,0.8],"subjectId":"A2PQDK3MLDFXYM","assignmentId":"358010RM5FFZ4IO24OHEJZ2BS4HVXO","hitId":"3FJ2RVH25ZSYKBA8MWMNC8NVPF629N","url":"https://gershmanlab.com/experiments/alicia/teaching/experiment/?hitId=3FJ2RVH25ZSYKBA8MWMNC8NVPF629N&workerId=A2PQDK3MLDFXYM&assignmentId=358010RM5FFZ4IO24OHEJZ2BS4HVXO&a=M1857&tp_a=M1857&b=358010RM5FFZ4IO24OHEJZ2BS4HVXO&tp_b=358010RM5FFZ4IO24OHEJZ2BS4HVXO&c=365717&tp_c=365717","firstResponseHeads":2,"firstResponseTails":0,"secondResponseHeads":1,"secondResponseTails":0,"totalHeads":3,"totalTails":0,"studentIndex":20,"studentTrueHypers":{"a":8,"b":2},"studentGuess":0.8461538461538461,"delta":0.0461538461538461,"bonus":0.47,"bonusSoFar":3.91,"totalExamples":3},{"rt":7607,"response":{"heads":"1","tails":"0"},"type":"response","condition":"seqFeedback","trueTheta":0.8,"classrooms":["A","B"],"studentTrueClassroom":"A","exampleSet":"first","trial_type":"survey-html-form","trial_index":180,"time_elapsed":1519556,"internal_node_id":"0.0-162.0-0.0","params":{"nStudents":24,"maxFlips":30,"completionMinutes":45,"basePay":8,"maxBonus":9,"perTrialBonus":0.5,"perTrialBonusThreshold":0.05,"exampleCost":0.01},"classroomParams":{"A":{"a":1,"b":4},"B":{"a":4,"b":1},"C":{"a":2,"b":8},"D":{"a":8,"b":2}},"conditions":["nonSeqFull","nonSeqPartial","seqNoFeedback","seqFeedback"],"classroomPairings":[["A","B"],["C","D"]],"coinWeights":[0.2,0.5,0.8],"subjectId":"A2PQDK3MLDFXYM","assignmentId":"358010RM5FFZ4IO24OHEJZ2BS4HVXO","hitId":"3FJ2RVH25ZSYKBA8MWMNC8NVPF629N","url":"https://gershmanlab.com/experiments/alicia/teaching/experiment/?hitId=3FJ2RVH25ZSYKBA8MWMNC8NVPF629N&workerId=A2PQDK3MLDFXYM&assignmentId=358010RM5FFZ4IO24OHEJZ2BS4HVXO&a=M1857&tp_a=M1857&b=358010RM5FFZ4IO24OHEJZ2BS4HVXO&tp_b=358010RM5FFZ4IO24OHEJZ2BS4HVXO&c=365717&tp_c=365717","heads":1,"tails":0,"studentIndex":21,"studentTrueHypers":{"a":1,"b":4},"studentGuess":0.3333333333333333,"delta":0.46666666666666673,"totalExamples":1,"bonusSoFar":3.91},{"rt":1960,"response":{"heads":"1","tails":"0"},"type":"response","condition":"seqFeedback","trueTheta":0.8,"classrooms":["A","B"],"studentTrueClassroom":"A","exampleSet":"second","trial_type":"survey-html-form","trial_index":184,"time_elapsed":1531612,"internal_node_id":"0.0-166.0-0.0","params":{"nStudents":24,"maxFlips":30,"completionMinutes":45,"basePay":8,"maxBonus":9,"perTrialBonus":0.5,"perTrialBonusThreshold":0.05,"exampleCost":0.01},"classroomParams":{"A":{"a":1,"b":4},"B":{"a":4,"b":1},"C":{"a":2,"b":8},"D":{"a":8,"b":2}},"conditions":["nonSeqFull","nonSeqPartial","seqNoFeedback","seqFeedback"],"classroomPairings":[["A","B"],["C","D"]],"coinWeights":[0.2,0.5,0.8],"subjectId":"A2PQDK3MLDFXYM","assignmentId":"358010RM5FFZ4IO24OHEJZ2BS4HVXO","hitId":"3FJ2RVH25ZSYKBA8MWMNC8NVPF629N","url":"https://gershmanlab.com/experiments/alicia/teaching/experiment/?hitId=3FJ2RVH25ZSYKBA8MWMNC8NVPF629N&workerId=A2PQDK3MLDFXYM&assignmentId=358010RM5FFZ4IO24OHEJZ2BS4HVXO&a=M1857&tp_a=M1857&b=358010RM5FFZ4IO24OHEJZ2BS4HVXO&tp_b=358010RM5FFZ4IO24OHEJZ2BS4HVXO&c=365717&tp_c=365717","firstResponseHeads":1,"firstResponseTails":0,"secondResponseHeads":1,"secondResponseTails":0,"totalHeads":2,"totalTails":0,"studentIndex":21,"studentTrueHypers":{"a":1,"b":4},"studentGuess":0.42857142857142855,"delta":0.3714285714285715,"bonus":0,"bonusSoFar":3.91,"totalExamples":2},{"rt":3616,"response":{"heads":"0","tails":"1"},"type":"response","condition":"seqFeedback","trueTheta":0.2,"classrooms":["A","B"],"studentTrueClassroom":"A","exampleSet":"first","trial_type":"survey-html-form","trial_index":190,"time_elapsed":1547117,"internal_node_id":"0.0-172.0-0.0","params":{"nStudents":24,"maxFlips":30,"completionMinutes":45,"basePay":8,"maxBonus":9,"perTrialBonus":0.5,"perTrialBonusThreshold":0.05,"exampleCost":0.01},"classroomParams":{"A":{"a":1,"b":4},"B":{"a":4,"b":1},"C":{"a":2,"b":8},"D":{"a":8,"b":2}},"conditions":["nonSeqFull","nonSeqPartial","seqNoFeedback","seqFeedback"],"classroomPairings":[["A","B"],["C","D"]],"coinWeights":[0.2,0.5,0.8],"subjectId":"A2PQDK3MLDFXYM","assignmentId":"358010RM5FFZ4IO24OHEJZ2BS4HVXO","hitId":"3FJ2RVH25ZSYKBA8MWMNC8NVPF629N","url":"https://gershmanlab.com/experiments/alicia/teaching/experiment/?hitId=3FJ2RVH25ZSYKBA8MWMNC8NVPF629N&workerId=A2PQDK3MLDFXYM&assignmentId=358010RM5FFZ4IO24OHEJZ2BS4HVXO&a=M1857&tp_a=M1857&b=358010RM5FFZ4IO24OHEJZ2BS4HVXO&tp_b=358010RM5FFZ4IO24OHEJZ2BS4HVXO&c=365717&tp_c=365717","heads":0,"tails":1,"studentIndex":22,"studentTrueHypers":{"a":1,"b":4},"studentGuess":0.16666666666666666,"delta":0.033333333333333354,"totalExamples":1,"bonusSoFar":3.91},{"rt":3288,"response":{"heads":"0","tails":"1"},"type":"response","condition":"seqFeedback","trueTheta":0.2,"classrooms":["A","B"],"studentTrueClassroom":"A","exampleSet":"second","trial_type":"survey-html-form","trial_index":194,"time_elapsed":1558476,"internal_node_id":"0.0-176.0-0.0","params":{"nStudents":24,"maxFlips":30,"completionMinutes":45,"basePay":8,"maxBonus":9,"perTrialBonus":0.5,"perTrialBonusThreshold":0.05,"exampleCost":0.01},"classroomParams":{"A":{"a":1,"b":4},"B":{"a":4,"b":1},"C":{"a":2,"b":8},"D":{"a":8,"b":2}},"conditions":["nonSeqFull","nonSeqPartial","seqNoFeedback","seqFeedback"],"classroomPairings":[["A","B"],["C","D"]],"coinWeights":[0.2,0.5,0.8],"subjectId":"A2PQDK3MLDFXYM","assignmentId":"358010RM5FFZ4IO24OHEJZ2BS4HVXO","hitId":"3FJ2RVH25ZSYKBA8MWMNC8NVPF629N","url":"https://gershmanlab.com/experiments/alicia/teaching/experiment/?hitId=3FJ2RVH25ZSYKBA8MWMNC8NVPF629N&workerId=A2PQDK3MLDFXYM&assignmentId=358010RM5FFZ4IO24OHEJZ2BS4HVXO&a=M1857&tp_a=M1857&b=358010RM5FFZ4IO24OHEJZ2BS4HVXO&tp_b=358010RM5FFZ4IO24OHEJZ2BS4HVXO&c=365717&tp_c=365717","firstResponseHeads":0,"firstResponseTails":1,"secondResponseHeads":0,"secondResponseTails":1,"totalHeads":0,"totalTails":2,"studentIndex":22,"studentTrueHypers":{"a":1,"b":4},"studentGuess":0.14285714285714285,"delta":0.05714285714285716,"bonus":0,"bonusSoFar":3.91,"totalExamples":2},{"rt":4575,"response":{"heads":"0","tails":"1"},"type":"response","condition":"seqFeedback","trueTheta":0.5,"classrooms":["A","B"],"studentTrueClassroom":"A","exampleSet":"first","trial_type":"survey-html-form","trial_index":200,"time_elapsed":1581236,"internal_node_id":"0.0-182.0-0.0","params":{"nStudents":24,"maxFlips":30,"completionMinutes":45,"basePay":8,"maxBonus":9,"perTrialBonus":0.5,"perTrialBonusThreshold":0.05,"exampleCost":0.01},"classroomParams":{"A":{"a":1,"b":4},"B":{"a":4,"b":1},"C":{"a":2,"b":8},"D":{"a":8,"b":2}},"conditions":["nonSeqFull","nonSeqPartial","seqNoFeedback","seqFeedback"],"classroomPairings":[["A","B"],["C","D"]],"coinWeights":[0.2,0.5,0.8],"subjectId":"A2PQDK3MLDFXYM","assignmentId":"358010RM5FFZ4IO24OHEJZ2BS4HVXO","hitId":"3FJ2RVH25ZSYKBA8MWMNC8NVPF629N","url":"https://gershmanlab.com/experiments/alicia/teaching/experiment/?hitId=3FJ2RVH25ZSYKBA8MWMNC8NVPF629N&workerId=A2PQDK3MLDFXYM&assignmentId=358010RM5FFZ4IO24OHEJZ2BS4HVXO&a=M1857&tp_a=M1857&b=358010RM5FFZ4IO24OHEJZ2BS4HVXO&tp_b=358010RM5FFZ4IO24OHEJZ2BS4HVXO&c=365717&tp_c=365717","heads":0,"tails":1,"studentIndex":23,"studentTrueHypers":{"a":1,"b":4},"studentGuess":0.16666666666666666,"delta":0.33333333333333337,"totalExamples":1,"bonusSoFar":3.91},{"rt":2784,"response":{"heads":"1","tails":"0"},"type":"response","condition":"seqFeedback","trueTheta":0.5,"classrooms":["A","B"],"studentTrueClassroom":"A","exampleSet":"second","trial_type":"survey-html-form","trial_index":204,"time_elapsed":1594067,"internal_node_id":"0.0-186.0-0.0","params":{"nStudents":24,"maxFlips":30,"completionMinutes":45,"basePay":8,"maxBonus":9,"perTrialBonus":0.5,"perTrialBonusThreshold":0.05,"exampleCost":0.01},"classroomParams":{"A":{"a":1,"b":4},"B":{"a":4,"b":1},"C":{"a":2,"b":8},"D":{"a":8,"b":2}},"conditions":["nonSeqFull","nonSeqPartial","seqNoFeedback","seqFeedback"],"classroomPairings":[["A","B"],["C","D"]],"coinWeights":[0.2,0.5,0.8],"subjectId":"A2PQDK3MLDFXYM","assignmentId":"358010RM5FFZ4IO24OHEJZ2BS4HVXO","hitId":"3FJ2RVH25ZSYKBA8MWMNC8NVPF629N","url":"https://gershmanlab.com/experiments/alicia/teaching/experiment/?hitId=3FJ2RVH25ZSYKBA8MWMNC8NVPF629N&workerId=A2PQDK3MLDFXYM&assignmentId=358010RM5FFZ4IO24OHEJZ2BS4HVXO&a=M1857&tp_a=M1857&b=358010RM5FFZ4IO24OHEJZ2BS4HVXO&tp_b=358010RM5FFZ4IO24OHEJZ2BS4HVXO&c=365717&tp_c=365717","firstResponseHeads":0,"firstResponseTails":1,"secondResponseHeads":1,"secondResponseTails":0,"totalHeads":1,"totalTails":1,"studentIndex":23,"studentTrueHypers":{"a":1,"b":4},"studentGuess":0.2857142857142857,"delta":0.2142857142857143,"bonus":0,"bonusSoFar":3.91,"totalExamples":2},{"rt":15551,"response":{"gender":"female","age":"29","understood":"yes","comments":""},"type":"response","trial_type":"survey-html-form","trial_index":208,"time_elapsed":1617011,"internal_node_id":"0.0-191.0","params":{"nStudents":24,"maxFlips":30,"completionMinutes":45,"basePay":8,"maxBonus":9,"perTrialBonus":0.5,"perTrialBonusThreshold":0.05,"exampleCost":0.01},"classroomParams":{"A":{"a":1,"b":4},"B":{"a":4,"b":1},"C":{"a":2,"b":8},"D":{"a":8,"b":2}},"conditions":["nonSeqFull","nonSeqPartial","seqNoFeedback","seqFeedback"],"classroomPairings":[["A","B"],["C","D"]],"coinWeights":[0.2,0.5,0.8],"subjectId":"A2PQDK3MLDFXYM","assignmentId":"358010RM5FFZ4IO24OHEJZ2BS4HVXO","hitId":"3FJ2RVH25ZSYKBA8MWMNC8NVPF629N","url":"https://gershmanlab.com/experiments/alicia/teaching/experiment/?hitId=3FJ2RVH25ZSYKBA8MWMNC8NVPF629N&workerId=A2PQDK3MLDFXYM&assignmentId=358010RM5FFZ4IO24OHEJZ2BS4HVXO&a=M1857&tp_a=M1857&b=358010RM5FFZ4IO24OHEJZ2BS4HVXO&tp_b=358010RM5FFZ4IO24OHEJZ2BS4HVXO&c=365717&tp_c=365717","totalBonus":3.91}]