[{"rt":18683,"response":{"heads":"1","tails":"0"},"type":"response","condition":"seqFeedback","trueTheta":0.2,"classrooms":["A","B"],"studentTrueClassroom":"B","exampleSet":"first","trial_type":"survey-html-form","trial_index":7,"time_elapsed":110861,"internal_node_id":"0.0-6.0-0.0","params":{"nStudents":24,"maxFlips":30,"completionMinutes":45,"basePay":8,"maxBonus":9,"perTrialBonus":0.5,"perTrialBonusThreshold":0.05,"exampleCost":0.01},"classroomParams":{"A":{"a":1,"b":4},"B":{"a":4,"b":1},"C":{"a":2,"b":8},"D":{"a":8,"b":2}},"conditions":["nonSeqFull","nonSeqPartial","seqNoFeedback","seqFeedback"],"classroomPairings":[["A","B"],["C","D"]],"coinWeights":[0.2,0.5,0.8],"subjectId":"A2TLN8489YGY81","assignmentId":"3LJ7UR74RIZVYBRJIMTIC7B0D7W4NP","hitId":"3SD15I2WD2G0NA4TSPXGB81L5S7630","url":"https://gershmanlab.com/experiments/alicia/teaching/experiment/?hitId=3SD15I2WD2G0NA4TSPXGB81L5S7630&workerId=A2TLN8489YGY81&assignmentId=3LJ7UR74RIZVYBRJIMTIC7B0D7W4NP&a=4UJL9&tp_a=4UJL9&b=3LJ7UR74RIZVYBRJIMTIC7B0D7W4NP&tp_b=3LJ7UR74RIZVYBRJIMTIC7B0D7W4NP&c=365799&tp_c=365799","heads":1,"tails":0,"studentIndex":0,"studentTrueHypers":{"a":4,"b":1},"studentGuess":0.8333333333333334,"delta":0.6333333333333333,"totalExamples":1,"bonusSoFar":0},{"rt":49094,"response":{"heads":"0","tails":"14"},"type":"response","condition":"seqFeedback","trueTheta":0.2,"classrooms":["A","B"],"studentTrueClassroom":"B","exampleSet":"second","trial_type":"survey-html-form","trial_index":11,"time_elapsed":175239,"internal_node_id":"0.0-10.0-0.0","params":{"nStudents":24,"maxFlips":30,"completionMinutes":45,"basePay":8,"maxBonus":9,"perTrialBonus":0.5,"perTrialBonusThreshold":0.05,"exampleCost":0.01},"classroomParams":{"A":{"a":1,"b":4},"B":{"a":4,"b":1},"C":{"a":2,"b":8},"D":{"a":8,"b":2}},"conditions":["nonSeqFull","nonSeqPartial","seqNoFeedback","seqFeedback"],"classroomPairings":[["A","B"],["C","D"]],"coinWeights":[0.2,0.5,0.8],"subjectId":"A2TLN8489YGY81","assignmentId":"3LJ7UR74RIZVYBRJIMTIC7B0D7W4NP","hitId":"3SD15I2WD2G0NA4TSPXGB81L5S7630","url":"https://gershmanlab.com/experiments/alicia/teaching/experiment/?hitId=3SD15I2WD2G0NA4TSPXGB81L5S7630&workerId=A2TLN8489YGY81&assignmentId=3LJ7UR74RIZVYBRJIMTIC7B0D7W4NP&a=4UJL9&tp_a=4UJL9&b=3LJ7UR74RIZVYBRJIMTIC7B0D7W4NP&tp_b=3LJ7UR74RIZVYBRJIMTIC7B0D7W4NP&c=365799&tp_c=365799","firstResponseHeads":1,"firstResponseTails":0,"secondResponseHeads":0,"secondResponseTails":14,"totalHeads":1,"totalTails":14,"studentIndex":0,"studentTrueHypers":{"a":4,"b":1},"studentGuess":0.25,"delta":0.04999999999999999,"bonus":0.35,"bonusSoFar":0.35,"totalExamples":15},{"rt":46868,"response":{"heads":"0","tails":"22"},"type":"response","condition":"nonSeqFull","trueTheta":0.2,"classrooms":["C","D"],"studentTrueClassroom":"D","exampleSet":"first","trial_type":"survey-html-form","trial_index":17,"time_elapsed":238870,"internal_node_id":"0.0-16.0-0.0","params":{"nStudents":24,"maxFlips":30,"completionMinutes":45,"basePay":8,"maxBonus":9,"perTrialBonus":0.5,"perTrialBonusThreshold":0.05,"exampleCost":0.01},"classroomParams":{"A":{"a":1,"b":4},"B":{"a":4,"b":1},"C":{"a":2,"b":8},"D":{"a":8,"b":2}},"conditions":["nonSeqFull","nonSeqPartial","seqNoFeedback","seqFeedback"],"classroomPairings":[["A","B"],["C","D"]],"coinWeights":[0.2,0.5,0.8],"subjectId":"A2TLN8489YGY81","assignmentId":"3LJ7UR74RIZVYBRJIMTIC7B0D7W4NP","hitId":"3SD15I2WD2G0NA4TSPXGB81L5S7630","url":"https://gershmanlab.com/experiments/alicia/teaching/experiment/?hitId=3SD15I2WD2G0NA4TSPXGB81L5S7630&workerId=A2TLN8489YGY81&assignmentId=3LJ7UR74RIZVYBRJIMTIC7B0D7W4NP&a=4UJL9&tp_a=4UJL9&b=3LJ7UR74RIZVYBRJIMTIC7B0D7W4NP&tp_b=3LJ7UR74RIZVYBRJIMTIC7B0D7W4NP&c=365799&tp_c=365799","heads":0,"tails":22,"studentIndex":1,"studentTrueHypers":{"a":8,"b":2},"studentGuess":0.25,"delta":0.04999999999999999,"totalExamples":22,"bonus":0.28,"bonusSoFar":0.63},{"rt":6872,"response":{"heads":"0","tails":"0"},"type":"response","condition":"nonSeqPartial","trueTheta":0.5,"classrooms":["C","D"],"studentTrueClassroom":"D","exampleSet":"first","trial_type":"survey-html-form","trial_index":23,"time_elapsed":263757,"internal_node_id":"0.0-22.0-0.0","params":{"nStudents":24,"maxFlips":30,"completionMinutes":45,"basePay":8,"maxBonus":9,"perTrialBonus":0.5,"perTrialBonusThreshold":0.05,"exampleCost":0.01},"classroomParams":{"A":{"a":1,"b":4},"B":{"a":4,"b":1},"C":{"a":2,"b":8},"D":{"a":8,"b":2}},"conditions":["nonSeqFull","nonSeqPartial","seqNoFeedback","seqFeedback"],"classroomPairings":[["A","B"],["C","D"]],"coinWeights":[0.2,0.5,0.8],"subjectId":"A2TLN8489YGY81","assignmentId":"3LJ7UR74RIZVYBRJIMTIC7B0D7W4NP","hitId":"3SD15I2WD2G0NA4TSPXGB81L5S7630","url":"https://gershmanlab.com/experiments/alicia/teaching/experiment/?hitId=3SD15I2WD2G0NA4TSPXGB81L5S7630&workerId=A2TLN8489YGY81&assignmentId=3LJ7UR74RIZVYBRJIMTIC7B0D7W4NP&a=4UJL9&tp_a=4UJL9&b=3LJ7UR74RIZVYBRJIMTIC7B0D7W4NP&tp_b=3LJ7UR74RIZVYBRJIMTIC7B0D7W4NP&c=365799&tp_c=365799","heads":0,"tails":0,"studentIndex":2,"studentTrueHypers":{"a":8,"b":2},"studentGuess":0.8,"delta":0.30000000000000004,"totalExamples":0,"bonus":0,"bonusSoFar":0.63},{"rt":3388,"response":{"heads":"1","tails":"0"},"type":"response","condition":"nonSeqPartial","trueTheta":0.5,"classrooms":["C","D"],"studentTrueClassroom":"D","exampleSet":"first","trial_type":"survey-html-form","trial_index":24,"time_elapsed":267147,"internal_node_id":"0.0-22.1-0.1","params":{"nStudents":24,"maxFlips":30,"completionMinutes":45,"basePay":8,"maxBonus":9,"perTrialBonus":0.5,"perTrialBonusThreshold":0.05,"exampleCost":0.01},"classroomParams":{"A":{"a":1,"b":4},"B":{"a":4,"b":1},"C":{"a":2,"b":8},"D":{"a":8,"b":2}},"conditions":["nonSeqFull","nonSeqPartial","seqNoFeedback","seqFeedback"],"classroomPairings":[["A","B"],["C","D"]],"coinWeights":[0.2,0.5,0.8],"subjectId":"A2TLN8489YGY81","assignmentId":"3LJ7UR74RIZVYBRJIMTIC7B0D7W4NP","hitId":"3SD15I2WD2G0NA4TSPXGB81L5S7630","url":"https://gershmanlab.com/experiments/alicia/teaching/experiment/?hitId=3SD15I2WD2G0NA4TSPXGB81L5S7630&workerId=A2TLN8489YGY81&assignmentId=3LJ7UR74RIZVYBRJIMTIC7B0D7W4NP&a=4UJL9&tp_a=4UJL9&b=3LJ7UR74RIZVYBRJIMTIC7B0D7W4NP&tp_b=3LJ7UR74RIZVYBRJIMTIC7B0D7W4NP&c=365799&tp_c=365799","heads":1,"tails":0,"studentIndex":2,"studentTrueHypers":{"a":8,"b":2},"studentGuess":0.8181818181818182,"delta":0.31818181818181823,"totalExamples":1,"bonus":0,"bonusSoFar":0.63},{"rt":17307,"response":{"heads":"3","tails":"0"},"type":"response","condition":"seqFeedback","trueTheta":0.5,"classrooms":["A","B"],"studentTrueClassroom":"A","exampleSet":"first","trial_type":"survey-html-form","trial_index":30,"time_elapsed":304602,"internal_node_id":"0.0-28.0-0.0","params":{"nStudents":24,"maxFlips":30,"completionMinutes":45,"basePay":8,"maxBonus":9,"perTrialBonus":0.5,"perTrialBonusThreshold":0.05,"exampleCost":0.01},"classroomParams":{"A":{"a":1,"b":4},"B":{"a":4,"b":1},"C":{"a":2,"b":8},"D":{"a":8,"b":2}},"conditions":["nonSeqFull","nonSeqPartial","seqNoFeedback","seqFeedback"],"classroomPairings":[["A","B"],["C","D"]],"coinWeights":[0.2,0.5,0.8],"subjectId":"A2TLN8489YGY81","assignmentId":"3LJ7UR74RIZVYBRJIMTIC7B0D7W4NP","hitId":"3SD15I2WD2G0NA4TSPXGB81L5S7630","url":"https://gershmanlab.com/experiments/alicia/teaching/experiment/?hitId=3SD15I2WD2G0NA4TSPXGB81L5S7630&workerId=A2TLN8489YGY81&assignmentId=3LJ7UR74RIZVYBRJIMTIC7B0D7W4NP&a=4UJL9&tp_a=4UJL9&b=3LJ7UR74RIZVYBRJIMTIC7B0D7W4NP&tp_b=3LJ7UR74RIZVYBRJIMTIC7B0D7W4NP&c=365799&tp_c=365799","heads":3,"tails":0,"studentIndex":3,"studentTrueHypers":{"a":1,"b":4},"studentGuess":0.5,"delta":0,"totalExamples":3,"bonusSoFar":0.63},{"rt":9421,"response":{"heads":"1","tails":"1"},"type":"response","condition":"seqFeedback","trueTheta":0.5,"classrooms":["A","B"],"studentTrueClassroom":"A","exampleSet":"second","trial_type":"survey-html-form","trial_index":34,"time_elapsed":323902,"internal_node_id":"0.0-32.0-0.0","params":{"nStudents":24,"maxFlips":30,"completionMinutes":45,"basePay":8,"maxBonus":9,"perTrialBonus":0.5,"perTrialBonusThreshold":0.05,"exampleCost":0.01},"classroomParams":{"A":{"a":1,"b":4},"B":{"a":4,"b":1},"C":{"a":2,"b":8},"D":{"a":8,"b":2}},"conditions":["nonSeqFull","nonSeqPartial","seqNoFeedback","seqFeedback"],"classroomPairings":[["A","B"],["C","D"]],"coinWeights":[0.2,0.5,0.8],"subjectId":"A2TLN8489YGY81","assignmentId":"3LJ7UR74RIZVYBRJIMTIC7B0D7W4NP","hitId":"3SD15I2WD2G0NA4TSPXGB81L5S7630","url":"https://gershmanlab.com/experiments/alicia/teaching/experiment/?hitId=3SD15I2WD2G0NA4TSPXGB81L5S7630&workerId=A2TLN8489YGY81&assignmentId=3LJ7UR74RIZVYBRJIMTIC7B0D7W4NP&a=4UJL9&tp_a=4UJL9&b=3LJ7UR74RIZVYBRJIMTIC7B0D7W4NP&tp_b=3LJ7UR74RIZVYBRJIMTIC7B0D7W4NP&c=365799&tp_c=365799","firstResponseHeads":3,"firstResponseTails":0,"secondResponseHeads":1,"secondResponseTails":1,"totalHeads":4,"totalTails":1,"studentIndex":3,"studentTrueHypers":{"a":1,"b":4},"studentGuess":0.5,"delta":0,"bonus":0.45,"bonusSoFar":1.08,"totalExamples":5},{"rt":6837,"response":{"heads":"1","tails":"0"},"type":"response","condition":"seqNoFeedback","trueTheta":0.2,"classrooms":["A","B"],"studentTrueClassroom":"B","exampleSet":"first","trial_type":"survey-html-form","trial_index":40,"time_elapsed":359256,"internal_node_id":"0.0-38.0-0.0","params":{"nStudents":24,"maxFlips":30,"completionMinutes":45,"basePay":8,"maxBonus":9,"perTrialBonus":0.5,"perTrialBonusThreshold":0.05,"exampleCost":0.01},"classroomParams":{"A":{"a":1,"b":4},"B":{"a":4,"b":1},"C":{"a":2,"b":8},"D":{"a":8,"b":2}},"conditions":["nonSeqFull","nonSeqPartial","seqNoFeedback","seqFeedback"],"classroomPairings":[["A","B"],["C","D"]],"coinWeights":[0.2,0.5,0.8],"subjectId":"A2TLN8489YGY81","assignmentId":"3LJ7UR74RIZVYBRJIMTIC7B0D7W4NP","hitId":"3SD15I2WD2G0NA4TSPXGB81L5S7630","url":"https://gershmanlab.com/experiments/alicia/teaching/experiment/?hitId=3SD15I2WD2G0NA4TSPXGB81L5S7630&workerId=A2TLN8489YGY81&assignmentId=3LJ7UR74RIZVYBRJIMTIC7B0D7W4NP&a=4UJL9&tp_a=4UJL9&b=3LJ7UR74RIZVYBRJIMTIC7B0D7W4NP&tp_b=3LJ7UR74RIZVYBRJIMTIC7B0D7W4NP&c=365799&tp_c=365799","heads":1,"tails":0,"studentIndex":4,"studentTrueHypers":{"a":4,"b":1},"studentGuess":0.8333333333333334,"delta":0.6333333333333333,"totalExamples":1,"bonusSoFar":1.08},{"rt":4466,"response":{"heads":"2","tails":"0"},"type":"response","condition":"seqNoFeedback","trueTheta":0.2,"classrooms":["A","B"],"studentTrueClassroom":"B","exampleSet":"second","trial_type":"survey-html-form","trial_index":43,"time_elapsed":369480,"internal_node_id":"0.0-41.0-0.0","params":{"nStudents":24,"maxFlips":30,"completionMinutes":45,"basePay":8,"maxBonus":9,"perTrialBonus":0.5,"perTrialBonusThreshold":0.05,"exampleCost":0.01},"classroomParams":{"A":{"a":1,"b":4},"B":{"a":4,"b":1},"C":{"a":2,"b":8},"D":{"a":8,"b":2}},"conditions":["nonSeqFull","nonSeqPartial","seqNoFeedback","seqFeedback"],"classroomPairings":[["A","B"],["C","D"]],"coinWeights":[0.2,0.5,0.8],"subjectId":"A2TLN8489YGY81","assignmentId":"3LJ7UR74RIZVYBRJIMTIC7B0D7W4NP","hitId":"3SD15I2WD2G0NA4TSPXGB81L5S7630","url":"https://gershmanlab.com/experiments/alicia/teaching/experiment/?hitId=3SD15I2WD2G0NA4TSPXGB81L5S7630&workerId=A2TLN8489YGY81&assignmentId=3LJ7UR74RIZVYBRJIMTIC7B0D7W4NP&a=4UJL9&tp_a=4UJL9&b=3LJ7UR74RIZVYBRJIMTIC7B0D7W4NP&tp_b=3LJ7UR74RIZVYBRJIMTIC7B0D7W4NP&c=365799&tp_c=365799","firstResponseHeads":1,"firstResponseTails":0,"secondResponseHeads":2,"secondResponseTails":0,"totalHeads":3,"totalTails":0,"studentIndex":4,"studentTrueHypers":{"a":4,"b":1},"studentGuess":0.875,"delta":0.675,"bonus":0,"bonusSoFar":1.08,"totalExamples":3},{"rt":14929,"response":{"heads":"0","tails":"0"},"type":"response","condition":"seqFeedback","trueTheta":0.8,"classrooms":["C","D"],"studentTrueClassroom":"D","exampleSet":"first","trial_type":"survey-html-form","trial_index":49,"time_elapsed":398493,"internal_node_id":"0.0-47.0-0.0","params":{"nStudents":24,"maxFlips":30,"completionMinutes":45,"basePay":8,"maxBonus":9,"perTrialBonus":0.5,"perTrialBonusThreshold":0.05,"exampleCost":0.01},"classroomParams":{"A":{"a":1,"b":4},"B":{"a":4,"b":1},"C":{"a":2,"b":8},"D":{"a":8,"b":2}},"conditions":["nonSeqFull","nonSeqPartial","seqNoFeedback","seqFeedback"],"classroomPairings":[["A","B"],["C","D"]],"coinWeights":[0.2,0.5,0.8],"subjectId":"A2TLN8489YGY81","assignmentId":"3LJ7UR74RIZVYBRJIMTIC7B0D7W4NP","hitId":"3SD15I2WD2G0NA4TSPXGB81L5S7630","url":"https://gershmanlab.com/experiments/alicia/teaching/experiment/?hitId=3SD15I2WD2G0NA4TSPXGB81L5S7630&workerId=A2TLN8489YGY81&assignmentId=3LJ7UR74RIZVYBRJIMTIC7B0D7W4NP&a=4UJL9&tp_a=4UJL9&b=3LJ7UR74RIZVYBRJIMTIC7B0D7W4NP&tp_b=3LJ7UR74RIZVYBRJIMTIC7B0D7W4NP&c=365799&tp_c=365799","heads":0,"tails":0,"studentIndex":5,"studentTrueHypers":{"a":8,"b":2},"studentGuess":0.8,"delta":0,"totalExamples":0,"bonusSoFar":1.08},{"rt":1003,"response":{"heads":"0","tails":"0"},"type":"response","condition":"seqFeedback","trueTheta":0.8,"classrooms":["C","D"],"studentTrueClassroom":"D","exampleSet":"first","trial_type":"survey-html-form","trial_index":50,"time_elapsed":399497,"internal_node_id":"0.0-47.1-0.1","params":{"nStudents":24,"maxFlips":30,"completionMinutes":45,"basePay":8,"maxBonus":9,"perTrialBonus":0.5,"perTrialBonusThreshold":0.05,"exampleCost":0.01},"classroomParams":{"A":{"a":1,"b":4},"B":{"a":4,"b":1},"C":{"a":2,"b":8},"D":{"a":8,"b":2}},"conditions":["nonSeqFull","nonSeqPartial","seqNoFeedback","seqFeedback"],"classroomPairings":[["A","B"],["C","D"]],"coinWeights":[0.2,0.5,0.8],"subjectId":"A2TLN8489YGY81","assignmentId":"3LJ7UR74RIZVYBRJIMTIC7B0D7W4NP","hitId":"3SD15I2WD2G0NA4TSPXGB81L5S7630","url":"https://gershmanlab.com/experiments/alicia/teaching/experiment/?hitId=3SD15I2WD2G0NA4TSPXGB81L5S7630&workerId=A2TLN8489YGY81&assignmentId=3LJ7UR74RIZVYBRJIMTIC7B0D7W4NP&a=4UJL9&tp_a=4UJL9&b=3LJ7UR74RIZVYBRJIMTIC7B0D7W4NP&tp_b=3LJ7UR74RIZVYBRJIMTIC7B0D7W4NP&c=365799&tp_c=365799","heads":0,"tails":0,"studentIndex":5,"studentTrueHypers":{"a":8,"b":2},"studentGuess":0.8,"delta":0,"totalExamples":0,"bonusSoFar":1.08},{"rt":1768,"response":{"heads":"1","tails":"0"},"type":"response","condition":"seqFeedback","trueTheta":0.8,"classrooms":["C","D"],"studentTrueClassroom":"D","exampleSet":"first","trial_type":"survey-html-form","trial_index":51,"time_elapsed":401266,"internal_node_id":"0.0-47.2-0.2","params":{"nStudents":24,"maxFlips":30,"completionMinutes":45,"basePay":8,"maxBonus":9,"perTrialBonus":0.5,"perTrialBonusThreshold":0.05,"exampleCost":0.01},"classroomParams":{"A":{"a":1,"b":4},"B":{"a":4,"b":1},"C":{"a":2,"b":8},"D":{"a":8,"b":2}},"conditions":["nonSeqFull","nonSeqPartial","seqNoFeedback","seqFeedback"],"classroomPairings":[["A","B"],["C","D"]],"coinWeights":[0.2,0.5,0.8],"subjectId":"A2TLN8489YGY81","assignmentId":"3LJ7UR74RIZVYBRJIMTIC7B0D7W4NP","hitId":"3SD15I2WD2G0NA4TSPXGB81L5S7630","url":"https://gershmanlab.com/experiments/alicia/teaching/experiment/?hitId=3SD15I2WD2G0NA4TSPXGB81L5S7630&workerId=A2TLN8489YGY81&assignmentId=3LJ7UR74RIZVYBRJIMTIC7B0D7W4NP&a=4UJL9&tp_a=4UJL9&b=3LJ7UR74RIZVYBRJIMTIC7B0D7W4NP&tp_b=3LJ7UR74RIZVYBRJIMTIC7B0D7W4NP&c=365799&tp_c=365799","heads":1,"tails":0,"studentIndex":5,"studentTrueHypers":{"a":8,"b":2},"studentGuess":0.8181818181818182,"delta":0.018181818181818188,"totalExamples":1,"bonusSoFar":1.08},{"rt":4156,"response":{"heads":"1","tails":"0"},"type":"response","condition":"seqFeedback","trueTheta":0.8,"classrooms":["C","D"],"studentTrueClassroom":"D","exampleSet":"second","trial_type":"survey-html-form","trial_index":55,"time_elapsed":414270,"internal_node_id":"0.0-51.0-0.0","params":{"nStudents":24,"maxFlips":30,"completionMinutes":45,"basePay":8,"maxBonus":9,"perTrialBonus":0.5,"perTrialBonusThreshold":0.05,"exampleCost":0.01},"classroomParams":{"A":{"a":1,"b":4},"B":{"a":4,"b":1},"C":{"a":2,"b":8},"D":{"a":8,"b":2}},"conditions":["nonSeqFull","nonSeqPartial","seqNoFeedback","seqFeedback"],"classroomPairings":[["A","B"],["C","D"]],"coinWeights":[0.2,0.5,0.8],"subjectId":"A2TLN8489YGY81","assignmentId":"3LJ7UR74RIZVYBRJIMTIC7B0D7W4NP","hitId":"3SD15I2WD2G0NA4TSPXGB81L5S7630","url":"https://gershmanlab.com/experiments/alicia/teaching/experiment/?hitId=3SD15I2WD2G0NA4TSPXGB81L5S7630&workerId=A2TLN8489YGY81&assignmentId=3LJ7UR74RIZVYBRJIMTIC7B0D7W4NP&a=4UJL9&tp_a=4UJL9&b=3LJ7UR74RIZVYBRJIMTIC7B0D7W4NP&tp_b=3LJ7UR74RIZVYBRJIMTIC7B0D7W4NP&c=365799&tp_c=365799","firstResponseHeads":0,"firstResponseTails":0,"secondResponseHeads":1,"secondResponseTails":0,"totalHeads":1,"totalTails":0,"studentIndex":5,"studentTrueHypers":{"a":8,"b":2},"studentGuess":0.8181818181818182,"delta":0.018181818181818188,"bonus":0.49,"bonusSoFar":1.57,"totalExamples":1},{"rt":10194,"response":{"heads":"3","tails":"0"},"type":"response","condition":"nonSeqFull","trueTheta":0.5,"classrooms":["A","B"],"studentTrueClassroom":"A","exampleSet":"first","trial_type":"survey-html-form","trial_index":61,"time_elapsed":445556,"internal_node_id":"0.0-57.0-0.0","params":{"nStudents":24,"maxFlips":30,"completionMinutes":45,"basePay":8,"maxBonus":9,"perTrialBonus":0.5,"perTrialBonusThreshold":0.05,"exampleCost":0.01},"classroomParams":{"A":{"a":1,"b":4},"B":{"a":4,"b":1},"C":{"a":2,"b":8},"D":{"a":8,"b":2}},"conditions":["nonSeqFull","nonSeqPartial","seqNoFeedback","seqFeedback"],"classroomPairings":[["A","B"],["C","D"]],"coinWeights":[0.2,0.5,0.8],"subjectId":"A2TLN8489YGY81","assignmentId":"3LJ7UR74RIZVYBRJIMTIC7B0D7W4NP","hitId":"3SD15I2WD2G0NA4TSPXGB81L5S7630","url":"https://gershmanlab.com/experiments/alicia/teaching/experiment/?hitId=3SD15I2WD2G0NA4TSPXGB81L5S7630&workerId=A2TLN8489YGY81&assignmentId=3LJ7UR74RIZVYBRJIMTIC7B0D7W4NP&a=4UJL9&tp_a=4UJL9&b=3LJ7UR74RIZVYBRJIMTIC7B0D7W4NP&tp_b=3LJ7UR74RIZVYBRJIMTIC7B0D7W4NP&c=365799&tp_c=365799","heads":3,"tails":0,"studentIndex":6,"studentTrueHypers":{"a":1,"b":4},"studentGuess":0.5,"delta":0,"totalExamples":3,"bonus":0.47,"bonusSoFar":2.04},{"rt":15771,"response":{"heads":"5","tails":"0"},"type":"response","condition":"seqFeedback","trueTheta":0.5,"classrooms":["C","D"],"studentTrueClassroom":"C","exampleSet":"first","trial_type":"survey-html-form","trial_index":67,"time_elapsed":478267,"internal_node_id":"0.0-63.0-0.0","params":{"nStudents":24,"maxFlips":30,"completionMinutes":45,"basePay":8,"maxBonus":9,"perTrialBonus":0.5,"perTrialBonusThreshold":0.05,"exampleCost":0.01},"classroomParams":{"A":{"a":1,"b":4},"B":{"a":4,"b":1},"C":{"a":2,"b":8},"D":{"a":8,"b":2}},"conditions":["nonSeqFull","nonSeqPartial","seqNoFeedback","seqFeedback"],"classroomPairings":[["A","B"],["C","D"]],"coinWeights":[0.2,0.5,0.8],"subjectId":"A2TLN8489YGY81","assignmentId":"3LJ7UR74RIZVYBRJIMTIC7B0D7W4NP","hitId":"3SD15I2WD2G0NA4TSPXGB81L5S7630","url":"https://gershmanlab.com/experiments/alicia/teaching/experiment/?hitId=3SD15I2WD2G0NA4TSPXGB81L5S7630&workerId=A2TLN8489YGY81&assignmentId=3LJ7UR74RIZVYBRJIMTIC7B0D7W4NP&a=4UJL9&tp_a=4UJL9&b=3LJ7UR74RIZVYBRJIMTIC7B0D7W4NP&tp_b=3LJ7UR74RIZVYBRJIMTIC7B0D7W4NP&c=365799&tp_c=365799","heads":5,"tails":0,"studentIndex":7,"studentTrueHypers":{"a":2,"b":8},"studentGuess":0.4666666666666667,"delta":0.033333333333333326,"totalExamples":5,"bonusSoFar":2.04},{"rt":2946,"response":{"heads":"1","tails":"0"},"type":"response","condition":"seqFeedback","trueTheta":0.5,"classrooms":["C","D"],"studentTrueClassroom":"C","exampleSet":"second","trial_type":"survey-html-form","trial_index":71,"time_elapsed":491382,"internal_node_id":"0.0-67.0-0.0","params":{"nStudents":24,"maxFlips":30,"completionMinutes":45,"basePay":8,"maxBonus":9,"perTrialBonus":0.5,"perTrialBonusThreshold":0.05,"exampleCost":0.01},"classroomParams":{"A":{"a":1,"b":4},"B":{"a":4,"b":1},"C":{"a":2,"b":8},"D":{"a":8,"b":2}},"conditions":["nonSeqFull","nonSeqPartial","seqNoFeedback","seqFeedback"],"classroomPairings":[["A","B"],["C","D"]],"coinWeights":[0.2,0.5,0.8],"subjectId":"A2TLN8489YGY81","assignmentId":"3LJ7UR74RIZVYBRJIMTIC7B0D7W4NP","hitId":"3SD15I2WD2G0NA4TSPXGB81L5S7630","url":"https://gershmanlab.com/experiments/alicia/teaching/experiment/?hitId=3SD15I2WD2G0NA4TSPXGB81L5S7630&workerId=A2TLN8489YGY81&assignmentId=3LJ7UR74RIZVYBRJIMTIC7B0D7W4NP&a=4UJL9&tp_a=4UJL9&b=3LJ7UR74RIZVYBRJIMTIC7B0D7W4NP&tp_b=3LJ7UR74RIZVYBRJIMTIC7B0D7W4NP&c=365799&tp_c=365799","firstResponseHeads":5,"firstResponseTails":0,"secondResponseHeads":1,"secondResponseTails":0,"totalHeads":6,"totalTails":0,"studentIndex":7,"studentTrueHypers":{"a":2,"b":8},"studentGuess":0.5,"delta":0,"bonus":0.44,"bonusSoFar":2.48,"totalExamples":6},{"rt":38055,"response":{"heads":"0","tails":"1"},"type":"response","condition":"nonSeqPartial","trueTheta":0.2,"classrooms":["A","B"],"studentTrueClassroom":"A","exampleSet":"first","trial_type":"survey-html-form","trial_index":77,"time_elapsed":550462,"internal_node_id":"0.0-73.0-0.0","params":{"nStudents":24,"maxFlips":30,"completionMinutes":45,"basePay":8,"maxBonus":9,"perTrialBonus":0.5,"perTrialBonusThreshold":0.05,"exampleCost":0.01},"classroomParams":{"A":{"a":1,"b":4},"B":{"a":4,"b":1},"C":{"a":2,"b":8},"D":{"a":8,"b":2}},"conditions":["nonSeqFull","nonSeqPartial","seqNoFeedback","seqFeedback"],"classroomPairings":[["A","B"],["C","D"]],"coinWeights":[0.2,0.5,0.8],"subjectId":"A2TLN8489YGY81","assignmentId":"3LJ7UR74RIZVYBRJIMTIC7B0D7W4NP","hitId":"3SD15I2WD2G0NA4TSPXGB81L5S7630","url":"https://gershmanlab.com/experiments/alicia/teaching/experiment/?hitId=3SD15I2WD2G0NA4TSPXGB81L5S7630&workerId=A2TLN8489YGY81&assignmentId=3LJ7UR74RIZVYBRJIMTIC7B0D7W4NP&a=4UJL9&tp_a=4UJL9&b=3LJ7UR74RIZVYBRJIMTIC7B0D7W4NP&tp_b=3LJ7UR74RIZVYBRJIMTIC7B0D7W4NP&c=365799&tp_c=365799","heads":0,"tails":1,"studentIndex":8,"studentTrueHypers":{"a":1,"b":4},"studentGuess":0.16666666666666666,"delta":0.033333333333333354,"totalExamples":1,"bonus":0.49,"bonusSoFar":2.97},{"rt":8129,"response":{"heads":"1","tails":"0"},"type":"response","condition":"nonSeqFull","trueTheta":0.8,"classrooms":["C","D"],"studentTrueClassroom":"D","exampleSet":"first","trial_type":"survey-html-form","trial_index":83,"time_elapsed":577096,"internal_node_id":"0.0-79.0-0.0","params":{"nStudents":24,"maxFlips":30,"completionMinutes":45,"basePay":8,"maxBonus":9,"perTrialBonus":0.5,"perTrialBonusThreshold":0.05,"exampleCost":0.01},"classroomParams":{"A":{"a":1,"b":4},"B":{"a":4,"b":1},"C":{"a":2,"b":8},"D":{"a":8,"b":2}},"conditions":["nonSeqFull","nonSeqPartial","seqNoFeedback","seqFeedback"],"classroomPairings":[["A","B"],["C","D"]],"coinWeights":[0.2,0.5,0.8],"subjectId":"A2TLN8489YGY81","assignmentId":"3LJ7UR74RIZVYBRJIMTIC7B0D7W4NP","hitId":"3SD15I2WD2G0NA4TSPXGB81L5S7630","url":"https://gershmanlab.com/experiments/alicia/teaching/experiment/?hitId=3SD15I2WD2G0NA4TSPXGB81L5S7630&workerId=A2TLN8489YGY81&assignmentId=3LJ7UR74RIZVYBRJIMTIC7B0D7W4NP&a=4UJL9&tp_a=4UJL9&b=3LJ7UR74RIZVYBRJIMTIC7B0D7W4NP&tp_b=3LJ7UR74RIZVYBRJIMTIC7B0D7W4NP&c=365799&tp_c=365799","heads":1,"tails":0,"studentIndex":9,"studentTrueHypers":{"a":8,"b":2},"studentGuess":0.8181818181818182,"delta":0.018181818181818188,"totalExamples":1,"bonus":0.49,"bonusSoFar":3.46},{"rt":31646,"response":{"heads":"3","tails":"0"},"type":"response","condition":"seqNoFeedback","trueTheta":0.8,"classrooms":["A","B"],"studentTrueClassroom":"A","exampleSet":"first","trial_type":"survey-html-form","trial_index":89,"time_elapsed":625592,"internal_node_id":"0.0-85.0-0.0","params":{"nStudents":24,"maxFlips":30,"completionMinutes":45,"basePay":8,"maxBonus":9,"perTrialBonus":0.5,"perTrialBonusThreshold":0.05,"exampleCost":0.01},"classroomParams":{"A":{"a":1,"b":4},"B":{"a":4,"b":1},"C":{"a":2,"b":8},"D":{"a":8,"b":2}},"conditions":["nonSeqFull","nonSeqPartial","seqNoFeedback","seqFeedback"],"classroomPairings":[["A","B"],["C","D"]],"coinWeights":[0.2,0.5,0.8],"subjectId":"A2TLN8489YGY81","assignmentId":"3LJ7UR74RIZVYBRJIMTIC7B0D7W4NP","hitId":"3SD15I2WD2G0NA4TSPXGB81L5S7630","url":"https://gershmanlab.com/experiments/alicia/teaching/experiment/?hitId=3SD15I2WD2G0NA4TSPXGB81L5S7630&workerId=A2TLN8489YGY81&assignmentId=3LJ7UR74RIZVYBRJIMTIC7B0D7W4NP&a=4UJL9&tp_a=4UJL9&b=3LJ7UR74RIZVYBRJIMTIC7B0D7W4NP&tp_b=3LJ7UR74RIZVYBRJIMTIC7B0D7W4NP&c=365799&tp_c=365799","heads":3,"tails":0,"studentIndex":10,"studentTrueHypers":{"a":1,"b":4},"studentGuess":0.5,"delta":0.30000000000000004,"totalExamples":3,"bonusSoFar":3.46},{"rt":18053,"response":{"heads":"1","tails":"0"},"type":"response","condition":"seqNoFeedback","trueTheta":0.8,"classrooms":["A","B"],"studentTrueClassroom":"A","exampleSet":"second","trial_type":"survey-html-form","trial_index":92,"time_elapsed":649673,"internal_node_id":"0.0-88.0-0.0","params":{"nStudents":24,"maxFlips":30,"completionMinutes":45,"basePay":8,"maxBonus":9,"perTrialBonus":0.5,"perTrialBonusThreshold":0.05,"exampleCost":0.01},"classroomParams":{"A":{"a":1,"b":4},"B":{"a":4,"b":1},"C":{"a":2,"b":8},"D":{"a":8,"b":2}},"conditions":["nonSeqFull","nonSeqPartial","seqNoFeedback","seqFeedback"],"classroomPairings":[["A","B"],["C","D"]],"coinWeights":[0.2,0.5,0.8],"subjectId":"A2TLN8489YGY81","assignmentId":"3LJ7UR74RIZVYBRJIMTIC7B0D7W4NP","hitId":"3SD15I2WD2G0NA4TSPXGB81L5S7630","url":"https://gershmanlab.com/experiments/alicia/teaching/experiment/?hitId=3SD15I2WD2G0NA4TSPXGB81L5S7630&workerId=A2TLN8489YGY81&assignmentId=3LJ7UR74RIZVYBRJIMTIC7B0D7W4NP&a=4UJL9&tp_a=4UJL9&b=3LJ7UR74RIZVYBRJIMTIC7B0D7W4NP&tp_b=3LJ7UR74RIZVYBRJIMTIC7B0D7W4NP&c=365799&tp_c=365799","firstResponseHeads":3,"firstResponseTails":0,"secondResponseHeads":1,"secondResponseTails":0,"totalHeads":4,"totalTails":0,"studentIndex":10,"studentTrueHypers":{"a":1,"b":4},"studentGuess":0.5555555555555556,"delta":0.24444444444444446,"bonus":0,"bonusSoFar":3.46,"totalExamples":4},{"rt":15955,"response":{"heads":"0","tails":"1"},"type":"response","condition":"nonSeqPartial","trueTheta":0.2,"classrooms":["C","D"],"studentTrueClassroom":"D","exampleSet":"first","trial_type":"survey-html-form","trial_index":98,"time_elapsed":681872,"internal_node_id":"0.0-94.0-0.0","params":{"nStudents":24,"maxFlips":30,"completionMinutes":45,"basePay":8,"maxBonus":9,"perTrialBonus":0.5,"perTrialBonusThreshold":0.05,"exampleCost":0.01},"classroomParams":{"A":{"a":1,"b":4},"B":{"a":4,"b":1},"C":{"a":2,"b":8},"D":{"a":8,"b":2}},"conditions":["nonSeqFull","nonSeqPartial","seqNoFeedback","seqFeedback"],"classroomPairings":[["A","B"],["C","D"]],"coinWeights":[0.2,0.5,0.8],"subjectId":"A2TLN8489YGY81","assignmentId":"3LJ7UR74RIZVYBRJIMTIC7B0D7W4NP","hitId":"3SD15I2WD2G0NA4TSPXGB81L5S7630","url":"https://gershmanlab.com/experiments/alicia/teaching/experiment/?hitId=3SD15I2WD2G0NA4TSPXGB81L5S7630&workerId=A2TLN8489YGY81&assignmentId=3LJ7UR74RIZVYBRJIMTIC7B0D7W4NP&a=4UJL9&tp_a=4UJL9&b=3LJ7UR74RIZVYBRJIMTIC7B0D7W4NP&tp_b=3LJ7UR74RIZVYBRJIMTIC7B0D7W4NP&c=365799&tp_c=365799","heads":0,"tails":1,"studentIndex":11,"studentTrueHypers":{"a":8,"b":2},"studentGuess":0.7272727272727273,"delta":0.5272727272727273,"totalExamples":1,"bonus":0,"bonusSoFar":3.46},{"rt":12841,"response":{"heads":"1","tails":"0"},"type":"response","condition":"seqNoFeedback","trueTheta":0.5,"classrooms":["A","B"],"studentTrueClassroom":"A","exampleSet":"first","trial_type":"survey-html-form","trial_index":104,"time_elapsed":714862,"internal_node_id":"0.0-100.0-0.0","params":{"nStudents":24,"maxFlips":30,"completionMinutes":45,"basePay":8,"maxBonus":9,"perTrialBonus":0.5,"perTrialBonusThreshold":0.05,"exampleCost":0.01},"classroomParams":{"A":{"a":1,"b":4},"B":{"a":4,"b":1},"C":{"a":2,"b":8},"D":{"a":8,"b":2}},"conditions":["nonSeqFull","nonSeqPartial","seqNoFeedback","seqFeedback"],"classroomPairings":[["A","B"],["C","D"]],"coinWeights":[0.2,0.5,0.8],"subjectId":"A2TLN8489YGY81","assignmentId":"3LJ7UR74RIZVYBRJIMTIC7B0D7W4NP","hitId":"3SD15I2WD2G0NA4TSPXGB81L5S7630","url":"https://gershmanlab.com/experiments/alicia/teaching/experiment/?hitId=3SD15I2WD2G0NA4TSPXGB81L5S7630&workerId=A2TLN8489YGY81&assignmentId=3LJ7UR74RIZVYBRJIMTIC7B0D7W4NP&a=4UJL9&tp_a=4UJL9&b=3LJ7UR74RIZVYBRJIMTIC7B0D7W4NP&tp_b=3LJ7UR74RIZVYBRJIMTIC7B0D7W4NP&c=365799&tp_c=365799","heads":1,"tails":0,"studentIndex":12,"studentTrueHypers":{"a":1,"b":4},"studentGuess":0.3333333333333333,"delta":0.16666666666666669,"totalExamples":1,"bonusSoFar":3.46},{"rt":7696,"response":{"heads":"2","tails":"0"},"type":"response","condition":"seqNoFeedback","trueTheta":0.5,"classrooms":["A","B"],"studentTrueClassroom":"A","exampleSet":"second","trial_type":"survey-html-form","trial_index":107,"time_elapsed":730320,"internal_node_id":"0.0-103.0-0.0","params":{"nStudents":24,"maxFlips":30,"completionMinutes":45,"basePay":8,"maxBonus":9,"perTrialBonus":0.5,"perTrialBonusThreshold":0.05,"exampleCost":0.01},"classroomParams":{"A":{"a":1,"b":4},"B":{"a":4,"b":1},"C":{"a":2,"b":8},"D":{"a":8,"b":2}},"conditions":["nonSeqFull","nonSeqPartial","seqNoFeedback","seqFeedback"],"classroomPairings":[["A","B"],["C","D"]],"coinWeights":[0.2,0.5,0.8],"subjectId":"A2TLN8489YGY81","assignmentId":"3LJ7UR74RIZVYBRJIMTIC7B0D7W4NP","hitId":"3SD15I2WD2G0NA4TSPXGB81L5S7630","url":"https://gershmanlab.com/experiments/alicia/teaching/experiment/?hitId=3SD15I2WD2G0NA4TSPXGB81L5S7630&workerId=A2TLN8489YGY81&assignmentId=3LJ7UR74RIZVYBRJIMTIC7B0D7W4NP&a=4UJL9&tp_a=4UJL9&b=3LJ7UR74RIZVYBRJIMTIC7B0D7W4NP&tp_b=3LJ7UR74RIZVYBRJIMTIC7B0D7W4NP&c=365799&tp_c=365799","firstResponseHeads":1,"firstResponseTails":0,"secondResponseHeads":2,"secondResponseTails":0,"totalHeads":3,"totalTails":0,"studentIndex":12,"studentTrueHypers":{"a":1,"b":4},"studentGuess":0.5,"delta":0,"bonus":0.47,"bonusSoFar":3.93,"totalExamples":3},{"rt":11337,"response":{"heads":"0","tails":"1"},"type":"response","condition":"nonSeqFull","trueTheta":0.2,"classrooms":["A","B"],"studentTrueClassroom":"A","exampleSet":"first","trial_type":"survey-html-form","trial_index":113,"time_elapsed":761960,"internal_node_id":"0.0-109.0-0.0","params":{"nStudents":24,"maxFlips":30,"completionMinutes":45,"basePay":8,"maxBonus":9,"perTrialBonus":0.5,"perTrialBonusThreshold":0.05,"exampleCost":0.01},"classroomParams":{"A":{"a":1,"b":4},"B":{"a":4,"b":1},"C":{"a":2,"b":8},"D":{"a":8,"b":2}},"conditions":["nonSeqFull","nonSeqPartial","seqNoFeedback","seqFeedback"],"classroomPairings":[["A","B"],["C","D"]],"coinWeights":[0.2,0.5,0.8],"subjectId":"A2TLN8489YGY81","assignmentId":"3LJ7UR74RIZVYBRJIMTIC7B0D7W4NP","hitId":"3SD15I2WD2G0NA4TSPXGB81L5S7630","url":"https://gershmanlab.com/experiments/alicia/teaching/experiment/?hitId=3SD15I2WD2G0NA4TSPXGB81L5S7630&workerId=A2TLN8489YGY81&assignmentId=3LJ7UR74RIZVYBRJIMTIC7B0D7W4NP&a=4UJL9&tp_a=4UJL9&b=3LJ7UR74RIZVYBRJIMTIC7B0D7W4NP&tp_b=3LJ7UR74RIZVYBRJIMTIC7B0D7W4NP&c=365799&tp_c=365799","heads":0,"tails":1,"studentIndex":13,"studentTrueHypers":{"a":1,"b":4},"studentGuess":0.16666666666666666,"delta":0.033333333333333354,"totalExamples":1,"bonus":0.49,"bonusSoFar":4.42},{"rt":10956,"response":{"heads":"3","tails":"0"},"type":"response","condition":"nonSeqPartial","trueTheta":0.5,"classrooms":["A","B"],"studentTrueClassroom":"B","exampleSet":"first","trial_type":"survey-html-form","trial_index":119,"time_elapsed":790115,"internal_node_id":"0.0-115.0-0.0","params":{"nStudents":24,"maxFlips":30,"completionMinutes":45,"basePay":8,"maxBonus":9,"perTrialBonus":0.5,"perTrialBonusThreshold":0.05,"exampleCost":0.01},"classroomParams":{"A":{"a":1,"b":4},"B":{"a":4,"b":1},"C":{"a":2,"b":8},"D":{"a":8,"b":2}},"conditions":["nonSeqFull","nonSeqPartial","seqNoFeedback","seqFeedback"],"classroomPairings":[["A","B"],["C","D"]],"coinWeights":[0.2,0.5,0.8],"subjectId":"A2TLN8489YGY81","assignmentId":"3LJ7UR74RIZVYBRJIMTIC7B0D7W4NP","hitId":"3SD15I2WD2G0NA4TSPXGB81L5S7630","url":"https://gershmanlab.com/experiments/alicia/teaching/experiment/?hitId=3SD15I2WD2G0NA4TSPXGB81L5S7630&workerId=A2TLN8489YGY81&assignmentId=3LJ7UR74RIZVYBRJIMTIC7B0D7W4NP&a=4UJL9&tp_a=4UJL9&b=3LJ7UR74RIZVYBRJIMTIC7B0D7W4NP&tp_b=3LJ7UR74RIZVYBRJIMTIC7B0D7W4NP&c=365799&tp_c=365799","heads":3,"tails":0,"studentIndex":14,"studentTrueHypers":{"a":4,"b":1},"studentGuess":0.875,"delta":0.375,"totalExamples":3,"bonus":0,"bonusSoFar":4.42},{"rt":4953,"response":{"heads":"6","tails":"0"},"type":"response","condition":"nonSeqFull","trueTheta":0.5,"classrooms":["C","D"],"studentTrueClassroom":"C","exampleSet":"first","trial_type":"survey-html-form","trial_index":125,"time_elapsed":812704,"internal_node_id":"0.0-121.0-0.0","params":{"nStudents":24,"maxFlips":30,"completionMinutes":45,"basePay":8,"maxBonus":9,"perTrialBonus":0.5,"perTrialBonusThreshold":0.05,"exampleCost":0.01},"classroomParams":{"A":{"a":1,"b":4},"B":{"a":4,"b":1},"C":{"a":2,"b":8},"D":{"a":8,"b":2}},"conditions":["nonSeqFull","nonSeqPartial","seqNoFeedback","seqFeedback"],"classroomPairings":[["A","B"],["C","D"]],"coinWeights":[0.2,0.5,0.8],"subjectId":"A2TLN8489YGY81","assignmentId":"3LJ7UR74RIZVYBRJIMTIC7B0D7W4NP","hitId":"3SD15I2WD2G0NA4TSPXGB81L5S7630","url":"https://gershmanlab.com/experiments/alicia/teaching/experiment/?hitId=3SD15I2WD2G0NA4TSPXGB81L5S7630&workerId=A2TLN8489YGY81&assignmentId=3LJ7UR74RIZVYBRJIMTIC7B0D7W4NP&a=4UJL9&tp_a=4UJL9&b=3LJ7UR74RIZVYBRJIMTIC7B0D7W4NP&tp_b=3LJ7UR74RIZVYBRJIMTIC7B0D7W4NP&c=365799&tp_c=365799","heads":6,"tails":0,"studentIndex":15,"studentTrueHypers":{"a":2,"b":8},"studentGuess":0.5,"delta":0,"totalExamples":6,"bonus":0.44,"bonusSoFar":4.86},{"rt":15777,"response":{"heads":"11","tails":"0"},"type":"response","condition":"nonSeqFull","trueTheta":0.8,"classrooms":["A","B"],"studentTrueClassroom":"A","exampleSet":"first","trial_type":"survey-html-form","trial_index":131,"time_elapsed":859615,"internal_node_id":"0.0-127.0-0.0","params":{"nStudents":24,"maxFlips":30,"completionMinutes":45,"basePay":8,"maxBonus":9,"perTrialBonus":0.5,"perTrialBonusThreshold":0.05,"exampleCost":0.01},"classroomParams":{"A":{"a":1,"b":4},"B":{"a":4,"b":1},"C":{"a":2,"b":8},"D":{"a":8,"b":2}},"conditions":["nonSeqFull","nonSeqPartial","seqNoFeedback","seqFeedback"],"classroomPairings":[["A","B"],["C","D"]],"coinWeights":[0.2,0.5,0.8],"subjectId":"A2TLN8489YGY81","assignmentId":"3LJ7UR74RIZVYBRJIMTIC7B0D7W4NP","hitId":"3SD15I2WD2G0NA4TSPXGB81L5S7630","url":"https://gershmanlab.com/experiments/alicia/teaching/experiment/?hitId=3SD15I2WD2G0NA4TSPXGB81L5S7630&workerId=A2TLN8489YGY81&assignmentId=3LJ7UR74RIZVYBRJIMTIC7B0D7W4NP&a=4UJL9&tp_a=4UJL9&b=3LJ7UR74RIZVYBRJIMTIC7B0D7W4NP&tp_b=3LJ7UR74RIZVYBRJIMTIC7B0D7W4NP&c=365799&tp_c=365799","heads":11,"tails":0,"studentIndex":16,"studentTrueHypers":{"a":1,"b":4},"studentGuess":0.75,"delta":0.050000000000000044,"totalExamples":11,"bonus":0,"bonusSoFar":4.86},{"rt":10407,"response":{"heads":"0","tails":"1"},"type":"response","condition":"seqNoFeedback","trueTheta":0.2,"classrooms":["C","D"],"studentTrueClassroom":"C","exampleSet":"first","trial_type":"survey-html-form","trial_index":137,"time_elapsed":890428,"internal_node_id":"0.0-133.0-0.0","params":{"nStudents":24,"maxFlips":30,"completionMinutes":45,"basePay":8,"maxBonus":9,"perTrialBonus":0.5,"perTrialBonusThreshold":0.05,"exampleCost":0.01},"classroomParams":{"A":{"a":1,"b":4},"B":{"a":4,"b":1},"C":{"a":2,"b":8},"D":{"a":8,"b":2}},"conditions":["nonSeqFull","nonSeqPartial","seqNoFeedback","seqFeedback"],"classroomPairings":[["A","B"],["C","D"]],"coinWeights":[0.2,0.5,0.8],"subjectId":"A2TLN8489YGY81","assignmentId":"3LJ7UR74RIZVYBRJIMTIC7B0D7W4NP","hitId":"3SD15I2WD2G0NA4TSPXGB81L5S7630","url":"https://gershmanlab.com/experiments/alicia/teaching/experiment/?hitId=3SD15I2WD2G0NA4TSPXGB81L5S7630&workerId=A2TLN8489YGY81&assignmentId=3LJ7UR74RIZVYBRJIMTIC7B0D7W4NP&a=4UJL9&tp_a=4UJL9&b=3LJ7UR74RIZVYBRJIMTIC7B0D7W4NP&tp_b=3LJ7UR74RIZVYBRJIMTIC7B0D7W4NP&c=365799&tp_c=365799","heads":0,"tails":1,"studentIndex":17,"studentTrueHypers":{"a":2,"b":8},"studentGuess":0.18181818181818182,"delta":0.018181818181818188,"totalExamples":1,"bonusSoFar":4.86},{"rt":3160,"response":{"heads":"0","tails":"1"},"type":"response","condition":"seqNoFeedback","trueTheta":0.2,"classrooms":["C","D"],"studentTrueClassroom":"C","exampleSet":"second","trial_type":"survey-html-form","trial_index":140,"time_elapsed":899350,"internal_node_id":"0.0-136.0-0.0","params":{"nStudents":24,"maxFlips":30,"completionMinutes":45,"basePay":8,"maxBonus":9,"perTrialBonus":0.5,"perTrialBonusThreshold":0.05,"exampleCost":0.01},"classroomParams":{"A":{"a":1,"b":4},"B":{"a":4,"b":1},"C":{"a":2,"b":8},"D":{"a":8,"b":2}},"conditions":["nonSeqFull","nonSeqPartial","seqNoFeedback","seqFeedback"],"classroomPairings":[["A","B"],["C","D"]],"coinWeights":[0.2,0.5,0.8],"subjectId":"A2TLN8489YGY81","assignmentId":"3LJ7UR74RIZVYBRJIMTIC7B0D7W4NP","hitId":"3SD15I2WD2G0NA4TSPXGB81L5S7630","url":"https://gershmanlab.com/experiments/alicia/teaching/experiment/?hitId=3SD15I2WD2G0NA4TSPXGB81L5S7630&workerId=A2TLN8489YGY81&assignmentId=3LJ7UR74RIZVYBRJIMTIC7B0D7W4NP&a=4UJL9&tp_a=4UJL9&b=3LJ7UR74RIZVYBRJIMTIC7B0D7W4NP&tp_b=3LJ7UR74RIZVYBRJIMTIC7B0D7W4NP&c=365799&tp_c=365799","firstResponseHeads":0,"firstResponseTails":1,"secondResponseHeads":0,"secondResponseTails":1,"totalHeads":0,"totalTails":2,"studentIndex":17,"studentTrueHypers":{"a":2,"b":8},"studentGuess":0.16666666666666666,"delta":0.033333333333333354,"bonus":0.48,"bonusSoFar":5.34,"totalExamples":2},{"rt":9187,"response":{"heads":"3","tails":"0"},"type":"response","condition":"seqNoFeedback","trueTheta":0.5,"classrooms":["C","D"],"studentTrueClassroom":"D","exampleSet":"first","trial_type":"survey-html-form","trial_index":146,"time_elapsed":925052,"internal_node_id":"0.0-142.0-0.0","params":{"nStudents":24,"maxFlips":30,"completionMinutes":45,"basePay":8,"maxBonus":9,"perTrialBonus":0.5,"perTrialBonusThreshold":0.05,"exampleCost":0.01},"classroomParams":{"A":{"a":1,"b":4},"B":{"a":4,"b":1},"C":{"a":2,"b":8},"D":{"a":8,"b":2}},"conditions":["nonSeqFull","nonSeqPartial","seqNoFeedback","seqFeedback"],"classroomPairings":[["A","B"],["C","D"]],"coinWeights":[0.2,0.5,0.8],"subjectId":"A2TLN8489YGY81","assignmentId":"3LJ7UR74RIZVYBRJIMTIC7B0D7W4NP","hitId":"3SD15I2WD2G0NA4TSPXGB81L5S7630","url":"https://gershmanlab.com/experiments/alicia/teaching/experiment/?hitId=3SD15I2WD2G0NA4TSPXGB81L5S7630&workerId=A2TLN8489YGY81&assignmentId=3LJ7UR74RIZVYBRJIMTIC7B0D7W4NP&a=4UJL9&tp_a=4UJL9&b=3LJ7UR74RIZVYBRJIMTIC7B0D7W4NP&tp_b=3LJ7UR74RIZVYBRJIMTIC7B0D7W4NP&c=365799&tp_c=365799","heads":3,"tails":0,"studentIndex":18,"studentTrueHypers":{"a":8,"b":2},"studentGuess":0.8461538461538461,"delta":0.34615384615384615,"totalExamples":3,"bonusSoFar":5.34},{"rt":5304,"response":{"heads":"2","tails":"0"},"type":"response","condition":"seqNoFeedback","trueTheta":0.5,"classrooms":["C","D"],"studentTrueClassroom":"D","exampleSet":"second","trial_type":"survey-html-form","trial_index":149,"time_elapsed":937873,"internal_node_id":"0.0-145.0-0.0","params":{"nStudents":24,"maxFlips":30,"completionMinutes":45,"basePay":8,"maxBonus":9,"perTrialBonus":0.5,"perTrialBonusThreshold":0.05,"exampleCost":0.01},"classroomParams":{"A":{"a":1,"b":4},"B":{"a":4,"b":1},"C":{"a":2,"b":8},"D":{"a":8,"b":2}},"conditions":["nonSeqFull","nonSeqPartial","seqNoFeedback","seqFeedback"],"classroomPairings":[["A","B"],["C","D"]],"coinWeights":[0.2,0.5,0.8],"subjectId":"A2TLN8489YGY81","assignmentId":"3LJ7UR74RIZVYBRJIMTIC7B0D7W4NP","hitId":"3SD15I2WD2G0NA4TSPXGB81L5S7630","url":"https://gershmanlab.com/experiments/alicia/teaching/experiment/?hitId=3SD15I2WD2G0NA4TSPXGB81L5S7630&workerId=A2TLN8489YGY81&assignmentId=3LJ7UR74RIZVYBRJIMTIC7B0D7W4NP&a=4UJL9&tp_a=4UJL9&b=3LJ7UR74RIZVYBRJIMTIC7B0D7W4NP&tp_b=3LJ7UR74RIZVYBRJIMTIC7B0D7W4NP&c=365799&tp_c=365799","firstResponseHeads":3,"firstResponseTails":0,"secondResponseHeads":2,"secondResponseTails":0,"totalHeads":5,"totalTails":0,"studentIndex":18,"studentTrueHypers":{"a":8,"b":2},"studentGuess":0.8666666666666667,"delta":0.3666666666666667,"bonus":0,"bonusSoFar":5.34,"totalExamples":5},{"rt":25489,"response":{"heads":"1","tails":"0"},"type":"response","condition":"seqNoFeedback","trueTheta":0.8,"classrooms":["C","D"],"studentTrueClassroom":"C","exampleSet":"first","trial_type":"survey-html-form","trial_index":155,"time_elapsed":977579,"internal_node_id":"0.0-151.0-0.0","params":{"nStudents":24,"maxFlips":30,"completionMinutes":45,"basePay":8,"maxBonus":9,"perTrialBonus":0.5,"perTrialBonusThreshold":0.05,"exampleCost":0.01},"classroomParams":{"A":{"a":1,"b":4},"B":{"a":4,"b":1},"C":{"a":2,"b":8},"D":{"a":8,"b":2}},"conditions":["nonSeqFull","nonSeqPartial","seqNoFeedback","seqFeedback"],"classroomPairings":[["A","B"],["C","D"]],"coinWeights":[0.2,0.5,0.8],"subjectId":"A2TLN8489YGY81","assignmentId":"3LJ7UR74RIZVYBRJIMTIC7B0D7W4NP","hitId":"3SD15I2WD2G0NA4TSPXGB81L5S7630","url":"https://gershmanlab.com/experiments/alicia/teaching/experiment/?hitId=3SD15I2WD2G0NA4TSPXGB81L5S7630&workerId=A2TLN8489YGY81&assignmentId=3LJ7UR74RIZVYBRJIMTIC7B0D7W4NP&a=4UJL9&tp_a=4UJL9&b=3LJ7UR74RIZVYBRJIMTIC7B0D7W4NP&tp_b=3LJ7UR74RIZVYBRJIMTIC7B0D7W4NP&c=365799&tp_c=365799","heads":1,"tails":0,"studentIndex":19,"studentTrueHypers":{"a":2,"b":8},"studentGuess":0.2727272727272727,"delta":0.5272727272727273,"totalExamples":1,"bonusSoFar":5.34},{"rt":2022,"response":{"heads":"1","tails":"0"},"type":"response","condition":"seqNoFeedback","trueTheta":0.8,"classrooms":["C","D"],"studentTrueClassroom":"C","exampleSet":"second","trial_type":"survey-html-form","trial_index":158,"time_elapsed":986870,"internal_node_id":"0.0-154.0-0.0","params":{"nStudents":24,"maxFlips":30,"completionMinutes":45,"basePay":8,"maxBonus":9,"perTrialBonus":0.5,"perTrialBonusThreshold":0.05,"exampleCost":0.01},"classroomParams":{"A":{"a":1,"b":4},"B":{"a":4,"b":1},"C":{"a":2,"b":8},"D":{"a":8,"b":2}},"conditions":["nonSeqFull","nonSeqPartial","seqNoFeedback","seqFeedback"],"classroomPairings":[["A","B"],["C","D"]],"coinWeights":[0.2,0.5,0.8],"subjectId":"A2TLN8489YGY81","assignmentId":"3LJ7UR74RIZVYBRJIMTIC7B0D7W4NP","hitId":"3SD15I2WD2G0NA4TSPXGB81L5S7630","url":"https://gershmanlab.com/experiments/alicia/teaching/experiment/?hitId=3SD15I2WD2G0NA4TSPXGB81L5S7630&workerId=A2TLN8489YGY81&assignmentId=3LJ7UR74RIZVYBRJIMTIC7B0D7W4NP&a=4UJL9&tp_a=4UJL9&b=3LJ7UR74RIZVYBRJIMTIC7B0D7W4NP&tp_b=3LJ7UR74RIZVYBRJIMTIC7B0D7W4NP&c=365799&tp_c=365799","firstResponseHeads":1,"firstResponseTails":0,"secondResponseHeads":1,"secondResponseTails":0,"totalHeads":2,"totalTails":0,"studentIndex":19,"studentTrueHypers":{"a":2,"b":8},"studentGuess":0.3333333333333333,"delta":0.46666666666666673,"bonus":0,"bonusSoFar":5.34,"totalExamples":2},{"rt":4578,"response":{"heads":"1","tails":"0"},"type":"response","condition":"nonSeqPartial","trueTheta":0.8,"classrooms":["C","D"],"studentTrueClassroom":"D","exampleSet":"first","trial_type":"survey-html-form","trial_index":164,"time_elapsed":1007848,"internal_node_id":"0.0-160.0-0.0","params":{"nStudents":24,"maxFlips":30,"completionMinutes":45,"basePay":8,"maxBonus":9,"perTrialBonus":0.5,"perTrialBonusThreshold":0.05,"exampleCost":0.01},"classroomParams":{"A":{"a":1,"b":4},"B":{"a":4,"b":1},"C":{"a":2,"b":8},"D":{"a":8,"b":2}},"conditions":["nonSeqFull","nonSeqPartial","seqNoFeedback","seqFeedback"],"classroomPairings":[["A","B"],["C","D"]],"coinWeights":[0.2,0.5,0.8],"subjectId":"A2TLN8489YGY81","assignmentId":"3LJ7UR74RIZVYBRJIMTIC7B0D7W4NP","hitId":"3SD15I2WD2G0NA4TSPXGB81L5S7630","url":"https://gershmanlab.com/experiments/alicia/teaching/experiment/?hitId=3SD15I2WD2G0NA4TSPXGB81L5S7630&workerId=A2TLN8489YGY81&assignmentId=3LJ7UR74RIZVYBRJIMTIC7B0D7W4NP&a=4UJL9&tp_a=4UJL9&b=3LJ7UR74RIZVYBRJIMTIC7B0D7W4NP&tp_b=3LJ7UR74RIZVYBRJIMTIC7B0D7W4NP&c=365799&tp_c=365799","heads":1,"tails":0,"studentIndex":20,"studentTrueHypers":{"a":8,"b":2},"studentGuess":0.8181818181818182,"delta":0.018181818181818188,"totalExamples":1,"bonus":0.49,"bonusSoFar":5.83},{"rt":9023,"response":{"heads":"1","tails":"0"},"type":"response","condition":"nonSeqPartial","trueTheta":0.8,"classrooms":["A","B"],"studentTrueClassroom":"B","exampleSet":"first","trial_type":"survey-html-form","trial_index":170,"time_elapsed":1028184,"internal_node_id":"0.0-166.0-0.0","params":{"nStudents":24,"maxFlips":30,"completionMinutes":45,"basePay":8,"maxBonus":9,"perTrialBonus":0.5,"perTrialBonusThreshold":0.05,"exampleCost":0.01},"classroomParams":{"A":{"a":1,"b":4},"B":{"a":4,"b":1},"C":{"a":2,"b":8},"D":{"a":8,"b":2}},"conditions":["nonSeqFull","nonSeqPartial","seqNoFeedback","seqFeedback"],"classroomPairings":[["A","B"],["C","D"]],"coinWeights":[0.2,0.5,0.8],"subjectId":"A2TLN8489YGY81","assignmentId":"3LJ7UR74RIZVYBRJIMTIC7B0D7W4NP","hitId":"3SD15I2WD2G0NA4TSPXGB81L5S7630","url":"https://gershmanlab.com/experiments/alicia/teaching/experiment/?hitId=3SD15I2WD2G0NA4TSPXGB81L5S7630&workerId=A2TLN8489YGY81&assignmentId=3LJ7UR74RIZVYBRJIMTIC7B0D7W4NP&a=4UJL9&tp_a=4UJL9&b=3LJ7UR74RIZVYBRJIMTIC7B0D7W4NP&tp_b=3LJ7UR74RIZVYBRJIMTIC7B0D7W4NP&c=365799&tp_c=365799","heads":1,"tails":0,"studentIndex":21,"studentTrueHypers":{"a":4,"b":1},"studentGuess":0.8333333333333334,"delta":0.033333333333333326,"totalExamples":1,"bonus":0.49,"bonusSoFar":6.32},{"rt":7387,"response":{"heads":"0","tails":"1"},"type":"response","condition":"seqFeedback","trueTheta":0.2,"classrooms":["C","D"],"studentTrueClassroom":"D","exampleSet":"first","trial_type":"survey-html-form","trial_index":176,"time_elapsed":1048620,"internal_node_id":"0.0-172.0-0.0","params":{"nStudents":24,"maxFlips":30,"completionMinutes":45,"basePay":8,"maxBonus":9,"perTrialBonus":0.5,"perTrialBonusThreshold":0.05,"exampleCost":0.01},"classroomParams":{"A":{"a":1,"b":4},"B":{"a":4,"b":1},"C":{"a":2,"b":8},"D":{"a":8,"b":2}},"conditions":["nonSeqFull","nonSeqPartial","seqNoFeedback","seqFeedback"],"classroomPairings":[["A","B"],["C","D"]],"coinWeights":[0.2,0.5,0.8],"subjectId":"A2TLN8489YGY81","assignmentId":"3LJ7UR74RIZVYBRJIMTIC7B0D7W4NP","hitId":"3SD15I2WD2G0NA4TSPXGB81L5S7630","url":"https://gershmanlab.com/experiments/alicia/teaching/experiment/?hitId=3SD15I2WD2G0NA4TSPXGB81L5S7630&workerId=A2TLN8489YGY81&assignmentId=3LJ7UR74RIZVYBRJIMTIC7B0D7W4NP&a=4UJL9&tp_a=4UJL9&b=3LJ7UR74RIZVYBRJIMTIC7B0D7W4NP&tp_b=3LJ7UR74RIZVYBRJIMTIC7B0D7W4NP&c=365799&tp_c=365799","heads":0,"tails":1,"studentIndex":22,"studentTrueHypers":{"a":8,"b":2},"studentGuess":0.7272727272727273,"delta":0.5272727272727273,"totalExamples":1,"bonusSoFar":6.32},{"rt":29203,"response":{"heads":"0","tails":"21"},"type":"response","condition":"seqFeedback","trueTheta":0.2,"classrooms":["C","D"],"studentTrueClassroom":"D","exampleSet":"second","trial_type":"survey-html-form","trial_index":180,"time_elapsed":1088929,"internal_node_id":"0.0-176.0-0.0","params":{"nStudents":24,"maxFlips":30,"completionMinutes":45,"basePay":8,"maxBonus":9,"perTrialBonus":0.5,"perTrialBonusThreshold":0.05,"exampleCost":0.01},"classroomParams":{"A":{"a":1,"b":4},"B":{"a":4,"b":1},"C":{"a":2,"b":8},"D":{"a":8,"b":2}},"conditions":["nonSeqFull","nonSeqPartial","seqNoFeedback","seqFeedback"],"classroomPairings":[["A","B"],["C","D"]],"coinWeights":[0.2,0.5,0.8],"subjectId":"A2TLN8489YGY81","assignmentId":"3LJ7UR74RIZVYBRJIMTIC7B0D7W4NP","hitId":"3SD15I2WD2G0NA4TSPXGB81L5S7630","url":"https://gershmanlab.com/experiments/alicia/teaching/experiment/?hitId=3SD15I2WD2G0NA4TSPXGB81L5S7630&workerId=A2TLN8489YGY81&assignmentId=3LJ7UR74RIZVYBRJIMTIC7B0D7W4NP&a=4UJL9&tp_a=4UJL9&b=3LJ7UR74RIZVYBRJIMTIC7B0D7W4NP&tp_b=3LJ7UR74RIZVYBRJIMTIC7B0D7W4NP&c=365799&tp_c=365799","firstResponseHeads":0,"firstResponseTails":1,"secondResponseHeads":0,"secondResponseTails":21,"totalHeads":0,"totalTails":22,"studentIndex":22,"studentTrueHypers":{"a":8,"b":2},"studentGuess":0.25,"delta":0.04999999999999999,"bonus":0.28,"bonusSoFar":6.6,"totalExamples":22},{"rt":4883,"response":{"heads":"1","tails":"0"},"type":"response","condition":"seqFeedback","trueTheta":0.8,"classrooms":["A","B"],"studentTrueClassroom":"B","exampleSet":"first","trial_type":"survey-html-form","trial_index":186,"time_elapsed":1118819,"internal_node_id":"0.0-182.0-0.0","params":{"nStudents":24,"maxFlips":30,"completionMinutes":45,"basePay":8,"maxBonus":9,"perTrialBonus":0.5,"perTrialBonusThreshold":0.05,"exampleCost":0.01},"classroomParams":{"A":{"a":1,"b":4},"B":{"a":4,"b":1},"C":{"a":2,"b":8},"D":{"a":8,"b":2}},"conditions":["nonSeqFull","nonSeqPartial","seqNoFeedback","seqFeedback"],"classroomPairings":[["A","B"],["C","D"]],"coinWeights":[0.2,0.5,0.8],"subjectId":"A2TLN8489YGY81","assignmentId":"3LJ7UR74RIZVYBRJIMTIC7B0D7W4NP","hitId":"3SD15I2WD2G0NA4TSPXGB81L5S7630","url":"https://gershmanlab.com/experiments/alicia/teaching/experiment/?hitId=3SD15I2WD2G0NA4TSPXGB81L5S7630&workerId=A2TLN8489YGY81&assignmentId=3LJ7UR74RIZVYBRJIMTIC7B0D7W4NP&a=4UJL9&tp_a=4UJL9&b=3LJ7UR74RIZVYBRJIMTIC7B0D7W4NP&tp_b=3LJ7UR74RIZVYBRJIMTIC7B0D7W4NP&c=365799&tp_c=365799","heads":1,"tails":0,"studentIndex":23,"studentTrueHypers":{"a":4,"b":1},"studentGuess":0.8333333333333334,"delta":0.033333333333333326,"totalExamples":1,"bonusSoFar":6.6},{"rt":55895,"response":{"heads":"1","tails":"1"},"type":"response","condition":"seqFeedback","trueTheta":0.8,"classrooms":["A","B"],"studentTrueClassroom":"B","exampleSet":"second","trial_type":"survey-html-form","trial_index":190,"time_elapsed":1183761,"internal_node_id":"0.0-186.0-0.0","params":{"nStudents":24,"maxFlips":30,"completionMinutes":45,"basePay":8,"maxBonus":9,"perTrialBonus":0.5,"perTrialBonusThreshold":0.05,"exampleCost":0.01},"classroomParams":{"A":{"a":1,"b":4},"B":{"a":4,"b":1},"C":{"a":2,"b":8},"D":{"a":8,"b":2}},"conditions":["nonSeqFull","nonSeqPartial","seqNoFeedback","seqFeedback"],"classroomPairings":[["A","B"],["C","D"]],"coinWeights":[0.2,0.5,0.8],"subjectId":"A2TLN8489YGY81","assignmentId":"3LJ7UR74RIZVYBRJIMTIC7B0D7W4NP","hitId":"3SD15I2WD2G0NA4TSPXGB81L5S7630","url":"https://gershmanlab.com/experiments/alicia/teaching/experiment/?hitId=3SD15I2WD2G0NA4TSPXGB81L5S7630&workerId=A2TLN8489YGY81&assignmentId=3LJ7UR74RIZVYBRJIMTIC7B0D7W4NP&a=4UJL9&tp_a=4UJL9&b=3LJ7UR74RIZVYBRJIMTIC7B0D7W4NP&tp_b=3LJ7UR74RIZVYBRJIMTIC7B0D7W4NP&c=365799&tp_c=365799","firstResponseHeads":1,"firstResponseTails":0,"secondResponseHeads":1,"secondResponseTails":1,"totalHeads":2,"totalTails":1,"studentIndex":23,"studentTrueHypers":{"a":4,"b":1},"studentGuess":0.75,"delta":0.050000000000000044,"bonus":0,"bonusSoFar":6.6,"totalExamples":3},{"rt":52655,"response":{"gender":"male","age":"34","understood":"yes","comments":"I don't often get to work on such a unique and interesting study. Thank you for offering such a study. I certainly wouldn't mind participating in more studies like this in the future."},"type":"response","trial_type":"survey-html-form","trial_index":194,"time_elapsed":1267127,"internal_node_id":"0.0-191.0","params":{"nStudents":24,"maxFlips":30,"completionMinutes":45,"basePay":8,"maxBonus":9,"perTrialBonus":0.5,"perTrialBonusThreshold":0.05,"exampleCost":0.01},"classroomParams":{"A":{"a":1,"b":4},"B":{"a":4,"b":1},"C":{"a":2,"b":8},"D":{"a":8,"b":2}},"conditions":["nonSeqFull","nonSeqPartial","seqNoFeedback","seqFeedback"],"classroomPairings":[["A","B"],["C","D"]],"coinWeights":[0.2,0.5,0.8],"subjectId":"A2TLN8489YGY81","assignmentId":"3LJ7UR74RIZVYBRJIMTIC7B0D7W4NP","hitId":"3SD15I2WD2G0NA4TSPXGB81L5S7630","url":"https://gershmanlab.com/experiments/alicia/teaching/experiment/?hitId=3SD15I2WD2G0NA4TSPXGB81L5S7630&workerId=A2TLN8489YGY81&assignmentId=3LJ7UR74RIZVYBRJIMTIC7B0D7W4NP&a=4UJL9&tp_a=4UJL9&b=3LJ7UR74RIZVYBRJIMTIC7B0D7W4NP&tp_b=3LJ7UR74RIZVYBRJIMTIC7B0D7W4NP&c=365799&tp_c=365799","totalBonus":6.6}]