[{"rt":32176,"response":{"heads":"10","tails":"10"},"type":"response","condition":"nonSeqFull","trueTheta":0.8,"classrooms":["A","B"],"studentTrueClassroom":"B","exampleSet":"first","trial_type":"survey-html-form","trial_index":10,"time_elapsed":430282,"internal_node_id":"0.0-6.0-0.0","params":{"nStudents":24,"maxFlips":30,"completionMinutes":45,"basePay":8,"maxBonus":9,"perTrialBonus":0.5,"perTrialBonusThreshold":0.05,"exampleCost":0.01},"classroomParams":{"A":{"a":1,"b":4},"B":{"a":4,"b":1},"C":{"a":2,"b":8},"D":{"a":8,"b":2}},"conditions":["nonSeqFull","nonSeqPartial","seqNoFeedback","seqFeedback"],"classroomPairings":[["A","B"],["C","D"]],"coinWeights":[0.2,0.5,0.8],"subjectId":"A2VNSNAN1LZBAM","assignmentId":"35L9RVQFCP425DZNUUPNKRCYQ8AHUF","hitId":"3E9VAUV7BW02QFDK7N7IH7ZKACRYAN","url":"https://gershmanlab.com/experiments/alicia/teaching/experiment/?hitId=3E9VAUV7BW02QFDK7N7IH7ZKACRYAN&workerId=A2VNSNAN1LZBAM&assignmentId=35L9RVQFCP425DZNUUPNKRCYQ8AHUF&a=FRL59&tp_a=FRL59&b=35L9RVQFCP425DZNUUPNKRCYQ8AHUF&tp_b=35L9RVQFCP425DZNUUPNKRCYQ8AHUF&c=365799&tp_c=365799","heads":10,"tails":10,"studentIndex":0,"studentTrueHypers":{"a":4,"b":1},"studentGuess":0.56,"delta":0.24,"totalExamples":20,"bonus":0,"bonusSoFar":0},{"rt":16990,"response":{"heads":"15","tails":"15"},"type":"response","condition":"seqNoFeedback","trueTheta":0.8,"classrooms":["C","D"],"studentTrueClassroom":"C","exampleSet":"first","trial_type":"survey-html-form","trial_index":16,"time_elapsed":470256,"internal_node_id":"0.0-12.0-0.0","params":{"nStudents":24,"maxFlips":30,"completionMinutes":45,"basePay":8,"maxBonus":9,"perTrialBonus":0.5,"perTrialBonusThreshold":0.05,"exampleCost":0.01},"classroomParams":{"A":{"a":1,"b":4},"B":{"a":4,"b":1},"C":{"a":2,"b":8},"D":{"a":8,"b":2}},"conditions":["nonSeqFull","nonSeqPartial","seqNoFeedback","seqFeedback"],"classroomPairings":[["A","B"],["C","D"]],"coinWeights":[0.2,0.5,0.8],"subjectId":"A2VNSNAN1LZBAM","assignmentId":"35L9RVQFCP425DZNUUPNKRCYQ8AHUF","hitId":"3E9VAUV7BW02QFDK7N7IH7ZKACRYAN","url":"https://gershmanlab.com/experiments/alicia/teaching/experiment/?hitId=3E9VAUV7BW02QFDK7N7IH7ZKACRYAN&workerId=A2VNSNAN1LZBAM&assignmentId=35L9RVQFCP425DZNUUPNKRCYQ8AHUF&a=FRL59&tp_a=FRL59&b=35L9RVQFCP425DZNUUPNKRCYQ8AHUF&tp_b=35L9RVQFCP425DZNUUPNKRCYQ8AHUF&c=365799&tp_c=365799","heads":15,"tails":15,"studentIndex":1,"studentTrueHypers":{"a":2,"b":8},"studentGuess":0.425,"delta":0.37500000000000006,"totalExamples":30,"bonusSoFar":0},{"rt":51833,"response":{"heads":"12","tails":"5"},"type":"response","condition":"seqNoFeedback","trueTheta":0.8,"classrooms":["C","D"],"studentTrueClassroom":"C","exampleSet":"second","trial_type":"survey-html-form","trial_index":19,"time_elapsed":527870,"internal_node_id":"0.0-15.0-0.0","params":{"nStudents":24,"maxFlips":30,"completionMinutes":45,"basePay":8,"maxBonus":9,"perTrialBonus":0.5,"perTrialBonusThreshold":0.05,"exampleCost":0.01},"classroomParams":{"A":{"a":1,"b":4},"B":{"a":4,"b":1},"C":{"a":2,"b":8},"D":{"a":8,"b":2}},"conditions":["nonSeqFull","nonSeqPartial","seqNoFeedback","seqFeedback"],"classroomPairings":[["A","B"],["C","D"]],"coinWeights":[0.2,0.5,0.8],"subjectId":"A2VNSNAN1LZBAM","assignmentId":"35L9RVQFCP425DZNUUPNKRCYQ8AHUF","hitId":"3E9VAUV7BW02QFDK7N7IH7ZKACRYAN","url":"https://gershmanlab.com/experiments/alicia/teaching/experiment/?hitId=3E9VAUV7BW02QFDK7N7IH7ZKACRYAN&workerId=A2VNSNAN1LZBAM&assignmentId=35L9RVQFCP425DZNUUPNKRCYQ8AHUF&a=FRL59&tp_a=FRL59&b=35L9RVQFCP425DZNUUPNKRCYQ8AHUF&tp_b=35L9RVQFCP425DZNUUPNKRCYQ8AHUF&c=365799&tp_c=365799","firstResponseHeads":15,"firstResponseTails":15,"secondResponseHeads":12,"secondResponseTails":5,"totalHeads":27,"totalTails":20,"studentIndex":1,"studentTrueHypers":{"a":2,"b":8},"studentGuess":0.5087719298245614,"delta":0.2912280701754386,"bonus":0,"bonusSoFar":0,"totalExamples":47},{"rt":10384,"response":{"heads":"5","tails":"15"},"type":"response","condition":"nonSeqPartial","trueTheta":0.8,"classrooms":["C","D"],"studentTrueClassroom":"D","exampleSet":"first","trial_type":"survey-html-form","trial_index":25,"time_elapsed":561214,"internal_node_id":"0.0-21.0-0.0","params":{"nStudents":24,"maxFlips":30,"completionMinutes":45,"basePay":8,"maxBonus":9,"perTrialBonus":0.5,"perTrialBonusThreshold":0.05,"exampleCost":0.01},"classroomParams":{"A":{"a":1,"b":4},"B":{"a":4,"b":1},"C":{"a":2,"b":8},"D":{"a":8,"b":2}},"conditions":["nonSeqFull","nonSeqPartial","seqNoFeedback","seqFeedback"],"classroomPairings":[["A","B"],["C","D"]],"coinWeights":[0.2,0.5,0.8],"subjectId":"A2VNSNAN1LZBAM","assignmentId":"35L9RVQFCP425DZNUUPNKRCYQ8AHUF","hitId":"3E9VAUV7BW02QFDK7N7IH7ZKACRYAN","url":"https://gershmanlab.com/experiments/alicia/teaching/experiment/?hitId=3E9VAUV7BW02QFDK7N7IH7ZKACRYAN&workerId=A2VNSNAN1LZBAM&assignmentId=35L9RVQFCP425DZNUUPNKRCYQ8AHUF&a=FRL59&tp_a=FRL59&b=35L9RVQFCP425DZNUUPNKRCYQ8AHUF&tp_b=35L9RVQFCP425DZNUUPNKRCYQ8AHUF&c=365799&tp_c=365799","heads":5,"tails":15,"studentIndex":2,"studentTrueHypers":{"a":8,"b":2},"studentGuess":0.43333333333333335,"delta":0.3666666666666667,"totalExamples":20,"bonus":0,"bonusSoFar":0},{"rt":10665,"response":{"heads":"10","tails":"5"},"type":"response","condition":"nonSeqFull","trueTheta":0.8,"classrooms":["C","D"],"studentTrueClassroom":"C","exampleSet":"first","trial_type":"survey-html-form","trial_index":31,"time_elapsed":587082,"internal_node_id":"0.0-27.0-0.0","params":{"nStudents":24,"maxFlips":30,"completionMinutes":45,"basePay":8,"maxBonus":9,"perTrialBonus":0.5,"perTrialBonusThreshold":0.05,"exampleCost":0.01},"classroomParams":{"A":{"a":1,"b":4},"B":{"a":4,"b":1},"C":{"a":2,"b":8},"D":{"a":8,"b":2}},"conditions":["nonSeqFull","nonSeqPartial","seqNoFeedback","seqFeedback"],"classroomPairings":[["A","B"],["C","D"]],"coinWeights":[0.2,0.5,0.8],"subjectId":"A2VNSNAN1LZBAM","assignmentId":"35L9RVQFCP425DZNUUPNKRCYQ8AHUF","hitId":"3E9VAUV7BW02QFDK7N7IH7ZKACRYAN","url":"https://gershmanlab.com/experiments/alicia/teaching/experiment/?hitId=3E9VAUV7BW02QFDK7N7IH7ZKACRYAN&workerId=A2VNSNAN1LZBAM&assignmentId=35L9RVQFCP425DZNUUPNKRCYQ8AHUF&a=FRL59&tp_a=FRL59&b=35L9RVQFCP425DZNUUPNKRCYQ8AHUF&tp_b=35L9RVQFCP425DZNUUPNKRCYQ8AHUF&c=365799&tp_c=365799","heads":10,"tails":5,"studentIndex":3,"studentTrueHypers":{"a":2,"b":8},"studentGuess":0.48,"delta":0.32000000000000006,"totalExamples":15,"bonus":0,"bonusSoFar":0},{"rt":14144,"response":{"heads":"10","tails":"5"},"type":"response","condition":"nonSeqPartial","trueTheta":0.2,"classrooms":["A","B"],"studentTrueClassroom":"A","exampleSet":"first","trial_type":"survey-html-form","trial_index":37,"time_elapsed":620500,"internal_node_id":"0.0-33.0-0.0","params":{"nStudents":24,"maxFlips":30,"completionMinutes":45,"basePay":8,"maxBonus":9,"perTrialBonus":0.5,"perTrialBonusThreshold":0.05,"exampleCost":0.01},"classroomParams":{"A":{"a":1,"b":4},"B":{"a":4,"b":1},"C":{"a":2,"b":8},"D":{"a":8,"b":2}},"conditions":["nonSeqFull","nonSeqPartial","seqNoFeedback","seqFeedback"],"classroomPairings":[["A","B"],["C","D"]],"coinWeights":[0.2,0.5,0.8],"subjectId":"A2VNSNAN1LZBAM","assignmentId":"35L9RVQFCP425DZNUUPNKRCYQ8AHUF","hitId":"3E9VAUV7BW02QFDK7N7IH7ZKACRYAN","url":"https://gershmanlab.com/experiments/alicia/teaching/experiment/?hitId=3E9VAUV7BW02QFDK7N7IH7ZKACRYAN&workerId=A2VNSNAN1LZBAM&assignmentId=35L9RVQFCP425DZNUUPNKRCYQ8AHUF&a=FRL59&tp_a=FRL59&b=35L9RVQFCP425DZNUUPNKRCYQ8AHUF&tp_b=35L9RVQFCP425DZNUUPNKRCYQ8AHUF&c=365799&tp_c=365799","heads":10,"tails":5,"studentIndex":4,"studentTrueHypers":{"a":1,"b":4},"studentGuess":0.55,"delta":0.35000000000000003,"totalExamples":15,"bonus":0,"bonusSoFar":0},{"rt":11738,"response":{"heads":"15","tails":"10"},"type":"response","condition":"nonSeqFull","trueTheta":0.5,"classrooms":["C","D"],"studentTrueClassroom":"C","exampleSet":"first","trial_type":"survey-html-form","trial_index":43,"time_elapsed":648344,"internal_node_id":"0.0-39.0-0.0","params":{"nStudents":24,"maxFlips":30,"completionMinutes":45,"basePay":8,"maxBonus":9,"perTrialBonus":0.5,"perTrialBonusThreshold":0.05,"exampleCost":0.01},"classroomParams":{"A":{"a":1,"b":4},"B":{"a":4,"b":1},"C":{"a":2,"b":8},"D":{"a":8,"b":2}},"conditions":["nonSeqFull","nonSeqPartial","seqNoFeedback","seqFeedback"],"classroomPairings":[["A","B"],["C","D"]],"coinWeights":[0.2,0.5,0.8],"subjectId":"A2VNSNAN1LZBAM","assignmentId":"35L9RVQFCP425DZNUUPNKRCYQ8AHUF","hitId":"3E9VAUV7BW02QFDK7N7IH7ZKACRYAN","url":"https://gershmanlab.com/experiments/alicia/teaching/experiment/?hitId=3E9VAUV7BW02QFDK7N7IH7ZKACRYAN&workerId=A2VNSNAN1LZBAM&assignmentId=35L9RVQFCP425DZNUUPNKRCYQ8AHUF&a=FRL59&tp_a=FRL59&b=35L9RVQFCP425DZNUUPNKRCYQ8AHUF&tp_b=35L9RVQFCP425DZNUUPNKRCYQ8AHUF&c=365799&tp_c=365799","heads":15,"tails":10,"studentIndex":5,"studentTrueHypers":{"a":2,"b":8},"studentGuess":0.4857142857142857,"delta":0.01428571428571429,"totalExamples":25,"bonus":0.25,"bonusSoFar":0.25},{"rt":8626,"response":{"heads":"20","tails":"5"},"type":"response","condition":"seqNoFeedback","trueTheta":0.2,"classrooms":["A","B"],"studentTrueClassroom":"A","exampleSet":"first","trial_type":"survey-html-form","trial_index":49,"time_elapsed":672829,"internal_node_id":"0.0-45.0-0.0","params":{"nStudents":24,"maxFlips":30,"completionMinutes":45,"basePay":8,"maxBonus":9,"perTrialBonus":0.5,"perTrialBonusThreshold":0.05,"exampleCost":0.01},"classroomParams":{"A":{"a":1,"b":4},"B":{"a":4,"b":1},"C":{"a":2,"b":8},"D":{"a":8,"b":2}},"conditions":["nonSeqFull","nonSeqPartial","seqNoFeedback","seqFeedback"],"classroomPairings":[["A","B"],["C","D"]],"coinWeights":[0.2,0.5,0.8],"subjectId":"A2VNSNAN1LZBAM","assignmentId":"35L9RVQFCP425DZNUUPNKRCYQ8AHUF","hitId":"3E9VAUV7BW02QFDK7N7IH7ZKACRYAN","url":"https://gershmanlab.com/experiments/alicia/teaching/experiment/?hitId=3E9VAUV7BW02QFDK7N7IH7ZKACRYAN&workerId=A2VNSNAN1LZBAM&assignmentId=35L9RVQFCP425DZNUUPNKRCYQ8AHUF&a=FRL59&tp_a=FRL59&b=35L9RVQFCP425DZNUUPNKRCYQ8AHUF&tp_b=35L9RVQFCP425DZNUUPNKRCYQ8AHUF&c=365799&tp_c=365799","heads":20,"tails":5,"studentIndex":6,"studentTrueHypers":{"a":1,"b":4},"studentGuess":0.7,"delta":0.49999999999999994,"totalExamples":25,"bonusSoFar":0.25},{"rt":12069,"response":{"heads":"20","tails":"5"},"type":"response","condition":"seqNoFeedback","trueTheta":0.2,"classrooms":["A","B"],"studentTrueClassroom":"A","exampleSet":"second","trial_type":"survey-html-form","trial_index":52,"time_elapsed":692163,"internal_node_id":"0.0-48.0-0.0","params":{"nStudents":24,"maxFlips":30,"completionMinutes":45,"basePay":8,"maxBonus":9,"perTrialBonus":0.5,"perTrialBonusThreshold":0.05,"exampleCost":0.01},"classroomParams":{"A":{"a":1,"b":4},"B":{"a":4,"b":1},"C":{"a":2,"b":8},"D":{"a":8,"b":2}},"conditions":["nonSeqFull","nonSeqPartial","seqNoFeedback","seqFeedback"],"classroomPairings":[["A","B"],["C","D"]],"coinWeights":[0.2,0.5,0.8],"subjectId":"A2VNSNAN1LZBAM","assignmentId":"35L9RVQFCP425DZNUUPNKRCYQ8AHUF","hitId":"3E9VAUV7BW02QFDK7N7IH7ZKACRYAN","url":"https://gershmanlab.com/experiments/alicia/teaching/experiment/?hitId=3E9VAUV7BW02QFDK7N7IH7ZKACRYAN&workerId=A2VNSNAN1LZBAM&assignmentId=35L9RVQFCP425DZNUUPNKRCYQ8AHUF&a=FRL59&tp_a=FRL59&b=35L9RVQFCP425DZNUUPNKRCYQ8AHUF&tp_b=35L9RVQFCP425DZNUUPNKRCYQ8AHUF&c=365799&tp_c=365799","firstResponseHeads":20,"firstResponseTails":5,"secondResponseHeads":20,"secondResponseTails":5,"totalHeads":40,"totalTails":10,"studentIndex":6,"studentTrueHypers":{"a":1,"b":4},"studentGuess":0.7454545454545455,"delta":0.5454545454545454,"bonus":0,"bonusSoFar":0.25,"totalExamples":50},{"rt":8378,"response":{"heads":"12","tails":"8"},"type":"response","condition":"seqNoFeedback","trueTheta":0.5,"classrooms":["C","D"],"studentTrueClassroom":"C","exampleSet":"first","trial_type":"survey-html-form","trial_index":58,"time_elapsed":718782,"internal_node_id":"0.0-54.0-0.0","params":{"nStudents":24,"maxFlips":30,"completionMinutes":45,"basePay":8,"maxBonus":9,"perTrialBonus":0.5,"perTrialBonusThreshold":0.05,"exampleCost":0.01},"classroomParams":{"A":{"a":1,"b":4},"B":{"a":4,"b":1},"C":{"a":2,"b":8},"D":{"a":8,"b":2}},"conditions":["nonSeqFull","nonSeqPartial","seqNoFeedback","seqFeedback"],"classroomPairings":[["A","B"],["C","D"]],"coinWeights":[0.2,0.5,0.8],"subjectId":"A2VNSNAN1LZBAM","assignmentId":"35L9RVQFCP425DZNUUPNKRCYQ8AHUF","hitId":"3E9VAUV7BW02QFDK7N7IH7ZKACRYAN","url":"https://gershmanlab.com/experiments/alicia/teaching/experiment/?hitId=3E9VAUV7BW02QFDK7N7IH7ZKACRYAN&workerId=A2VNSNAN1LZBAM&assignmentId=35L9RVQFCP425DZNUUPNKRCYQ8AHUF&a=FRL59&tp_a=FRL59&b=35L9RVQFCP425DZNUUPNKRCYQ8AHUF&tp_b=35L9RVQFCP425DZNUUPNKRCYQ8AHUF&c=365799&tp_c=365799","heads":12,"tails":8,"studentIndex":7,"studentTrueHypers":{"a":2,"b":8},"studentGuess":0.4666666666666667,"delta":0.033333333333333326,"totalExamples":20,"bonusSoFar":0.25},{"rt":14147,"response":{"heads":"10","tails":"15"},"type":"response","condition":"seqNoFeedback","trueTheta":0.5,"classrooms":["C","D"],"studentTrueClassroom":"C","exampleSet":"second","trial_type":"survey-html-form","trial_index":61,"time_elapsed":738965,"internal_node_id":"0.0-57.0-0.0","params":{"nStudents":24,"maxFlips":30,"completionMinutes":45,"basePay":8,"maxBonus":9,"perTrialBonus":0.5,"perTrialBonusThreshold":0.05,"exampleCost":0.01},"classroomParams":{"A":{"a":1,"b":4},"B":{"a":4,"b":1},"C":{"a":2,"b":8},"D":{"a":8,"b":2}},"conditions":["nonSeqFull","nonSeqPartial","seqNoFeedback","seqFeedback"],"classroomPairings":[["A","B"],["C","D"]],"coinWeights":[0.2,0.5,0.8],"subjectId":"A2VNSNAN1LZBAM","assignmentId":"35L9RVQFCP425DZNUUPNKRCYQ8AHUF","hitId":"3E9VAUV7BW02QFDK7N7IH7ZKACRYAN","url":"https://gershmanlab.com/experiments/alicia/teaching/experiment/?hitId=3E9VAUV7BW02QFDK7N7IH7ZKACRYAN&workerId=A2VNSNAN1LZBAM&assignmentId=35L9RVQFCP425DZNUUPNKRCYQ8AHUF&a=FRL59&tp_a=FRL59&b=35L9RVQFCP425DZNUUPNKRCYQ8AHUF&tp_b=35L9RVQFCP425DZNUUPNKRCYQ8AHUF&c=365799&tp_c=365799","firstResponseHeads":12,"firstResponseTails":8,"secondResponseHeads":10,"secondResponseTails":15,"totalHeads":22,"totalTails":23,"studentIndex":7,"studentTrueHypers":{"a":2,"b":8},"studentGuess":0.43636363636363634,"delta":0.06363636363636366,"bonus":0,"bonusSoFar":0.25,"totalExamples":45},{"rt":10569,"response":{"heads":"5","tails":"15"},"type":"response","condition":"nonSeqFull","trueTheta":0.2,"classrooms":["A","B"],"studentTrueClassroom":"B","exampleSet":"first","trial_type":"survey-html-form","trial_index":67,"time_elapsed":762553,"internal_node_id":"0.0-63.0-0.0","params":{"nStudents":24,"maxFlips":30,"completionMinutes":45,"basePay":8,"maxBonus":9,"perTrialBonus":0.5,"perTrialBonusThreshold":0.05,"exampleCost":0.01},"classroomParams":{"A":{"a":1,"b":4},"B":{"a":4,"b":1},"C":{"a":2,"b":8},"D":{"a":8,"b":2}},"conditions":["nonSeqFull","nonSeqPartial","seqNoFeedback","seqFeedback"],"classroomPairings":[["A","B"],["C","D"]],"coinWeights":[0.2,0.5,0.8],"subjectId":"A2VNSNAN1LZBAM","assignmentId":"35L9RVQFCP425DZNUUPNKRCYQ8AHUF","hitId":"3E9VAUV7BW02QFDK7N7IH7ZKACRYAN","url":"https://gershmanlab.com/experiments/alicia/teaching/experiment/?hitId=3E9VAUV7BW02QFDK7N7IH7ZKACRYAN&workerId=A2VNSNAN1LZBAM&assignmentId=35L9RVQFCP425DZNUUPNKRCYQ8AHUF&a=FRL59&tp_a=FRL59&b=35L9RVQFCP425DZNUUPNKRCYQ8AHUF&tp_b=35L9RVQFCP425DZNUUPNKRCYQ8AHUF&c=365799&tp_c=365799","heads":5,"tails":15,"studentIndex":8,"studentTrueHypers":{"a":4,"b":1},"studentGuess":0.36,"delta":0.15999999999999998,"totalExamples":20,"bonus":0,"bonusSoFar":0.25},{"rt":16103,"response":{"heads":"15","tails":"15"},"type":"response","condition":"nonSeqPartial","trueTheta":0.5,"classrooms":["A","B"],"studentTrueClassroom":"A","exampleSet":"first","trial_type":"survey-html-form","trial_index":73,"time_elapsed":793907,"internal_node_id":"0.0-69.0-0.0","params":{"nStudents":24,"maxFlips":30,"completionMinutes":45,"basePay":8,"maxBonus":9,"perTrialBonus":0.5,"perTrialBonusThreshold":0.05,"exampleCost":0.01},"classroomParams":{"A":{"a":1,"b":4},"B":{"a":4,"b":1},"C":{"a":2,"b":8},"D":{"a":8,"b":2}},"conditions":["nonSeqFull","nonSeqPartial","seqNoFeedback","seqFeedback"],"classroomPairings":[["A","B"],["C","D"]],"coinWeights":[0.2,0.5,0.8],"subjectId":"A2VNSNAN1LZBAM","assignmentId":"35L9RVQFCP425DZNUUPNKRCYQ8AHUF","hitId":"3E9VAUV7BW02QFDK7N7IH7ZKACRYAN","url":"https://gershmanlab.com/experiments/alicia/teaching/experiment/?hitId=3E9VAUV7BW02QFDK7N7IH7ZKACRYAN&workerId=A2VNSNAN1LZBAM&assignmentId=35L9RVQFCP425DZNUUPNKRCYQ8AHUF&a=FRL59&tp_a=FRL59&b=35L9RVQFCP425DZNUUPNKRCYQ8AHUF&tp_b=35L9RVQFCP425DZNUUPNKRCYQ8AHUF&c=365799&tp_c=365799","heads":15,"tails":15,"studentIndex":9,"studentTrueHypers":{"a":1,"b":4},"studentGuess":0.45714285714285713,"delta":0.04285714285714287,"totalExamples":30,"bonus":0.2,"bonusSoFar":0.45},{"rt":12064,"response":{"heads":"8","tails":"10"},"type":"response","condition":"nonSeqPartial","trueTheta":0.5,"classrooms":["C","D"],"studentTrueClassroom":"D","exampleSet":"first","trial_type":"survey-html-form","trial_index":79,"time_elapsed":821518,"internal_node_id":"0.0-75.0-0.0","params":{"nStudents":24,"maxFlips":30,"completionMinutes":45,"basePay":8,"maxBonus":9,"perTrialBonus":0.5,"perTrialBonusThreshold":0.05,"exampleCost":0.01},"classroomParams":{"A":{"a":1,"b":4},"B":{"a":4,"b":1},"C":{"a":2,"b":8},"D":{"a":8,"b":2}},"conditions":["nonSeqFull","nonSeqPartial","seqNoFeedback","seqFeedback"],"classroomPairings":[["A","B"],["C","D"]],"coinWeights":[0.2,0.5,0.8],"subjectId":"A2VNSNAN1LZBAM","assignmentId":"35L9RVQFCP425DZNUUPNKRCYQ8AHUF","hitId":"3E9VAUV7BW02QFDK7N7IH7ZKACRYAN","url":"https://gershmanlab.com/experiments/alicia/teaching/experiment/?hitId=3E9VAUV7BW02QFDK7N7IH7ZKACRYAN&workerId=A2VNSNAN1LZBAM&assignmentId=35L9RVQFCP425DZNUUPNKRCYQ8AHUF&a=FRL59&tp_a=FRL59&b=35L9RVQFCP425DZNUUPNKRCYQ8AHUF&tp_b=35L9RVQFCP425DZNUUPNKRCYQ8AHUF&c=365799&tp_c=365799","heads":8,"tails":10,"studentIndex":10,"studentTrueHypers":{"a":8,"b":2},"studentGuess":0.5714285714285714,"delta":0.0714285714285714,"totalExamples":18,"bonus":0,"bonusSoFar":0.45},{"rt":5484,"response":{"heads":"5","tails":"5"},"type":"response","condition":"seqNoFeedback","trueTheta":0.5,"classrooms":["A","B"],"studentTrueClassroom":"B","exampleSet":"first","trial_type":"survey-html-form","trial_index":85,"time_elapsed":841261,"internal_node_id":"0.0-81.0-0.0","params":{"nStudents":24,"maxFlips":30,"completionMinutes":45,"basePay":8,"maxBonus":9,"perTrialBonus":0.5,"perTrialBonusThreshold":0.05,"exampleCost":0.01},"classroomParams":{"A":{"a":1,"b":4},"B":{"a":4,"b":1},"C":{"a":2,"b":8},"D":{"a":8,"b":2}},"conditions":["nonSeqFull","nonSeqPartial","seqNoFeedback","seqFeedback"],"classroomPairings":[["A","B"],["C","D"]],"coinWeights":[0.2,0.5,0.8],"subjectId":"A2VNSNAN1LZBAM","assignmentId":"35L9RVQFCP425DZNUUPNKRCYQ8AHUF","hitId":"3E9VAUV7BW02QFDK7N7IH7ZKACRYAN","url":"https://gershmanlab.com/experiments/alicia/teaching/experiment/?hitId=3E9VAUV7BW02QFDK7N7IH7ZKACRYAN&workerId=A2VNSNAN1LZBAM&assignmentId=35L9RVQFCP425DZNUUPNKRCYQ8AHUF&a=FRL59&tp_a=FRL59&b=35L9RVQFCP425DZNUUPNKRCYQ8AHUF&tp_b=35L9RVQFCP425DZNUUPNKRCYQ8AHUF&c=365799&tp_c=365799","heads":5,"tails":5,"studentIndex":11,"studentTrueHypers":{"a":4,"b":1},"studentGuess":0.6,"delta":0.09999999999999998,"totalExamples":10,"bonusSoFar":0.45},{"rt":9911,"response":{"heads":"5","tails":"5"},"type":"response","condition":"seqNoFeedback","trueTheta":0.5,"classrooms":["A","B"],"studentTrueClassroom":"B","exampleSet":"second","trial_type":"survey-html-form","trial_index":88,"time_elapsed":858950,"internal_node_id":"0.0-84.0-0.0","params":{"nStudents":24,"maxFlips":30,"completionMinutes":45,"basePay":8,"maxBonus":9,"perTrialBonus":0.5,"perTrialBonusThreshold":0.05,"exampleCost":0.01},"classroomParams":{"A":{"a":1,"b":4},"B":{"a":4,"b":1},"C":{"a":2,"b":8},"D":{"a":8,"b":2}},"conditions":["nonSeqFull","nonSeqPartial","seqNoFeedback","seqFeedback"],"classroomPairings":[["A","B"],["C","D"]],"coinWeights":[0.2,0.5,0.8],"subjectId":"A2VNSNAN1LZBAM","assignmentId":"35L9RVQFCP425DZNUUPNKRCYQ8AHUF","hitId":"3E9VAUV7BW02QFDK7N7IH7ZKACRYAN","url":"https://gershmanlab.com/experiments/alicia/teaching/experiment/?hitId=3E9VAUV7BW02QFDK7N7IH7ZKACRYAN&workerId=A2VNSNAN1LZBAM&assignmentId=35L9RVQFCP425DZNUUPNKRCYQ8AHUF&a=FRL59&tp_a=FRL59&b=35L9RVQFCP425DZNUUPNKRCYQ8AHUF&tp_b=35L9RVQFCP425DZNUUPNKRCYQ8AHUF&c=365799&tp_c=365799","firstResponseHeads":5,"firstResponseTails":5,"secondResponseHeads":5,"secondResponseTails":5,"totalHeads":10,"totalTails":10,"studentIndex":11,"studentTrueHypers":{"a":4,"b":1},"studentGuess":0.56,"delta":0.06000000000000005,"bonus":0,"bonusSoFar":0.45,"totalExamples":20},{"rt":7403,"response":{"heads":"5","tails":"5"},"type":"response","condition":"seqNoFeedback","trueTheta":0.8,"classrooms":["A","B"],"studentTrueClassroom":"B","exampleSet":"first","trial_type":"survey-html-form","trial_index":94,"time_elapsed":882203,"internal_node_id":"0.0-90.0-0.0","params":{"nStudents":24,"maxFlips":30,"completionMinutes":45,"basePay":8,"maxBonus":9,"perTrialBonus":0.5,"perTrialBonusThreshold":0.05,"exampleCost":0.01},"classroomParams":{"A":{"a":1,"b":4},"B":{"a":4,"b":1},"C":{"a":2,"b":8},"D":{"a":8,"b":2}},"conditions":["nonSeqFull","nonSeqPartial","seqNoFeedback","seqFeedback"],"classroomPairings":[["A","B"],["C","D"]],"coinWeights":[0.2,0.5,0.8],"subjectId":"A2VNSNAN1LZBAM","assignmentId":"35L9RVQFCP425DZNUUPNKRCYQ8AHUF","hitId":"3E9VAUV7BW02QFDK7N7IH7ZKACRYAN","url":"https://gershmanlab.com/experiments/alicia/teaching/experiment/?hitId=3E9VAUV7BW02QFDK7N7IH7ZKACRYAN&workerId=A2VNSNAN1LZBAM&assignmentId=35L9RVQFCP425DZNUUPNKRCYQ8AHUF&a=FRL59&tp_a=FRL59&b=35L9RVQFCP425DZNUUPNKRCYQ8AHUF&tp_b=35L9RVQFCP425DZNUUPNKRCYQ8AHUF&c=365799&tp_c=365799","heads":5,"tails":5,"studentIndex":12,"studentTrueHypers":{"a":4,"b":1},"studentGuess":0.6,"delta":0.20000000000000007,"totalExamples":10,"bonusSoFar":0.45},{"rt":6443,"response":{"heads":"5","tails":"5"},"type":"response","condition":"seqNoFeedback","trueTheta":0.8,"classrooms":["A","B"],"studentTrueClassroom":"B","exampleSet":"second","trial_type":"survey-html-form","trial_index":97,"time_elapsed":896405,"internal_node_id":"0.0-93.0-0.0","params":{"nStudents":24,"maxFlips":30,"completionMinutes":45,"basePay":8,"maxBonus":9,"perTrialBonus":0.5,"perTrialBonusThreshold":0.05,"exampleCost":0.01},"classroomParams":{"A":{"a":1,"b":4},"B":{"a":4,"b":1},"C":{"a":2,"b":8},"D":{"a":8,"b":2}},"conditions":["nonSeqFull","nonSeqPartial","seqNoFeedback","seqFeedback"],"classroomPairings":[["A","B"],["C","D"]],"coinWeights":[0.2,0.5,0.8],"subjectId":"A2VNSNAN1LZBAM","assignmentId":"35L9RVQFCP425DZNUUPNKRCYQ8AHUF","hitId":"3E9VAUV7BW02QFDK7N7IH7ZKACRYAN","url":"https://gershmanlab.com/experiments/alicia/teaching/experiment/?hitId=3E9VAUV7BW02QFDK7N7IH7ZKACRYAN&workerId=A2VNSNAN1LZBAM&assignmentId=35L9RVQFCP425DZNUUPNKRCYQ8AHUF&a=FRL59&tp_a=FRL59&b=35L9RVQFCP425DZNUUPNKRCYQ8AHUF&tp_b=35L9RVQFCP425DZNUUPNKRCYQ8AHUF&c=365799&tp_c=365799","firstResponseHeads":5,"firstResponseTails":5,"secondResponseHeads":5,"secondResponseTails":5,"totalHeads":10,"totalTails":10,"studentIndex":12,"studentTrueHypers":{"a":4,"b":1},"studentGuess":0.56,"delta":0.24,"bonus":0,"bonusSoFar":0.45,"totalExamples":20},{"rt":12186,"response":{"heads":"10","tails":"10"},"type":"response","condition":"seqFeedback","trueTheta":0.8,"classrooms":["A","B"],"studentTrueClassroom":"B","exampleSet":"first","trial_type":"survey-html-form","trial_index":103,"time_elapsed":931149,"internal_node_id":"0.0-99.0-0.0","params":{"nStudents":24,"maxFlips":30,"completionMinutes":45,"basePay":8,"maxBonus":9,"perTrialBonus":0.5,"perTrialBonusThreshold":0.05,"exampleCost":0.01},"classroomParams":{"A":{"a":1,"b":4},"B":{"a":4,"b":1},"C":{"a":2,"b":8},"D":{"a":8,"b":2}},"conditions":["nonSeqFull","nonSeqPartial","seqNoFeedback","seqFeedback"],"classroomPairings":[["A","B"],["C","D"]],"coinWeights":[0.2,0.5,0.8],"subjectId":"A2VNSNAN1LZBAM","assignmentId":"35L9RVQFCP425DZNUUPNKRCYQ8AHUF","hitId":"3E9VAUV7BW02QFDK7N7IH7ZKACRYAN","url":"https://gershmanlab.com/experiments/alicia/teaching/experiment/?hitId=3E9VAUV7BW02QFDK7N7IH7ZKACRYAN&workerId=A2VNSNAN1LZBAM&assignmentId=35L9RVQFCP425DZNUUPNKRCYQ8AHUF&a=FRL59&tp_a=FRL59&b=35L9RVQFCP425DZNUUPNKRCYQ8AHUF&tp_b=35L9RVQFCP425DZNUUPNKRCYQ8AHUF&c=365799&tp_c=365799","heads":10,"tails":10,"studentIndex":13,"studentTrueHypers":{"a":4,"b":1},"studentGuess":0.56,"delta":0.24,"totalExamples":20,"bonusSoFar":0.45},{"rt":9043,"response":{"heads":"10","tails":"10"},"type":"response","condition":"seqFeedback","trueTheta":0.8,"classrooms":["A","B"],"studentTrueClassroom":"B","exampleSet":"second","trial_type":"survey-html-form","trial_index":107,"time_elapsed":956512,"internal_node_id":"0.0-103.0-0.0","params":{"nStudents":24,"maxFlips":30,"completionMinutes":45,"basePay":8,"maxBonus":9,"perTrialBonus":0.5,"perTrialBonusThreshold":0.05,"exampleCost":0.01},"classroomParams":{"A":{"a":1,"b":4},"B":{"a":4,"b":1},"C":{"a":2,"b":8},"D":{"a":8,"b":2}},"conditions":["nonSeqFull","nonSeqPartial","seqNoFeedback","seqFeedback"],"classroomPairings":[["A","B"],["C","D"]],"coinWeights":[0.2,0.5,0.8],"subjectId":"A2VNSNAN1LZBAM","assignmentId":"35L9RVQFCP425DZNUUPNKRCYQ8AHUF","hitId":"3E9VAUV7BW02QFDK7N7IH7ZKACRYAN","url":"https://gershmanlab.com/experiments/alicia/teaching/experiment/?hitId=3E9VAUV7BW02QFDK7N7IH7ZKACRYAN&workerId=A2VNSNAN1LZBAM&assignmentId=35L9RVQFCP425DZNUUPNKRCYQ8AHUF&a=FRL59&tp_a=FRL59&b=35L9RVQFCP425DZNUUPNKRCYQ8AHUF&tp_b=35L9RVQFCP425DZNUUPNKRCYQ8AHUF&c=365799&tp_c=365799","firstResponseHeads":10,"firstResponseTails":10,"secondResponseHeads":10,"secondResponseTails":10,"totalHeads":20,"totalTails":20,"studentIndex":13,"studentTrueHypers":{"a":4,"b":1},"studentGuess":0.5333333333333333,"delta":0.2666666666666667,"bonus":0,"bonusSoFar":0.45,"totalExamples":40},{"rt":7806,"response":{"heads":"8","tails":"8"},"type":"response","condition":"seqNoFeedback","trueTheta":0.2,"classrooms":["C","D"],"studentTrueClassroom":"C","exampleSet":"first","trial_type":"survey-html-form","trial_index":113,"time_elapsed":979782,"internal_node_id":"0.0-109.0-0.0","params":{"nStudents":24,"maxFlips":30,"completionMinutes":45,"basePay":8,"maxBonus":9,"perTrialBonus":0.5,"perTrialBonusThreshold":0.05,"exampleCost":0.01},"classroomParams":{"A":{"a":1,"b":4},"B":{"a":4,"b":1},"C":{"a":2,"b":8},"D":{"a":8,"b":2}},"conditions":["nonSeqFull","nonSeqPartial","seqNoFeedback","seqFeedback"],"classroomPairings":[["A","B"],["C","D"]],"coinWeights":[0.2,0.5,0.8],"subjectId":"A2VNSNAN1LZBAM","assignmentId":"35L9RVQFCP425DZNUUPNKRCYQ8AHUF","hitId":"3E9VAUV7BW02QFDK7N7IH7ZKACRYAN","url":"https://gershmanlab.com/experiments/alicia/teaching/experiment/?hitId=3E9VAUV7BW02QFDK7N7IH7ZKACRYAN&workerId=A2VNSNAN1LZBAM&assignmentId=35L9RVQFCP425DZNUUPNKRCYQ8AHUF&a=FRL59&tp_a=FRL59&b=35L9RVQFCP425DZNUUPNKRCYQ8AHUF&tp_b=35L9RVQFCP425DZNUUPNKRCYQ8AHUF&c=365799&tp_c=365799","heads":8,"tails":8,"studentIndex":14,"studentTrueHypers":{"a":2,"b":8},"studentGuess":0.38461538461538464,"delta":0.18461538461538463,"totalExamples":16,"bonusSoFar":0.45},{"rt":7010,"response":{"heads":"5","tails":"5"},"type":"response","condition":"seqNoFeedback","trueTheta":0.2,"classrooms":["C","D"],"studentTrueClassroom":"C","exampleSet":"second","trial_type":"survey-html-form","trial_index":116,"time_elapsed":993799,"internal_node_id":"0.0-112.0-0.0","params":{"nStudents":24,"maxFlips":30,"completionMinutes":45,"basePay":8,"maxBonus":9,"perTrialBonus":0.5,"perTrialBonusThreshold":0.05,"exampleCost":0.01},"classroomParams":{"A":{"a":1,"b":4},"B":{"a":4,"b":1},"C":{"a":2,"b":8},"D":{"a":8,"b":2}},"conditions":["nonSeqFull","nonSeqPartial","seqNoFeedback","seqFeedback"],"classroomPairings":[["A","B"],["C","D"]],"coinWeights":[0.2,0.5,0.8],"subjectId":"A2VNSNAN1LZBAM","assignmentId":"35L9RVQFCP425DZNUUPNKRCYQ8AHUF","hitId":"3E9VAUV7BW02QFDK7N7IH7ZKACRYAN","url":"https://gershmanlab.com/experiments/alicia/teaching/experiment/?hitId=3E9VAUV7BW02QFDK7N7IH7ZKACRYAN&workerId=A2VNSNAN1LZBAM&assignmentId=35L9RVQFCP425DZNUUPNKRCYQ8AHUF&a=FRL59&tp_a=FRL59&b=35L9RVQFCP425DZNUUPNKRCYQ8AHUF&tp_b=35L9RVQFCP425DZNUUPNKRCYQ8AHUF&c=365799&tp_c=365799","firstResponseHeads":8,"firstResponseTails":8,"secondResponseHeads":5,"secondResponseTails":5,"totalHeads":13,"totalTails":13,"studentIndex":14,"studentTrueHypers":{"a":2,"b":8},"studentGuess":0.4166666666666667,"delta":0.21666666666666667,"bonus":0,"bonusSoFar":0.45,"totalExamples":26},{"rt":7108,"response":{"heads":"12","tails":"12"},"type":"response","condition":"seqFeedback","trueTheta":0.2,"classrooms":["C","D"],"studentTrueClassroom":"D","exampleSet":"first","trial_type":"survey-html-form","trial_index":122,"time_elapsed":1017205,"internal_node_id":"0.0-118.0-0.0","params":{"nStudents":24,"maxFlips":30,"completionMinutes":45,"basePay":8,"maxBonus":9,"perTrialBonus":0.5,"perTrialBonusThreshold":0.05,"exampleCost":0.01},"classroomParams":{"A":{"a":1,"b":4},"B":{"a":4,"b":1},"C":{"a":2,"b":8},"D":{"a":8,"b":2}},"conditions":["nonSeqFull","nonSeqPartial","seqNoFeedback","seqFeedback"],"classroomPairings":[["A","B"],["C","D"]],"coinWeights":[0.2,0.5,0.8],"subjectId":"A2VNSNAN1LZBAM","assignmentId":"35L9RVQFCP425DZNUUPNKRCYQ8AHUF","hitId":"3E9VAUV7BW02QFDK7N7IH7ZKACRYAN","url":"https://gershmanlab.com/experiments/alicia/teaching/experiment/?hitId=3E9VAUV7BW02QFDK7N7IH7ZKACRYAN&workerId=A2VNSNAN1LZBAM&assignmentId=35L9RVQFCP425DZNUUPNKRCYQ8AHUF&a=FRL59&tp_a=FRL59&b=35L9RVQFCP425DZNUUPNKRCYQ8AHUF&tp_b=35L9RVQFCP425DZNUUPNKRCYQ8AHUF&c=365799&tp_c=365799","heads":12,"tails":12,"studentIndex":15,"studentTrueHypers":{"a":8,"b":2},"studentGuess":0.5882352941176471,"delta":0.38823529411764707,"totalExamples":24,"bonusSoFar":0.45},{"rt":8717,"response":{"heads":"5","tails":"5"},"type":"response","condition":"seqFeedback","trueTheta":0.2,"classrooms":["C","D"],"studentTrueClassroom":"D","exampleSet":"second","trial_type":"survey-html-form","trial_index":126,"time_elapsed":1038218,"internal_node_id":"0.0-122.0-0.0","params":{"nStudents":24,"maxFlips":30,"completionMinutes":45,"basePay":8,"maxBonus":9,"perTrialBonus":0.5,"perTrialBonusThreshold":0.05,"exampleCost":0.01},"classroomParams":{"A":{"a":1,"b":4},"B":{"a":4,"b":1},"C":{"a":2,"b":8},"D":{"a":8,"b":2}},"conditions":["nonSeqFull","nonSeqPartial","seqNoFeedback","seqFeedback"],"classroomPairings":[["A","B"],["C","D"]],"coinWeights":[0.2,0.5,0.8],"subjectId":"A2VNSNAN1LZBAM","assignmentId":"35L9RVQFCP425DZNUUPNKRCYQ8AHUF","hitId":"3E9VAUV7BW02QFDK7N7IH7ZKACRYAN","url":"https://gershmanlab.com/experiments/alicia/teaching/experiment/?hitId=3E9VAUV7BW02QFDK7N7IH7ZKACRYAN&workerId=A2VNSNAN1LZBAM&assignmentId=35L9RVQFCP425DZNUUPNKRCYQ8AHUF&a=FRL59&tp_a=FRL59&b=35L9RVQFCP425DZNUUPNKRCYQ8AHUF&tp_b=35L9RVQFCP425DZNUUPNKRCYQ8AHUF&c=365799&tp_c=365799","firstResponseHeads":12,"firstResponseTails":12,"secondResponseHeads":5,"secondResponseTails":5,"totalHeads":17,"totalTails":17,"studentIndex":15,"studentTrueHypers":{"a":8,"b":2},"studentGuess":0.5681818181818182,"delta":0.3681818181818182,"bonus":0,"bonusSoFar":0.45,"totalExamples":34},{"rt":6021,"response":{"heads":"8","tails":"8"},"type":"response","condition":"seqFeedback","trueTheta":0.8,"classrooms":["C","D"],"studentTrueClassroom":"D","exampleSet":"first","trial_type":"survey-html-form","trial_index":132,"time_elapsed":1061512,"internal_node_id":"0.0-128.0-0.0","params":{"nStudents":24,"maxFlips":30,"completionMinutes":45,"basePay":8,"maxBonus":9,"perTrialBonus":0.5,"perTrialBonusThreshold":0.05,"exampleCost":0.01},"classroomParams":{"A":{"a":1,"b":4},"B":{"a":4,"b":1},"C":{"a":2,"b":8},"D":{"a":8,"b":2}},"conditions":["nonSeqFull","nonSeqPartial","seqNoFeedback","seqFeedback"],"classroomPairings":[["A","B"],["C","D"]],"coinWeights":[0.2,0.5,0.8],"subjectId":"A2VNSNAN1LZBAM","assignmentId":"35L9RVQFCP425DZNUUPNKRCYQ8AHUF","hitId":"3E9VAUV7BW02QFDK7N7IH7ZKACRYAN","url":"https://gershmanlab.com/experiments/alicia/teaching/experiment/?hitId=3E9VAUV7BW02QFDK7N7IH7ZKACRYAN&workerId=A2VNSNAN1LZBAM&assignmentId=35L9RVQFCP425DZNUUPNKRCYQ8AHUF&a=FRL59&tp_a=FRL59&b=35L9RVQFCP425DZNUUPNKRCYQ8AHUF&tp_b=35L9RVQFCP425DZNUUPNKRCYQ8AHUF&c=365799&tp_c=365799","heads":8,"tails":8,"studentIndex":16,"studentTrueHypers":{"a":8,"b":2},"studentGuess":0.6153846153846154,"delta":0.18461538461538463,"totalExamples":16,"bonusSoFar":0.45},{"rt":5974,"response":{"heads":"4","tails":"4"},"type":"response","condition":"seqFeedback","trueTheta":0.8,"classrooms":["C","D"],"studentTrueClassroom":"D","exampleSet":"second","trial_type":"survey-html-form","trial_index":136,"time_elapsed":1076969,"internal_node_id":"0.0-132.0-0.0","params":{"nStudents":24,"maxFlips":30,"completionMinutes":45,"basePay":8,"maxBonus":9,"perTrialBonus":0.5,"perTrialBonusThreshold":0.05,"exampleCost":0.01},"classroomParams":{"A":{"a":1,"b":4},"B":{"a":4,"b":1},"C":{"a":2,"b":8},"D":{"a":8,"b":2}},"conditions":["nonSeqFull","nonSeqPartial","seqNoFeedback","seqFeedback"],"classroomPairings":[["A","B"],["C","D"]],"coinWeights":[0.2,0.5,0.8],"subjectId":"A2VNSNAN1LZBAM","assignmentId":"35L9RVQFCP425DZNUUPNKRCYQ8AHUF","hitId":"3E9VAUV7BW02QFDK7N7IH7ZKACRYAN","url":"https://gershmanlab.com/experiments/alicia/teaching/experiment/?hitId=3E9VAUV7BW02QFDK7N7IH7ZKACRYAN&workerId=A2VNSNAN1LZBAM&assignmentId=35L9RVQFCP425DZNUUPNKRCYQ8AHUF&a=FRL59&tp_a=FRL59&b=35L9RVQFCP425DZNUUPNKRCYQ8AHUF&tp_b=35L9RVQFCP425DZNUUPNKRCYQ8AHUF&c=365799&tp_c=365799","firstResponseHeads":8,"firstResponseTails":8,"secondResponseHeads":4,"secondResponseTails":4,"totalHeads":12,"totalTails":12,"studentIndex":16,"studentTrueHypers":{"a":8,"b":2},"studentGuess":0.5882352941176471,"delta":0.21176470588235297,"bonus":0,"bonusSoFar":0.45,"totalExamples":24},{"rt":5564,"response":{"heads":"2","tails":"2"},"type":"response","condition":"nonSeqPartial","trueTheta":0.8,"classrooms":["A","B"],"studentTrueClassroom":"A","exampleSet":"first","trial_type":"survey-html-form","trial_index":142,"time_elapsed":1098175,"internal_node_id":"0.0-138.0-0.0","params":{"nStudents":24,"maxFlips":30,"completionMinutes":45,"basePay":8,"maxBonus":9,"perTrialBonus":0.5,"perTrialBonusThreshold":0.05,"exampleCost":0.01},"classroomParams":{"A":{"a":1,"b":4},"B":{"a":4,"b":1},"C":{"a":2,"b":8},"D":{"a":8,"b":2}},"conditions":["nonSeqFull","nonSeqPartial","seqNoFeedback","seqFeedback"],"classroomPairings":[["A","B"],["C","D"]],"coinWeights":[0.2,0.5,0.8],"subjectId":"A2VNSNAN1LZBAM","assignmentId":"35L9RVQFCP425DZNUUPNKRCYQ8AHUF","hitId":"3E9VAUV7BW02QFDK7N7IH7ZKACRYAN","url":"https://gershmanlab.com/experiments/alicia/teaching/experiment/?hitId=3E9VAUV7BW02QFDK7N7IH7ZKACRYAN&workerId=A2VNSNAN1LZBAM&assignmentId=35L9RVQFCP425DZNUUPNKRCYQ8AHUF&a=FRL59&tp_a=FRL59&b=35L9RVQFCP425DZNUUPNKRCYQ8AHUF&tp_b=35L9RVQFCP425DZNUUPNKRCYQ8AHUF&c=365799&tp_c=365799","heads":2,"tails":2,"studentIndex":17,"studentTrueHypers":{"a":1,"b":4},"studentGuess":0.3333333333333333,"delta":0.46666666666666673,"totalExamples":4,"bonus":0,"bonusSoFar":0.45},{"rt":7523,"response":{"heads":"12","tails":"10"},"type":"response","condition":"nonSeqFull","trueTheta":0.2,"classrooms":["C","D"],"studentTrueClassroom":"C","exampleSet":"first","trial_type":"survey-html-form","trial_index":148,"time_elapsed":1118349,"internal_node_id":"0.0-144.0-0.0","params":{"nStudents":24,"maxFlips":30,"completionMinutes":45,"basePay":8,"maxBonus":9,"perTrialBonus":0.5,"perTrialBonusThreshold":0.05,"exampleCost":0.01},"classroomParams":{"A":{"a":1,"b":4},"B":{"a":4,"b":1},"C":{"a":2,"b":8},"D":{"a":8,"b":2}},"conditions":["nonSeqFull","nonSeqPartial","seqNoFeedback","seqFeedback"],"classroomPairings":[["A","B"],["C","D"]],"coinWeights":[0.2,0.5,0.8],"subjectId":"A2VNSNAN1LZBAM","assignmentId":"35L9RVQFCP425DZNUUPNKRCYQ8AHUF","hitId":"3E9VAUV7BW02QFDK7N7IH7ZKACRYAN","url":"https://gershmanlab.com/experiments/alicia/teaching/experiment/?hitId=3E9VAUV7BW02QFDK7N7IH7ZKACRYAN&workerId=A2VNSNAN1LZBAM&assignmentId=35L9RVQFCP425DZNUUPNKRCYQ8AHUF&a=FRL59&tp_a=FRL59&b=35L9RVQFCP425DZNUUPNKRCYQ8AHUF&tp_b=35L9RVQFCP425DZNUUPNKRCYQ8AHUF&c=365799&tp_c=365799","heads":12,"tails":10,"studentIndex":18,"studentTrueHypers":{"a":2,"b":8},"studentGuess":0.4375,"delta":0.2375,"totalExamples":22,"bonus":0,"bonusSoFar":0.45},{"rt":6267,"response":{"heads":"3","tails":"3"},"type":"response","condition":"seqFeedback","trueTheta":0.2,"classrooms":["A","B"],"studentTrueClassroom":"A","exampleSet":"first","trial_type":"survey-html-form","trial_index":154,"time_elapsed":1138124,"internal_node_id":"0.0-150.0-0.0","params":{"nStudents":24,"maxFlips":30,"completionMinutes":45,"basePay":8,"maxBonus":9,"perTrialBonus":0.5,"perTrialBonusThreshold":0.05,"exampleCost":0.01},"classroomParams":{"A":{"a":1,"b":4},"B":{"a":4,"b":1},"C":{"a":2,"b":8},"D":{"a":8,"b":2}},"conditions":["nonSeqFull","nonSeqPartial","seqNoFeedback","seqFeedback"],"classroomPairings":[["A","B"],["C","D"]],"coinWeights":[0.2,0.5,0.8],"subjectId":"A2VNSNAN1LZBAM","assignmentId":"35L9RVQFCP425DZNUUPNKRCYQ8AHUF","hitId":"3E9VAUV7BW02QFDK7N7IH7ZKACRYAN","url":"https://gershmanlab.com/experiments/alicia/teaching/experiment/?hitId=3E9VAUV7BW02QFDK7N7IH7ZKACRYAN&workerId=A2VNSNAN1LZBAM&assignmentId=35L9RVQFCP425DZNUUPNKRCYQ8AHUF&a=FRL59&tp_a=FRL59&b=35L9RVQFCP425DZNUUPNKRCYQ8AHUF&tp_b=35L9RVQFCP425DZNUUPNKRCYQ8AHUF&c=365799&tp_c=365799","heads":3,"tails":3,"studentIndex":19,"studentTrueHypers":{"a":1,"b":4},"studentGuess":0.36363636363636365,"delta":0.16363636363636364,"totalExamples":6,"bonusSoFar":0.45},{"rt":7070,"response":{"heads":"3","tails":"3"},"type":"response","condition":"seqFeedback","trueTheta":0.2,"classrooms":["A","B"],"studentTrueClassroom":"A","exampleSet":"second","trial_type":"survey-html-form","trial_index":158,"time_elapsed":1155189,"internal_node_id":"0.0-154.0-0.0","params":{"nStudents":24,"maxFlips":30,"completionMinutes":45,"basePay":8,"maxBonus":9,"perTrialBonus":0.5,"perTrialBonusThreshold":0.05,"exampleCost":0.01},"classroomParams":{"A":{"a":1,"b":4},"B":{"a":4,"b":1},"C":{"a":2,"b":8},"D":{"a":8,"b":2}},"conditions":["nonSeqFull","nonSeqPartial","seqNoFeedback","seqFeedback"],"classroomPairings":[["A","B"],["C","D"]],"coinWeights":[0.2,0.5,0.8],"subjectId":"A2VNSNAN1LZBAM","assignmentId":"35L9RVQFCP425DZNUUPNKRCYQ8AHUF","hitId":"3E9VAUV7BW02QFDK7N7IH7ZKACRYAN","url":"https://gershmanlab.com/experiments/alicia/teaching/experiment/?hitId=3E9VAUV7BW02QFDK7N7IH7ZKACRYAN&workerId=A2VNSNAN1LZBAM&assignmentId=35L9RVQFCP425DZNUUPNKRCYQ8AHUF&a=FRL59&tp_a=FRL59&b=35L9RVQFCP425DZNUUPNKRCYQ8AHUF&tp_b=35L9RVQFCP425DZNUUPNKRCYQ8AHUF&c=365799&tp_c=365799","firstResponseHeads":3,"firstResponseTails":3,"secondResponseHeads":3,"secondResponseTails":3,"totalHeads":6,"totalTails":6,"studentIndex":19,"studentTrueHypers":{"a":1,"b":4},"studentGuess":0.4117647058823529,"delta":0.2117647058823529,"bonus":0,"bonusSoFar":0.45,"totalExamples":12},{"rt":5564,"response":{"heads":"7","tails":"7"},"type":"response","condition":"nonSeqPartial","trueTheta":0.2,"classrooms":["C","D"],"studentTrueClassroom":"C","exampleSet":"first","trial_type":"survey-html-form","trial_index":164,"time_elapsed":1173541,"internal_node_id":"0.0-160.0-0.0","params":{"nStudents":24,"maxFlips":30,"completionMinutes":45,"basePay":8,"maxBonus":9,"perTrialBonus":0.5,"perTrialBonusThreshold":0.05,"exampleCost":0.01},"classroomParams":{"A":{"a":1,"b":4},"B":{"a":4,"b":1},"C":{"a":2,"b":8},"D":{"a":8,"b":2}},"conditions":["nonSeqFull","nonSeqPartial","seqNoFeedback","seqFeedback"],"classroomPairings":[["A","B"],["C","D"]],"coinWeights":[0.2,0.5,0.8],"subjectId":"A2VNSNAN1LZBAM","assignmentId":"35L9RVQFCP425DZNUUPNKRCYQ8AHUF","hitId":"3E9VAUV7BW02QFDK7N7IH7ZKACRYAN","url":"https://gershmanlab.com/experiments/alicia/teaching/experiment/?hitId=3E9VAUV7BW02QFDK7N7IH7ZKACRYAN&workerId=A2VNSNAN1LZBAM&assignmentId=35L9RVQFCP425DZNUUPNKRCYQ8AHUF&a=FRL59&tp_a=FRL59&b=35L9RVQFCP425DZNUUPNKRCYQ8AHUF&tp_b=35L9RVQFCP425DZNUUPNKRCYQ8AHUF&c=365799&tp_c=365799","heads":7,"tails":7,"studentIndex":20,"studentTrueHypers":{"a":2,"b":8},"studentGuess":0.375,"delta":0.175,"totalExamples":14,"bonus":0,"bonusSoFar":0.45},{"rt":5885,"response":{"heads":"5","tails":"5"},"type":"response","condition":"seqFeedback","trueTheta":0.5,"classrooms":["C","D"],"studentTrueClassroom":"D","exampleSet":"first","trial_type":"survey-html-form","trial_index":170,"time_elapsed":1193820,"internal_node_id":"0.0-166.0-0.0","params":{"nStudents":24,"maxFlips":30,"completionMinutes":45,"basePay":8,"maxBonus":9,"perTrialBonus":0.5,"perTrialBonusThreshold":0.05,"exampleCost":0.01},"classroomParams":{"A":{"a":1,"b":4},"B":{"a":4,"b":1},"C":{"a":2,"b":8},"D":{"a":8,"b":2}},"conditions":["nonSeqFull","nonSeqPartial","seqNoFeedback","seqFeedback"],"classroomPairings":[["A","B"],["C","D"]],"coinWeights":[0.2,0.5,0.8],"subjectId":"A2VNSNAN1LZBAM","assignmentId":"35L9RVQFCP425DZNUUPNKRCYQ8AHUF","hitId":"3E9VAUV7BW02QFDK7N7IH7ZKACRYAN","url":"https://gershmanlab.com/experiments/alicia/teaching/experiment/?hitId=3E9VAUV7BW02QFDK7N7IH7ZKACRYAN&workerId=A2VNSNAN1LZBAM&assignmentId=35L9RVQFCP425DZNUUPNKRCYQ8AHUF&a=FRL59&tp_a=FRL59&b=35L9RVQFCP425DZNUUPNKRCYQ8AHUF&tp_b=35L9RVQFCP425DZNUUPNKRCYQ8AHUF&c=365799&tp_c=365799","heads":5,"tails":5,"studentIndex":21,"studentTrueHypers":{"a":8,"b":2},"studentGuess":0.65,"delta":0.15000000000000002,"totalExamples":10,"bonusSoFar":0.45},{"rt":5399,"response":{"heads":"4","tails":"4"},"type":"response","condition":"seqFeedback","trueTheta":0.5,"classrooms":["C","D"],"studentTrueClassroom":"D","exampleSet":"second","trial_type":"survey-html-form","trial_index":174,"time_elapsed":1208084,"internal_node_id":"0.0-170.0-0.0","params":{"nStudents":24,"maxFlips":30,"completionMinutes":45,"basePay":8,"maxBonus":9,"perTrialBonus":0.5,"perTrialBonusThreshold":0.05,"exampleCost":0.01},"classroomParams":{"A":{"a":1,"b":4},"B":{"a":4,"b":1},"C":{"a":2,"b":8},"D":{"a":8,"b":2}},"conditions":["nonSeqFull","nonSeqPartial","seqNoFeedback","seqFeedback"],"classroomPairings":[["A","B"],["C","D"]],"coinWeights":[0.2,0.5,0.8],"subjectId":"A2VNSNAN1LZBAM","assignmentId":"35L9RVQFCP425DZNUUPNKRCYQ8AHUF","hitId":"3E9VAUV7BW02QFDK7N7IH7ZKACRYAN","url":"https://gershmanlab.com/experiments/alicia/teaching/experiment/?hitId=3E9VAUV7BW02QFDK7N7IH7ZKACRYAN&workerId=A2VNSNAN1LZBAM&assignmentId=35L9RVQFCP425DZNUUPNKRCYQ8AHUF&a=FRL59&tp_a=FRL59&b=35L9RVQFCP425DZNUUPNKRCYQ8AHUF&tp_b=35L9RVQFCP425DZNUUPNKRCYQ8AHUF&c=365799&tp_c=365799","firstResponseHeads":5,"firstResponseTails":5,"secondResponseHeads":4,"secondResponseTails":4,"totalHeads":9,"totalTails":9,"studentIndex":21,"studentTrueHypers":{"a":8,"b":2},"studentGuess":0.6071428571428571,"delta":0.1071428571428571,"bonus":0,"bonusSoFar":0.45,"totalExamples":18},{"rt":5483,"response":{"heads":"12","tails":"12"},"type":"response","condition":"seqFeedback","trueTheta":0.5,"classrooms":["A","B"],"studentTrueClassroom":"A","exampleSet":"first","trial_type":"survey-html-form","trial_index":180,"time_elapsed":1225428,"internal_node_id":"0.0-176.0-0.0","params":{"nStudents":24,"maxFlips":30,"completionMinutes":45,"basePay":8,"maxBonus":9,"perTrialBonus":0.5,"perTrialBonusThreshold":0.05,"exampleCost":0.01},"classroomParams":{"A":{"a":1,"b":4},"B":{"a":4,"b":1},"C":{"a":2,"b":8},"D":{"a":8,"b":2}},"conditions":["nonSeqFull","nonSeqPartial","seqNoFeedback","seqFeedback"],"classroomPairings":[["A","B"],["C","D"]],"coinWeights":[0.2,0.5,0.8],"subjectId":"A2VNSNAN1LZBAM","assignmentId":"35L9RVQFCP425DZNUUPNKRCYQ8AHUF","hitId":"3E9VAUV7BW02QFDK7N7IH7ZKACRYAN","url":"https://gershmanlab.com/experiments/alicia/teaching/experiment/?hitId=3E9VAUV7BW02QFDK7N7IH7ZKACRYAN&workerId=A2VNSNAN1LZBAM&assignmentId=35L9RVQFCP425DZNUUPNKRCYQ8AHUF&a=FRL59&tp_a=FRL59&b=35L9RVQFCP425DZNUUPNKRCYQ8AHUF&tp_b=35L9RVQFCP425DZNUUPNKRCYQ8AHUF&c=365799&tp_c=365799","heads":12,"tails":12,"studentIndex":22,"studentTrueHypers":{"a":1,"b":4},"studentGuess":0.4482758620689655,"delta":0.051724137931034475,"totalExamples":24,"bonusSoFar":0.45},{"rt":11332,"response":{"heads":"8","tails":"8"},"type":"response","condition":"seqFeedback","trueTheta":0.5,"classrooms":["A","B"],"studentTrueClassroom":"A","exampleSet":"second","trial_type":"survey-html-form","trial_index":184,"time_elapsed":1245163,"internal_node_id":"0.0-180.0-0.0","params":{"nStudents":24,"maxFlips":30,"completionMinutes":45,"basePay":8,"maxBonus":9,"perTrialBonus":0.5,"perTrialBonusThreshold":0.05,"exampleCost":0.01},"classroomParams":{"A":{"a":1,"b":4},"B":{"a":4,"b":1},"C":{"a":2,"b":8},"D":{"a":8,"b":2}},"conditions":["nonSeqFull","nonSeqPartial","seqNoFeedback","seqFeedback"],"classroomPairings":[["A","B"],["C","D"]],"coinWeights":[0.2,0.5,0.8],"subjectId":"A2VNSNAN1LZBAM","assignmentId":"35L9RVQFCP425DZNUUPNKRCYQ8AHUF","hitId":"3E9VAUV7BW02QFDK7N7IH7ZKACRYAN","url":"https://gershmanlab.com/experiments/alicia/teaching/experiment/?hitId=3E9VAUV7BW02QFDK7N7IH7ZKACRYAN&workerId=A2VNSNAN1LZBAM&assignmentId=35L9RVQFCP425DZNUUPNKRCYQ8AHUF&a=FRL59&tp_a=FRL59&b=35L9RVQFCP425DZNUUPNKRCYQ8AHUF&tp_b=35L9RVQFCP425DZNUUPNKRCYQ8AHUF&c=365799&tp_c=365799","firstResponseHeads":12,"firstResponseTails":12,"secondResponseHeads":8,"secondResponseTails":8,"totalHeads":20,"totalTails":20,"studentIndex":22,"studentTrueHypers":{"a":1,"b":4},"studentGuess":0.4666666666666667,"delta":0.033333333333333326,"bonus":0.1,"bonusSoFar":0.55,"totalExamples":40},{"rt":5315,"response":{"heads":"6","tails":"6"},"type":"response","condition":"nonSeqFull","trueTheta":0.5,"classrooms":["A","B"],"studentTrueClassroom":"A","exampleSet":"first","trial_type":"survey-html-form","trial_index":190,"time_elapsed":1262435,"internal_node_id":"0.0-186.0-0.0","params":{"nStudents":24,"maxFlips":30,"completionMinutes":45,"basePay":8,"maxBonus":9,"perTrialBonus":0.5,"perTrialBonusThreshold":0.05,"exampleCost":0.01},"classroomParams":{"A":{"a":1,"b":4},"B":{"a":4,"b":1},"C":{"a":2,"b":8},"D":{"a":8,"b":2}},"conditions":["nonSeqFull","nonSeqPartial","seqNoFeedback","seqFeedback"],"classroomPairings":[["A","B"],["C","D"]],"coinWeights":[0.2,0.5,0.8],"subjectId":"A2VNSNAN1LZBAM","assignmentId":"35L9RVQFCP425DZNUUPNKRCYQ8AHUF","hitId":"3E9VAUV7BW02QFDK7N7IH7ZKACRYAN","url":"https://gershmanlab.com/experiments/alicia/teaching/experiment/?hitId=3E9VAUV7BW02QFDK7N7IH7ZKACRYAN&workerId=A2VNSNAN1LZBAM&assignmentId=35L9RVQFCP425DZNUUPNKRCYQ8AHUF&a=FRL59&tp_a=FRL59&b=35L9RVQFCP425DZNUUPNKRCYQ8AHUF&tp_b=35L9RVQFCP425DZNUUPNKRCYQ8AHUF&c=365799&tp_c=365799","heads":6,"tails":6,"studentIndex":23,"studentTrueHypers":{"a":1,"b":4},"studentGuess":0.4117647058823529,"delta":0.08823529411764708,"totalExamples":12,"bonus":0,"bonusSoFar":0.55},{"rt":21611,"response":{"gender":"female","age":"64","understood":"yes","comments":""},"type":"response","trial_type":"survey-html-form","trial_index":194,"time_elapsed":1293469,"internal_node_id":"0.0-191.0","params":{"nStudents":24,"maxFlips":30,"completionMinutes":45,"basePay":8,"maxBonus":9,"perTrialBonus":0.5,"perTrialBonusThreshold":0.05,"exampleCost":0.01},"classroomParams":{"A":{"a":1,"b":4},"B":{"a":4,"b":1},"C":{"a":2,"b":8},"D":{"a":8,"b":2}},"conditions":["nonSeqFull","nonSeqPartial","seqNoFeedback","seqFeedback"],"classroomPairings":[["A","B"],["C","D"]],"coinWeights":[0.2,0.5,0.8],"subjectId":"A2VNSNAN1LZBAM","assignmentId":"35L9RVQFCP425DZNUUPNKRCYQ8AHUF","hitId":"3E9VAUV7BW02QFDK7N7IH7ZKACRYAN","url":"https://gershmanlab.com/experiments/alicia/teaching/experiment/?hitId=3E9VAUV7BW02QFDK7N7IH7ZKACRYAN&workerId=A2VNSNAN1LZBAM&assignmentId=35L9RVQFCP425DZNUUPNKRCYQ8AHUF&a=FRL59&tp_a=FRL59&b=35L9RVQFCP425DZNUUPNKRCYQ8AHUF&tp_b=35L9RVQFCP425DZNUUPNKRCYQ8AHUF&c=365799&tp_c=365799","totalBonus":0.55}]