[{"rt":20837,"response":{"heads":"3","tails":"3"},"type":"response","condition":"seqNoFeedback","trueTheta":0.2,"classrooms":["A","B"],"studentTrueClassroom":"B","exampleSet":"first","trial_type":"survey-html-form","trial_index":7,"time_elapsed":344850,"internal_node_id":"0.0-6.0-0.0","params":{"nStudents":24,"maxFlips":30,"completionMinutes":45,"basePay":8,"maxBonus":9,"perTrialBonus":0.5,"perTrialBonusThreshold":0.05,"exampleCost":0.01},"classroomParams":{"A":{"a":1,"b":4},"B":{"a":4,"b":1},"C":{"a":2,"b":8},"D":{"a":8,"b":2}},"conditions":["nonSeqFull","nonSeqPartial","seqNoFeedback","seqFeedback"],"classroomPairings":[["A","B"],["C","D"]],"coinWeights":[0.2,0.5,0.8],"subjectId":"A320QA9HJFUOZO","assignmentId":"3TDXMTX3CCGHZXK64U954XZXNZ7I67","hitId":"363A7XIFV48LMLIF2CKYA8VQSVQAVR","url":"https://gershmanlab.com/experiments/alicia/teaching/experiment/?hitId=363A7XIFV48LMLIF2CKYA8VQSVQAVR&workerId=A320QA9HJFUOZO&assignmentId=3TDXMTX3CCGHZXK64U954XZXNZ7I67&a=3MDT9&tp_a=3MDT9&b=3TDXMTX3CCGHZXK64U954XZXNZ7I67&tp_b=3TDXMTX3CCGHZXK64U954XZXNZ7I67&c=365799&tp_c=365799","heads":3,"tails":3,"studentIndex":0,"studentTrueHypers":{"a":4,"b":1},"studentGuess":0.6363636363636364,"delta":0.43636363636363634,"totalExamples":6,"bonusSoFar":0},{"rt":44047,"response":{"heads":"4","tails":"4"},"type":"response","condition":"seqNoFeedback","trueTheta":0.2,"classrooms":["A","B"],"studentTrueClassroom":"B","exampleSet":"second","trial_type":"survey-html-form","trial_index":10,"time_elapsed":395401,"internal_node_id":"0.0-9.0-0.0","params":{"nStudents":24,"maxFlips":30,"completionMinutes":45,"basePay":8,"maxBonus":9,"perTrialBonus":0.5,"perTrialBonusThreshold":0.05,"exampleCost":0.01},"classroomParams":{"A":{"a":1,"b":4},"B":{"a":4,"b":1},"C":{"a":2,"b":8},"D":{"a":8,"b":2}},"conditions":["nonSeqFull","nonSeqPartial","seqNoFeedback","seqFeedback"],"classroomPairings":[["A","B"],["C","D"]],"coinWeights":[0.2,0.5,0.8],"subjectId":"A320QA9HJFUOZO","assignmentId":"3TDXMTX3CCGHZXK64U954XZXNZ7I67","hitId":"363A7XIFV48LMLIF2CKYA8VQSVQAVR","url":"https://gershmanlab.com/experiments/alicia/teaching/experiment/?hitId=363A7XIFV48LMLIF2CKYA8VQSVQAVR&workerId=A320QA9HJFUOZO&assignmentId=3TDXMTX3CCGHZXK64U954XZXNZ7I67&a=3MDT9&tp_a=3MDT9&b=3TDXMTX3CCGHZXK64U954XZXNZ7I67&tp_b=3TDXMTX3CCGHZXK64U954XZXNZ7I67&c=365799&tp_c=365799","firstResponseHeads":3,"firstResponseTails":3,"secondResponseHeads":4,"secondResponseTails":4,"totalHeads":7,"totalTails":7,"studentIndex":0,"studentTrueHypers":{"a":4,"b":1},"studentGuess":0.5789473684210527,"delta":0.37894736842105264,"bonus":0,"bonusSoFar":0,"totalExamples":14},{"rt":7024,"response":{"heads":"5","tails":"5"},"type":"response","condition":"seqFeedback","trueTheta":0.2,"classrooms":["C","D"],"studentTrueClassroom":"D","exampleSet":"first","trial_type":"survey-html-form","trial_index":16,"time_elapsed":444925,"internal_node_id":"0.0-15.0-0.0","params":{"nStudents":24,"maxFlips":30,"completionMinutes":45,"basePay":8,"maxBonus":9,"perTrialBonus":0.5,"perTrialBonusThreshold":0.05,"exampleCost":0.01},"classroomParams":{"A":{"a":1,"b":4},"B":{"a":4,"b":1},"C":{"a":2,"b":8},"D":{"a":8,"b":2}},"conditions":["nonSeqFull","nonSeqPartial","seqNoFeedback","seqFeedback"],"classroomPairings":[["A","B"],["C","D"]],"coinWeights":[0.2,0.5,0.8],"subjectId":"A320QA9HJFUOZO","assignmentId":"3TDXMTX3CCGHZXK64U954XZXNZ7I67","hitId":"363A7XIFV48LMLIF2CKYA8VQSVQAVR","url":"https://gershmanlab.com/experiments/alicia/teaching/experiment/?hitId=363A7XIFV48LMLIF2CKYA8VQSVQAVR&workerId=A320QA9HJFUOZO&assignmentId=3TDXMTX3CCGHZXK64U954XZXNZ7I67&a=3MDT9&tp_a=3MDT9&b=3TDXMTX3CCGHZXK64U954XZXNZ7I67&tp_b=3TDXMTX3CCGHZXK64U954XZXNZ7I67&c=365799&tp_c=365799","heads":5,"tails":5,"studentIndex":1,"studentTrueHypers":{"a":8,"b":2},"studentGuess":0.65,"delta":0.45,"totalExamples":10,"bonusSoFar":0},{"rt":9578,"response":{"heads":"0","tails":"4"},"type":"response","condition":"seqFeedback","trueTheta":0.2,"classrooms":["C","D"],"studentTrueClassroom":"D","exampleSet":"second","trial_type":"survey-html-form","trial_index":20,"time_elapsed":464364,"internal_node_id":"0.0-19.0-0.0","params":{"nStudents":24,"maxFlips":30,"completionMinutes":45,"basePay":8,"maxBonus":9,"perTrialBonus":0.5,"perTrialBonusThreshold":0.05,"exampleCost":0.01},"classroomParams":{"A":{"a":1,"b":4},"B":{"a":4,"b":1},"C":{"a":2,"b":8},"D":{"a":8,"b":2}},"conditions":["nonSeqFull","nonSeqPartial","seqNoFeedback","seqFeedback"],"classroomPairings":[["A","B"],["C","D"]],"coinWeights":[0.2,0.5,0.8],"subjectId":"A320QA9HJFUOZO","assignmentId":"3TDXMTX3CCGHZXK64U954XZXNZ7I67","hitId":"363A7XIFV48LMLIF2CKYA8VQSVQAVR","url":"https://gershmanlab.com/experiments/alicia/teaching/experiment/?hitId=363A7XIFV48LMLIF2CKYA8VQSVQAVR&workerId=A320QA9HJFUOZO&assignmentId=3TDXMTX3CCGHZXK64U954XZXNZ7I67&a=3MDT9&tp_a=3MDT9&b=3TDXMTX3CCGHZXK64U954XZXNZ7I67&tp_b=3TDXMTX3CCGHZXK64U954XZXNZ7I67&c=365799&tp_c=365799","firstResponseHeads":5,"firstResponseTails":5,"secondResponseHeads":0,"secondResponseTails":4,"totalHeads":5,"totalTails":9,"studentIndex":1,"studentTrueHypers":{"a":8,"b":2},"studentGuess":0.5416666666666666,"delta":0.3416666666666666,"bonus":0,"bonusSoFar":0,"totalExamples":14},{"rt":6880,"response":{"heads":"1","tails":"1"},"type":"response","condition":"seqNoFeedback","trueTheta":0.5,"classrooms":["A","B"],"studentTrueClassroom":"B","exampleSet":"first","trial_type":"survey-html-form","trial_index":26,"time_elapsed":483952,"internal_node_id":"0.0-25.0-0.0","params":{"nStudents":24,"maxFlips":30,"completionMinutes":45,"basePay":8,"maxBonus":9,"perTrialBonus":0.5,"perTrialBonusThreshold":0.05,"exampleCost":0.01},"classroomParams":{"A":{"a":1,"b":4},"B":{"a":4,"b":1},"C":{"a":2,"b":8},"D":{"a":8,"b":2}},"conditions":["nonSeqFull","nonSeqPartial","seqNoFeedback","seqFeedback"],"classroomPairings":[["A","B"],["C","D"]],"coinWeights":[0.2,0.5,0.8],"subjectId":"A320QA9HJFUOZO","assignmentId":"3TDXMTX3CCGHZXK64U954XZXNZ7I67","hitId":"363A7XIFV48LMLIF2CKYA8VQSVQAVR","url":"https://gershmanlab.com/experiments/alicia/teaching/experiment/?hitId=363A7XIFV48LMLIF2CKYA8VQSVQAVR&workerId=A320QA9HJFUOZO&assignmentId=3TDXMTX3CCGHZXK64U954XZXNZ7I67&a=3MDT9&tp_a=3MDT9&b=3TDXMTX3CCGHZXK64U954XZXNZ7I67&tp_b=3TDXMTX3CCGHZXK64U954XZXNZ7I67&c=365799&tp_c=365799","heads":1,"tails":1,"studentIndex":2,"studentTrueHypers":{"a":4,"b":1},"studentGuess":0.7142857142857143,"delta":0.2142857142857143,"totalExamples":2,"bonusSoFar":0},{"rt":5068,"response":{"heads":"1","tails":"1"},"type":"response","condition":"seqNoFeedback","trueTheta":0.5,"classrooms":["A","B"],"studentTrueClassroom":"B","exampleSet":"second","trial_type":"survey-html-form","trial_index":29,"time_elapsed":496798,"internal_node_id":"0.0-28.0-0.0","params":{"nStudents":24,"maxFlips":30,"completionMinutes":45,"basePay":8,"maxBonus":9,"perTrialBonus":0.5,"perTrialBonusThreshold":0.05,"exampleCost":0.01},"classroomParams":{"A":{"a":1,"b":4},"B":{"a":4,"b":1},"C":{"a":2,"b":8},"D":{"a":8,"b":2}},"conditions":["nonSeqFull","nonSeqPartial","seqNoFeedback","seqFeedback"],"classroomPairings":[["A","B"],["C","D"]],"coinWeights":[0.2,0.5,0.8],"subjectId":"A320QA9HJFUOZO","assignmentId":"3TDXMTX3CCGHZXK64U954XZXNZ7I67","hitId":"363A7XIFV48LMLIF2CKYA8VQSVQAVR","url":"https://gershmanlab.com/experiments/alicia/teaching/experiment/?hitId=363A7XIFV48LMLIF2CKYA8VQSVQAVR&workerId=A320QA9HJFUOZO&assignmentId=3TDXMTX3CCGHZXK64U954XZXNZ7I67&a=3MDT9&tp_a=3MDT9&b=3TDXMTX3CCGHZXK64U954XZXNZ7I67&tp_b=3TDXMTX3CCGHZXK64U954XZXNZ7I67&c=365799&tp_c=365799","firstResponseHeads":1,"firstResponseTails":1,"secondResponseHeads":1,"secondResponseTails":1,"totalHeads":2,"totalTails":2,"studentIndex":2,"studentTrueHypers":{"a":4,"b":1},"studentGuess":0.6666666666666666,"delta":0.16666666666666663,"bonus":0,"bonusSoFar":0,"totalExamples":4},{"rt":9100,"response":{"heads":"3","tails":"6"},"type":"response","condition":"nonSeqFull","trueTheta":0.5,"classrooms":["A","B"],"studentTrueClassroom":"B","exampleSet":"first","trial_type":"survey-html-form","trial_index":35,"time_elapsed":520400,"internal_node_id":"0.0-34.0-0.0","params":{"nStudents":24,"maxFlips":30,"completionMinutes":45,"basePay":8,"maxBonus":9,"perTrialBonus":0.5,"perTrialBonusThreshold":0.05,"exampleCost":0.01},"classroomParams":{"A":{"a":1,"b":4},"B":{"a":4,"b":1},"C":{"a":2,"b":8},"D":{"a":8,"b":2}},"conditions":["nonSeqFull","nonSeqPartial","seqNoFeedback","seqFeedback"],"classroomPairings":[["A","B"],["C","D"]],"coinWeights":[0.2,0.5,0.8],"subjectId":"A320QA9HJFUOZO","assignmentId":"3TDXMTX3CCGHZXK64U954XZXNZ7I67","hitId":"363A7XIFV48LMLIF2CKYA8VQSVQAVR","url":"https://gershmanlab.com/experiments/alicia/teaching/experiment/?hitId=363A7XIFV48LMLIF2CKYA8VQSVQAVR&workerId=A320QA9HJFUOZO&assignmentId=3TDXMTX3CCGHZXK64U954XZXNZ7I67&a=3MDT9&tp_a=3MDT9&b=3TDXMTX3CCGHZXK64U954XZXNZ7I67&tp_b=3TDXMTX3CCGHZXK64U954XZXNZ7I67&c=365799&tp_c=365799","heads":3,"tails":6,"studentIndex":3,"studentTrueHypers":{"a":4,"b":1},"studentGuess":0.5,"delta":0,"totalExamples":9,"bonus":0.41,"bonusSoFar":0.41},{"rt":5009,"response":{"heads":"3","tails":"3"},"type":"response","condition":"seqFeedback","trueTheta":0.5,"classrooms":["C","D"],"studentTrueClassroom":"C","exampleSet":"first","trial_type":"survey-html-form","trial_index":41,"time_elapsed":541152,"internal_node_id":"0.0-40.0-0.0","params":{"nStudents":24,"maxFlips":30,"completionMinutes":45,"basePay":8,"maxBonus":9,"perTrialBonus":0.5,"perTrialBonusThreshold":0.05,"exampleCost":0.01},"classroomParams":{"A":{"a":1,"b":4},"B":{"a":4,"b":1},"C":{"a":2,"b":8},"D":{"a":8,"b":2}},"conditions":["nonSeqFull","nonSeqPartial","seqNoFeedback","seqFeedback"],"classroomPairings":[["A","B"],["C","D"]],"coinWeights":[0.2,0.5,0.8],"subjectId":"A320QA9HJFUOZO","assignmentId":"3TDXMTX3CCGHZXK64U954XZXNZ7I67","hitId":"363A7XIFV48LMLIF2CKYA8VQSVQAVR","url":"https://gershmanlab.com/experiments/alicia/teaching/experiment/?hitId=363A7XIFV48LMLIF2CKYA8VQSVQAVR&workerId=A320QA9HJFUOZO&assignmentId=3TDXMTX3CCGHZXK64U954XZXNZ7I67&a=3MDT9&tp_a=3MDT9&b=3TDXMTX3CCGHZXK64U954XZXNZ7I67&tp_b=3TDXMTX3CCGHZXK64U954XZXNZ7I67&c=365799&tp_c=365799","heads":3,"tails":3,"studentIndex":4,"studentTrueHypers":{"a":2,"b":8},"studentGuess":0.3125,"delta":0.1875,"totalExamples":6,"bonusSoFar":0.41},{"rt":4916,"response":{"heads":"2","tails":"2"},"type":"response","condition":"seqFeedback","trueTheta":0.5,"classrooms":["C","D"],"studentTrueClassroom":"C","exampleSet":"second","trial_type":"survey-html-form","trial_index":45,"time_elapsed":555637,"internal_node_id":"0.0-44.0-0.0","params":{"nStudents":24,"maxFlips":30,"completionMinutes":45,"basePay":8,"maxBonus":9,"perTrialBonus":0.5,"perTrialBonusThreshold":0.05,"exampleCost":0.01},"classroomParams":{"A":{"a":1,"b":4},"B":{"a":4,"b":1},"C":{"a":2,"b":8},"D":{"a":8,"b":2}},"conditions":["nonSeqFull","nonSeqPartial","seqNoFeedback","seqFeedback"],"classroomPairings":[["A","B"],["C","D"]],"coinWeights":[0.2,0.5,0.8],"subjectId":"A320QA9HJFUOZO","assignmentId":"3TDXMTX3CCGHZXK64U954XZXNZ7I67","hitId":"363A7XIFV48LMLIF2CKYA8VQSVQAVR","url":"https://gershmanlab.com/experiments/alicia/teaching/experiment/?hitId=363A7XIFV48LMLIF2CKYA8VQSVQAVR&workerId=A320QA9HJFUOZO&assignmentId=3TDXMTX3CCGHZXK64U954XZXNZ7I67&a=3MDT9&tp_a=3MDT9&b=3TDXMTX3CCGHZXK64U954XZXNZ7I67&tp_b=3TDXMTX3CCGHZXK64U954XZXNZ7I67&c=365799&tp_c=365799","firstResponseHeads":3,"firstResponseTails":3,"secondResponseHeads":2,"secondResponseTails":2,"totalHeads":5,"totalTails":5,"studentIndex":4,"studentTrueHypers":{"a":2,"b":8},"studentGuess":0.35,"delta":0.15000000000000002,"bonus":0,"bonusSoFar":0.41,"totalExamples":10},{"rt":2866,"response":{"heads":"10","tails":"10"},"type":"response","condition":"seqFeedback","trueTheta":0.2,"classrooms":["A","B"],"studentTrueClassroom":"A","exampleSet":"first","trial_type":"survey-html-form","trial_index":51,"time_elapsed":571489,"internal_node_id":"0.0-50.0-0.0","params":{"nStudents":24,"maxFlips":30,"completionMinutes":45,"basePay":8,"maxBonus":9,"perTrialBonus":0.5,"perTrialBonusThreshold":0.05,"exampleCost":0.01},"classroomParams":{"A":{"a":1,"b":4},"B":{"a":4,"b":1},"C":{"a":2,"b":8},"D":{"a":8,"b":2}},"conditions":["nonSeqFull","nonSeqPartial","seqNoFeedback","seqFeedback"],"classroomPairings":[["A","B"],["C","D"]],"coinWeights":[0.2,0.5,0.8],"subjectId":"A320QA9HJFUOZO","assignmentId":"3TDXMTX3CCGHZXK64U954XZXNZ7I67","hitId":"363A7XIFV48LMLIF2CKYA8VQSVQAVR","url":"https://gershmanlab.com/experiments/alicia/teaching/experiment/?hitId=363A7XIFV48LMLIF2CKYA8VQSVQAVR&workerId=A320QA9HJFUOZO&assignmentId=3TDXMTX3CCGHZXK64U954XZXNZ7I67&a=3MDT9&tp_a=3MDT9&b=3TDXMTX3CCGHZXK64U954XZXNZ7I67&tp_b=3TDXMTX3CCGHZXK64U954XZXNZ7I67&c=365799&tp_c=365799","heads":10,"tails":10,"studentIndex":5,"studentTrueHypers":{"a":1,"b":4},"studentGuess":0.44,"delta":0.24,"totalExamples":20,"bonusSoFar":0.41},{"rt":8721,"response":{"heads":"12","tails":"10"},"type":"response","condition":"seqFeedback","trueTheta":0.2,"classrooms":["A","B"],"studentTrueClassroom":"A","exampleSet":"second","trial_type":"survey-html-form","trial_index":55,"time_elapsed":587805,"internal_node_id":"0.0-54.0-0.0","params":{"nStudents":24,"maxFlips":30,"completionMinutes":45,"basePay":8,"maxBonus":9,"perTrialBonus":0.5,"perTrialBonusThreshold":0.05,"exampleCost":0.01},"classroomParams":{"A":{"a":1,"b":4},"B":{"a":4,"b":1},"C":{"a":2,"b":8},"D":{"a":8,"b":2}},"conditions":["nonSeqFull","nonSeqPartial","seqNoFeedback","seqFeedback"],"classroomPairings":[["A","B"],["C","D"]],"coinWeights":[0.2,0.5,0.8],"subjectId":"A320QA9HJFUOZO","assignmentId":"3TDXMTX3CCGHZXK64U954XZXNZ7I67","hitId":"363A7XIFV48LMLIF2CKYA8VQSVQAVR","url":"https://gershmanlab.com/experiments/alicia/teaching/experiment/?hitId=363A7XIFV48LMLIF2CKYA8VQSVQAVR&workerId=A320QA9HJFUOZO&assignmentId=3TDXMTX3CCGHZXK64U954XZXNZ7I67&a=3MDT9&tp_a=3MDT9&b=3TDXMTX3CCGHZXK64U954XZXNZ7I67&tp_b=3TDXMTX3CCGHZXK64U954XZXNZ7I67&c=365799&tp_c=365799","firstResponseHeads":10,"firstResponseTails":10,"secondResponseHeads":12,"secondResponseTails":10,"totalHeads":22,"totalTails":20,"studentIndex":5,"studentTrueHypers":{"a":1,"b":4},"studentGuess":0.48936170212765956,"delta":0.28936170212765955,"bonus":0,"bonusSoFar":0.41,"totalExamples":42},{"rt":2481,"response":{"heads":"0","tails":"0"},"type":"response","condition":"seqNoFeedback","trueTheta":0.2,"classrooms":["C","D"],"studentTrueClassroom":"C","exampleSet":"first","trial_type":"survey-html-form","trial_index":61,"time_elapsed":601945,"internal_node_id":"0.0-60.0-0.0","params":{"nStudents":24,"maxFlips":30,"completionMinutes":45,"basePay":8,"maxBonus":9,"perTrialBonus":0.5,"perTrialBonusThreshold":0.05,"exampleCost":0.01},"classroomParams":{"A":{"a":1,"b":4},"B":{"a":4,"b":1},"C":{"a":2,"b":8},"D":{"a":8,"b":2}},"conditions":["nonSeqFull","nonSeqPartial","seqNoFeedback","seqFeedback"],"classroomPairings":[["A","B"],["C","D"]],"coinWeights":[0.2,0.5,0.8],"subjectId":"A320QA9HJFUOZO","assignmentId":"3TDXMTX3CCGHZXK64U954XZXNZ7I67","hitId":"363A7XIFV48LMLIF2CKYA8VQSVQAVR","url":"https://gershmanlab.com/experiments/alicia/teaching/experiment/?hitId=363A7XIFV48LMLIF2CKYA8VQSVQAVR&workerId=A320QA9HJFUOZO&assignmentId=3TDXMTX3CCGHZXK64U954XZXNZ7I67&a=3MDT9&tp_a=3MDT9&b=3TDXMTX3CCGHZXK64U954XZXNZ7I67&tp_b=3TDXMTX3CCGHZXK64U954XZXNZ7I67&c=365799&tp_c=365799","heads":0,"tails":0,"studentIndex":6,"studentTrueHypers":{"a":2,"b":8},"studentGuess":0.2,"delta":0,"totalExamples":0,"bonusSoFar":0.41},{"rt":748,"response":{"heads":"0","tails":"0"},"type":"response","condition":"seqNoFeedback","trueTheta":0.2,"classrooms":["C","D"],"studentTrueClassroom":"C","exampleSet":"first","trial_type":"survey-html-form","trial_index":62,"time_elapsed":602695,"internal_node_id":"0.0-60.1-0.1","params":{"nStudents":24,"maxFlips":30,"completionMinutes":45,"basePay":8,"maxBonus":9,"perTrialBonus":0.5,"perTrialBonusThreshold":0.05,"exampleCost":0.01},"classroomParams":{"A":{"a":1,"b":4},"B":{"a":4,"b":1},"C":{"a":2,"b":8},"D":{"a":8,"b":2}},"conditions":["nonSeqFull","nonSeqPartial","seqNoFeedback","seqFeedback"],"classroomPairings":[["A","B"],["C","D"]],"coinWeights":[0.2,0.5,0.8],"subjectId":"A320QA9HJFUOZO","assignmentId":"3TDXMTX3CCGHZXK64U954XZXNZ7I67","hitId":"363A7XIFV48LMLIF2CKYA8VQSVQAVR","url":"https://gershmanlab.com/experiments/alicia/teaching/experiment/?hitId=363A7XIFV48LMLIF2CKYA8VQSVQAVR&workerId=A320QA9HJFUOZO&assignmentId=3TDXMTX3CCGHZXK64U954XZXNZ7I67&a=3MDT9&tp_a=3MDT9&b=3TDXMTX3CCGHZXK64U954XZXNZ7I67&tp_b=3TDXMTX3CCGHZXK64U954XZXNZ7I67&c=365799&tp_c=365799","heads":0,"tails":0,"studentIndex":6,"studentTrueHypers":{"a":2,"b":8},"studentGuess":0.2,"delta":0,"totalExamples":0,"bonusSoFar":0.41},{"rt":5130,"response":{"heads":"1","tails":"1"},"type":"response","condition":"seqNoFeedback","trueTheta":0.2,"classrooms":["C","D"],"studentTrueClassroom":"C","exampleSet":"first","trial_type":"survey-html-form","trial_index":63,"time_elapsed":607826,"internal_node_id":"0.0-60.2-0.2","params":{"nStudents":24,"maxFlips":30,"completionMinutes":45,"basePay":8,"maxBonus":9,"perTrialBonus":0.5,"perTrialBonusThreshold":0.05,"exampleCost":0.01},"classroomParams":{"A":{"a":1,"b":4},"B":{"a":4,"b":1},"C":{"a":2,"b":8},"D":{"a":8,"b":2}},"conditions":["nonSeqFull","nonSeqPartial","seqNoFeedback","seqFeedback"],"classroomPairings":[["A","B"],["C","D"]],"coinWeights":[0.2,0.5,0.8],"subjectId":"A320QA9HJFUOZO","assignmentId":"3TDXMTX3CCGHZXK64U954XZXNZ7I67","hitId":"363A7XIFV48LMLIF2CKYA8VQSVQAVR","url":"https://gershmanlab.com/experiments/alicia/teaching/experiment/?hitId=363A7XIFV48LMLIF2CKYA8VQSVQAVR&workerId=A320QA9HJFUOZO&assignmentId=3TDXMTX3CCGHZXK64U954XZXNZ7I67&a=3MDT9&tp_a=3MDT9&b=3TDXMTX3CCGHZXK64U954XZXNZ7I67&tp_b=3TDXMTX3CCGHZXK64U954XZXNZ7I67&c=365799&tp_c=365799","heads":1,"tails":1,"studentIndex":6,"studentTrueHypers":{"a":2,"b":8},"studentGuess":0.25,"delta":0.04999999999999999,"totalExamples":2,"bonusSoFar":0.41},{"rt":18309,"response":{"heads":"1","tails":"1"},"type":"response","condition":"seqNoFeedback","trueTheta":0.2,"classrooms":["C","D"],"studentTrueClassroom":"C","exampleSet":"second","trial_type":"survey-html-form","trial_index":66,"time_elapsed":632905,"internal_node_id":"0.0-63.0-0.0","params":{"nStudents":24,"maxFlips":30,"completionMinutes":45,"basePay":8,"maxBonus":9,"perTrialBonus":0.5,"perTrialBonusThreshold":0.05,"exampleCost":0.01},"classroomParams":{"A":{"a":1,"b":4},"B":{"a":4,"b":1},"C":{"a":2,"b":8},"D":{"a":8,"b":2}},"conditions":["nonSeqFull","nonSeqPartial","seqNoFeedback","seqFeedback"],"classroomPairings":[["A","B"],["C","D"]],"coinWeights":[0.2,0.5,0.8],"subjectId":"A320QA9HJFUOZO","assignmentId":"3TDXMTX3CCGHZXK64U954XZXNZ7I67","hitId":"363A7XIFV48LMLIF2CKYA8VQSVQAVR","url":"https://gershmanlab.com/experiments/alicia/teaching/experiment/?hitId=363A7XIFV48LMLIF2CKYA8VQSVQAVR&workerId=A320QA9HJFUOZO&assignmentId=3TDXMTX3CCGHZXK64U954XZXNZ7I67&a=3MDT9&tp_a=3MDT9&b=3TDXMTX3CCGHZXK64U954XZXNZ7I67&tp_b=3TDXMTX3CCGHZXK64U954XZXNZ7I67&c=365799&tp_c=365799","firstResponseHeads":0,"firstResponseTails":0,"secondResponseHeads":1,"secondResponseTails":1,"totalHeads":1,"totalTails":1,"studentIndex":6,"studentTrueHypers":{"a":2,"b":8},"studentGuess":0.25,"delta":0.04999999999999999,"bonus":0.48,"bonusSoFar":0.89,"totalExamples":2},{"rt":4082,"response":{"heads":"12","tails":"0"},"type":"response","condition":"seqFeedback","trueTheta":0.8,"classrooms":["A","B"],"studentTrueClassroom":"B","exampleSet":"first","trial_type":"survey-html-form","trial_index":72,"time_elapsed":650298,"internal_node_id":"0.0-69.0-0.0","params":{"nStudents":24,"maxFlips":30,"completionMinutes":45,"basePay":8,"maxBonus":9,"perTrialBonus":0.5,"perTrialBonusThreshold":0.05,"exampleCost":0.01},"classroomParams":{"A":{"a":1,"b":4},"B":{"a":4,"b":1},"C":{"a":2,"b":8},"D":{"a":8,"b":2}},"conditions":["nonSeqFull","nonSeqPartial","seqNoFeedback","seqFeedback"],"classroomPairings":[["A","B"],["C","D"]],"coinWeights":[0.2,0.5,0.8],"subjectId":"A320QA9HJFUOZO","assignmentId":"3TDXMTX3CCGHZXK64U954XZXNZ7I67","hitId":"363A7XIFV48LMLIF2CKYA8VQSVQAVR","url":"https://gershmanlab.com/experiments/alicia/teaching/experiment/?hitId=363A7XIFV48LMLIF2CKYA8VQSVQAVR&workerId=A320QA9HJFUOZO&assignmentId=3TDXMTX3CCGHZXK64U954XZXNZ7I67&a=3MDT9&tp_a=3MDT9&b=3TDXMTX3CCGHZXK64U954XZXNZ7I67&tp_b=3TDXMTX3CCGHZXK64U954XZXNZ7I67&c=365799&tp_c=365799","heads":12,"tails":0,"studentIndex":7,"studentTrueHypers":{"a":4,"b":1},"studentGuess":0.9411764705882353,"delta":0.14117647058823524,"totalExamples":12,"bonusSoFar":0.89},{"rt":5368,"response":{"heads":"5","tails":"1"},"type":"response","condition":"seqFeedback","trueTheta":0.8,"classrooms":["A","B"],"studentTrueClassroom":"B","exampleSet":"second","trial_type":"survey-html-form","trial_index":76,"time_elapsed":664821,"internal_node_id":"0.0-73.0-0.0","params":{"nStudents":24,"maxFlips":30,"completionMinutes":45,"basePay":8,"maxBonus":9,"perTrialBonus":0.5,"perTrialBonusThreshold":0.05,"exampleCost":0.01},"classroomParams":{"A":{"a":1,"b":4},"B":{"a":4,"b":1},"C":{"a":2,"b":8},"D":{"a":8,"b":2}},"conditions":["nonSeqFull","nonSeqPartial","seqNoFeedback","seqFeedback"],"classroomPairings":[["A","B"],["C","D"]],"coinWeights":[0.2,0.5,0.8],"subjectId":"A320QA9HJFUOZO","assignmentId":"3TDXMTX3CCGHZXK64U954XZXNZ7I67","hitId":"363A7XIFV48LMLIF2CKYA8VQSVQAVR","url":"https://gershmanlab.com/experiments/alicia/teaching/experiment/?hitId=363A7XIFV48LMLIF2CKYA8VQSVQAVR&workerId=A320QA9HJFUOZO&assignmentId=3TDXMTX3CCGHZXK64U954XZXNZ7I67&a=3MDT9&tp_a=3MDT9&b=3TDXMTX3CCGHZXK64U954XZXNZ7I67&tp_b=3TDXMTX3CCGHZXK64U954XZXNZ7I67&c=365799&tp_c=365799","firstResponseHeads":12,"firstResponseTails":0,"secondResponseHeads":5,"secondResponseTails":1,"totalHeads":17,"totalTails":1,"studentIndex":7,"studentTrueHypers":{"a":4,"b":1},"studentGuess":0.9130434782608695,"delta":0.11304347826086947,"bonus":0,"bonusSoFar":0.89,"totalExamples":18},{"rt":3416,"response":{"heads":"3","tails":"3"},"type":"response","condition":"seqFeedback","trueTheta":0.8,"classrooms":["C","D"],"studentTrueClassroom":"C","exampleSet":"first","trial_type":"survey-html-form","trial_index":82,"time_elapsed":682096,"internal_node_id":"0.0-79.0-0.0","params":{"nStudents":24,"maxFlips":30,"completionMinutes":45,"basePay":8,"maxBonus":9,"perTrialBonus":0.5,"perTrialBonusThreshold":0.05,"exampleCost":0.01},"classroomParams":{"A":{"a":1,"b":4},"B":{"a":4,"b":1},"C":{"a":2,"b":8},"D":{"a":8,"b":2}},"conditions":["nonSeqFull","nonSeqPartial","seqNoFeedback","seqFeedback"],"classroomPairings":[["A","B"],["C","D"]],"coinWeights":[0.2,0.5,0.8],"subjectId":"A320QA9HJFUOZO","assignmentId":"3TDXMTX3CCGHZXK64U954XZXNZ7I67","hitId":"363A7XIFV48LMLIF2CKYA8VQSVQAVR","url":"https://gershmanlab.com/experiments/alicia/teaching/experiment/?hitId=363A7XIFV48LMLIF2CKYA8VQSVQAVR&workerId=A320QA9HJFUOZO&assignmentId=3TDXMTX3CCGHZXK64U954XZXNZ7I67&a=3MDT9&tp_a=3MDT9&b=3TDXMTX3CCGHZXK64U954XZXNZ7I67&tp_b=3TDXMTX3CCGHZXK64U954XZXNZ7I67&c=365799&tp_c=365799","heads":3,"tails":3,"studentIndex":8,"studentTrueHypers":{"a":2,"b":8},"studentGuess":0.3125,"delta":0.48750000000000004,"totalExamples":6,"bonusSoFar":0.89},{"rt":4117,"response":{"heads":"5","tails":"0"},"type":"response","condition":"seqFeedback","trueTheta":0.8,"classrooms":["C","D"],"studentTrueClassroom":"C","exampleSet":"second","trial_type":"survey-html-form","trial_index":86,"time_elapsed":694299,"internal_node_id":"0.0-83.0-0.0","params":{"nStudents":24,"maxFlips":30,"completionMinutes":45,"basePay":8,"maxBonus":9,"perTrialBonus":0.5,"perTrialBonusThreshold":0.05,"exampleCost":0.01},"classroomParams":{"A":{"a":1,"b":4},"B":{"a":4,"b":1},"C":{"a":2,"b":8},"D":{"a":8,"b":2}},"conditions":["nonSeqFull","nonSeqPartial","seqNoFeedback","seqFeedback"],"classroomPairings":[["A","B"],["C","D"]],"coinWeights":[0.2,0.5,0.8],"subjectId":"A320QA9HJFUOZO","assignmentId":"3TDXMTX3CCGHZXK64U954XZXNZ7I67","hitId":"363A7XIFV48LMLIF2CKYA8VQSVQAVR","url":"https://gershmanlab.com/experiments/alicia/teaching/experiment/?hitId=363A7XIFV48LMLIF2CKYA8VQSVQAVR&workerId=A320QA9HJFUOZO&assignmentId=3TDXMTX3CCGHZXK64U954XZXNZ7I67&a=3MDT9&tp_a=3MDT9&b=3TDXMTX3CCGHZXK64U954XZXNZ7I67&tp_b=3TDXMTX3CCGHZXK64U954XZXNZ7I67&c=365799&tp_c=365799","firstResponseHeads":3,"firstResponseTails":3,"secondResponseHeads":5,"secondResponseTails":0,"totalHeads":8,"totalTails":3,"studentIndex":8,"studentTrueHypers":{"a":2,"b":8},"studentGuess":0.47619047619047616,"delta":0.3238095238095239,"bonus":0,"bonusSoFar":0.89,"totalExamples":11},{"rt":3228,"response":{"heads":"3","tails":"0"},"type":"response","condition":"nonSeqFull","trueTheta":0.8,"classrooms":["C","D"],"studentTrueClassroom":"C","exampleSet":"first","trial_type":"survey-html-form","trial_index":92,"time_elapsed":709074,"internal_node_id":"0.0-89.0-0.0","params":{"nStudents":24,"maxFlips":30,"completionMinutes":45,"basePay":8,"maxBonus":9,"perTrialBonus":0.5,"perTrialBonusThreshold":0.05,"exampleCost":0.01},"classroomParams":{"A":{"a":1,"b":4},"B":{"a":4,"b":1},"C":{"a":2,"b":8},"D":{"a":8,"b":2}},"conditions":["nonSeqFull","nonSeqPartial","seqNoFeedback","seqFeedback"],"classroomPairings":[["A","B"],["C","D"]],"coinWeights":[0.2,0.5,0.8],"subjectId":"A320QA9HJFUOZO","assignmentId":"3TDXMTX3CCGHZXK64U954XZXNZ7I67","hitId":"363A7XIFV48LMLIF2CKYA8VQSVQAVR","url":"https://gershmanlab.com/experiments/alicia/teaching/experiment/?hitId=363A7XIFV48LMLIF2CKYA8VQSVQAVR&workerId=A320QA9HJFUOZO&assignmentId=3TDXMTX3CCGHZXK64U954XZXNZ7I67&a=3MDT9&tp_a=3MDT9&b=3TDXMTX3CCGHZXK64U954XZXNZ7I67&tp_b=3TDXMTX3CCGHZXK64U954XZXNZ7I67&c=365799&tp_c=365799","heads":3,"tails":0,"studentIndex":9,"studentTrueHypers":{"a":2,"b":8},"studentGuess":0.38461538461538464,"delta":0.4153846153846154,"totalExamples":3,"bonus":0,"bonusSoFar":0.89},{"rt":9975,"response":{"heads":"8","tails":"2"},"type":"response","condition":"nonSeqFull","trueTheta":0.5,"classrooms":["C","D"],"studentTrueClassroom":"C","exampleSet":"first","trial_type":"survey-html-form","trial_index":98,"time_elapsed":744886,"internal_node_id":"0.0-95.0-0.0","params":{"nStudents":24,"maxFlips":30,"completionMinutes":45,"basePay":8,"maxBonus":9,"perTrialBonus":0.5,"perTrialBonusThreshold":0.05,"exampleCost":0.01},"classroomParams":{"A":{"a":1,"b":4},"B":{"a":4,"b":1},"C":{"a":2,"b":8},"D":{"a":8,"b":2}},"conditions":["nonSeqFull","nonSeqPartial","seqNoFeedback","seqFeedback"],"classroomPairings":[["A","B"],["C","D"]],"coinWeights":[0.2,0.5,0.8],"subjectId":"A320QA9HJFUOZO","assignmentId":"3TDXMTX3CCGHZXK64U954XZXNZ7I67","hitId":"363A7XIFV48LMLIF2CKYA8VQSVQAVR","url":"https://gershmanlab.com/experiments/alicia/teaching/experiment/?hitId=363A7XIFV48LMLIF2CKYA8VQSVQAVR&workerId=A320QA9HJFUOZO&assignmentId=3TDXMTX3CCGHZXK64U954XZXNZ7I67&a=3MDT9&tp_a=3MDT9&b=3TDXMTX3CCGHZXK64U954XZXNZ7I67&tp_b=3TDXMTX3CCGHZXK64U954XZXNZ7I67&c=365799&tp_c=365799","heads":8,"tails":2,"studentIndex":10,"studentTrueHypers":{"a":2,"b":8},"studentGuess":0.5,"delta":0,"totalExamples":10,"bonus":0.4,"bonusSoFar":1.29},{"rt":6464,"response":{"heads":"3","tails":"3"},"type":"response","condition":"nonSeqFull","trueTheta":0.2,"classrooms":["A","B"],"studentTrueClassroom":"A","exampleSet":"first","trial_type":"survey-html-form","trial_index":104,"time_elapsed":771945,"internal_node_id":"0.0-101.0-0.0","params":{"nStudents":24,"maxFlips":30,"completionMinutes":45,"basePay":8,"maxBonus":9,"perTrialBonus":0.5,"perTrialBonusThreshold":0.05,"exampleCost":0.01},"classroomParams":{"A":{"a":1,"b":4},"B":{"a":4,"b":1},"C":{"a":2,"b":8},"D":{"a":8,"b":2}},"conditions":["nonSeqFull","nonSeqPartial","seqNoFeedback","seqFeedback"],"classroomPairings":[["A","B"],["C","D"]],"coinWeights":[0.2,0.5,0.8],"subjectId":"A320QA9HJFUOZO","assignmentId":"3TDXMTX3CCGHZXK64U954XZXNZ7I67","hitId":"363A7XIFV48LMLIF2CKYA8VQSVQAVR","url":"https://gershmanlab.com/experiments/alicia/teaching/experiment/?hitId=363A7XIFV48LMLIF2CKYA8VQSVQAVR&workerId=A320QA9HJFUOZO&assignmentId=3TDXMTX3CCGHZXK64U954XZXNZ7I67&a=3MDT9&tp_a=3MDT9&b=3TDXMTX3CCGHZXK64U954XZXNZ7I67&tp_b=3TDXMTX3CCGHZXK64U954XZXNZ7I67&c=365799&tp_c=365799","heads":3,"tails":3,"studentIndex":11,"studentTrueHypers":{"a":1,"b":4},"studentGuess":0.36363636363636365,"delta":0.16363636363636364,"totalExamples":6,"bonus":0,"bonusSoFar":1.29},{"rt":3649,"response":{"heads":"5","tails":"5"},"type":"response","condition":"seqFeedback","trueTheta":0.5,"classrooms":["A","B"],"studentTrueClassroom":"A","exampleSet":"first","trial_type":"survey-html-form","trial_index":110,"time_elapsed":792144,"internal_node_id":"0.0-107.0-0.0","params":{"nStudents":24,"maxFlips":30,"completionMinutes":45,"basePay":8,"maxBonus":9,"perTrialBonus":0.5,"perTrialBonusThreshold":0.05,"exampleCost":0.01},"classroomParams":{"A":{"a":1,"b":4},"B":{"a":4,"b":1},"C":{"a":2,"b":8},"D":{"a":8,"b":2}},"conditions":["nonSeqFull","nonSeqPartial","seqNoFeedback","seqFeedback"],"classroomPairings":[["A","B"],["C","D"]],"coinWeights":[0.2,0.5,0.8],"subjectId":"A320QA9HJFUOZO","assignmentId":"3TDXMTX3CCGHZXK64U954XZXNZ7I67","hitId":"363A7XIFV48LMLIF2CKYA8VQSVQAVR","url":"https://gershmanlab.com/experiments/alicia/teaching/experiment/?hitId=363A7XIFV48LMLIF2CKYA8VQSVQAVR&workerId=A320QA9HJFUOZO&assignmentId=3TDXMTX3CCGHZXK64U954XZXNZ7I67&a=3MDT9&tp_a=3MDT9&b=3TDXMTX3CCGHZXK64U954XZXNZ7I67&tp_b=3TDXMTX3CCGHZXK64U954XZXNZ7I67&c=365799&tp_c=365799","heads":5,"tails":5,"studentIndex":12,"studentTrueHypers":{"a":1,"b":4},"studentGuess":0.4,"delta":0.09999999999999998,"totalExamples":10,"bonusSoFar":1.29},{"rt":2884,"response":{"heads":"1","tails":"0"},"type":"response","condition":"seqFeedback","trueTheta":0.5,"classrooms":["A","B"],"studentTrueClassroom":"A","exampleSet":"second","trial_type":"survey-html-form","trial_index":114,"time_elapsed":804486,"internal_node_id":"0.0-111.0-0.0","params":{"nStudents":24,"maxFlips":30,"completionMinutes":45,"basePay":8,"maxBonus":9,"perTrialBonus":0.5,"perTrialBonusThreshold":0.05,"exampleCost":0.01},"classroomParams":{"A":{"a":1,"b":4},"B":{"a":4,"b":1},"C":{"a":2,"b":8},"D":{"a":8,"b":2}},"conditions":["nonSeqFull","nonSeqPartial","seqNoFeedback","seqFeedback"],"classroomPairings":[["A","B"],["C","D"]],"coinWeights":[0.2,0.5,0.8],"subjectId":"A320QA9HJFUOZO","assignmentId":"3TDXMTX3CCGHZXK64U954XZXNZ7I67","hitId":"363A7XIFV48LMLIF2CKYA8VQSVQAVR","url":"https://gershmanlab.com/experiments/alicia/teaching/experiment/?hitId=363A7XIFV48LMLIF2CKYA8VQSVQAVR&workerId=A320QA9HJFUOZO&assignmentId=3TDXMTX3CCGHZXK64U954XZXNZ7I67&a=3MDT9&tp_a=3MDT9&b=3TDXMTX3CCGHZXK64U954XZXNZ7I67&tp_b=3TDXMTX3CCGHZXK64U954XZXNZ7I67&c=365799&tp_c=365799","firstResponseHeads":5,"firstResponseTails":5,"secondResponseHeads":1,"secondResponseTails":0,"totalHeads":6,"totalTails":5,"studentIndex":12,"studentTrueHypers":{"a":1,"b":4},"studentGuess":0.4375,"delta":0.0625,"bonus":0,"bonusSoFar":1.29,"totalExamples":11},{"rt":6233,"response":{"heads":"12","tails":"10"},"type":"response","condition":"nonSeqPartial","trueTheta":0.5,"classrooms":["C","D"],"studentTrueClassroom":"C","exampleSet":"first","trial_type":"survey-html-form","trial_index":120,"time_elapsed":824983,"internal_node_id":"0.0-117.0-0.0","params":{"nStudents":24,"maxFlips":30,"completionMinutes":45,"basePay":8,"maxBonus":9,"perTrialBonus":0.5,"perTrialBonusThreshold":0.05,"exampleCost":0.01},"classroomParams":{"A":{"a":1,"b":4},"B":{"a":4,"b":1},"C":{"a":2,"b":8},"D":{"a":8,"b":2}},"conditions":["nonSeqFull","nonSeqPartial","seqNoFeedback","seqFeedback"],"classroomPairings":[["A","B"],["C","D"]],"coinWeights":[0.2,0.5,0.8],"subjectId":"A320QA9HJFUOZO","assignmentId":"3TDXMTX3CCGHZXK64U954XZXNZ7I67","hitId":"363A7XIFV48LMLIF2CKYA8VQSVQAVR","url":"https://gershmanlab.com/experiments/alicia/teaching/experiment/?hitId=363A7XIFV48LMLIF2CKYA8VQSVQAVR&workerId=A320QA9HJFUOZO&assignmentId=3TDXMTX3CCGHZXK64U954XZXNZ7I67&a=3MDT9&tp_a=3MDT9&b=3TDXMTX3CCGHZXK64U954XZXNZ7I67&tp_b=3TDXMTX3CCGHZXK64U954XZXNZ7I67&c=365799&tp_c=365799","heads":12,"tails":10,"studentIndex":13,"studentTrueHypers":{"a":2,"b":8},"studentGuess":0.4375,"delta":0.0625,"totalExamples":22,"bonus":0,"bonusSoFar":1.29},{"rt":2418,"response":{"heads":"1","tails":"1"},"type":"response","condition":"seqNoFeedback","trueTheta":0.5,"classrooms":["C","D"],"studentTrueClassroom":"C","exampleSet":"first","trial_type":"survey-html-form","trial_index":126,"time_elapsed":848536,"internal_node_id":"0.0-123.0-0.0","params":{"nStudents":24,"maxFlips":30,"completionMinutes":45,"basePay":8,"maxBonus":9,"perTrialBonus":0.5,"perTrialBonusThreshold":0.05,"exampleCost":0.01},"classroomParams":{"A":{"a":1,"b":4},"B":{"a":4,"b":1},"C":{"a":2,"b":8},"D":{"a":8,"b":2}},"conditions":["nonSeqFull","nonSeqPartial","seqNoFeedback","seqFeedback"],"classroomPairings":[["A","B"],["C","D"]],"coinWeights":[0.2,0.5,0.8],"subjectId":"A320QA9HJFUOZO","assignmentId":"3TDXMTX3CCGHZXK64U954XZXNZ7I67","hitId":"363A7XIFV48LMLIF2CKYA8VQSVQAVR","url":"https://gershmanlab.com/experiments/alicia/teaching/experiment/?hitId=363A7XIFV48LMLIF2CKYA8VQSVQAVR&workerId=A320QA9HJFUOZO&assignmentId=3TDXMTX3CCGHZXK64U954XZXNZ7I67&a=3MDT9&tp_a=3MDT9&b=3TDXMTX3CCGHZXK64U954XZXNZ7I67&tp_b=3TDXMTX3CCGHZXK64U954XZXNZ7I67&c=365799&tp_c=365799","heads":1,"tails":1,"studentIndex":14,"studentTrueHypers":{"a":2,"b":8},"studentGuess":0.25,"delta":0.25,"totalExamples":2,"bonusSoFar":1.29},{"rt":3920,"response":{"heads":"2","tails":"2"},"type":"response","condition":"seqNoFeedback","trueTheta":0.5,"classrooms":["C","D"],"studentTrueClassroom":"C","exampleSet":"second","trial_type":"survey-html-form","trial_index":129,"time_elapsed":858210,"internal_node_id":"0.0-126.0-0.0","params":{"nStudents":24,"maxFlips":30,"completionMinutes":45,"basePay":8,"maxBonus":9,"perTrialBonus":0.5,"perTrialBonusThreshold":0.05,"exampleCost":0.01},"classroomParams":{"A":{"a":1,"b":4},"B":{"a":4,"b":1},"C":{"a":2,"b":8},"D":{"a":8,"b":2}},"conditions":["nonSeqFull","nonSeqPartial","seqNoFeedback","seqFeedback"],"classroomPairings":[["A","B"],["C","D"]],"coinWeights":[0.2,0.5,0.8],"subjectId":"A320QA9HJFUOZO","assignmentId":"3TDXMTX3CCGHZXK64U954XZXNZ7I67","hitId":"363A7XIFV48LMLIF2CKYA8VQSVQAVR","url":"https://gershmanlab.com/experiments/alicia/teaching/experiment/?hitId=363A7XIFV48LMLIF2CKYA8VQSVQAVR&workerId=A320QA9HJFUOZO&assignmentId=3TDXMTX3CCGHZXK64U954XZXNZ7I67&a=3MDT9&tp_a=3MDT9&b=3TDXMTX3CCGHZXK64U954XZXNZ7I67&tp_b=3TDXMTX3CCGHZXK64U954XZXNZ7I67&c=365799&tp_c=365799","firstResponseHeads":1,"firstResponseTails":1,"secondResponseHeads":2,"secondResponseTails":2,"totalHeads":3,"totalTails":3,"studentIndex":14,"studentTrueHypers":{"a":2,"b":8},"studentGuess":0.3125,"delta":0.1875,"bonus":0,"bonusSoFar":1.29,"totalExamples":6},{"rt":5547,"response":{"heads":"3","tails":"2"},"type":"response","condition":"nonSeqPartial","trueTheta":0.8,"classrooms":["A","B"],"studentTrueClassroom":"A","exampleSet":"first","trial_type":"survey-html-form","trial_index":135,"time_elapsed":881722,"internal_node_id":"0.0-132.0-0.0","params":{"nStudents":24,"maxFlips":30,"completionMinutes":45,"basePay":8,"maxBonus":9,"perTrialBonus":0.5,"perTrialBonusThreshold":0.05,"exampleCost":0.01},"classroomParams":{"A":{"a":1,"b":4},"B":{"a":4,"b":1},"C":{"a":2,"b":8},"D":{"a":8,"b":2}},"conditions":["nonSeqFull","nonSeqPartial","seqNoFeedback","seqFeedback"],"classroomPairings":[["A","B"],["C","D"]],"coinWeights":[0.2,0.5,0.8],"subjectId":"A320QA9HJFUOZO","assignmentId":"3TDXMTX3CCGHZXK64U954XZXNZ7I67","hitId":"363A7XIFV48LMLIF2CKYA8VQSVQAVR","url":"https://gershmanlab.com/experiments/alicia/teaching/experiment/?hitId=363A7XIFV48LMLIF2CKYA8VQSVQAVR&workerId=A320QA9HJFUOZO&assignmentId=3TDXMTX3CCGHZXK64U954XZXNZ7I67&a=3MDT9&tp_a=3MDT9&b=3TDXMTX3CCGHZXK64U954XZXNZ7I67&tp_b=3TDXMTX3CCGHZXK64U954XZXNZ7I67&c=365799&tp_c=365799","heads":3,"tails":2,"studentIndex":15,"studentTrueHypers":{"a":1,"b":4},"studentGuess":0.4,"delta":0.4,"totalExamples":5,"bonus":0,"bonusSoFar":1.29},{"rt":3480,"response":{"heads":"3","tails":"7"},"type":"response","condition":"nonSeqPartial","trueTheta":0.8,"classrooms":["C","D"],"studentTrueClassroom":"C","exampleSet":"first","trial_type":"survey-html-form","trial_index":141,"time_elapsed":902147,"internal_node_id":"0.0-138.0-0.0","params":{"nStudents":24,"maxFlips":30,"completionMinutes":45,"basePay":8,"maxBonus":9,"perTrialBonus":0.5,"perTrialBonusThreshold":0.05,"exampleCost":0.01},"classroomParams":{"A":{"a":1,"b":4},"B":{"a":4,"b":1},"C":{"a":2,"b":8},"D":{"a":8,"b":2}},"conditions":["nonSeqFull","nonSeqPartial","seqNoFeedback","seqFeedback"],"classroomPairings":[["A","B"],["C","D"]],"coinWeights":[0.2,0.5,0.8],"subjectId":"A320QA9HJFUOZO","assignmentId":"3TDXMTX3CCGHZXK64U954XZXNZ7I67","hitId":"363A7XIFV48LMLIF2CKYA8VQSVQAVR","url":"https://gershmanlab.com/experiments/alicia/teaching/experiment/?hitId=363A7XIFV48LMLIF2CKYA8VQSVQAVR&workerId=A320QA9HJFUOZO&assignmentId=3TDXMTX3CCGHZXK64U954XZXNZ7I67&a=3MDT9&tp_a=3MDT9&b=3TDXMTX3CCGHZXK64U954XZXNZ7I67&tp_b=3TDXMTX3CCGHZXK64U954XZXNZ7I67&c=365799&tp_c=365799","heads":3,"tails":7,"studentIndex":16,"studentTrueHypers":{"a":2,"b":8},"studentGuess":0.25,"delta":0.55,"totalExamples":10,"bonus":0,"bonusSoFar":1.29},{"rt":2647,"response":{"heads":"8","tails":"2"},"type":"response","condition":"nonSeqPartial","trueTheta":0.2,"classrooms":["A","B"],"studentTrueClassroom":"B","exampleSet":"first","trial_type":"survey-html-form","trial_index":147,"time_elapsed":916403,"internal_node_id":"0.0-144.0-0.0","params":{"nStudents":24,"maxFlips":30,"completionMinutes":45,"basePay":8,"maxBonus":9,"perTrialBonus":0.5,"perTrialBonusThreshold":0.05,"exampleCost":0.01},"classroomParams":{"A":{"a":1,"b":4},"B":{"a":4,"b":1},"C":{"a":2,"b":8},"D":{"a":8,"b":2}},"conditions":["nonSeqFull","nonSeqPartial","seqNoFeedback","seqFeedback"],"classroomPairings":[["A","B"],["C","D"]],"coinWeights":[0.2,0.5,0.8],"subjectId":"A320QA9HJFUOZO","assignmentId":"3TDXMTX3CCGHZXK64U954XZXNZ7I67","hitId":"363A7XIFV48LMLIF2CKYA8VQSVQAVR","url":"https://gershmanlab.com/experiments/alicia/teaching/experiment/?hitId=363A7XIFV48LMLIF2CKYA8VQSVQAVR&workerId=A320QA9HJFUOZO&assignmentId=3TDXMTX3CCGHZXK64U954XZXNZ7I67&a=3MDT9&tp_a=3MDT9&b=3TDXMTX3CCGHZXK64U954XZXNZ7I67&tp_b=3TDXMTX3CCGHZXK64U954XZXNZ7I67&c=365799&tp_c=365799","heads":8,"tails":2,"studentIndex":17,"studentTrueHypers":{"a":4,"b":1},"studentGuess":0.8,"delta":0.6000000000000001,"totalExamples":10,"bonus":0,"bonusSoFar":1.29},{"rt":2382,"response":{"heads":"7","tails":"3"},"type":"response","condition":"nonSeqPartial","trueTheta":0.2,"classrooms":["C","D"],"studentTrueClassroom":"C","exampleSet":"first","trial_type":"survey-html-form","trial_index":153,"time_elapsed":931030,"internal_node_id":"0.0-150.0-0.0","params":{"nStudents":24,"maxFlips":30,"completionMinutes":45,"basePay":8,"maxBonus":9,"perTrialBonus":0.5,"perTrialBonusThreshold":0.05,"exampleCost":0.01},"classroomParams":{"A":{"a":1,"b":4},"B":{"a":4,"b":1},"C":{"a":2,"b":8},"D":{"a":8,"b":2}},"conditions":["nonSeqFull","nonSeqPartial","seqNoFeedback","seqFeedback"],"classroomPairings":[["A","B"],["C","D"]],"coinWeights":[0.2,0.5,0.8],"subjectId":"A320QA9HJFUOZO","assignmentId":"3TDXMTX3CCGHZXK64U954XZXNZ7I67","hitId":"363A7XIFV48LMLIF2CKYA8VQSVQAVR","url":"https://gershmanlab.com/experiments/alicia/teaching/experiment/?hitId=363A7XIFV48LMLIF2CKYA8VQSVQAVR&workerId=A320QA9HJFUOZO&assignmentId=3TDXMTX3CCGHZXK64U954XZXNZ7I67&a=3MDT9&tp_a=3MDT9&b=3TDXMTX3CCGHZXK64U954XZXNZ7I67&tp_b=3TDXMTX3CCGHZXK64U954XZXNZ7I67&c=365799&tp_c=365799","heads":7,"tails":3,"studentIndex":18,"studentTrueHypers":{"a":2,"b":8},"studentGuess":0.45,"delta":0.25,"totalExamples":10,"bonus":0,"bonusSoFar":1.29},{"rt":3711,"response":{"heads":"7","tails":"4"},"type":"response","condition":"nonSeqPartial","trueTheta":0.5,"classrooms":["A","B"],"studentTrueClassroom":"B","exampleSet":"first","trial_type":"survey-html-form","trial_index":159,"time_elapsed":945065,"internal_node_id":"0.0-156.0-0.0","params":{"nStudents":24,"maxFlips":30,"completionMinutes":45,"basePay":8,"maxBonus":9,"perTrialBonus":0.5,"perTrialBonusThreshold":0.05,"exampleCost":0.01},"classroomParams":{"A":{"a":1,"b":4},"B":{"a":4,"b":1},"C":{"a":2,"b":8},"D":{"a":8,"b":2}},"conditions":["nonSeqFull","nonSeqPartial","seqNoFeedback","seqFeedback"],"classroomPairings":[["A","B"],["C","D"]],"coinWeights":[0.2,0.5,0.8],"subjectId":"A320QA9HJFUOZO","assignmentId":"3TDXMTX3CCGHZXK64U954XZXNZ7I67","hitId":"363A7XIFV48LMLIF2CKYA8VQSVQAVR","url":"https://gershmanlab.com/experiments/alicia/teaching/experiment/?hitId=363A7XIFV48LMLIF2CKYA8VQSVQAVR&workerId=A320QA9HJFUOZO&assignmentId=3TDXMTX3CCGHZXK64U954XZXNZ7I67&a=3MDT9&tp_a=3MDT9&b=3TDXMTX3CCGHZXK64U954XZXNZ7I67&tp_b=3TDXMTX3CCGHZXK64U954XZXNZ7I67&c=365799&tp_c=365799","heads":7,"tails":4,"studentIndex":19,"studentTrueHypers":{"a":4,"b":1},"studentGuess":0.6875,"delta":0.1875,"totalExamples":11,"bonus":0,"bonusSoFar":1.29},{"rt":4848,"response":{"heads":"11","tails":"14"},"type":"response","condition":"nonSeqFull","trueTheta":0.2,"classrooms":["C","D"],"studentTrueClassroom":"D","exampleSet":"first","trial_type":"survey-html-form","trial_index":165,"time_elapsed":964666,"internal_node_id":"0.0-162.0-0.0","params":{"nStudents":24,"maxFlips":30,"completionMinutes":45,"basePay":8,"maxBonus":9,"perTrialBonus":0.5,"perTrialBonusThreshold":0.05,"exampleCost":0.01},"classroomParams":{"A":{"a":1,"b":4},"B":{"a":4,"b":1},"C":{"a":2,"b":8},"D":{"a":8,"b":2}},"conditions":["nonSeqFull","nonSeqPartial","seqNoFeedback","seqFeedback"],"classroomPairings":[["A","B"],["C","D"]],"coinWeights":[0.2,0.5,0.8],"subjectId":"A320QA9HJFUOZO","assignmentId":"3TDXMTX3CCGHZXK64U954XZXNZ7I67","hitId":"363A7XIFV48LMLIF2CKYA8VQSVQAVR","url":"https://gershmanlab.com/experiments/alicia/teaching/experiment/?hitId=363A7XIFV48LMLIF2CKYA8VQSVQAVR&workerId=A320QA9HJFUOZO&assignmentId=3TDXMTX3CCGHZXK64U954XZXNZ7I67&a=3MDT9&tp_a=3MDT9&b=3TDXMTX3CCGHZXK64U954XZXNZ7I67&tp_b=3TDXMTX3CCGHZXK64U954XZXNZ7I67&c=365799&tp_c=365799","heads":11,"tails":14,"studentIndex":20,"studentTrueHypers":{"a":8,"b":2},"studentGuess":0.5428571428571428,"delta":0.3428571428571428,"totalExamples":25,"bonus":0,"bonusSoFar":1.29},{"rt":2617,"response":{"heads":"5","tails":"4"},"type":"response","condition":"seqNoFeedback","trueTheta":0.8,"classrooms":["A","B"],"studentTrueClassroom":"A","exampleSet":"first","trial_type":"survey-html-form","trial_index":171,"time_elapsed":978016,"internal_node_id":"0.0-168.0-0.0","params":{"nStudents":24,"maxFlips":30,"completionMinutes":45,"basePay":8,"maxBonus":9,"perTrialBonus":0.5,"perTrialBonusThreshold":0.05,"exampleCost":0.01},"classroomParams":{"A":{"a":1,"b":4},"B":{"a":4,"b":1},"C":{"a":2,"b":8},"D":{"a":8,"b":2}},"conditions":["nonSeqFull","nonSeqPartial","seqNoFeedback","seqFeedback"],"classroomPairings":[["A","B"],["C","D"]],"coinWeights":[0.2,0.5,0.8],"subjectId":"A320QA9HJFUOZO","assignmentId":"3TDXMTX3CCGHZXK64U954XZXNZ7I67","hitId":"363A7XIFV48LMLIF2CKYA8VQSVQAVR","url":"https://gershmanlab.com/experiments/alicia/teaching/experiment/?hitId=363A7XIFV48LMLIF2CKYA8VQSVQAVR&workerId=A320QA9HJFUOZO&assignmentId=3TDXMTX3CCGHZXK64U954XZXNZ7I67&a=3MDT9&tp_a=3MDT9&b=3TDXMTX3CCGHZXK64U954XZXNZ7I67&tp_b=3TDXMTX3CCGHZXK64U954XZXNZ7I67&c=365799&tp_c=365799","heads":5,"tails":4,"studentIndex":21,"studentTrueHypers":{"a":1,"b":4},"studentGuess":0.42857142857142855,"delta":0.3714285714285715,"totalExamples":9,"bonusSoFar":1.29},{"rt":3892,"response":{"heads":"3","tails":"3"},"type":"response","condition":"seqNoFeedback","trueTheta":0.8,"classrooms":["A","B"],"studentTrueClassroom":"A","exampleSet":"second","trial_type":"survey-html-form","trial_index":174,"time_elapsed":988170,"internal_node_id":"0.0-171.0-0.0","params":{"nStudents":24,"maxFlips":30,"completionMinutes":45,"basePay":8,"maxBonus":9,"perTrialBonus":0.5,"perTrialBonusThreshold":0.05,"exampleCost":0.01},"classroomParams":{"A":{"a":1,"b":4},"B":{"a":4,"b":1},"C":{"a":2,"b":8},"D":{"a":8,"b":2}},"conditions":["nonSeqFull","nonSeqPartial","seqNoFeedback","seqFeedback"],"classroomPairings":[["A","B"],["C","D"]],"coinWeights":[0.2,0.5,0.8],"subjectId":"A320QA9HJFUOZO","assignmentId":"3TDXMTX3CCGHZXK64U954XZXNZ7I67","hitId":"363A7XIFV48LMLIF2CKYA8VQSVQAVR","url":"https://gershmanlab.com/experiments/alicia/teaching/experiment/?hitId=363A7XIFV48LMLIF2CKYA8VQSVQAVR&workerId=A320QA9HJFUOZO&assignmentId=3TDXMTX3CCGHZXK64U954XZXNZ7I67&a=3MDT9&tp_a=3MDT9&b=3TDXMTX3CCGHZXK64U954XZXNZ7I67&tp_b=3TDXMTX3CCGHZXK64U954XZXNZ7I67&c=365799&tp_c=365799","firstResponseHeads":5,"firstResponseTails":4,"secondResponseHeads":3,"secondResponseTails":3,"totalHeads":8,"totalTails":7,"studentIndex":21,"studentTrueHypers":{"a":1,"b":4},"studentGuess":0.45,"delta":0.35000000000000003,"bonus":0,"bonusSoFar":1.29,"totalExamples":15},{"rt":7300,"response":{"heads":"8","tails":"3"},"type":"response","condition":"nonSeqFull","trueTheta":0.8,"classrooms":["A","B"],"studentTrueClassroom":"A","exampleSet":"first","trial_type":"survey-html-form","trial_index":180,"time_elapsed":1007241,"internal_node_id":"0.0-177.0-0.0","params":{"nStudents":24,"maxFlips":30,"completionMinutes":45,"basePay":8,"maxBonus":9,"perTrialBonus":0.5,"perTrialBonusThreshold":0.05,"exampleCost":0.01},"classroomParams":{"A":{"a":1,"b":4},"B":{"a":4,"b":1},"C":{"a":2,"b":8},"D":{"a":8,"b":2}},"conditions":["nonSeqFull","nonSeqPartial","seqNoFeedback","seqFeedback"],"classroomPairings":[["A","B"],["C","D"]],"coinWeights":[0.2,0.5,0.8],"subjectId":"A320QA9HJFUOZO","assignmentId":"3TDXMTX3CCGHZXK64U954XZXNZ7I67","hitId":"363A7XIFV48LMLIF2CKYA8VQSVQAVR","url":"https://gershmanlab.com/experiments/alicia/teaching/experiment/?hitId=363A7XIFV48LMLIF2CKYA8VQSVQAVR&workerId=A320QA9HJFUOZO&assignmentId=3TDXMTX3CCGHZXK64U954XZXNZ7I67&a=3MDT9&tp_a=3MDT9&b=3TDXMTX3CCGHZXK64U954XZXNZ7I67&tp_b=3TDXMTX3CCGHZXK64U954XZXNZ7I67&c=365799&tp_c=365799","heads":8,"tails":3,"studentIndex":22,"studentTrueHypers":{"a":1,"b":4},"studentGuess":0.5625,"delta":0.23750000000000004,"totalExamples":11,"bonus":0,"bonusSoFar":1.29},{"rt":2916,"response":{"heads":"4","tails":"5"},"type":"response","condition":"seqNoFeedback","trueTheta":0.8,"classrooms":["C","D"],"studentTrueClassroom":"C","exampleSet":"first","trial_type":"survey-html-form","trial_index":186,"time_elapsed":1050354,"internal_node_id":"0.0-183.0-0.0","params":{"nStudents":24,"maxFlips":30,"completionMinutes":45,"basePay":8,"maxBonus":9,"perTrialBonus":0.5,"perTrialBonusThreshold":0.05,"exampleCost":0.01},"classroomParams":{"A":{"a":1,"b":4},"B":{"a":4,"b":1},"C":{"a":2,"b":8},"D":{"a":8,"b":2}},"conditions":["nonSeqFull","nonSeqPartial","seqNoFeedback","seqFeedback"],"classroomPairings":[["A","B"],["C","D"]],"coinWeights":[0.2,0.5,0.8],"subjectId":"A320QA9HJFUOZO","assignmentId":"3TDXMTX3CCGHZXK64U954XZXNZ7I67","hitId":"363A7XIFV48LMLIF2CKYA8VQSVQAVR","url":"https://gershmanlab.com/experiments/alicia/teaching/experiment/?hitId=363A7XIFV48LMLIF2CKYA8VQSVQAVR&workerId=A320QA9HJFUOZO&assignmentId=3TDXMTX3CCGHZXK64U954XZXNZ7I67&a=3MDT9&tp_a=3MDT9&b=3TDXMTX3CCGHZXK64U954XZXNZ7I67&tp_b=3TDXMTX3CCGHZXK64U954XZXNZ7I67&c=365799&tp_c=365799","heads":4,"tails":5,"studentIndex":23,"studentTrueHypers":{"a":2,"b":8},"studentGuess":0.3157894736842105,"delta":0.48421052631578954,"totalExamples":9,"bonusSoFar":1.29},{"rt":2829,"response":{"heads":"5","tails":"6"},"type":"response","condition":"seqNoFeedback","trueTheta":0.8,"classrooms":["C","D"],"studentTrueClassroom":"C","exampleSet":"second","trial_type":"survey-html-form","trial_index":189,"time_elapsed":1060686,"internal_node_id":"0.0-186.0-0.0","params":{"nStudents":24,"maxFlips":30,"completionMinutes":45,"basePay":8,"maxBonus":9,"perTrialBonus":0.5,"perTrialBonusThreshold":0.05,"exampleCost":0.01},"classroomParams":{"A":{"a":1,"b":4},"B":{"a":4,"b":1},"C":{"a":2,"b":8},"D":{"a":8,"b":2}},"conditions":["nonSeqFull","nonSeqPartial","seqNoFeedback","seqFeedback"],"classroomPairings":[["A","B"],["C","D"]],"coinWeights":[0.2,0.5,0.8],"subjectId":"A320QA9HJFUOZO","assignmentId":"3TDXMTX3CCGHZXK64U954XZXNZ7I67","hitId":"363A7XIFV48LMLIF2CKYA8VQSVQAVR","url":"https://gershmanlab.com/experiments/alicia/teaching/experiment/?hitId=363A7XIFV48LMLIF2CKYA8VQSVQAVR&workerId=A320QA9HJFUOZO&assignmentId=3TDXMTX3CCGHZXK64U954XZXNZ7I67&a=3MDT9&tp_a=3MDT9&b=3TDXMTX3CCGHZXK64U954XZXNZ7I67&tp_b=3TDXMTX3CCGHZXK64U954XZXNZ7I67&c=365799&tp_c=365799","firstResponseHeads":4,"firstResponseTails":5,"secondResponseHeads":5,"secondResponseTails":6,"totalHeads":9,"totalTails":11,"studentIndex":23,"studentTrueHypers":{"a":2,"b":8},"studentGuess":0.36666666666666664,"delta":0.4333333333333334,"bonus":0,"bonusSoFar":1.29,"totalExamples":20},{"rt":29847,"response":{"gender":"male","age":"35","understood":"yes","comments":"frustrating and silly, discouraging when you can give the \"student\" 20+ examples and they still get it wrong. What's the point?"},"type":"response","trial_type":"survey-html-form","trial_index":193,"time_elapsed":1097100,"internal_node_id":"0.0-191.0","params":{"nStudents":24,"maxFlips":30,"completionMinutes":45,"basePay":8,"maxBonus":9,"perTrialBonus":0.5,"perTrialBonusThreshold":0.05,"exampleCost":0.01},"classroomParams":{"A":{"a":1,"b":4},"B":{"a":4,"b":1},"C":{"a":2,"b":8},"D":{"a":8,"b":2}},"conditions":["nonSeqFull","nonSeqPartial","seqNoFeedback","seqFeedback"],"classroomPairings":[["A","B"],["C","D"]],"coinWeights":[0.2,0.5,0.8],"subjectId":"A320QA9HJFUOZO","assignmentId":"3TDXMTX3CCGHZXK64U954XZXNZ7I67","hitId":"363A7XIFV48LMLIF2CKYA8VQSVQAVR","url":"https://gershmanlab.com/experiments/alicia/teaching/experiment/?hitId=363A7XIFV48LMLIF2CKYA8VQSVQAVR&workerId=A320QA9HJFUOZO&assignmentId=3TDXMTX3CCGHZXK64U954XZXNZ7I67&a=3MDT9&tp_a=3MDT9&b=3TDXMTX3CCGHZXK64U954XZXNZ7I67&tp_b=3TDXMTX3CCGHZXK64U954XZXNZ7I67&c=365799&tp_c=365799","totalBonus":1.29}]