[{"rt":25959,"response":{"heads":"9","tails":"8"},"type":"response","condition":"nonSeqPartial","trueTheta":0.5,"classrooms":["A","B"],"studentTrueClassroom":"B","exampleSet":"first","trial_type":"survey-html-form","trial_index":10,"time_elapsed":483595,"internal_node_id":"0.0-6.0-0.0","params":{"nStudents":24,"maxFlips":30,"completionMinutes":45,"basePay":8,"maxBonus":9,"perTrialBonus":0.5,"perTrialBonusThreshold":0.05,"exampleCost":0.01},"classroomParams":{"A":{"a":1,"b":4},"B":{"a":4,"b":1},"C":{"a":2,"b":8},"D":{"a":8,"b":2}},"conditions":["nonSeqFull","nonSeqPartial","seqNoFeedback","seqFeedback"],"classroomPairings":[["A","B"],["C","D"]],"coinWeights":[0.2,0.5,0.8],"subjectId":"A32JEH06T23HDF","assignmentId":"3YHH42UU5C1OBN6XN8Q1NCHYR0FL0N","hitId":"3J94SKDEKIB2MY6CGVTNWB9X0ALD5P","url":"https://gershmanlab.com/experiments/alicia/teaching/experiment/?hitId=3J94SKDEKIB2MY6CGVTNWB9X0ALD5P&workerId=A32JEH06T23HDF&assignmentId=3YHH42UU5C1OBN6XN8Q1NCHYR0FL0N&a=U4HY9&tp_a=U4HY9&b=3YHH42UU5C1OBN6XN8Q1NCHYR0FL0N&tp_b=3YHH42UU5C1OBN6XN8Q1NCHYR0FL0N&c=365799&tp_c=365799","heads":9,"tails":8,"studentIndex":0,"studentTrueHypers":{"a":4,"b":1},"studentGuess":0.5909090909090909,"delta":0.09090909090909094,"totalExamples":17,"bonus":0,"bonusSoFar":0},{"rt":13975,"response":{"heads":"10","tails":"10"},"type":"response","condition":"seqFeedback","trueTheta":0.5,"classrooms":["A","B"],"studentTrueClassroom":"B","exampleSet":"first","trial_type":"survey-html-form","trial_index":16,"time_elapsed":519614,"internal_node_id":"0.0-12.0-0.0","params":{"nStudents":24,"maxFlips":30,"completionMinutes":45,"basePay":8,"maxBonus":9,"perTrialBonus":0.5,"perTrialBonusThreshold":0.05,"exampleCost":0.01},"classroomParams":{"A":{"a":1,"b":4},"B":{"a":4,"b":1},"C":{"a":2,"b":8},"D":{"a":8,"b":2}},"conditions":["nonSeqFull","nonSeqPartial","seqNoFeedback","seqFeedback"],"classroomPairings":[["A","B"],["C","D"]],"coinWeights":[0.2,0.5,0.8],"subjectId":"A32JEH06T23HDF","assignmentId":"3YHH42UU5C1OBN6XN8Q1NCHYR0FL0N","hitId":"3J94SKDEKIB2MY6CGVTNWB9X0ALD5P","url":"https://gershmanlab.com/experiments/alicia/teaching/experiment/?hitId=3J94SKDEKIB2MY6CGVTNWB9X0ALD5P&workerId=A32JEH06T23HDF&assignmentId=3YHH42UU5C1OBN6XN8Q1NCHYR0FL0N&a=U4HY9&tp_a=U4HY9&b=3YHH42UU5C1OBN6XN8Q1NCHYR0FL0N&tp_b=3YHH42UU5C1OBN6XN8Q1NCHYR0FL0N&c=365799&tp_c=365799","heads":10,"tails":10,"studentIndex":1,"studentTrueHypers":{"a":4,"b":1},"studentGuess":0.56,"delta":0.06000000000000005,"totalExamples":20,"bonusSoFar":0},{"rt":15851,"response":{"heads":"20","tails":"20"},"type":"response","condition":"seqFeedback","trueTheta":0.5,"classrooms":["A","B"],"studentTrueClassroom":"B","exampleSet":"second","trial_type":"survey-html-form","trial_index":20,"time_elapsed":545423,"internal_node_id":"0.0-16.0-0.0","params":{"nStudents":24,"maxFlips":30,"completionMinutes":45,"basePay":8,"maxBonus":9,"perTrialBonus":0.5,"perTrialBonusThreshold":0.05,"exampleCost":0.01},"classroomParams":{"A":{"a":1,"b":4},"B":{"a":4,"b":1},"C":{"a":2,"b":8},"D":{"a":8,"b":2}},"conditions":["nonSeqFull","nonSeqPartial","seqNoFeedback","seqFeedback"],"classroomPairings":[["A","B"],["C","D"]],"coinWeights":[0.2,0.5,0.8],"subjectId":"A32JEH06T23HDF","assignmentId":"3YHH42UU5C1OBN6XN8Q1NCHYR0FL0N","hitId":"3J94SKDEKIB2MY6CGVTNWB9X0ALD5P","url":"https://gershmanlab.com/experiments/alicia/teaching/experiment/?hitId=3J94SKDEKIB2MY6CGVTNWB9X0ALD5P&workerId=A32JEH06T23HDF&assignmentId=3YHH42UU5C1OBN6XN8Q1NCHYR0FL0N&a=U4HY9&tp_a=U4HY9&b=3YHH42UU5C1OBN6XN8Q1NCHYR0FL0N&tp_b=3YHH42UU5C1OBN6XN8Q1NCHYR0FL0N&c=365799&tp_c=365799","firstResponseHeads":10,"firstResponseTails":10,"secondResponseHeads":20,"secondResponseTails":20,"totalHeads":30,"totalTails":30,"studentIndex":1,"studentTrueHypers":{"a":4,"b":1},"studentGuess":0.5230769230769231,"delta":0.023076923076923106,"bonus":0,"bonusSoFar":0,"totalExamples":60},{"rt":8924,"response":{"heads":"15","tails":"15"},"type":"response","condition":"seqFeedback","trueTheta":0.5,"classrooms":["A","B"],"studentTrueClassroom":"B","exampleSet":"second","trial_type":"survey-html-form","trial_index":21,"time_elapsed":554350,"internal_node_id":"0.0-16.1-0.1","params":{"nStudents":24,"maxFlips":30,"completionMinutes":45,"basePay":8,"maxBonus":9,"perTrialBonus":0.5,"perTrialBonusThreshold":0.05,"exampleCost":0.01},"classroomParams":{"A":{"a":1,"b":4},"B":{"a":4,"b":1},"C":{"a":2,"b":8},"D":{"a":8,"b":2}},"conditions":["nonSeqFull","nonSeqPartial","seqNoFeedback","seqFeedback"],"classroomPairings":[["A","B"],["C","D"]],"coinWeights":[0.2,0.5,0.8],"subjectId":"A32JEH06T23HDF","assignmentId":"3YHH42UU5C1OBN6XN8Q1NCHYR0FL0N","hitId":"3J94SKDEKIB2MY6CGVTNWB9X0ALD5P","url":"https://gershmanlab.com/experiments/alicia/teaching/experiment/?hitId=3J94SKDEKIB2MY6CGVTNWB9X0ALD5P&workerId=A32JEH06T23HDF&assignmentId=3YHH42UU5C1OBN6XN8Q1NCHYR0FL0N&a=U4HY9&tp_a=U4HY9&b=3YHH42UU5C1OBN6XN8Q1NCHYR0FL0N&tp_b=3YHH42UU5C1OBN6XN8Q1NCHYR0FL0N&c=365799&tp_c=365799","firstResponseHeads":10,"firstResponseTails":10,"secondResponseHeads":15,"secondResponseTails":15,"totalHeads":25,"totalTails":25,"studentIndex":1,"studentTrueHypers":{"a":4,"b":1},"studentGuess":0.5272727272727272,"delta":0.027272727272727226,"bonus":0,"bonusSoFar":0,"totalExamples":50},{"rt":9120,"response":{"heads":"15","tails":"14"},"type":"response","condition":"seqNoFeedback","trueTheta":0.5,"classrooms":["A","B"],"studentTrueClassroom":"B","exampleSet":"first","trial_type":"survey-html-form","trial_index":27,"time_elapsed":579830,"internal_node_id":"0.0-22.0-0.0","params":{"nStudents":24,"maxFlips":30,"completionMinutes":45,"basePay":8,"maxBonus":9,"perTrialBonus":0.5,"perTrialBonusThreshold":0.05,"exampleCost":0.01},"classroomParams":{"A":{"a":1,"b":4},"B":{"a":4,"b":1},"C":{"a":2,"b":8},"D":{"a":8,"b":2}},"conditions":["nonSeqFull","nonSeqPartial","seqNoFeedback","seqFeedback"],"classroomPairings":[["A","B"],["C","D"]],"coinWeights":[0.2,0.5,0.8],"subjectId":"A32JEH06T23HDF","assignmentId":"3YHH42UU5C1OBN6XN8Q1NCHYR0FL0N","hitId":"3J94SKDEKIB2MY6CGVTNWB9X0ALD5P","url":"https://gershmanlab.com/experiments/alicia/teaching/experiment/?hitId=3J94SKDEKIB2MY6CGVTNWB9X0ALD5P&workerId=A32JEH06T23HDF&assignmentId=3YHH42UU5C1OBN6XN8Q1NCHYR0FL0N&a=U4HY9&tp_a=U4HY9&b=3YHH42UU5C1OBN6XN8Q1NCHYR0FL0N&tp_b=3YHH42UU5C1OBN6XN8Q1NCHYR0FL0N&c=365799&tp_c=365799","heads":15,"tails":14,"studentIndex":2,"studentTrueHypers":{"a":4,"b":1},"studentGuess":0.5588235294117647,"delta":0.05882352941176472,"totalExamples":29,"bonusSoFar":0},{"rt":9621,"response":{"heads":"16","tails":"14"},"type":"response","condition":"seqNoFeedback","trueTheta":0.5,"classrooms":["A","B"],"studentTrueClassroom":"B","exampleSet":"second","trial_type":"survey-html-form","trial_index":30,"time_elapsed":594719,"internal_node_id":"0.0-25.0-0.0","params":{"nStudents":24,"maxFlips":30,"completionMinutes":45,"basePay":8,"maxBonus":9,"perTrialBonus":0.5,"perTrialBonusThreshold":0.05,"exampleCost":0.01},"classroomParams":{"A":{"a":1,"b":4},"B":{"a":4,"b":1},"C":{"a":2,"b":8},"D":{"a":8,"b":2}},"conditions":["nonSeqFull","nonSeqPartial","seqNoFeedback","seqFeedback"],"classroomPairings":[["A","B"],["C","D"]],"coinWeights":[0.2,0.5,0.8],"subjectId":"A32JEH06T23HDF","assignmentId":"3YHH42UU5C1OBN6XN8Q1NCHYR0FL0N","hitId":"3J94SKDEKIB2MY6CGVTNWB9X0ALD5P","url":"https://gershmanlab.com/experiments/alicia/teaching/experiment/?hitId=3J94SKDEKIB2MY6CGVTNWB9X0ALD5P&workerId=A32JEH06T23HDF&assignmentId=3YHH42UU5C1OBN6XN8Q1NCHYR0FL0N&a=U4HY9&tp_a=U4HY9&b=3YHH42UU5C1OBN6XN8Q1NCHYR0FL0N&tp_b=3YHH42UU5C1OBN6XN8Q1NCHYR0FL0N&c=365799&tp_c=365799","firstResponseHeads":15,"firstResponseTails":14,"secondResponseHeads":16,"secondResponseTails":14,"totalHeads":31,"totalTails":28,"studentIndex":2,"studentTrueHypers":{"a":4,"b":1},"studentGuess":0.546875,"delta":0.046875,"bonus":0,"bonusSoFar":0,"totalExamples":59},{"rt":13174,"response":{"heads":"9","tails":"21"},"type":"response","condition":"seqFeedback","trueTheta":0.5,"classrooms":["C","D"],"studentTrueClassroom":"C","exampleSet":"first","trial_type":"survey-html-form","trial_index":36,"time_elapsed":630039,"internal_node_id":"0.0-31.0-0.0","params":{"nStudents":24,"maxFlips":30,"completionMinutes":45,"basePay":8,"maxBonus":9,"perTrialBonus":0.5,"perTrialBonusThreshold":0.05,"exampleCost":0.01},"classroomParams":{"A":{"a":1,"b":4},"B":{"a":4,"b":1},"C":{"a":2,"b":8},"D":{"a":8,"b":2}},"conditions":["nonSeqFull","nonSeqPartial","seqNoFeedback","seqFeedback"],"classroomPairings":[["A","B"],["C","D"]],"coinWeights":[0.2,0.5,0.8],"subjectId":"A32JEH06T23HDF","assignmentId":"3YHH42UU5C1OBN6XN8Q1NCHYR0FL0N","hitId":"3J94SKDEKIB2MY6CGVTNWB9X0ALD5P","url":"https://gershmanlab.com/experiments/alicia/teaching/experiment/?hitId=3J94SKDEKIB2MY6CGVTNWB9X0ALD5P&workerId=A32JEH06T23HDF&assignmentId=3YHH42UU5C1OBN6XN8Q1NCHYR0FL0N&a=U4HY9&tp_a=U4HY9&b=3YHH42UU5C1OBN6XN8Q1NCHYR0FL0N&tp_b=3YHH42UU5C1OBN6XN8Q1NCHYR0FL0N&c=365799&tp_c=365799","heads":9,"tails":21,"studentIndex":3,"studentTrueHypers":{"a":2,"b":8},"studentGuess":0.275,"delta":0.22499999999999998,"totalExamples":30,"bonusSoFar":0},{"rt":22321,"response":{"heads":"20","tails":"15"},"type":"response","condition":"seqFeedback","trueTheta":0.5,"classrooms":["C","D"],"studentTrueClassroom":"C","exampleSet":"second","trial_type":"survey-html-form","trial_index":40,"time_elapsed":664744,"internal_node_id":"0.0-35.0-0.0","params":{"nStudents":24,"maxFlips":30,"completionMinutes":45,"basePay":8,"maxBonus":9,"perTrialBonus":0.5,"perTrialBonusThreshold":0.05,"exampleCost":0.01},"classroomParams":{"A":{"a":1,"b":4},"B":{"a":4,"b":1},"C":{"a":2,"b":8},"D":{"a":8,"b":2}},"conditions":["nonSeqFull","nonSeqPartial","seqNoFeedback","seqFeedback"],"classroomPairings":[["A","B"],["C","D"]],"coinWeights":[0.2,0.5,0.8],"subjectId":"A32JEH06T23HDF","assignmentId":"3YHH42UU5C1OBN6XN8Q1NCHYR0FL0N","hitId":"3J94SKDEKIB2MY6CGVTNWB9X0ALD5P","url":"https://gershmanlab.com/experiments/alicia/teaching/experiment/?hitId=3J94SKDEKIB2MY6CGVTNWB9X0ALD5P&workerId=A32JEH06T23HDF&assignmentId=3YHH42UU5C1OBN6XN8Q1NCHYR0FL0N&a=U4HY9&tp_a=U4HY9&b=3YHH42UU5C1OBN6XN8Q1NCHYR0FL0N&tp_b=3YHH42UU5C1OBN6XN8Q1NCHYR0FL0N&c=365799&tp_c=365799","firstResponseHeads":9,"firstResponseTails":21,"secondResponseHeads":20,"secondResponseTails":15,"totalHeads":29,"totalTails":36,"studentIndex":3,"studentTrueHypers":{"a":2,"b":8},"studentGuess":0.41333333333333333,"delta":0.08666666666666667,"bonus":0,"bonusSoFar":0,"totalExamples":65},{"rt":10752,"response":{"heads":"17","tails":"13"},"type":"response","condition":"seqFeedback","trueTheta":0.5,"classrooms":["C","D"],"studentTrueClassroom":"C","exampleSet":"second","trial_type":"survey-html-form","trial_index":41,"time_elapsed":675498,"internal_node_id":"0.0-35.1-0.1","params":{"nStudents":24,"maxFlips":30,"completionMinutes":45,"basePay":8,"maxBonus":9,"perTrialBonus":0.5,"perTrialBonusThreshold":0.05,"exampleCost":0.01},"classroomParams":{"A":{"a":1,"b":4},"B":{"a":4,"b":1},"C":{"a":2,"b":8},"D":{"a":8,"b":2}},"conditions":["nonSeqFull","nonSeqPartial","seqNoFeedback","seqFeedback"],"classroomPairings":[["A","B"],["C","D"]],"coinWeights":[0.2,0.5,0.8],"subjectId":"A32JEH06T23HDF","assignmentId":"3YHH42UU5C1OBN6XN8Q1NCHYR0FL0N","hitId":"3J94SKDEKIB2MY6CGVTNWB9X0ALD5P","url":"https://gershmanlab.com/experiments/alicia/teaching/experiment/?hitId=3J94SKDEKIB2MY6CGVTNWB9X0ALD5P&workerId=A32JEH06T23HDF&assignmentId=3YHH42UU5C1OBN6XN8Q1NCHYR0FL0N&a=U4HY9&tp_a=U4HY9&b=3YHH42UU5C1OBN6XN8Q1NCHYR0FL0N&tp_b=3YHH42UU5C1OBN6XN8Q1NCHYR0FL0N&c=365799&tp_c=365799","firstResponseHeads":9,"firstResponseTails":21,"secondResponseHeads":17,"secondResponseTails":13,"totalHeads":26,"totalTails":34,"studentIndex":3,"studentTrueHypers":{"a":2,"b":8},"studentGuess":0.4,"delta":0.09999999999999998,"bonus":0,"bonusSoFar":0,"totalExamples":60},{"rt":19818,"response":{"heads":"14","tails":"16"},"type":"response","condition":"nonSeqFull","trueTheta":0.2,"classrooms":["A","B"],"studentTrueClassroom":"B","exampleSet":"first","trial_type":"survey-html-form","trial_index":47,"time_elapsed":708355,"internal_node_id":"0.0-41.0-0.0","params":{"nStudents":24,"maxFlips":30,"completionMinutes":45,"basePay":8,"maxBonus":9,"perTrialBonus":0.5,"perTrialBonusThreshold":0.05,"exampleCost":0.01},"classroomParams":{"A":{"a":1,"b":4},"B":{"a":4,"b":1},"C":{"a":2,"b":8},"D":{"a":8,"b":2}},"conditions":["nonSeqFull","nonSeqPartial","seqNoFeedback","seqFeedback"],"classroomPairings":[["A","B"],["C","D"]],"coinWeights":[0.2,0.5,0.8],"subjectId":"A32JEH06T23HDF","assignmentId":"3YHH42UU5C1OBN6XN8Q1NCHYR0FL0N","hitId":"3J94SKDEKIB2MY6CGVTNWB9X0ALD5P","url":"https://gershmanlab.com/experiments/alicia/teaching/experiment/?hitId=3J94SKDEKIB2MY6CGVTNWB9X0ALD5P&workerId=A32JEH06T23HDF&assignmentId=3YHH42UU5C1OBN6XN8Q1NCHYR0FL0N&a=U4HY9&tp_a=U4HY9&b=3YHH42UU5C1OBN6XN8Q1NCHYR0FL0N&tp_b=3YHH42UU5C1OBN6XN8Q1NCHYR0FL0N&c=365799&tp_c=365799","heads":14,"tails":16,"studentIndex":4,"studentTrueHypers":{"a":4,"b":1},"studentGuess":0.5142857142857142,"delta":0.3142857142857142,"totalExamples":30,"bonus":0,"bonusSoFar":0},{"rt":20191,"response":{"heads":"8","tails":"22"},"type":"response","condition":"nonSeqFull","trueTheta":0.2,"classrooms":["C","D"],"studentTrueClassroom":"D","exampleSet":"first","trial_type":"survey-html-form","trial_index":53,"time_elapsed":743432,"internal_node_id":"0.0-47.0-0.0","params":{"nStudents":24,"maxFlips":30,"completionMinutes":45,"basePay":8,"maxBonus":9,"perTrialBonus":0.5,"perTrialBonusThreshold":0.05,"exampleCost":0.01},"classroomParams":{"A":{"a":1,"b":4},"B":{"a":4,"b":1},"C":{"a":2,"b":8},"D":{"a":8,"b":2}},"conditions":["nonSeqFull","nonSeqPartial","seqNoFeedback","seqFeedback"],"classroomPairings":[["A","B"],["C","D"]],"coinWeights":[0.2,0.5,0.8],"subjectId":"A32JEH06T23HDF","assignmentId":"3YHH42UU5C1OBN6XN8Q1NCHYR0FL0N","hitId":"3J94SKDEKIB2MY6CGVTNWB9X0ALD5P","url":"https://gershmanlab.com/experiments/alicia/teaching/experiment/?hitId=3J94SKDEKIB2MY6CGVTNWB9X0ALD5P&workerId=A32JEH06T23HDF&assignmentId=3YHH42UU5C1OBN6XN8Q1NCHYR0FL0N&a=U4HY9&tp_a=U4HY9&b=3YHH42UU5C1OBN6XN8Q1NCHYR0FL0N&tp_b=3YHH42UU5C1OBN6XN8Q1NCHYR0FL0N&c=365799&tp_c=365799","heads":8,"tails":22,"studentIndex":5,"studentTrueHypers":{"a":8,"b":2},"studentGuess":0.4,"delta":0.2,"totalExamples":30,"bonus":0,"bonusSoFar":0},{"rt":7495,"response":{"heads":"1","tails":"29"},"type":"response","condition":"nonSeqPartial","trueTheta":0.2,"classrooms":["C","D"],"studentTrueClassroom":"C","exampleSet":"first","trial_type":"survey-html-form","trial_index":59,"time_elapsed":781578,"internal_node_id":"0.0-53.0-0.0","params":{"nStudents":24,"maxFlips":30,"completionMinutes":45,"basePay":8,"maxBonus":9,"perTrialBonus":0.5,"perTrialBonusThreshold":0.05,"exampleCost":0.01},"classroomParams":{"A":{"a":1,"b":4},"B":{"a":4,"b":1},"C":{"a":2,"b":8},"D":{"a":8,"b":2}},"conditions":["nonSeqFull","nonSeqPartial","seqNoFeedback","seqFeedback"],"classroomPairings":[["A","B"],["C","D"]],"coinWeights":[0.2,0.5,0.8],"subjectId":"A32JEH06T23HDF","assignmentId":"3YHH42UU5C1OBN6XN8Q1NCHYR0FL0N","hitId":"3J94SKDEKIB2MY6CGVTNWB9X0ALD5P","url":"https://gershmanlab.com/experiments/alicia/teaching/experiment/?hitId=3J94SKDEKIB2MY6CGVTNWB9X0ALD5P&workerId=A32JEH06T23HDF&assignmentId=3YHH42UU5C1OBN6XN8Q1NCHYR0FL0N&a=U4HY9&tp_a=U4HY9&b=3YHH42UU5C1OBN6XN8Q1NCHYR0FL0N&tp_b=3YHH42UU5C1OBN6XN8Q1NCHYR0FL0N&c=365799&tp_c=365799","heads":1,"tails":29,"studentIndex":6,"studentTrueHypers":{"a":2,"b":8},"studentGuess":0.075,"delta":0.125,"totalExamples":30,"bonus":0,"bonusSoFar":0},{"rt":10684,"response":{"heads":"6","tails":"22"},"type":"response","condition":"seqNoFeedback","trueTheta":0.2,"classrooms":["C","D"],"studentTrueClassroom":"C","exampleSet":"first","trial_type":"survey-html-form","trial_index":65,"time_elapsed":806996,"internal_node_id":"0.0-59.0-0.0","params":{"nStudents":24,"maxFlips":30,"completionMinutes":45,"basePay":8,"maxBonus":9,"perTrialBonus":0.5,"perTrialBonusThreshold":0.05,"exampleCost":0.01},"classroomParams":{"A":{"a":1,"b":4},"B":{"a":4,"b":1},"C":{"a":2,"b":8},"D":{"a":8,"b":2}},"conditions":["nonSeqFull","nonSeqPartial","seqNoFeedback","seqFeedback"],"classroomPairings":[["A","B"],["C","D"]],"coinWeights":[0.2,0.5,0.8],"subjectId":"A32JEH06T23HDF","assignmentId":"3YHH42UU5C1OBN6XN8Q1NCHYR0FL0N","hitId":"3J94SKDEKIB2MY6CGVTNWB9X0ALD5P","url":"https://gershmanlab.com/experiments/alicia/teaching/experiment/?hitId=3J94SKDEKIB2MY6CGVTNWB9X0ALD5P&workerId=A32JEH06T23HDF&assignmentId=3YHH42UU5C1OBN6XN8Q1NCHYR0FL0N&a=U4HY9&tp_a=U4HY9&b=3YHH42UU5C1OBN6XN8Q1NCHYR0FL0N&tp_b=3YHH42UU5C1OBN6XN8Q1NCHYR0FL0N&c=365799&tp_c=365799","heads":6,"tails":22,"studentIndex":7,"studentTrueHypers":{"a":2,"b":8},"studentGuess":0.21052631578947367,"delta":0.010526315789473661,"totalExamples":28,"bonusSoFar":0},{"rt":15375,"response":{"heads":"16","tails":"14"},"type":"response","condition":"seqNoFeedback","trueTheta":0.2,"classrooms":["C","D"],"studentTrueClassroom":"C","exampleSet":"second","trial_type":"survey-html-form","trial_index":68,"time_elapsed":828894,"internal_node_id":"0.0-62.0-0.0","params":{"nStudents":24,"maxFlips":30,"completionMinutes":45,"basePay":8,"maxBonus":9,"perTrialBonus":0.5,"perTrialBonusThreshold":0.05,"exampleCost":0.01},"classroomParams":{"A":{"a":1,"b":4},"B":{"a":4,"b":1},"C":{"a":2,"b":8},"D":{"a":8,"b":2}},"conditions":["nonSeqFull","nonSeqPartial","seqNoFeedback","seqFeedback"],"classroomPairings":[["A","B"],["C","D"]],"coinWeights":[0.2,0.5,0.8],"subjectId":"A32JEH06T23HDF","assignmentId":"3YHH42UU5C1OBN6XN8Q1NCHYR0FL0N","hitId":"3J94SKDEKIB2MY6CGVTNWB9X0ALD5P","url":"https://gershmanlab.com/experiments/alicia/teaching/experiment/?hitId=3J94SKDEKIB2MY6CGVTNWB9X0ALD5P&workerId=A32JEH06T23HDF&assignmentId=3YHH42UU5C1OBN6XN8Q1NCHYR0FL0N&a=U4HY9&tp_a=U4HY9&b=3YHH42UU5C1OBN6XN8Q1NCHYR0FL0N&tp_b=3YHH42UU5C1OBN6XN8Q1NCHYR0FL0N&c=365799&tp_c=365799","firstResponseHeads":6,"firstResponseTails":22,"secondResponseHeads":16,"secondResponseTails":14,"totalHeads":22,"totalTails":36,"studentIndex":7,"studentTrueHypers":{"a":2,"b":8},"studentGuess":0.35294117647058826,"delta":0.15294117647058825,"bonus":0,"bonusSoFar":0,"totalExamples":58},{"rt":20806,"response":{"heads":"13","tails":"17"},"type":"response","condition":"nonSeqFull","trueTheta":0.5,"classrooms":["A","B"],"studentTrueClassroom":"B","exampleSet":"first","trial_type":"survey-html-form","trial_index":74,"time_elapsed":863658,"internal_node_id":"0.0-68.0-0.0","params":{"nStudents":24,"maxFlips":30,"completionMinutes":45,"basePay":8,"maxBonus":9,"perTrialBonus":0.5,"perTrialBonusThreshold":0.05,"exampleCost":0.01},"classroomParams":{"A":{"a":1,"b":4},"B":{"a":4,"b":1},"C":{"a":2,"b":8},"D":{"a":8,"b":2}},"conditions":["nonSeqFull","nonSeqPartial","seqNoFeedback","seqFeedback"],"classroomPairings":[["A","B"],["C","D"]],"coinWeights":[0.2,0.5,0.8],"subjectId":"A32JEH06T23HDF","assignmentId":"3YHH42UU5C1OBN6XN8Q1NCHYR0FL0N","hitId":"3J94SKDEKIB2MY6CGVTNWB9X0ALD5P","url":"https://gershmanlab.com/experiments/alicia/teaching/experiment/?hitId=3J94SKDEKIB2MY6CGVTNWB9X0ALD5P&workerId=A32JEH06T23HDF&assignmentId=3YHH42UU5C1OBN6XN8Q1NCHYR0FL0N&a=U4HY9&tp_a=U4HY9&b=3YHH42UU5C1OBN6XN8Q1NCHYR0FL0N&tp_b=3YHH42UU5C1OBN6XN8Q1NCHYR0FL0N&c=365799&tp_c=365799","heads":13,"tails":17,"studentIndex":8,"studentTrueHypers":{"a":4,"b":1},"studentGuess":0.4857142857142857,"delta":0.01428571428571429,"totalExamples":30,"bonus":0.2,"bonusSoFar":0.2},{"rt":15309,"response":{"heads":"6","tails":"24"},"type":"response","condition":"nonSeqPartial","trueTheta":0.2,"classrooms":["A","B"],"studentTrueClassroom":"B","exampleSet":"first","trial_type":"survey-html-form","trial_index":80,"time_elapsed":898623,"internal_node_id":"0.0-74.0-0.0","params":{"nStudents":24,"maxFlips":30,"completionMinutes":45,"basePay":8,"maxBonus":9,"perTrialBonus":0.5,"perTrialBonusThreshold":0.05,"exampleCost":0.01},"classroomParams":{"A":{"a":1,"b":4},"B":{"a":4,"b":1},"C":{"a":2,"b":8},"D":{"a":8,"b":2}},"conditions":["nonSeqFull","nonSeqPartial","seqNoFeedback","seqFeedback"],"classroomPairings":[["A","B"],["C","D"]],"coinWeights":[0.2,0.5,0.8],"subjectId":"A32JEH06T23HDF","assignmentId":"3YHH42UU5C1OBN6XN8Q1NCHYR0FL0N","hitId":"3J94SKDEKIB2MY6CGVTNWB9X0ALD5P","url":"https://gershmanlab.com/experiments/alicia/teaching/experiment/?hitId=3J94SKDEKIB2MY6CGVTNWB9X0ALD5P&workerId=A32JEH06T23HDF&assignmentId=3YHH42UU5C1OBN6XN8Q1NCHYR0FL0N&a=U4HY9&tp_a=U4HY9&b=3YHH42UU5C1OBN6XN8Q1NCHYR0FL0N&tp_b=3YHH42UU5C1OBN6XN8Q1NCHYR0FL0N&c=365799&tp_c=365799","heads":6,"tails":24,"studentIndex":9,"studentTrueHypers":{"a":4,"b":1},"studentGuess":0.2857142857142857,"delta":0.08571428571428569,"totalExamples":30,"bonus":0,"bonusSoFar":0.2},{"rt":29933,"response":{"heads":"15","tails":"15"},"type":"response","condition":"nonSeqPartial","trueTheta":0.5,"classrooms":["C","D"],"studentTrueClassroom":"C","exampleSet":"first","trial_type":"survey-html-form","trial_index":86,"time_elapsed":946628,"internal_node_id":"0.0-80.0-0.0","params":{"nStudents":24,"maxFlips":30,"completionMinutes":45,"basePay":8,"maxBonus":9,"perTrialBonus":0.5,"perTrialBonusThreshold":0.05,"exampleCost":0.01},"classroomParams":{"A":{"a":1,"b":4},"B":{"a":4,"b":1},"C":{"a":2,"b":8},"D":{"a":8,"b":2}},"conditions":["nonSeqFull","nonSeqPartial","seqNoFeedback","seqFeedback"],"classroomPairings":[["A","B"],["C","D"]],"coinWeights":[0.2,0.5,0.8],"subjectId":"A32JEH06T23HDF","assignmentId":"3YHH42UU5C1OBN6XN8Q1NCHYR0FL0N","hitId":"3J94SKDEKIB2MY6CGVTNWB9X0ALD5P","url":"https://gershmanlab.com/experiments/alicia/teaching/experiment/?hitId=3J94SKDEKIB2MY6CGVTNWB9X0ALD5P&workerId=A32JEH06T23HDF&assignmentId=3YHH42UU5C1OBN6XN8Q1NCHYR0FL0N&a=U4HY9&tp_a=U4HY9&b=3YHH42UU5C1OBN6XN8Q1NCHYR0FL0N&tp_b=3YHH42UU5C1OBN6XN8Q1NCHYR0FL0N&c=365799&tp_c=365799","heads":15,"tails":15,"studentIndex":10,"studentTrueHypers":{"a":2,"b":8},"studentGuess":0.425,"delta":0.07500000000000001,"totalExamples":30,"bonus":0,"bonusSoFar":0.2},{"rt":23014,"response":{"heads":"22","tails":"8"},"type":"response","condition":"nonSeqFull","trueTheta":0.8,"classrooms":["A","B"],"studentTrueClassroom":"A","exampleSet":"first","trial_type":"survey-html-form","trial_index":92,"time_elapsed":1053192,"internal_node_id":"0.0-86.0-0.0","params":{"nStudents":24,"maxFlips":30,"completionMinutes":45,"basePay":8,"maxBonus":9,"perTrialBonus":0.5,"perTrialBonusThreshold":0.05,"exampleCost":0.01},"classroomParams":{"A":{"a":1,"b":4},"B":{"a":4,"b":1},"C":{"a":2,"b":8},"D":{"a":8,"b":2}},"conditions":["nonSeqFull","nonSeqPartial","seqNoFeedback","seqFeedback"],"classroomPairings":[["A","B"],["C","D"]],"coinWeights":[0.2,0.5,0.8],"subjectId":"A32JEH06T23HDF","assignmentId":"3YHH42UU5C1OBN6XN8Q1NCHYR0FL0N","hitId":"3J94SKDEKIB2MY6CGVTNWB9X0ALD5P","url":"https://gershmanlab.com/experiments/alicia/teaching/experiment/?hitId=3J94SKDEKIB2MY6CGVTNWB9X0ALD5P&workerId=A32JEH06T23HDF&assignmentId=3YHH42UU5C1OBN6XN8Q1NCHYR0FL0N&a=U4HY9&tp_a=U4HY9&b=3YHH42UU5C1OBN6XN8Q1NCHYR0FL0N&tp_b=3YHH42UU5C1OBN6XN8Q1NCHYR0FL0N&c=365799&tp_c=365799","heads":22,"tails":8,"studentIndex":11,"studentTrueHypers":{"a":1,"b":4},"studentGuess":0.6571428571428571,"delta":0.1428571428571429,"totalExamples":30,"bonus":0,"bonusSoFar":0.2},{"rt":23471,"response":{"heads":"06","tails":"06"},"type":"response","condition":"seqNoFeedback","trueTheta":0.5,"classrooms":["C","D"],"studentTrueClassroom":"D","exampleSet":"first","trial_type":"survey-html-form","trial_index":98,"time_elapsed":1091423,"internal_node_id":"0.0-92.0-0.0","params":{"nStudents":24,"maxFlips":30,"completionMinutes":45,"basePay":8,"maxBonus":9,"perTrialBonus":0.5,"perTrialBonusThreshold":0.05,"exampleCost":0.01},"classroomParams":{"A":{"a":1,"b":4},"B":{"a":4,"b":1},"C":{"a":2,"b":8},"D":{"a":8,"b":2}},"conditions":["nonSeqFull","nonSeqPartial","seqNoFeedback","seqFeedback"],"classroomPairings":[["A","B"],["C","D"]],"coinWeights":[0.2,0.5,0.8],"subjectId":"A32JEH06T23HDF","assignmentId":"3YHH42UU5C1OBN6XN8Q1NCHYR0FL0N","hitId":"3J94SKDEKIB2MY6CGVTNWB9X0ALD5P","url":"https://gershmanlab.com/experiments/alicia/teaching/experiment/?hitId=3J94SKDEKIB2MY6CGVTNWB9X0ALD5P&workerId=A32JEH06T23HDF&assignmentId=3YHH42UU5C1OBN6XN8Q1NCHYR0FL0N&a=U4HY9&tp_a=U4HY9&b=3YHH42UU5C1OBN6XN8Q1NCHYR0FL0N&tp_b=3YHH42UU5C1OBN6XN8Q1NCHYR0FL0N&c=365799&tp_c=365799","heads":6,"tails":6,"studentIndex":12,"studentTrueHypers":{"a":8,"b":2},"studentGuess":0.6363636363636364,"delta":0.13636363636363635,"totalExamples":12,"bonusSoFar":0.2},{"rt":11825,"response":{"heads":"5","tails":"7"},"type":"response","condition":"seqNoFeedback","trueTheta":0.5,"classrooms":["C","D"],"studentTrueClassroom":"D","exampleSet":"second","trial_type":"survey-html-form","trial_index":101,"time_elapsed":1108764,"internal_node_id":"0.0-95.0-0.0","params":{"nStudents":24,"maxFlips":30,"completionMinutes":45,"basePay":8,"maxBonus":9,"perTrialBonus":0.5,"perTrialBonusThreshold":0.05,"exampleCost":0.01},"classroomParams":{"A":{"a":1,"b":4},"B":{"a":4,"b":1},"C":{"a":2,"b":8},"D":{"a":8,"b":2}},"conditions":["nonSeqFull","nonSeqPartial","seqNoFeedback","seqFeedback"],"classroomPairings":[["A","B"],["C","D"]],"coinWeights":[0.2,0.5,0.8],"subjectId":"A32JEH06T23HDF","assignmentId":"3YHH42UU5C1OBN6XN8Q1NCHYR0FL0N","hitId":"3J94SKDEKIB2MY6CGVTNWB9X0ALD5P","url":"https://gershmanlab.com/experiments/alicia/teaching/experiment/?hitId=3J94SKDEKIB2MY6CGVTNWB9X0ALD5P&workerId=A32JEH06T23HDF&assignmentId=3YHH42UU5C1OBN6XN8Q1NCHYR0FL0N&a=U4HY9&tp_a=U4HY9&b=3YHH42UU5C1OBN6XN8Q1NCHYR0FL0N&tp_b=3YHH42UU5C1OBN6XN8Q1NCHYR0FL0N&c=365799&tp_c=365799","firstResponseHeads":6,"firstResponseTails":6,"secondResponseHeads":5,"secondResponseTails":7,"totalHeads":11,"totalTails":13,"studentIndex":12,"studentTrueHypers":{"a":8,"b":2},"studentGuess":0.5588235294117647,"delta":0.05882352941176472,"bonus":0,"bonusSoFar":0.2,"totalExamples":24},{"rt":12510,"response":{"heads":"9","tails":"21"},"type":"response","condition":"seqNoFeedback","trueTheta":0.2,"classrooms":["A","B"],"studentTrueClassroom":"A","exampleSet":"first","trial_type":"survey-html-form","trial_index":107,"time_elapsed":1135064,"internal_node_id":"0.0-101.0-0.0","params":{"nStudents":24,"maxFlips":30,"completionMinutes":45,"basePay":8,"maxBonus":9,"perTrialBonus":0.5,"perTrialBonusThreshold":0.05,"exampleCost":0.01},"classroomParams":{"A":{"a":1,"b":4},"B":{"a":4,"b":1},"C":{"a":2,"b":8},"D":{"a":8,"b":2}},"conditions":["nonSeqFull","nonSeqPartial","seqNoFeedback","seqFeedback"],"classroomPairings":[["A","B"],["C","D"]],"coinWeights":[0.2,0.5,0.8],"subjectId":"A32JEH06T23HDF","assignmentId":"3YHH42UU5C1OBN6XN8Q1NCHYR0FL0N","hitId":"3J94SKDEKIB2MY6CGVTNWB9X0ALD5P","url":"https://gershmanlab.com/experiments/alicia/teaching/experiment/?hitId=3J94SKDEKIB2MY6CGVTNWB9X0ALD5P&workerId=A32JEH06T23HDF&assignmentId=3YHH42UU5C1OBN6XN8Q1NCHYR0FL0N&a=U4HY9&tp_a=U4HY9&b=3YHH42UU5C1OBN6XN8Q1NCHYR0FL0N&tp_b=3YHH42UU5C1OBN6XN8Q1NCHYR0FL0N&c=365799&tp_c=365799","heads":9,"tails":21,"studentIndex":13,"studentTrueHypers":{"a":1,"b":4},"studentGuess":0.2857142857142857,"delta":0.08571428571428569,"totalExamples":30,"bonusSoFar":0.2},{"rt":15639,"response":{"heads":"3","tails":"3"},"type":"response","condition":"seqNoFeedback","trueTheta":0.2,"classrooms":["A","B"],"studentTrueClassroom":"A","exampleSet":"second","trial_type":"survey-html-form","trial_index":110,"time_elapsed":1156978,"internal_node_id":"0.0-104.0-0.0","params":{"nStudents":24,"maxFlips":30,"completionMinutes":45,"basePay":8,"maxBonus":9,"perTrialBonus":0.5,"perTrialBonusThreshold":0.05,"exampleCost":0.01},"classroomParams":{"A":{"a":1,"b":4},"B":{"a":4,"b":1},"C":{"a":2,"b":8},"D":{"a":8,"b":2}},"conditions":["nonSeqFull","nonSeqPartial","seqNoFeedback","seqFeedback"],"classroomPairings":[["A","B"],["C","D"]],"coinWeights":[0.2,0.5,0.8],"subjectId":"A32JEH06T23HDF","assignmentId":"3YHH42UU5C1OBN6XN8Q1NCHYR0FL0N","hitId":"3J94SKDEKIB2MY6CGVTNWB9X0ALD5P","url":"https://gershmanlab.com/experiments/alicia/teaching/experiment/?hitId=3J94SKDEKIB2MY6CGVTNWB9X0ALD5P&workerId=A32JEH06T23HDF&assignmentId=3YHH42UU5C1OBN6XN8Q1NCHYR0FL0N&a=U4HY9&tp_a=U4HY9&b=3YHH42UU5C1OBN6XN8Q1NCHYR0FL0N&tp_b=3YHH42UU5C1OBN6XN8Q1NCHYR0FL0N&c=365799&tp_c=365799","firstResponseHeads":9,"firstResponseTails":21,"secondResponseHeads":3,"secondResponseTails":3,"totalHeads":12,"totalTails":24,"studentIndex":13,"studentTrueHypers":{"a":1,"b":4},"studentGuess":0.3170731707317073,"delta":0.11707317073170731,"bonus":0,"bonusSoFar":0.2,"totalExamples":36},{"rt":12514,"response":{"heads":"10","tails":"20"},"type":"response","condition":"seqFeedback","trueTheta":0.2,"classrooms":["C","D"],"studentTrueClassroom":"C","exampleSet":"first","trial_type":"survey-html-form","trial_index":116,"time_elapsed":1190570,"internal_node_id":"0.0-110.0-0.0","params":{"nStudents":24,"maxFlips":30,"completionMinutes":45,"basePay":8,"maxBonus":9,"perTrialBonus":0.5,"perTrialBonusThreshold":0.05,"exampleCost":0.01},"classroomParams":{"A":{"a":1,"b":4},"B":{"a":4,"b":1},"C":{"a":2,"b":8},"D":{"a":8,"b":2}},"conditions":["nonSeqFull","nonSeqPartial","seqNoFeedback","seqFeedback"],"classroomPairings":[["A","B"],["C","D"]],"coinWeights":[0.2,0.5,0.8],"subjectId":"A32JEH06T23HDF","assignmentId":"3YHH42UU5C1OBN6XN8Q1NCHYR0FL0N","hitId":"3J94SKDEKIB2MY6CGVTNWB9X0ALD5P","url":"https://gershmanlab.com/experiments/alicia/teaching/experiment/?hitId=3J94SKDEKIB2MY6CGVTNWB9X0ALD5P&workerId=A32JEH06T23HDF&assignmentId=3YHH42UU5C1OBN6XN8Q1NCHYR0FL0N&a=U4HY9&tp_a=U4HY9&b=3YHH42UU5C1OBN6XN8Q1NCHYR0FL0N&tp_b=3YHH42UU5C1OBN6XN8Q1NCHYR0FL0N&c=365799&tp_c=365799","heads":10,"tails":20,"studentIndex":14,"studentTrueHypers":{"a":2,"b":8},"studentGuess":0.3,"delta":0.09999999999999998,"totalExamples":30,"bonusSoFar":0.2},{"rt":13406,"response":{"heads":"5","tails":"25"},"type":"response","condition":"seqFeedback","trueTheta":0.2,"classrooms":["C","D"],"studentTrueClassroom":"C","exampleSet":"second","trial_type":"survey-html-form","trial_index":120,"time_elapsed":1214689,"internal_node_id":"0.0-114.0-0.0","params":{"nStudents":24,"maxFlips":30,"completionMinutes":45,"basePay":8,"maxBonus":9,"perTrialBonus":0.5,"perTrialBonusThreshold":0.05,"exampleCost":0.01},"classroomParams":{"A":{"a":1,"b":4},"B":{"a":4,"b":1},"C":{"a":2,"b":8},"D":{"a":8,"b":2}},"conditions":["nonSeqFull","nonSeqPartial","seqNoFeedback","seqFeedback"],"classroomPairings":[["A","B"],["C","D"]],"coinWeights":[0.2,0.5,0.8],"subjectId":"A32JEH06T23HDF","assignmentId":"3YHH42UU5C1OBN6XN8Q1NCHYR0FL0N","hitId":"3J94SKDEKIB2MY6CGVTNWB9X0ALD5P","url":"https://gershmanlab.com/experiments/alicia/teaching/experiment/?hitId=3J94SKDEKIB2MY6CGVTNWB9X0ALD5P&workerId=A32JEH06T23HDF&assignmentId=3YHH42UU5C1OBN6XN8Q1NCHYR0FL0N&a=U4HY9&tp_a=U4HY9&b=3YHH42UU5C1OBN6XN8Q1NCHYR0FL0N&tp_b=3YHH42UU5C1OBN6XN8Q1NCHYR0FL0N&c=365799&tp_c=365799","firstResponseHeads":10,"firstResponseTails":20,"secondResponseHeads":5,"secondResponseTails":25,"totalHeads":15,"totalTails":45,"studentIndex":14,"studentTrueHypers":{"a":2,"b":8},"studentGuess":0.24285714285714285,"delta":0.042857142857142844,"bonus":0,"bonusSoFar":0.2,"totalExamples":60},{"rt":20491,"response":{"heads":"2","tails":"8"},"type":"response","condition":"nonSeqFull","trueTheta":0.5,"classrooms":["C","D"],"studentTrueClassroom":"D","exampleSet":"first","trial_type":"survey-html-form","trial_index":126,"time_elapsed":1254254,"internal_node_id":"0.0-120.0-0.0","params":{"nStudents":24,"maxFlips":30,"completionMinutes":45,"basePay":8,"maxBonus":9,"perTrialBonus":0.5,"perTrialBonusThreshold":0.05,"exampleCost":0.01},"classroomParams":{"A":{"a":1,"b":4},"B":{"a":4,"b":1},"C":{"a":2,"b":8},"D":{"a":8,"b":2}},"conditions":["nonSeqFull","nonSeqPartial","seqNoFeedback","seqFeedback"],"classroomPairings":[["A","B"],["C","D"]],"coinWeights":[0.2,0.5,0.8],"subjectId":"A32JEH06T23HDF","assignmentId":"3YHH42UU5C1OBN6XN8Q1NCHYR0FL0N","hitId":"3J94SKDEKIB2MY6CGVTNWB9X0ALD5P","url":"https://gershmanlab.com/experiments/alicia/teaching/experiment/?hitId=3J94SKDEKIB2MY6CGVTNWB9X0ALD5P&workerId=A32JEH06T23HDF&assignmentId=3YHH42UU5C1OBN6XN8Q1NCHYR0FL0N&a=U4HY9&tp_a=U4HY9&b=3YHH42UU5C1OBN6XN8Q1NCHYR0FL0N&tp_b=3YHH42UU5C1OBN6XN8Q1NCHYR0FL0N&c=365799&tp_c=365799","heads":2,"tails":8,"studentIndex":15,"studentTrueHypers":{"a":8,"b":2},"studentGuess":0.5,"delta":0,"totalExamples":10,"bonus":0.4,"bonusSoFar":0.6},{"rt":12911,"response":{"heads":"12","tails":"0"},"type":"response","condition":"nonSeqFull","trueTheta":0.8,"classrooms":["C","D"],"studentTrueClassroom":"C","exampleSet":"first","trial_type":"survey-html-form","trial_index":132,"time_elapsed":1309186,"internal_node_id":"0.0-126.0-0.0","params":{"nStudents":24,"maxFlips":30,"completionMinutes":45,"basePay":8,"maxBonus":9,"perTrialBonus":0.5,"perTrialBonusThreshold":0.05,"exampleCost":0.01},"classroomParams":{"A":{"a":1,"b":4},"B":{"a":4,"b":1},"C":{"a":2,"b":8},"D":{"a":8,"b":2}},"conditions":["nonSeqFull","nonSeqPartial","seqNoFeedback","seqFeedback"],"classroomPairings":[["A","B"],["C","D"]],"coinWeights":[0.2,0.5,0.8],"subjectId":"A32JEH06T23HDF","assignmentId":"3YHH42UU5C1OBN6XN8Q1NCHYR0FL0N","hitId":"3J94SKDEKIB2MY6CGVTNWB9X0ALD5P","url":"https://gershmanlab.com/experiments/alicia/teaching/experiment/?hitId=3J94SKDEKIB2MY6CGVTNWB9X0ALD5P&workerId=A32JEH06T23HDF&assignmentId=3YHH42UU5C1OBN6XN8Q1NCHYR0FL0N&a=U4HY9&tp_a=U4HY9&b=3YHH42UU5C1OBN6XN8Q1NCHYR0FL0N&tp_b=3YHH42UU5C1OBN6XN8Q1NCHYR0FL0N&c=365799&tp_c=365799","heads":12,"tails":0,"studentIndex":16,"studentTrueHypers":{"a":2,"b":8},"studentGuess":0.6363636363636364,"delta":0.1636363636363637,"totalExamples":12,"bonus":0,"bonusSoFar":0.6},{"rt":12170,"response":{"heads":"0","tails":"20"},"type":"response","condition":"seqFeedback","trueTheta":0.2,"classrooms":["A","B"],"studentTrueClassroom":"A","exampleSet":"first","trial_type":"survey-html-form","trial_index":138,"time_elapsed":1338768,"internal_node_id":"0.0-132.0-0.0","params":{"nStudents":24,"maxFlips":30,"completionMinutes":45,"basePay":8,"maxBonus":9,"perTrialBonus":0.5,"perTrialBonusThreshold":0.05,"exampleCost":0.01},"classroomParams":{"A":{"a":1,"b":4},"B":{"a":4,"b":1},"C":{"a":2,"b":8},"D":{"a":8,"b":2}},"conditions":["nonSeqFull","nonSeqPartial","seqNoFeedback","seqFeedback"],"classroomPairings":[["A","B"],["C","D"]],"coinWeights":[0.2,0.5,0.8],"subjectId":"A32JEH06T23HDF","assignmentId":"3YHH42UU5C1OBN6XN8Q1NCHYR0FL0N","hitId":"3J94SKDEKIB2MY6CGVTNWB9X0ALD5P","url":"https://gershmanlab.com/experiments/alicia/teaching/experiment/?hitId=3J94SKDEKIB2MY6CGVTNWB9X0ALD5P&workerId=A32JEH06T23HDF&assignmentId=3YHH42UU5C1OBN6XN8Q1NCHYR0FL0N&a=U4HY9&tp_a=U4HY9&b=3YHH42UU5C1OBN6XN8Q1NCHYR0FL0N&tp_b=3YHH42UU5C1OBN6XN8Q1NCHYR0FL0N&c=365799&tp_c=365799","heads":0,"tails":20,"studentIndex":17,"studentTrueHypers":{"a":1,"b":4},"studentGuess":0.04,"delta":0.16,"totalExamples":20,"bonusSoFar":0.6},{"rt":11806,"response":{"heads":"10","tails":"20"},"type":"response","condition":"seqFeedback","trueTheta":0.2,"classrooms":["A","B"],"studentTrueClassroom":"A","exampleSet":"second","trial_type":"survey-html-form","trial_index":142,"time_elapsed":1362397,"internal_node_id":"0.0-136.0-0.0","params":{"nStudents":24,"maxFlips":30,"completionMinutes":45,"basePay":8,"maxBonus":9,"perTrialBonus":0.5,"perTrialBonusThreshold":0.05,"exampleCost":0.01},"classroomParams":{"A":{"a":1,"b":4},"B":{"a":4,"b":1},"C":{"a":2,"b":8},"D":{"a":8,"b":2}},"conditions":["nonSeqFull","nonSeqPartial","seqNoFeedback","seqFeedback"],"classroomPairings":[["A","B"],["C","D"]],"coinWeights":[0.2,0.5,0.8],"subjectId":"A32JEH06T23HDF","assignmentId":"3YHH42UU5C1OBN6XN8Q1NCHYR0FL0N","hitId":"3J94SKDEKIB2MY6CGVTNWB9X0ALD5P","url":"https://gershmanlab.com/experiments/alicia/teaching/experiment/?hitId=3J94SKDEKIB2MY6CGVTNWB9X0ALD5P&workerId=A32JEH06T23HDF&assignmentId=3YHH42UU5C1OBN6XN8Q1NCHYR0FL0N&a=U4HY9&tp_a=U4HY9&b=3YHH42UU5C1OBN6XN8Q1NCHYR0FL0N&tp_b=3YHH42UU5C1OBN6XN8Q1NCHYR0FL0N&c=365799&tp_c=365799","firstResponseHeads":0,"firstResponseTails":20,"secondResponseHeads":10,"secondResponseTails":20,"totalHeads":10,"totalTails":40,"studentIndex":17,"studentTrueHypers":{"a":1,"b":4},"studentGuess":0.2,"delta":0,"bonus":0,"bonusSoFar":0.6,"totalExamples":50},{"rt":8491,"response":{"heads":"20","tails":"10"},"type":"response","condition":"nonSeqPartial","trueTheta":0.8,"classrooms":["C","D"],"studentTrueClassroom":"C","exampleSet":"first","trial_type":"survey-html-form","trial_index":148,"time_elapsed":1387856,"internal_node_id":"0.0-142.0-0.0","params":{"nStudents":24,"maxFlips":30,"completionMinutes":45,"basePay":8,"maxBonus":9,"perTrialBonus":0.5,"perTrialBonusThreshold":0.05,"exampleCost":0.01},"classroomParams":{"A":{"a":1,"b":4},"B":{"a":4,"b":1},"C":{"a":2,"b":8},"D":{"a":8,"b":2}},"conditions":["nonSeqFull","nonSeqPartial","seqNoFeedback","seqFeedback"],"classroomPairings":[["A","B"],["C","D"]],"coinWeights":[0.2,0.5,0.8],"subjectId":"A32JEH06T23HDF","assignmentId":"3YHH42UU5C1OBN6XN8Q1NCHYR0FL0N","hitId":"3J94SKDEKIB2MY6CGVTNWB9X0ALD5P","url":"https://gershmanlab.com/experiments/alicia/teaching/experiment/?hitId=3J94SKDEKIB2MY6CGVTNWB9X0ALD5P&workerId=A32JEH06T23HDF&assignmentId=3YHH42UU5C1OBN6XN8Q1NCHYR0FL0N&a=U4HY9&tp_a=U4HY9&b=3YHH42UU5C1OBN6XN8Q1NCHYR0FL0N&tp_b=3YHH42UU5C1OBN6XN8Q1NCHYR0FL0N&c=365799&tp_c=365799","heads":20,"tails":10,"studentIndex":18,"studentTrueHypers":{"a":2,"b":8},"studentGuess":0.55,"delta":0.25,"totalExamples":30,"bonus":0,"bonusSoFar":0.6},{"rt":11257,"response":{"heads":"25","tails":"5"},"type":"response","condition":"nonSeqPartial","trueTheta":0.8,"classrooms":["A","B"],"studentTrueClassroom":"B","exampleSet":"first","trial_type":"survey-html-form","trial_index":154,"time_elapsed":1414548,"internal_node_id":"0.0-148.0-0.0","params":{"nStudents":24,"maxFlips":30,"completionMinutes":45,"basePay":8,"maxBonus":9,"perTrialBonus":0.5,"perTrialBonusThreshold":0.05,"exampleCost":0.01},"classroomParams":{"A":{"a":1,"b":4},"B":{"a":4,"b":1},"C":{"a":2,"b":8},"D":{"a":8,"b":2}},"conditions":["nonSeqFull","nonSeqPartial","seqNoFeedback","seqFeedback"],"classroomPairings":[["A","B"],["C","D"]],"coinWeights":[0.2,0.5,0.8],"subjectId":"A32JEH06T23HDF","assignmentId":"3YHH42UU5C1OBN6XN8Q1NCHYR0FL0N","hitId":"3J94SKDEKIB2MY6CGVTNWB9X0ALD5P","url":"https://gershmanlab.com/experiments/alicia/teaching/experiment/?hitId=3J94SKDEKIB2MY6CGVTNWB9X0ALD5P&workerId=A32JEH06T23HDF&assignmentId=3YHH42UU5C1OBN6XN8Q1NCHYR0FL0N&a=U4HY9&tp_a=U4HY9&b=3YHH42UU5C1OBN6XN8Q1NCHYR0FL0N&tp_b=3YHH42UU5C1OBN6XN8Q1NCHYR0FL0N&c=365799&tp_c=365799","heads":25,"tails":5,"studentIndex":19,"studentTrueHypers":{"a":4,"b":1},"studentGuess":0.8285714285714286,"delta":0.02857142857142858,"totalExamples":30,"bonus":0.2,"bonusSoFar":0.8},{"rt":10340,"response":{"heads":"26","tails":"4"},"type":"response","condition":"seqFeedback","trueTheta":0.8,"classrooms":["A","B"],"studentTrueClassroom":"A","exampleSet":"first","trial_type":"survey-html-form","trial_index":160,"time_elapsed":1448894,"internal_node_id":"0.0-154.0-0.0","params":{"nStudents":24,"maxFlips":30,"completionMinutes":45,"basePay":8,"maxBonus":9,"perTrialBonus":0.5,"perTrialBonusThreshold":0.05,"exampleCost":0.01},"classroomParams":{"A":{"a":1,"b":4},"B":{"a":4,"b":1},"C":{"a":2,"b":8},"D":{"a":8,"b":2}},"conditions":["nonSeqFull","nonSeqPartial","seqNoFeedback","seqFeedback"],"classroomPairings":[["A","B"],["C","D"]],"coinWeights":[0.2,0.5,0.8],"subjectId":"A32JEH06T23HDF","assignmentId":"3YHH42UU5C1OBN6XN8Q1NCHYR0FL0N","hitId":"3J94SKDEKIB2MY6CGVTNWB9X0ALD5P","url":"https://gershmanlab.com/experiments/alicia/teaching/experiment/?hitId=3J94SKDEKIB2MY6CGVTNWB9X0ALD5P&workerId=A32JEH06T23HDF&assignmentId=3YHH42UU5C1OBN6XN8Q1NCHYR0FL0N&a=U4HY9&tp_a=U4HY9&b=3YHH42UU5C1OBN6XN8Q1NCHYR0FL0N&tp_b=3YHH42UU5C1OBN6XN8Q1NCHYR0FL0N&c=365799&tp_c=365799","heads":26,"tails":4,"studentIndex":20,"studentTrueHypers":{"a":1,"b":4},"studentGuess":0.7714285714285715,"delta":0.02857142857142858,"totalExamples":30,"bonusSoFar":0.8},{"rt":5732,"response":{"heads":"28","tails":"2"},"type":"response","condition":"seqFeedback","trueTheta":0.8,"classrooms":["A","B"],"studentTrueClassroom":"A","exampleSet":"second","trial_type":"survey-html-form","trial_index":164,"time_elapsed":1465073,"internal_node_id":"0.0-158.0-0.0","params":{"nStudents":24,"maxFlips":30,"completionMinutes":45,"basePay":8,"maxBonus":9,"perTrialBonus":0.5,"perTrialBonusThreshold":0.05,"exampleCost":0.01},"classroomParams":{"A":{"a":1,"b":4},"B":{"a":4,"b":1},"C":{"a":2,"b":8},"D":{"a":8,"b":2}},"conditions":["nonSeqFull","nonSeqPartial","seqNoFeedback","seqFeedback"],"classroomPairings":[["A","B"],["C","D"]],"coinWeights":[0.2,0.5,0.8],"subjectId":"A32JEH06T23HDF","assignmentId":"3YHH42UU5C1OBN6XN8Q1NCHYR0FL0N","hitId":"3J94SKDEKIB2MY6CGVTNWB9X0ALD5P","url":"https://gershmanlab.com/experiments/alicia/teaching/experiment/?hitId=3J94SKDEKIB2MY6CGVTNWB9X0ALD5P&workerId=A32JEH06T23HDF&assignmentId=3YHH42UU5C1OBN6XN8Q1NCHYR0FL0N&a=U4HY9&tp_a=U4HY9&b=3YHH42UU5C1OBN6XN8Q1NCHYR0FL0N&tp_b=3YHH42UU5C1OBN6XN8Q1NCHYR0FL0N&c=365799&tp_c=365799","firstResponseHeads":26,"firstResponseTails":4,"secondResponseHeads":28,"secondResponseTails":2,"totalHeads":54,"totalTails":6,"studentIndex":20,"studentTrueHypers":{"a":1,"b":4},"studentGuess":0.8461538461538461,"delta":0.0461538461538461,"bonus":0,"bonusSoFar":0.8,"totalExamples":60},{"rt":17363,"response":{"heads":"22","tails":"8"},"type":"response","condition":"seqNoFeedback","trueTheta":0.8,"classrooms":["C","D"],"studentTrueClassroom":"C","exampleSet":"first","trial_type":"survey-html-form","trial_index":170,"time_elapsed":1523176,"internal_node_id":"0.0-164.0-0.0","params":{"nStudents":24,"maxFlips":30,"completionMinutes":45,"basePay":8,"maxBonus":9,"perTrialBonus":0.5,"perTrialBonusThreshold":0.05,"exampleCost":0.01},"classroomParams":{"A":{"a":1,"b":4},"B":{"a":4,"b":1},"C":{"a":2,"b":8},"D":{"a":8,"b":2}},"conditions":["nonSeqFull","nonSeqPartial","seqNoFeedback","seqFeedback"],"classroomPairings":[["A","B"],["C","D"]],"coinWeights":[0.2,0.5,0.8],"subjectId":"A32JEH06T23HDF","assignmentId":"3YHH42UU5C1OBN6XN8Q1NCHYR0FL0N","hitId":"3J94SKDEKIB2MY6CGVTNWB9X0ALD5P","url":"https://gershmanlab.com/experiments/alicia/teaching/experiment/?hitId=3J94SKDEKIB2MY6CGVTNWB9X0ALD5P&workerId=A32JEH06T23HDF&assignmentId=3YHH42UU5C1OBN6XN8Q1NCHYR0FL0N&a=U4HY9&tp_a=U4HY9&b=3YHH42UU5C1OBN6XN8Q1NCHYR0FL0N&tp_b=3YHH42UU5C1OBN6XN8Q1NCHYR0FL0N&c=365799&tp_c=365799","heads":22,"tails":8,"studentIndex":21,"studentTrueHypers":{"a":2,"b":8},"studentGuess":0.6,"delta":0.20000000000000007,"totalExamples":30,"bonusSoFar":0.8},{"rt":8002,"response":{"heads":"022","tails":"8"},"type":"response","condition":"seqNoFeedback","trueTheta":0.8,"classrooms":["C","D"],"studentTrueClassroom":"C","exampleSet":"second","trial_type":"survey-html-form","trial_index":173,"time_elapsed":1538188,"internal_node_id":"0.0-167.0-0.0","params":{"nStudents":24,"maxFlips":30,"completionMinutes":45,"basePay":8,"maxBonus":9,"perTrialBonus":0.5,"perTrialBonusThreshold":0.05,"exampleCost":0.01},"classroomParams":{"A":{"a":1,"b":4},"B":{"a":4,"b":1},"C":{"a":2,"b":8},"D":{"a":8,"b":2}},"conditions":["nonSeqFull","nonSeqPartial","seqNoFeedback","seqFeedback"],"classroomPairings":[["A","B"],["C","D"]],"coinWeights":[0.2,0.5,0.8],"subjectId":"A32JEH06T23HDF","assignmentId":"3YHH42UU5C1OBN6XN8Q1NCHYR0FL0N","hitId":"3J94SKDEKIB2MY6CGVTNWB9X0ALD5P","url":"https://gershmanlab.com/experiments/alicia/teaching/experiment/?hitId=3J94SKDEKIB2MY6CGVTNWB9X0ALD5P&workerId=A32JEH06T23HDF&assignmentId=3YHH42UU5C1OBN6XN8Q1NCHYR0FL0N&a=U4HY9&tp_a=U4HY9&b=3YHH42UU5C1OBN6XN8Q1NCHYR0FL0N&tp_b=3YHH42UU5C1OBN6XN8Q1NCHYR0FL0N&c=365799&tp_c=365799","firstResponseHeads":22,"firstResponseTails":8,"secondResponseHeads":22,"secondResponseTails":8,"totalHeads":44,"totalTails":16,"studentIndex":21,"studentTrueHypers":{"a":2,"b":8},"studentGuess":0.6571428571428571,"delta":0.1428571428571429,"bonus":0,"bonusSoFar":0.8,"totalExamples":60},{"rt":5036,"response":{"heads":"22","tails":"8"},"type":"response","condition":"seqFeedback","trueTheta":0.8,"classrooms":["C","D"],"studentTrueClassroom":"D","exampleSet":"first","trial_type":"survey-html-form","trial_index":179,"time_elapsed":1559601,"internal_node_id":"0.0-173.0-0.0","params":{"nStudents":24,"maxFlips":30,"completionMinutes":45,"basePay":8,"maxBonus":9,"perTrialBonus":0.5,"perTrialBonusThreshold":0.05,"exampleCost":0.01},"classroomParams":{"A":{"a":1,"b":4},"B":{"a":4,"b":1},"C":{"a":2,"b":8},"D":{"a":8,"b":2}},"conditions":["nonSeqFull","nonSeqPartial","seqNoFeedback","seqFeedback"],"classroomPairings":[["A","B"],["C","D"]],"coinWeights":[0.2,0.5,0.8],"subjectId":"A32JEH06T23HDF","assignmentId":"3YHH42UU5C1OBN6XN8Q1NCHYR0FL0N","hitId":"3J94SKDEKIB2MY6CGVTNWB9X0ALD5P","url":"https://gershmanlab.com/experiments/alicia/teaching/experiment/?hitId=3J94SKDEKIB2MY6CGVTNWB9X0ALD5P&workerId=A32JEH06T23HDF&assignmentId=3YHH42UU5C1OBN6XN8Q1NCHYR0FL0N&a=U4HY9&tp_a=U4HY9&b=3YHH42UU5C1OBN6XN8Q1NCHYR0FL0N&tp_b=3YHH42UU5C1OBN6XN8Q1NCHYR0FL0N&c=365799&tp_c=365799","heads":22,"tails":8,"studentIndex":22,"studentTrueHypers":{"a":8,"b":2},"studentGuess":0.75,"delta":0.050000000000000044,"totalExamples":30,"bonusSoFar":0.8},{"rt":9510,"response":{"heads":"23","tails":"7"},"type":"response","condition":"seqFeedback","trueTheta":0.8,"classrooms":["C","D"],"studentTrueClassroom":"D","exampleSet":"second","trial_type":"survey-html-form","trial_index":183,"time_elapsed":1579660,"internal_node_id":"0.0-177.0-0.0","params":{"nStudents":24,"maxFlips":30,"completionMinutes":45,"basePay":8,"maxBonus":9,"perTrialBonus":0.5,"perTrialBonusThreshold":0.05,"exampleCost":0.01},"classroomParams":{"A":{"a":1,"b":4},"B":{"a":4,"b":1},"C":{"a":2,"b":8},"D":{"a":8,"b":2}},"conditions":["nonSeqFull","nonSeqPartial","seqNoFeedback","seqFeedback"],"classroomPairings":[["A","B"],["C","D"]],"coinWeights":[0.2,0.5,0.8],"subjectId":"A32JEH06T23HDF","assignmentId":"3YHH42UU5C1OBN6XN8Q1NCHYR0FL0N","hitId":"3J94SKDEKIB2MY6CGVTNWB9X0ALD5P","url":"https://gershmanlab.com/experiments/alicia/teaching/experiment/?hitId=3J94SKDEKIB2MY6CGVTNWB9X0ALD5P&workerId=A32JEH06T23HDF&assignmentId=3YHH42UU5C1OBN6XN8Q1NCHYR0FL0N&a=U4HY9&tp_a=U4HY9&b=3YHH42UU5C1OBN6XN8Q1NCHYR0FL0N&tp_b=3YHH42UU5C1OBN6XN8Q1NCHYR0FL0N&c=365799&tp_c=365799","firstResponseHeads":22,"firstResponseTails":8,"secondResponseHeads":23,"secondResponseTails":7,"totalHeads":45,"totalTails":15,"studentIndex":22,"studentTrueHypers":{"a":8,"b":2},"studentGuess":0.7571428571428571,"delta":0.04285714285714293,"bonus":0,"bonusSoFar":0.8,"totalExamples":60},{"rt":9419,"response":{"heads":"23","tails":"7"},"type":"response","condition":"seqNoFeedback","trueTheta":0.8,"classrooms":["A","B"],"studentTrueClassroom":"A","exampleSet":"first","trial_type":"survey-html-form","trial_index":189,"time_elapsed":1604568,"internal_node_id":"0.0-183.0-0.0","params":{"nStudents":24,"maxFlips":30,"completionMinutes":45,"basePay":8,"maxBonus":9,"perTrialBonus":0.5,"perTrialBonusThreshold":0.05,"exampleCost":0.01},"classroomParams":{"A":{"a":1,"b":4},"B":{"a":4,"b":1},"C":{"a":2,"b":8},"D":{"a":8,"b":2}},"conditions":["nonSeqFull","nonSeqPartial","seqNoFeedback","seqFeedback"],"classroomPairings":[["A","B"],["C","D"]],"coinWeights":[0.2,0.5,0.8],"subjectId":"A32JEH06T23HDF","assignmentId":"3YHH42UU5C1OBN6XN8Q1NCHYR0FL0N","hitId":"3J94SKDEKIB2MY6CGVTNWB9X0ALD5P","url":"https://gershmanlab.com/experiments/alicia/teaching/experiment/?hitId=3J94SKDEKIB2MY6CGVTNWB9X0ALD5P&workerId=A32JEH06T23HDF&assignmentId=3YHH42UU5C1OBN6XN8Q1NCHYR0FL0N&a=U4HY9&tp_a=U4HY9&b=3YHH42UU5C1OBN6XN8Q1NCHYR0FL0N&tp_b=3YHH42UU5C1OBN6XN8Q1NCHYR0FL0N&c=365799&tp_c=365799","heads":23,"tails":7,"studentIndex":23,"studentTrueHypers":{"a":1,"b":4},"studentGuess":0.6857142857142857,"delta":0.11428571428571432,"totalExamples":30,"bonusSoFar":0.8},{"rt":16496,"response":{"heads":"25","tails":"5"},"type":"response","condition":"seqNoFeedback","trueTheta":0.8,"classrooms":["A","B"],"studentTrueClassroom":"A","exampleSet":"second","trial_type":"survey-html-form","trial_index":192,"time_elapsed":1628095,"internal_node_id":"0.0-186.0-0.0","params":{"nStudents":24,"maxFlips":30,"completionMinutes":45,"basePay":8,"maxBonus":9,"perTrialBonus":0.5,"perTrialBonusThreshold":0.05,"exampleCost":0.01},"classroomParams":{"A":{"a":1,"b":4},"B":{"a":4,"b":1},"C":{"a":2,"b":8},"D":{"a":8,"b":2}},"conditions":["nonSeqFull","nonSeqPartial","seqNoFeedback","seqFeedback"],"classroomPairings":[["A","B"],["C","D"]],"coinWeights":[0.2,0.5,0.8],"subjectId":"A32JEH06T23HDF","assignmentId":"3YHH42UU5C1OBN6XN8Q1NCHYR0FL0N","hitId":"3J94SKDEKIB2MY6CGVTNWB9X0ALD5P","url":"https://gershmanlab.com/experiments/alicia/teaching/experiment/?hitId=3J94SKDEKIB2MY6CGVTNWB9X0ALD5P&workerId=A32JEH06T23HDF&assignmentId=3YHH42UU5C1OBN6XN8Q1NCHYR0FL0N&a=U4HY9&tp_a=U4HY9&b=3YHH42UU5C1OBN6XN8Q1NCHYR0FL0N&tp_b=3YHH42UU5C1OBN6XN8Q1NCHYR0FL0N&c=365799&tp_c=365799","firstResponseHeads":23,"firstResponseTails":7,"secondResponseHeads":25,"secondResponseTails":5,"totalHeads":48,"totalTails":12,"studentIndex":23,"studentTrueHypers":{"a":1,"b":4},"studentGuess":0.7538461538461538,"delta":0.04615384615384621,"bonus":0,"bonusSoFar":0.8,"totalExamples":60},{"rt":8244,"response":{"gender":"female","age":"28","understood":"yes","comments":""},"type":"response","trial_type":"survey-html-form","trial_index":196,"time_elapsed":1647066,"internal_node_id":"0.0-191.0","params":{"nStudents":24,"maxFlips":30,"completionMinutes":45,"basePay":8,"maxBonus":9,"perTrialBonus":0.5,"perTrialBonusThreshold":0.05,"exampleCost":0.01},"classroomParams":{"A":{"a":1,"b":4},"B":{"a":4,"b":1},"C":{"a":2,"b":8},"D":{"a":8,"b":2}},"conditions":["nonSeqFull","nonSeqPartial","seqNoFeedback","seqFeedback"],"classroomPairings":[["A","B"],["C","D"]],"coinWeights":[0.2,0.5,0.8],"subjectId":"A32JEH06T23HDF","assignmentId":"3YHH42UU5C1OBN6XN8Q1NCHYR0FL0N","hitId":"3J94SKDEKIB2MY6CGVTNWB9X0ALD5P","url":"https://gershmanlab.com/experiments/alicia/teaching/experiment/?hitId=3J94SKDEKIB2MY6CGVTNWB9X0ALD5P&workerId=A32JEH06T23HDF&assignmentId=3YHH42UU5C1OBN6XN8Q1NCHYR0FL0N&a=U4HY9&tp_a=U4HY9&b=3YHH42UU5C1OBN6XN8Q1NCHYR0FL0N&tp_b=3YHH42UU5C1OBN6XN8Q1NCHYR0FL0N&c=365799&tp_c=365799","totalBonus":0.8}]