[{"rt":86348,"response":{"heads":"2","tails":"8"},"type":"response","condition":"seqFeedback","trueTheta":0.2,"classrooms":["C","D"],"studentTrueClassroom":"D","exampleSet":"first","trial_type":"survey-html-form","trial_index":10,"time_elapsed":1089598,"internal_node_id":"0.0-6.0-0.0","params":{"nStudents":24,"maxFlips":30,"completionMinutes":45,"basePay":8,"maxBonus":9,"perTrialBonus":0.5,"perTrialBonusThreshold":0.05,"exampleCost":0.01},"classroomParams":{"A":{"a":1,"b":4},"B":{"a":4,"b":1},"C":{"a":2,"b":8},"D":{"a":8,"b":2}},"conditions":["nonSeqFull","nonSeqPartial","seqNoFeedback","seqFeedback"],"classroomPairings":[["A","B"],["C","D"]],"coinWeights":[0.2,0.5,0.8],"subjectId":"A33X52IN60MSOE","assignmentId":"3Z7VU45IPZ38N18JYSLA9WB6B2V1ZT","hitId":"3J94SKDEKIB2MY6CGVTNWB9X0ALD5P","url":"https://gershmanlab.com/experiments/alicia/teaching/experiment/?hitId=3J94SKDEKIB2MY6CGVTNWB9X0ALD5P&workerId=A33X52IN60MSOE&assignmentId=3Z7VU45IPZ38N18JYSLA9WB6B2V1ZT&a=IU7Z9&tp_a=IU7Z9&b=3Z7VU45IPZ38N18JYSLA9WB6B2V1ZT&tp_b=3Z7VU45IPZ38N18JYSLA9WB6B2V1ZT&c=365799&tp_c=365799","heads":2,"tails":8,"studentIndex":0,"studentTrueHypers":{"a":8,"b":2},"studentGuess":0.5,"delta":0.3,"totalExamples":10,"bonusSoFar":0},{"rt":73732,"response":{"heads":"12","tails":"18"},"type":"response","condition":"seqFeedback","trueTheta":0.2,"classrooms":["C","D"],"studentTrueClassroom":"D","exampleSet":"second","trial_type":"survey-html-form","trial_index":14,"time_elapsed":1199610,"internal_node_id":"0.0-10.0-0.0","params":{"nStudents":24,"maxFlips":30,"completionMinutes":45,"basePay":8,"maxBonus":9,"perTrialBonus":0.5,"perTrialBonusThreshold":0.05,"exampleCost":0.01},"classroomParams":{"A":{"a":1,"b":4},"B":{"a":4,"b":1},"C":{"a":2,"b":8},"D":{"a":8,"b":2}},"conditions":["nonSeqFull","nonSeqPartial","seqNoFeedback","seqFeedback"],"classroomPairings":[["A","B"],["C","D"]],"coinWeights":[0.2,0.5,0.8],"subjectId":"A33X52IN60MSOE","assignmentId":"3Z7VU45IPZ38N18JYSLA9WB6B2V1ZT","hitId":"3J94SKDEKIB2MY6CGVTNWB9X0ALD5P","url":"https://gershmanlab.com/experiments/alicia/teaching/experiment/?hitId=3J94SKDEKIB2MY6CGVTNWB9X0ALD5P&workerId=A33X52IN60MSOE&assignmentId=3Z7VU45IPZ38N18JYSLA9WB6B2V1ZT&a=IU7Z9&tp_a=IU7Z9&b=3Z7VU45IPZ38N18JYSLA9WB6B2V1ZT&tp_b=3Z7VU45IPZ38N18JYSLA9WB6B2V1ZT&c=365799&tp_c=365799","firstResponseHeads":2,"firstResponseTails":8,"secondResponseHeads":12,"secondResponseTails":18,"totalHeads":14,"totalTails":26,"studentIndex":0,"studentTrueHypers":{"a":8,"b":2},"studentGuess":0.44,"delta":0.24,"bonus":0,"bonusSoFar":0,"totalExamples":40},{"rt":19600,"response":{"heads":"2","tails":"8"},"type":"response","condition":"nonSeqPartial","trueTheta":0.2,"classrooms":["A","B"],"studentTrueClassroom":"A","exampleSet":"first","trial_type":"survey-html-form","trial_index":20,"time_elapsed":1239467,"internal_node_id":"0.0-16.0-0.0","params":{"nStudents":24,"maxFlips":30,"completionMinutes":45,"basePay":8,"maxBonus":9,"perTrialBonus":0.5,"perTrialBonusThreshold":0.05,"exampleCost":0.01},"classroomParams":{"A":{"a":1,"b":4},"B":{"a":4,"b":1},"C":{"a":2,"b":8},"D":{"a":8,"b":2}},"conditions":["nonSeqFull","nonSeqPartial","seqNoFeedback","seqFeedback"],"classroomPairings":[["A","B"],["C","D"]],"coinWeights":[0.2,0.5,0.8],"subjectId":"A33X52IN60MSOE","assignmentId":"3Z7VU45IPZ38N18JYSLA9WB6B2V1ZT","hitId":"3J94SKDEKIB2MY6CGVTNWB9X0ALD5P","url":"https://gershmanlab.com/experiments/alicia/teaching/experiment/?hitId=3J94SKDEKIB2MY6CGVTNWB9X0ALD5P&workerId=A33X52IN60MSOE&assignmentId=3Z7VU45IPZ38N18JYSLA9WB6B2V1ZT&a=IU7Z9&tp_a=IU7Z9&b=3Z7VU45IPZ38N18JYSLA9WB6B2V1ZT&tp_b=3Z7VU45IPZ38N18JYSLA9WB6B2V1ZT&c=365799&tp_c=365799","heads":2,"tails":8,"studentIndex":1,"studentTrueHypers":{"a":1,"b":4},"studentGuess":0.2,"delta":0,"totalExamples":10,"bonus":0.4,"bonusSoFar":0.4},{"rt":9904,"response":{"heads":"1","tails":"4"},"type":"response","condition":"seqNoFeedback","trueTheta":0.2,"classrooms":["C","D"],"studentTrueClassroom":"C","exampleSet":"first","trial_type":"survey-html-form","trial_index":26,"time_elapsed":1271018,"internal_node_id":"0.0-22.0-0.0","params":{"nStudents":24,"maxFlips":30,"completionMinutes":45,"basePay":8,"maxBonus":9,"perTrialBonus":0.5,"perTrialBonusThreshold":0.05,"exampleCost":0.01},"classroomParams":{"A":{"a":1,"b":4},"B":{"a":4,"b":1},"C":{"a":2,"b":8},"D":{"a":8,"b":2}},"conditions":["nonSeqFull","nonSeqPartial","seqNoFeedback","seqFeedback"],"classroomPairings":[["A","B"],["C","D"]],"coinWeights":[0.2,0.5,0.8],"subjectId":"A33X52IN60MSOE","assignmentId":"3Z7VU45IPZ38N18JYSLA9WB6B2V1ZT","hitId":"3J94SKDEKIB2MY6CGVTNWB9X0ALD5P","url":"https://gershmanlab.com/experiments/alicia/teaching/experiment/?hitId=3J94SKDEKIB2MY6CGVTNWB9X0ALD5P&workerId=A33X52IN60MSOE&assignmentId=3Z7VU45IPZ38N18JYSLA9WB6B2V1ZT&a=IU7Z9&tp_a=IU7Z9&b=3Z7VU45IPZ38N18JYSLA9WB6B2V1ZT&tp_b=3Z7VU45IPZ38N18JYSLA9WB6B2V1ZT&c=365799&tp_c=365799","heads":1,"tails":4,"studentIndex":2,"studentTrueHypers":{"a":2,"b":8},"studentGuess":0.2,"delta":0,"totalExamples":5,"bonusSoFar":0.4},{"rt":65261,"response":{"heads":"2","tails":"8"},"type":"response","condition":"seqNoFeedback","trueTheta":0.2,"classrooms":["C","D"],"studentTrueClassroom":"C","exampleSet":"second","trial_type":"survey-html-form","trial_index":29,"time_elapsed":1342532,"internal_node_id":"0.0-25.0-0.0","params":{"nStudents":24,"maxFlips":30,"completionMinutes":45,"basePay":8,"maxBonus":9,"perTrialBonus":0.5,"perTrialBonusThreshold":0.05,"exampleCost":0.01},"classroomParams":{"A":{"a":1,"b":4},"B":{"a":4,"b":1},"C":{"a":2,"b":8},"D":{"a":8,"b":2}},"conditions":["nonSeqFull","nonSeqPartial","seqNoFeedback","seqFeedback"],"classroomPairings":[["A","B"],["C","D"]],"coinWeights":[0.2,0.5,0.8],"subjectId":"A33X52IN60MSOE","assignmentId":"3Z7VU45IPZ38N18JYSLA9WB6B2V1ZT","hitId":"3J94SKDEKIB2MY6CGVTNWB9X0ALD5P","url":"https://gershmanlab.com/experiments/alicia/teaching/experiment/?hitId=3J94SKDEKIB2MY6CGVTNWB9X0ALD5P&workerId=A33X52IN60MSOE&assignmentId=3Z7VU45IPZ38N18JYSLA9WB6B2V1ZT&a=IU7Z9&tp_a=IU7Z9&b=3Z7VU45IPZ38N18JYSLA9WB6B2V1ZT&tp_b=3Z7VU45IPZ38N18JYSLA9WB6B2V1ZT&c=365799&tp_c=365799","firstResponseHeads":1,"firstResponseTails":4,"secondResponseHeads":2,"secondResponseTails":8,"totalHeads":3,"totalTails":12,"studentIndex":2,"studentTrueHypers":{"a":2,"b":8},"studentGuess":0.2,"delta":0,"bonus":0.35,"bonusSoFar":0.75,"totalExamples":15},{"rt":13896,"response":{"heads":"8","tails":"2"},"type":"response","condition":"seqFeedback","trueTheta":0.8,"classrooms":["C","D"],"studentTrueClassroom":"C","exampleSet":"first","trial_type":"survey-html-form","trial_index":35,"time_elapsed":2601240,"internal_node_id":"0.0-31.0-0.0","params":{"nStudents":24,"maxFlips":30,"completionMinutes":45,"basePay":8,"maxBonus":9,"perTrialBonus":0.5,"perTrialBonusThreshold":0.05,"exampleCost":0.01},"classroomParams":{"A":{"a":1,"b":4},"B":{"a":4,"b":1},"C":{"a":2,"b":8},"D":{"a":8,"b":2}},"conditions":["nonSeqFull","nonSeqPartial","seqNoFeedback","seqFeedback"],"classroomPairings":[["A","B"],["C","D"]],"coinWeights":[0.2,0.5,0.8],"subjectId":"A33X52IN60MSOE","assignmentId":"3Z7VU45IPZ38N18JYSLA9WB6B2V1ZT","hitId":"3J94SKDEKIB2MY6CGVTNWB9X0ALD5P","url":"https://gershmanlab.com/experiments/alicia/teaching/experiment/?hitId=3J94SKDEKIB2MY6CGVTNWB9X0ALD5P&workerId=A33X52IN60MSOE&assignmentId=3Z7VU45IPZ38N18JYSLA9WB6B2V1ZT&a=IU7Z9&tp_a=IU7Z9&b=3Z7VU45IPZ38N18JYSLA9WB6B2V1ZT&tp_b=3Z7VU45IPZ38N18JYSLA9WB6B2V1ZT&c=365799&tp_c=365799","heads":8,"tails":2,"studentIndex":3,"studentTrueHypers":{"a":2,"b":8},"studentGuess":0.5,"delta":0.30000000000000004,"totalExamples":10,"bonusSoFar":0.75},{"rt":15315,"response":{"heads":"4","tails":"1"},"type":"response","condition":"seqFeedback","trueTheta":0.8,"classrooms":["C","D"],"studentTrueClassroom":"C","exampleSet":"second","trial_type":"survey-html-form","trial_index":39,"time_elapsed":2631701,"internal_node_id":"0.0-35.0-0.0","params":{"nStudents":24,"maxFlips":30,"completionMinutes":45,"basePay":8,"maxBonus":9,"perTrialBonus":0.5,"perTrialBonusThreshold":0.05,"exampleCost":0.01},"classroomParams":{"A":{"a":1,"b":4},"B":{"a":4,"b":1},"C":{"a":2,"b":8},"D":{"a":8,"b":2}},"conditions":["nonSeqFull","nonSeqPartial","seqNoFeedback","seqFeedback"],"classroomPairings":[["A","B"],["C","D"]],"coinWeights":[0.2,0.5,0.8],"subjectId":"A33X52IN60MSOE","assignmentId":"3Z7VU45IPZ38N18JYSLA9WB6B2V1ZT","hitId":"3J94SKDEKIB2MY6CGVTNWB9X0ALD5P","url":"https://gershmanlab.com/experiments/alicia/teaching/experiment/?hitId=3J94SKDEKIB2MY6CGVTNWB9X0ALD5P&workerId=A33X52IN60MSOE&assignmentId=3Z7VU45IPZ38N18JYSLA9WB6B2V1ZT&a=IU7Z9&tp_a=IU7Z9&b=3Z7VU45IPZ38N18JYSLA9WB6B2V1ZT&tp_b=3Z7VU45IPZ38N18JYSLA9WB6B2V1ZT&c=365799&tp_c=365799","firstResponseHeads":8,"firstResponseTails":2,"secondResponseHeads":4,"secondResponseTails":1,"totalHeads":12,"totalTails":3,"studentIndex":3,"studentTrueHypers":{"a":2,"b":8},"studentGuess":0.56,"delta":0.24,"bonus":0,"bonusSoFar":0.75,"totalExamples":15},{"rt":12770,"response":{"heads":"8","tails":"2"},"type":"response","condition":"seqFeedback","trueTheta":0.8,"classrooms":["A","B"],"studentTrueClassroom":"B","exampleSet":"first","trial_type":"survey-html-form","trial_index":45,"time_elapsed":2662566,"internal_node_id":"0.0-41.0-0.0","params":{"nStudents":24,"maxFlips":30,"completionMinutes":45,"basePay":8,"maxBonus":9,"perTrialBonus":0.5,"perTrialBonusThreshold":0.05,"exampleCost":0.01},"classroomParams":{"A":{"a":1,"b":4},"B":{"a":4,"b":1},"C":{"a":2,"b":8},"D":{"a":8,"b":2}},"conditions":["nonSeqFull","nonSeqPartial","seqNoFeedback","seqFeedback"],"classroomPairings":[["A","B"],["C","D"]],"coinWeights":[0.2,0.5,0.8],"subjectId":"A33X52IN60MSOE","assignmentId":"3Z7VU45IPZ38N18JYSLA9WB6B2V1ZT","hitId":"3J94SKDEKIB2MY6CGVTNWB9X0ALD5P","url":"https://gershmanlab.com/experiments/alicia/teaching/experiment/?hitId=3J94SKDEKIB2MY6CGVTNWB9X0ALD5P&workerId=A33X52IN60MSOE&assignmentId=3Z7VU45IPZ38N18JYSLA9WB6B2V1ZT&a=IU7Z9&tp_a=IU7Z9&b=3Z7VU45IPZ38N18JYSLA9WB6B2V1ZT&tp_b=3Z7VU45IPZ38N18JYSLA9WB6B2V1ZT&c=365799&tp_c=365799","heads":8,"tails":2,"studentIndex":4,"studentTrueHypers":{"a":4,"b":1},"studentGuess":0.8,"delta":0,"totalExamples":10,"bonusSoFar":0.75},{"rt":13897,"response":{"heads":"8","tails":"2"},"type":"response","condition":"seqFeedback","trueTheta":0.8,"classrooms":["A","B"],"studentTrueClassroom":"B","exampleSet":"second","trial_type":"survey-html-form","trial_index":49,"time_elapsed":2691093,"internal_node_id":"0.0-45.0-0.0","params":{"nStudents":24,"maxFlips":30,"completionMinutes":45,"basePay":8,"maxBonus":9,"perTrialBonus":0.5,"perTrialBonusThreshold":0.05,"exampleCost":0.01},"classroomParams":{"A":{"a":1,"b":4},"B":{"a":4,"b":1},"C":{"a":2,"b":8},"D":{"a":8,"b":2}},"conditions":["nonSeqFull","nonSeqPartial","seqNoFeedback","seqFeedback"],"classroomPairings":[["A","B"],["C","D"]],"coinWeights":[0.2,0.5,0.8],"subjectId":"A33X52IN60MSOE","assignmentId":"3Z7VU45IPZ38N18JYSLA9WB6B2V1ZT","hitId":"3J94SKDEKIB2MY6CGVTNWB9X0ALD5P","url":"https://gershmanlab.com/experiments/alicia/teaching/experiment/?hitId=3J94SKDEKIB2MY6CGVTNWB9X0ALD5P&workerId=A33X52IN60MSOE&assignmentId=3Z7VU45IPZ38N18JYSLA9WB6B2V1ZT&a=IU7Z9&tp_a=IU7Z9&b=3Z7VU45IPZ38N18JYSLA9WB6B2V1ZT&tp_b=3Z7VU45IPZ38N18JYSLA9WB6B2V1ZT&c=365799&tp_c=365799","firstResponseHeads":8,"firstResponseTails":2,"secondResponseHeads":8,"secondResponseTails":2,"totalHeads":16,"totalTails":4,"studentIndex":4,"studentTrueHypers":{"a":4,"b":1},"studentGuess":0.8,"delta":0,"bonus":0.3,"bonusSoFar":1.05,"totalExamples":20},{"rt":6750,"response":{"heads":"8","tails":"2"},"type":"response","condition":"nonSeqPartial","trueTheta":0.8,"classrooms":["A","B"],"studentTrueClassroom":"B","exampleSet":"first","trial_type":"survey-html-form","trial_index":55,"time_elapsed":2719181,"internal_node_id":"0.0-51.0-0.0","params":{"nStudents":24,"maxFlips":30,"completionMinutes":45,"basePay":8,"maxBonus":9,"perTrialBonus":0.5,"perTrialBonusThreshold":0.05,"exampleCost":0.01},"classroomParams":{"A":{"a":1,"b":4},"B":{"a":4,"b":1},"C":{"a":2,"b":8},"D":{"a":8,"b":2}},"conditions":["nonSeqFull","nonSeqPartial","seqNoFeedback","seqFeedback"],"classroomPairings":[["A","B"],["C","D"]],"coinWeights":[0.2,0.5,0.8],"subjectId":"A33X52IN60MSOE","assignmentId":"3Z7VU45IPZ38N18JYSLA9WB6B2V1ZT","hitId":"3J94SKDEKIB2MY6CGVTNWB9X0ALD5P","url":"https://gershmanlab.com/experiments/alicia/teaching/experiment/?hitId=3J94SKDEKIB2MY6CGVTNWB9X0ALD5P&workerId=A33X52IN60MSOE&assignmentId=3Z7VU45IPZ38N18JYSLA9WB6B2V1ZT&a=IU7Z9&tp_a=IU7Z9&b=3Z7VU45IPZ38N18JYSLA9WB6B2V1ZT&tp_b=3Z7VU45IPZ38N18JYSLA9WB6B2V1ZT&c=365799&tp_c=365799","heads":8,"tails":2,"studentIndex":5,"studentTrueHypers":{"a":4,"b":1},"studentGuess":0.8,"delta":0,"totalExamples":10,"bonus":0.4,"bonusSoFar":1.45},{"rt":17122,"response":{"heads":"18","tails":"12"},"type":"response","condition":"nonSeqPartial","trueTheta":0.8,"classrooms":["C","D"],"studentTrueClassroom":"D","exampleSet":"first","trial_type":"survey-html-form","trial_index":61,"time_elapsed":2751139,"internal_node_id":"0.0-57.0-0.0","params":{"nStudents":24,"maxFlips":30,"completionMinutes":45,"basePay":8,"maxBonus":9,"perTrialBonus":0.5,"perTrialBonusThreshold":0.05,"exampleCost":0.01},"classroomParams":{"A":{"a":1,"b":4},"B":{"a":4,"b":1},"C":{"a":2,"b":8},"D":{"a":8,"b":2}},"conditions":["nonSeqFull","nonSeqPartial","seqNoFeedback","seqFeedback"],"classroomPairings":[["A","B"],["C","D"]],"coinWeights":[0.2,0.5,0.8],"subjectId":"A33X52IN60MSOE","assignmentId":"3Z7VU45IPZ38N18JYSLA9WB6B2V1ZT","hitId":"3J94SKDEKIB2MY6CGVTNWB9X0ALD5P","url":"https://gershmanlab.com/experiments/alicia/teaching/experiment/?hitId=3J94SKDEKIB2MY6CGVTNWB9X0ALD5P&workerId=A33X52IN60MSOE&assignmentId=3Z7VU45IPZ38N18JYSLA9WB6B2V1ZT&a=IU7Z9&tp_a=IU7Z9&b=3Z7VU45IPZ38N18JYSLA9WB6B2V1ZT&tp_b=3Z7VU45IPZ38N18JYSLA9WB6B2V1ZT&c=365799&tp_c=365799","heads":18,"tails":12,"studentIndex":6,"studentTrueHypers":{"a":8,"b":2},"studentGuess":0.65,"delta":0.15000000000000002,"totalExamples":30,"bonus":0,"bonusSoFar":1.45},{"rt":7329,"response":{"heads":"5","tails":"5"},"type":"response","condition":"seqFeedback","trueTheta":0.5,"classrooms":["A","B"],"studentTrueClassroom":"A","exampleSet":"first","trial_type":"survey-html-form","trial_index":67,"time_elapsed":2780592,"internal_node_id":"0.0-63.0-0.0","params":{"nStudents":24,"maxFlips":30,"completionMinutes":45,"basePay":8,"maxBonus":9,"perTrialBonus":0.5,"perTrialBonusThreshold":0.05,"exampleCost":0.01},"classroomParams":{"A":{"a":1,"b":4},"B":{"a":4,"b":1},"C":{"a":2,"b":8},"D":{"a":8,"b":2}},"conditions":["nonSeqFull","nonSeqPartial","seqNoFeedback","seqFeedback"],"classroomPairings":[["A","B"],["C","D"]],"coinWeights":[0.2,0.5,0.8],"subjectId":"A33X52IN60MSOE","assignmentId":"3Z7VU45IPZ38N18JYSLA9WB6B2V1ZT","hitId":"3J94SKDEKIB2MY6CGVTNWB9X0ALD5P","url":"https://gershmanlab.com/experiments/alicia/teaching/experiment/?hitId=3J94SKDEKIB2MY6CGVTNWB9X0ALD5P&workerId=A33X52IN60MSOE&assignmentId=3Z7VU45IPZ38N18JYSLA9WB6B2V1ZT&a=IU7Z9&tp_a=IU7Z9&b=3Z7VU45IPZ38N18JYSLA9WB6B2V1ZT&tp_b=3Z7VU45IPZ38N18JYSLA9WB6B2V1ZT&c=365799&tp_c=365799","heads":5,"tails":5,"studentIndex":7,"studentTrueHypers":{"a":1,"b":4},"studentGuess":0.4,"delta":0.09999999999999998,"totalExamples":10,"bonusSoFar":1.45},{"rt":16235,"response":{"heads":"10","tails":"10"},"type":"response","condition":"seqFeedback","trueTheta":0.5,"classrooms":["A","B"],"studentTrueClassroom":"A","exampleSet":"second","trial_type":"survey-html-form","trial_index":71,"time_elapsed":2807449,"internal_node_id":"0.0-67.0-0.0","params":{"nStudents":24,"maxFlips":30,"completionMinutes":45,"basePay":8,"maxBonus":9,"perTrialBonus":0.5,"perTrialBonusThreshold":0.05,"exampleCost":0.01},"classroomParams":{"A":{"a":1,"b":4},"B":{"a":4,"b":1},"C":{"a":2,"b":8},"D":{"a":8,"b":2}},"conditions":["nonSeqFull","nonSeqPartial","seqNoFeedback","seqFeedback"],"classroomPairings":[["A","B"],["C","D"]],"coinWeights":[0.2,0.5,0.8],"subjectId":"A33X52IN60MSOE","assignmentId":"3Z7VU45IPZ38N18JYSLA9WB6B2V1ZT","hitId":"3J94SKDEKIB2MY6CGVTNWB9X0ALD5P","url":"https://gershmanlab.com/experiments/alicia/teaching/experiment/?hitId=3J94SKDEKIB2MY6CGVTNWB9X0ALD5P&workerId=A33X52IN60MSOE&assignmentId=3Z7VU45IPZ38N18JYSLA9WB6B2V1ZT&a=IU7Z9&tp_a=IU7Z9&b=3Z7VU45IPZ38N18JYSLA9WB6B2V1ZT&tp_b=3Z7VU45IPZ38N18JYSLA9WB6B2V1ZT&c=365799&tp_c=365799","firstResponseHeads":5,"firstResponseTails":5,"secondResponseHeads":10,"secondResponseTails":10,"totalHeads":15,"totalTails":15,"studentIndex":7,"studentTrueHypers":{"a":1,"b":4},"studentGuess":0.45714285714285713,"delta":0.04285714285714287,"bonus":0.2,"bonusSoFar":1.65,"totalExamples":30},{"rt":15488,"response":{"heads":"2","tails":"8"},"type":"response","condition":"seqFeedback","trueTheta":0.2,"classrooms":["A","B"],"studentTrueClassroom":"A","exampleSet":"first","trial_type":"survey-html-form","trial_index":77,"time_elapsed":3132491,"internal_node_id":"0.0-73.0-0.0","params":{"nStudents":24,"maxFlips":30,"completionMinutes":45,"basePay":8,"maxBonus":9,"perTrialBonus":0.5,"perTrialBonusThreshold":0.05,"exampleCost":0.01},"classroomParams":{"A":{"a":1,"b":4},"B":{"a":4,"b":1},"C":{"a":2,"b":8},"D":{"a":8,"b":2}},"conditions":["nonSeqFull","nonSeqPartial","seqNoFeedback","seqFeedback"],"classroomPairings":[["A","B"],["C","D"]],"coinWeights":[0.2,0.5,0.8],"subjectId":"A33X52IN60MSOE","assignmentId":"3Z7VU45IPZ38N18JYSLA9WB6B2V1ZT","hitId":"3J94SKDEKIB2MY6CGVTNWB9X0ALD5P","url":"https://gershmanlab.com/experiments/alicia/teaching/experiment/?hitId=3J94SKDEKIB2MY6CGVTNWB9X0ALD5P&workerId=A33X52IN60MSOE&assignmentId=3Z7VU45IPZ38N18JYSLA9WB6B2V1ZT&a=IU7Z9&tp_a=IU7Z9&b=3Z7VU45IPZ38N18JYSLA9WB6B2V1ZT&tp_b=3Z7VU45IPZ38N18JYSLA9WB6B2V1ZT&c=365799&tp_c=365799","heads":2,"tails":8,"studentIndex":8,"studentTrueHypers":{"a":1,"b":4},"studentGuess":0.2,"delta":0,"totalExamples":10,"bonusSoFar":1.65},{"rt":11719,"response":{"heads":"2","tails":"8"},"type":"response","condition":"seqFeedback","trueTheta":0.2,"classrooms":["A","B"],"studentTrueClassroom":"A","exampleSet":"second","trial_type":"survey-html-form","trial_index":81,"time_elapsed":3153472,"internal_node_id":"0.0-77.0-0.0","params":{"nStudents":24,"maxFlips":30,"completionMinutes":45,"basePay":8,"maxBonus":9,"perTrialBonus":0.5,"perTrialBonusThreshold":0.05,"exampleCost":0.01},"classroomParams":{"A":{"a":1,"b":4},"B":{"a":4,"b":1},"C":{"a":2,"b":8},"D":{"a":8,"b":2}},"conditions":["nonSeqFull","nonSeqPartial","seqNoFeedback","seqFeedback"],"classroomPairings":[["A","B"],["C","D"]],"coinWeights":[0.2,0.5,0.8],"subjectId":"A33X52IN60MSOE","assignmentId":"3Z7VU45IPZ38N18JYSLA9WB6B2V1ZT","hitId":"3J94SKDEKIB2MY6CGVTNWB9X0ALD5P","url":"https://gershmanlab.com/experiments/alicia/teaching/experiment/?hitId=3J94SKDEKIB2MY6CGVTNWB9X0ALD5P&workerId=A33X52IN60MSOE&assignmentId=3Z7VU45IPZ38N18JYSLA9WB6B2V1ZT&a=IU7Z9&tp_a=IU7Z9&b=3Z7VU45IPZ38N18JYSLA9WB6B2V1ZT&tp_b=3Z7VU45IPZ38N18JYSLA9WB6B2V1ZT&c=365799&tp_c=365799","firstResponseHeads":2,"firstResponseTails":8,"secondResponseHeads":2,"secondResponseTails":8,"totalHeads":4,"totalTails":16,"studentIndex":8,"studentTrueHypers":{"a":1,"b":4},"studentGuess":0.2,"delta":0,"bonus":0.3,"bonusSoFar":1.95,"totalExamples":20},{"rt":11540,"response":{"heads":"10","tails":"10"},"type":"response","condition":"nonSeqFull","trueTheta":0.5,"classrooms":["A","B"],"studentTrueClassroom":"A","exampleSet":"first","trial_type":"survey-html-form","trial_index":87,"time_elapsed":3178217,"internal_node_id":"0.0-83.0-0.0","params":{"nStudents":24,"maxFlips":30,"completionMinutes":45,"basePay":8,"maxBonus":9,"perTrialBonus":0.5,"perTrialBonusThreshold":0.05,"exampleCost":0.01},"classroomParams":{"A":{"a":1,"b":4},"B":{"a":4,"b":1},"C":{"a":2,"b":8},"D":{"a":8,"b":2}},"conditions":["nonSeqFull","nonSeqPartial","seqNoFeedback","seqFeedback"],"classroomPairings":[["A","B"],["C","D"]],"coinWeights":[0.2,0.5,0.8],"subjectId":"A33X52IN60MSOE","assignmentId":"3Z7VU45IPZ38N18JYSLA9WB6B2V1ZT","hitId":"3J94SKDEKIB2MY6CGVTNWB9X0ALD5P","url":"https://gershmanlab.com/experiments/alicia/teaching/experiment/?hitId=3J94SKDEKIB2MY6CGVTNWB9X0ALD5P&workerId=A33X52IN60MSOE&assignmentId=3Z7VU45IPZ38N18JYSLA9WB6B2V1ZT&a=IU7Z9&tp_a=IU7Z9&b=3Z7VU45IPZ38N18JYSLA9WB6B2V1ZT&tp_b=3Z7VU45IPZ38N18JYSLA9WB6B2V1ZT&c=365799&tp_c=365799","heads":10,"tails":10,"studentIndex":9,"studentTrueHypers":{"a":1,"b":4},"studentGuess":0.44,"delta":0.06,"totalExamples":20,"bonus":0,"bonusSoFar":1.95},{"rt":6932,"response":{"heads":"15","tails":"15"},"type":"response","condition":"seqFeedback","trueTheta":0.5,"classrooms":["C","D"],"studentTrueClassroom":"C","exampleSet":"first","trial_type":"survey-html-form","trial_index":93,"time_elapsed":3199690,"internal_node_id":"0.0-89.0-0.0","params":{"nStudents":24,"maxFlips":30,"completionMinutes":45,"basePay":8,"maxBonus":9,"perTrialBonus":0.5,"perTrialBonusThreshold":0.05,"exampleCost":0.01},"classroomParams":{"A":{"a":1,"b":4},"B":{"a":4,"b":1},"C":{"a":2,"b":8},"D":{"a":8,"b":2}},"conditions":["nonSeqFull","nonSeqPartial","seqNoFeedback","seqFeedback"],"classroomPairings":[["A","B"],["C","D"]],"coinWeights":[0.2,0.5,0.8],"subjectId":"A33X52IN60MSOE","assignmentId":"3Z7VU45IPZ38N18JYSLA9WB6B2V1ZT","hitId":"3J94SKDEKIB2MY6CGVTNWB9X0ALD5P","url":"https://gershmanlab.com/experiments/alicia/teaching/experiment/?hitId=3J94SKDEKIB2MY6CGVTNWB9X0ALD5P&workerId=A33X52IN60MSOE&assignmentId=3Z7VU45IPZ38N18JYSLA9WB6B2V1ZT&a=IU7Z9&tp_a=IU7Z9&b=3Z7VU45IPZ38N18JYSLA9WB6B2V1ZT&tp_b=3Z7VU45IPZ38N18JYSLA9WB6B2V1ZT&c=365799&tp_c=365799","heads":15,"tails":15,"studentIndex":10,"studentTrueHypers":{"a":2,"b":8},"studentGuess":0.425,"delta":0.07500000000000001,"totalExamples":30,"bonusSoFar":1.95},{"rt":4515,"response":{"heads":"5","tails":"5"},"type":"response","condition":"seqFeedback","trueTheta":0.5,"classrooms":["C","D"],"studentTrueClassroom":"C","exampleSet":"second","trial_type":"survey-html-form","trial_index":97,"time_elapsed":3212900,"internal_node_id":"0.0-93.0-0.0","params":{"nStudents":24,"maxFlips":30,"completionMinutes":45,"basePay":8,"maxBonus":9,"perTrialBonus":0.5,"perTrialBonusThreshold":0.05,"exampleCost":0.01},"classroomParams":{"A":{"a":1,"b":4},"B":{"a":4,"b":1},"C":{"a":2,"b":8},"D":{"a":8,"b":2}},"conditions":["nonSeqFull","nonSeqPartial","seqNoFeedback","seqFeedback"],"classroomPairings":[["A","B"],["C","D"]],"coinWeights":[0.2,0.5,0.8],"subjectId":"A33X52IN60MSOE","assignmentId":"3Z7VU45IPZ38N18JYSLA9WB6B2V1ZT","hitId":"3J94SKDEKIB2MY6CGVTNWB9X0ALD5P","url":"https://gershmanlab.com/experiments/alicia/teaching/experiment/?hitId=3J94SKDEKIB2MY6CGVTNWB9X0ALD5P&workerId=A33X52IN60MSOE&assignmentId=3Z7VU45IPZ38N18JYSLA9WB6B2V1ZT&a=IU7Z9&tp_a=IU7Z9&b=3Z7VU45IPZ38N18JYSLA9WB6B2V1ZT&tp_b=3Z7VU45IPZ38N18JYSLA9WB6B2V1ZT&c=365799&tp_c=365799","firstResponseHeads":15,"firstResponseTails":15,"secondResponseHeads":5,"secondResponseTails":5,"totalHeads":20,"totalTails":20,"studentIndex":10,"studentTrueHypers":{"a":2,"b":8},"studentGuess":0.44,"delta":0.06,"bonus":0,"bonusSoFar":1.95,"totalExamples":40},{"rt":9954,"response":{"heads":"1","tails":"4"},"type":"response","condition":"nonSeqPartial","trueTheta":0.2,"classrooms":["C","D"],"studentTrueClassroom":"D","exampleSet":"first","trial_type":"survey-html-form","trial_index":103,"time_elapsed":3237169,"internal_node_id":"0.0-99.0-0.0","params":{"nStudents":24,"maxFlips":30,"completionMinutes":45,"basePay":8,"maxBonus":9,"perTrialBonus":0.5,"perTrialBonusThreshold":0.05,"exampleCost":0.01},"classroomParams":{"A":{"a":1,"b":4},"B":{"a":4,"b":1},"C":{"a":2,"b":8},"D":{"a":8,"b":2}},"conditions":["nonSeqFull","nonSeqPartial","seqNoFeedback","seqFeedback"],"classroomPairings":[["A","B"],["C","D"]],"coinWeights":[0.2,0.5,0.8],"subjectId":"A33X52IN60MSOE","assignmentId":"3Z7VU45IPZ38N18JYSLA9WB6B2V1ZT","hitId":"3J94SKDEKIB2MY6CGVTNWB9X0ALD5P","url":"https://gershmanlab.com/experiments/alicia/teaching/experiment/?hitId=3J94SKDEKIB2MY6CGVTNWB9X0ALD5P&workerId=A33X52IN60MSOE&assignmentId=3Z7VU45IPZ38N18JYSLA9WB6B2V1ZT&a=IU7Z9&tp_a=IU7Z9&b=3Z7VU45IPZ38N18JYSLA9WB6B2V1ZT&tp_b=3Z7VU45IPZ38N18JYSLA9WB6B2V1ZT&c=365799&tp_c=365799","heads":1,"tails":4,"studentIndex":11,"studentTrueHypers":{"a":8,"b":2},"studentGuess":0.6,"delta":0.39999999999999997,"totalExamples":5,"bonus":0,"bonusSoFar":1.95},{"rt":8912,"response":{"heads":"8","tails":"2"},"type":"response","condition":"nonSeqFull","trueTheta":0.8,"classrooms":["C","D"],"studentTrueClassroom":"D","exampleSet":"first","trial_type":"survey-html-form","trial_index":109,"time_elapsed":3259033,"internal_node_id":"0.0-105.0-0.0","params":{"nStudents":24,"maxFlips":30,"completionMinutes":45,"basePay":8,"maxBonus":9,"perTrialBonus":0.5,"perTrialBonusThreshold":0.05,"exampleCost":0.01},"classroomParams":{"A":{"a":1,"b":4},"B":{"a":4,"b":1},"C":{"a":2,"b":8},"D":{"a":8,"b":2}},"conditions":["nonSeqFull","nonSeqPartial","seqNoFeedback","seqFeedback"],"classroomPairings":[["A","B"],["C","D"]],"coinWeights":[0.2,0.5,0.8],"subjectId":"A33X52IN60MSOE","assignmentId":"3Z7VU45IPZ38N18JYSLA9WB6B2V1ZT","hitId":"3J94SKDEKIB2MY6CGVTNWB9X0ALD5P","url":"https://gershmanlab.com/experiments/alicia/teaching/experiment/?hitId=3J94SKDEKIB2MY6CGVTNWB9X0ALD5P&workerId=A33X52IN60MSOE&assignmentId=3Z7VU45IPZ38N18JYSLA9WB6B2V1ZT&a=IU7Z9&tp_a=IU7Z9&b=3Z7VU45IPZ38N18JYSLA9WB6B2V1ZT&tp_b=3Z7VU45IPZ38N18JYSLA9WB6B2V1ZT&c=365799&tp_c=365799","heads":8,"tails":2,"studentIndex":12,"studentTrueHypers":{"a":8,"b":2},"studentGuess":0.8,"delta":0,"totalExamples":10,"bonus":0.4,"bonusSoFar":2.35},{"rt":7091,"response":{"heads":"10","tails":"10"},"type":"response","condition":"seqNoFeedback","trueTheta":0.5,"classrooms":["A","B"],"studentTrueClassroom":"A","exampleSet":"first","trial_type":"survey-html-form","trial_index":115,"time_elapsed":3281230,"internal_node_id":"0.0-111.0-0.0","params":{"nStudents":24,"maxFlips":30,"completionMinutes":45,"basePay":8,"maxBonus":9,"perTrialBonus":0.5,"perTrialBonusThreshold":0.05,"exampleCost":0.01},"classroomParams":{"A":{"a":1,"b":4},"B":{"a":4,"b":1},"C":{"a":2,"b":8},"D":{"a":8,"b":2}},"conditions":["nonSeqFull","nonSeqPartial","seqNoFeedback","seqFeedback"],"classroomPairings":[["A","B"],["C","D"]],"coinWeights":[0.2,0.5,0.8],"subjectId":"A33X52IN60MSOE","assignmentId":"3Z7VU45IPZ38N18JYSLA9WB6B2V1ZT","hitId":"3J94SKDEKIB2MY6CGVTNWB9X0ALD5P","url":"https://gershmanlab.com/experiments/alicia/teaching/experiment/?hitId=3J94SKDEKIB2MY6CGVTNWB9X0ALD5P&workerId=A33X52IN60MSOE&assignmentId=3Z7VU45IPZ38N18JYSLA9WB6B2V1ZT&a=IU7Z9&tp_a=IU7Z9&b=3Z7VU45IPZ38N18JYSLA9WB6B2V1ZT&tp_b=3Z7VU45IPZ38N18JYSLA9WB6B2V1ZT&c=365799&tp_c=365799","heads":10,"tails":10,"studentIndex":13,"studentTrueHypers":{"a":1,"b":4},"studentGuess":0.44,"delta":0.06,"totalExamples":20,"bonusSoFar":2.35},{"rt":12159,"response":{"heads":"2","tails":"2"},"type":"response","condition":"seqNoFeedback","trueTheta":0.5,"classrooms":["A","B"],"studentTrueClassroom":"A","exampleSet":"second","trial_type":"survey-html-form","trial_index":118,"time_elapsed":3299658,"internal_node_id":"0.0-114.0-0.0","params":{"nStudents":24,"maxFlips":30,"completionMinutes":45,"basePay":8,"maxBonus":9,"perTrialBonus":0.5,"perTrialBonusThreshold":0.05,"exampleCost":0.01},"classroomParams":{"A":{"a":1,"b":4},"B":{"a":4,"b":1},"C":{"a":2,"b":8},"D":{"a":8,"b":2}},"conditions":["nonSeqFull","nonSeqPartial","seqNoFeedback","seqFeedback"],"classroomPairings":[["A","B"],["C","D"]],"coinWeights":[0.2,0.5,0.8],"subjectId":"A33X52IN60MSOE","assignmentId":"3Z7VU45IPZ38N18JYSLA9WB6B2V1ZT","hitId":"3J94SKDEKIB2MY6CGVTNWB9X0ALD5P","url":"https://gershmanlab.com/experiments/alicia/teaching/experiment/?hitId=3J94SKDEKIB2MY6CGVTNWB9X0ALD5P&workerId=A33X52IN60MSOE&assignmentId=3Z7VU45IPZ38N18JYSLA9WB6B2V1ZT&a=IU7Z9&tp_a=IU7Z9&b=3Z7VU45IPZ38N18JYSLA9WB6B2V1ZT&tp_b=3Z7VU45IPZ38N18JYSLA9WB6B2V1ZT&c=365799&tp_c=365799","firstResponseHeads":10,"firstResponseTails":10,"secondResponseHeads":2,"secondResponseTails":2,"totalHeads":12,"totalTails":12,"studentIndex":13,"studentTrueHypers":{"a":1,"b":4},"studentGuess":0.4482758620689655,"delta":0.051724137931034475,"bonus":0,"bonusSoFar":2.35,"totalExamples":24},{"rt":9406,"response":{"heads":"5","tails":"5"},"type":"response","condition":"nonSeqPartial","trueTheta":0.5,"classrooms":["C","D"],"studentTrueClassroom":"C","exampleSet":"first","trial_type":"survey-html-form","trial_index":124,"time_elapsed":3324068,"internal_node_id":"0.0-120.0-0.0","params":{"nStudents":24,"maxFlips":30,"completionMinutes":45,"basePay":8,"maxBonus":9,"perTrialBonus":0.5,"perTrialBonusThreshold":0.05,"exampleCost":0.01},"classroomParams":{"A":{"a":1,"b":4},"B":{"a":4,"b":1},"C":{"a":2,"b":8},"D":{"a":8,"b":2}},"conditions":["nonSeqFull","nonSeqPartial","seqNoFeedback","seqFeedback"],"classroomPairings":[["A","B"],["C","D"]],"coinWeights":[0.2,0.5,0.8],"subjectId":"A33X52IN60MSOE","assignmentId":"3Z7VU45IPZ38N18JYSLA9WB6B2V1ZT","hitId":"3J94SKDEKIB2MY6CGVTNWB9X0ALD5P","url":"https://gershmanlab.com/experiments/alicia/teaching/experiment/?hitId=3J94SKDEKIB2MY6CGVTNWB9X0ALD5P&workerId=A33X52IN60MSOE&assignmentId=3Z7VU45IPZ38N18JYSLA9WB6B2V1ZT&a=IU7Z9&tp_a=IU7Z9&b=3Z7VU45IPZ38N18JYSLA9WB6B2V1ZT&tp_b=3Z7VU45IPZ38N18JYSLA9WB6B2V1ZT&c=365799&tp_c=365799","heads":5,"tails":5,"studentIndex":14,"studentTrueHypers":{"a":2,"b":8},"studentGuess":0.35,"delta":0.15000000000000002,"totalExamples":10,"bonus":0,"bonusSoFar":2.35},{"rt":5951,"response":{"heads":"1","tails":"4"},"type":"response","condition":"seqNoFeedback","trueTheta":0.2,"classrooms":["A","B"],"studentTrueClassroom":"A","exampleSet":"first","trial_type":"survey-html-form","trial_index":130,"time_elapsed":3344799,"internal_node_id":"0.0-126.0-0.0","params":{"nStudents":24,"maxFlips":30,"completionMinutes":45,"basePay":8,"maxBonus":9,"perTrialBonus":0.5,"perTrialBonusThreshold":0.05,"exampleCost":0.01},"classroomParams":{"A":{"a":1,"b":4},"B":{"a":4,"b":1},"C":{"a":2,"b":8},"D":{"a":8,"b":2}},"conditions":["nonSeqFull","nonSeqPartial","seqNoFeedback","seqFeedback"],"classroomPairings":[["A","B"],["C","D"]],"coinWeights":[0.2,0.5,0.8],"subjectId":"A33X52IN60MSOE","assignmentId":"3Z7VU45IPZ38N18JYSLA9WB6B2V1ZT","hitId":"3J94SKDEKIB2MY6CGVTNWB9X0ALD5P","url":"https://gershmanlab.com/experiments/alicia/teaching/experiment/?hitId=3J94SKDEKIB2MY6CGVTNWB9X0ALD5P&workerId=A33X52IN60MSOE&assignmentId=3Z7VU45IPZ38N18JYSLA9WB6B2V1ZT&a=IU7Z9&tp_a=IU7Z9&b=3Z7VU45IPZ38N18JYSLA9WB6B2V1ZT&tp_b=3Z7VU45IPZ38N18JYSLA9WB6B2V1ZT&c=365799&tp_c=365799","heads":1,"tails":4,"studentIndex":15,"studentTrueHypers":{"a":1,"b":4},"studentGuess":0.2,"delta":0,"totalExamples":5,"bonusSoFar":2.35},{"rt":22078,"response":{"heads":"2","tails":"8"},"type":"response","condition":"seqNoFeedback","trueTheta":0.2,"classrooms":["A","B"],"studentTrueClassroom":"A","exampleSet":"second","trial_type":"survey-html-form","trial_index":133,"time_elapsed":3373395,"internal_node_id":"0.0-129.0-0.0","params":{"nStudents":24,"maxFlips":30,"completionMinutes":45,"basePay":8,"maxBonus":9,"perTrialBonus":0.5,"perTrialBonusThreshold":0.05,"exampleCost":0.01},"classroomParams":{"A":{"a":1,"b":4},"B":{"a":4,"b":1},"C":{"a":2,"b":8},"D":{"a":8,"b":2}},"conditions":["nonSeqFull","nonSeqPartial","seqNoFeedback","seqFeedback"],"classroomPairings":[["A","B"],["C","D"]],"coinWeights":[0.2,0.5,0.8],"subjectId":"A33X52IN60MSOE","assignmentId":"3Z7VU45IPZ38N18JYSLA9WB6B2V1ZT","hitId":"3J94SKDEKIB2MY6CGVTNWB9X0ALD5P","url":"https://gershmanlab.com/experiments/alicia/teaching/experiment/?hitId=3J94SKDEKIB2MY6CGVTNWB9X0ALD5P&workerId=A33X52IN60MSOE&assignmentId=3Z7VU45IPZ38N18JYSLA9WB6B2V1ZT&a=IU7Z9&tp_a=IU7Z9&b=3Z7VU45IPZ38N18JYSLA9WB6B2V1ZT&tp_b=3Z7VU45IPZ38N18JYSLA9WB6B2V1ZT&c=365799&tp_c=365799","firstResponseHeads":1,"firstResponseTails":4,"secondResponseHeads":2,"secondResponseTails":8,"totalHeads":3,"totalTails":12,"studentIndex":15,"studentTrueHypers":{"a":1,"b":4},"studentGuess":0.2,"delta":0,"bonus":0.35,"bonusSoFar":2.7,"totalExamples":15},{"rt":8032,"response":{"heads":"8","tails":"2"},"type":"response","condition":"nonSeqFull","trueTheta":0.8,"classrooms":["A","B"],"studentTrueClassroom":"B","exampleSet":"first","trial_type":"survey-html-form","trial_index":139,"time_elapsed":3395436,"internal_node_id":"0.0-135.0-0.0","params":{"nStudents":24,"maxFlips":30,"completionMinutes":45,"basePay":8,"maxBonus":9,"perTrialBonus":0.5,"perTrialBonusThreshold":0.05,"exampleCost":0.01},"classroomParams":{"A":{"a":1,"b":4},"B":{"a":4,"b":1},"C":{"a":2,"b":8},"D":{"a":8,"b":2}},"conditions":["nonSeqFull","nonSeqPartial","seqNoFeedback","seqFeedback"],"classroomPairings":[["A","B"],["C","D"]],"coinWeights":[0.2,0.5,0.8],"subjectId":"A33X52IN60MSOE","assignmentId":"3Z7VU45IPZ38N18JYSLA9WB6B2V1ZT","hitId":"3J94SKDEKIB2MY6CGVTNWB9X0ALD5P","url":"https://gershmanlab.com/experiments/alicia/teaching/experiment/?hitId=3J94SKDEKIB2MY6CGVTNWB9X0ALD5P&workerId=A33X52IN60MSOE&assignmentId=3Z7VU45IPZ38N18JYSLA9WB6B2V1ZT&a=IU7Z9&tp_a=IU7Z9&b=3Z7VU45IPZ38N18JYSLA9WB6B2V1ZT&tp_b=3Z7VU45IPZ38N18JYSLA9WB6B2V1ZT&c=365799&tp_c=365799","heads":8,"tails":2,"studentIndex":16,"studentTrueHypers":{"a":4,"b":1},"studentGuess":0.8,"delta":0,"totalExamples":10,"bonus":0.4,"bonusSoFar":3.1},{"rt":8174,"response":{"heads":"2","tails":"8"},"type":"response","condition":"nonSeqFull","trueTheta":0.2,"classrooms":["C","D"],"studentTrueClassroom":"C","exampleSet":"first","trial_type":"survey-html-form","trial_index":145,"time_elapsed":3414705,"internal_node_id":"0.0-141.0-0.0","params":{"nStudents":24,"maxFlips":30,"completionMinutes":45,"basePay":8,"maxBonus":9,"perTrialBonus":0.5,"perTrialBonusThreshold":0.05,"exampleCost":0.01},"classroomParams":{"A":{"a":1,"b":4},"B":{"a":4,"b":1},"C":{"a":2,"b":8},"D":{"a":8,"b":2}},"conditions":["nonSeqFull","nonSeqPartial","seqNoFeedback","seqFeedback"],"classroomPairings":[["A","B"],["C","D"]],"coinWeights":[0.2,0.5,0.8],"subjectId":"A33X52IN60MSOE","assignmentId":"3Z7VU45IPZ38N18JYSLA9WB6B2V1ZT","hitId":"3J94SKDEKIB2MY6CGVTNWB9X0ALD5P","url":"https://gershmanlab.com/experiments/alicia/teaching/experiment/?hitId=3J94SKDEKIB2MY6CGVTNWB9X0ALD5P&workerId=A33X52IN60MSOE&assignmentId=3Z7VU45IPZ38N18JYSLA9WB6B2V1ZT&a=IU7Z9&tp_a=IU7Z9&b=3Z7VU45IPZ38N18JYSLA9WB6B2V1ZT&tp_b=3Z7VU45IPZ38N18JYSLA9WB6B2V1ZT&c=365799&tp_c=365799","heads":2,"tails":8,"studentIndex":17,"studentTrueHypers":{"a":2,"b":8},"studentGuess":0.2,"delta":0,"totalExamples":10,"bonus":0.4,"bonusSoFar":3.5},{"rt":6268,"response":{"heads":"5","tails":"5"},"type":"response","condition":"nonSeqFull","trueTheta":0.5,"classrooms":["C","D"],"studentTrueClassroom":"D","exampleSet":"first","trial_type":"survey-html-form","trial_index":151,"time_elapsed":3434188,"internal_node_id":"0.0-147.0-0.0","params":{"nStudents":24,"maxFlips":30,"completionMinutes":45,"basePay":8,"maxBonus":9,"perTrialBonus":0.5,"perTrialBonusThreshold":0.05,"exampleCost":0.01},"classroomParams":{"A":{"a":1,"b":4},"B":{"a":4,"b":1},"C":{"a":2,"b":8},"D":{"a":8,"b":2}},"conditions":["nonSeqFull","nonSeqPartial","seqNoFeedback","seqFeedback"],"classroomPairings":[["A","B"],["C","D"]],"coinWeights":[0.2,0.5,0.8],"subjectId":"A33X52IN60MSOE","assignmentId":"3Z7VU45IPZ38N18JYSLA9WB6B2V1ZT","hitId":"3J94SKDEKIB2MY6CGVTNWB9X0ALD5P","url":"https://gershmanlab.com/experiments/alicia/teaching/experiment/?hitId=3J94SKDEKIB2MY6CGVTNWB9X0ALD5P&workerId=A33X52IN60MSOE&assignmentId=3Z7VU45IPZ38N18JYSLA9WB6B2V1ZT&a=IU7Z9&tp_a=IU7Z9&b=3Z7VU45IPZ38N18JYSLA9WB6B2V1ZT&tp_b=3Z7VU45IPZ38N18JYSLA9WB6B2V1ZT&c=365799&tp_c=365799","heads":5,"tails":5,"studentIndex":18,"studentTrueHypers":{"a":8,"b":2},"studentGuess":0.65,"delta":0.15000000000000002,"totalExamples":10,"bonus":0,"bonusSoFar":3.5},{"rt":7294,"response":{"heads":"8","tails":"2"},"type":"response","condition":"seqNoFeedback","trueTheta":0.8,"classrooms":["C","D"],"studentTrueClassroom":"D","exampleSet":"first","trial_type":"survey-html-form","trial_index":157,"time_elapsed":3458150,"internal_node_id":"0.0-153.0-0.0","params":{"nStudents":24,"maxFlips":30,"completionMinutes":45,"basePay":8,"maxBonus":9,"perTrialBonus":0.5,"perTrialBonusThreshold":0.05,"exampleCost":0.01},"classroomParams":{"A":{"a":1,"b":4},"B":{"a":4,"b":1},"C":{"a":2,"b":8},"D":{"a":8,"b":2}},"conditions":["nonSeqFull","nonSeqPartial","seqNoFeedback","seqFeedback"],"classroomPairings":[["A","B"],["C","D"]],"coinWeights":[0.2,0.5,0.8],"subjectId":"A33X52IN60MSOE","assignmentId":"3Z7VU45IPZ38N18JYSLA9WB6B2V1ZT","hitId":"3J94SKDEKIB2MY6CGVTNWB9X0ALD5P","url":"https://gershmanlab.com/experiments/alicia/teaching/experiment/?hitId=3J94SKDEKIB2MY6CGVTNWB9X0ALD5P&workerId=A33X52IN60MSOE&assignmentId=3Z7VU45IPZ38N18JYSLA9WB6B2V1ZT&a=IU7Z9&tp_a=IU7Z9&b=3Z7VU45IPZ38N18JYSLA9WB6B2V1ZT&tp_b=3Z7VU45IPZ38N18JYSLA9WB6B2V1ZT&c=365799&tp_c=365799","heads":8,"tails":2,"studentIndex":19,"studentTrueHypers":{"a":8,"b":2},"studentGuess":0.8,"delta":0,"totalExamples":10,"bonusSoFar":3.5},{"rt":10392,"response":{"heads":"4","tails":"1"},"type":"response","condition":"seqNoFeedback","trueTheta":0.8,"classrooms":["C","D"],"studentTrueClassroom":"D","exampleSet":"second","trial_type":"survey-html-form","trial_index":160,"time_elapsed":3476049,"internal_node_id":"0.0-156.0-0.0","params":{"nStudents":24,"maxFlips":30,"completionMinutes":45,"basePay":8,"maxBonus":9,"perTrialBonus":0.5,"perTrialBonusThreshold":0.05,"exampleCost":0.01},"classroomParams":{"A":{"a":1,"b":4},"B":{"a":4,"b":1},"C":{"a":2,"b":8},"D":{"a":8,"b":2}},"conditions":["nonSeqFull","nonSeqPartial","seqNoFeedback","seqFeedback"],"classroomPairings":[["A","B"],["C","D"]],"coinWeights":[0.2,0.5,0.8],"subjectId":"A33X52IN60MSOE","assignmentId":"3Z7VU45IPZ38N18JYSLA9WB6B2V1ZT","hitId":"3J94SKDEKIB2MY6CGVTNWB9X0ALD5P","url":"https://gershmanlab.com/experiments/alicia/teaching/experiment/?hitId=3J94SKDEKIB2MY6CGVTNWB9X0ALD5P&workerId=A33X52IN60MSOE&assignmentId=3Z7VU45IPZ38N18JYSLA9WB6B2V1ZT&a=IU7Z9&tp_a=IU7Z9&b=3Z7VU45IPZ38N18JYSLA9WB6B2V1ZT&tp_b=3Z7VU45IPZ38N18JYSLA9WB6B2V1ZT&c=365799&tp_c=365799","firstResponseHeads":8,"firstResponseTails":2,"secondResponseHeads":4,"secondResponseTails":1,"totalHeads":12,"totalTails":3,"studentIndex":19,"studentTrueHypers":{"a":8,"b":2},"studentGuess":0.8,"delta":0,"bonus":0.35,"bonusSoFar":3.85,"totalExamples":15},{"rt":5114,"response":{"heads":"8","tails":"2"},"type":"response","condition":"seqNoFeedback","trueTheta":0.8,"classrooms":["A","B"],"studentTrueClassroom":"B","exampleSet":"first","trial_type":"survey-html-form","trial_index":166,"time_elapsed":3493081,"internal_node_id":"0.0-162.0-0.0","params":{"nStudents":24,"maxFlips":30,"completionMinutes":45,"basePay":8,"maxBonus":9,"perTrialBonus":0.5,"perTrialBonusThreshold":0.05,"exampleCost":0.01},"classroomParams":{"A":{"a":1,"b":4},"B":{"a":4,"b":1},"C":{"a":2,"b":8},"D":{"a":8,"b":2}},"conditions":["nonSeqFull","nonSeqPartial","seqNoFeedback","seqFeedback"],"classroomPairings":[["A","B"],["C","D"]],"coinWeights":[0.2,0.5,0.8],"subjectId":"A33X52IN60MSOE","assignmentId":"3Z7VU45IPZ38N18JYSLA9WB6B2V1ZT","hitId":"3J94SKDEKIB2MY6CGVTNWB9X0ALD5P","url":"https://gershmanlab.com/experiments/alicia/teaching/experiment/?hitId=3J94SKDEKIB2MY6CGVTNWB9X0ALD5P&workerId=A33X52IN60MSOE&assignmentId=3Z7VU45IPZ38N18JYSLA9WB6B2V1ZT&a=IU7Z9&tp_a=IU7Z9&b=3Z7VU45IPZ38N18JYSLA9WB6B2V1ZT&tp_b=3Z7VU45IPZ38N18JYSLA9WB6B2V1ZT&c=365799&tp_c=365799","heads":8,"tails":2,"studentIndex":20,"studentTrueHypers":{"a":4,"b":1},"studentGuess":0.8,"delta":0,"totalExamples":10,"bonusSoFar":3.85},{"rt":4988,"response":{"heads":"8","tails":"2"},"type":"response","condition":"seqNoFeedback","trueTheta":0.8,"classrooms":["A","B"],"studentTrueClassroom":"B","exampleSet":"second","trial_type":"survey-html-form","trial_index":169,"time_elapsed":3505322,"internal_node_id":"0.0-165.0-0.0","params":{"nStudents":24,"maxFlips":30,"completionMinutes":45,"basePay":8,"maxBonus":9,"perTrialBonus":0.5,"perTrialBonusThreshold":0.05,"exampleCost":0.01},"classroomParams":{"A":{"a":1,"b":4},"B":{"a":4,"b":1},"C":{"a":2,"b":8},"D":{"a":8,"b":2}},"conditions":["nonSeqFull","nonSeqPartial","seqNoFeedback","seqFeedback"],"classroomPairings":[["A","B"],["C","D"]],"coinWeights":[0.2,0.5,0.8],"subjectId":"A33X52IN60MSOE","assignmentId":"3Z7VU45IPZ38N18JYSLA9WB6B2V1ZT","hitId":"3J94SKDEKIB2MY6CGVTNWB9X0ALD5P","url":"https://gershmanlab.com/experiments/alicia/teaching/experiment/?hitId=3J94SKDEKIB2MY6CGVTNWB9X0ALD5P&workerId=A33X52IN60MSOE&assignmentId=3Z7VU45IPZ38N18JYSLA9WB6B2V1ZT&a=IU7Z9&tp_a=IU7Z9&b=3Z7VU45IPZ38N18JYSLA9WB6B2V1ZT&tp_b=3Z7VU45IPZ38N18JYSLA9WB6B2V1ZT&c=365799&tp_c=365799","firstResponseHeads":8,"firstResponseTails":2,"secondResponseHeads":8,"secondResponseTails":2,"totalHeads":16,"totalTails":4,"studentIndex":20,"studentTrueHypers":{"a":4,"b":1},"studentGuess":0.8,"delta":0,"bonus":0.3,"bonusSoFar":4.15,"totalExamples":20},{"rt":7752,"response":{"heads":"2","tails":"8"},"type":"response","condition":"nonSeqFull","trueTheta":0.2,"classrooms":["A","B"],"studentTrueClassroom":"B","exampleSet":"first","trial_type":"survey-html-form","trial_index":175,"time_elapsed":3527843,"internal_node_id":"0.0-171.0-0.0","params":{"nStudents":24,"maxFlips":30,"completionMinutes":45,"basePay":8,"maxBonus":9,"perTrialBonus":0.5,"perTrialBonusThreshold":0.05,"exampleCost":0.01},"classroomParams":{"A":{"a":1,"b":4},"B":{"a":4,"b":1},"C":{"a":2,"b":8},"D":{"a":8,"b":2}},"conditions":["nonSeqFull","nonSeqPartial","seqNoFeedback","seqFeedback"],"classroomPairings":[["A","B"],["C","D"]],"coinWeights":[0.2,0.5,0.8],"subjectId":"A33X52IN60MSOE","assignmentId":"3Z7VU45IPZ38N18JYSLA9WB6B2V1ZT","hitId":"3J94SKDEKIB2MY6CGVTNWB9X0ALD5P","url":"https://gershmanlab.com/experiments/alicia/teaching/experiment/?hitId=3J94SKDEKIB2MY6CGVTNWB9X0ALD5P&workerId=A33X52IN60MSOE&assignmentId=3Z7VU45IPZ38N18JYSLA9WB6B2V1ZT&a=IU7Z9&tp_a=IU7Z9&b=3Z7VU45IPZ38N18JYSLA9WB6B2V1ZT&tp_b=3Z7VU45IPZ38N18JYSLA9WB6B2V1ZT&c=365799&tp_c=365799","heads":2,"tails":8,"studentIndex":21,"studentTrueHypers":{"a":4,"b":1},"studentGuess":0.4,"delta":0.2,"totalExamples":10,"bonus":0,"bonusSoFar":4.15},{"rt":5802,"response":{"heads":"5","tails":"5"},"type":"response","condition":"seqNoFeedback","trueTheta":0.5,"classrooms":["C","D"],"studentTrueClassroom":"D","exampleSet":"first","trial_type":"survey-html-form","trial_index":181,"time_elapsed":3546025,"internal_node_id":"0.0-177.0-0.0","params":{"nStudents":24,"maxFlips":30,"completionMinutes":45,"basePay":8,"maxBonus":9,"perTrialBonus":0.5,"perTrialBonusThreshold":0.05,"exampleCost":0.01},"classroomParams":{"A":{"a":1,"b":4},"B":{"a":4,"b":1},"C":{"a":2,"b":8},"D":{"a":8,"b":2}},"conditions":["nonSeqFull","nonSeqPartial","seqNoFeedback","seqFeedback"],"classroomPairings":[["A","B"],["C","D"]],"coinWeights":[0.2,0.5,0.8],"subjectId":"A33X52IN60MSOE","assignmentId":"3Z7VU45IPZ38N18JYSLA9WB6B2V1ZT","hitId":"3J94SKDEKIB2MY6CGVTNWB9X0ALD5P","url":"https://gershmanlab.com/experiments/alicia/teaching/experiment/?hitId=3J94SKDEKIB2MY6CGVTNWB9X0ALD5P&workerId=A33X52IN60MSOE&assignmentId=3Z7VU45IPZ38N18JYSLA9WB6B2V1ZT&a=IU7Z9&tp_a=IU7Z9&b=3Z7VU45IPZ38N18JYSLA9WB6B2V1ZT&tp_b=3Z7VU45IPZ38N18JYSLA9WB6B2V1ZT&c=365799&tp_c=365799","heads":5,"tails":5,"studentIndex":22,"studentTrueHypers":{"a":8,"b":2},"studentGuess":0.65,"delta":0.15000000000000002,"totalExamples":10,"bonusSoFar":4.15},{"rt":5864,"response":{"heads":"1","tails":"1"},"type":"response","condition":"seqNoFeedback","trueTheta":0.5,"classrooms":["C","D"],"studentTrueClassroom":"D","exampleSet":"second","trial_type":"survey-html-form","trial_index":184,"time_elapsed":3558650,"internal_node_id":"0.0-180.0-0.0","params":{"nStudents":24,"maxFlips":30,"completionMinutes":45,"basePay":8,"maxBonus":9,"perTrialBonus":0.5,"perTrialBonusThreshold":0.05,"exampleCost":0.01},"classroomParams":{"A":{"a":1,"b":4},"B":{"a":4,"b":1},"C":{"a":2,"b":8},"D":{"a":8,"b":2}},"conditions":["nonSeqFull","nonSeqPartial","seqNoFeedback","seqFeedback"],"classroomPairings":[["A","B"],["C","D"]],"coinWeights":[0.2,0.5,0.8],"subjectId":"A33X52IN60MSOE","assignmentId":"3Z7VU45IPZ38N18JYSLA9WB6B2V1ZT","hitId":"3J94SKDEKIB2MY6CGVTNWB9X0ALD5P","url":"https://gershmanlab.com/experiments/alicia/teaching/experiment/?hitId=3J94SKDEKIB2MY6CGVTNWB9X0ALD5P&workerId=A33X52IN60MSOE&assignmentId=3Z7VU45IPZ38N18JYSLA9WB6B2V1ZT&a=IU7Z9&tp_a=IU7Z9&b=3Z7VU45IPZ38N18JYSLA9WB6B2V1ZT&tp_b=3Z7VU45IPZ38N18JYSLA9WB6B2V1ZT&c=365799&tp_c=365799","firstResponseHeads":5,"firstResponseTails":5,"secondResponseHeads":1,"secondResponseTails":1,"totalHeads":6,"totalTails":6,"studentIndex":22,"studentTrueHypers":{"a":8,"b":2},"studentGuess":0.6363636363636364,"delta":0.13636363636363635,"bonus":0,"bonusSoFar":4.15,"totalExamples":12},{"rt":14575,"response":{"heads":"2","tails":"2"},"type":"response","condition":"nonSeqPartial","trueTheta":0.5,"classrooms":["A","B"],"studentTrueClassroom":"B","exampleSet":"first","trial_type":"survey-html-form","trial_index":190,"time_elapsed":3586087,"internal_node_id":"0.0-186.0-0.0","params":{"nStudents":24,"maxFlips":30,"completionMinutes":45,"basePay":8,"maxBonus":9,"perTrialBonus":0.5,"perTrialBonusThreshold":0.05,"exampleCost":0.01},"classroomParams":{"A":{"a":1,"b":4},"B":{"a":4,"b":1},"C":{"a":2,"b":8},"D":{"a":8,"b":2}},"conditions":["nonSeqFull","nonSeqPartial","seqNoFeedback","seqFeedback"],"classroomPairings":[["A","B"],["C","D"]],"coinWeights":[0.2,0.5,0.8],"subjectId":"A33X52IN60MSOE","assignmentId":"3Z7VU45IPZ38N18JYSLA9WB6B2V1ZT","hitId":"3J94SKDEKIB2MY6CGVTNWB9X0ALD5P","url":"https://gershmanlab.com/experiments/alicia/teaching/experiment/?hitId=3J94SKDEKIB2MY6CGVTNWB9X0ALD5P&workerId=A33X52IN60MSOE&assignmentId=3Z7VU45IPZ38N18JYSLA9WB6B2V1ZT&a=IU7Z9&tp_a=IU7Z9&b=3Z7VU45IPZ38N18JYSLA9WB6B2V1ZT&tp_b=3Z7VU45IPZ38N18JYSLA9WB6B2V1ZT&c=365799&tp_c=365799","heads":2,"tails":2,"studentIndex":23,"studentTrueHypers":{"a":4,"b":1},"studentGuess":0.6666666666666666,"delta":0.16666666666666663,"totalExamples":4,"bonus":0,"bonusSoFar":4.15},{"rt":14070,"response":{"gender":"male","age":"40","understood":"yes","comments":"none at this time."},"type":"response","trial_type":"survey-html-form","trial_index":194,"time_elapsed":3608041,"internal_node_id":"0.0-191.0","params":{"nStudents":24,"maxFlips":30,"completionMinutes":45,"basePay":8,"maxBonus":9,"perTrialBonus":0.5,"perTrialBonusThreshold":0.05,"exampleCost":0.01},"classroomParams":{"A":{"a":1,"b":4},"B":{"a":4,"b":1},"C":{"a":2,"b":8},"D":{"a":8,"b":2}},"conditions":["nonSeqFull","nonSeqPartial","seqNoFeedback","seqFeedback"],"classroomPairings":[["A","B"],["C","D"]],"coinWeights":[0.2,0.5,0.8],"subjectId":"A33X52IN60MSOE","assignmentId":"3Z7VU45IPZ38N18JYSLA9WB6B2V1ZT","hitId":"3J94SKDEKIB2MY6CGVTNWB9X0ALD5P","url":"https://gershmanlab.com/experiments/alicia/teaching/experiment/?hitId=3J94SKDEKIB2MY6CGVTNWB9X0ALD5P&workerId=A33X52IN60MSOE&assignmentId=3Z7VU45IPZ38N18JYSLA9WB6B2V1ZT&a=IU7Z9&tp_a=IU7Z9&b=3Z7VU45IPZ38N18JYSLA9WB6B2V1ZT&tp_b=3Z7VU45IPZ38N18JYSLA9WB6B2V1ZT&c=365799&tp_c=365799","totalBonus":4.15}]