[{"rt":80229,"response":{"heads":"5","tails":"0"},"type":"response","condition":"seqNoFeedback","trueTheta":0.5,"classrooms":["C","D"],"studentTrueClassroom":"D","exampleSet":"first","trial_type":"survey-html-form","trial_index":7,"time_elapsed":593339,"internal_node_id":"0.0-6.0-0.0","params":{"nStudents":24,"maxFlips":30,"completionMinutes":45,"basePay":8,"maxBonus":9,"perTrialBonus":0.5,"perTrialBonusThreshold":0.05,"exampleCost":0.01},"classroomParams":{"A":{"a":1,"b":4},"B":{"a":4,"b":1},"C":{"a":2,"b":8},"D":{"a":8,"b":2}},"conditions":["nonSeqFull","nonSeqPartial","seqNoFeedback","seqFeedback"],"classroomPairings":[["A","B"],["C","D"]],"coinWeights":[0.2,0.5,0.8],"subjectId":"A358YR7MWC6LRH","assignmentId":"3ZAK8W07I50RUDTRWMI2EZDH4R8U0Q","hitId":"3J94SKDEKIB2MY6CGVTNWB9X0ALD5P","url":"https://gershmanlab.com/experiments/alicia/teaching/experiment/?hitId=3J94SKDEKIB2MY6CGVTNWB9X0ALD5P&workerId=A358YR7MWC6LRH&assignmentId=3ZAK8W07I50RUDTRWMI2EZDH4R8U0Q&a=78AZ9&tp_a=78AZ9&b=3ZAK8W07I50RUDTRWMI2EZDH4R8U0Q&tp_b=3ZAK8W07I50RUDTRWMI2EZDH4R8U0Q&c=365799&tp_c=365799","heads":5,"tails":0,"studentIndex":0,"studentTrueHypers":{"a":8,"b":2},"studentGuess":0.8666666666666667,"delta":0.3666666666666667,"totalExamples":5,"bonusSoFar":0},{"rt":11141,"response":{"heads":"5","tails":"0"},"type":"response","condition":"seqNoFeedback","trueTheta":0.5,"classrooms":["C","D"],"studentTrueClassroom":"D","exampleSet":"second","trial_type":"survey-html-form","trial_index":10,"time_elapsed":610240,"internal_node_id":"0.0-9.0-0.0","params":{"nStudents":24,"maxFlips":30,"completionMinutes":45,"basePay":8,"maxBonus":9,"perTrialBonus":0.5,"perTrialBonusThreshold":0.05,"exampleCost":0.01},"classroomParams":{"A":{"a":1,"b":4},"B":{"a":4,"b":1},"C":{"a":2,"b":8},"D":{"a":8,"b":2}},"conditions":["nonSeqFull","nonSeqPartial","seqNoFeedback","seqFeedback"],"classroomPairings":[["A","B"],["C","D"]],"coinWeights":[0.2,0.5,0.8],"subjectId":"A358YR7MWC6LRH","assignmentId":"3ZAK8W07I50RUDTRWMI2EZDH4R8U0Q","hitId":"3J94SKDEKIB2MY6CGVTNWB9X0ALD5P","url":"https://gershmanlab.com/experiments/alicia/teaching/experiment/?hitId=3J94SKDEKIB2MY6CGVTNWB9X0ALD5P&workerId=A358YR7MWC6LRH&assignmentId=3ZAK8W07I50RUDTRWMI2EZDH4R8U0Q&a=78AZ9&tp_a=78AZ9&b=3ZAK8W07I50RUDTRWMI2EZDH4R8U0Q&tp_b=3ZAK8W07I50RUDTRWMI2EZDH4R8U0Q&c=365799&tp_c=365799","firstResponseHeads":5,"firstResponseTails":0,"secondResponseHeads":5,"secondResponseTails":0,"totalHeads":10,"totalTails":0,"studentIndex":0,"studentTrueHypers":{"a":8,"b":2},"studentGuess":0.9,"delta":0.4,"bonus":0,"bonusSoFar":0,"totalExamples":10},{"rt":19830,"response":{"heads":"2","tails":"0"},"type":"response","condition":"seqFeedback","trueTheta":0.2,"classrooms":["C","D"],"studentTrueClassroom":"D","exampleSet":"first","trial_type":"survey-html-form","trial_index":16,"time_elapsed":668725,"internal_node_id":"0.0-15.0-0.0","params":{"nStudents":24,"maxFlips":30,"completionMinutes":45,"basePay":8,"maxBonus":9,"perTrialBonus":0.5,"perTrialBonusThreshold":0.05,"exampleCost":0.01},"classroomParams":{"A":{"a":1,"b":4},"B":{"a":4,"b":1},"C":{"a":2,"b":8},"D":{"a":8,"b":2}},"conditions":["nonSeqFull","nonSeqPartial","seqNoFeedback","seqFeedback"],"classroomPairings":[["A","B"],["C","D"]],"coinWeights":[0.2,0.5,0.8],"subjectId":"A358YR7MWC6LRH","assignmentId":"3ZAK8W07I50RUDTRWMI2EZDH4R8U0Q","hitId":"3J94SKDEKIB2MY6CGVTNWB9X0ALD5P","url":"https://gershmanlab.com/experiments/alicia/teaching/experiment/?hitId=3J94SKDEKIB2MY6CGVTNWB9X0ALD5P&workerId=A358YR7MWC6LRH&assignmentId=3ZAK8W07I50RUDTRWMI2EZDH4R8U0Q&a=78AZ9&tp_a=78AZ9&b=3ZAK8W07I50RUDTRWMI2EZDH4R8U0Q&tp_b=3ZAK8W07I50RUDTRWMI2EZDH4R8U0Q&c=365799&tp_c=365799","heads":2,"tails":0,"studentIndex":1,"studentTrueHypers":{"a":8,"b":2},"studentGuess":0.8333333333333334,"delta":0.6333333333333333,"totalExamples":2,"bonusSoFar":0},{"rt":16938,"response":{"heads":"1","tails":"9"},"type":"response","condition":"seqFeedback","trueTheta":0.2,"classrooms":["C","D"],"studentTrueClassroom":"D","exampleSet":"second","trial_type":"survey-html-form","trial_index":20,"time_elapsed":697309,"internal_node_id":"0.0-19.0-0.0","params":{"nStudents":24,"maxFlips":30,"completionMinutes":45,"basePay":8,"maxBonus":9,"perTrialBonus":0.5,"perTrialBonusThreshold":0.05,"exampleCost":0.01},"classroomParams":{"A":{"a":1,"b":4},"B":{"a":4,"b":1},"C":{"a":2,"b":8},"D":{"a":8,"b":2}},"conditions":["nonSeqFull","nonSeqPartial","seqNoFeedback","seqFeedback"],"classroomPairings":[["A","B"],["C","D"]],"coinWeights":[0.2,0.5,0.8],"subjectId":"A358YR7MWC6LRH","assignmentId":"3ZAK8W07I50RUDTRWMI2EZDH4R8U0Q","hitId":"3J94SKDEKIB2MY6CGVTNWB9X0ALD5P","url":"https://gershmanlab.com/experiments/alicia/teaching/experiment/?hitId=3J94SKDEKIB2MY6CGVTNWB9X0ALD5P&workerId=A358YR7MWC6LRH&assignmentId=3ZAK8W07I50RUDTRWMI2EZDH4R8U0Q&a=78AZ9&tp_a=78AZ9&b=3ZAK8W07I50RUDTRWMI2EZDH4R8U0Q&tp_b=3ZAK8W07I50RUDTRWMI2EZDH4R8U0Q&c=365799&tp_c=365799","firstResponseHeads":2,"firstResponseTails":0,"secondResponseHeads":1,"secondResponseTails":9,"totalHeads":3,"totalTails":9,"studentIndex":1,"studentTrueHypers":{"a":8,"b":2},"studentGuess":0.5,"delta":0.3,"bonus":0,"bonusSoFar":0,"totalExamples":12},{"rt":4837,"response":{"heads":"2","tails":"8"},"type":"response","condition":"seqFeedback","trueTheta":0.2,"classrooms":["A","B"],"studentTrueClassroom":"B","exampleSet":"first","trial_type":"survey-html-form","trial_index":26,"time_elapsed":719629,"internal_node_id":"0.0-25.0-0.0","params":{"nStudents":24,"maxFlips":30,"completionMinutes":45,"basePay":8,"maxBonus":9,"perTrialBonus":0.5,"perTrialBonusThreshold":0.05,"exampleCost":0.01},"classroomParams":{"A":{"a":1,"b":4},"B":{"a":4,"b":1},"C":{"a":2,"b":8},"D":{"a":8,"b":2}},"conditions":["nonSeqFull","nonSeqPartial","seqNoFeedback","seqFeedback"],"classroomPairings":[["A","B"],["C","D"]],"coinWeights":[0.2,0.5,0.8],"subjectId":"A358YR7MWC6LRH","assignmentId":"3ZAK8W07I50RUDTRWMI2EZDH4R8U0Q","hitId":"3J94SKDEKIB2MY6CGVTNWB9X0ALD5P","url":"https://gershmanlab.com/experiments/alicia/teaching/experiment/?hitId=3J94SKDEKIB2MY6CGVTNWB9X0ALD5P&workerId=A358YR7MWC6LRH&assignmentId=3ZAK8W07I50RUDTRWMI2EZDH4R8U0Q&a=78AZ9&tp_a=78AZ9&b=3ZAK8W07I50RUDTRWMI2EZDH4R8U0Q&tp_b=3ZAK8W07I50RUDTRWMI2EZDH4R8U0Q&c=365799&tp_c=365799","heads":2,"tails":8,"studentIndex":2,"studentTrueHypers":{"a":4,"b":1},"studentGuess":0.4,"delta":0.2,"totalExamples":10,"bonusSoFar":0},{"rt":5266,"response":{"heads":"1","tails":"9"},"type":"response","condition":"seqFeedback","trueTheta":0.2,"classrooms":["A","B"],"studentTrueClassroom":"B","exampleSet":"second","trial_type":"survey-html-form","trial_index":30,"time_elapsed":736974,"internal_node_id":"0.0-29.0-0.0","params":{"nStudents":24,"maxFlips":30,"completionMinutes":45,"basePay":8,"maxBonus":9,"perTrialBonus":0.5,"perTrialBonusThreshold":0.05,"exampleCost":0.01},"classroomParams":{"A":{"a":1,"b":4},"B":{"a":4,"b":1},"C":{"a":2,"b":8},"D":{"a":8,"b":2}},"conditions":["nonSeqFull","nonSeqPartial","seqNoFeedback","seqFeedback"],"classroomPairings":[["A","B"],["C","D"]],"coinWeights":[0.2,0.5,0.8],"subjectId":"A358YR7MWC6LRH","assignmentId":"3ZAK8W07I50RUDTRWMI2EZDH4R8U0Q","hitId":"3J94SKDEKIB2MY6CGVTNWB9X0ALD5P","url":"https://gershmanlab.com/experiments/alicia/teaching/experiment/?hitId=3J94SKDEKIB2MY6CGVTNWB9X0ALD5P&workerId=A358YR7MWC6LRH&assignmentId=3ZAK8W07I50RUDTRWMI2EZDH4R8U0Q&a=78AZ9&tp_a=78AZ9&b=3ZAK8W07I50RUDTRWMI2EZDH4R8U0Q&tp_b=3ZAK8W07I50RUDTRWMI2EZDH4R8U0Q&c=365799&tp_c=365799","firstResponseHeads":2,"firstResponseTails":8,"secondResponseHeads":1,"secondResponseTails":9,"totalHeads":3,"totalTails":17,"studentIndex":2,"studentTrueHypers":{"a":4,"b":1},"studentGuess":0.28,"delta":0.08000000000000002,"bonus":0,"bonusSoFar":0,"totalExamples":20},{"rt":12072,"response":{"heads":"4","tails":"6"},"type":"response","condition":"nonSeqPartial","trueTheta":0.5,"classrooms":["C","D"],"studentTrueClassroom":"D","exampleSet":"first","trial_type":"survey-html-form","trial_index":36,"time_elapsed":769053,"internal_node_id":"0.0-35.0-0.0","params":{"nStudents":24,"maxFlips":30,"completionMinutes":45,"basePay":8,"maxBonus":9,"perTrialBonus":0.5,"perTrialBonusThreshold":0.05,"exampleCost":0.01},"classroomParams":{"A":{"a":1,"b":4},"B":{"a":4,"b":1},"C":{"a":2,"b":8},"D":{"a":8,"b":2}},"conditions":["nonSeqFull","nonSeqPartial","seqNoFeedback","seqFeedback"],"classroomPairings":[["A","B"],["C","D"]],"coinWeights":[0.2,0.5,0.8],"subjectId":"A358YR7MWC6LRH","assignmentId":"3ZAK8W07I50RUDTRWMI2EZDH4R8U0Q","hitId":"3J94SKDEKIB2MY6CGVTNWB9X0ALD5P","url":"https://gershmanlab.com/experiments/alicia/teaching/experiment/?hitId=3J94SKDEKIB2MY6CGVTNWB9X0ALD5P&workerId=A358YR7MWC6LRH&assignmentId=3ZAK8W07I50RUDTRWMI2EZDH4R8U0Q&a=78AZ9&tp_a=78AZ9&b=3ZAK8W07I50RUDTRWMI2EZDH4R8U0Q&tp_b=3ZAK8W07I50RUDTRWMI2EZDH4R8U0Q&c=365799&tp_c=365799","heads":4,"tails":6,"studentIndex":3,"studentTrueHypers":{"a":8,"b":2},"studentGuess":0.6,"delta":0.09999999999999998,"totalExamples":10,"bonus":0,"bonusSoFar":0},{"rt":9024,"response":{"heads":"1","tails":"10"},"type":"response","condition":"seqNoFeedback","trueTheta":0.2,"classrooms":["A","B"],"studentTrueClassroom":"A","exampleSet":"first","trial_type":"survey-html-form","trial_index":42,"time_elapsed":802254,"internal_node_id":"0.0-41.0-0.0","params":{"nStudents":24,"maxFlips":30,"completionMinutes":45,"basePay":8,"maxBonus":9,"perTrialBonus":0.5,"perTrialBonusThreshold":0.05,"exampleCost":0.01},"classroomParams":{"A":{"a":1,"b":4},"B":{"a":4,"b":1},"C":{"a":2,"b":8},"D":{"a":8,"b":2}},"conditions":["nonSeqFull","nonSeqPartial","seqNoFeedback","seqFeedback"],"classroomPairings":[["A","B"],["C","D"]],"coinWeights":[0.2,0.5,0.8],"subjectId":"A358YR7MWC6LRH","assignmentId":"3ZAK8W07I50RUDTRWMI2EZDH4R8U0Q","hitId":"3J94SKDEKIB2MY6CGVTNWB9X0ALD5P","url":"https://gershmanlab.com/experiments/alicia/teaching/experiment/?hitId=3J94SKDEKIB2MY6CGVTNWB9X0ALD5P&workerId=A358YR7MWC6LRH&assignmentId=3ZAK8W07I50RUDTRWMI2EZDH4R8U0Q&a=78AZ9&tp_a=78AZ9&b=3ZAK8W07I50RUDTRWMI2EZDH4R8U0Q&tp_b=3ZAK8W07I50RUDTRWMI2EZDH4R8U0Q&c=365799&tp_c=365799","heads":1,"tails":10,"studentIndex":4,"studentTrueHypers":{"a":1,"b":4},"studentGuess":0.125,"delta":0.07500000000000001,"totalExamples":11,"bonusSoFar":0},{"rt":13963,"response":{"heads":"1","tails":"9"},"type":"response","condition":"seqNoFeedback","trueTheta":0.2,"classrooms":["A","B"],"studentTrueClassroom":"A","exampleSet":"second","trial_type":"survey-html-form","trial_index":45,"time_elapsed":823276,"internal_node_id":"0.0-44.0-0.0","params":{"nStudents":24,"maxFlips":30,"completionMinutes":45,"basePay":8,"maxBonus":9,"perTrialBonus":0.5,"perTrialBonusThreshold":0.05,"exampleCost":0.01},"classroomParams":{"A":{"a":1,"b":4},"B":{"a":4,"b":1},"C":{"a":2,"b":8},"D":{"a":8,"b":2}},"conditions":["nonSeqFull","nonSeqPartial","seqNoFeedback","seqFeedback"],"classroomPairings":[["A","B"],["C","D"]],"coinWeights":[0.2,0.5,0.8],"subjectId":"A358YR7MWC6LRH","assignmentId":"3ZAK8W07I50RUDTRWMI2EZDH4R8U0Q","hitId":"3J94SKDEKIB2MY6CGVTNWB9X0ALD5P","url":"https://gershmanlab.com/experiments/alicia/teaching/experiment/?hitId=3J94SKDEKIB2MY6CGVTNWB9X0ALD5P&workerId=A358YR7MWC6LRH&assignmentId=3ZAK8W07I50RUDTRWMI2EZDH4R8U0Q&a=78AZ9&tp_a=78AZ9&b=3ZAK8W07I50RUDTRWMI2EZDH4R8U0Q&tp_b=3ZAK8W07I50RUDTRWMI2EZDH4R8U0Q&c=365799&tp_c=365799","firstResponseHeads":1,"firstResponseTails":10,"secondResponseHeads":1,"secondResponseTails":9,"totalHeads":2,"totalTails":19,"studentIndex":4,"studentTrueHypers":{"a":1,"b":4},"studentGuess":0.11538461538461539,"delta":0.08461538461538462,"bonus":0,"bonusSoFar":0,"totalExamples":21},{"rt":14168,"response":{"heads":"2","tails":"9"},"type":"response","condition":"seqNoFeedback","trueTheta":0.2,"classrooms":["C","D"],"studentTrueClassroom":"D","exampleSet":"first","trial_type":"survey-html-form","trial_index":51,"time_elapsed":854045,"internal_node_id":"0.0-50.0-0.0","params":{"nStudents":24,"maxFlips":30,"completionMinutes":45,"basePay":8,"maxBonus":9,"perTrialBonus":0.5,"perTrialBonusThreshold":0.05,"exampleCost":0.01},"classroomParams":{"A":{"a":1,"b":4},"B":{"a":4,"b":1},"C":{"a":2,"b":8},"D":{"a":8,"b":2}},"conditions":["nonSeqFull","nonSeqPartial","seqNoFeedback","seqFeedback"],"classroomPairings":[["A","B"],["C","D"]],"coinWeights":[0.2,0.5,0.8],"subjectId":"A358YR7MWC6LRH","assignmentId":"3ZAK8W07I50RUDTRWMI2EZDH4R8U0Q","hitId":"3J94SKDEKIB2MY6CGVTNWB9X0ALD5P","url":"https://gershmanlab.com/experiments/alicia/teaching/experiment/?hitId=3J94SKDEKIB2MY6CGVTNWB9X0ALD5P&workerId=A358YR7MWC6LRH&assignmentId=3ZAK8W07I50RUDTRWMI2EZDH4R8U0Q&a=78AZ9&tp_a=78AZ9&b=3ZAK8W07I50RUDTRWMI2EZDH4R8U0Q&tp_b=3ZAK8W07I50RUDTRWMI2EZDH4R8U0Q&c=365799&tp_c=365799","heads":2,"tails":9,"studentIndex":5,"studentTrueHypers":{"a":8,"b":2},"studentGuess":0.47619047619047616,"delta":0.27619047619047615,"totalExamples":11,"bonusSoFar":0},{"rt":13511,"response":{"heads":"2","tails":"10"},"type":"response","condition":"seqNoFeedback","trueTheta":0.2,"classrooms":["C","D"],"studentTrueClassroom":"D","exampleSet":"second","trial_type":"survey-html-form","trial_index":54,"time_elapsed":874069,"internal_node_id":"0.0-53.0-0.0","params":{"nStudents":24,"maxFlips":30,"completionMinutes":45,"basePay":8,"maxBonus":9,"perTrialBonus":0.5,"perTrialBonusThreshold":0.05,"exampleCost":0.01},"classroomParams":{"A":{"a":1,"b":4},"B":{"a":4,"b":1},"C":{"a":2,"b":8},"D":{"a":8,"b":2}},"conditions":["nonSeqFull","nonSeqPartial","seqNoFeedback","seqFeedback"],"classroomPairings":[["A","B"],["C","D"]],"coinWeights":[0.2,0.5,0.8],"subjectId":"A358YR7MWC6LRH","assignmentId":"3ZAK8W07I50RUDTRWMI2EZDH4R8U0Q","hitId":"3J94SKDEKIB2MY6CGVTNWB9X0ALD5P","url":"https://gershmanlab.com/experiments/alicia/teaching/experiment/?hitId=3J94SKDEKIB2MY6CGVTNWB9X0ALD5P&workerId=A358YR7MWC6LRH&assignmentId=3ZAK8W07I50RUDTRWMI2EZDH4R8U0Q&a=78AZ9&tp_a=78AZ9&b=3ZAK8W07I50RUDTRWMI2EZDH4R8U0Q&tp_b=3ZAK8W07I50RUDTRWMI2EZDH4R8U0Q&c=365799&tp_c=365799","firstResponseHeads":2,"firstResponseTails":9,"secondResponseHeads":2,"secondResponseTails":10,"totalHeads":4,"totalTails":19,"studentIndex":5,"studentTrueHypers":{"a":8,"b":2},"studentGuess":0.36363636363636365,"delta":0.16363636363636364,"bonus":0,"bonusSoFar":0,"totalExamples":23},{"rt":8022,"response":{"heads":"3","tails":"5"},"type":"response","condition":"nonSeqPartial","trueTheta":0.5,"classrooms":["A","B"],"studentTrueClassroom":"B","exampleSet":"first","trial_type":"survey-html-form","trial_index":60,"time_elapsed":896413,"internal_node_id":"0.0-59.0-0.0","params":{"nStudents":24,"maxFlips":30,"completionMinutes":45,"basePay":8,"maxBonus":9,"perTrialBonus":0.5,"perTrialBonusThreshold":0.05,"exampleCost":0.01},"classroomParams":{"A":{"a":1,"b":4},"B":{"a":4,"b":1},"C":{"a":2,"b":8},"D":{"a":8,"b":2}},"conditions":["nonSeqFull","nonSeqPartial","seqNoFeedback","seqFeedback"],"classroomPairings":[["A","B"],["C","D"]],"coinWeights":[0.2,0.5,0.8],"subjectId":"A358YR7MWC6LRH","assignmentId":"3ZAK8W07I50RUDTRWMI2EZDH4R8U0Q","hitId":"3J94SKDEKIB2MY6CGVTNWB9X0ALD5P","url":"https://gershmanlab.com/experiments/alicia/teaching/experiment/?hitId=3J94SKDEKIB2MY6CGVTNWB9X0ALD5P&workerId=A358YR7MWC6LRH&assignmentId=3ZAK8W07I50RUDTRWMI2EZDH4R8U0Q&a=78AZ9&tp_a=78AZ9&b=3ZAK8W07I50RUDTRWMI2EZDH4R8U0Q&tp_b=3ZAK8W07I50RUDTRWMI2EZDH4R8U0Q&c=365799&tp_c=365799","heads":3,"tails":5,"studentIndex":6,"studentTrueHypers":{"a":4,"b":1},"studentGuess":0.5384615384615384,"delta":0.038461538461538436,"totalExamples":8,"bonus":0.42,"bonusSoFar":0.42},{"rt":7391,"response":{"heads":"6","tails":"3"},"type":"response","condition":"nonSeqPartial","trueTheta":0.8,"classrooms":["C","D"],"studentTrueClassroom":"D","exampleSet":"first","trial_type":"survey-html-form","trial_index":66,"time_elapsed":920749,"internal_node_id":"0.0-65.0-0.0","params":{"nStudents":24,"maxFlips":30,"completionMinutes":45,"basePay":8,"maxBonus":9,"perTrialBonus":0.5,"perTrialBonusThreshold":0.05,"exampleCost":0.01},"classroomParams":{"A":{"a":1,"b":4},"B":{"a":4,"b":1},"C":{"a":2,"b":8},"D":{"a":8,"b":2}},"conditions":["nonSeqFull","nonSeqPartial","seqNoFeedback","seqFeedback"],"classroomPairings":[["A","B"],["C","D"]],"coinWeights":[0.2,0.5,0.8],"subjectId":"A358YR7MWC6LRH","assignmentId":"3ZAK8W07I50RUDTRWMI2EZDH4R8U0Q","hitId":"3J94SKDEKIB2MY6CGVTNWB9X0ALD5P","url":"https://gershmanlab.com/experiments/alicia/teaching/experiment/?hitId=3J94SKDEKIB2MY6CGVTNWB9X0ALD5P&workerId=A358YR7MWC6LRH&assignmentId=3ZAK8W07I50RUDTRWMI2EZDH4R8U0Q&a=78AZ9&tp_a=78AZ9&b=3ZAK8W07I50RUDTRWMI2EZDH4R8U0Q&tp_b=3ZAK8W07I50RUDTRWMI2EZDH4R8U0Q&c=365799&tp_c=365799","heads":6,"tails":3,"studentIndex":7,"studentTrueHypers":{"a":8,"b":2},"studentGuess":0.7368421052631579,"delta":0.06315789473684219,"totalExamples":9,"bonus":0,"bonusSoFar":0.42},{"rt":13478,"response":{"heads":"1","tails":"7"},"type":"response","condition":"nonSeqPartial","trueTheta":0.2,"classrooms":["C","D"],"studentTrueClassroom":"C","exampleSet":"first","trial_type":"survey-html-form","trial_index":72,"time_elapsed":1009909,"internal_node_id":"0.0-71.0-0.0","params":{"nStudents":24,"maxFlips":30,"completionMinutes":45,"basePay":8,"maxBonus":9,"perTrialBonus":0.5,"perTrialBonusThreshold":0.05,"exampleCost":0.01},"classroomParams":{"A":{"a":1,"b":4},"B":{"a":4,"b":1},"C":{"a":2,"b":8},"D":{"a":8,"b":2}},"conditions":["nonSeqFull","nonSeqPartial","seqNoFeedback","seqFeedback"],"classroomPairings":[["A","B"],["C","D"]],"coinWeights":[0.2,0.5,0.8],"subjectId":"A358YR7MWC6LRH","assignmentId":"3ZAK8W07I50RUDTRWMI2EZDH4R8U0Q","hitId":"3J94SKDEKIB2MY6CGVTNWB9X0ALD5P","url":"https://gershmanlab.com/experiments/alicia/teaching/experiment/?hitId=3J94SKDEKIB2MY6CGVTNWB9X0ALD5P&workerId=A358YR7MWC6LRH&assignmentId=3ZAK8W07I50RUDTRWMI2EZDH4R8U0Q&a=78AZ9&tp_a=78AZ9&b=3ZAK8W07I50RUDTRWMI2EZDH4R8U0Q&tp_b=3ZAK8W07I50RUDTRWMI2EZDH4R8U0Q&c=365799&tp_c=365799","heads":1,"tails":7,"studentIndex":8,"studentTrueHypers":{"a":2,"b":8},"studentGuess":0.16666666666666666,"delta":0.033333333333333354,"totalExamples":8,"bonus":0.42,"bonusSoFar":0.84},{"rt":8398,"response":{"heads":"5","tails":"1"},"type":"response","condition":"seqFeedback","trueTheta":0.8,"classrooms":["A","B"],"studentTrueClassroom":"B","exampleSet":"first","trial_type":"survey-html-form","trial_index":78,"time_elapsed":1035829,"internal_node_id":"0.0-77.0-0.0","params":{"nStudents":24,"maxFlips":30,"completionMinutes":45,"basePay":8,"maxBonus":9,"perTrialBonus":0.5,"perTrialBonusThreshold":0.05,"exampleCost":0.01},"classroomParams":{"A":{"a":1,"b":4},"B":{"a":4,"b":1},"C":{"a":2,"b":8},"D":{"a":8,"b":2}},"conditions":["nonSeqFull","nonSeqPartial","seqNoFeedback","seqFeedback"],"classroomPairings":[["A","B"],["C","D"]],"coinWeights":[0.2,0.5,0.8],"subjectId":"A358YR7MWC6LRH","assignmentId":"3ZAK8W07I50RUDTRWMI2EZDH4R8U0Q","hitId":"3J94SKDEKIB2MY6CGVTNWB9X0ALD5P","url":"https://gershmanlab.com/experiments/alicia/teaching/experiment/?hitId=3J94SKDEKIB2MY6CGVTNWB9X0ALD5P&workerId=A358YR7MWC6LRH&assignmentId=3ZAK8W07I50RUDTRWMI2EZDH4R8U0Q&a=78AZ9&tp_a=78AZ9&b=3ZAK8W07I50RUDTRWMI2EZDH4R8U0Q&tp_b=3ZAK8W07I50RUDTRWMI2EZDH4R8U0Q&c=365799&tp_c=365799","heads":5,"tails":1,"studentIndex":9,"studentTrueHypers":{"a":4,"b":1},"studentGuess":0.8181818181818182,"delta":0.018181818181818188,"totalExamples":6,"bonusSoFar":0.84},{"rt":13930,"response":{"heads":"5","tails":"1"},"type":"response","condition":"seqFeedback","trueTheta":0.8,"classrooms":["A","B"],"studentTrueClassroom":"B","exampleSet":"second","trial_type":"survey-html-form","trial_index":82,"time_elapsed":1061636,"internal_node_id":"0.0-81.0-0.0","params":{"nStudents":24,"maxFlips":30,"completionMinutes":45,"basePay":8,"maxBonus":9,"perTrialBonus":0.5,"perTrialBonusThreshold":0.05,"exampleCost":0.01},"classroomParams":{"A":{"a":1,"b":4},"B":{"a":4,"b":1},"C":{"a":2,"b":8},"D":{"a":8,"b":2}},"conditions":["nonSeqFull","nonSeqPartial","seqNoFeedback","seqFeedback"],"classroomPairings":[["A","B"],["C","D"]],"coinWeights":[0.2,0.5,0.8],"subjectId":"A358YR7MWC6LRH","assignmentId":"3ZAK8W07I50RUDTRWMI2EZDH4R8U0Q","hitId":"3J94SKDEKIB2MY6CGVTNWB9X0ALD5P","url":"https://gershmanlab.com/experiments/alicia/teaching/experiment/?hitId=3J94SKDEKIB2MY6CGVTNWB9X0ALD5P&workerId=A358YR7MWC6LRH&assignmentId=3ZAK8W07I50RUDTRWMI2EZDH4R8U0Q&a=78AZ9&tp_a=78AZ9&b=3ZAK8W07I50RUDTRWMI2EZDH4R8U0Q&tp_b=3ZAK8W07I50RUDTRWMI2EZDH4R8U0Q&c=365799&tp_c=365799","firstResponseHeads":5,"firstResponseTails":1,"secondResponseHeads":5,"secondResponseTails":1,"totalHeads":10,"totalTails":2,"studentIndex":9,"studentTrueHypers":{"a":4,"b":1},"studentGuess":0.8235294117647058,"delta":0.0235294117647058,"bonus":0.38,"bonusSoFar":1.22,"totalExamples":12},{"rt":9975,"response":{"heads":"4","tails":"1"},"type":"response","condition":"seqNoFeedback","trueTheta":0.8,"classrooms":["C","D"],"studentTrueClassroom":"D","exampleSet":"first","trial_type":"survey-html-form","trial_index":88,"time_elapsed":1094766,"internal_node_id":"0.0-87.0-0.0","params":{"nStudents":24,"maxFlips":30,"completionMinutes":45,"basePay":8,"maxBonus":9,"perTrialBonus":0.5,"perTrialBonusThreshold":0.05,"exampleCost":0.01},"classroomParams":{"A":{"a":1,"b":4},"B":{"a":4,"b":1},"C":{"a":2,"b":8},"D":{"a":8,"b":2}},"conditions":["nonSeqFull","nonSeqPartial","seqNoFeedback","seqFeedback"],"classroomPairings":[["A","B"],["C","D"]],"coinWeights":[0.2,0.5,0.8],"subjectId":"A358YR7MWC6LRH","assignmentId":"3ZAK8W07I50RUDTRWMI2EZDH4R8U0Q","hitId":"3J94SKDEKIB2MY6CGVTNWB9X0ALD5P","url":"https://gershmanlab.com/experiments/alicia/teaching/experiment/?hitId=3J94SKDEKIB2MY6CGVTNWB9X0ALD5P&workerId=A358YR7MWC6LRH&assignmentId=3ZAK8W07I50RUDTRWMI2EZDH4R8U0Q&a=78AZ9&tp_a=78AZ9&b=3ZAK8W07I50RUDTRWMI2EZDH4R8U0Q&tp_b=3ZAK8W07I50RUDTRWMI2EZDH4R8U0Q&c=365799&tp_c=365799","heads":4,"tails":1,"studentIndex":10,"studentTrueHypers":{"a":8,"b":2},"studentGuess":0.8,"delta":0,"totalExamples":5,"bonusSoFar":1.22},{"rt":17501,"response":{"heads":"5","tails":"1"},"type":"response","condition":"seqNoFeedback","trueTheta":0.8,"classrooms":["C","D"],"studentTrueClassroom":"D","exampleSet":"second","trial_type":"survey-html-form","trial_index":91,"time_elapsed":1117525,"internal_node_id":"0.0-90.0-0.0","params":{"nStudents":24,"maxFlips":30,"completionMinutes":45,"basePay":8,"maxBonus":9,"perTrialBonus":0.5,"perTrialBonusThreshold":0.05,"exampleCost":0.01},"classroomParams":{"A":{"a":1,"b":4},"B":{"a":4,"b":1},"C":{"a":2,"b":8},"D":{"a":8,"b":2}},"conditions":["nonSeqFull","nonSeqPartial","seqNoFeedback","seqFeedback"],"classroomPairings":[["A","B"],["C","D"]],"coinWeights":[0.2,0.5,0.8],"subjectId":"A358YR7MWC6LRH","assignmentId":"3ZAK8W07I50RUDTRWMI2EZDH4R8U0Q","hitId":"3J94SKDEKIB2MY6CGVTNWB9X0ALD5P","url":"https://gershmanlab.com/experiments/alicia/teaching/experiment/?hitId=3J94SKDEKIB2MY6CGVTNWB9X0ALD5P&workerId=A358YR7MWC6LRH&assignmentId=3ZAK8W07I50RUDTRWMI2EZDH4R8U0Q&a=78AZ9&tp_a=78AZ9&b=3ZAK8W07I50RUDTRWMI2EZDH4R8U0Q&tp_b=3ZAK8W07I50RUDTRWMI2EZDH4R8U0Q&c=365799&tp_c=365799","firstResponseHeads":4,"firstResponseTails":1,"secondResponseHeads":5,"secondResponseTails":1,"totalHeads":9,"totalTails":2,"studentIndex":10,"studentTrueHypers":{"a":8,"b":2},"studentGuess":0.8095238095238095,"delta":0.00952380952380949,"bonus":0.39,"bonusSoFar":1.61,"totalExamples":11},{"rt":14958,"response":{"heads":"15","tails":"1"},"type":"response","condition":"nonSeqFull","trueTheta":0.8,"classrooms":["C","D"],"studentTrueClassroom":"C","exampleSet":"first","trial_type":"survey-html-form","trial_index":97,"time_elapsed":1147670,"internal_node_id":"0.0-96.0-0.0","params":{"nStudents":24,"maxFlips":30,"completionMinutes":45,"basePay":8,"maxBonus":9,"perTrialBonus":0.5,"perTrialBonusThreshold":0.05,"exampleCost":0.01},"classroomParams":{"A":{"a":1,"b":4},"B":{"a":4,"b":1},"C":{"a":2,"b":8},"D":{"a":8,"b":2}},"conditions":["nonSeqFull","nonSeqPartial","seqNoFeedback","seqFeedback"],"classroomPairings":[["A","B"],["C","D"]],"coinWeights":[0.2,0.5,0.8],"subjectId":"A358YR7MWC6LRH","assignmentId":"3ZAK8W07I50RUDTRWMI2EZDH4R8U0Q","hitId":"3J94SKDEKIB2MY6CGVTNWB9X0ALD5P","url":"https://gershmanlab.com/experiments/alicia/teaching/experiment/?hitId=3J94SKDEKIB2MY6CGVTNWB9X0ALD5P&workerId=A358YR7MWC6LRH&assignmentId=3ZAK8W07I50RUDTRWMI2EZDH4R8U0Q&a=78AZ9&tp_a=78AZ9&b=3ZAK8W07I50RUDTRWMI2EZDH4R8U0Q&tp_b=3ZAK8W07I50RUDTRWMI2EZDH4R8U0Q&c=365799&tp_c=365799","heads":15,"tails":1,"studentIndex":11,"studentTrueHypers":{"a":2,"b":8},"studentGuess":0.6538461538461539,"delta":0.1461538461538462,"totalExamples":16,"bonus":0,"bonusSoFar":1.61},{"rt":11209,"response":{"heads":"4","tails":"1"},"type":"response","condition":"nonSeqPartial","trueTheta":0.2,"classrooms":["A","B"],"studentTrueClassroom":"B","exampleSet":"first","trial_type":"survey-html-form","trial_index":103,"time_elapsed":1173573,"internal_node_id":"0.0-102.0-0.0","params":{"nStudents":24,"maxFlips":30,"completionMinutes":45,"basePay":8,"maxBonus":9,"perTrialBonus":0.5,"perTrialBonusThreshold":0.05,"exampleCost":0.01},"classroomParams":{"A":{"a":1,"b":4},"B":{"a":4,"b":1},"C":{"a":2,"b":8},"D":{"a":8,"b":2}},"conditions":["nonSeqFull","nonSeqPartial","seqNoFeedback","seqFeedback"],"classroomPairings":[["A","B"],["C","D"]],"coinWeights":[0.2,0.5,0.8],"subjectId":"A358YR7MWC6LRH","assignmentId":"3ZAK8W07I50RUDTRWMI2EZDH4R8U0Q","hitId":"3J94SKDEKIB2MY6CGVTNWB9X0ALD5P","url":"https://gershmanlab.com/experiments/alicia/teaching/experiment/?hitId=3J94SKDEKIB2MY6CGVTNWB9X0ALD5P&workerId=A358YR7MWC6LRH&assignmentId=3ZAK8W07I50RUDTRWMI2EZDH4R8U0Q&a=78AZ9&tp_a=78AZ9&b=3ZAK8W07I50RUDTRWMI2EZDH4R8U0Q&tp_b=3ZAK8W07I50RUDTRWMI2EZDH4R8U0Q&c=365799&tp_c=365799","heads":4,"tails":1,"studentIndex":12,"studentTrueHypers":{"a":4,"b":1},"studentGuess":0.8,"delta":0.6000000000000001,"totalExamples":5,"bonus":0,"bonusSoFar":1.61},{"rt":4530,"response":{"heads":"2","tails":"2"},"type":"response","condition":"nonSeqFull","trueTheta":0.5,"classrooms":["C","D"],"studentTrueClassroom":"C","exampleSet":"first","trial_type":"survey-html-form","trial_index":109,"time_elapsed":1193160,"internal_node_id":"0.0-108.0-0.0","params":{"nStudents":24,"maxFlips":30,"completionMinutes":45,"basePay":8,"maxBonus":9,"perTrialBonus":0.5,"perTrialBonusThreshold":0.05,"exampleCost":0.01},"classroomParams":{"A":{"a":1,"b":4},"B":{"a":4,"b":1},"C":{"a":2,"b":8},"D":{"a":8,"b":2}},"conditions":["nonSeqFull","nonSeqPartial","seqNoFeedback","seqFeedback"],"classroomPairings":[["A","B"],["C","D"]],"coinWeights":[0.2,0.5,0.8],"subjectId":"A358YR7MWC6LRH","assignmentId":"3ZAK8W07I50RUDTRWMI2EZDH4R8U0Q","hitId":"3J94SKDEKIB2MY6CGVTNWB9X0ALD5P","url":"https://gershmanlab.com/experiments/alicia/teaching/experiment/?hitId=3J94SKDEKIB2MY6CGVTNWB9X0ALD5P&workerId=A358YR7MWC6LRH&assignmentId=3ZAK8W07I50RUDTRWMI2EZDH4R8U0Q&a=78AZ9&tp_a=78AZ9&b=3ZAK8W07I50RUDTRWMI2EZDH4R8U0Q&tp_b=3ZAK8W07I50RUDTRWMI2EZDH4R8U0Q&c=365799&tp_c=365799","heads":2,"tails":2,"studentIndex":13,"studentTrueHypers":{"a":2,"b":8},"studentGuess":0.2857142857142857,"delta":0.2142857142857143,"totalExamples":4,"bonus":0,"bonusSoFar":1.61},{"rt":3566,"response":{"heads":"2","tails":"2"},"type":"response","condition":"seqFeedback","trueTheta":0.5,"classrooms":["A","B"],"studentTrueClassroom":"B","exampleSet":"first","trial_type":"survey-html-form","trial_index":115,"time_elapsed":1210740,"internal_node_id":"0.0-114.0-0.0","params":{"nStudents":24,"maxFlips":30,"completionMinutes":45,"basePay":8,"maxBonus":9,"perTrialBonus":0.5,"perTrialBonusThreshold":0.05,"exampleCost":0.01},"classroomParams":{"A":{"a":1,"b":4},"B":{"a":4,"b":1},"C":{"a":2,"b":8},"D":{"a":8,"b":2}},"conditions":["nonSeqFull","nonSeqPartial","seqNoFeedback","seqFeedback"],"classroomPairings":[["A","B"],["C","D"]],"coinWeights":[0.2,0.5,0.8],"subjectId":"A358YR7MWC6LRH","assignmentId":"3ZAK8W07I50RUDTRWMI2EZDH4R8U0Q","hitId":"3J94SKDEKIB2MY6CGVTNWB9X0ALD5P","url":"https://gershmanlab.com/experiments/alicia/teaching/experiment/?hitId=3J94SKDEKIB2MY6CGVTNWB9X0ALD5P&workerId=A358YR7MWC6LRH&assignmentId=3ZAK8W07I50RUDTRWMI2EZDH4R8U0Q&a=78AZ9&tp_a=78AZ9&b=3ZAK8W07I50RUDTRWMI2EZDH4R8U0Q&tp_b=3ZAK8W07I50RUDTRWMI2EZDH4R8U0Q&c=365799&tp_c=365799","heads":2,"tails":2,"studentIndex":14,"studentTrueHypers":{"a":4,"b":1},"studentGuess":0.6666666666666666,"delta":0.16666666666666663,"totalExamples":4,"bonusSoFar":1.61},{"rt":8357,"response":{"heads":"1","tails":"3"},"type":"response","condition":"seqFeedback","trueTheta":0.5,"classrooms":["A","B"],"studentTrueClassroom":"B","exampleSet":"second","trial_type":"survey-html-form","trial_index":119,"time_elapsed":1229429,"internal_node_id":"0.0-118.0-0.0","params":{"nStudents":24,"maxFlips":30,"completionMinutes":45,"basePay":8,"maxBonus":9,"perTrialBonus":0.5,"perTrialBonusThreshold":0.05,"exampleCost":0.01},"classroomParams":{"A":{"a":1,"b":4},"B":{"a":4,"b":1},"C":{"a":2,"b":8},"D":{"a":8,"b":2}},"conditions":["nonSeqFull","nonSeqPartial","seqNoFeedback","seqFeedback"],"classroomPairings":[["A","B"],["C","D"]],"coinWeights":[0.2,0.5,0.8],"subjectId":"A358YR7MWC6LRH","assignmentId":"3ZAK8W07I50RUDTRWMI2EZDH4R8U0Q","hitId":"3J94SKDEKIB2MY6CGVTNWB9X0ALD5P","url":"https://gershmanlab.com/experiments/alicia/teaching/experiment/?hitId=3J94SKDEKIB2MY6CGVTNWB9X0ALD5P&workerId=A358YR7MWC6LRH&assignmentId=3ZAK8W07I50RUDTRWMI2EZDH4R8U0Q&a=78AZ9&tp_a=78AZ9&b=3ZAK8W07I50RUDTRWMI2EZDH4R8U0Q&tp_b=3ZAK8W07I50RUDTRWMI2EZDH4R8U0Q&c=365799&tp_c=365799","firstResponseHeads":2,"firstResponseTails":2,"secondResponseHeads":1,"secondResponseTails":3,"totalHeads":3,"totalTails":5,"studentIndex":14,"studentTrueHypers":{"a":4,"b":1},"studentGuess":0.5384615384615384,"delta":0.038461538461538436,"bonus":0.42,"bonusSoFar":2.03,"totalExamples":8},{"rt":13815,"response":{"heads":"1","tails":"10"},"type":"response","condition":"nonSeqFull","trueTheta":0.2,"classrooms":["C","D"],"studentTrueClassroom":"D","exampleSet":"first","trial_type":"survey-html-form","trial_index":125,"time_elapsed":1261004,"internal_node_id":"0.0-124.0-0.0","params":{"nStudents":24,"maxFlips":30,"completionMinutes":45,"basePay":8,"maxBonus":9,"perTrialBonus":0.5,"perTrialBonusThreshold":0.05,"exampleCost":0.01},"classroomParams":{"A":{"a":1,"b":4},"B":{"a":4,"b":1},"C":{"a":2,"b":8},"D":{"a":8,"b":2}},"conditions":["nonSeqFull","nonSeqPartial","seqNoFeedback","seqFeedback"],"classroomPairings":[["A","B"],["C","D"]],"coinWeights":[0.2,0.5,0.8],"subjectId":"A358YR7MWC6LRH","assignmentId":"3ZAK8W07I50RUDTRWMI2EZDH4R8U0Q","hitId":"3J94SKDEKIB2MY6CGVTNWB9X0ALD5P","url":"https://gershmanlab.com/experiments/alicia/teaching/experiment/?hitId=3J94SKDEKIB2MY6CGVTNWB9X0ALD5P&workerId=A358YR7MWC6LRH&assignmentId=3ZAK8W07I50RUDTRWMI2EZDH4R8U0Q&a=78AZ9&tp_a=78AZ9&b=3ZAK8W07I50RUDTRWMI2EZDH4R8U0Q&tp_b=3ZAK8W07I50RUDTRWMI2EZDH4R8U0Q&c=365799&tp_c=365799","heads":1,"tails":10,"studentIndex":15,"studentTrueHypers":{"a":8,"b":2},"studentGuess":0.42857142857142855,"delta":0.22857142857142854,"totalExamples":11,"bonus":0,"bonusSoFar":2.03},{"rt":22871,"response":{"heads":"4","tails":"1"},"type":"response","condition":"nonSeqFull","trueTheta":0.5,"classrooms":["A","B"],"studentTrueClassroom":"A","exampleSet":"first","trial_type":"survey-html-form","trial_index":131,"time_elapsed":1299541,"internal_node_id":"0.0-130.0-0.0","params":{"nStudents":24,"maxFlips":30,"completionMinutes":45,"basePay":8,"maxBonus":9,"perTrialBonus":0.5,"perTrialBonusThreshold":0.05,"exampleCost":0.01},"classroomParams":{"A":{"a":1,"b":4},"B":{"a":4,"b":1},"C":{"a":2,"b":8},"D":{"a":8,"b":2}},"conditions":["nonSeqFull","nonSeqPartial","seqNoFeedback","seqFeedback"],"classroomPairings":[["A","B"],["C","D"]],"coinWeights":[0.2,0.5,0.8],"subjectId":"A358YR7MWC6LRH","assignmentId":"3ZAK8W07I50RUDTRWMI2EZDH4R8U0Q","hitId":"3J94SKDEKIB2MY6CGVTNWB9X0ALD5P","url":"https://gershmanlab.com/experiments/alicia/teaching/experiment/?hitId=3J94SKDEKIB2MY6CGVTNWB9X0ALD5P&workerId=A358YR7MWC6LRH&assignmentId=3ZAK8W07I50RUDTRWMI2EZDH4R8U0Q&a=78AZ9&tp_a=78AZ9&b=3ZAK8W07I50RUDTRWMI2EZDH4R8U0Q&tp_b=3ZAK8W07I50RUDTRWMI2EZDH4R8U0Q&c=365799&tp_c=365799","heads":4,"tails":1,"studentIndex":16,"studentTrueHypers":{"a":1,"b":4},"studentGuess":0.5,"delta":0,"totalExamples":5,"bonus":0.45,"bonusSoFar":2.48},{"rt":23199,"response":{"heads":"6","tails":"1"},"type":"response","condition":"nonSeqFull","trueTheta":0.8,"classrooms":["A","B"],"studentTrueClassroom":"B","exampleSet":"first","trial_type":"survey-html-form","trial_index":137,"time_elapsed":1335007,"internal_node_id":"0.0-136.0-0.0","params":{"nStudents":24,"maxFlips":30,"completionMinutes":45,"basePay":8,"maxBonus":9,"perTrialBonus":0.5,"perTrialBonusThreshold":0.05,"exampleCost":0.01},"classroomParams":{"A":{"a":1,"b":4},"B":{"a":4,"b":1},"C":{"a":2,"b":8},"D":{"a":8,"b":2}},"conditions":["nonSeqFull","nonSeqPartial","seqNoFeedback","seqFeedback"],"classroomPairings":[["A","B"],["C","D"]],"coinWeights":[0.2,0.5,0.8],"subjectId":"A358YR7MWC6LRH","assignmentId":"3ZAK8W07I50RUDTRWMI2EZDH4R8U0Q","hitId":"3J94SKDEKIB2MY6CGVTNWB9X0ALD5P","url":"https://gershmanlab.com/experiments/alicia/teaching/experiment/?hitId=3J94SKDEKIB2MY6CGVTNWB9X0ALD5P&workerId=A358YR7MWC6LRH&assignmentId=3ZAK8W07I50RUDTRWMI2EZDH4R8U0Q&a=78AZ9&tp_a=78AZ9&b=3ZAK8W07I50RUDTRWMI2EZDH4R8U0Q&tp_b=3ZAK8W07I50RUDTRWMI2EZDH4R8U0Q&c=365799&tp_c=365799","heads":6,"tails":1,"studentIndex":17,"studentTrueHypers":{"a":4,"b":1},"studentGuess":0.8333333333333334,"delta":0.033333333333333326,"totalExamples":7,"bonus":0.43,"bonusSoFar":2.91},{"rt":30207,"response":{"heads":"0","tails":"8"},"type":"response","condition":"nonSeqFull","trueTheta":0.2,"classrooms":["A","B"],"studentTrueClassroom":"B","exampleSet":"first","trial_type":"survey-html-form","trial_index":143,"time_elapsed":1378286,"internal_node_id":"0.0-142.0-0.0","params":{"nStudents":24,"maxFlips":30,"completionMinutes":45,"basePay":8,"maxBonus":9,"perTrialBonus":0.5,"perTrialBonusThreshold":0.05,"exampleCost":0.01},"classroomParams":{"A":{"a":1,"b":4},"B":{"a":4,"b":1},"C":{"a":2,"b":8},"D":{"a":8,"b":2}},"conditions":["nonSeqFull","nonSeqPartial","seqNoFeedback","seqFeedback"],"classroomPairings":[["A","B"],["C","D"]],"coinWeights":[0.2,0.5,0.8],"subjectId":"A358YR7MWC6LRH","assignmentId":"3ZAK8W07I50RUDTRWMI2EZDH4R8U0Q","hitId":"3J94SKDEKIB2MY6CGVTNWB9X0ALD5P","url":"https://gershmanlab.com/experiments/alicia/teaching/experiment/?hitId=3J94SKDEKIB2MY6CGVTNWB9X0ALD5P&workerId=A358YR7MWC6LRH&assignmentId=3ZAK8W07I50RUDTRWMI2EZDH4R8U0Q&a=78AZ9&tp_a=78AZ9&b=3ZAK8W07I50RUDTRWMI2EZDH4R8U0Q&tp_b=3ZAK8W07I50RUDTRWMI2EZDH4R8U0Q&c=365799&tp_c=365799","heads":0,"tails":8,"studentIndex":18,"studentTrueHypers":{"a":4,"b":1},"studentGuess":0.3076923076923077,"delta":0.1076923076923077,"totalExamples":8,"bonus":0,"bonusSoFar":2.91},{"rt":10495,"response":{"heads":"7","tails":"1"},"type":"response","condition":"seqNoFeedback","trueTheta":0.8,"classrooms":["A","B"],"studentTrueClassroom":"B","exampleSet":"first","trial_type":"survey-html-form","trial_index":149,"time_elapsed":1406245,"internal_node_id":"0.0-148.0-0.0","params":{"nStudents":24,"maxFlips":30,"completionMinutes":45,"basePay":8,"maxBonus":9,"perTrialBonus":0.5,"perTrialBonusThreshold":0.05,"exampleCost":0.01},"classroomParams":{"A":{"a":1,"b":4},"B":{"a":4,"b":1},"C":{"a":2,"b":8},"D":{"a":8,"b":2}},"conditions":["nonSeqFull","nonSeqPartial","seqNoFeedback","seqFeedback"],"classroomPairings":[["A","B"],["C","D"]],"coinWeights":[0.2,0.5,0.8],"subjectId":"A358YR7MWC6LRH","assignmentId":"3ZAK8W07I50RUDTRWMI2EZDH4R8U0Q","hitId":"3J94SKDEKIB2MY6CGVTNWB9X0ALD5P","url":"https://gershmanlab.com/experiments/alicia/teaching/experiment/?hitId=3J94SKDEKIB2MY6CGVTNWB9X0ALD5P&workerId=A358YR7MWC6LRH&assignmentId=3ZAK8W07I50RUDTRWMI2EZDH4R8U0Q&a=78AZ9&tp_a=78AZ9&b=3ZAK8W07I50RUDTRWMI2EZDH4R8U0Q&tp_b=3ZAK8W07I50RUDTRWMI2EZDH4R8U0Q&c=365799&tp_c=365799","heads":7,"tails":1,"studentIndex":19,"studentTrueHypers":{"a":4,"b":1},"studentGuess":0.8461538461538461,"delta":0.0461538461538461,"totalExamples":8,"bonusSoFar":2.91},{"rt":13471,"response":{"heads":"5","tails":"1"},"type":"response","condition":"seqNoFeedback","trueTheta":0.8,"classrooms":["A","B"],"studentTrueClassroom":"B","exampleSet":"second","trial_type":"survey-html-form","trial_index":152,"time_elapsed":1424988,"internal_node_id":"0.0-151.0-0.0","params":{"nStudents":24,"maxFlips":30,"completionMinutes":45,"basePay":8,"maxBonus":9,"perTrialBonus":0.5,"perTrialBonusThreshold":0.05,"exampleCost":0.01},"classroomParams":{"A":{"a":1,"b":4},"B":{"a":4,"b":1},"C":{"a":2,"b":8},"D":{"a":8,"b":2}},"conditions":["nonSeqFull","nonSeqPartial","seqNoFeedback","seqFeedback"],"classroomPairings":[["A","B"],["C","D"]],"coinWeights":[0.2,0.5,0.8],"subjectId":"A358YR7MWC6LRH","assignmentId":"3ZAK8W07I50RUDTRWMI2EZDH4R8U0Q","hitId":"3J94SKDEKIB2MY6CGVTNWB9X0ALD5P","url":"https://gershmanlab.com/experiments/alicia/teaching/experiment/?hitId=3J94SKDEKIB2MY6CGVTNWB9X0ALD5P&workerId=A358YR7MWC6LRH&assignmentId=3ZAK8W07I50RUDTRWMI2EZDH4R8U0Q&a=78AZ9&tp_a=78AZ9&b=3ZAK8W07I50RUDTRWMI2EZDH4R8U0Q&tp_b=3ZAK8W07I50RUDTRWMI2EZDH4R8U0Q&c=365799&tp_c=365799","firstResponseHeads":7,"firstResponseTails":1,"secondResponseHeads":5,"secondResponseTails":1,"totalHeads":12,"totalTails":2,"studentIndex":19,"studentTrueHypers":{"a":4,"b":1},"studentGuess":0.8421052631578947,"delta":0.042105263157894646,"bonus":0.36,"bonusSoFar":3.27,"totalExamples":14},{"rt":8039,"response":{"heads":"1","tails":"1"},"type":"response","condition":"seqNoFeedback","trueTheta":0.5,"classrooms":["A","B"],"studentTrueClassroom":"A","exampleSet":"first","trial_type":"survey-html-form","trial_index":158,"time_elapsed":1451004,"internal_node_id":"0.0-157.0-0.0","params":{"nStudents":24,"maxFlips":30,"completionMinutes":45,"basePay":8,"maxBonus":9,"perTrialBonus":0.5,"perTrialBonusThreshold":0.05,"exampleCost":0.01},"classroomParams":{"A":{"a":1,"b":4},"B":{"a":4,"b":1},"C":{"a":2,"b":8},"D":{"a":8,"b":2}},"conditions":["nonSeqFull","nonSeqPartial","seqNoFeedback","seqFeedback"],"classroomPairings":[["A","B"],["C","D"]],"coinWeights":[0.2,0.5,0.8],"subjectId":"A358YR7MWC6LRH","assignmentId":"3ZAK8W07I50RUDTRWMI2EZDH4R8U0Q","hitId":"3J94SKDEKIB2MY6CGVTNWB9X0ALD5P","url":"https://gershmanlab.com/experiments/alicia/teaching/experiment/?hitId=3J94SKDEKIB2MY6CGVTNWB9X0ALD5P&workerId=A358YR7MWC6LRH&assignmentId=3ZAK8W07I50RUDTRWMI2EZDH4R8U0Q&a=78AZ9&tp_a=78AZ9&b=3ZAK8W07I50RUDTRWMI2EZDH4R8U0Q&tp_b=3ZAK8W07I50RUDTRWMI2EZDH4R8U0Q&c=365799&tp_c=365799","heads":1,"tails":1,"studentIndex":20,"studentTrueHypers":{"a":1,"b":4},"studentGuess":0.2857142857142857,"delta":0.2142857142857143,"totalExamples":2,"bonusSoFar":3.27},{"rt":4436,"response":{"heads":"1","tails":"1"},"type":"response","condition":"seqNoFeedback","trueTheta":0.5,"classrooms":["A","B"],"studentTrueClassroom":"A","exampleSet":"second","trial_type":"survey-html-form","trial_index":161,"time_elapsed":1462196,"internal_node_id":"0.0-160.0-0.0","params":{"nStudents":24,"maxFlips":30,"completionMinutes":45,"basePay":8,"maxBonus":9,"perTrialBonus":0.5,"perTrialBonusThreshold":0.05,"exampleCost":0.01},"classroomParams":{"A":{"a":1,"b":4},"B":{"a":4,"b":1},"C":{"a":2,"b":8},"D":{"a":8,"b":2}},"conditions":["nonSeqFull","nonSeqPartial","seqNoFeedback","seqFeedback"],"classroomPairings":[["A","B"],["C","D"]],"coinWeights":[0.2,0.5,0.8],"subjectId":"A358YR7MWC6LRH","assignmentId":"3ZAK8W07I50RUDTRWMI2EZDH4R8U0Q","hitId":"3J94SKDEKIB2MY6CGVTNWB9X0ALD5P","url":"https://gershmanlab.com/experiments/alicia/teaching/experiment/?hitId=3J94SKDEKIB2MY6CGVTNWB9X0ALD5P&workerId=A358YR7MWC6LRH&assignmentId=3ZAK8W07I50RUDTRWMI2EZDH4R8U0Q&a=78AZ9&tp_a=78AZ9&b=3ZAK8W07I50RUDTRWMI2EZDH4R8U0Q&tp_b=3ZAK8W07I50RUDTRWMI2EZDH4R8U0Q&c=365799&tp_c=365799","firstResponseHeads":1,"firstResponseTails":1,"secondResponseHeads":1,"secondResponseTails":1,"totalHeads":2,"totalTails":2,"studentIndex":20,"studentTrueHypers":{"a":1,"b":4},"studentGuess":0.3333333333333333,"delta":0.16666666666666669,"bonus":0,"bonusSoFar":3.27,"totalExamples":4},{"rt":5733,"response":{"heads":"6","tails":"0"},"type":"response","condition":"nonSeqPartial","trueTheta":0.8,"classrooms":["A","B"],"studentTrueClassroom":"B","exampleSet":"first","trial_type":"survey-html-form","trial_index":167,"time_elapsed":1481204,"internal_node_id":"0.0-166.0-0.0","params":{"nStudents":24,"maxFlips":30,"completionMinutes":45,"basePay":8,"maxBonus":9,"perTrialBonus":0.5,"perTrialBonusThreshold":0.05,"exampleCost":0.01},"classroomParams":{"A":{"a":1,"b":4},"B":{"a":4,"b":1},"C":{"a":2,"b":8},"D":{"a":8,"b":2}},"conditions":["nonSeqFull","nonSeqPartial","seqNoFeedback","seqFeedback"],"classroomPairings":[["A","B"],["C","D"]],"coinWeights":[0.2,0.5,0.8],"subjectId":"A358YR7MWC6LRH","assignmentId":"3ZAK8W07I50RUDTRWMI2EZDH4R8U0Q","hitId":"3J94SKDEKIB2MY6CGVTNWB9X0ALD5P","url":"https://gershmanlab.com/experiments/alicia/teaching/experiment/?hitId=3J94SKDEKIB2MY6CGVTNWB9X0ALD5P&workerId=A358YR7MWC6LRH&assignmentId=3ZAK8W07I50RUDTRWMI2EZDH4R8U0Q&a=78AZ9&tp_a=78AZ9&b=3ZAK8W07I50RUDTRWMI2EZDH4R8U0Q&tp_b=3ZAK8W07I50RUDTRWMI2EZDH4R8U0Q&c=365799&tp_c=365799","heads":6,"tails":0,"studentIndex":21,"studentTrueHypers":{"a":4,"b":1},"studentGuess":0.9090909090909091,"delta":0.10909090909090902,"totalExamples":6,"bonus":0,"bonusSoFar":3.27},{"rt":8319,"response":{"heads":"5","tails":"0"},"type":"response","condition":"seqFeedback","trueTheta":0.8,"classrooms":["C","D"],"studentTrueClassroom":"C","exampleSet":"first","trial_type":"survey-html-form","trial_index":173,"time_elapsed":1504068,"internal_node_id":"0.0-172.0-0.0","params":{"nStudents":24,"maxFlips":30,"completionMinutes":45,"basePay":8,"maxBonus":9,"perTrialBonus":0.5,"perTrialBonusThreshold":0.05,"exampleCost":0.01},"classroomParams":{"A":{"a":1,"b":4},"B":{"a":4,"b":1},"C":{"a":2,"b":8},"D":{"a":8,"b":2}},"conditions":["nonSeqFull","nonSeqPartial","seqNoFeedback","seqFeedback"],"classroomPairings":[["A","B"],["C","D"]],"coinWeights":[0.2,0.5,0.8],"subjectId":"A358YR7MWC6LRH","assignmentId":"3ZAK8W07I50RUDTRWMI2EZDH4R8U0Q","hitId":"3J94SKDEKIB2MY6CGVTNWB9X0ALD5P","url":"https://gershmanlab.com/experiments/alicia/teaching/experiment/?hitId=3J94SKDEKIB2MY6CGVTNWB9X0ALD5P&workerId=A358YR7MWC6LRH&assignmentId=3ZAK8W07I50RUDTRWMI2EZDH4R8U0Q&a=78AZ9&tp_a=78AZ9&b=3ZAK8W07I50RUDTRWMI2EZDH4R8U0Q&tp_b=3ZAK8W07I50RUDTRWMI2EZDH4R8U0Q&c=365799&tp_c=365799","heads":5,"tails":0,"studentIndex":22,"studentTrueHypers":{"a":2,"b":8},"studentGuess":0.4666666666666667,"delta":0.33333333333333337,"totalExamples":5,"bonusSoFar":3.27},{"rt":9650,"response":{"heads":"10","tails":"1"},"type":"response","condition":"seqFeedback","trueTheta":0.8,"classrooms":["C","D"],"studentTrueClassroom":"C","exampleSet":"second","trial_type":"survey-html-form","trial_index":177,"time_elapsed":1525644,"internal_node_id":"0.0-176.0-0.0","params":{"nStudents":24,"maxFlips":30,"completionMinutes":45,"basePay":8,"maxBonus":9,"perTrialBonus":0.5,"perTrialBonusThreshold":0.05,"exampleCost":0.01},"classroomParams":{"A":{"a":1,"b":4},"B":{"a":4,"b":1},"C":{"a":2,"b":8},"D":{"a":8,"b":2}},"conditions":["nonSeqFull","nonSeqPartial","seqNoFeedback","seqFeedback"],"classroomPairings":[["A","B"],["C","D"]],"coinWeights":[0.2,0.5,0.8],"subjectId":"A358YR7MWC6LRH","assignmentId":"3ZAK8W07I50RUDTRWMI2EZDH4R8U0Q","hitId":"3J94SKDEKIB2MY6CGVTNWB9X0ALD5P","url":"https://gershmanlab.com/experiments/alicia/teaching/experiment/?hitId=3J94SKDEKIB2MY6CGVTNWB9X0ALD5P&workerId=A358YR7MWC6LRH&assignmentId=3ZAK8W07I50RUDTRWMI2EZDH4R8U0Q&a=78AZ9&tp_a=78AZ9&b=3ZAK8W07I50RUDTRWMI2EZDH4R8U0Q&tp_b=3ZAK8W07I50RUDTRWMI2EZDH4R8U0Q&c=365799&tp_c=365799","firstResponseHeads":5,"firstResponseTails":0,"secondResponseHeads":10,"secondResponseTails":1,"totalHeads":15,"totalTails":1,"studentIndex":22,"studentTrueHypers":{"a":2,"b":8},"studentGuess":0.6538461538461539,"delta":0.1461538461538462,"bonus":0,"bonusSoFar":3.27,"totalExamples":16},{"rt":9174,"response":{"heads":"1","tails":"1"},"type":"response","condition":"seqFeedback","trueTheta":0.5,"classrooms":["C","D"],"studentTrueClassroom":"D","exampleSet":"first","trial_type":"survey-html-form","trial_index":183,"time_elapsed":1548405,"internal_node_id":"0.0-182.0-0.0","params":{"nStudents":24,"maxFlips":30,"completionMinutes":45,"basePay":8,"maxBonus":9,"perTrialBonus":0.5,"perTrialBonusThreshold":0.05,"exampleCost":0.01},"classroomParams":{"A":{"a":1,"b":4},"B":{"a":4,"b":1},"C":{"a":2,"b":8},"D":{"a":8,"b":2}},"conditions":["nonSeqFull","nonSeqPartial","seqNoFeedback","seqFeedback"],"classroomPairings":[["A","B"],["C","D"]],"coinWeights":[0.2,0.5,0.8],"subjectId":"A358YR7MWC6LRH","assignmentId":"3ZAK8W07I50RUDTRWMI2EZDH4R8U0Q","hitId":"3J94SKDEKIB2MY6CGVTNWB9X0ALD5P","url":"https://gershmanlab.com/experiments/alicia/teaching/experiment/?hitId=3J94SKDEKIB2MY6CGVTNWB9X0ALD5P&workerId=A358YR7MWC6LRH&assignmentId=3ZAK8W07I50RUDTRWMI2EZDH4R8U0Q&a=78AZ9&tp_a=78AZ9&b=3ZAK8W07I50RUDTRWMI2EZDH4R8U0Q&tp_b=3ZAK8W07I50RUDTRWMI2EZDH4R8U0Q&c=365799&tp_c=365799","heads":1,"tails":1,"studentIndex":23,"studentTrueHypers":{"a":8,"b":2},"studentGuess":0.75,"delta":0.25,"totalExamples":2,"bonusSoFar":3.27},{"rt":10875,"response":{"heads":"0","tails":"8"},"type":"response","condition":"seqFeedback","trueTheta":0.5,"classrooms":["C","D"],"studentTrueClassroom":"D","exampleSet":"second","trial_type":"survey-html-form","trial_index":187,"time_elapsed":1571228,"internal_node_id":"0.0-186.0-0.0","params":{"nStudents":24,"maxFlips":30,"completionMinutes":45,"basePay":8,"maxBonus":9,"perTrialBonus":0.5,"perTrialBonusThreshold":0.05,"exampleCost":0.01},"classroomParams":{"A":{"a":1,"b":4},"B":{"a":4,"b":1},"C":{"a":2,"b":8},"D":{"a":8,"b":2}},"conditions":["nonSeqFull","nonSeqPartial","seqNoFeedback","seqFeedback"],"classroomPairings":[["A","B"],["C","D"]],"coinWeights":[0.2,0.5,0.8],"subjectId":"A358YR7MWC6LRH","assignmentId":"3ZAK8W07I50RUDTRWMI2EZDH4R8U0Q","hitId":"3J94SKDEKIB2MY6CGVTNWB9X0ALD5P","url":"https://gershmanlab.com/experiments/alicia/teaching/experiment/?hitId=3J94SKDEKIB2MY6CGVTNWB9X0ALD5P&workerId=A358YR7MWC6LRH&assignmentId=3ZAK8W07I50RUDTRWMI2EZDH4R8U0Q&a=78AZ9&tp_a=78AZ9&b=3ZAK8W07I50RUDTRWMI2EZDH4R8U0Q&tp_b=3ZAK8W07I50RUDTRWMI2EZDH4R8U0Q&c=365799&tp_c=365799","firstResponseHeads":1,"firstResponseTails":1,"secondResponseHeads":0,"secondResponseTails":8,"totalHeads":1,"totalTails":9,"studentIndex":23,"studentTrueHypers":{"a":8,"b":2},"studentGuess":0.45,"delta":0.04999999999999999,"bonus":0.4,"bonusSoFar":3.67,"totalExamples":10},{"rt":7716,"response":{"gender":"male","age":"34","understood":"yes","comments":""},"type":"response","trial_type":"survey-html-form","trial_index":191,"time_elapsed":1589205,"internal_node_id":"0.0-191.0","params":{"nStudents":24,"maxFlips":30,"completionMinutes":45,"basePay":8,"maxBonus":9,"perTrialBonus":0.5,"perTrialBonusThreshold":0.05,"exampleCost":0.01},"classroomParams":{"A":{"a":1,"b":4},"B":{"a":4,"b":1},"C":{"a":2,"b":8},"D":{"a":8,"b":2}},"conditions":["nonSeqFull","nonSeqPartial","seqNoFeedback","seqFeedback"],"classroomPairings":[["A","B"],["C","D"]],"coinWeights":[0.2,0.5,0.8],"subjectId":"A358YR7MWC6LRH","assignmentId":"3ZAK8W07I50RUDTRWMI2EZDH4R8U0Q","hitId":"3J94SKDEKIB2MY6CGVTNWB9X0ALD5P","url":"https://gershmanlab.com/experiments/alicia/teaching/experiment/?hitId=3J94SKDEKIB2MY6CGVTNWB9X0ALD5P&workerId=A358YR7MWC6LRH&assignmentId=3ZAK8W07I50RUDTRWMI2EZDH4R8U0Q&a=78AZ9&tp_a=78AZ9&b=3ZAK8W07I50RUDTRWMI2EZDH4R8U0Q&tp_b=3ZAK8W07I50RUDTRWMI2EZDH4R8U0Q&c=365799&tp_c=365799","totalBonus":3.67}]