[{"rt":13076,"response":{"heads":"8","tails":"2"},"type":"response","condition":"nonSeqFull","trueTheta":0.8,"classrooms":["A","B"],"studentTrueClassroom":"A","exampleSet":"first","trial_type":"survey-html-form","trial_index":13,"time_elapsed":365159,"internal_node_id":"0.0-6.0-0.0","params":{"nStudents":24,"maxFlips":30,"completionMinutes":45,"basePay":8,"maxBonus":9,"perTrialBonus":0.5,"perTrialBonusThreshold":0.05,"exampleCost":0.01},"classroomParams":{"A":{"a":1,"b":4},"B":{"a":4,"b":1},"C":{"a":2,"b":8},"D":{"a":8,"b":2}},"conditions":["nonSeqFull","nonSeqPartial","seqNoFeedback","seqFeedback"],"classroomPairings":[["A","B"],["C","D"]],"coinWeights":[0.2,0.5,0.8],"subjectId":"A35O3H71CM4LVZ","assignmentId":"3E7TUJ2EGD8N956IANB6XAAMLV7D9B","hitId":"3E9VAUV7BW02QFDK7N7IH7ZKACRYAN","url":"https://gershmanlab.com/experiments/alicia/teaching/experiment/?hitId=3E9VAUV7BW02QFDK7N7IH7ZKACRYAN&workerId=A35O3H71CM4LVZ&assignmentId=3E7TUJ2EGD8N956IANB6XAAMLV7D9B&a=EU7E9&tp_a=EU7E9&b=3E7TUJ2EGD8N956IANB6XAAMLV7D9B&tp_b=3E7TUJ2EGD8N956IANB6XAAMLV7D9B&c=365799&tp_c=365799","heads":8,"tails":2,"studentIndex":0,"studentTrueHypers":{"a":1,"b":4},"studentGuess":0.6,"delta":0.20000000000000007,"totalExamples":10,"bonus":0,"bonusSoFar":0},{"rt":8815,"response":{"heads":"2","tails":"8"},"type":"response","condition":"nonSeqFull","trueTheta":0.2,"classrooms":["C","D"],"studentTrueClassroom":"C","exampleSet":"first","trial_type":"survey-html-form","trial_index":19,"time_elapsed":392297,"internal_node_id":"0.0-12.0-0.0","params":{"nStudents":24,"maxFlips":30,"completionMinutes":45,"basePay":8,"maxBonus":9,"perTrialBonus":0.5,"perTrialBonusThreshold":0.05,"exampleCost":0.01},"classroomParams":{"A":{"a":1,"b":4},"B":{"a":4,"b":1},"C":{"a":2,"b":8},"D":{"a":8,"b":2}},"conditions":["nonSeqFull","nonSeqPartial","seqNoFeedback","seqFeedback"],"classroomPairings":[["A","B"],["C","D"]],"coinWeights":[0.2,0.5,0.8],"subjectId":"A35O3H71CM4LVZ","assignmentId":"3E7TUJ2EGD8N956IANB6XAAMLV7D9B","hitId":"3E9VAUV7BW02QFDK7N7IH7ZKACRYAN","url":"https://gershmanlab.com/experiments/alicia/teaching/experiment/?hitId=3E9VAUV7BW02QFDK7N7IH7ZKACRYAN&workerId=A35O3H71CM4LVZ&assignmentId=3E7TUJ2EGD8N956IANB6XAAMLV7D9B&a=EU7E9&tp_a=EU7E9&b=3E7TUJ2EGD8N956IANB6XAAMLV7D9B&tp_b=3E7TUJ2EGD8N956IANB6XAAMLV7D9B&c=365799&tp_c=365799","heads":2,"tails":8,"studentIndex":1,"studentTrueHypers":{"a":2,"b":8},"studentGuess":0.2,"delta":0,"totalExamples":10,"bonus":0.4,"bonusSoFar":0.4},{"rt":16670,"response":{"heads":"15","tails":"15"},"type":"response","condition":"nonSeqPartial","trueTheta":0.5,"classrooms":["C","D"],"studentTrueClassroom":"C","exampleSet":"first","trial_type":"survey-html-form","trial_index":25,"time_elapsed":419656,"internal_node_id":"0.0-18.0-0.0","params":{"nStudents":24,"maxFlips":30,"completionMinutes":45,"basePay":8,"maxBonus":9,"perTrialBonus":0.5,"perTrialBonusThreshold":0.05,"exampleCost":0.01},"classroomParams":{"A":{"a":1,"b":4},"B":{"a":4,"b":1},"C":{"a":2,"b":8},"D":{"a":8,"b":2}},"conditions":["nonSeqFull","nonSeqPartial","seqNoFeedback","seqFeedback"],"classroomPairings":[["A","B"],["C","D"]],"coinWeights":[0.2,0.5,0.8],"subjectId":"A35O3H71CM4LVZ","assignmentId":"3E7TUJ2EGD8N956IANB6XAAMLV7D9B","hitId":"3E9VAUV7BW02QFDK7N7IH7ZKACRYAN","url":"https://gershmanlab.com/experiments/alicia/teaching/experiment/?hitId=3E9VAUV7BW02QFDK7N7IH7ZKACRYAN&workerId=A35O3H71CM4LVZ&assignmentId=3E7TUJ2EGD8N956IANB6XAAMLV7D9B&a=EU7E9&tp_a=EU7E9&b=3E7TUJ2EGD8N956IANB6XAAMLV7D9B&tp_b=3E7TUJ2EGD8N956IANB6XAAMLV7D9B&c=365799&tp_c=365799","heads":15,"tails":15,"studentIndex":2,"studentTrueHypers":{"a":2,"b":8},"studentGuess":0.425,"delta":0.07500000000000001,"totalExamples":30,"bonus":0,"bonusSoFar":0.4},{"rt":6038,"response":{"heads":"8","tails":"2"},"type":"response","condition":"seqNoFeedback","trueTheta":0.8,"classrooms":["C","D"],"studentTrueClassroom":"C","exampleSet":"first","trial_type":"survey-html-form","trial_index":31,"time_elapsed":437712,"internal_node_id":"0.0-24.0-0.0","params":{"nStudents":24,"maxFlips":30,"completionMinutes":45,"basePay":8,"maxBonus":9,"perTrialBonus":0.5,"perTrialBonusThreshold":0.05,"exampleCost":0.01},"classroomParams":{"A":{"a":1,"b":4},"B":{"a":4,"b":1},"C":{"a":2,"b":8},"D":{"a":8,"b":2}},"conditions":["nonSeqFull","nonSeqPartial","seqNoFeedback","seqFeedback"],"classroomPairings":[["A","B"],["C","D"]],"coinWeights":[0.2,0.5,0.8],"subjectId":"A35O3H71CM4LVZ","assignmentId":"3E7TUJ2EGD8N956IANB6XAAMLV7D9B","hitId":"3E9VAUV7BW02QFDK7N7IH7ZKACRYAN","url":"https://gershmanlab.com/experiments/alicia/teaching/experiment/?hitId=3E9VAUV7BW02QFDK7N7IH7ZKACRYAN&workerId=A35O3H71CM4LVZ&assignmentId=3E7TUJ2EGD8N956IANB6XAAMLV7D9B&a=EU7E9&tp_a=EU7E9&b=3E7TUJ2EGD8N956IANB6XAAMLV7D9B&tp_b=3E7TUJ2EGD8N956IANB6XAAMLV7D9B&c=365799&tp_c=365799","heads":8,"tails":2,"studentIndex":3,"studentTrueHypers":{"a":2,"b":8},"studentGuess":0.5,"delta":0.30000000000000004,"totalExamples":10,"bonusSoFar":0.4},{"rt":7941,"response":{"heads":"8","tails":"2"},"type":"response","condition":"seqNoFeedback","trueTheta":0.8,"classrooms":["C","D"],"studentTrueClassroom":"C","exampleSet":"second","trial_type":"survey-html-form","trial_index":34,"time_elapsed":451912,"internal_node_id":"0.0-27.0-0.0","params":{"nStudents":24,"maxFlips":30,"completionMinutes":45,"basePay":8,"maxBonus":9,"perTrialBonus":0.5,"perTrialBonusThreshold":0.05,"exampleCost":0.01},"classroomParams":{"A":{"a":1,"b":4},"B":{"a":4,"b":1},"C":{"a":2,"b":8},"D":{"a":8,"b":2}},"conditions":["nonSeqFull","nonSeqPartial","seqNoFeedback","seqFeedback"],"classroomPairings":[["A","B"],["C","D"]],"coinWeights":[0.2,0.5,0.8],"subjectId":"A35O3H71CM4LVZ","assignmentId":"3E7TUJ2EGD8N956IANB6XAAMLV7D9B","hitId":"3E9VAUV7BW02QFDK7N7IH7ZKACRYAN","url":"https://gershmanlab.com/experiments/alicia/teaching/experiment/?hitId=3E9VAUV7BW02QFDK7N7IH7ZKACRYAN&workerId=A35O3H71CM4LVZ&assignmentId=3E7TUJ2EGD8N956IANB6XAAMLV7D9B&a=EU7E9&tp_a=EU7E9&b=3E7TUJ2EGD8N956IANB6XAAMLV7D9B&tp_b=3E7TUJ2EGD8N956IANB6XAAMLV7D9B&c=365799&tp_c=365799","firstResponseHeads":8,"firstResponseTails":2,"secondResponseHeads":8,"secondResponseTails":2,"totalHeads":16,"totalTails":4,"studentIndex":3,"studentTrueHypers":{"a":2,"b":8},"studentGuess":0.6,"delta":0.20000000000000007,"bonus":0,"bonusSoFar":0.4,"totalExamples":20},{"rt":7870,"response":{"heads":"5","tails":"5"},"type":"response","condition":"nonSeqFull","trueTheta":0.5,"classrooms":["C","D"],"studentTrueClassroom":"D","exampleSet":"first","trial_type":"survey-html-form","trial_index":40,"time_elapsed":470255,"internal_node_id":"0.0-33.0-0.0","params":{"nStudents":24,"maxFlips":30,"completionMinutes":45,"basePay":8,"maxBonus":9,"perTrialBonus":0.5,"perTrialBonusThreshold":0.05,"exampleCost":0.01},"classroomParams":{"A":{"a":1,"b":4},"B":{"a":4,"b":1},"C":{"a":2,"b":8},"D":{"a":8,"b":2}},"conditions":["nonSeqFull","nonSeqPartial","seqNoFeedback","seqFeedback"],"classroomPairings":[["A","B"],["C","D"]],"coinWeights":[0.2,0.5,0.8],"subjectId":"A35O3H71CM4LVZ","assignmentId":"3E7TUJ2EGD8N956IANB6XAAMLV7D9B","hitId":"3E9VAUV7BW02QFDK7N7IH7ZKACRYAN","url":"https://gershmanlab.com/experiments/alicia/teaching/experiment/?hitId=3E9VAUV7BW02QFDK7N7IH7ZKACRYAN&workerId=A35O3H71CM4LVZ&assignmentId=3E7TUJ2EGD8N956IANB6XAAMLV7D9B&a=EU7E9&tp_a=EU7E9&b=3E7TUJ2EGD8N956IANB6XAAMLV7D9B&tp_b=3E7TUJ2EGD8N956IANB6XAAMLV7D9B&c=365799&tp_c=365799","heads":5,"tails":5,"studentIndex":4,"studentTrueHypers":{"a":8,"b":2},"studentGuess":0.65,"delta":0.15000000000000002,"totalExamples":10,"bonus":0,"bonusSoFar":0.4},{"rt":5654,"response":{"heads":"8","tails":"2"},"type":"response","condition":"seqNoFeedback","trueTheta":0.8,"classrooms":["A","B"],"studentTrueClassroom":"B","exampleSet":"first","trial_type":"survey-html-form","trial_index":46,"time_elapsed":487334,"internal_node_id":"0.0-39.0-0.0","params":{"nStudents":24,"maxFlips":30,"completionMinutes":45,"basePay":8,"maxBonus":9,"perTrialBonus":0.5,"perTrialBonusThreshold":0.05,"exampleCost":0.01},"classroomParams":{"A":{"a":1,"b":4},"B":{"a":4,"b":1},"C":{"a":2,"b":8},"D":{"a":8,"b":2}},"conditions":["nonSeqFull","nonSeqPartial","seqNoFeedback","seqFeedback"],"classroomPairings":[["A","B"],["C","D"]],"coinWeights":[0.2,0.5,0.8],"subjectId":"A35O3H71CM4LVZ","assignmentId":"3E7TUJ2EGD8N956IANB6XAAMLV7D9B","hitId":"3E9VAUV7BW02QFDK7N7IH7ZKACRYAN","url":"https://gershmanlab.com/experiments/alicia/teaching/experiment/?hitId=3E9VAUV7BW02QFDK7N7IH7ZKACRYAN&workerId=A35O3H71CM4LVZ&assignmentId=3E7TUJ2EGD8N956IANB6XAAMLV7D9B&a=EU7E9&tp_a=EU7E9&b=3E7TUJ2EGD8N956IANB6XAAMLV7D9B&tp_b=3E7TUJ2EGD8N956IANB6XAAMLV7D9B&c=365799&tp_c=365799","heads":8,"tails":2,"studentIndex":5,"studentTrueHypers":{"a":4,"b":1},"studentGuess":0.8,"delta":0,"totalExamples":10,"bonusSoFar":0.4},{"rt":5582,"response":{"heads":"8","tails":"2"},"type":"response","condition":"seqNoFeedback","trueTheta":0.8,"classrooms":["A","B"],"studentTrueClassroom":"B","exampleSet":"second","trial_type":"survey-html-form","trial_index":49,"time_elapsed":498176,"internal_node_id":"0.0-42.0-0.0","params":{"nStudents":24,"maxFlips":30,"completionMinutes":45,"basePay":8,"maxBonus":9,"perTrialBonus":0.5,"perTrialBonusThreshold":0.05,"exampleCost":0.01},"classroomParams":{"A":{"a":1,"b":4},"B":{"a":4,"b":1},"C":{"a":2,"b":8},"D":{"a":8,"b":2}},"conditions":["nonSeqFull","nonSeqPartial","seqNoFeedback","seqFeedback"],"classroomPairings":[["A","B"],["C","D"]],"coinWeights":[0.2,0.5,0.8],"subjectId":"A35O3H71CM4LVZ","assignmentId":"3E7TUJ2EGD8N956IANB6XAAMLV7D9B","hitId":"3E9VAUV7BW02QFDK7N7IH7ZKACRYAN","url":"https://gershmanlab.com/experiments/alicia/teaching/experiment/?hitId=3E9VAUV7BW02QFDK7N7IH7ZKACRYAN&workerId=A35O3H71CM4LVZ&assignmentId=3E7TUJ2EGD8N956IANB6XAAMLV7D9B&a=EU7E9&tp_a=EU7E9&b=3E7TUJ2EGD8N956IANB6XAAMLV7D9B&tp_b=3E7TUJ2EGD8N956IANB6XAAMLV7D9B&c=365799&tp_c=365799","firstResponseHeads":8,"firstResponseTails":2,"secondResponseHeads":8,"secondResponseTails":2,"totalHeads":16,"totalTails":4,"studentIndex":5,"studentTrueHypers":{"a":4,"b":1},"studentGuess":0.8,"delta":0,"bonus":0.3,"bonusSoFar":0.7,"totalExamples":20},{"rt":7206,"response":{"heads":"10","tails":"10"},"type":"response","condition":"nonSeqPartial","trueTheta":0.5,"classrooms":["A","B"],"studentTrueClassroom":"A","exampleSet":"first","trial_type":"survey-html-form","trial_index":55,"time_elapsed":516544,"internal_node_id":"0.0-48.0-0.0","params":{"nStudents":24,"maxFlips":30,"completionMinutes":45,"basePay":8,"maxBonus":9,"perTrialBonus":0.5,"perTrialBonusThreshold":0.05,"exampleCost":0.01},"classroomParams":{"A":{"a":1,"b":4},"B":{"a":4,"b":1},"C":{"a":2,"b":8},"D":{"a":8,"b":2}},"conditions":["nonSeqFull","nonSeqPartial","seqNoFeedback","seqFeedback"],"classroomPairings":[["A","B"],["C","D"]],"coinWeights":[0.2,0.5,0.8],"subjectId":"A35O3H71CM4LVZ","assignmentId":"3E7TUJ2EGD8N956IANB6XAAMLV7D9B","hitId":"3E9VAUV7BW02QFDK7N7IH7ZKACRYAN","url":"https://gershmanlab.com/experiments/alicia/teaching/experiment/?hitId=3E9VAUV7BW02QFDK7N7IH7ZKACRYAN&workerId=A35O3H71CM4LVZ&assignmentId=3E7TUJ2EGD8N956IANB6XAAMLV7D9B&a=EU7E9&tp_a=EU7E9&b=3E7TUJ2EGD8N956IANB6XAAMLV7D9B&tp_b=3E7TUJ2EGD8N956IANB6XAAMLV7D9B&c=365799&tp_c=365799","heads":10,"tails":10,"studentIndex":6,"studentTrueHypers":{"a":1,"b":4},"studentGuess":0.44,"delta":0.06,"totalExamples":20,"bonus":0,"bonusSoFar":0.7},{"rt":4839,"response":{"heads":"8","tails":"2"},"type":"response","condition":"nonSeqPartial","trueTheta":0.8,"classrooms":["A","B"],"studentTrueClassroom":"B","exampleSet":"first","trial_type":"survey-html-form","trial_index":61,"time_elapsed":532831,"internal_node_id":"0.0-54.0-0.0","params":{"nStudents":24,"maxFlips":30,"completionMinutes":45,"basePay":8,"maxBonus":9,"perTrialBonus":0.5,"perTrialBonusThreshold":0.05,"exampleCost":0.01},"classroomParams":{"A":{"a":1,"b":4},"B":{"a":4,"b":1},"C":{"a":2,"b":8},"D":{"a":8,"b":2}},"conditions":["nonSeqFull","nonSeqPartial","seqNoFeedback","seqFeedback"],"classroomPairings":[["A","B"],["C","D"]],"coinWeights":[0.2,0.5,0.8],"subjectId":"A35O3H71CM4LVZ","assignmentId":"3E7TUJ2EGD8N956IANB6XAAMLV7D9B","hitId":"3E9VAUV7BW02QFDK7N7IH7ZKACRYAN","url":"https://gershmanlab.com/experiments/alicia/teaching/experiment/?hitId=3E9VAUV7BW02QFDK7N7IH7ZKACRYAN&workerId=A35O3H71CM4LVZ&assignmentId=3E7TUJ2EGD8N956IANB6XAAMLV7D9B&a=EU7E9&tp_a=EU7E9&b=3E7TUJ2EGD8N956IANB6XAAMLV7D9B&tp_b=3E7TUJ2EGD8N956IANB6XAAMLV7D9B&c=365799&tp_c=365799","heads":8,"tails":2,"studentIndex":7,"studentTrueHypers":{"a":4,"b":1},"studentGuess":0.8,"delta":0,"totalExamples":10,"bonus":0.4,"bonusSoFar":1.1},{"rt":5351,"response":{"heads":"8","tails":"2"},"type":"response","condition":"nonSeqPartial","trueTheta":0.8,"classrooms":["C","D"],"studentTrueClassroom":"D","exampleSet":"first","trial_type":"survey-html-form","trial_index":67,"time_elapsed":550783,"internal_node_id":"0.0-60.0-0.0","params":{"nStudents":24,"maxFlips":30,"completionMinutes":45,"basePay":8,"maxBonus":9,"perTrialBonus":0.5,"perTrialBonusThreshold":0.05,"exampleCost":0.01},"classroomParams":{"A":{"a":1,"b":4},"B":{"a":4,"b":1},"C":{"a":2,"b":8},"D":{"a":8,"b":2}},"conditions":["nonSeqFull","nonSeqPartial","seqNoFeedback","seqFeedback"],"classroomPairings":[["A","B"],["C","D"]],"coinWeights":[0.2,0.5,0.8],"subjectId":"A35O3H71CM4LVZ","assignmentId":"3E7TUJ2EGD8N956IANB6XAAMLV7D9B","hitId":"3E9VAUV7BW02QFDK7N7IH7ZKACRYAN","url":"https://gershmanlab.com/experiments/alicia/teaching/experiment/?hitId=3E9VAUV7BW02QFDK7N7IH7ZKACRYAN&workerId=A35O3H71CM4LVZ&assignmentId=3E7TUJ2EGD8N956IANB6XAAMLV7D9B&a=EU7E9&tp_a=EU7E9&b=3E7TUJ2EGD8N956IANB6XAAMLV7D9B&tp_b=3E7TUJ2EGD8N956IANB6XAAMLV7D9B&c=365799&tp_c=365799","heads":8,"tails":2,"studentIndex":8,"studentTrueHypers":{"a":8,"b":2},"studentGuess":0.8,"delta":0,"totalExamples":10,"bonus":0.4,"bonusSoFar":1.5},{"rt":4518,"response":{"heads":"2","tails":"8"},"type":"response","condition":"nonSeqPartial","trueTheta":0.2,"classrooms":["C","D"],"studentTrueClassroom":"D","exampleSet":"first","trial_type":"survey-html-form","trial_index":73,"time_elapsed":565502,"internal_node_id":"0.0-66.0-0.0","params":{"nStudents":24,"maxFlips":30,"completionMinutes":45,"basePay":8,"maxBonus":9,"perTrialBonus":0.5,"perTrialBonusThreshold":0.05,"exampleCost":0.01},"classroomParams":{"A":{"a":1,"b":4},"B":{"a":4,"b":1},"C":{"a":2,"b":8},"D":{"a":8,"b":2}},"conditions":["nonSeqFull","nonSeqPartial","seqNoFeedback","seqFeedback"],"classroomPairings":[["A","B"],["C","D"]],"coinWeights":[0.2,0.5,0.8],"subjectId":"A35O3H71CM4LVZ","assignmentId":"3E7TUJ2EGD8N956IANB6XAAMLV7D9B","hitId":"3E9VAUV7BW02QFDK7N7IH7ZKACRYAN","url":"https://gershmanlab.com/experiments/alicia/teaching/experiment/?hitId=3E9VAUV7BW02QFDK7N7IH7ZKACRYAN&workerId=A35O3H71CM4LVZ&assignmentId=3E7TUJ2EGD8N956IANB6XAAMLV7D9B&a=EU7E9&tp_a=EU7E9&b=3E7TUJ2EGD8N956IANB6XAAMLV7D9B&tp_b=3E7TUJ2EGD8N956IANB6XAAMLV7D9B&c=365799&tp_c=365799","heads":2,"tails":8,"studentIndex":9,"studentTrueHypers":{"a":8,"b":2},"studentGuess":0.5,"delta":0.3,"totalExamples":10,"bonus":0,"bonusSoFar":1.5},{"rt":5270,"response":{"heads":"2","tails":"8"},"type":"response","condition":"seqNoFeedback","trueTheta":0.2,"classrooms":["C","D"],"studentTrueClassroom":"C","exampleSet":"first","trial_type":"survey-html-form","trial_index":79,"time_elapsed":581510,"internal_node_id":"0.0-72.0-0.0","params":{"nStudents":24,"maxFlips":30,"completionMinutes":45,"basePay":8,"maxBonus":9,"perTrialBonus":0.5,"perTrialBonusThreshold":0.05,"exampleCost":0.01},"classroomParams":{"A":{"a":1,"b":4},"B":{"a":4,"b":1},"C":{"a":2,"b":8},"D":{"a":8,"b":2}},"conditions":["nonSeqFull","nonSeqPartial","seqNoFeedback","seqFeedback"],"classroomPairings":[["A","B"],["C","D"]],"coinWeights":[0.2,0.5,0.8],"subjectId":"A35O3H71CM4LVZ","assignmentId":"3E7TUJ2EGD8N956IANB6XAAMLV7D9B","hitId":"3E9VAUV7BW02QFDK7N7IH7ZKACRYAN","url":"https://gershmanlab.com/experiments/alicia/teaching/experiment/?hitId=3E9VAUV7BW02QFDK7N7IH7ZKACRYAN&workerId=A35O3H71CM4LVZ&assignmentId=3E7TUJ2EGD8N956IANB6XAAMLV7D9B&a=EU7E9&tp_a=EU7E9&b=3E7TUJ2EGD8N956IANB6XAAMLV7D9B&tp_b=3E7TUJ2EGD8N956IANB6XAAMLV7D9B&c=365799&tp_c=365799","heads":2,"tails":8,"studentIndex":10,"studentTrueHypers":{"a":2,"b":8},"studentGuess":0.2,"delta":0,"totalExamples":10,"bonusSoFar":1.5},{"rt":8030,"response":{"heads":"2","tails":"8"},"type":"response","condition":"seqNoFeedback","trueTheta":0.2,"classrooms":["C","D"],"studentTrueClassroom":"C","exampleSet":"second","trial_type":"survey-html-form","trial_index":82,"time_elapsed":597302,"internal_node_id":"0.0-75.0-0.0","params":{"nStudents":24,"maxFlips":30,"completionMinutes":45,"basePay":8,"maxBonus":9,"perTrialBonus":0.5,"perTrialBonusThreshold":0.05,"exampleCost":0.01},"classroomParams":{"A":{"a":1,"b":4},"B":{"a":4,"b":1},"C":{"a":2,"b":8},"D":{"a":8,"b":2}},"conditions":["nonSeqFull","nonSeqPartial","seqNoFeedback","seqFeedback"],"classroomPairings":[["A","B"],["C","D"]],"coinWeights":[0.2,0.5,0.8],"subjectId":"A35O3H71CM4LVZ","assignmentId":"3E7TUJ2EGD8N956IANB6XAAMLV7D9B","hitId":"3E9VAUV7BW02QFDK7N7IH7ZKACRYAN","url":"https://gershmanlab.com/experiments/alicia/teaching/experiment/?hitId=3E9VAUV7BW02QFDK7N7IH7ZKACRYAN&workerId=A35O3H71CM4LVZ&assignmentId=3E7TUJ2EGD8N956IANB6XAAMLV7D9B&a=EU7E9&tp_a=EU7E9&b=3E7TUJ2EGD8N956IANB6XAAMLV7D9B&tp_b=3E7TUJ2EGD8N956IANB6XAAMLV7D9B&c=365799&tp_c=365799","firstResponseHeads":2,"firstResponseTails":8,"secondResponseHeads":2,"secondResponseTails":8,"totalHeads":4,"totalTails":16,"studentIndex":10,"studentTrueHypers":{"a":2,"b":8},"studentGuess":0.2,"delta":0,"bonus":0.3,"bonusSoFar":1.8,"totalExamples":20},{"rt":5750,"response":{"heads":"5","tails":"5"},"type":"response","condition":"seqFeedback","trueTheta":0.5,"classrooms":["A","B"],"studentTrueClassroom":"B","exampleSet":"first","trial_type":"survey-html-form","trial_index":88,"time_elapsed":618231,"internal_node_id":"0.0-81.0-0.0","params":{"nStudents":24,"maxFlips":30,"completionMinutes":45,"basePay":8,"maxBonus":9,"perTrialBonus":0.5,"perTrialBonusThreshold":0.05,"exampleCost":0.01},"classroomParams":{"A":{"a":1,"b":4},"B":{"a":4,"b":1},"C":{"a":2,"b":8},"D":{"a":8,"b":2}},"conditions":["nonSeqFull","nonSeqPartial","seqNoFeedback","seqFeedback"],"classroomPairings":[["A","B"],["C","D"]],"coinWeights":[0.2,0.5,0.8],"subjectId":"A35O3H71CM4LVZ","assignmentId":"3E7TUJ2EGD8N956IANB6XAAMLV7D9B","hitId":"3E9VAUV7BW02QFDK7N7IH7ZKACRYAN","url":"https://gershmanlab.com/experiments/alicia/teaching/experiment/?hitId=3E9VAUV7BW02QFDK7N7IH7ZKACRYAN&workerId=A35O3H71CM4LVZ&assignmentId=3E7TUJ2EGD8N956IANB6XAAMLV7D9B&a=EU7E9&tp_a=EU7E9&b=3E7TUJ2EGD8N956IANB6XAAMLV7D9B&tp_b=3E7TUJ2EGD8N956IANB6XAAMLV7D9B&c=365799&tp_c=365799","heads":5,"tails":5,"studentIndex":11,"studentTrueHypers":{"a":4,"b":1},"studentGuess":0.6,"delta":0.09999999999999998,"totalExamples":10,"bonusSoFar":1.8},{"rt":7580,"response":{"heads":"4","tails":"6"},"type":"response","condition":"seqFeedback","trueTheta":0.5,"classrooms":["A","B"],"studentTrueClassroom":"B","exampleSet":"second","trial_type":"survey-html-form","trial_index":92,"time_elapsed":635647,"internal_node_id":"0.0-85.0-0.0","params":{"nStudents":24,"maxFlips":30,"completionMinutes":45,"basePay":8,"maxBonus":9,"perTrialBonus":0.5,"perTrialBonusThreshold":0.05,"exampleCost":0.01},"classroomParams":{"A":{"a":1,"b":4},"B":{"a":4,"b":1},"C":{"a":2,"b":8},"D":{"a":8,"b":2}},"conditions":["nonSeqFull","nonSeqPartial","seqNoFeedback","seqFeedback"],"classroomPairings":[["A","B"],["C","D"]],"coinWeights":[0.2,0.5,0.8],"subjectId":"A35O3H71CM4LVZ","assignmentId":"3E7TUJ2EGD8N956IANB6XAAMLV7D9B","hitId":"3E9VAUV7BW02QFDK7N7IH7ZKACRYAN","url":"https://gershmanlab.com/experiments/alicia/teaching/experiment/?hitId=3E9VAUV7BW02QFDK7N7IH7ZKACRYAN&workerId=A35O3H71CM4LVZ&assignmentId=3E7TUJ2EGD8N956IANB6XAAMLV7D9B&a=EU7E9&tp_a=EU7E9&b=3E7TUJ2EGD8N956IANB6XAAMLV7D9B&tp_b=3E7TUJ2EGD8N956IANB6XAAMLV7D9B&c=365799&tp_c=365799","firstResponseHeads":5,"firstResponseTails":5,"secondResponseHeads":4,"secondResponseTails":6,"totalHeads":9,"totalTails":11,"studentIndex":11,"studentTrueHypers":{"a":4,"b":1},"studentGuess":0.52,"delta":0.020000000000000018,"bonus":0.3,"bonusSoFar":2.1,"totalExamples":20},{"rt":7574,"response":{"heads":"4","tails":"10"},"type":"response","condition":"nonSeqFull","trueTheta":0.2,"classrooms":["A","B"],"studentTrueClassroom":"B","exampleSet":"first","trial_type":"survey-html-form","trial_index":98,"time_elapsed":653766,"internal_node_id":"0.0-91.0-0.0","params":{"nStudents":24,"maxFlips":30,"completionMinutes":45,"basePay":8,"maxBonus":9,"perTrialBonus":0.5,"perTrialBonusThreshold":0.05,"exampleCost":0.01},"classroomParams":{"A":{"a":1,"b":4},"B":{"a":4,"b":1},"C":{"a":2,"b":8},"D":{"a":8,"b":2}},"conditions":["nonSeqFull","nonSeqPartial","seqNoFeedback","seqFeedback"],"classroomPairings":[["A","B"],["C","D"]],"coinWeights":[0.2,0.5,0.8],"subjectId":"A35O3H71CM4LVZ","assignmentId":"3E7TUJ2EGD8N956IANB6XAAMLV7D9B","hitId":"3E9VAUV7BW02QFDK7N7IH7ZKACRYAN","url":"https://gershmanlab.com/experiments/alicia/teaching/experiment/?hitId=3E9VAUV7BW02QFDK7N7IH7ZKACRYAN&workerId=A35O3H71CM4LVZ&assignmentId=3E7TUJ2EGD8N956IANB6XAAMLV7D9B&a=EU7E9&tp_a=EU7E9&b=3E7TUJ2EGD8N956IANB6XAAMLV7D9B&tp_b=3E7TUJ2EGD8N956IANB6XAAMLV7D9B&c=365799&tp_c=365799","heads":4,"tails":10,"studentIndex":12,"studentTrueHypers":{"a":4,"b":1},"studentGuess":0.42105263157894735,"delta":0.22105263157894733,"totalExamples":14,"bonus":0,"bonusSoFar":2.1},{"rt":5319,"response":{"heads":"8","tails":"3"},"type":"response","condition":"nonSeqFull","trueTheta":0.8,"classrooms":["C","D"],"studentTrueClassroom":"C","exampleSet":"first","trial_type":"survey-html-form","trial_index":104,"time_elapsed":682054,"internal_node_id":"0.0-97.0-0.0","params":{"nStudents":24,"maxFlips":30,"completionMinutes":45,"basePay":8,"maxBonus":9,"perTrialBonus":0.5,"perTrialBonusThreshold":0.05,"exampleCost":0.01},"classroomParams":{"A":{"a":1,"b":4},"B":{"a":4,"b":1},"C":{"a":2,"b":8},"D":{"a":8,"b":2}},"conditions":["nonSeqFull","nonSeqPartial","seqNoFeedback","seqFeedback"],"classroomPairings":[["A","B"],["C","D"]],"coinWeights":[0.2,0.5,0.8],"subjectId":"A35O3H71CM4LVZ","assignmentId":"3E7TUJ2EGD8N956IANB6XAAMLV7D9B","hitId":"3E9VAUV7BW02QFDK7N7IH7ZKACRYAN","url":"https://gershmanlab.com/experiments/alicia/teaching/experiment/?hitId=3E9VAUV7BW02QFDK7N7IH7ZKACRYAN&workerId=A35O3H71CM4LVZ&assignmentId=3E7TUJ2EGD8N956IANB6XAAMLV7D9B&a=EU7E9&tp_a=EU7E9&b=3E7TUJ2EGD8N956IANB6XAAMLV7D9B&tp_b=3E7TUJ2EGD8N956IANB6XAAMLV7D9B&c=365799&tp_c=365799","heads":8,"tails":3,"studentIndex":13,"studentTrueHypers":{"a":2,"b":8},"studentGuess":0.47619047619047616,"delta":0.3238095238095239,"totalExamples":11,"bonus":0,"bonusSoFar":2.1},{"rt":7222,"response":{"heads":"10","tails":"10"},"type":"response","condition":"seqNoFeedback","trueTheta":0.5,"classrooms":["A","B"],"studentTrueClassroom":"B","exampleSet":"first","trial_type":"survey-html-form","trial_index":110,"time_elapsed":701237,"internal_node_id":"0.0-103.0-0.0","params":{"nStudents":24,"maxFlips":30,"completionMinutes":45,"basePay":8,"maxBonus":9,"perTrialBonus":0.5,"perTrialBonusThreshold":0.05,"exampleCost":0.01},"classroomParams":{"A":{"a":1,"b":4},"B":{"a":4,"b":1},"C":{"a":2,"b":8},"D":{"a":8,"b":2}},"conditions":["nonSeqFull","nonSeqPartial","seqNoFeedback","seqFeedback"],"classroomPairings":[["A","B"],["C","D"]],"coinWeights":[0.2,0.5,0.8],"subjectId":"A35O3H71CM4LVZ","assignmentId":"3E7TUJ2EGD8N956IANB6XAAMLV7D9B","hitId":"3E9VAUV7BW02QFDK7N7IH7ZKACRYAN","url":"https://gershmanlab.com/experiments/alicia/teaching/experiment/?hitId=3E9VAUV7BW02QFDK7N7IH7ZKACRYAN&workerId=A35O3H71CM4LVZ&assignmentId=3E7TUJ2EGD8N956IANB6XAAMLV7D9B&a=EU7E9&tp_a=EU7E9&b=3E7TUJ2EGD8N956IANB6XAAMLV7D9B&tp_b=3E7TUJ2EGD8N956IANB6XAAMLV7D9B&c=365799&tp_c=365799","heads":10,"tails":10,"studentIndex":14,"studentTrueHypers":{"a":4,"b":1},"studentGuess":0.56,"delta":0.06000000000000005,"totalExamples":20,"bonusSoFar":2.1},{"rt":6940,"response":{"heads":"7","tails":"7"},"type":"response","condition":"seqNoFeedback","trueTheta":0.5,"classrooms":["A","B"],"studentTrueClassroom":"B","exampleSet":"second","trial_type":"survey-html-form","trial_index":113,"time_elapsed":714182,"internal_node_id":"0.0-106.0-0.0","params":{"nStudents":24,"maxFlips":30,"completionMinutes":45,"basePay":8,"maxBonus":9,"perTrialBonus":0.5,"perTrialBonusThreshold":0.05,"exampleCost":0.01},"classroomParams":{"A":{"a":1,"b":4},"B":{"a":4,"b":1},"C":{"a":2,"b":8},"D":{"a":8,"b":2}},"conditions":["nonSeqFull","nonSeqPartial","seqNoFeedback","seqFeedback"],"classroomPairings":[["A","B"],["C","D"]],"coinWeights":[0.2,0.5,0.8],"subjectId":"A35O3H71CM4LVZ","assignmentId":"3E7TUJ2EGD8N956IANB6XAAMLV7D9B","hitId":"3E9VAUV7BW02QFDK7N7IH7ZKACRYAN","url":"https://gershmanlab.com/experiments/alicia/teaching/experiment/?hitId=3E9VAUV7BW02QFDK7N7IH7ZKACRYAN&workerId=A35O3H71CM4LVZ&assignmentId=3E7TUJ2EGD8N956IANB6XAAMLV7D9B&a=EU7E9&tp_a=EU7E9&b=3E7TUJ2EGD8N956IANB6XAAMLV7D9B&tp_b=3E7TUJ2EGD8N956IANB6XAAMLV7D9B&c=365799&tp_c=365799","firstResponseHeads":10,"firstResponseTails":10,"secondResponseHeads":7,"secondResponseTails":7,"totalHeads":17,"totalTails":17,"studentIndex":14,"studentTrueHypers":{"a":4,"b":1},"studentGuess":0.5384615384615384,"delta":0.038461538461538436,"bonus":0.16,"bonusSoFar":2.26,"totalExamples":34},{"rt":7086,"response":{"heads":"11","tails":"3"},"type":"response","condition":"seqFeedback","trueTheta":0.8,"classrooms":["A","B"],"studentTrueClassroom":"A","exampleSet":"first","trial_type":"survey-html-form","trial_index":119,"time_elapsed":733053,"internal_node_id":"0.0-112.0-0.0","params":{"nStudents":24,"maxFlips":30,"completionMinutes":45,"basePay":8,"maxBonus":9,"perTrialBonus":0.5,"perTrialBonusThreshold":0.05,"exampleCost":0.01},"classroomParams":{"A":{"a":1,"b":4},"B":{"a":4,"b":1},"C":{"a":2,"b":8},"D":{"a":8,"b":2}},"conditions":["nonSeqFull","nonSeqPartial","seqNoFeedback","seqFeedback"],"classroomPairings":[["A","B"],["C","D"]],"coinWeights":[0.2,0.5,0.8],"subjectId":"A35O3H71CM4LVZ","assignmentId":"3E7TUJ2EGD8N956IANB6XAAMLV7D9B","hitId":"3E9VAUV7BW02QFDK7N7IH7ZKACRYAN","url":"https://gershmanlab.com/experiments/alicia/teaching/experiment/?hitId=3E9VAUV7BW02QFDK7N7IH7ZKACRYAN&workerId=A35O3H71CM4LVZ&assignmentId=3E7TUJ2EGD8N956IANB6XAAMLV7D9B&a=EU7E9&tp_a=EU7E9&b=3E7TUJ2EGD8N956IANB6XAAMLV7D9B&tp_b=3E7TUJ2EGD8N956IANB6XAAMLV7D9B&c=365799&tp_c=365799","heads":11,"tails":3,"studentIndex":15,"studentTrueHypers":{"a":1,"b":4},"studentGuess":0.631578947368421,"delta":0.16842105263157903,"totalExamples":14,"bonusSoFar":2.26},{"rt":6484,"response":{"heads":"13","tails":"2"},"type":"response","condition":"seqFeedback","trueTheta":0.8,"classrooms":["A","B"],"studentTrueClassroom":"A","exampleSet":"second","trial_type":"survey-html-form","trial_index":123,"time_elapsed":746615,"internal_node_id":"0.0-116.0-0.0","params":{"nStudents":24,"maxFlips":30,"completionMinutes":45,"basePay":8,"maxBonus":9,"perTrialBonus":0.5,"perTrialBonusThreshold":0.05,"exampleCost":0.01},"classroomParams":{"A":{"a":1,"b":4},"B":{"a":4,"b":1},"C":{"a":2,"b":8},"D":{"a":8,"b":2}},"conditions":["nonSeqFull","nonSeqPartial","seqNoFeedback","seqFeedback"],"classroomPairings":[["A","B"],["C","D"]],"coinWeights":[0.2,0.5,0.8],"subjectId":"A35O3H71CM4LVZ","assignmentId":"3E7TUJ2EGD8N956IANB6XAAMLV7D9B","hitId":"3E9VAUV7BW02QFDK7N7IH7ZKACRYAN","url":"https://gershmanlab.com/experiments/alicia/teaching/experiment/?hitId=3E9VAUV7BW02QFDK7N7IH7ZKACRYAN&workerId=A35O3H71CM4LVZ&assignmentId=3E7TUJ2EGD8N956IANB6XAAMLV7D9B&a=EU7E9&tp_a=EU7E9&b=3E7TUJ2EGD8N956IANB6XAAMLV7D9B&tp_b=3E7TUJ2EGD8N956IANB6XAAMLV7D9B&c=365799&tp_c=365799","firstResponseHeads":11,"firstResponseTails":3,"secondResponseHeads":13,"secondResponseTails":2,"totalHeads":24,"totalTails":5,"studentIndex":15,"studentTrueHypers":{"a":1,"b":4},"studentGuess":0.7352941176470589,"delta":0.06470588235294117,"bonus":0,"bonusSoFar":2.26,"totalExamples":29},{"rt":5326,"response":{"heads":"5","tails":"5"},"type":"response","condition":"seqFeedback","trueTheta":0.5,"classrooms":["C","D"],"studentTrueClassroom":"D","exampleSet":"first","trial_type":"survey-html-form","trial_index":129,"time_elapsed":763334,"internal_node_id":"0.0-122.0-0.0","params":{"nStudents":24,"maxFlips":30,"completionMinutes":45,"basePay":8,"maxBonus":9,"perTrialBonus":0.5,"perTrialBonusThreshold":0.05,"exampleCost":0.01},"classroomParams":{"A":{"a":1,"b":4},"B":{"a":4,"b":1},"C":{"a":2,"b":8},"D":{"a":8,"b":2}},"conditions":["nonSeqFull","nonSeqPartial","seqNoFeedback","seqFeedback"],"classroomPairings":[["A","B"],["C","D"]],"coinWeights":[0.2,0.5,0.8],"subjectId":"A35O3H71CM4LVZ","assignmentId":"3E7TUJ2EGD8N956IANB6XAAMLV7D9B","hitId":"3E9VAUV7BW02QFDK7N7IH7ZKACRYAN","url":"https://gershmanlab.com/experiments/alicia/teaching/experiment/?hitId=3E9VAUV7BW02QFDK7N7IH7ZKACRYAN&workerId=A35O3H71CM4LVZ&assignmentId=3E7TUJ2EGD8N956IANB6XAAMLV7D9B&a=EU7E9&tp_a=EU7E9&b=3E7TUJ2EGD8N956IANB6XAAMLV7D9B&tp_b=3E7TUJ2EGD8N956IANB6XAAMLV7D9B&c=365799&tp_c=365799","heads":5,"tails":5,"studentIndex":16,"studentTrueHypers":{"a":8,"b":2},"studentGuess":0.65,"delta":0.15000000000000002,"totalExamples":10,"bonusSoFar":2.26},{"rt":7356,"response":{"heads":"4","tails":"6"},"type":"response","condition":"seqFeedback","trueTheta":0.5,"classrooms":["C","D"],"studentTrueClassroom":"D","exampleSet":"second","trial_type":"survey-html-form","trial_index":133,"time_elapsed":777982,"internal_node_id":"0.0-126.0-0.0","params":{"nStudents":24,"maxFlips":30,"completionMinutes":45,"basePay":8,"maxBonus":9,"perTrialBonus":0.5,"perTrialBonusThreshold":0.05,"exampleCost":0.01},"classroomParams":{"A":{"a":1,"b":4},"B":{"a":4,"b":1},"C":{"a":2,"b":8},"D":{"a":8,"b":2}},"conditions":["nonSeqFull","nonSeqPartial","seqNoFeedback","seqFeedback"],"classroomPairings":[["A","B"],["C","D"]],"coinWeights":[0.2,0.5,0.8],"subjectId":"A35O3H71CM4LVZ","assignmentId":"3E7TUJ2EGD8N956IANB6XAAMLV7D9B","hitId":"3E9VAUV7BW02QFDK7N7IH7ZKACRYAN","url":"https://gershmanlab.com/experiments/alicia/teaching/experiment/?hitId=3E9VAUV7BW02QFDK7N7IH7ZKACRYAN&workerId=A35O3H71CM4LVZ&assignmentId=3E7TUJ2EGD8N956IANB6XAAMLV7D9B&a=EU7E9&tp_a=EU7E9&b=3E7TUJ2EGD8N956IANB6XAAMLV7D9B&tp_b=3E7TUJ2EGD8N956IANB6XAAMLV7D9B&c=365799&tp_c=365799","firstResponseHeads":5,"firstResponseTails":5,"secondResponseHeads":4,"secondResponseTails":6,"totalHeads":9,"totalTails":11,"studentIndex":16,"studentTrueHypers":{"a":8,"b":2},"studentGuess":0.5666666666666667,"delta":0.06666666666666665,"bonus":0,"bonusSoFar":2.26,"totalExamples":20},{"rt":7495,"response":{"heads":"9","tails":"9"},"type":"response","condition":"seqNoFeedback","trueTheta":0.5,"classrooms":["C","D"],"studentTrueClassroom":"C","exampleSet":"first","trial_type":"survey-html-form","trial_index":139,"time_elapsed":797351,"internal_node_id":"0.0-132.0-0.0","params":{"nStudents":24,"maxFlips":30,"completionMinutes":45,"basePay":8,"maxBonus":9,"perTrialBonus":0.5,"perTrialBonusThreshold":0.05,"exampleCost":0.01},"classroomParams":{"A":{"a":1,"b":4},"B":{"a":4,"b":1},"C":{"a":2,"b":8},"D":{"a":8,"b":2}},"conditions":["nonSeqFull","nonSeqPartial","seqNoFeedback","seqFeedback"],"classroomPairings":[["A","B"],["C","D"]],"coinWeights":[0.2,0.5,0.8],"subjectId":"A35O3H71CM4LVZ","assignmentId":"3E7TUJ2EGD8N956IANB6XAAMLV7D9B","hitId":"3E9VAUV7BW02QFDK7N7IH7ZKACRYAN","url":"https://gershmanlab.com/experiments/alicia/teaching/experiment/?hitId=3E9VAUV7BW02QFDK7N7IH7ZKACRYAN&workerId=A35O3H71CM4LVZ&assignmentId=3E7TUJ2EGD8N956IANB6XAAMLV7D9B&a=EU7E9&tp_a=EU7E9&b=3E7TUJ2EGD8N956IANB6XAAMLV7D9B&tp_b=3E7TUJ2EGD8N956IANB6XAAMLV7D9B&c=365799&tp_c=365799","heads":9,"tails":9,"studentIndex":17,"studentTrueHypers":{"a":2,"b":8},"studentGuess":0.39285714285714285,"delta":0.10714285714285715,"totalExamples":18,"bonusSoFar":2.26},{"rt":6879,"response":{"heads":"8","tails":"8"},"type":"response","condition":"seqNoFeedback","trueTheta":0.5,"classrooms":["C","D"],"studentTrueClassroom":"C","exampleSet":"second","trial_type":"survey-html-form","trial_index":142,"time_elapsed":811486,"internal_node_id":"0.0-135.0-0.0","params":{"nStudents":24,"maxFlips":30,"completionMinutes":45,"basePay":8,"maxBonus":9,"perTrialBonus":0.5,"perTrialBonusThreshold":0.05,"exampleCost":0.01},"classroomParams":{"A":{"a":1,"b":4},"B":{"a":4,"b":1},"C":{"a":2,"b":8},"D":{"a":8,"b":2}},"conditions":["nonSeqFull","nonSeqPartial","seqNoFeedback","seqFeedback"],"classroomPairings":[["A","B"],["C","D"]],"coinWeights":[0.2,0.5,0.8],"subjectId":"A35O3H71CM4LVZ","assignmentId":"3E7TUJ2EGD8N956IANB6XAAMLV7D9B","hitId":"3E9VAUV7BW02QFDK7N7IH7ZKACRYAN","url":"https://gershmanlab.com/experiments/alicia/teaching/experiment/?hitId=3E9VAUV7BW02QFDK7N7IH7ZKACRYAN&workerId=A35O3H71CM4LVZ&assignmentId=3E7TUJ2EGD8N956IANB6XAAMLV7D9B&a=EU7E9&tp_a=EU7E9&b=3E7TUJ2EGD8N956IANB6XAAMLV7D9B&tp_b=3E7TUJ2EGD8N956IANB6XAAMLV7D9B&c=365799&tp_c=365799","firstResponseHeads":9,"firstResponseTails":9,"secondResponseHeads":8,"secondResponseTails":8,"totalHeads":17,"totalTails":17,"studentIndex":17,"studentTrueHypers":{"a":2,"b":8},"studentGuess":0.4318181818181818,"delta":0.06818181818181818,"bonus":0,"bonusSoFar":2.26,"totalExamples":34},{"rt":6326,"response":{"heads":"12","tails":"3"},"type":"response","condition":"seqFeedback","trueTheta":0.8,"classrooms":["C","D"],"studentTrueClassroom":"D","exampleSet":"first","trial_type":"survey-html-form","trial_index":148,"time_elapsed":829317,"internal_node_id":"0.0-141.0-0.0","params":{"nStudents":24,"maxFlips":30,"completionMinutes":45,"basePay":8,"maxBonus":9,"perTrialBonus":0.5,"perTrialBonusThreshold":0.05,"exampleCost":0.01},"classroomParams":{"A":{"a":1,"b":4},"B":{"a":4,"b":1},"C":{"a":2,"b":8},"D":{"a":8,"b":2}},"conditions":["nonSeqFull","nonSeqPartial","seqNoFeedback","seqFeedback"],"classroomPairings":[["A","B"],["C","D"]],"coinWeights":[0.2,0.5,0.8],"subjectId":"A35O3H71CM4LVZ","assignmentId":"3E7TUJ2EGD8N956IANB6XAAMLV7D9B","hitId":"3E9VAUV7BW02QFDK7N7IH7ZKACRYAN","url":"https://gershmanlab.com/experiments/alicia/teaching/experiment/?hitId=3E9VAUV7BW02QFDK7N7IH7ZKACRYAN&workerId=A35O3H71CM4LVZ&assignmentId=3E7TUJ2EGD8N956IANB6XAAMLV7D9B&a=EU7E9&tp_a=EU7E9&b=3E7TUJ2EGD8N956IANB6XAAMLV7D9B&tp_b=3E7TUJ2EGD8N956IANB6XAAMLV7D9B&c=365799&tp_c=365799","heads":12,"tails":3,"studentIndex":18,"studentTrueHypers":{"a":8,"b":2},"studentGuess":0.8,"delta":0,"totalExamples":15,"bonusSoFar":2.26},{"rt":5764,"response":{"heads":"11","tails":"2"},"type":"response","condition":"seqFeedback","trueTheta":0.8,"classrooms":["C","D"],"studentTrueClassroom":"D","exampleSet":"second","trial_type":"survey-html-form","trial_index":152,"time_elapsed":843653,"internal_node_id":"0.0-145.0-0.0","params":{"nStudents":24,"maxFlips":30,"completionMinutes":45,"basePay":8,"maxBonus":9,"perTrialBonus":0.5,"perTrialBonusThreshold":0.05,"exampleCost":0.01},"classroomParams":{"A":{"a":1,"b":4},"B":{"a":4,"b":1},"C":{"a":2,"b":8},"D":{"a":8,"b":2}},"conditions":["nonSeqFull","nonSeqPartial","seqNoFeedback","seqFeedback"],"classroomPairings":[["A","B"],["C","D"]],"coinWeights":[0.2,0.5,0.8],"subjectId":"A35O3H71CM4LVZ","assignmentId":"3E7TUJ2EGD8N956IANB6XAAMLV7D9B","hitId":"3E9VAUV7BW02QFDK7N7IH7ZKACRYAN","url":"https://gershmanlab.com/experiments/alicia/teaching/experiment/?hitId=3E9VAUV7BW02QFDK7N7IH7ZKACRYAN&workerId=A35O3H71CM4LVZ&assignmentId=3E7TUJ2EGD8N956IANB6XAAMLV7D9B&a=EU7E9&tp_a=EU7E9&b=3E7TUJ2EGD8N956IANB6XAAMLV7D9B&tp_b=3E7TUJ2EGD8N956IANB6XAAMLV7D9B&c=365799&tp_c=365799","firstResponseHeads":12,"firstResponseTails":3,"secondResponseHeads":11,"secondResponseTails":2,"totalHeads":23,"totalTails":5,"studentIndex":18,"studentTrueHypers":{"a":8,"b":2},"studentGuess":0.8157894736842105,"delta":0.015789473684210464,"bonus":0.22,"bonusSoFar":2.48,"totalExamples":28},{"rt":3879,"response":{"heads":"1","tails":"6"},"type":"response","condition":"seqNoFeedback","trueTheta":0.2,"classrooms":["A","B"],"studentTrueClassroom":"A","exampleSet":"first","trial_type":"survey-html-form","trial_index":158,"time_elapsed":859246,"internal_node_id":"0.0-151.0-0.0","params":{"nStudents":24,"maxFlips":30,"completionMinutes":45,"basePay":8,"maxBonus":9,"perTrialBonus":0.5,"perTrialBonusThreshold":0.05,"exampleCost":0.01},"classroomParams":{"A":{"a":1,"b":4},"B":{"a":4,"b":1},"C":{"a":2,"b":8},"D":{"a":8,"b":2}},"conditions":["nonSeqFull","nonSeqPartial","seqNoFeedback","seqFeedback"],"classroomPairings":[["A","B"],["C","D"]],"coinWeights":[0.2,0.5,0.8],"subjectId":"A35O3H71CM4LVZ","assignmentId":"3E7TUJ2EGD8N956IANB6XAAMLV7D9B","hitId":"3E9VAUV7BW02QFDK7N7IH7ZKACRYAN","url":"https://gershmanlab.com/experiments/alicia/teaching/experiment/?hitId=3E9VAUV7BW02QFDK7N7IH7ZKACRYAN&workerId=A35O3H71CM4LVZ&assignmentId=3E7TUJ2EGD8N956IANB6XAAMLV7D9B&a=EU7E9&tp_a=EU7E9&b=3E7TUJ2EGD8N956IANB6XAAMLV7D9B&tp_b=3E7TUJ2EGD8N956IANB6XAAMLV7D9B&c=365799&tp_c=365799","heads":1,"tails":6,"studentIndex":19,"studentTrueHypers":{"a":1,"b":4},"studentGuess":0.16666666666666666,"delta":0.033333333333333354,"totalExamples":7,"bonusSoFar":2.48},{"rt":6102,"response":{"heads":"2","tails":"10"},"type":"response","condition":"seqNoFeedback","trueTheta":0.2,"classrooms":["A","B"],"studentTrueClassroom":"A","exampleSet":"second","trial_type":"survey-html-form","trial_index":161,"time_elapsed":871854,"internal_node_id":"0.0-154.0-0.0","params":{"nStudents":24,"maxFlips":30,"completionMinutes":45,"basePay":8,"maxBonus":9,"perTrialBonus":0.5,"perTrialBonusThreshold":0.05,"exampleCost":0.01},"classroomParams":{"A":{"a":1,"b":4},"B":{"a":4,"b":1},"C":{"a":2,"b":8},"D":{"a":8,"b":2}},"conditions":["nonSeqFull","nonSeqPartial","seqNoFeedback","seqFeedback"],"classroomPairings":[["A","B"],["C","D"]],"coinWeights":[0.2,0.5,0.8],"subjectId":"A35O3H71CM4LVZ","assignmentId":"3E7TUJ2EGD8N956IANB6XAAMLV7D9B","hitId":"3E9VAUV7BW02QFDK7N7IH7ZKACRYAN","url":"https://gershmanlab.com/experiments/alicia/teaching/experiment/?hitId=3E9VAUV7BW02QFDK7N7IH7ZKACRYAN&workerId=A35O3H71CM4LVZ&assignmentId=3E7TUJ2EGD8N956IANB6XAAMLV7D9B&a=EU7E9&tp_a=EU7E9&b=3E7TUJ2EGD8N956IANB6XAAMLV7D9B&tp_b=3E7TUJ2EGD8N956IANB6XAAMLV7D9B&c=365799&tp_c=365799","firstResponseHeads":1,"firstResponseTails":6,"secondResponseHeads":2,"secondResponseTails":10,"totalHeads":3,"totalTails":16,"studentIndex":19,"studentTrueHypers":{"a":1,"b":4},"studentGuess":0.16666666666666666,"delta":0.033333333333333354,"bonus":0.31,"bonusSoFar":2.79,"totalExamples":19},{"rt":8668,"response":{"heads":"3","tails":"8"},"type":"response","condition":"nonSeqPartial","trueTheta":0.2,"classrooms":["A","B"],"studentTrueClassroom":"B","exampleSet":"first","trial_type":"survey-html-form","trial_index":167,"time_elapsed":891917,"internal_node_id":"0.0-160.0-0.0","params":{"nStudents":24,"maxFlips":30,"completionMinutes":45,"basePay":8,"maxBonus":9,"perTrialBonus":0.5,"perTrialBonusThreshold":0.05,"exampleCost":0.01},"classroomParams":{"A":{"a":1,"b":4},"B":{"a":4,"b":1},"C":{"a":2,"b":8},"D":{"a":8,"b":2}},"conditions":["nonSeqFull","nonSeqPartial","seqNoFeedback","seqFeedback"],"classroomPairings":[["A","B"],["C","D"]],"coinWeights":[0.2,0.5,0.8],"subjectId":"A35O3H71CM4LVZ","assignmentId":"3E7TUJ2EGD8N956IANB6XAAMLV7D9B","hitId":"3E9VAUV7BW02QFDK7N7IH7ZKACRYAN","url":"https://gershmanlab.com/experiments/alicia/teaching/experiment/?hitId=3E9VAUV7BW02QFDK7N7IH7ZKACRYAN&workerId=A35O3H71CM4LVZ&assignmentId=3E7TUJ2EGD8N956IANB6XAAMLV7D9B&a=EU7E9&tp_a=EU7E9&b=3E7TUJ2EGD8N956IANB6XAAMLV7D9B&tp_b=3E7TUJ2EGD8N956IANB6XAAMLV7D9B&c=365799&tp_c=365799","heads":3,"tails":8,"studentIndex":20,"studentTrueHypers":{"a":4,"b":1},"studentGuess":0.4375,"delta":0.2375,"totalExamples":11,"bonus":0,"bonusSoFar":2.79},{"rt":6111,"response":{"heads":"2","tails":"10"},"type":"response","condition":"seqFeedback","trueTheta":0.2,"classrooms":["C","D"],"studentTrueClassroom":"C","exampleSet":"first","trial_type":"survey-html-form","trial_index":173,"time_elapsed":909165,"internal_node_id":"0.0-166.0-0.0","params":{"nStudents":24,"maxFlips":30,"completionMinutes":45,"basePay":8,"maxBonus":9,"perTrialBonus":0.5,"perTrialBonusThreshold":0.05,"exampleCost":0.01},"classroomParams":{"A":{"a":1,"b":4},"B":{"a":4,"b":1},"C":{"a":2,"b":8},"D":{"a":8,"b":2}},"conditions":["nonSeqFull","nonSeqPartial","seqNoFeedback","seqFeedback"],"classroomPairings":[["A","B"],["C","D"]],"coinWeights":[0.2,0.5,0.8],"subjectId":"A35O3H71CM4LVZ","assignmentId":"3E7TUJ2EGD8N956IANB6XAAMLV7D9B","hitId":"3E9VAUV7BW02QFDK7N7IH7ZKACRYAN","url":"https://gershmanlab.com/experiments/alicia/teaching/experiment/?hitId=3E9VAUV7BW02QFDK7N7IH7ZKACRYAN&workerId=A35O3H71CM4LVZ&assignmentId=3E7TUJ2EGD8N956IANB6XAAMLV7D9B&a=EU7E9&tp_a=EU7E9&b=3E7TUJ2EGD8N956IANB6XAAMLV7D9B&tp_b=3E7TUJ2EGD8N956IANB6XAAMLV7D9B&c=365799&tp_c=365799","heads":2,"tails":10,"studentIndex":21,"studentTrueHypers":{"a":2,"b":8},"studentGuess":0.18181818181818182,"delta":0.018181818181818188,"totalExamples":12,"bonusSoFar":2.79},{"rt":6765,"response":{"heads":"3","tails":"10"},"type":"response","condition":"seqFeedback","trueTheta":0.2,"classrooms":["C","D"],"studentTrueClassroom":"C","exampleSet":"second","trial_type":"survey-html-form","trial_index":177,"time_elapsed":924958,"internal_node_id":"0.0-170.0-0.0","params":{"nStudents":24,"maxFlips":30,"completionMinutes":45,"basePay":8,"maxBonus":9,"perTrialBonus":0.5,"perTrialBonusThreshold":0.05,"exampleCost":0.01},"classroomParams":{"A":{"a":1,"b":4},"B":{"a":4,"b":1},"C":{"a":2,"b":8},"D":{"a":8,"b":2}},"conditions":["nonSeqFull","nonSeqPartial","seqNoFeedback","seqFeedback"],"classroomPairings":[["A","B"],["C","D"]],"coinWeights":[0.2,0.5,0.8],"subjectId":"A35O3H71CM4LVZ","assignmentId":"3E7TUJ2EGD8N956IANB6XAAMLV7D9B","hitId":"3E9VAUV7BW02QFDK7N7IH7ZKACRYAN","url":"https://gershmanlab.com/experiments/alicia/teaching/experiment/?hitId=3E9VAUV7BW02QFDK7N7IH7ZKACRYAN&workerId=A35O3H71CM4LVZ&assignmentId=3E7TUJ2EGD8N956IANB6XAAMLV7D9B&a=EU7E9&tp_a=EU7E9&b=3E7TUJ2EGD8N956IANB6XAAMLV7D9B&tp_b=3E7TUJ2EGD8N956IANB6XAAMLV7D9B&c=365799&tp_c=365799","firstResponseHeads":2,"firstResponseTails":10,"secondResponseHeads":3,"secondResponseTails":10,"totalHeads":5,"totalTails":20,"studentIndex":21,"studentTrueHypers":{"a":2,"b":8},"studentGuess":0.2,"delta":0,"bonus":0.25,"bonusSoFar":3.04,"totalExamples":25},{"rt":6094,"response":{"heads":"9","tails":"10"},"type":"response","condition":"nonSeqFull","trueTheta":0.5,"classrooms":["A","B"],"studentTrueClassroom":"A","exampleSet":"first","trial_type":"survey-html-form","trial_index":183,"time_elapsed":944829,"internal_node_id":"0.0-176.0-0.0","params":{"nStudents":24,"maxFlips":30,"completionMinutes":45,"basePay":8,"maxBonus":9,"perTrialBonus":0.5,"perTrialBonusThreshold":0.05,"exampleCost":0.01},"classroomParams":{"A":{"a":1,"b":4},"B":{"a":4,"b":1},"C":{"a":2,"b":8},"D":{"a":8,"b":2}},"conditions":["nonSeqFull","nonSeqPartial","seqNoFeedback","seqFeedback"],"classroomPairings":[["A","B"],["C","D"]],"coinWeights":[0.2,0.5,0.8],"subjectId":"A35O3H71CM4LVZ","assignmentId":"3E7TUJ2EGD8N956IANB6XAAMLV7D9B","hitId":"3E9VAUV7BW02QFDK7N7IH7ZKACRYAN","url":"https://gershmanlab.com/experiments/alicia/teaching/experiment/?hitId=3E9VAUV7BW02QFDK7N7IH7ZKACRYAN&workerId=A35O3H71CM4LVZ&assignmentId=3E7TUJ2EGD8N956IANB6XAAMLV7D9B&a=EU7E9&tp_a=EU7E9&b=3E7TUJ2EGD8N956IANB6XAAMLV7D9B&tp_b=3E7TUJ2EGD8N956IANB6XAAMLV7D9B&c=365799&tp_c=365799","heads":9,"tails":10,"studentIndex":22,"studentTrueHypers":{"a":1,"b":4},"studentGuess":0.4166666666666667,"delta":0.08333333333333331,"totalExamples":19,"bonus":0,"bonusSoFar":3.04},{"rt":7264,"response":{"heads":"3","tails":"10"},"type":"response","condition":"seqFeedback","trueTheta":0.2,"classrooms":["A","B"],"studentTrueClassroom":"A","exampleSet":"first","trial_type":"survey-html-form","trial_index":189,"time_elapsed":965206,"internal_node_id":"0.0-182.0-0.0","params":{"nStudents":24,"maxFlips":30,"completionMinutes":45,"basePay":8,"maxBonus":9,"perTrialBonus":0.5,"perTrialBonusThreshold":0.05,"exampleCost":0.01},"classroomParams":{"A":{"a":1,"b":4},"B":{"a":4,"b":1},"C":{"a":2,"b":8},"D":{"a":8,"b":2}},"conditions":["nonSeqFull","nonSeqPartial","seqNoFeedback","seqFeedback"],"classroomPairings":[["A","B"],["C","D"]],"coinWeights":[0.2,0.5,0.8],"subjectId":"A35O3H71CM4LVZ","assignmentId":"3E7TUJ2EGD8N956IANB6XAAMLV7D9B","hitId":"3E9VAUV7BW02QFDK7N7IH7ZKACRYAN","url":"https://gershmanlab.com/experiments/alicia/teaching/experiment/?hitId=3E9VAUV7BW02QFDK7N7IH7ZKACRYAN&workerId=A35O3H71CM4LVZ&assignmentId=3E7TUJ2EGD8N956IANB6XAAMLV7D9B&a=EU7E9&tp_a=EU7E9&b=3E7TUJ2EGD8N956IANB6XAAMLV7D9B&tp_b=3E7TUJ2EGD8N956IANB6XAAMLV7D9B&c=365799&tp_c=365799","heads":3,"tails":10,"studentIndex":23,"studentTrueHypers":{"a":1,"b":4},"studentGuess":0.2222222222222222,"delta":0.0222222222222222,"totalExamples":13,"bonusSoFar":3.04},{"rt":6964,"response":{"heads":"3","tails":"11"},"type":"response","condition":"seqFeedback","trueTheta":0.2,"classrooms":["A","B"],"studentTrueClassroom":"A","exampleSet":"second","trial_type":"survey-html-form","trial_index":193,"time_elapsed":979509,"internal_node_id":"0.0-186.0-0.0","params":{"nStudents":24,"maxFlips":30,"completionMinutes":45,"basePay":8,"maxBonus":9,"perTrialBonus":0.5,"perTrialBonusThreshold":0.05,"exampleCost":0.01},"classroomParams":{"A":{"a":1,"b":4},"B":{"a":4,"b":1},"C":{"a":2,"b":8},"D":{"a":8,"b":2}},"conditions":["nonSeqFull","nonSeqPartial","seqNoFeedback","seqFeedback"],"classroomPairings":[["A","B"],["C","D"]],"coinWeights":[0.2,0.5,0.8],"subjectId":"A35O3H71CM4LVZ","assignmentId":"3E7TUJ2EGD8N956IANB6XAAMLV7D9B","hitId":"3E9VAUV7BW02QFDK7N7IH7ZKACRYAN","url":"https://gershmanlab.com/experiments/alicia/teaching/experiment/?hitId=3E9VAUV7BW02QFDK7N7IH7ZKACRYAN&workerId=A35O3H71CM4LVZ&assignmentId=3E7TUJ2EGD8N956IANB6XAAMLV7D9B&a=EU7E9&tp_a=EU7E9&b=3E7TUJ2EGD8N956IANB6XAAMLV7D9B&tp_b=3E7TUJ2EGD8N956IANB6XAAMLV7D9B&c=365799&tp_c=365799","firstResponseHeads":3,"firstResponseTails":10,"secondResponseHeads":3,"secondResponseTails":11,"totalHeads":6,"totalTails":21,"studentIndex":23,"studentTrueHypers":{"a":1,"b":4},"studentGuess":0.21875,"delta":0.01874999999999999,"bonus":0.23,"bonusSoFar":3.27,"totalExamples":27},{"rt":20331,"response":{"gender":"male","age":"43","understood":"yes","comments":"Make the student guesses consistent"},"type":"response","trial_type":"survey-html-form","trial_index":197,"time_elapsed":1031836,"internal_node_id":"0.0-191.0","params":{"nStudents":24,"maxFlips":30,"completionMinutes":45,"basePay":8,"maxBonus":9,"perTrialBonus":0.5,"perTrialBonusThreshold":0.05,"exampleCost":0.01},"classroomParams":{"A":{"a":1,"b":4},"B":{"a":4,"b":1},"C":{"a":2,"b":8},"D":{"a":8,"b":2}},"conditions":["nonSeqFull","nonSeqPartial","seqNoFeedback","seqFeedback"],"classroomPairings":[["A","B"],["C","D"]],"coinWeights":[0.2,0.5,0.8],"subjectId":"A35O3H71CM4LVZ","assignmentId":"3E7TUJ2EGD8N956IANB6XAAMLV7D9B","hitId":"3E9VAUV7BW02QFDK7N7IH7ZKACRYAN","url":"https://gershmanlab.com/experiments/alicia/teaching/experiment/?hitId=3E9VAUV7BW02QFDK7N7IH7ZKACRYAN&workerId=A35O3H71CM4LVZ&assignmentId=3E7TUJ2EGD8N956IANB6XAAMLV7D9B&a=EU7E9&tp_a=EU7E9&b=3E7TUJ2EGD8N956IANB6XAAMLV7D9B&tp_b=3E7TUJ2EGD8N956IANB6XAAMLV7D9B&c=365799&tp_c=365799","totalBonus":3.27}]