[{"rt":23148,"response":{"heads":"5","tails":"5"},"type":"response","condition":"nonSeqPartial","trueTheta":0.5,"classrooms":["C","D"],"studentTrueClassroom":"D","exampleSet":"first","trial_type":"survey-html-form","trial_index":16,"time_elapsed":561956,"internal_node_id":"0.0-6.0-0.0","params":{"nStudents":24,"maxFlips":30,"completionMinutes":45,"basePay":8,"maxBonus":9,"perTrialBonus":0.5,"perTrialBonusThreshold":0.05,"exampleCost":0.01},"classroomParams":{"A":{"a":1,"b":4},"B":{"a":4,"b":1},"C":{"a":2,"b":8},"D":{"a":8,"b":2}},"conditions":["nonSeqFull","nonSeqPartial","seqNoFeedback","seqFeedback"],"classroomPairings":[["A","B"],["C","D"]],"coinWeights":[0.2,0.5,0.8],"subjectId":"A38240X9B0EBKE","assignmentId":"3FK0YFF9P0270TJ749GWVE5QCT9VVL","hitId":"34KYK9TV2RUAD363EVFPUWVPB97SBP","url":"https://gershmanlab.com/experiments/alicia/teaching/experiment/?hitId=34KYK9TV2RUAD363EVFPUWVPB97SBP&workerId=A38240X9B0EBKE&assignmentId=3FK0YFF9P0270TJ749GWVE5QCT9VVL&a=9YKF7&tp_a=9YKF7&b=3FK0YFF9P0270TJ749GWVE5QCT9VVL&tp_b=3FK0YFF9P0270TJ749GWVE5QCT9VVL&c=365717&tp_c=365717","heads":5,"tails":5,"studentIndex":0,"studentTrueHypers":{"a":8,"b":2},"studentGuess":0.65,"delta":0.15000000000000002,"totalExamples":10,"bonus":0,"bonusSoFar":0},{"rt":32064,"response":{"heads":"16","tails":"4"},"type":"response","condition":"seqFeedback","trueTheta":0.8,"classrooms":["A","B"],"studentTrueClassroom":"B","exampleSet":"first","trial_type":"survey-html-form","trial_index":22,"time_elapsed":612938,"internal_node_id":"0.0-12.0-0.0","params":{"nStudents":24,"maxFlips":30,"completionMinutes":45,"basePay":8,"maxBonus":9,"perTrialBonus":0.5,"perTrialBonusThreshold":0.05,"exampleCost":0.01},"classroomParams":{"A":{"a":1,"b":4},"B":{"a":4,"b":1},"C":{"a":2,"b":8},"D":{"a":8,"b":2}},"conditions":["nonSeqFull","nonSeqPartial","seqNoFeedback","seqFeedback"],"classroomPairings":[["A","B"],["C","D"]],"coinWeights":[0.2,0.5,0.8],"subjectId":"A38240X9B0EBKE","assignmentId":"3FK0YFF9P0270TJ749GWVE5QCT9VVL","hitId":"34KYK9TV2RUAD363EVFPUWVPB97SBP","url":"https://gershmanlab.com/experiments/alicia/teaching/experiment/?hitId=34KYK9TV2RUAD363EVFPUWVPB97SBP&workerId=A38240X9B0EBKE&assignmentId=3FK0YFF9P0270TJ749GWVE5QCT9VVL&a=9YKF7&tp_a=9YKF7&b=3FK0YFF9P0270TJ749GWVE5QCT9VVL&tp_b=3FK0YFF9P0270TJ749GWVE5QCT9VVL&c=365717&tp_c=365717","heads":16,"tails":4,"studentIndex":1,"studentTrueHypers":{"a":4,"b":1},"studentGuess":0.8,"delta":0,"totalExamples":20,"bonusSoFar":0},{"rt":7560,"response":{"heads":"16","tails":"4"},"type":"response","condition":"seqFeedback","trueTheta":0.8,"classrooms":["A","B"],"studentTrueClassroom":"B","exampleSet":"second","trial_type":"survey-html-form","trial_index":26,"time_elapsed":635328,"internal_node_id":"0.0-16.0-0.0","params":{"nStudents":24,"maxFlips":30,"completionMinutes":45,"basePay":8,"maxBonus":9,"perTrialBonus":0.5,"perTrialBonusThreshold":0.05,"exampleCost":0.01},"classroomParams":{"A":{"a":1,"b":4},"B":{"a":4,"b":1},"C":{"a":2,"b":8},"D":{"a":8,"b":2}},"conditions":["nonSeqFull","nonSeqPartial","seqNoFeedback","seqFeedback"],"classroomPairings":[["A","B"],["C","D"]],"coinWeights":[0.2,0.5,0.8],"subjectId":"A38240X9B0EBKE","assignmentId":"3FK0YFF9P0270TJ749GWVE5QCT9VVL","hitId":"34KYK9TV2RUAD363EVFPUWVPB97SBP","url":"https://gershmanlab.com/experiments/alicia/teaching/experiment/?hitId=34KYK9TV2RUAD363EVFPUWVPB97SBP&workerId=A38240X9B0EBKE&assignmentId=3FK0YFF9P0270TJ749GWVE5QCT9VVL&a=9YKF7&tp_a=9YKF7&b=3FK0YFF9P0270TJ749GWVE5QCT9VVL&tp_b=3FK0YFF9P0270TJ749GWVE5QCT9VVL&c=365717&tp_c=365717","firstResponseHeads":16,"firstResponseTails":4,"secondResponseHeads":16,"secondResponseTails":4,"totalHeads":32,"totalTails":8,"studentIndex":1,"studentTrueHypers":{"a":4,"b":1},"studentGuess":0.8,"delta":0,"bonus":0.1,"bonusSoFar":0.1,"totalExamples":40},{"rt":29057,"response":{"heads":"1","tails":"1"},"type":"response","condition":"seqNoFeedback","trueTheta":0.5,"classrooms":["C","D"],"studentTrueClassroom":"D","exampleSet":"first","trial_type":"survey-html-form","trial_index":32,"time_elapsed":680748,"internal_node_id":"0.0-22.0-0.0","params":{"nStudents":24,"maxFlips":30,"completionMinutes":45,"basePay":8,"maxBonus":9,"perTrialBonus":0.5,"perTrialBonusThreshold":0.05,"exampleCost":0.01},"classroomParams":{"A":{"a":1,"b":4},"B":{"a":4,"b":1},"C":{"a":2,"b":8},"D":{"a":8,"b":2}},"conditions":["nonSeqFull","nonSeqPartial","seqNoFeedback","seqFeedback"],"classroomPairings":[["A","B"],["C","D"]],"coinWeights":[0.2,0.5,0.8],"subjectId":"A38240X9B0EBKE","assignmentId":"3FK0YFF9P0270TJ749GWVE5QCT9VVL","hitId":"34KYK9TV2RUAD363EVFPUWVPB97SBP","url":"https://gershmanlab.com/experiments/alicia/teaching/experiment/?hitId=34KYK9TV2RUAD363EVFPUWVPB97SBP&workerId=A38240X9B0EBKE&assignmentId=3FK0YFF9P0270TJ749GWVE5QCT9VVL&a=9YKF7&tp_a=9YKF7&b=3FK0YFF9P0270TJ749GWVE5QCT9VVL&tp_b=3FK0YFF9P0270TJ749GWVE5QCT9VVL&c=365717&tp_c=365717","heads":1,"tails":1,"studentIndex":2,"studentTrueHypers":{"a":8,"b":2},"studentGuess":0.75,"delta":0.25,"totalExamples":2,"bonusSoFar":0.1},{"rt":11302,"response":{"heads":"2","tails":"2"},"type":"response","condition":"seqNoFeedback","trueTheta":0.5,"classrooms":["C","D"],"studentTrueClassroom":"D","exampleSet":"second","trial_type":"survey-html-form","trial_index":35,"time_elapsed":699583,"internal_node_id":"0.0-25.0-0.0","params":{"nStudents":24,"maxFlips":30,"completionMinutes":45,"basePay":8,"maxBonus":9,"perTrialBonus":0.5,"perTrialBonusThreshold":0.05,"exampleCost":0.01},"classroomParams":{"A":{"a":1,"b":4},"B":{"a":4,"b":1},"C":{"a":2,"b":8},"D":{"a":8,"b":2}},"conditions":["nonSeqFull","nonSeqPartial","seqNoFeedback","seqFeedback"],"classroomPairings":[["A","B"],["C","D"]],"coinWeights":[0.2,0.5,0.8],"subjectId":"A38240X9B0EBKE","assignmentId":"3FK0YFF9P0270TJ749GWVE5QCT9VVL","hitId":"34KYK9TV2RUAD363EVFPUWVPB97SBP","url":"https://gershmanlab.com/experiments/alicia/teaching/experiment/?hitId=34KYK9TV2RUAD363EVFPUWVPB97SBP&workerId=A38240X9B0EBKE&assignmentId=3FK0YFF9P0270TJ749GWVE5QCT9VVL&a=9YKF7&tp_a=9YKF7&b=3FK0YFF9P0270TJ749GWVE5QCT9VVL&tp_b=3FK0YFF9P0270TJ749GWVE5QCT9VVL&c=365717&tp_c=365717","firstResponseHeads":1,"firstResponseTails":1,"secondResponseHeads":2,"secondResponseTails":2,"totalHeads":3,"totalTails":3,"studentIndex":2,"studentTrueHypers":{"a":8,"b":2},"studentGuess":0.6875,"delta":0.1875,"bonus":0,"bonusSoFar":0.1,"totalExamples":6},{"rt":15631,"response":{"heads":"0","tails":"0"},"type":"response","condition":"nonSeqFull","trueTheta":0.8,"classrooms":["C","D"],"studentTrueClassroom":"D","exampleSet":"first","trial_type":"survey-html-form","trial_index":41,"time_elapsed":734583,"internal_node_id":"0.0-31.0-0.0","params":{"nStudents":24,"maxFlips":30,"completionMinutes":45,"basePay":8,"maxBonus":9,"perTrialBonus":0.5,"perTrialBonusThreshold":0.05,"exampleCost":0.01},"classroomParams":{"A":{"a":1,"b":4},"B":{"a":4,"b":1},"C":{"a":2,"b":8},"D":{"a":8,"b":2}},"conditions":["nonSeqFull","nonSeqPartial","seqNoFeedback","seqFeedback"],"classroomPairings":[["A","B"],["C","D"]],"coinWeights":[0.2,0.5,0.8],"subjectId":"A38240X9B0EBKE","assignmentId":"3FK0YFF9P0270TJ749GWVE5QCT9VVL","hitId":"34KYK9TV2RUAD363EVFPUWVPB97SBP","url":"https://gershmanlab.com/experiments/alicia/teaching/experiment/?hitId=34KYK9TV2RUAD363EVFPUWVPB97SBP&workerId=A38240X9B0EBKE&assignmentId=3FK0YFF9P0270TJ749GWVE5QCT9VVL&a=9YKF7&tp_a=9YKF7&b=3FK0YFF9P0270TJ749GWVE5QCT9VVL&tp_b=3FK0YFF9P0270TJ749GWVE5QCT9VVL&c=365717&tp_c=365717","heads":0,"tails":0,"studentIndex":3,"studentTrueHypers":{"a":8,"b":2},"studentGuess":0.8,"delta":0,"totalExamples":0,"bonus":0.5,"bonusSoFar":0.6},{"rt":6590,"response":{"heads":"1","tails":"0"},"type":"response","condition":"nonSeqFull","trueTheta":0.8,"classrooms":["C","D"],"studentTrueClassroom":"D","exampleSet":"first","trial_type":"survey-html-form","trial_index":42,"time_elapsed":741172,"internal_node_id":"0.0-31.1-0.1","params":{"nStudents":24,"maxFlips":30,"completionMinutes":45,"basePay":8,"maxBonus":9,"perTrialBonus":0.5,"perTrialBonusThreshold":0.05,"exampleCost":0.01},"classroomParams":{"A":{"a":1,"b":4},"B":{"a":4,"b":1},"C":{"a":2,"b":8},"D":{"a":8,"b":2}},"conditions":["nonSeqFull","nonSeqPartial","seqNoFeedback","seqFeedback"],"classroomPairings":[["A","B"],["C","D"]],"coinWeights":[0.2,0.5,0.8],"subjectId":"A38240X9B0EBKE","assignmentId":"3FK0YFF9P0270TJ749GWVE5QCT9VVL","hitId":"34KYK9TV2RUAD363EVFPUWVPB97SBP","url":"https://gershmanlab.com/experiments/alicia/teaching/experiment/?hitId=34KYK9TV2RUAD363EVFPUWVPB97SBP&workerId=A38240X9B0EBKE&assignmentId=3FK0YFF9P0270TJ749GWVE5QCT9VVL&a=9YKF7&tp_a=9YKF7&b=3FK0YFF9P0270TJ749GWVE5QCT9VVL&tp_b=3FK0YFF9P0270TJ749GWVE5QCT9VVL&c=365717&tp_c=365717","heads":1,"tails":0,"studentIndex":3,"studentTrueHypers":{"a":8,"b":2},"studentGuess":0.8181818181818182,"delta":0.018181818181818188,"totalExamples":1,"bonus":0.49,"bonusSoFar":1.09},{"rt":13121,"response":{"heads":"4","tails":"1"},"type":"response","condition":"nonSeqPartial","trueTheta":0.8,"classrooms":["C","D"],"studentTrueClassroom":"C","exampleSet":"first","trial_type":"survey-html-form","trial_index":48,"time_elapsed":770393,"internal_node_id":"0.0-37.0-0.0","params":{"nStudents":24,"maxFlips":30,"completionMinutes":45,"basePay":8,"maxBonus":9,"perTrialBonus":0.5,"perTrialBonusThreshold":0.05,"exampleCost":0.01},"classroomParams":{"A":{"a":1,"b":4},"B":{"a":4,"b":1},"C":{"a":2,"b":8},"D":{"a":8,"b":2}},"conditions":["nonSeqFull","nonSeqPartial","seqNoFeedback","seqFeedback"],"classroomPairings":[["A","B"],["C","D"]],"coinWeights":[0.2,0.5,0.8],"subjectId":"A38240X9B0EBKE","assignmentId":"3FK0YFF9P0270TJ749GWVE5QCT9VVL","hitId":"34KYK9TV2RUAD363EVFPUWVPB97SBP","url":"https://gershmanlab.com/experiments/alicia/teaching/experiment/?hitId=34KYK9TV2RUAD363EVFPUWVPB97SBP&workerId=A38240X9B0EBKE&assignmentId=3FK0YFF9P0270TJ749GWVE5QCT9VVL&a=9YKF7&tp_a=9YKF7&b=3FK0YFF9P0270TJ749GWVE5QCT9VVL&tp_b=3FK0YFF9P0270TJ749GWVE5QCT9VVL&c=365717&tp_c=365717","heads":4,"tails":1,"studentIndex":4,"studentTrueHypers":{"a":2,"b":8},"studentGuess":0.4,"delta":0.4,"totalExamples":5,"bonus":0,"bonusSoFar":1.09},{"rt":11507,"response":{"heads":"4","tails":"0"},"type":"response","condition":"seqFeedback","trueTheta":0.8,"classrooms":["C","D"],"studentTrueClassroom":"C","exampleSet":"first","trial_type":"survey-html-form","trial_index":54,"time_elapsed":805479,"internal_node_id":"0.0-43.0-0.0","params":{"nStudents":24,"maxFlips":30,"completionMinutes":45,"basePay":8,"maxBonus":9,"perTrialBonus":0.5,"perTrialBonusThreshold":0.05,"exampleCost":0.01},"classroomParams":{"A":{"a":1,"b":4},"B":{"a":4,"b":1},"C":{"a":2,"b":8},"D":{"a":8,"b":2}},"conditions":["nonSeqFull","nonSeqPartial","seqNoFeedback","seqFeedback"],"classroomPairings":[["A","B"],["C","D"]],"coinWeights":[0.2,0.5,0.8],"subjectId":"A38240X9B0EBKE","assignmentId":"3FK0YFF9P0270TJ749GWVE5QCT9VVL","hitId":"34KYK9TV2RUAD363EVFPUWVPB97SBP","url":"https://gershmanlab.com/experiments/alicia/teaching/experiment/?hitId=34KYK9TV2RUAD363EVFPUWVPB97SBP&workerId=A38240X9B0EBKE&assignmentId=3FK0YFF9P0270TJ749GWVE5QCT9VVL&a=9YKF7&tp_a=9YKF7&b=3FK0YFF9P0270TJ749GWVE5QCT9VVL&tp_b=3FK0YFF9P0270TJ749GWVE5QCT9VVL&c=365717&tp_c=365717","heads":4,"tails":0,"studentIndex":5,"studentTrueHypers":{"a":2,"b":8},"studentGuess":0.42857142857142855,"delta":0.3714285714285715,"totalExamples":4,"bonusSoFar":1.09},{"rt":10855,"response":{"heads":"8","tails":"0"},"type":"response","condition":"seqFeedback","trueTheta":0.8,"classrooms":["C","D"],"studentTrueClassroom":"C","exampleSet":"second","trial_type":"survey-html-form","trial_index":58,"time_elapsed":825832,"internal_node_id":"0.0-47.0-0.0","params":{"nStudents":24,"maxFlips":30,"completionMinutes":45,"basePay":8,"maxBonus":9,"perTrialBonus":0.5,"perTrialBonusThreshold":0.05,"exampleCost":0.01},"classroomParams":{"A":{"a":1,"b":4},"B":{"a":4,"b":1},"C":{"a":2,"b":8},"D":{"a":8,"b":2}},"conditions":["nonSeqFull","nonSeqPartial","seqNoFeedback","seqFeedback"],"classroomPairings":[["A","B"],["C","D"]],"coinWeights":[0.2,0.5,0.8],"subjectId":"A38240X9B0EBKE","assignmentId":"3FK0YFF9P0270TJ749GWVE5QCT9VVL","hitId":"34KYK9TV2RUAD363EVFPUWVPB97SBP","url":"https://gershmanlab.com/experiments/alicia/teaching/experiment/?hitId=34KYK9TV2RUAD363EVFPUWVPB97SBP&workerId=A38240X9B0EBKE&assignmentId=3FK0YFF9P0270TJ749GWVE5QCT9VVL&a=9YKF7&tp_a=9YKF7&b=3FK0YFF9P0270TJ749GWVE5QCT9VVL&tp_b=3FK0YFF9P0270TJ749GWVE5QCT9VVL&c=365717&tp_c=365717","firstResponseHeads":4,"firstResponseTails":0,"secondResponseHeads":8,"secondResponseTails":0,"totalHeads":12,"totalTails":0,"studentIndex":5,"studentTrueHypers":{"a":2,"b":8},"studentGuess":0.6363636363636364,"delta":0.1636363636363637,"bonus":0,"bonusSoFar":1.09,"totalExamples":12},{"rt":5683,"response":{"heads":"0","tails":"0"},"type":"response","condition":"seqFeedback","trueTheta":0.2,"classrooms":["A","B"],"studentTrueClassroom":"B","exampleSet":"first","trial_type":"survey-html-form","trial_index":64,"time_elapsed":849134,"internal_node_id":"0.0-53.0-0.0","params":{"nStudents":24,"maxFlips":30,"completionMinutes":45,"basePay":8,"maxBonus":9,"perTrialBonus":0.5,"perTrialBonusThreshold":0.05,"exampleCost":0.01},"classroomParams":{"A":{"a":1,"b":4},"B":{"a":4,"b":1},"C":{"a":2,"b":8},"D":{"a":8,"b":2}},"conditions":["nonSeqFull","nonSeqPartial","seqNoFeedback","seqFeedback"],"classroomPairings":[["A","B"],["C","D"]],"coinWeights":[0.2,0.5,0.8],"subjectId":"A38240X9B0EBKE","assignmentId":"3FK0YFF9P0270TJ749GWVE5QCT9VVL","hitId":"34KYK9TV2RUAD363EVFPUWVPB97SBP","url":"https://gershmanlab.com/experiments/alicia/teaching/experiment/?hitId=34KYK9TV2RUAD363EVFPUWVPB97SBP&workerId=A38240X9B0EBKE&assignmentId=3FK0YFF9P0270TJ749GWVE5QCT9VVL&a=9YKF7&tp_a=9YKF7&b=3FK0YFF9P0270TJ749GWVE5QCT9VVL&tp_b=3FK0YFF9P0270TJ749GWVE5QCT9VVL&c=365717&tp_c=365717","heads":0,"tails":0,"studentIndex":6,"studentTrueHypers":{"a":4,"b":1},"studentGuess":0.8,"delta":0.6000000000000001,"totalExamples":0,"bonusSoFar":1.09},{"rt":5673,"response":{"heads":"0","tails":"4"},"type":"response","condition":"seqFeedback","trueTheta":0.2,"classrooms":["A","B"],"studentTrueClassroom":"B","exampleSet":"first","trial_type":"survey-html-form","trial_index":65,"time_elapsed":854809,"internal_node_id":"0.0-53.1-0.1","params":{"nStudents":24,"maxFlips":30,"completionMinutes":45,"basePay":8,"maxBonus":9,"perTrialBonus":0.5,"perTrialBonusThreshold":0.05,"exampleCost":0.01},"classroomParams":{"A":{"a":1,"b":4},"B":{"a":4,"b":1},"C":{"a":2,"b":8},"D":{"a":8,"b":2}},"conditions":["nonSeqFull","nonSeqPartial","seqNoFeedback","seqFeedback"],"classroomPairings":[["A","B"],["C","D"]],"coinWeights":[0.2,0.5,0.8],"subjectId":"A38240X9B0EBKE","assignmentId":"3FK0YFF9P0270TJ749GWVE5QCT9VVL","hitId":"34KYK9TV2RUAD363EVFPUWVPB97SBP","url":"https://gershmanlab.com/experiments/alicia/teaching/experiment/?hitId=34KYK9TV2RUAD363EVFPUWVPB97SBP&workerId=A38240X9B0EBKE&assignmentId=3FK0YFF9P0270TJ749GWVE5QCT9VVL&a=9YKF7&tp_a=9YKF7&b=3FK0YFF9P0270TJ749GWVE5QCT9VVL&tp_b=3FK0YFF9P0270TJ749GWVE5QCT9VVL&c=365717&tp_c=365717","heads":0,"tails":4,"studentIndex":6,"studentTrueHypers":{"a":4,"b":1},"studentGuess":0.4444444444444444,"delta":0.2444444444444444,"totalExamples":4,"bonusSoFar":1.09},{"rt":13087,"response":{"heads":"1","tails":"10"},"type":"response","condition":"seqFeedback","trueTheta":0.2,"classrooms":["A","B"],"studentTrueClassroom":"B","exampleSet":"second","trial_type":"survey-html-form","trial_index":69,"time_elapsed":879365,"internal_node_id":"0.0-57.0-0.0","params":{"nStudents":24,"maxFlips":30,"completionMinutes":45,"basePay":8,"maxBonus":9,"perTrialBonus":0.5,"perTrialBonusThreshold":0.05,"exampleCost":0.01},"classroomParams":{"A":{"a":1,"b":4},"B":{"a":4,"b":1},"C":{"a":2,"b":8},"D":{"a":8,"b":2}},"conditions":["nonSeqFull","nonSeqPartial","seqNoFeedback","seqFeedback"],"classroomPairings":[["A","B"],["C","D"]],"coinWeights":[0.2,0.5,0.8],"subjectId":"A38240X9B0EBKE","assignmentId":"3FK0YFF9P0270TJ749GWVE5QCT9VVL","hitId":"34KYK9TV2RUAD363EVFPUWVPB97SBP","url":"https://gershmanlab.com/experiments/alicia/teaching/experiment/?hitId=34KYK9TV2RUAD363EVFPUWVPB97SBP&workerId=A38240X9B0EBKE&assignmentId=3FK0YFF9P0270TJ749GWVE5QCT9VVL&a=9YKF7&tp_a=9YKF7&b=3FK0YFF9P0270TJ749GWVE5QCT9VVL&tp_b=3FK0YFF9P0270TJ749GWVE5QCT9VVL&c=365717&tp_c=365717","firstResponseHeads":0,"firstResponseTails":0,"secondResponseHeads":1,"secondResponseTails":10,"totalHeads":1,"totalTails":10,"studentIndex":6,"studentTrueHypers":{"a":4,"b":1},"studentGuess":0.3125,"delta":0.11249999999999999,"bonus":0,"bonusSoFar":1.09,"totalExamples":11},{"rt":17148,"response":{"heads":"1","tails":"6"},"type":"response","condition":"nonSeqFull","trueTheta":0.5,"classrooms":["A","B"],"studentTrueClassroom":"B","exampleSet":"first","trial_type":"survey-html-form","trial_index":75,"time_elapsed":923641,"internal_node_id":"0.0-63.0-0.0","params":{"nStudents":24,"maxFlips":30,"completionMinutes":45,"basePay":8,"maxBonus":9,"perTrialBonus":0.5,"perTrialBonusThreshold":0.05,"exampleCost":0.01},"classroomParams":{"A":{"a":1,"b":4},"B":{"a":4,"b":1},"C":{"a":2,"b":8},"D":{"a":8,"b":2}},"conditions":["nonSeqFull","nonSeqPartial","seqNoFeedback","seqFeedback"],"classroomPairings":[["A","B"],["C","D"]],"coinWeights":[0.2,0.5,0.8],"subjectId":"A38240X9B0EBKE","assignmentId":"3FK0YFF9P0270TJ749GWVE5QCT9VVL","hitId":"34KYK9TV2RUAD363EVFPUWVPB97SBP","url":"https://gershmanlab.com/experiments/alicia/teaching/experiment/?hitId=34KYK9TV2RUAD363EVFPUWVPB97SBP&workerId=A38240X9B0EBKE&assignmentId=3FK0YFF9P0270TJ749GWVE5QCT9VVL&a=9YKF7&tp_a=9YKF7&b=3FK0YFF9P0270TJ749GWVE5QCT9VVL&tp_b=3FK0YFF9P0270TJ749GWVE5QCT9VVL&c=365717&tp_c=365717","heads":1,"tails":6,"studentIndex":7,"studentTrueHypers":{"a":4,"b":1},"studentGuess":0.4166666666666667,"delta":0.08333333333333331,"totalExamples":7,"bonus":0,"bonusSoFar":1.09},{"rt":12744,"response":{"heads":"4","tails":"0"},"type":"response","condition":"seqNoFeedback","trueTheta":0.8,"classrooms":["A","B"],"studentTrueClassroom":"A","exampleSet":"first","trial_type":"survey-html-form","trial_index":81,"time_elapsed":954600,"internal_node_id":"0.0-69.0-0.0","params":{"nStudents":24,"maxFlips":30,"completionMinutes":45,"basePay":8,"maxBonus":9,"perTrialBonus":0.5,"perTrialBonusThreshold":0.05,"exampleCost":0.01},"classroomParams":{"A":{"a":1,"b":4},"B":{"a":4,"b":1},"C":{"a":2,"b":8},"D":{"a":8,"b":2}},"conditions":["nonSeqFull","nonSeqPartial","seqNoFeedback","seqFeedback"],"classroomPairings":[["A","B"],["C","D"]],"coinWeights":[0.2,0.5,0.8],"subjectId":"A38240X9B0EBKE","assignmentId":"3FK0YFF9P0270TJ749GWVE5QCT9VVL","hitId":"34KYK9TV2RUAD363EVFPUWVPB97SBP","url":"https://gershmanlab.com/experiments/alicia/teaching/experiment/?hitId=34KYK9TV2RUAD363EVFPUWVPB97SBP&workerId=A38240X9B0EBKE&assignmentId=3FK0YFF9P0270TJ749GWVE5QCT9VVL&a=9YKF7&tp_a=9YKF7&b=3FK0YFF9P0270TJ749GWVE5QCT9VVL&tp_b=3FK0YFF9P0270TJ749GWVE5QCT9VVL&c=365717&tp_c=365717","heads":4,"tails":0,"studentIndex":8,"studentTrueHypers":{"a":1,"b":4},"studentGuess":0.5555555555555556,"delta":0.24444444444444446,"totalExamples":4,"bonusSoFar":1.09},{"rt":12009,"response":{"heads":"4","tails":"1"},"type":"response","condition":"seqNoFeedback","trueTheta":0.8,"classrooms":["A","B"],"studentTrueClassroom":"A","exampleSet":"second","trial_type":"survey-html-form","trial_index":84,"time_elapsed":972881,"internal_node_id":"0.0-72.0-0.0","params":{"nStudents":24,"maxFlips":30,"completionMinutes":45,"basePay":8,"maxBonus":9,"perTrialBonus":0.5,"perTrialBonusThreshold":0.05,"exampleCost":0.01},"classroomParams":{"A":{"a":1,"b":4},"B":{"a":4,"b":1},"C":{"a":2,"b":8},"D":{"a":8,"b":2}},"conditions":["nonSeqFull","nonSeqPartial","seqNoFeedback","seqFeedback"],"classroomPairings":[["A","B"],["C","D"]],"coinWeights":[0.2,0.5,0.8],"subjectId":"A38240X9B0EBKE","assignmentId":"3FK0YFF9P0270TJ749GWVE5QCT9VVL","hitId":"34KYK9TV2RUAD363EVFPUWVPB97SBP","url":"https://gershmanlab.com/experiments/alicia/teaching/experiment/?hitId=34KYK9TV2RUAD363EVFPUWVPB97SBP&workerId=A38240X9B0EBKE&assignmentId=3FK0YFF9P0270TJ749GWVE5QCT9VVL&a=9YKF7&tp_a=9YKF7&b=3FK0YFF9P0270TJ749GWVE5QCT9VVL&tp_b=3FK0YFF9P0270TJ749GWVE5QCT9VVL&c=365717&tp_c=365717","firstResponseHeads":4,"firstResponseTails":0,"secondResponseHeads":4,"secondResponseTails":1,"totalHeads":8,"totalTails":1,"studentIndex":8,"studentTrueHypers":{"a":1,"b":4},"studentGuess":0.6428571428571429,"delta":0.15714285714285714,"bonus":0,"bonusSoFar":1.09,"totalExamples":9},{"rt":7692,"response":{"heads":"0","tails":"10"},"type":"response","condition":"seqNoFeedback","trueTheta":0.2,"classrooms":["C","D"],"studentTrueClassroom":"C","exampleSet":"first","trial_type":"survey-html-form","trial_index":90,"time_elapsed":998412,"internal_node_id":"0.0-78.0-0.0","params":{"nStudents":24,"maxFlips":30,"completionMinutes":45,"basePay":8,"maxBonus":9,"perTrialBonus":0.5,"perTrialBonusThreshold":0.05,"exampleCost":0.01},"classroomParams":{"A":{"a":1,"b":4},"B":{"a":4,"b":1},"C":{"a":2,"b":8},"D":{"a":8,"b":2}},"conditions":["nonSeqFull","nonSeqPartial","seqNoFeedback","seqFeedback"],"classroomPairings":[["A","B"],["C","D"]],"coinWeights":[0.2,0.5,0.8],"subjectId":"A38240X9B0EBKE","assignmentId":"3FK0YFF9P0270TJ749GWVE5QCT9VVL","hitId":"34KYK9TV2RUAD363EVFPUWVPB97SBP","url":"https://gershmanlab.com/experiments/alicia/teaching/experiment/?hitId=34KYK9TV2RUAD363EVFPUWVPB97SBP&workerId=A38240X9B0EBKE&assignmentId=3FK0YFF9P0270TJ749GWVE5QCT9VVL&a=9YKF7&tp_a=9YKF7&b=3FK0YFF9P0270TJ749GWVE5QCT9VVL&tp_b=3FK0YFF9P0270TJ749GWVE5QCT9VVL&c=365717&tp_c=365717","heads":0,"tails":10,"studentIndex":9,"studentTrueHypers":{"a":2,"b":8},"studentGuess":0.1,"delta":0.1,"totalExamples":10,"bonusSoFar":1.09},{"rt":7989,"response":{"heads":"2","tails":"10"},"type":"response","condition":"seqNoFeedback","trueTheta":0.2,"classrooms":["C","D"],"studentTrueClassroom":"C","exampleSet":"second","trial_type":"survey-html-form","trial_index":93,"time_elapsed":1012673,"internal_node_id":"0.0-81.0-0.0","params":{"nStudents":24,"maxFlips":30,"completionMinutes":45,"basePay":8,"maxBonus":9,"perTrialBonus":0.5,"perTrialBonusThreshold":0.05,"exampleCost":0.01},"classroomParams":{"A":{"a":1,"b":4},"B":{"a":4,"b":1},"C":{"a":2,"b":8},"D":{"a":8,"b":2}},"conditions":["nonSeqFull","nonSeqPartial","seqNoFeedback","seqFeedback"],"classroomPairings":[["A","B"],["C","D"]],"coinWeights":[0.2,0.5,0.8],"subjectId":"A38240X9B0EBKE","assignmentId":"3FK0YFF9P0270TJ749GWVE5QCT9VVL","hitId":"34KYK9TV2RUAD363EVFPUWVPB97SBP","url":"https://gershmanlab.com/experiments/alicia/teaching/experiment/?hitId=34KYK9TV2RUAD363EVFPUWVPB97SBP&workerId=A38240X9B0EBKE&assignmentId=3FK0YFF9P0270TJ749GWVE5QCT9VVL&a=9YKF7&tp_a=9YKF7&b=3FK0YFF9P0270TJ749GWVE5QCT9VVL&tp_b=3FK0YFF9P0270TJ749GWVE5QCT9VVL&c=365717&tp_c=365717","firstResponseHeads":0,"firstResponseTails":10,"secondResponseHeads":2,"secondResponseTails":10,"totalHeads":2,"totalTails":20,"studentIndex":9,"studentTrueHypers":{"a":2,"b":8},"studentGuess":0.125,"delta":0.07500000000000001,"bonus":0,"bonusSoFar":1.09,"totalExamples":22},{"rt":6817,"response":{"heads":"1","tails":"4"},"type":"response","condition":"seqNoFeedback","trueTheta":0.2,"classrooms":["A","B"],"studentTrueClassroom":"B","exampleSet":"first","trial_type":"survey-html-form","trial_index":99,"time_elapsed":1033806,"internal_node_id":"0.0-87.0-0.0","params":{"nStudents":24,"maxFlips":30,"completionMinutes":45,"basePay":8,"maxBonus":9,"perTrialBonus":0.5,"perTrialBonusThreshold":0.05,"exampleCost":0.01},"classroomParams":{"A":{"a":1,"b":4},"B":{"a":4,"b":1},"C":{"a":2,"b":8},"D":{"a":8,"b":2}},"conditions":["nonSeqFull","nonSeqPartial","seqNoFeedback","seqFeedback"],"classroomPairings":[["A","B"],["C","D"]],"coinWeights":[0.2,0.5,0.8],"subjectId":"A38240X9B0EBKE","assignmentId":"3FK0YFF9P0270TJ749GWVE5QCT9VVL","hitId":"34KYK9TV2RUAD363EVFPUWVPB97SBP","url":"https://gershmanlab.com/experiments/alicia/teaching/experiment/?hitId=34KYK9TV2RUAD363EVFPUWVPB97SBP&workerId=A38240X9B0EBKE&assignmentId=3FK0YFF9P0270TJ749GWVE5QCT9VVL&a=9YKF7&tp_a=9YKF7&b=3FK0YFF9P0270TJ749GWVE5QCT9VVL&tp_b=3FK0YFF9P0270TJ749GWVE5QCT9VVL&c=365717&tp_c=365717","heads":1,"tails":4,"studentIndex":10,"studentTrueHypers":{"a":4,"b":1},"studentGuess":0.5,"delta":0.3,"totalExamples":5,"bonusSoFar":1.09},{"rt":8743,"response":{"heads":"2","tails":"8"},"type":"response","condition":"seqNoFeedback","trueTheta":0.2,"classrooms":["A","B"],"studentTrueClassroom":"B","exampleSet":"second","trial_type":"survey-html-form","trial_index":102,"time_elapsed":1047818,"internal_node_id":"0.0-90.0-0.0","params":{"nStudents":24,"maxFlips":30,"completionMinutes":45,"basePay":8,"maxBonus":9,"perTrialBonus":0.5,"perTrialBonusThreshold":0.05,"exampleCost":0.01},"classroomParams":{"A":{"a":1,"b":4},"B":{"a":4,"b":1},"C":{"a":2,"b":8},"D":{"a":8,"b":2}},"conditions":["nonSeqFull","nonSeqPartial","seqNoFeedback","seqFeedback"],"classroomPairings":[["A","B"],["C","D"]],"coinWeights":[0.2,0.5,0.8],"subjectId":"A38240X9B0EBKE","assignmentId":"3FK0YFF9P0270TJ749GWVE5QCT9VVL","hitId":"34KYK9TV2RUAD363EVFPUWVPB97SBP","url":"https://gershmanlab.com/experiments/alicia/teaching/experiment/?hitId=34KYK9TV2RUAD363EVFPUWVPB97SBP&workerId=A38240X9B0EBKE&assignmentId=3FK0YFF9P0270TJ749GWVE5QCT9VVL&a=9YKF7&tp_a=9YKF7&b=3FK0YFF9P0270TJ749GWVE5QCT9VVL&tp_b=3FK0YFF9P0270TJ749GWVE5QCT9VVL&c=365717&tp_c=365717","firstResponseHeads":1,"firstResponseTails":4,"secondResponseHeads":2,"secondResponseTails":8,"totalHeads":3,"totalTails":12,"studentIndex":10,"studentTrueHypers":{"a":4,"b":1},"studentGuess":0.35,"delta":0.14999999999999997,"bonus":0,"bonusSoFar":1.09,"totalExamples":15},{"rt":8501,"response":{"heads":"1","tails":"4"},"type":"response","condition":"seqFeedback","trueTheta":0.2,"classrooms":["C","D"],"studentTrueClassroom":"D","exampleSet":"first","trial_type":"survey-html-form","trial_index":108,"time_elapsed":1072237,"internal_node_id":"0.0-96.0-0.0","params":{"nStudents":24,"maxFlips":30,"completionMinutes":45,"basePay":8,"maxBonus":9,"perTrialBonus":0.5,"perTrialBonusThreshold":0.05,"exampleCost":0.01},"classroomParams":{"A":{"a":1,"b":4},"B":{"a":4,"b":1},"C":{"a":2,"b":8},"D":{"a":8,"b":2}},"conditions":["nonSeqFull","nonSeqPartial","seqNoFeedback","seqFeedback"],"classroomPairings":[["A","B"],["C","D"]],"coinWeights":[0.2,0.5,0.8],"subjectId":"A38240X9B0EBKE","assignmentId":"3FK0YFF9P0270TJ749GWVE5QCT9VVL","hitId":"34KYK9TV2RUAD363EVFPUWVPB97SBP","url":"https://gershmanlab.com/experiments/alicia/teaching/experiment/?hitId=34KYK9TV2RUAD363EVFPUWVPB97SBP&workerId=A38240X9B0EBKE&assignmentId=3FK0YFF9P0270TJ749GWVE5QCT9VVL&a=9YKF7&tp_a=9YKF7&b=3FK0YFF9P0270TJ749GWVE5QCT9VVL&tp_b=3FK0YFF9P0270TJ749GWVE5QCT9VVL&c=365717&tp_c=365717","heads":1,"tails":4,"studentIndex":11,"studentTrueHypers":{"a":8,"b":2},"studentGuess":0.6,"delta":0.39999999999999997,"totalExamples":5,"bonusSoFar":1.09},{"rt":19183,"response":{"heads":"1","tails":"15"},"type":"response","condition":"seqFeedback","trueTheta":0.2,"classrooms":["C","D"],"studentTrueClassroom":"D","exampleSet":"second","trial_type":"survey-html-form","trial_index":112,"time_elapsed":1103440,"internal_node_id":"0.0-100.0-0.0","params":{"nStudents":24,"maxFlips":30,"completionMinutes":45,"basePay":8,"maxBonus":9,"perTrialBonus":0.5,"perTrialBonusThreshold":0.05,"exampleCost":0.01},"classroomParams":{"A":{"a":1,"b":4},"B":{"a":4,"b":1},"C":{"a":2,"b":8},"D":{"a":8,"b":2}},"conditions":["nonSeqFull","nonSeqPartial","seqNoFeedback","seqFeedback"],"classroomPairings":[["A","B"],["C","D"]],"coinWeights":[0.2,0.5,0.8],"subjectId":"A38240X9B0EBKE","assignmentId":"3FK0YFF9P0270TJ749GWVE5QCT9VVL","hitId":"34KYK9TV2RUAD363EVFPUWVPB97SBP","url":"https://gershmanlab.com/experiments/alicia/teaching/experiment/?hitId=34KYK9TV2RUAD363EVFPUWVPB97SBP&workerId=A38240X9B0EBKE&assignmentId=3FK0YFF9P0270TJ749GWVE5QCT9VVL&a=9YKF7&tp_a=9YKF7&b=3FK0YFF9P0270TJ749GWVE5QCT9VVL&tp_b=3FK0YFF9P0270TJ749GWVE5QCT9VVL&c=365717&tp_c=365717","firstResponseHeads":1,"firstResponseTails":4,"secondResponseHeads":1,"secondResponseTails":15,"totalHeads":2,"totalTails":19,"studentIndex":11,"studentTrueHypers":{"a":8,"b":2},"studentGuess":0.3225806451612903,"delta":0.1225806451612903,"bonus":0,"bonusSoFar":1.09,"totalExamples":21},{"rt":12224,"response":{"heads":"20","tails":"1"},"type":"response","condition":"nonSeqFull","trueTheta":0.8,"classrooms":["A","B"],"studentTrueClassroom":"A","exampleSet":"first","trial_type":"survey-html-form","trial_index":118,"time_elapsed":1128636,"internal_node_id":"0.0-106.0-0.0","params":{"nStudents":24,"maxFlips":30,"completionMinutes":45,"basePay":8,"maxBonus":9,"perTrialBonus":0.5,"perTrialBonusThreshold":0.05,"exampleCost":0.01},"classroomParams":{"A":{"a":1,"b":4},"B":{"a":4,"b":1},"C":{"a":2,"b":8},"D":{"a":8,"b":2}},"conditions":["nonSeqFull","nonSeqPartial","seqNoFeedback","seqFeedback"],"classroomPairings":[["A","B"],["C","D"]],"coinWeights":[0.2,0.5,0.8],"subjectId":"A38240X9B0EBKE","assignmentId":"3FK0YFF9P0270TJ749GWVE5QCT9VVL","hitId":"34KYK9TV2RUAD363EVFPUWVPB97SBP","url":"https://gershmanlab.com/experiments/alicia/teaching/experiment/?hitId=34KYK9TV2RUAD363EVFPUWVPB97SBP&workerId=A38240X9B0EBKE&assignmentId=3FK0YFF9P0270TJ749GWVE5QCT9VVL&a=9YKF7&tp_a=9YKF7&b=3FK0YFF9P0270TJ749GWVE5QCT9VVL&tp_b=3FK0YFF9P0270TJ749GWVE5QCT9VVL&c=365717&tp_c=365717","heads":20,"tails":1,"studentIndex":12,"studentTrueHypers":{"a":1,"b":4},"studentGuess":0.8076923076923077,"delta":0.007692307692307665,"totalExamples":21,"bonus":0.29,"bonusSoFar":1.38},{"rt":11355,"response":{"heads":"10","tails":"10"},"type":"response","condition":"nonSeqPartial","trueTheta":0.5,"classrooms":["A","B"],"studentTrueClassroom":"A","exampleSet":"first","trial_type":"survey-html-form","trial_index":124,"time_elapsed":1153698,"internal_node_id":"0.0-112.0-0.0","params":{"nStudents":24,"maxFlips":30,"completionMinutes":45,"basePay":8,"maxBonus":9,"perTrialBonus":0.5,"perTrialBonusThreshold":0.05,"exampleCost":0.01},"classroomParams":{"A":{"a":1,"b":4},"B":{"a":4,"b":1},"C":{"a":2,"b":8},"D":{"a":8,"b":2}},"conditions":["nonSeqFull","nonSeqPartial","seqNoFeedback","seqFeedback"],"classroomPairings":[["A","B"],["C","D"]],"coinWeights":[0.2,0.5,0.8],"subjectId":"A38240X9B0EBKE","assignmentId":"3FK0YFF9P0270TJ749GWVE5QCT9VVL","hitId":"34KYK9TV2RUAD363EVFPUWVPB97SBP","url":"https://gershmanlab.com/experiments/alicia/teaching/experiment/?hitId=34KYK9TV2RUAD363EVFPUWVPB97SBP&workerId=A38240X9B0EBKE&assignmentId=3FK0YFF9P0270TJ749GWVE5QCT9VVL&a=9YKF7&tp_a=9YKF7&b=3FK0YFF9P0270TJ749GWVE5QCT9VVL&tp_b=3FK0YFF9P0270TJ749GWVE5QCT9VVL&c=365717&tp_c=365717","heads":10,"tails":10,"studentIndex":13,"studentTrueHypers":{"a":1,"b":4},"studentGuess":0.44,"delta":0.06,"totalExamples":20,"bonus":0,"bonusSoFar":1.38},{"rt":5193,"response":{"heads":"2","tails":"2"},"type":"response","condition":"seqFeedback","trueTheta":0.5,"classrooms":["A","B"],"studentTrueClassroom":"A","exampleSet":"first","trial_type":"survey-html-form","trial_index":130,"time_elapsed":1174543,"internal_node_id":"0.0-118.0-0.0","params":{"nStudents":24,"maxFlips":30,"completionMinutes":45,"basePay":8,"maxBonus":9,"perTrialBonus":0.5,"perTrialBonusThreshold":0.05,"exampleCost":0.01},"classroomParams":{"A":{"a":1,"b":4},"B":{"a":4,"b":1},"C":{"a":2,"b":8},"D":{"a":8,"b":2}},"conditions":["nonSeqFull","nonSeqPartial","seqNoFeedback","seqFeedback"],"classroomPairings":[["A","B"],["C","D"]],"coinWeights":[0.2,0.5,0.8],"subjectId":"A38240X9B0EBKE","assignmentId":"3FK0YFF9P0270TJ749GWVE5QCT9VVL","hitId":"34KYK9TV2RUAD363EVFPUWVPB97SBP","url":"https://gershmanlab.com/experiments/alicia/teaching/experiment/?hitId=34KYK9TV2RUAD363EVFPUWVPB97SBP&workerId=A38240X9B0EBKE&assignmentId=3FK0YFF9P0270TJ749GWVE5QCT9VVL&a=9YKF7&tp_a=9YKF7&b=3FK0YFF9P0270TJ749GWVE5QCT9VVL&tp_b=3FK0YFF9P0270TJ749GWVE5QCT9VVL&c=365717&tp_c=365717","heads":2,"tails":2,"studentIndex":14,"studentTrueHypers":{"a":1,"b":4},"studentGuess":0.3333333333333333,"delta":0.16666666666666669,"totalExamples":4,"bonusSoFar":1.38},{"rt":12347,"response":{"heads":"8","tails":"2"},"type":"response","condition":"seqFeedback","trueTheta":0.5,"classrooms":["A","B"],"studentTrueClassroom":"A","exampleSet":"second","trial_type":"survey-html-form","trial_index":134,"time_elapsed":1195338,"internal_node_id":"0.0-122.0-0.0","params":{"nStudents":24,"maxFlips":30,"completionMinutes":45,"basePay":8,"maxBonus":9,"perTrialBonus":0.5,"perTrialBonusThreshold":0.05,"exampleCost":0.01},"classroomParams":{"A":{"a":1,"b":4},"B":{"a":4,"b":1},"C":{"a":2,"b":8},"D":{"a":8,"b":2}},"conditions":["nonSeqFull","nonSeqPartial","seqNoFeedback","seqFeedback"],"classroomPairings":[["A","B"],["C","D"]],"coinWeights":[0.2,0.5,0.8],"subjectId":"A38240X9B0EBKE","assignmentId":"3FK0YFF9P0270TJ749GWVE5QCT9VVL","hitId":"34KYK9TV2RUAD363EVFPUWVPB97SBP","url":"https://gershmanlab.com/experiments/alicia/teaching/experiment/?hitId=34KYK9TV2RUAD363EVFPUWVPB97SBP&workerId=A38240X9B0EBKE&assignmentId=3FK0YFF9P0270TJ749GWVE5QCT9VVL&a=9YKF7&tp_a=9YKF7&b=3FK0YFF9P0270TJ749GWVE5QCT9VVL&tp_b=3FK0YFF9P0270TJ749GWVE5QCT9VVL&c=365717&tp_c=365717","firstResponseHeads":2,"firstResponseTails":2,"secondResponseHeads":8,"secondResponseTails":2,"totalHeads":10,"totalTails":4,"studentIndex":14,"studentTrueHypers":{"a":1,"b":4},"studentGuess":0.5789473684210527,"delta":0.07894736842105265,"bonus":0,"bonusSoFar":1.38,"totalExamples":14},{"rt":4890,"response":{"heads":"15","tails":"15"},"type":"response","condition":"seqNoFeedback","trueTheta":0.5,"classrooms":["A","B"],"studentTrueClassroom":"A","exampleSet":"first","trial_type":"survey-html-form","trial_index":140,"time_elapsed":1216131,"internal_node_id":"0.0-128.0-0.0","params":{"nStudents":24,"maxFlips":30,"completionMinutes":45,"basePay":8,"maxBonus":9,"perTrialBonus":0.5,"perTrialBonusThreshold":0.05,"exampleCost":0.01},"classroomParams":{"A":{"a":1,"b":4},"B":{"a":4,"b":1},"C":{"a":2,"b":8},"D":{"a":8,"b":2}},"conditions":["nonSeqFull","nonSeqPartial","seqNoFeedback","seqFeedback"],"classroomPairings":[["A","B"],["C","D"]],"coinWeights":[0.2,0.5,0.8],"subjectId":"A38240X9B0EBKE","assignmentId":"3FK0YFF9P0270TJ749GWVE5QCT9VVL","hitId":"34KYK9TV2RUAD363EVFPUWVPB97SBP","url":"https://gershmanlab.com/experiments/alicia/teaching/experiment/?hitId=34KYK9TV2RUAD363EVFPUWVPB97SBP&workerId=A38240X9B0EBKE&assignmentId=3FK0YFF9P0270TJ749GWVE5QCT9VVL&a=9YKF7&tp_a=9YKF7&b=3FK0YFF9P0270TJ749GWVE5QCT9VVL&tp_b=3FK0YFF9P0270TJ749GWVE5QCT9VVL&c=365717&tp_c=365717","heads":15,"tails":15,"studentIndex":15,"studentTrueHypers":{"a":1,"b":4},"studentGuess":0.45714285714285713,"delta":0.04285714285714287,"totalExamples":30,"bonusSoFar":1.38},{"rt":5944,"response":{"heads":"2","tails":"2"},"type":"response","condition":"seqNoFeedback","trueTheta":0.5,"classrooms":["A","B"],"studentTrueClassroom":"A","exampleSet":"second","trial_type":"survey-html-form","trial_index":143,"time_elapsed":1227599,"internal_node_id":"0.0-131.0-0.0","params":{"nStudents":24,"maxFlips":30,"completionMinutes":45,"basePay":8,"maxBonus":9,"perTrialBonus":0.5,"perTrialBonusThreshold":0.05,"exampleCost":0.01},"classroomParams":{"A":{"a":1,"b":4},"B":{"a":4,"b":1},"C":{"a":2,"b":8},"D":{"a":8,"b":2}},"conditions":["nonSeqFull","nonSeqPartial","seqNoFeedback","seqFeedback"],"classroomPairings":[["A","B"],["C","D"]],"coinWeights":[0.2,0.5,0.8],"subjectId":"A38240X9B0EBKE","assignmentId":"3FK0YFF9P0270TJ749GWVE5QCT9VVL","hitId":"34KYK9TV2RUAD363EVFPUWVPB97SBP","url":"https://gershmanlab.com/experiments/alicia/teaching/experiment/?hitId=34KYK9TV2RUAD363EVFPUWVPB97SBP&workerId=A38240X9B0EBKE&assignmentId=3FK0YFF9P0270TJ749GWVE5QCT9VVL&a=9YKF7&tp_a=9YKF7&b=3FK0YFF9P0270TJ749GWVE5QCT9VVL&tp_b=3FK0YFF9P0270TJ749GWVE5QCT9VVL&c=365717&tp_c=365717","firstResponseHeads":15,"firstResponseTails":15,"secondResponseHeads":2,"secondResponseTails":2,"totalHeads":17,"totalTails":17,"studentIndex":15,"studentTrueHypers":{"a":1,"b":4},"studentGuess":0.46153846153846156,"delta":0.038461538461538436,"bonus":0.16,"bonusSoFar":1.54,"totalExamples":34},{"rt":6615,"response":{"heads":"0","tails":"25"},"type":"response","condition":"nonSeqFull","trueTheta":0.2,"classrooms":["A","B"],"studentTrueClassroom":"B","exampleSet":"first","trial_type":"survey-html-form","trial_index":149,"time_elapsed":1248693,"internal_node_id":"0.0-137.0-0.0","params":{"nStudents":24,"maxFlips":30,"completionMinutes":45,"basePay":8,"maxBonus":9,"perTrialBonus":0.5,"perTrialBonusThreshold":0.05,"exampleCost":0.01},"classroomParams":{"A":{"a":1,"b":4},"B":{"a":4,"b":1},"C":{"a":2,"b":8},"D":{"a":8,"b":2}},"conditions":["nonSeqFull","nonSeqPartial","seqNoFeedback","seqFeedback"],"classroomPairings":[["A","B"],["C","D"]],"coinWeights":[0.2,0.5,0.8],"subjectId":"A38240X9B0EBKE","assignmentId":"3FK0YFF9P0270TJ749GWVE5QCT9VVL","hitId":"34KYK9TV2RUAD363EVFPUWVPB97SBP","url":"https://gershmanlab.com/experiments/alicia/teaching/experiment/?hitId=34KYK9TV2RUAD363EVFPUWVPB97SBP&workerId=A38240X9B0EBKE&assignmentId=3FK0YFF9P0270TJ749GWVE5QCT9VVL&a=9YKF7&tp_a=9YKF7&b=3FK0YFF9P0270TJ749GWVE5QCT9VVL&tp_b=3FK0YFF9P0270TJ749GWVE5QCT9VVL&c=365717&tp_c=365717","heads":0,"tails":25,"studentIndex":16,"studentTrueHypers":{"a":4,"b":1},"studentGuess":0.13333333333333333,"delta":0.06666666666666668,"totalExamples":25,"bonus":0,"bonusSoFar":1.54},{"rt":9531,"response":{"heads":"0","tails":"8"},"type":"response","condition":"nonSeqPartial","trueTheta":0.2,"classrooms":["A","B"],"studentTrueClassroom":"B","exampleSet":"first","trial_type":"survey-html-form","trial_index":155,"time_elapsed":1270814,"internal_node_id":"0.0-143.0-0.0","params":{"nStudents":24,"maxFlips":30,"completionMinutes":45,"basePay":8,"maxBonus":9,"perTrialBonus":0.5,"perTrialBonusThreshold":0.05,"exampleCost":0.01},"classroomParams":{"A":{"a":1,"b":4},"B":{"a":4,"b":1},"C":{"a":2,"b":8},"D":{"a":8,"b":2}},"conditions":["nonSeqFull","nonSeqPartial","seqNoFeedback","seqFeedback"],"classroomPairings":[["A","B"],["C","D"]],"coinWeights":[0.2,0.5,0.8],"subjectId":"A38240X9B0EBKE","assignmentId":"3FK0YFF9P0270TJ749GWVE5QCT9VVL","hitId":"34KYK9TV2RUAD363EVFPUWVPB97SBP","url":"https://gershmanlab.com/experiments/alicia/teaching/experiment/?hitId=34KYK9TV2RUAD363EVFPUWVPB97SBP&workerId=A38240X9B0EBKE&assignmentId=3FK0YFF9P0270TJ749GWVE5QCT9VVL&a=9YKF7&tp_a=9YKF7&b=3FK0YFF9P0270TJ749GWVE5QCT9VVL&tp_b=3FK0YFF9P0270TJ749GWVE5QCT9VVL&c=365717&tp_c=365717","heads":0,"tails":8,"studentIndex":17,"studentTrueHypers":{"a":4,"b":1},"studentGuess":0.3076923076923077,"delta":0.1076923076923077,"totalExamples":8,"bonus":0,"bonusSoFar":1.54},{"rt":12342,"response":{"heads":"4","tails":"8"},"type":"response","condition":"nonSeqFull","trueTheta":0.5,"classrooms":["C","D"],"studentTrueClassroom":"D","exampleSet":"first","trial_type":"survey-html-form","trial_index":161,"time_elapsed":1296072,"internal_node_id":"0.0-149.0-0.0","params":{"nStudents":24,"maxFlips":30,"completionMinutes":45,"basePay":8,"maxBonus":9,"perTrialBonus":0.5,"perTrialBonusThreshold":0.05,"exampleCost":0.01},"classroomParams":{"A":{"a":1,"b":4},"B":{"a":4,"b":1},"C":{"a":2,"b":8},"D":{"a":8,"b":2}},"conditions":["nonSeqFull","nonSeqPartial","seqNoFeedback","seqFeedback"],"classroomPairings":[["A","B"],["C","D"]],"coinWeights":[0.2,0.5,0.8],"subjectId":"A38240X9B0EBKE","assignmentId":"3FK0YFF9P0270TJ749GWVE5QCT9VVL","hitId":"34KYK9TV2RUAD363EVFPUWVPB97SBP","url":"https://gershmanlab.com/experiments/alicia/teaching/experiment/?hitId=34KYK9TV2RUAD363EVFPUWVPB97SBP&workerId=A38240X9B0EBKE&assignmentId=3FK0YFF9P0270TJ749GWVE5QCT9VVL&a=9YKF7&tp_a=9YKF7&b=3FK0YFF9P0270TJ749GWVE5QCT9VVL&tp_b=3FK0YFF9P0270TJ749GWVE5QCT9VVL&c=365717&tp_c=365717","heads":4,"tails":8,"studentIndex":18,"studentTrueHypers":{"a":8,"b":2},"studentGuess":0.5454545454545454,"delta":0.045454545454545414,"totalExamples":12,"bonus":0.38,"bonusSoFar":1.92},{"rt":6074,"response":{"heads":"8","tails":"2"},"type":"response","condition":"seqNoFeedback","trueTheta":0.8,"classrooms":["C","D"],"studentTrueClassroom":"D","exampleSet":"first","trial_type":"survey-html-form","trial_index":167,"time_elapsed":1316839,"internal_node_id":"0.0-155.0-0.0","params":{"nStudents":24,"maxFlips":30,"completionMinutes":45,"basePay":8,"maxBonus":9,"perTrialBonus":0.5,"perTrialBonusThreshold":0.05,"exampleCost":0.01},"classroomParams":{"A":{"a":1,"b":4},"B":{"a":4,"b":1},"C":{"a":2,"b":8},"D":{"a":8,"b":2}},"conditions":["nonSeqFull","nonSeqPartial","seqNoFeedback","seqFeedback"],"classroomPairings":[["A","B"],["C","D"]],"coinWeights":[0.2,0.5,0.8],"subjectId":"A38240X9B0EBKE","assignmentId":"3FK0YFF9P0270TJ749GWVE5QCT9VVL","hitId":"34KYK9TV2RUAD363EVFPUWVPB97SBP","url":"https://gershmanlab.com/experiments/alicia/teaching/experiment/?hitId=34KYK9TV2RUAD363EVFPUWVPB97SBP&workerId=A38240X9B0EBKE&assignmentId=3FK0YFF9P0270TJ749GWVE5QCT9VVL&a=9YKF7&tp_a=9YKF7&b=3FK0YFF9P0270TJ749GWVE5QCT9VVL&tp_b=3FK0YFF9P0270TJ749GWVE5QCT9VVL&c=365717&tp_c=365717","heads":8,"tails":2,"studentIndex":19,"studentTrueHypers":{"a":8,"b":2},"studentGuess":0.8,"delta":0,"totalExamples":10,"bonusSoFar":1.92},{"rt":5977,"response":{"heads":"8","tails":"2"},"type":"response","condition":"seqNoFeedback","trueTheta":0.8,"classrooms":["C","D"],"studentTrueClassroom":"D","exampleSet":"second","trial_type":"survey-html-form","trial_index":170,"time_elapsed":1330331,"internal_node_id":"0.0-158.0-0.0","params":{"nStudents":24,"maxFlips":30,"completionMinutes":45,"basePay":8,"maxBonus":9,"perTrialBonus":0.5,"perTrialBonusThreshold":0.05,"exampleCost":0.01},"classroomParams":{"A":{"a":1,"b":4},"B":{"a":4,"b":1},"C":{"a":2,"b":8},"D":{"a":8,"b":2}},"conditions":["nonSeqFull","nonSeqPartial","seqNoFeedback","seqFeedback"],"classroomPairings":[["A","B"],["C","D"]],"coinWeights":[0.2,0.5,0.8],"subjectId":"A38240X9B0EBKE","assignmentId":"3FK0YFF9P0270TJ749GWVE5QCT9VVL","hitId":"34KYK9TV2RUAD363EVFPUWVPB97SBP","url":"https://gershmanlab.com/experiments/alicia/teaching/experiment/?hitId=34KYK9TV2RUAD363EVFPUWVPB97SBP&workerId=A38240X9B0EBKE&assignmentId=3FK0YFF9P0270TJ749GWVE5QCT9VVL&a=9YKF7&tp_a=9YKF7&b=3FK0YFF9P0270TJ749GWVE5QCT9VVL&tp_b=3FK0YFF9P0270TJ749GWVE5QCT9VVL&c=365717&tp_c=365717","firstResponseHeads":8,"firstResponseTails":2,"secondResponseHeads":8,"secondResponseTails":2,"totalHeads":16,"totalTails":4,"studentIndex":19,"studentTrueHypers":{"a":8,"b":2},"studentGuess":0.8,"delta":0,"bonus":0.3,"bonusSoFar":2.22,"totalExamples":20},{"rt":18275,"response":{"heads":"6","tails":"6"},"type":"response","condition":"seqFeedback","trueTheta":0.5,"classrooms":["C","D"],"studentTrueClassroom":"C","exampleSet":"first","trial_type":"survey-html-form","trial_index":176,"time_elapsed":1363730,"internal_node_id":"0.0-164.0-0.0","params":{"nStudents":24,"maxFlips":30,"completionMinutes":45,"basePay":8,"maxBonus":9,"perTrialBonus":0.5,"perTrialBonusThreshold":0.05,"exampleCost":0.01},"classroomParams":{"A":{"a":1,"b":4},"B":{"a":4,"b":1},"C":{"a":2,"b":8},"D":{"a":8,"b":2}},"conditions":["nonSeqFull","nonSeqPartial","seqNoFeedback","seqFeedback"],"classroomPairings":[["A","B"],["C","D"]],"coinWeights":[0.2,0.5,0.8],"subjectId":"A38240X9B0EBKE","assignmentId":"3FK0YFF9P0270TJ749GWVE5QCT9VVL","hitId":"34KYK9TV2RUAD363EVFPUWVPB97SBP","url":"https://gershmanlab.com/experiments/alicia/teaching/experiment/?hitId=34KYK9TV2RUAD363EVFPUWVPB97SBP&workerId=A38240X9B0EBKE&assignmentId=3FK0YFF9P0270TJ749GWVE5QCT9VVL&a=9YKF7&tp_a=9YKF7&b=3FK0YFF9P0270TJ749GWVE5QCT9VVL&tp_b=3FK0YFF9P0270TJ749GWVE5QCT9VVL&c=365717&tp_c=365717","heads":6,"tails":6,"studentIndex":20,"studentTrueHypers":{"a":2,"b":8},"studentGuess":0.36363636363636365,"delta":0.13636363636363635,"totalExamples":12,"bonusSoFar":2.22},{"rt":5661,"response":{"heads":"6","tails":"1"},"type":"response","condition":"seqFeedback","trueTheta":0.5,"classrooms":["C","D"],"studentTrueClassroom":"C","exampleSet":"second","trial_type":"survey-html-form","trial_index":180,"time_elapsed":1382054,"internal_node_id":"0.0-168.0-0.0","params":{"nStudents":24,"maxFlips":30,"completionMinutes":45,"basePay":8,"maxBonus":9,"perTrialBonus":0.5,"perTrialBonusThreshold":0.05,"exampleCost":0.01},"classroomParams":{"A":{"a":1,"b":4},"B":{"a":4,"b":1},"C":{"a":2,"b":8},"D":{"a":8,"b":2}},"conditions":["nonSeqFull","nonSeqPartial","seqNoFeedback","seqFeedback"],"classroomPairings":[["A","B"],["C","D"]],"coinWeights":[0.2,0.5,0.8],"subjectId":"A38240X9B0EBKE","assignmentId":"3FK0YFF9P0270TJ749GWVE5QCT9VVL","hitId":"34KYK9TV2RUAD363EVFPUWVPB97SBP","url":"https://gershmanlab.com/experiments/alicia/teaching/experiment/?hitId=34KYK9TV2RUAD363EVFPUWVPB97SBP&workerId=A38240X9B0EBKE&assignmentId=3FK0YFF9P0270TJ749GWVE5QCT9VVL&a=9YKF7&tp_a=9YKF7&b=3FK0YFF9P0270TJ749GWVE5QCT9VVL&tp_b=3FK0YFF9P0270TJ749GWVE5QCT9VVL&c=365717&tp_c=365717","firstResponseHeads":6,"firstResponseTails":6,"secondResponseHeads":6,"secondResponseTails":1,"totalHeads":12,"totalTails":7,"studentIndex":20,"studentTrueHypers":{"a":2,"b":8},"studentGuess":0.4827586206896552,"delta":0.017241379310344807,"bonus":0.31,"bonusSoFar":2.53,"totalExamples":19},{"rt":7247,"response":{"heads":"8","tails":"1"},"type":"response","condition":"nonSeqPartial","trueTheta":0.8,"classrooms":["A","B"],"studentTrueClassroom":"B","exampleSet":"first","trial_type":"survey-html-form","trial_index":186,"time_elapsed":1405889,"internal_node_id":"0.0-174.0-0.0","params":{"nStudents":24,"maxFlips":30,"completionMinutes":45,"basePay":8,"maxBonus":9,"perTrialBonus":0.5,"perTrialBonusThreshold":0.05,"exampleCost":0.01},"classroomParams":{"A":{"a":1,"b":4},"B":{"a":4,"b":1},"C":{"a":2,"b":8},"D":{"a":8,"b":2}},"conditions":["nonSeqFull","nonSeqPartial","seqNoFeedback","seqFeedback"],"classroomPairings":[["A","B"],["C","D"]],"coinWeights":[0.2,0.5,0.8],"subjectId":"A38240X9B0EBKE","assignmentId":"3FK0YFF9P0270TJ749GWVE5QCT9VVL","hitId":"34KYK9TV2RUAD363EVFPUWVPB97SBP","url":"https://gershmanlab.com/experiments/alicia/teaching/experiment/?hitId=34KYK9TV2RUAD363EVFPUWVPB97SBP&workerId=A38240X9B0EBKE&assignmentId=3FK0YFF9P0270TJ749GWVE5QCT9VVL&a=9YKF7&tp_a=9YKF7&b=3FK0YFF9P0270TJ749GWVE5QCT9VVL&tp_b=3FK0YFF9P0270TJ749GWVE5QCT9VVL&c=365717&tp_c=365717","heads":8,"tails":1,"studentIndex":21,"studentTrueHypers":{"a":4,"b":1},"studentGuess":0.8571428571428571,"delta":0.05714285714285705,"totalExamples":9,"bonus":0,"bonusSoFar":2.53},{"rt":8460,"response":{"heads":"1","tails":"4"},"type":"response","condition":"nonSeqFull","trueTheta":0.2,"classrooms":["C","D"],"studentTrueClassroom":"C","exampleSet":"first","trial_type":"survey-html-form","trial_index":192,"time_elapsed":1430030,"internal_node_id":"0.0-180.0-0.0","params":{"nStudents":24,"maxFlips":30,"completionMinutes":45,"basePay":8,"maxBonus":9,"perTrialBonus":0.5,"perTrialBonusThreshold":0.05,"exampleCost":0.01},"classroomParams":{"A":{"a":1,"b":4},"B":{"a":4,"b":1},"C":{"a":2,"b":8},"D":{"a":8,"b":2}},"conditions":["nonSeqFull","nonSeqPartial","seqNoFeedback","seqFeedback"],"classroomPairings":[["A","B"],["C","D"]],"coinWeights":[0.2,0.5,0.8],"subjectId":"A38240X9B0EBKE","assignmentId":"3FK0YFF9P0270TJ749GWVE5QCT9VVL","hitId":"34KYK9TV2RUAD363EVFPUWVPB97SBP","url":"https://gershmanlab.com/experiments/alicia/teaching/experiment/?hitId=34KYK9TV2RUAD363EVFPUWVPB97SBP&workerId=A38240X9B0EBKE&assignmentId=3FK0YFF9P0270TJ749GWVE5QCT9VVL&a=9YKF7&tp_a=9YKF7&b=3FK0YFF9P0270TJ749GWVE5QCT9VVL&tp_b=3FK0YFF9P0270TJ749GWVE5QCT9VVL&c=365717&tp_c=365717","heads":1,"tails":4,"studentIndex":22,"studentTrueHypers":{"a":2,"b":8},"studentGuess":0.2,"delta":0,"totalExamples":5,"bonus":0.45,"bonusSoFar":2.98},{"rt":34281,"response":{"heads":"1","tails":"6"},"type":"response","condition":"nonSeqPartial","trueTheta":0.2,"classrooms":["C","D"],"studentTrueClassroom":"C","exampleSet":"first","trial_type":"survey-html-form","trial_index":198,"time_elapsed":1478546,"internal_node_id":"0.0-186.0-0.0","params":{"nStudents":24,"maxFlips":30,"completionMinutes":45,"basePay":8,"maxBonus":9,"perTrialBonus":0.5,"perTrialBonusThreshold":0.05,"exampleCost":0.01},"classroomParams":{"A":{"a":1,"b":4},"B":{"a":4,"b":1},"C":{"a":2,"b":8},"D":{"a":8,"b":2}},"conditions":["nonSeqFull","nonSeqPartial","seqNoFeedback","seqFeedback"],"classroomPairings":[["A","B"],["C","D"]],"coinWeights":[0.2,0.5,0.8],"subjectId":"A38240X9B0EBKE","assignmentId":"3FK0YFF9P0270TJ749GWVE5QCT9VVL","hitId":"34KYK9TV2RUAD363EVFPUWVPB97SBP","url":"https://gershmanlab.com/experiments/alicia/teaching/experiment/?hitId=34KYK9TV2RUAD363EVFPUWVPB97SBP&workerId=A38240X9B0EBKE&assignmentId=3FK0YFF9P0270TJ749GWVE5QCT9VVL&a=9YKF7&tp_a=9YKF7&b=3FK0YFF9P0270TJ749GWVE5QCT9VVL&tp_b=3FK0YFF9P0270TJ749GWVE5QCT9VVL&c=365717&tp_c=365717","heads":1,"tails":6,"studentIndex":23,"studentTrueHypers":{"a":2,"b":8},"studentGuess":0.17647058823529413,"delta":0.023529411764705882,"totalExamples":7,"bonus":0.43,"bonusSoFar":3.41},{"rt":40947,"response":{"gender":"male","age":"38","understood":"yes","comments":"I think some of the quiz questions were super tricky, honestly I was more confused after the quiz."},"type":"response","trial_type":"survey-html-form","trial_index":202,"time_elapsed":1530263,"internal_node_id":"0.0-191.0","params":{"nStudents":24,"maxFlips":30,"completionMinutes":45,"basePay":8,"maxBonus":9,"perTrialBonus":0.5,"perTrialBonusThreshold":0.05,"exampleCost":0.01},"classroomParams":{"A":{"a":1,"b":4},"B":{"a":4,"b":1},"C":{"a":2,"b":8},"D":{"a":8,"b":2}},"conditions":["nonSeqFull","nonSeqPartial","seqNoFeedback","seqFeedback"],"classroomPairings":[["A","B"],["C","D"]],"coinWeights":[0.2,0.5,0.8],"subjectId":"A38240X9B0EBKE","assignmentId":"3FK0YFF9P0270TJ749GWVE5QCT9VVL","hitId":"34KYK9TV2RUAD363EVFPUWVPB97SBP","url":"https://gershmanlab.com/experiments/alicia/teaching/experiment/?hitId=34KYK9TV2RUAD363EVFPUWVPB97SBP&workerId=A38240X9B0EBKE&assignmentId=3FK0YFF9P0270TJ749GWVE5QCT9VVL&a=9YKF7&tp_a=9YKF7&b=3FK0YFF9P0270TJ749GWVE5QCT9VVL&tp_b=3FK0YFF9P0270TJ749GWVE5QCT9VVL&c=365717&tp_c=365717","totalBonus":3.41}]