[{"rt":111057,"response":{"heads":"1","tails":"4"},"type":"response","condition":"seqNoFeedback","trueTheta":0.2,"classrooms":["A","B"],"studentTrueClassroom":"A","exampleSet":"first","trial_type":"survey-html-form","trial_index":13,"time_elapsed":464357,"internal_node_id":"0.0-6.0-0.0","params":{"nStudents":24,"maxFlips":30,"completionMinutes":45,"basePay":8,"maxBonus":9,"perTrialBonus":0.5,"perTrialBonusThreshold":0.05,"exampleCost":0.01},"classroomParams":{"A":{"a":1,"b":4},"B":{"a":4,"b":1},"C":{"a":2,"b":8},"D":{"a":8,"b":2}},"conditions":["nonSeqFull","nonSeqPartial","seqNoFeedback","seqFeedback"],"classroomPairings":[["A","B"],["C","D"]],"coinWeights":[0.2,0.5,0.8],"subjectId":"A38IZLCH8VYVFK","assignmentId":"3X4MXAO0BHASMB2VLZGIGJZ1YYVWR4","hitId":"32TZXEA1OL6QYKM0MXQIQH2ABHN14I","url":"https://gershmanlab.com/experiments/alicia/teaching/experiment/?hitId=32TZXEA1OL6QYKM0MXQIQH2ABHN14I&workerId=A38IZLCH8VYVFK&assignmentId=3X4MXAO0BHASMB2VLZGIGJZ1YYVWR4&a=0X4X9&tp_a=0X4X9&b=3X4MXAO0BHASMB2VLZGIGJZ1YYVWR4&tp_b=3X4MXAO0BHASMB2VLZGIGJZ1YYVWR4&c=365799&tp_c=365799","heads":1,"tails":4,"studentIndex":0,"studentTrueHypers":{"a":1,"b":4},"studentGuess":0.2,"delta":0,"totalExamples":5,"bonusSoFar":0},{"rt":11817,"response":{"heads":"1","tails":"4"},"type":"response","condition":"seqNoFeedback","trueTheta":0.2,"classrooms":["A","B"],"studentTrueClassroom":"A","exampleSet":"second","trial_type":"survey-html-form","trial_index":16,"time_elapsed":481437,"internal_node_id":"0.0-9.0-0.0","params":{"nStudents":24,"maxFlips":30,"completionMinutes":45,"basePay":8,"maxBonus":9,"perTrialBonus":0.5,"perTrialBonusThreshold":0.05,"exampleCost":0.01},"classroomParams":{"A":{"a":1,"b":4},"B":{"a":4,"b":1},"C":{"a":2,"b":8},"D":{"a":8,"b":2}},"conditions":["nonSeqFull","nonSeqPartial","seqNoFeedback","seqFeedback"],"classroomPairings":[["A","B"],["C","D"]],"coinWeights":[0.2,0.5,0.8],"subjectId":"A38IZLCH8VYVFK","assignmentId":"3X4MXAO0BHASMB2VLZGIGJZ1YYVWR4","hitId":"32TZXEA1OL6QYKM0MXQIQH2ABHN14I","url":"https://gershmanlab.com/experiments/alicia/teaching/experiment/?hitId=32TZXEA1OL6QYKM0MXQIQH2ABHN14I&workerId=A38IZLCH8VYVFK&assignmentId=3X4MXAO0BHASMB2VLZGIGJZ1YYVWR4&a=0X4X9&tp_a=0X4X9&b=3X4MXAO0BHASMB2VLZGIGJZ1YYVWR4&tp_b=3X4MXAO0BHASMB2VLZGIGJZ1YYVWR4&c=365799&tp_c=365799","firstResponseHeads":1,"firstResponseTails":4,"secondResponseHeads":1,"secondResponseTails":4,"totalHeads":2,"totalTails":8,"studentIndex":0,"studentTrueHypers":{"a":1,"b":4},"studentGuess":0.2,"delta":0,"bonus":0.4,"bonusSoFar":0.4,"totalExamples":10},{"rt":17123,"response":{"heads":"10","tails":"10"},"type":"response","condition":"nonSeqPartial","trueTheta":0.5,"classrooms":["C","D"],"studentTrueClassroom":"D","exampleSet":"first","trial_type":"survey-html-form","trial_index":22,"time_elapsed":518813,"internal_node_id":"0.0-15.0-0.0","params":{"nStudents":24,"maxFlips":30,"completionMinutes":45,"basePay":8,"maxBonus":9,"perTrialBonus":0.5,"perTrialBonusThreshold":0.05,"exampleCost":0.01},"classroomParams":{"A":{"a":1,"b":4},"B":{"a":4,"b":1},"C":{"a":2,"b":8},"D":{"a":8,"b":2}},"conditions":["nonSeqFull","nonSeqPartial","seqNoFeedback","seqFeedback"],"classroomPairings":[["A","B"],["C","D"]],"coinWeights":[0.2,0.5,0.8],"subjectId":"A38IZLCH8VYVFK","assignmentId":"3X4MXAO0BHASMB2VLZGIGJZ1YYVWR4","hitId":"32TZXEA1OL6QYKM0MXQIQH2ABHN14I","url":"https://gershmanlab.com/experiments/alicia/teaching/experiment/?hitId=32TZXEA1OL6QYKM0MXQIQH2ABHN14I&workerId=A38IZLCH8VYVFK&assignmentId=3X4MXAO0BHASMB2VLZGIGJZ1YYVWR4&a=0X4X9&tp_a=0X4X9&b=3X4MXAO0BHASMB2VLZGIGJZ1YYVWR4&tp_b=3X4MXAO0BHASMB2VLZGIGJZ1YYVWR4&c=365799&tp_c=365799","heads":10,"tails":10,"studentIndex":1,"studentTrueHypers":{"a":8,"b":2},"studentGuess":0.6,"delta":0.09999999999999998,"totalExamples":20,"bonus":0,"bonusSoFar":0.4},{"rt":13400,"response":{"heads":"1","tails":"4"},"type":"response","condition":"nonSeqFull","trueTheta":0.2,"classrooms":["A","B"],"studentTrueClassroom":"A","exampleSet":"first","trial_type":"survey-html-form","trial_index":28,"time_elapsed":563267,"internal_node_id":"0.0-21.0-0.0","params":{"nStudents":24,"maxFlips":30,"completionMinutes":45,"basePay":8,"maxBonus":9,"perTrialBonus":0.5,"perTrialBonusThreshold":0.05,"exampleCost":0.01},"classroomParams":{"A":{"a":1,"b":4},"B":{"a":4,"b":1},"C":{"a":2,"b":8},"D":{"a":8,"b":2}},"conditions":["nonSeqFull","nonSeqPartial","seqNoFeedback","seqFeedback"],"classroomPairings":[["A","B"],["C","D"]],"coinWeights":[0.2,0.5,0.8],"subjectId":"A38IZLCH8VYVFK","assignmentId":"3X4MXAO0BHASMB2VLZGIGJZ1YYVWR4","hitId":"32TZXEA1OL6QYKM0MXQIQH2ABHN14I","url":"https://gershmanlab.com/experiments/alicia/teaching/experiment/?hitId=32TZXEA1OL6QYKM0MXQIQH2ABHN14I&workerId=A38IZLCH8VYVFK&assignmentId=3X4MXAO0BHASMB2VLZGIGJZ1YYVWR4&a=0X4X9&tp_a=0X4X9&b=3X4MXAO0BHASMB2VLZGIGJZ1YYVWR4&tp_b=3X4MXAO0BHASMB2VLZGIGJZ1YYVWR4&c=365799&tp_c=365799","heads":1,"tails":4,"studentIndex":2,"studentTrueHypers":{"a":1,"b":4},"studentGuess":0.2,"delta":0,"totalExamples":5,"bonus":0.45,"bonusSoFar":0.85},{"rt":9379,"response":{"heads":"15","tails":"15"},"type":"response","condition":"nonSeqFull","trueTheta":0.5,"classrooms":["C","D"],"studentTrueClassroom":"D","exampleSet":"first","trial_type":"survey-html-form","trial_index":34,"time_elapsed":588716,"internal_node_id":"0.0-27.0-0.0","params":{"nStudents":24,"maxFlips":30,"completionMinutes":45,"basePay":8,"maxBonus":9,"perTrialBonus":0.5,"perTrialBonusThreshold":0.05,"exampleCost":0.01},"classroomParams":{"A":{"a":1,"b":4},"B":{"a":4,"b":1},"C":{"a":2,"b":8},"D":{"a":8,"b":2}},"conditions":["nonSeqFull","nonSeqPartial","seqNoFeedback","seqFeedback"],"classroomPairings":[["A","B"],["C","D"]],"coinWeights":[0.2,0.5,0.8],"subjectId":"A38IZLCH8VYVFK","assignmentId":"3X4MXAO0BHASMB2VLZGIGJZ1YYVWR4","hitId":"32TZXEA1OL6QYKM0MXQIQH2ABHN14I","url":"https://gershmanlab.com/experiments/alicia/teaching/experiment/?hitId=32TZXEA1OL6QYKM0MXQIQH2ABHN14I&workerId=A38IZLCH8VYVFK&assignmentId=3X4MXAO0BHASMB2VLZGIGJZ1YYVWR4&a=0X4X9&tp_a=0X4X9&b=3X4MXAO0BHASMB2VLZGIGJZ1YYVWR4&tp_b=3X4MXAO0BHASMB2VLZGIGJZ1YYVWR4&c=365799&tp_c=365799","heads":15,"tails":15,"studentIndex":3,"studentTrueHypers":{"a":8,"b":2},"studentGuess":0.575,"delta":0.07499999999999996,"totalExamples":30,"bonus":0,"bonusSoFar":0.85},{"rt":34117,"response":{"heads":"15","tails":"15"},"type":"response","condition":"nonSeqFull","trueTheta":0.5,"classrooms":["A","B"],"studentTrueClassroom":"A","exampleSet":"first","trial_type":"survey-html-form","trial_index":40,"time_elapsed":649266,"internal_node_id":"0.0-33.0-0.0","params":{"nStudents":24,"maxFlips":30,"completionMinutes":45,"basePay":8,"maxBonus":9,"perTrialBonus":0.5,"perTrialBonusThreshold":0.05,"exampleCost":0.01},"classroomParams":{"A":{"a":1,"b":4},"B":{"a":4,"b":1},"C":{"a":2,"b":8},"D":{"a":8,"b":2}},"conditions":["nonSeqFull","nonSeqPartial","seqNoFeedback","seqFeedback"],"classroomPairings":[["A","B"],["C","D"]],"coinWeights":[0.2,0.5,0.8],"subjectId":"A38IZLCH8VYVFK","assignmentId":"3X4MXAO0BHASMB2VLZGIGJZ1YYVWR4","hitId":"32TZXEA1OL6QYKM0MXQIQH2ABHN14I","url":"https://gershmanlab.com/experiments/alicia/teaching/experiment/?hitId=32TZXEA1OL6QYKM0MXQIQH2ABHN14I&workerId=A38IZLCH8VYVFK&assignmentId=3X4MXAO0BHASMB2VLZGIGJZ1YYVWR4&a=0X4X9&tp_a=0X4X9&b=3X4MXAO0BHASMB2VLZGIGJZ1YYVWR4&tp_b=3X4MXAO0BHASMB2VLZGIGJZ1YYVWR4&c=365799&tp_c=365799","heads":15,"tails":15,"studentIndex":4,"studentTrueHypers":{"a":1,"b":4},"studentGuess":0.45714285714285713,"delta":0.04285714285714287,"totalExamples":30,"bonus":0.2,"bonusSoFar":1.05},{"rt":11920,"response":{"heads":"2","tails":"8"},"type":"response","condition":"nonSeqPartial","trueTheta":0.2,"classrooms":["A","B"],"studentTrueClassroom":"B","exampleSet":"first","trial_type":"survey-html-form","trial_index":46,"time_elapsed":733795,"internal_node_id":"0.0-39.0-0.0","params":{"nStudents":24,"maxFlips":30,"completionMinutes":45,"basePay":8,"maxBonus":9,"perTrialBonus":0.5,"perTrialBonusThreshold":0.05,"exampleCost":0.01},"classroomParams":{"A":{"a":1,"b":4},"B":{"a":4,"b":1},"C":{"a":2,"b":8},"D":{"a":8,"b":2}},"conditions":["nonSeqFull","nonSeqPartial","seqNoFeedback","seqFeedback"],"classroomPairings":[["A","B"],["C","D"]],"coinWeights":[0.2,0.5,0.8],"subjectId":"A38IZLCH8VYVFK","assignmentId":"3X4MXAO0BHASMB2VLZGIGJZ1YYVWR4","hitId":"32TZXEA1OL6QYKM0MXQIQH2ABHN14I","url":"https://gershmanlab.com/experiments/alicia/teaching/experiment/?hitId=32TZXEA1OL6QYKM0MXQIQH2ABHN14I&workerId=A38IZLCH8VYVFK&assignmentId=3X4MXAO0BHASMB2VLZGIGJZ1YYVWR4&a=0X4X9&tp_a=0X4X9&b=3X4MXAO0BHASMB2VLZGIGJZ1YYVWR4&tp_b=3X4MXAO0BHASMB2VLZGIGJZ1YYVWR4&c=365799&tp_c=365799","heads":2,"tails":8,"studentIndex":5,"studentTrueHypers":{"a":4,"b":1},"studentGuess":0.4,"delta":0.2,"totalExamples":10,"bonus":0,"bonusSoFar":1.05},{"rt":14623,"response":{"heads":"8","tails":"2"},"type":"response","condition":"nonSeqFull","trueTheta":0.8,"classrooms":["C","D"],"studentTrueClassroom":"D","exampleSet":"first","trial_type":"survey-html-form","trial_index":52,"time_elapsed":764522,"internal_node_id":"0.0-45.0-0.0","params":{"nStudents":24,"maxFlips":30,"completionMinutes":45,"basePay":8,"maxBonus":9,"perTrialBonus":0.5,"perTrialBonusThreshold":0.05,"exampleCost":0.01},"classroomParams":{"A":{"a":1,"b":4},"B":{"a":4,"b":1},"C":{"a":2,"b":8},"D":{"a":8,"b":2}},"conditions":["nonSeqFull","nonSeqPartial","seqNoFeedback","seqFeedback"],"classroomPairings":[["A","B"],["C","D"]],"coinWeights":[0.2,0.5,0.8],"subjectId":"A38IZLCH8VYVFK","assignmentId":"3X4MXAO0BHASMB2VLZGIGJZ1YYVWR4","hitId":"32TZXEA1OL6QYKM0MXQIQH2ABHN14I","url":"https://gershmanlab.com/experiments/alicia/teaching/experiment/?hitId=32TZXEA1OL6QYKM0MXQIQH2ABHN14I&workerId=A38IZLCH8VYVFK&assignmentId=3X4MXAO0BHASMB2VLZGIGJZ1YYVWR4&a=0X4X9&tp_a=0X4X9&b=3X4MXAO0BHASMB2VLZGIGJZ1YYVWR4&tp_b=3X4MXAO0BHASMB2VLZGIGJZ1YYVWR4&c=365799&tp_c=365799","heads":8,"tails":2,"studentIndex":6,"studentTrueHypers":{"a":8,"b":2},"studentGuess":0.8,"delta":0,"totalExamples":10,"bonus":0.4,"bonusSoFar":1.45},{"rt":30254,"response":{"heads":"16","tails":"4"},"type":"response","condition":"seqFeedback","trueTheta":0.8,"classrooms":["A","B"],"studentTrueClassroom":"A","exampleSet":"first","trial_type":"survey-html-form","trial_index":58,"time_elapsed":839891,"internal_node_id":"0.0-51.0-0.0","params":{"nStudents":24,"maxFlips":30,"completionMinutes":45,"basePay":8,"maxBonus":9,"perTrialBonus":0.5,"perTrialBonusThreshold":0.05,"exampleCost":0.01},"classroomParams":{"A":{"a":1,"b":4},"B":{"a":4,"b":1},"C":{"a":2,"b":8},"D":{"a":8,"b":2}},"conditions":["nonSeqFull","nonSeqPartial","seqNoFeedback","seqFeedback"],"classroomPairings":[["A","B"],["C","D"]],"coinWeights":[0.2,0.5,0.8],"subjectId":"A38IZLCH8VYVFK","assignmentId":"3X4MXAO0BHASMB2VLZGIGJZ1YYVWR4","hitId":"32TZXEA1OL6QYKM0MXQIQH2ABHN14I","url":"https://gershmanlab.com/experiments/alicia/teaching/experiment/?hitId=32TZXEA1OL6QYKM0MXQIQH2ABHN14I&workerId=A38IZLCH8VYVFK&assignmentId=3X4MXAO0BHASMB2VLZGIGJZ1YYVWR4&a=0X4X9&tp_a=0X4X9&b=3X4MXAO0BHASMB2VLZGIGJZ1YYVWR4&tp_b=3X4MXAO0BHASMB2VLZGIGJZ1YYVWR4&c=365799&tp_c=365799","heads":16,"tails":4,"studentIndex":7,"studentTrueHypers":{"a":1,"b":4},"studentGuess":0.68,"delta":0.12,"totalExamples":20,"bonusSoFar":1.45},{"rt":9879,"response":{"heads":"16","tails":"4"},"type":"response","condition":"seqFeedback","trueTheta":0.8,"classrooms":["A","B"],"studentTrueClassroom":"A","exampleSet":"second","trial_type":"survey-html-form","trial_index":62,"time_elapsed":859558,"internal_node_id":"0.0-55.0-0.0","params":{"nStudents":24,"maxFlips":30,"completionMinutes":45,"basePay":8,"maxBonus":9,"perTrialBonus":0.5,"perTrialBonusThreshold":0.05,"exampleCost":0.01},"classroomParams":{"A":{"a":1,"b":4},"B":{"a":4,"b":1},"C":{"a":2,"b":8},"D":{"a":8,"b":2}},"conditions":["nonSeqFull","nonSeqPartial","seqNoFeedback","seqFeedback"],"classroomPairings":[["A","B"],["C","D"]],"coinWeights":[0.2,0.5,0.8],"subjectId":"A38IZLCH8VYVFK","assignmentId":"3X4MXAO0BHASMB2VLZGIGJZ1YYVWR4","hitId":"32TZXEA1OL6QYKM0MXQIQH2ABHN14I","url":"https://gershmanlab.com/experiments/alicia/teaching/experiment/?hitId=32TZXEA1OL6QYKM0MXQIQH2ABHN14I&workerId=A38IZLCH8VYVFK&assignmentId=3X4MXAO0BHASMB2VLZGIGJZ1YYVWR4&a=0X4X9&tp_a=0X4X9&b=3X4MXAO0BHASMB2VLZGIGJZ1YYVWR4&tp_b=3X4MXAO0BHASMB2VLZGIGJZ1YYVWR4&c=365799&tp_c=365799","firstResponseHeads":16,"firstResponseTails":4,"secondResponseHeads":16,"secondResponseTails":4,"totalHeads":32,"totalTails":8,"studentIndex":7,"studentTrueHypers":{"a":1,"b":4},"studentGuess":0.7333333333333333,"delta":0.06666666666666676,"bonus":0,"bonusSoFar":1.45,"totalExamples":40},{"rt":27330,"response":{"heads":"16","tails":"4"},"type":"response","condition":"nonSeqPartial","trueTheta":0.8,"classrooms":["C","D"],"studentTrueClassroom":"D","exampleSet":"first","trial_type":"survey-html-form","trial_index":68,"time_elapsed":959195,"internal_node_id":"0.0-61.0-0.0","params":{"nStudents":24,"maxFlips":30,"completionMinutes":45,"basePay":8,"maxBonus":9,"perTrialBonus":0.5,"perTrialBonusThreshold":0.05,"exampleCost":0.01},"classroomParams":{"A":{"a":1,"b":4},"B":{"a":4,"b":1},"C":{"a":2,"b":8},"D":{"a":8,"b":2}},"conditions":["nonSeqFull","nonSeqPartial","seqNoFeedback","seqFeedback"],"classroomPairings":[["A","B"],["C","D"]],"coinWeights":[0.2,0.5,0.8],"subjectId":"A38IZLCH8VYVFK","assignmentId":"3X4MXAO0BHASMB2VLZGIGJZ1YYVWR4","hitId":"32TZXEA1OL6QYKM0MXQIQH2ABHN14I","url":"https://gershmanlab.com/experiments/alicia/teaching/experiment/?hitId=32TZXEA1OL6QYKM0MXQIQH2ABHN14I&workerId=A38IZLCH8VYVFK&assignmentId=3X4MXAO0BHASMB2VLZGIGJZ1YYVWR4&a=0X4X9&tp_a=0X4X9&b=3X4MXAO0BHASMB2VLZGIGJZ1YYVWR4&tp_b=3X4MXAO0BHASMB2VLZGIGJZ1YYVWR4&c=365799&tp_c=365799","heads":16,"tails":4,"studentIndex":8,"studentTrueHypers":{"a":8,"b":2},"studentGuess":0.8,"delta":0,"totalExamples":20,"bonus":0.3,"bonusSoFar":1.75},{"rt":20760,"response":{"heads":"8","tails":"7"},"type":"response","condition":"seqFeedback","trueTheta":0.5,"classrooms":["A","B"],"studentTrueClassroom":"A","exampleSet":"first","trial_type":"survey-html-form","trial_index":74,"time_elapsed":996960,"internal_node_id":"0.0-67.0-0.0","params":{"nStudents":24,"maxFlips":30,"completionMinutes":45,"basePay":8,"maxBonus":9,"perTrialBonus":0.5,"perTrialBonusThreshold":0.05,"exampleCost":0.01},"classroomParams":{"A":{"a":1,"b":4},"B":{"a":4,"b":1},"C":{"a":2,"b":8},"D":{"a":8,"b":2}},"conditions":["nonSeqFull","nonSeqPartial","seqNoFeedback","seqFeedback"],"classroomPairings":[["A","B"],["C","D"]],"coinWeights":[0.2,0.5,0.8],"subjectId":"A38IZLCH8VYVFK","assignmentId":"3X4MXAO0BHASMB2VLZGIGJZ1YYVWR4","hitId":"32TZXEA1OL6QYKM0MXQIQH2ABHN14I","url":"https://gershmanlab.com/experiments/alicia/teaching/experiment/?hitId=32TZXEA1OL6QYKM0MXQIQH2ABHN14I&workerId=A38IZLCH8VYVFK&assignmentId=3X4MXAO0BHASMB2VLZGIGJZ1YYVWR4&a=0X4X9&tp_a=0X4X9&b=3X4MXAO0BHASMB2VLZGIGJZ1YYVWR4&tp_b=3X4MXAO0BHASMB2VLZGIGJZ1YYVWR4&c=365799&tp_c=365799","heads":8,"tails":7,"studentIndex":9,"studentTrueHypers":{"a":1,"b":4},"studentGuess":0.45,"delta":0.04999999999999999,"totalExamples":15,"bonusSoFar":1.75},{"rt":6280,"response":{"heads":"8","tails":"7"},"type":"response","condition":"seqFeedback","trueTheta":0.5,"classrooms":["A","B"],"studentTrueClassroom":"A","exampleSet":"second","trial_type":"survey-html-form","trial_index":78,"time_elapsed":1015893,"internal_node_id":"0.0-71.0-0.0","params":{"nStudents":24,"maxFlips":30,"completionMinutes":45,"basePay":8,"maxBonus":9,"perTrialBonus":0.5,"perTrialBonusThreshold":0.05,"exampleCost":0.01},"classroomParams":{"A":{"a":1,"b":4},"B":{"a":4,"b":1},"C":{"a":2,"b":8},"D":{"a":8,"b":2}},"conditions":["nonSeqFull","nonSeqPartial","seqNoFeedback","seqFeedback"],"classroomPairings":[["A","B"],["C","D"]],"coinWeights":[0.2,0.5,0.8],"subjectId":"A38IZLCH8VYVFK","assignmentId":"3X4MXAO0BHASMB2VLZGIGJZ1YYVWR4","hitId":"32TZXEA1OL6QYKM0MXQIQH2ABHN14I","url":"https://gershmanlab.com/experiments/alicia/teaching/experiment/?hitId=32TZXEA1OL6QYKM0MXQIQH2ABHN14I&workerId=A38IZLCH8VYVFK&assignmentId=3X4MXAO0BHASMB2VLZGIGJZ1YYVWR4&a=0X4X9&tp_a=0X4X9&b=3X4MXAO0BHASMB2VLZGIGJZ1YYVWR4&tp_b=3X4MXAO0BHASMB2VLZGIGJZ1YYVWR4&c=365799&tp_c=365799","firstResponseHeads":8,"firstResponseTails":7,"secondResponseHeads":8,"secondResponseTails":7,"totalHeads":16,"totalTails":14,"studentIndex":9,"studentTrueHypers":{"a":1,"b":4},"studentGuess":0.4857142857142857,"delta":0.01428571428571429,"bonus":0.2,"bonusSoFar":1.95,"totalExamples":30},{"rt":24595,"response":{"heads":"2","tails":"8"},"type":"response","condition":"seqNoFeedback","trueTheta":0.2,"classrooms":["C","D"],"studentTrueClassroom":"D","exampleSet":"first","trial_type":"survey-html-form","trial_index":84,"time_elapsed":1067412,"internal_node_id":"0.0-77.0-0.0","params":{"nStudents":24,"maxFlips":30,"completionMinutes":45,"basePay":8,"maxBonus":9,"perTrialBonus":0.5,"perTrialBonusThreshold":0.05,"exampleCost":0.01},"classroomParams":{"A":{"a":1,"b":4},"B":{"a":4,"b":1},"C":{"a":2,"b":8},"D":{"a":8,"b":2}},"conditions":["nonSeqFull","nonSeqPartial","seqNoFeedback","seqFeedback"],"classroomPairings":[["A","B"],["C","D"]],"coinWeights":[0.2,0.5,0.8],"subjectId":"A38IZLCH8VYVFK","assignmentId":"3X4MXAO0BHASMB2VLZGIGJZ1YYVWR4","hitId":"32TZXEA1OL6QYKM0MXQIQH2ABHN14I","url":"https://gershmanlab.com/experiments/alicia/teaching/experiment/?hitId=32TZXEA1OL6QYKM0MXQIQH2ABHN14I&workerId=A38IZLCH8VYVFK&assignmentId=3X4MXAO0BHASMB2VLZGIGJZ1YYVWR4&a=0X4X9&tp_a=0X4X9&b=3X4MXAO0BHASMB2VLZGIGJZ1YYVWR4&tp_b=3X4MXAO0BHASMB2VLZGIGJZ1YYVWR4&c=365799&tp_c=365799","heads":2,"tails":8,"studentIndex":10,"studentTrueHypers":{"a":8,"b":2},"studentGuess":0.5,"delta":0.3,"totalExamples":10,"bonusSoFar":1.95},{"rt":5899,"response":{"heads":"2","tails":"8"},"type":"response","condition":"seqNoFeedback","trueTheta":0.2,"classrooms":["C","D"],"studentTrueClassroom":"D","exampleSet":"second","trial_type":"survey-html-form","trial_index":87,"time_elapsed":1079319,"internal_node_id":"0.0-80.0-0.0","params":{"nStudents":24,"maxFlips":30,"completionMinutes":45,"basePay":8,"maxBonus":9,"perTrialBonus":0.5,"perTrialBonusThreshold":0.05,"exampleCost":0.01},"classroomParams":{"A":{"a":1,"b":4},"B":{"a":4,"b":1},"C":{"a":2,"b":8},"D":{"a":8,"b":2}},"conditions":["nonSeqFull","nonSeqPartial","seqNoFeedback","seqFeedback"],"classroomPairings":[["A","B"],["C","D"]],"coinWeights":[0.2,0.5,0.8],"subjectId":"A38IZLCH8VYVFK","assignmentId":"3X4MXAO0BHASMB2VLZGIGJZ1YYVWR4","hitId":"32TZXEA1OL6QYKM0MXQIQH2ABHN14I","url":"https://gershmanlab.com/experiments/alicia/teaching/experiment/?hitId=32TZXEA1OL6QYKM0MXQIQH2ABHN14I&workerId=A38IZLCH8VYVFK&assignmentId=3X4MXAO0BHASMB2VLZGIGJZ1YYVWR4&a=0X4X9&tp_a=0X4X9&b=3X4MXAO0BHASMB2VLZGIGJZ1YYVWR4&tp_b=3X4MXAO0BHASMB2VLZGIGJZ1YYVWR4&c=365799&tp_c=365799","firstResponseHeads":2,"firstResponseTails":8,"secondResponseHeads":2,"secondResponseTails":8,"totalHeads":4,"totalTails":16,"studentIndex":10,"studentTrueHypers":{"a":8,"b":2},"studentGuess":0.4,"delta":0.2,"bonus":0,"bonusSoFar":1.95,"totalExamples":20},{"rt":9828,"response":{"heads":"8","tails":"7"},"type":"response","condition":"nonSeqPartial","trueTheta":0.5,"classrooms":["A","B"],"studentTrueClassroom":"A","exampleSet":"first","trial_type":"survey-html-form","trial_index":93,"time_elapsed":1116579,"internal_node_id":"0.0-86.0-0.0","params":{"nStudents":24,"maxFlips":30,"completionMinutes":45,"basePay":8,"maxBonus":9,"perTrialBonus":0.5,"perTrialBonusThreshold":0.05,"exampleCost":0.01},"classroomParams":{"A":{"a":1,"b":4},"B":{"a":4,"b":1},"C":{"a":2,"b":8},"D":{"a":8,"b":2}},"conditions":["nonSeqFull","nonSeqPartial","seqNoFeedback","seqFeedback"],"classroomPairings":[["A","B"],["C","D"]],"coinWeights":[0.2,0.5,0.8],"subjectId":"A38IZLCH8VYVFK","assignmentId":"3X4MXAO0BHASMB2VLZGIGJZ1YYVWR4","hitId":"32TZXEA1OL6QYKM0MXQIQH2ABHN14I","url":"https://gershmanlab.com/experiments/alicia/teaching/experiment/?hitId=32TZXEA1OL6QYKM0MXQIQH2ABHN14I&workerId=A38IZLCH8VYVFK&assignmentId=3X4MXAO0BHASMB2VLZGIGJZ1YYVWR4&a=0X4X9&tp_a=0X4X9&b=3X4MXAO0BHASMB2VLZGIGJZ1YYVWR4&tp_b=3X4MXAO0BHASMB2VLZGIGJZ1YYVWR4&c=365799&tp_c=365799","heads":8,"tails":7,"studentIndex":11,"studentTrueHypers":{"a":1,"b":4},"studentGuess":0.45,"delta":0.04999999999999999,"totalExamples":15,"bonus":0.35,"bonusSoFar":2.3},{"rt":6748,"response":{"heads":"8","tails":"7"},"type":"response","condition":"seqNoFeedback","trueTheta":0.5,"classrooms":["C","D"],"studentTrueClassroom":"C","exampleSet":"first","trial_type":"survey-html-form","trial_index":99,"time_elapsed":1142040,"internal_node_id":"0.0-92.0-0.0","params":{"nStudents":24,"maxFlips":30,"completionMinutes":45,"basePay":8,"maxBonus":9,"perTrialBonus":0.5,"perTrialBonusThreshold":0.05,"exampleCost":0.01},"classroomParams":{"A":{"a":1,"b":4},"B":{"a":4,"b":1},"C":{"a":2,"b":8},"D":{"a":8,"b":2}},"conditions":["nonSeqFull","nonSeqPartial","seqNoFeedback","seqFeedback"],"classroomPairings":[["A","B"],["C","D"]],"coinWeights":[0.2,0.5,0.8],"subjectId":"A38IZLCH8VYVFK","assignmentId":"3X4MXAO0BHASMB2VLZGIGJZ1YYVWR4","hitId":"32TZXEA1OL6QYKM0MXQIQH2ABHN14I","url":"https://gershmanlab.com/experiments/alicia/teaching/experiment/?hitId=32TZXEA1OL6QYKM0MXQIQH2ABHN14I&workerId=A38IZLCH8VYVFK&assignmentId=3X4MXAO0BHASMB2VLZGIGJZ1YYVWR4&a=0X4X9&tp_a=0X4X9&b=3X4MXAO0BHASMB2VLZGIGJZ1YYVWR4&tp_b=3X4MXAO0BHASMB2VLZGIGJZ1YYVWR4&c=365799&tp_c=365799","heads":8,"tails":7,"studentIndex":12,"studentTrueHypers":{"a":2,"b":8},"studentGuess":0.4,"delta":0.09999999999999998,"totalExamples":15,"bonusSoFar":2.3},{"rt":9895,"response":{"heads":"8","tails":"7"},"type":"response","condition":"seqNoFeedback","trueTheta":0.5,"classrooms":["C","D"],"studentTrueClassroom":"C","exampleSet":"second","trial_type":"survey-html-form","trial_index":102,"time_elapsed":1157698,"internal_node_id":"0.0-95.0-0.0","params":{"nStudents":24,"maxFlips":30,"completionMinutes":45,"basePay":8,"maxBonus":9,"perTrialBonus":0.5,"perTrialBonusThreshold":0.05,"exampleCost":0.01},"classroomParams":{"A":{"a":1,"b":4},"B":{"a":4,"b":1},"C":{"a":2,"b":8},"D":{"a":8,"b":2}},"conditions":["nonSeqFull","nonSeqPartial","seqNoFeedback","seqFeedback"],"classroomPairings":[["A","B"],["C","D"]],"coinWeights":[0.2,0.5,0.8],"subjectId":"A38IZLCH8VYVFK","assignmentId":"3X4MXAO0BHASMB2VLZGIGJZ1YYVWR4","hitId":"32TZXEA1OL6QYKM0MXQIQH2ABHN14I","url":"https://gershmanlab.com/experiments/alicia/teaching/experiment/?hitId=32TZXEA1OL6QYKM0MXQIQH2ABHN14I&workerId=A38IZLCH8VYVFK&assignmentId=3X4MXAO0BHASMB2VLZGIGJZ1YYVWR4&a=0X4X9&tp_a=0X4X9&b=3X4MXAO0BHASMB2VLZGIGJZ1YYVWR4&tp_b=3X4MXAO0BHASMB2VLZGIGJZ1YYVWR4&c=365799&tp_c=365799","firstResponseHeads":8,"firstResponseTails":7,"secondResponseHeads":8,"secondResponseTails":7,"totalHeads":16,"totalTails":14,"studentIndex":12,"studentTrueHypers":{"a":2,"b":8},"studentGuess":0.45,"delta":0.04999999999999999,"bonus":0.2,"bonusSoFar":2.5,"totalExamples":30},{"rt":12353,"response":{"heads":"16","tails":"4"},"type":"response","condition":"seqNoFeedback","trueTheta":0.8,"classrooms":["C","D"],"studentTrueClassroom":"C","exampleSet":"first","trial_type":"survey-html-form","trial_index":108,"time_elapsed":1186492,"internal_node_id":"0.0-101.0-0.0","params":{"nStudents":24,"maxFlips":30,"completionMinutes":45,"basePay":8,"maxBonus":9,"perTrialBonus":0.5,"perTrialBonusThreshold":0.05,"exampleCost":0.01},"classroomParams":{"A":{"a":1,"b":4},"B":{"a":4,"b":1},"C":{"a":2,"b":8},"D":{"a":8,"b":2}},"conditions":["nonSeqFull","nonSeqPartial","seqNoFeedback","seqFeedback"],"classroomPairings":[["A","B"],["C","D"]],"coinWeights":[0.2,0.5,0.8],"subjectId":"A38IZLCH8VYVFK","assignmentId":"3X4MXAO0BHASMB2VLZGIGJZ1YYVWR4","hitId":"32TZXEA1OL6QYKM0MXQIQH2ABHN14I","url":"https://gershmanlab.com/experiments/alicia/teaching/experiment/?hitId=32TZXEA1OL6QYKM0MXQIQH2ABHN14I&workerId=A38IZLCH8VYVFK&assignmentId=3X4MXAO0BHASMB2VLZGIGJZ1YYVWR4&a=0X4X9&tp_a=0X4X9&b=3X4MXAO0BHASMB2VLZGIGJZ1YYVWR4&tp_b=3X4MXAO0BHASMB2VLZGIGJZ1YYVWR4&c=365799&tp_c=365799","heads":16,"tails":4,"studentIndex":13,"studentTrueHypers":{"a":2,"b":8},"studentGuess":0.6,"delta":0.20000000000000007,"totalExamples":20,"bonusSoFar":2.5},{"rt":12257,"response":{"heads":"16","tails":"4"},"type":"response","condition":"seqNoFeedback","trueTheta":0.8,"classrooms":["C","D"],"studentTrueClassroom":"C","exampleSet":"second","trial_type":"survey-html-form","trial_index":111,"time_elapsed":1205261,"internal_node_id":"0.0-104.0-0.0","params":{"nStudents":24,"maxFlips":30,"completionMinutes":45,"basePay":8,"maxBonus":9,"perTrialBonus":0.5,"perTrialBonusThreshold":0.05,"exampleCost":0.01},"classroomParams":{"A":{"a":1,"b":4},"B":{"a":4,"b":1},"C":{"a":2,"b":8},"D":{"a":8,"b":2}},"conditions":["nonSeqFull","nonSeqPartial","seqNoFeedback","seqFeedback"],"classroomPairings":[["A","B"],["C","D"]],"coinWeights":[0.2,0.5,0.8],"subjectId":"A38IZLCH8VYVFK","assignmentId":"3X4MXAO0BHASMB2VLZGIGJZ1YYVWR4","hitId":"32TZXEA1OL6QYKM0MXQIQH2ABHN14I","url":"https://gershmanlab.com/experiments/alicia/teaching/experiment/?hitId=32TZXEA1OL6QYKM0MXQIQH2ABHN14I&workerId=A38IZLCH8VYVFK&assignmentId=3X4MXAO0BHASMB2VLZGIGJZ1YYVWR4&a=0X4X9&tp_a=0X4X9&b=3X4MXAO0BHASMB2VLZGIGJZ1YYVWR4&tp_b=3X4MXAO0BHASMB2VLZGIGJZ1YYVWR4&c=365799&tp_c=365799","firstResponseHeads":16,"firstResponseTails":4,"secondResponseHeads":16,"secondResponseTails":4,"totalHeads":32,"totalTails":8,"studentIndex":13,"studentTrueHypers":{"a":2,"b":8},"studentGuess":0.68,"delta":0.12,"bonus":0,"bonusSoFar":2.5,"totalExamples":40},{"rt":11578,"response":{"heads":"2","tails":"8"},"type":"response","condition":"seqFeedback","trueTheta":0.2,"classrooms":["A","B"],"studentTrueClassroom":"B","exampleSet":"first","trial_type":"survey-html-form","trial_index":117,"time_elapsed":1237305,"internal_node_id":"0.0-110.0-0.0","params":{"nStudents":24,"maxFlips":30,"completionMinutes":45,"basePay":8,"maxBonus":9,"perTrialBonus":0.5,"perTrialBonusThreshold":0.05,"exampleCost":0.01},"classroomParams":{"A":{"a":1,"b":4},"B":{"a":4,"b":1},"C":{"a":2,"b":8},"D":{"a":8,"b":2}},"conditions":["nonSeqFull","nonSeqPartial","seqNoFeedback","seqFeedback"],"classroomPairings":[["A","B"],["C","D"]],"coinWeights":[0.2,0.5,0.8],"subjectId":"A38IZLCH8VYVFK","assignmentId":"3X4MXAO0BHASMB2VLZGIGJZ1YYVWR4","hitId":"32TZXEA1OL6QYKM0MXQIQH2ABHN14I","url":"https://gershmanlab.com/experiments/alicia/teaching/experiment/?hitId=32TZXEA1OL6QYKM0MXQIQH2ABHN14I&workerId=A38IZLCH8VYVFK&assignmentId=3X4MXAO0BHASMB2VLZGIGJZ1YYVWR4&a=0X4X9&tp_a=0X4X9&b=3X4MXAO0BHASMB2VLZGIGJZ1YYVWR4&tp_b=3X4MXAO0BHASMB2VLZGIGJZ1YYVWR4&c=365799&tp_c=365799","heads":2,"tails":8,"studentIndex":14,"studentTrueHypers":{"a":4,"b":1},"studentGuess":0.4,"delta":0.2,"totalExamples":10,"bonusSoFar":2.5},{"rt":6465,"response":{"heads":"0","tails":"10"},"type":"response","condition":"seqFeedback","trueTheta":0.2,"classrooms":["A","B"],"studentTrueClassroom":"B","exampleSet":"second","trial_type":"survey-html-form","trial_index":121,"time_elapsed":1260827,"internal_node_id":"0.0-114.0-0.0","params":{"nStudents":24,"maxFlips":30,"completionMinutes":45,"basePay":8,"maxBonus":9,"perTrialBonus":0.5,"perTrialBonusThreshold":0.05,"exampleCost":0.01},"classroomParams":{"A":{"a":1,"b":4},"B":{"a":4,"b":1},"C":{"a":2,"b":8},"D":{"a":8,"b":2}},"conditions":["nonSeqFull","nonSeqPartial","seqNoFeedback","seqFeedback"],"classroomPairings":[["A","B"],["C","D"]],"coinWeights":[0.2,0.5,0.8],"subjectId":"A38IZLCH8VYVFK","assignmentId":"3X4MXAO0BHASMB2VLZGIGJZ1YYVWR4","hitId":"32TZXEA1OL6QYKM0MXQIQH2ABHN14I","url":"https://gershmanlab.com/experiments/alicia/teaching/experiment/?hitId=32TZXEA1OL6QYKM0MXQIQH2ABHN14I&workerId=A38IZLCH8VYVFK&assignmentId=3X4MXAO0BHASMB2VLZGIGJZ1YYVWR4&a=0X4X9&tp_a=0X4X9&b=3X4MXAO0BHASMB2VLZGIGJZ1YYVWR4&tp_b=3X4MXAO0BHASMB2VLZGIGJZ1YYVWR4&c=365799&tp_c=365799","firstResponseHeads":2,"firstResponseTails":8,"secondResponseHeads":0,"secondResponseTails":10,"totalHeads":2,"totalTails":18,"studentIndex":14,"studentTrueHypers":{"a":4,"b":1},"studentGuess":0.24,"delta":0.03999999999999998,"bonus":0.3,"bonusSoFar":2.8,"totalExamples":20},{"rt":24623,"response":{"heads":"8","tails":"2"},"type":"response","condition":"nonSeqFull","trueTheta":0.8,"classrooms":["A","B"],"studentTrueClassroom":"B","exampleSet":"first","trial_type":"survey-html-form","trial_index":127,"time_elapsed":1310316,"internal_node_id":"0.0-120.0-0.0","params":{"nStudents":24,"maxFlips":30,"completionMinutes":45,"basePay":8,"maxBonus":9,"perTrialBonus":0.5,"perTrialBonusThreshold":0.05,"exampleCost":0.01},"classroomParams":{"A":{"a":1,"b":4},"B":{"a":4,"b":1},"C":{"a":2,"b":8},"D":{"a":8,"b":2}},"conditions":["nonSeqFull","nonSeqPartial","seqNoFeedback","seqFeedback"],"classroomPairings":[["A","B"],["C","D"]],"coinWeights":[0.2,0.5,0.8],"subjectId":"A38IZLCH8VYVFK","assignmentId":"3X4MXAO0BHASMB2VLZGIGJZ1YYVWR4","hitId":"32TZXEA1OL6QYKM0MXQIQH2ABHN14I","url":"https://gershmanlab.com/experiments/alicia/teaching/experiment/?hitId=32TZXEA1OL6QYKM0MXQIQH2ABHN14I&workerId=A38IZLCH8VYVFK&assignmentId=3X4MXAO0BHASMB2VLZGIGJZ1YYVWR4&a=0X4X9&tp_a=0X4X9&b=3X4MXAO0BHASMB2VLZGIGJZ1YYVWR4&tp_b=3X4MXAO0BHASMB2VLZGIGJZ1YYVWR4&c=365799&tp_c=365799","heads":8,"tails":2,"studentIndex":15,"studentTrueHypers":{"a":4,"b":1},"studentGuess":0.8,"delta":0,"totalExamples":10,"bonus":0.4,"bonusSoFar":3.2},{"rt":7640,"response":{"heads":"8","tails":"7"},"type":"response","condition":"seqFeedback","trueTheta":0.5,"classrooms":["C","D"],"studentTrueClassroom":"D","exampleSet":"first","trial_type":"survey-html-form","trial_index":133,"time_elapsed":1337968,"internal_node_id":"0.0-126.0-0.0","params":{"nStudents":24,"maxFlips":30,"completionMinutes":45,"basePay":8,"maxBonus":9,"perTrialBonus":0.5,"perTrialBonusThreshold":0.05,"exampleCost":0.01},"classroomParams":{"A":{"a":1,"b":4},"B":{"a":4,"b":1},"C":{"a":2,"b":8},"D":{"a":8,"b":2}},"conditions":["nonSeqFull","nonSeqPartial","seqNoFeedback","seqFeedback"],"classroomPairings":[["A","B"],["C","D"]],"coinWeights":[0.2,0.5,0.8],"subjectId":"A38IZLCH8VYVFK","assignmentId":"3X4MXAO0BHASMB2VLZGIGJZ1YYVWR4","hitId":"32TZXEA1OL6QYKM0MXQIQH2ABHN14I","url":"https://gershmanlab.com/experiments/alicia/teaching/experiment/?hitId=32TZXEA1OL6QYKM0MXQIQH2ABHN14I&workerId=A38IZLCH8VYVFK&assignmentId=3X4MXAO0BHASMB2VLZGIGJZ1YYVWR4&a=0X4X9&tp_a=0X4X9&b=3X4MXAO0BHASMB2VLZGIGJZ1YYVWR4&tp_b=3X4MXAO0BHASMB2VLZGIGJZ1YYVWR4&c=365799&tp_c=365799","heads":8,"tails":7,"studentIndex":16,"studentTrueHypers":{"a":8,"b":2},"studentGuess":0.64,"delta":0.14,"totalExamples":15,"bonusSoFar":3.2},{"rt":10477,"response":{"heads":"5","tails":"9"},"type":"response","condition":"seqFeedback","trueTheta":0.5,"classrooms":["C","D"],"studentTrueClassroom":"D","exampleSet":"second","trial_type":"survey-html-form","trial_index":137,"time_elapsed":1368383,"internal_node_id":"0.0-130.0-0.0","params":{"nStudents":24,"maxFlips":30,"completionMinutes":45,"basePay":8,"maxBonus":9,"perTrialBonus":0.5,"perTrialBonusThreshold":0.05,"exampleCost":0.01},"classroomParams":{"A":{"a":1,"b":4},"B":{"a":4,"b":1},"C":{"a":2,"b":8},"D":{"a":8,"b":2}},"conditions":["nonSeqFull","nonSeqPartial","seqNoFeedback","seqFeedback"],"classroomPairings":[["A","B"],["C","D"]],"coinWeights":[0.2,0.5,0.8],"subjectId":"A38IZLCH8VYVFK","assignmentId":"3X4MXAO0BHASMB2VLZGIGJZ1YYVWR4","hitId":"32TZXEA1OL6QYKM0MXQIQH2ABHN14I","url":"https://gershmanlab.com/experiments/alicia/teaching/experiment/?hitId=32TZXEA1OL6QYKM0MXQIQH2ABHN14I&workerId=A38IZLCH8VYVFK&assignmentId=3X4MXAO0BHASMB2VLZGIGJZ1YYVWR4&a=0X4X9&tp_a=0X4X9&b=3X4MXAO0BHASMB2VLZGIGJZ1YYVWR4&tp_b=3X4MXAO0BHASMB2VLZGIGJZ1YYVWR4&c=365799&tp_c=365799","firstResponseHeads":8,"firstResponseTails":7,"secondResponseHeads":5,"secondResponseTails":9,"totalHeads":13,"totalTails":16,"studentIndex":16,"studentTrueHypers":{"a":8,"b":2},"studentGuess":0.5384615384615384,"delta":0.038461538461538436,"bonus":0.21,"bonusSoFar":3.41,"totalExamples":29},{"rt":9779,"response":{"heads":"8","tails":"7"},"type":"response","condition":"seqNoFeedback","trueTheta":0.5,"classrooms":["A","B"],"studentTrueClassroom":"B","exampleSet":"first","trial_type":"survey-html-form","trial_index":143,"time_elapsed":1401248,"internal_node_id":"0.0-136.0-0.0","params":{"nStudents":24,"maxFlips":30,"completionMinutes":45,"basePay":8,"maxBonus":9,"perTrialBonus":0.5,"perTrialBonusThreshold":0.05,"exampleCost":0.01},"classroomParams":{"A":{"a":1,"b":4},"B":{"a":4,"b":1},"C":{"a":2,"b":8},"D":{"a":8,"b":2}},"conditions":["nonSeqFull","nonSeqPartial","seqNoFeedback","seqFeedback"],"classroomPairings":[["A","B"],["C","D"]],"coinWeights":[0.2,0.5,0.8],"subjectId":"A38IZLCH8VYVFK","assignmentId":"3X4MXAO0BHASMB2VLZGIGJZ1YYVWR4","hitId":"32TZXEA1OL6QYKM0MXQIQH2ABHN14I","url":"https://gershmanlab.com/experiments/alicia/teaching/experiment/?hitId=32TZXEA1OL6QYKM0MXQIQH2ABHN14I&workerId=A38IZLCH8VYVFK&assignmentId=3X4MXAO0BHASMB2VLZGIGJZ1YYVWR4&a=0X4X9&tp_a=0X4X9&b=3X4MXAO0BHASMB2VLZGIGJZ1YYVWR4&tp_b=3X4MXAO0BHASMB2VLZGIGJZ1YYVWR4&c=365799&tp_c=365799","heads":8,"tails":7,"studentIndex":17,"studentTrueHypers":{"a":4,"b":1},"studentGuess":0.6,"delta":0.09999999999999998,"totalExamples":15,"bonusSoFar":3.41},{"rt":26297,"response":{"heads":"4","tails":"9"},"type":"response","condition":"seqNoFeedback","trueTheta":0.5,"classrooms":["A","B"],"studentTrueClassroom":"B","exampleSet":"second","trial_type":"survey-html-form","trial_index":146,"time_elapsed":1433307,"internal_node_id":"0.0-139.0-0.0","params":{"nStudents":24,"maxFlips":30,"completionMinutes":45,"basePay":8,"maxBonus":9,"perTrialBonus":0.5,"perTrialBonusThreshold":0.05,"exampleCost":0.01},"classroomParams":{"A":{"a":1,"b":4},"B":{"a":4,"b":1},"C":{"a":2,"b":8},"D":{"a":8,"b":2}},"conditions":["nonSeqFull","nonSeqPartial","seqNoFeedback","seqFeedback"],"classroomPairings":[["A","B"],["C","D"]],"coinWeights":[0.2,0.5,0.8],"subjectId":"A38IZLCH8VYVFK","assignmentId":"3X4MXAO0BHASMB2VLZGIGJZ1YYVWR4","hitId":"32TZXEA1OL6QYKM0MXQIQH2ABHN14I","url":"https://gershmanlab.com/experiments/alicia/teaching/experiment/?hitId=32TZXEA1OL6QYKM0MXQIQH2ABHN14I&workerId=A38IZLCH8VYVFK&assignmentId=3X4MXAO0BHASMB2VLZGIGJZ1YYVWR4&a=0X4X9&tp_a=0X4X9&b=3X4MXAO0BHASMB2VLZGIGJZ1YYVWR4&tp_b=3X4MXAO0BHASMB2VLZGIGJZ1YYVWR4&c=365799&tp_c=365799","firstResponseHeads":8,"firstResponseTails":7,"secondResponseHeads":4,"secondResponseTails":9,"totalHeads":12,"totalTails":16,"studentIndex":17,"studentTrueHypers":{"a":4,"b":1},"studentGuess":0.48484848484848486,"delta":0.015151515151515138,"bonus":0.22,"bonusSoFar":3.63,"totalExamples":28},{"rt":9678,"response":{"heads":"2","tails":"8"},"type":"response","condition":"nonSeqFull","trueTheta":0.2,"classrooms":["C","D"],"studentTrueClassroom":"D","exampleSet":"first","trial_type":"survey-html-form","trial_index":152,"time_elapsed":1459734,"internal_node_id":"0.0-145.0-0.0","params":{"nStudents":24,"maxFlips":30,"completionMinutes":45,"basePay":8,"maxBonus":9,"perTrialBonus":0.5,"perTrialBonusThreshold":0.05,"exampleCost":0.01},"classroomParams":{"A":{"a":1,"b":4},"B":{"a":4,"b":1},"C":{"a":2,"b":8},"D":{"a":8,"b":2}},"conditions":["nonSeqFull","nonSeqPartial","seqNoFeedback","seqFeedback"],"classroomPairings":[["A","B"],["C","D"]],"coinWeights":[0.2,0.5,0.8],"subjectId":"A38IZLCH8VYVFK","assignmentId":"3X4MXAO0BHASMB2VLZGIGJZ1YYVWR4","hitId":"32TZXEA1OL6QYKM0MXQIQH2ABHN14I","url":"https://gershmanlab.com/experiments/alicia/teaching/experiment/?hitId=32TZXEA1OL6QYKM0MXQIQH2ABHN14I&workerId=A38IZLCH8VYVFK&assignmentId=3X4MXAO0BHASMB2VLZGIGJZ1YYVWR4&a=0X4X9&tp_a=0X4X9&b=3X4MXAO0BHASMB2VLZGIGJZ1YYVWR4&tp_b=3X4MXAO0BHASMB2VLZGIGJZ1YYVWR4&c=365799&tp_c=365799","heads":2,"tails":8,"studentIndex":18,"studentTrueHypers":{"a":8,"b":2},"studentGuess":0.5,"delta":0.3,"totalExamples":10,"bonus":0,"bonusSoFar":3.63},{"rt":20017,"response":{"heads":"4","tails":"16"},"type":"response","condition":"seqFeedback","trueTheta":0.2,"classrooms":["C","D"],"studentTrueClassroom":"D","exampleSet":"first","trial_type":"survey-html-form","trial_index":158,"time_elapsed":1523197,"internal_node_id":"0.0-151.0-0.0","params":{"nStudents":24,"maxFlips":30,"completionMinutes":45,"basePay":8,"maxBonus":9,"perTrialBonus":0.5,"perTrialBonusThreshold":0.05,"exampleCost":0.01},"classroomParams":{"A":{"a":1,"b":4},"B":{"a":4,"b":1},"C":{"a":2,"b":8},"D":{"a":8,"b":2}},"conditions":["nonSeqFull","nonSeqPartial","seqNoFeedback","seqFeedback"],"classroomPairings":[["A","B"],["C","D"]],"coinWeights":[0.2,0.5,0.8],"subjectId":"A38IZLCH8VYVFK","assignmentId":"3X4MXAO0BHASMB2VLZGIGJZ1YYVWR4","hitId":"32TZXEA1OL6QYKM0MXQIQH2ABHN14I","url":"https://gershmanlab.com/experiments/alicia/teaching/experiment/?hitId=32TZXEA1OL6QYKM0MXQIQH2ABHN14I&workerId=A38IZLCH8VYVFK&assignmentId=3X4MXAO0BHASMB2VLZGIGJZ1YYVWR4&a=0X4X9&tp_a=0X4X9&b=3X4MXAO0BHASMB2VLZGIGJZ1YYVWR4&tp_b=3X4MXAO0BHASMB2VLZGIGJZ1YYVWR4&c=365799&tp_c=365799","heads":4,"tails":16,"studentIndex":19,"studentTrueHypers":{"a":8,"b":2},"studentGuess":0.4,"delta":0.2,"totalExamples":20,"bonusSoFar":3.63},{"rt":5017,"response":{"heads":"4","tails":"16"},"type":"response","condition":"seqFeedback","trueTheta":0.2,"classrooms":["C","D"],"studentTrueClassroom":"D","exampleSet":"second","trial_type":"survey-html-form","trial_index":162,"time_elapsed":1538985,"internal_node_id":"0.0-155.0-0.0","params":{"nStudents":24,"maxFlips":30,"completionMinutes":45,"basePay":8,"maxBonus":9,"perTrialBonus":0.5,"perTrialBonusThreshold":0.05,"exampleCost":0.01},"classroomParams":{"A":{"a":1,"b":4},"B":{"a":4,"b":1},"C":{"a":2,"b":8},"D":{"a":8,"b":2}},"conditions":["nonSeqFull","nonSeqPartial","seqNoFeedback","seqFeedback"],"classroomPairings":[["A","B"],["C","D"]],"coinWeights":[0.2,0.5,0.8],"subjectId":"A38IZLCH8VYVFK","assignmentId":"3X4MXAO0BHASMB2VLZGIGJZ1YYVWR4","hitId":"32TZXEA1OL6QYKM0MXQIQH2ABHN14I","url":"https://gershmanlab.com/experiments/alicia/teaching/experiment/?hitId=32TZXEA1OL6QYKM0MXQIQH2ABHN14I&workerId=A38IZLCH8VYVFK&assignmentId=3X4MXAO0BHASMB2VLZGIGJZ1YYVWR4&a=0X4X9&tp_a=0X4X9&b=3X4MXAO0BHASMB2VLZGIGJZ1YYVWR4&tp_b=3X4MXAO0BHASMB2VLZGIGJZ1YYVWR4&c=365799&tp_c=365799","firstResponseHeads":4,"firstResponseTails":16,"secondResponseHeads":4,"secondResponseTails":16,"totalHeads":8,"totalTails":32,"studentIndex":19,"studentTrueHypers":{"a":8,"b":2},"studentGuess":0.32,"delta":0.12,"bonus":0,"bonusSoFar":3.63,"totalExamples":40},{"rt":18374,"response":{"heads":"16","tails":"4"},"type":"response","condition":"seqFeedback","trueTheta":0.8,"classrooms":["C","D"],"studentTrueClassroom":"C","exampleSet":"first","trial_type":"survey-html-form","trial_index":168,"time_elapsed":1574379,"internal_node_id":"0.0-161.0-0.0","params":{"nStudents":24,"maxFlips":30,"completionMinutes":45,"basePay":8,"maxBonus":9,"perTrialBonus":0.5,"perTrialBonusThreshold":0.05,"exampleCost":0.01},"classroomParams":{"A":{"a":1,"b":4},"B":{"a":4,"b":1},"C":{"a":2,"b":8},"D":{"a":8,"b":2}},"conditions":["nonSeqFull","nonSeqPartial","seqNoFeedback","seqFeedback"],"classroomPairings":[["A","B"],["C","D"]],"coinWeights":[0.2,0.5,0.8],"subjectId":"A38IZLCH8VYVFK","assignmentId":"3X4MXAO0BHASMB2VLZGIGJZ1YYVWR4","hitId":"32TZXEA1OL6QYKM0MXQIQH2ABHN14I","url":"https://gershmanlab.com/experiments/alicia/teaching/experiment/?hitId=32TZXEA1OL6QYKM0MXQIQH2ABHN14I&workerId=A38IZLCH8VYVFK&assignmentId=3X4MXAO0BHASMB2VLZGIGJZ1YYVWR4&a=0X4X9&tp_a=0X4X9&b=3X4MXAO0BHASMB2VLZGIGJZ1YYVWR4&tp_b=3X4MXAO0BHASMB2VLZGIGJZ1YYVWR4&c=365799&tp_c=365799","heads":16,"tails":4,"studentIndex":20,"studentTrueHypers":{"a":2,"b":8},"studentGuess":0.6,"delta":0.20000000000000007,"totalExamples":20,"bonusSoFar":3.63},{"rt":18286,"response":{"heads":"16","tails":"4"},"type":"response","condition":"seqFeedback","trueTheta":0.8,"classrooms":["C","D"],"studentTrueClassroom":"C","exampleSet":"second","trial_type":"survey-html-form","trial_index":172,"time_elapsed":1605536,"internal_node_id":"0.0-165.0-0.0","params":{"nStudents":24,"maxFlips":30,"completionMinutes":45,"basePay":8,"maxBonus":9,"perTrialBonus":0.5,"perTrialBonusThreshold":0.05,"exampleCost":0.01},"classroomParams":{"A":{"a":1,"b":4},"B":{"a":4,"b":1},"C":{"a":2,"b":8},"D":{"a":8,"b":2}},"conditions":["nonSeqFull","nonSeqPartial","seqNoFeedback","seqFeedback"],"classroomPairings":[["A","B"],["C","D"]],"coinWeights":[0.2,0.5,0.8],"subjectId":"A38IZLCH8VYVFK","assignmentId":"3X4MXAO0BHASMB2VLZGIGJZ1YYVWR4","hitId":"32TZXEA1OL6QYKM0MXQIQH2ABHN14I","url":"https://gershmanlab.com/experiments/alicia/teaching/experiment/?hitId=32TZXEA1OL6QYKM0MXQIQH2ABHN14I&workerId=A38IZLCH8VYVFK&assignmentId=3X4MXAO0BHASMB2VLZGIGJZ1YYVWR4&a=0X4X9&tp_a=0X4X9&b=3X4MXAO0BHASMB2VLZGIGJZ1YYVWR4&tp_b=3X4MXAO0BHASMB2VLZGIGJZ1YYVWR4&c=365799&tp_c=365799","firstResponseHeads":16,"firstResponseTails":4,"secondResponseHeads":16,"secondResponseTails":4,"totalHeads":32,"totalTails":8,"studentIndex":20,"studentTrueHypers":{"a":2,"b":8},"studentGuess":0.68,"delta":0.12,"bonus":0,"bonusSoFar":3.63,"totalExamples":40},{"rt":8191,"response":{"heads":"16","tails":"4"},"type":"response","condition":"seqNoFeedback","trueTheta":0.8,"classrooms":["A","B"],"studentTrueClassroom":"B","exampleSet":"first","trial_type":"survey-html-form","trial_index":178,"time_elapsed":1632171,"internal_node_id":"0.0-171.0-0.0","params":{"nStudents":24,"maxFlips":30,"completionMinutes":45,"basePay":8,"maxBonus":9,"perTrialBonus":0.5,"perTrialBonusThreshold":0.05,"exampleCost":0.01},"classroomParams":{"A":{"a":1,"b":4},"B":{"a":4,"b":1},"C":{"a":2,"b":8},"D":{"a":8,"b":2}},"conditions":["nonSeqFull","nonSeqPartial","seqNoFeedback","seqFeedback"],"classroomPairings":[["A","B"],["C","D"]],"coinWeights":[0.2,0.5,0.8],"subjectId":"A38IZLCH8VYVFK","assignmentId":"3X4MXAO0BHASMB2VLZGIGJZ1YYVWR4","hitId":"32TZXEA1OL6QYKM0MXQIQH2ABHN14I","url":"https://gershmanlab.com/experiments/alicia/teaching/experiment/?hitId=32TZXEA1OL6QYKM0MXQIQH2ABHN14I&workerId=A38IZLCH8VYVFK&assignmentId=3X4MXAO0BHASMB2VLZGIGJZ1YYVWR4&a=0X4X9&tp_a=0X4X9&b=3X4MXAO0BHASMB2VLZGIGJZ1YYVWR4&tp_b=3X4MXAO0BHASMB2VLZGIGJZ1YYVWR4&c=365799&tp_c=365799","heads":16,"tails":4,"studentIndex":21,"studentTrueHypers":{"a":4,"b":1},"studentGuess":0.8,"delta":0,"totalExamples":20,"bonusSoFar":3.63},{"rt":15581,"response":{"heads":"16","tails":"4"},"type":"response","condition":"seqNoFeedback","trueTheta":0.8,"classrooms":["A","B"],"studentTrueClassroom":"B","exampleSet":"second","trial_type":"survey-html-form","trial_index":181,"time_elapsed":1654257,"internal_node_id":"0.0-174.0-0.0","params":{"nStudents":24,"maxFlips":30,"completionMinutes":45,"basePay":8,"maxBonus":9,"perTrialBonus":0.5,"perTrialBonusThreshold":0.05,"exampleCost":0.01},"classroomParams":{"A":{"a":1,"b":4},"B":{"a":4,"b":1},"C":{"a":2,"b":8},"D":{"a":8,"b":2}},"conditions":["nonSeqFull","nonSeqPartial","seqNoFeedback","seqFeedback"],"classroomPairings":[["A","B"],["C","D"]],"coinWeights":[0.2,0.5,0.8],"subjectId":"A38IZLCH8VYVFK","assignmentId":"3X4MXAO0BHASMB2VLZGIGJZ1YYVWR4","hitId":"32TZXEA1OL6QYKM0MXQIQH2ABHN14I","url":"https://gershmanlab.com/experiments/alicia/teaching/experiment/?hitId=32TZXEA1OL6QYKM0MXQIQH2ABHN14I&workerId=A38IZLCH8VYVFK&assignmentId=3X4MXAO0BHASMB2VLZGIGJZ1YYVWR4&a=0X4X9&tp_a=0X4X9&b=3X4MXAO0BHASMB2VLZGIGJZ1YYVWR4&tp_b=3X4MXAO0BHASMB2VLZGIGJZ1YYVWR4&c=365799&tp_c=365799","firstResponseHeads":16,"firstResponseTails":4,"secondResponseHeads":16,"secondResponseTails":4,"totalHeads":32,"totalTails":8,"studentIndex":21,"studentTrueHypers":{"a":4,"b":1},"studentGuess":0.8,"delta":0,"bonus":0.1,"bonusSoFar":3.73,"totalExamples":40},{"rt":4745,"response":{"heads":"16","tails":"4"},"type":"response","condition":"nonSeqPartial","trueTheta":0.8,"classrooms":["A","B"],"studentTrueClassroom":"B","exampleSet":"first","trial_type":"survey-html-form","trial_index":187,"time_elapsed":1686763,"internal_node_id":"0.0-180.0-0.0","params":{"nStudents":24,"maxFlips":30,"completionMinutes":45,"basePay":8,"maxBonus":9,"perTrialBonus":0.5,"perTrialBonusThreshold":0.05,"exampleCost":0.01},"classroomParams":{"A":{"a":1,"b":4},"B":{"a":4,"b":1},"C":{"a":2,"b":8},"D":{"a":8,"b":2}},"conditions":["nonSeqFull","nonSeqPartial","seqNoFeedback","seqFeedback"],"classroomPairings":[["A","B"],["C","D"]],"coinWeights":[0.2,0.5,0.8],"subjectId":"A38IZLCH8VYVFK","assignmentId":"3X4MXAO0BHASMB2VLZGIGJZ1YYVWR4","hitId":"32TZXEA1OL6QYKM0MXQIQH2ABHN14I","url":"https://gershmanlab.com/experiments/alicia/teaching/experiment/?hitId=32TZXEA1OL6QYKM0MXQIQH2ABHN14I&workerId=A38IZLCH8VYVFK&assignmentId=3X4MXAO0BHASMB2VLZGIGJZ1YYVWR4&a=0X4X9&tp_a=0X4X9&b=3X4MXAO0BHASMB2VLZGIGJZ1YYVWR4&tp_b=3X4MXAO0BHASMB2VLZGIGJZ1YYVWR4&c=365799&tp_c=365799","heads":16,"tails":4,"studentIndex":22,"studentTrueHypers":{"a":4,"b":1},"studentGuess":0.8,"delta":0,"totalExamples":20,"bonus":0.3,"bonusSoFar":4.03},{"rt":9309,"response":{"heads":"2","tails":"8"},"type":"response","condition":"nonSeqPartial","trueTheta":0.2,"classrooms":["C","D"],"studentTrueClassroom":"C","exampleSet":"first","trial_type":"survey-html-form","trial_index":193,"time_elapsed":1712083,"internal_node_id":"0.0-186.0-0.0","params":{"nStudents":24,"maxFlips":30,"completionMinutes":45,"basePay":8,"maxBonus":9,"perTrialBonus":0.5,"perTrialBonusThreshold":0.05,"exampleCost":0.01},"classroomParams":{"A":{"a":1,"b":4},"B":{"a":4,"b":1},"C":{"a":2,"b":8},"D":{"a":8,"b":2}},"conditions":["nonSeqFull","nonSeqPartial","seqNoFeedback","seqFeedback"],"classroomPairings":[["A","B"],["C","D"]],"coinWeights":[0.2,0.5,0.8],"subjectId":"A38IZLCH8VYVFK","assignmentId":"3X4MXAO0BHASMB2VLZGIGJZ1YYVWR4","hitId":"32TZXEA1OL6QYKM0MXQIQH2ABHN14I","url":"https://gershmanlab.com/experiments/alicia/teaching/experiment/?hitId=32TZXEA1OL6QYKM0MXQIQH2ABHN14I&workerId=A38IZLCH8VYVFK&assignmentId=3X4MXAO0BHASMB2VLZGIGJZ1YYVWR4&a=0X4X9&tp_a=0X4X9&b=3X4MXAO0BHASMB2VLZGIGJZ1YYVWR4&tp_b=3X4MXAO0BHASMB2VLZGIGJZ1YYVWR4&c=365799&tp_c=365799","heads":2,"tails":8,"studentIndex":23,"studentTrueHypers":{"a":2,"b":8},"studentGuess":0.2,"delta":0,"totalExamples":10,"bonus":0.4,"bonusSoFar":4.43},{"rt":11750,"response":{"gender":"male","age":"47","understood":"yes","comments":""},"type":"response","trial_type":"survey-html-form","trial_index":197,"time_elapsed":1734597,"internal_node_id":"0.0-191.0","params":{"nStudents":24,"maxFlips":30,"completionMinutes":45,"basePay":8,"maxBonus":9,"perTrialBonus":0.5,"perTrialBonusThreshold":0.05,"exampleCost":0.01},"classroomParams":{"A":{"a":1,"b":4},"B":{"a":4,"b":1},"C":{"a":2,"b":8},"D":{"a":8,"b":2}},"conditions":["nonSeqFull","nonSeqPartial","seqNoFeedback","seqFeedback"],"classroomPairings":[["A","B"],["C","D"]],"coinWeights":[0.2,0.5,0.8],"subjectId":"A38IZLCH8VYVFK","assignmentId":"3X4MXAO0BHASMB2VLZGIGJZ1YYVWR4","hitId":"32TZXEA1OL6QYKM0MXQIQH2ABHN14I","url":"https://gershmanlab.com/experiments/alicia/teaching/experiment/?hitId=32TZXEA1OL6QYKM0MXQIQH2ABHN14I&workerId=A38IZLCH8VYVFK&assignmentId=3X4MXAO0BHASMB2VLZGIGJZ1YYVWR4&a=0X4X9&tp_a=0X4X9&b=3X4MXAO0BHASMB2VLZGIGJZ1YYVWR4&tp_b=3X4MXAO0BHASMB2VLZGIGJZ1YYVWR4&c=365799&tp_c=365799","totalBonus":4.43}]