[{"rt":52128,"response":{"heads":"4","tails":"1"},"type":"response","condition":"seqFeedback","trueTheta":0.2,"classrooms":["C","D"],"studentTrueClassroom":"D","exampleSet":"first","trial_type":"survey-html-form","trial_index":19,"time_elapsed":851270,"internal_node_id":"0.0-6.0-0.0","params":{"nStudents":24,"maxFlips":30,"completionMinutes":45,"basePay":8,"maxBonus":9,"perTrialBonus":0.5,"perTrialBonusThreshold":0.05,"exampleCost":0.01},"classroomParams":{"A":{"a":1,"b":4},"B":{"a":4,"b":1},"C":{"a":2,"b":8},"D":{"a":8,"b":2}},"conditions":["nonSeqFull","nonSeqPartial","seqNoFeedback","seqFeedback"],"classroomPairings":[["A","B"],["C","D"]],"coinWeights":[0.2,0.5,0.8],"subjectId":"A39SK1E6IMQBD5","assignmentId":"3R3YRB5GRGPNVQR9OOFV35PUDDKUAH","hitId":"3UDTAB6HH6LRO17U79I9TKUGSHV90J","url":"https://gershmanlab.com/experiments/alicia/teaching/experiment/?hitId=3UDTAB6HH6LRO17U79I9TKUGSHV90J&workerId=A39SK1E6IMQBD5&assignmentId=3R3YRB5GRGPNVQR9OOFV35PUDDKUAH&a=GR3R9&tp_a=GR3R9&b=3R3YRB5GRGPNVQR9OOFV35PUDDKUAH&tp_b=3R3YRB5GRGPNVQR9OOFV35PUDDKUAH&c=365799&tp_c=365799","heads":4,"tails":1,"studentIndex":0,"studentTrueHypers":{"a":8,"b":2},"studentGuess":0.8,"delta":0.6000000000000001,"totalExamples":5,"bonusSoFar":0},{"rt":31939,"response":{"heads":"4","tails":"1"},"type":"response","condition":"seqFeedback","trueTheta":0.2,"classrooms":["C","D"],"studentTrueClassroom":"D","exampleSet":"second","trial_type":"survey-html-form","trial_index":23,"time_elapsed":898318,"internal_node_id":"0.0-10.0-0.0","params":{"nStudents":24,"maxFlips":30,"completionMinutes":45,"basePay":8,"maxBonus":9,"perTrialBonus":0.5,"perTrialBonusThreshold":0.05,"exampleCost":0.01},"classroomParams":{"A":{"a":1,"b":4},"B":{"a":4,"b":1},"C":{"a":2,"b":8},"D":{"a":8,"b":2}},"conditions":["nonSeqFull","nonSeqPartial","seqNoFeedback","seqFeedback"],"classroomPairings":[["A","B"],["C","D"]],"coinWeights":[0.2,0.5,0.8],"subjectId":"A39SK1E6IMQBD5","assignmentId":"3R3YRB5GRGPNVQR9OOFV35PUDDKUAH","hitId":"3UDTAB6HH6LRO17U79I9TKUGSHV90J","url":"https://gershmanlab.com/experiments/alicia/teaching/experiment/?hitId=3UDTAB6HH6LRO17U79I9TKUGSHV90J&workerId=A39SK1E6IMQBD5&assignmentId=3R3YRB5GRGPNVQR9OOFV35PUDDKUAH&a=GR3R9&tp_a=GR3R9&b=3R3YRB5GRGPNVQR9OOFV35PUDDKUAH&tp_b=3R3YRB5GRGPNVQR9OOFV35PUDDKUAH&c=365799&tp_c=365799","firstResponseHeads":4,"firstResponseTails":1,"secondResponseHeads":4,"secondResponseTails":1,"totalHeads":8,"totalTails":2,"studentIndex":0,"studentTrueHypers":{"a":8,"b":2},"studentGuess":0.8,"delta":0.6000000000000001,"bonus":0,"bonusSoFar":0,"totalExamples":10},{"rt":7088,"response":{"heads":"1","tails":"1"},"type":"response","condition":"nonSeqFull","trueTheta":0.5,"classrooms":["C","D"],"studentTrueClassroom":"D","exampleSet":"first","trial_type":"survey-html-form","trial_index":29,"time_elapsed":924208,"internal_node_id":"0.0-16.0-0.0","params":{"nStudents":24,"maxFlips":30,"completionMinutes":45,"basePay":8,"maxBonus":9,"perTrialBonus":0.5,"perTrialBonusThreshold":0.05,"exampleCost":0.01},"classroomParams":{"A":{"a":1,"b":4},"B":{"a":4,"b":1},"C":{"a":2,"b":8},"D":{"a":8,"b":2}},"conditions":["nonSeqFull","nonSeqPartial","seqNoFeedback","seqFeedback"],"classroomPairings":[["A","B"],["C","D"]],"coinWeights":[0.2,0.5,0.8],"subjectId":"A39SK1E6IMQBD5","assignmentId":"3R3YRB5GRGPNVQR9OOFV35PUDDKUAH","hitId":"3UDTAB6HH6LRO17U79I9TKUGSHV90J","url":"https://gershmanlab.com/experiments/alicia/teaching/experiment/?hitId=3UDTAB6HH6LRO17U79I9TKUGSHV90J&workerId=A39SK1E6IMQBD5&assignmentId=3R3YRB5GRGPNVQR9OOFV35PUDDKUAH&a=GR3R9&tp_a=GR3R9&b=3R3YRB5GRGPNVQR9OOFV35PUDDKUAH&tp_b=3R3YRB5GRGPNVQR9OOFV35PUDDKUAH&c=365799&tp_c=365799","heads":1,"tails":1,"studentIndex":1,"studentTrueHypers":{"a":8,"b":2},"studentGuess":0.75,"delta":0.25,"totalExamples":2,"bonus":0,"bonusSoFar":0},{"rt":15924,"response":{"heads":"4","tails":"1"},"type":"response","condition":"nonSeqFull","trueTheta":0.2,"classrooms":["A","B"],"studentTrueClassroom":"B","exampleSet":"first","trial_type":"survey-html-form","trial_index":35,"time_elapsed":962522,"internal_node_id":"0.0-22.0-0.0","params":{"nStudents":24,"maxFlips":30,"completionMinutes":45,"basePay":8,"maxBonus":9,"perTrialBonus":0.5,"perTrialBonusThreshold":0.05,"exampleCost":0.01},"classroomParams":{"A":{"a":1,"b":4},"B":{"a":4,"b":1},"C":{"a":2,"b":8},"D":{"a":8,"b":2}},"conditions":["nonSeqFull","nonSeqPartial","seqNoFeedback","seqFeedback"],"classroomPairings":[["A","B"],["C","D"]],"coinWeights":[0.2,0.5,0.8],"subjectId":"A39SK1E6IMQBD5","assignmentId":"3R3YRB5GRGPNVQR9OOFV35PUDDKUAH","hitId":"3UDTAB6HH6LRO17U79I9TKUGSHV90J","url":"https://gershmanlab.com/experiments/alicia/teaching/experiment/?hitId=3UDTAB6HH6LRO17U79I9TKUGSHV90J&workerId=A39SK1E6IMQBD5&assignmentId=3R3YRB5GRGPNVQR9OOFV35PUDDKUAH&a=GR3R9&tp_a=GR3R9&b=3R3YRB5GRGPNVQR9OOFV35PUDDKUAH&tp_b=3R3YRB5GRGPNVQR9OOFV35PUDDKUAH&c=365799&tp_c=365799","heads":4,"tails":1,"studentIndex":2,"studentTrueHypers":{"a":4,"b":1},"studentGuess":0.8,"delta":0.6000000000000001,"totalExamples":5,"bonus":0,"bonusSoFar":0},{"rt":15689,"response":{"heads":"4","tails":"1"},"type":"response","condition":"nonSeqFull","trueTheta":0.8,"classrooms":["A","B"],"studentTrueClassroom":"A","exampleSet":"first","trial_type":"survey-html-form","trial_index":41,"time_elapsed":995269,"internal_node_id":"0.0-28.0-0.0","params":{"nStudents":24,"maxFlips":30,"completionMinutes":45,"basePay":8,"maxBonus":9,"perTrialBonus":0.5,"perTrialBonusThreshold":0.05,"exampleCost":0.01},"classroomParams":{"A":{"a":1,"b":4},"B":{"a":4,"b":1},"C":{"a":2,"b":8},"D":{"a":8,"b":2}},"conditions":["nonSeqFull","nonSeqPartial","seqNoFeedback","seqFeedback"],"classroomPairings":[["A","B"],["C","D"]],"coinWeights":[0.2,0.5,0.8],"subjectId":"A39SK1E6IMQBD5","assignmentId":"3R3YRB5GRGPNVQR9OOFV35PUDDKUAH","hitId":"3UDTAB6HH6LRO17U79I9TKUGSHV90J","url":"https://gershmanlab.com/experiments/alicia/teaching/experiment/?hitId=3UDTAB6HH6LRO17U79I9TKUGSHV90J&workerId=A39SK1E6IMQBD5&assignmentId=3R3YRB5GRGPNVQR9OOFV35PUDDKUAH&a=GR3R9&tp_a=GR3R9&b=3R3YRB5GRGPNVQR9OOFV35PUDDKUAH&tp_b=3R3YRB5GRGPNVQR9OOFV35PUDDKUAH&c=365799&tp_c=365799","heads":4,"tails":1,"studentIndex":3,"studentTrueHypers":{"a":1,"b":4},"studentGuess":0.5,"delta":0.30000000000000004,"totalExamples":5,"bonus":0,"bonusSoFar":0},{"rt":15538,"response":{"heads":"3","tails":"0"},"type":"response","condition":"nonSeqFull","trueTheta":0.5,"classrooms":["A","B"],"studentTrueClassroom":"A","exampleSet":"first","trial_type":"survey-html-form","trial_index":47,"time_elapsed":1026700,"internal_node_id":"0.0-34.0-0.0","params":{"nStudents":24,"maxFlips":30,"completionMinutes":45,"basePay":8,"maxBonus":9,"perTrialBonus":0.5,"perTrialBonusThreshold":0.05,"exampleCost":0.01},"classroomParams":{"A":{"a":1,"b":4},"B":{"a":4,"b":1},"C":{"a":2,"b":8},"D":{"a":8,"b":2}},"conditions":["nonSeqFull","nonSeqPartial","seqNoFeedback","seqFeedback"],"classroomPairings":[["A","B"],["C","D"]],"coinWeights":[0.2,0.5,0.8],"subjectId":"A39SK1E6IMQBD5","assignmentId":"3R3YRB5GRGPNVQR9OOFV35PUDDKUAH","hitId":"3UDTAB6HH6LRO17U79I9TKUGSHV90J","url":"https://gershmanlab.com/experiments/alicia/teaching/experiment/?hitId=3UDTAB6HH6LRO17U79I9TKUGSHV90J&workerId=A39SK1E6IMQBD5&assignmentId=3R3YRB5GRGPNVQR9OOFV35PUDDKUAH&a=GR3R9&tp_a=GR3R9&b=3R3YRB5GRGPNVQR9OOFV35PUDDKUAH&tp_b=3R3YRB5GRGPNVQR9OOFV35PUDDKUAH&c=365799&tp_c=365799","heads":3,"tails":0,"studentIndex":4,"studentTrueHypers":{"a":1,"b":4},"studentGuess":0.5,"delta":0,"totalExamples":3,"bonus":0.47,"bonusSoFar":0.47},{"rt":16751,"response":{"heads":"0","tails":"0"},"type":"response","condition":"nonSeqPartial","trueTheta":0.8,"classrooms":["C","D"],"studentTrueClassroom":"C","exampleSet":"first","trial_type":"survey-html-form","trial_index":53,"time_elapsed":1063199,"internal_node_id":"0.0-40.0-0.0","params":{"nStudents":24,"maxFlips":30,"completionMinutes":45,"basePay":8,"maxBonus":9,"perTrialBonus":0.5,"perTrialBonusThreshold":0.05,"exampleCost":0.01},"classroomParams":{"A":{"a":1,"b":4},"B":{"a":4,"b":1},"C":{"a":2,"b":8},"D":{"a":8,"b":2}},"conditions":["nonSeqFull","nonSeqPartial","seqNoFeedback","seqFeedback"],"classroomPairings":[["A","B"],["C","D"]],"coinWeights":[0.2,0.5,0.8],"subjectId":"A39SK1E6IMQBD5","assignmentId":"3R3YRB5GRGPNVQR9OOFV35PUDDKUAH","hitId":"3UDTAB6HH6LRO17U79I9TKUGSHV90J","url":"https://gershmanlab.com/experiments/alicia/teaching/experiment/?hitId=3UDTAB6HH6LRO17U79I9TKUGSHV90J&workerId=A39SK1E6IMQBD5&assignmentId=3R3YRB5GRGPNVQR9OOFV35PUDDKUAH&a=GR3R9&tp_a=GR3R9&b=3R3YRB5GRGPNVQR9OOFV35PUDDKUAH&tp_b=3R3YRB5GRGPNVQR9OOFV35PUDDKUAH&c=365799&tp_c=365799","heads":0,"tails":0,"studentIndex":5,"studentTrueHypers":{"a":2,"b":8},"studentGuess":0.2,"delta":0.6000000000000001,"totalExamples":0,"bonus":0,"bonusSoFar":0.47},{"rt":7111,"response":{"heads":"0","tails":"0"},"type":"response","condition":"nonSeqPartial","trueTheta":0.8,"classrooms":["C","D"],"studentTrueClassroom":"C","exampleSet":"first","trial_type":"survey-html-form","trial_index":54,"time_elapsed":1070312,"internal_node_id":"0.0-40.1-0.1","params":{"nStudents":24,"maxFlips":30,"completionMinutes":45,"basePay":8,"maxBonus":9,"perTrialBonus":0.5,"perTrialBonusThreshold":0.05,"exampleCost":0.01},"classroomParams":{"A":{"a":1,"b":4},"B":{"a":4,"b":1},"C":{"a":2,"b":8},"D":{"a":8,"b":2}},"conditions":["nonSeqFull","nonSeqPartial","seqNoFeedback","seqFeedback"],"classroomPairings":[["A","B"],["C","D"]],"coinWeights":[0.2,0.5,0.8],"subjectId":"A39SK1E6IMQBD5","assignmentId":"3R3YRB5GRGPNVQR9OOFV35PUDDKUAH","hitId":"3UDTAB6HH6LRO17U79I9TKUGSHV90J","url":"https://gershmanlab.com/experiments/alicia/teaching/experiment/?hitId=3UDTAB6HH6LRO17U79I9TKUGSHV90J&workerId=A39SK1E6IMQBD5&assignmentId=3R3YRB5GRGPNVQR9OOFV35PUDDKUAH&a=GR3R9&tp_a=GR3R9&b=3R3YRB5GRGPNVQR9OOFV35PUDDKUAH&tp_b=3R3YRB5GRGPNVQR9OOFV35PUDDKUAH&c=365799&tp_c=365799","heads":0,"tails":0,"studentIndex":5,"studentTrueHypers":{"a":2,"b":8},"studentGuess":0.2,"delta":0.6000000000000001,"totalExamples":0,"bonus":0,"bonusSoFar":0.47},{"rt":36701,"response":{"heads":"1","tails":"1"},"type":"response","condition":"nonSeqPartial","trueTheta":0.8,"classrooms":["C","D"],"studentTrueClassroom":"C","exampleSet":"first","trial_type":"survey-html-form","trial_index":55,"time_elapsed":1107014,"internal_node_id":"0.0-40.2-0.2","params":{"nStudents":24,"maxFlips":30,"completionMinutes":45,"basePay":8,"maxBonus":9,"perTrialBonus":0.5,"perTrialBonusThreshold":0.05,"exampleCost":0.01},"classroomParams":{"A":{"a":1,"b":4},"B":{"a":4,"b":1},"C":{"a":2,"b":8},"D":{"a":8,"b":2}},"conditions":["nonSeqFull","nonSeqPartial","seqNoFeedback","seqFeedback"],"classroomPairings":[["A","B"],["C","D"]],"coinWeights":[0.2,0.5,0.8],"subjectId":"A39SK1E6IMQBD5","assignmentId":"3R3YRB5GRGPNVQR9OOFV35PUDDKUAH","hitId":"3UDTAB6HH6LRO17U79I9TKUGSHV90J","url":"https://gershmanlab.com/experiments/alicia/teaching/experiment/?hitId=3UDTAB6HH6LRO17U79I9TKUGSHV90J&workerId=A39SK1E6IMQBD5&assignmentId=3R3YRB5GRGPNVQR9OOFV35PUDDKUAH&a=GR3R9&tp_a=GR3R9&b=3R3YRB5GRGPNVQR9OOFV35PUDDKUAH&tp_b=3R3YRB5GRGPNVQR9OOFV35PUDDKUAH&c=365799&tp_c=365799","heads":1,"tails":1,"studentIndex":5,"studentTrueHypers":{"a":2,"b":8},"studentGuess":0.25,"delta":0.55,"totalExamples":2,"bonus":0,"bonusSoFar":0.47},{"rt":19839,"response":{"heads":"30","tails":"0"},"type":"response","condition":"nonSeqFull","trueTheta":0.8,"classrooms":["C","D"],"studentTrueClassroom":"C","exampleSet":"first","trial_type":"survey-html-form","trial_index":61,"time_elapsed":1146180,"internal_node_id":"0.0-46.0-0.0","params":{"nStudents":24,"maxFlips":30,"completionMinutes":45,"basePay":8,"maxBonus":9,"perTrialBonus":0.5,"perTrialBonusThreshold":0.05,"exampleCost":0.01},"classroomParams":{"A":{"a":1,"b":4},"B":{"a":4,"b":1},"C":{"a":2,"b":8},"D":{"a":8,"b":2}},"conditions":["nonSeqFull","nonSeqPartial","seqNoFeedback","seqFeedback"],"classroomPairings":[["A","B"],["C","D"]],"coinWeights":[0.2,0.5,0.8],"subjectId":"A39SK1E6IMQBD5","assignmentId":"3R3YRB5GRGPNVQR9OOFV35PUDDKUAH","hitId":"3UDTAB6HH6LRO17U79I9TKUGSHV90J","url":"https://gershmanlab.com/experiments/alicia/teaching/experiment/?hitId=3UDTAB6HH6LRO17U79I9TKUGSHV90J&workerId=A39SK1E6IMQBD5&assignmentId=3R3YRB5GRGPNVQR9OOFV35PUDDKUAH&a=GR3R9&tp_a=GR3R9&b=3R3YRB5GRGPNVQR9OOFV35PUDDKUAH&tp_b=3R3YRB5GRGPNVQR9OOFV35PUDDKUAH&c=365799&tp_c=365799","heads":30,"tails":0,"studentIndex":6,"studentTrueHypers":{"a":2,"b":8},"studentGuess":0.8,"delta":0,"totalExamples":30,"bonus":0.2,"bonusSoFar":0.67},{"rt":24457,"response":{"heads":"1","tails":"0"},"type":"response","condition":"seqNoFeedback","trueTheta":0.2,"classrooms":["A","B"],"studentTrueClassroom":"A","exampleSet":"first","trial_type":"survey-html-form","trial_index":67,"time_elapsed":1190591,"internal_node_id":"0.0-52.0-0.0","params":{"nStudents":24,"maxFlips":30,"completionMinutes":45,"basePay":8,"maxBonus":9,"perTrialBonus":0.5,"perTrialBonusThreshold":0.05,"exampleCost":0.01},"classroomParams":{"A":{"a":1,"b":4},"B":{"a":4,"b":1},"C":{"a":2,"b":8},"D":{"a":8,"b":2}},"conditions":["nonSeqFull","nonSeqPartial","seqNoFeedback","seqFeedback"],"classroomPairings":[["A","B"],["C","D"]],"coinWeights":[0.2,0.5,0.8],"subjectId":"A39SK1E6IMQBD5","assignmentId":"3R3YRB5GRGPNVQR9OOFV35PUDDKUAH","hitId":"3UDTAB6HH6LRO17U79I9TKUGSHV90J","url":"https://gershmanlab.com/experiments/alicia/teaching/experiment/?hitId=3UDTAB6HH6LRO17U79I9TKUGSHV90J&workerId=A39SK1E6IMQBD5&assignmentId=3R3YRB5GRGPNVQR9OOFV35PUDDKUAH&a=GR3R9&tp_a=GR3R9&b=3R3YRB5GRGPNVQR9OOFV35PUDDKUAH&tp_b=3R3YRB5GRGPNVQR9OOFV35PUDDKUAH&c=365799&tp_c=365799","heads":1,"tails":0,"studentIndex":7,"studentTrueHypers":{"a":1,"b":4},"studentGuess":0.3333333333333333,"delta":0.1333333333333333,"totalExamples":1,"bonusSoFar":0.67},{"rt":11140,"response":{"heads":"0","tails":"0"},"type":"response","condition":"seqNoFeedback","trueTheta":0.2,"classrooms":["A","B"],"studentTrueClassroom":"A","exampleSet":"second","trial_type":"survey-html-form","trial_index":70,"time_elapsed":1208993,"internal_node_id":"0.0-55.0-0.0","params":{"nStudents":24,"maxFlips":30,"completionMinutes":45,"basePay":8,"maxBonus":9,"perTrialBonus":0.5,"perTrialBonusThreshold":0.05,"exampleCost":0.01},"classroomParams":{"A":{"a":1,"b":4},"B":{"a":4,"b":1},"C":{"a":2,"b":8},"D":{"a":8,"b":2}},"conditions":["nonSeqFull","nonSeqPartial","seqNoFeedback","seqFeedback"],"classroomPairings":[["A","B"],["C","D"]],"coinWeights":[0.2,0.5,0.8],"subjectId":"A39SK1E6IMQBD5","assignmentId":"3R3YRB5GRGPNVQR9OOFV35PUDDKUAH","hitId":"3UDTAB6HH6LRO17U79I9TKUGSHV90J","url":"https://gershmanlab.com/experiments/alicia/teaching/experiment/?hitId=3UDTAB6HH6LRO17U79I9TKUGSHV90J&workerId=A39SK1E6IMQBD5&assignmentId=3R3YRB5GRGPNVQR9OOFV35PUDDKUAH&a=GR3R9&tp_a=GR3R9&b=3R3YRB5GRGPNVQR9OOFV35PUDDKUAH&tp_b=3R3YRB5GRGPNVQR9OOFV35PUDDKUAH&c=365799&tp_c=365799","firstResponseHeads":1,"firstResponseTails":0,"secondResponseHeads":0,"secondResponseTails":0,"totalHeads":1,"totalTails":0,"studentIndex":7,"studentTrueHypers":{"a":1,"b":4},"studentGuess":0.3333333333333333,"delta":0.1333333333333333,"bonus":0,"bonusSoFar":0.67,"totalExamples":1},{"rt":4563,"response":{"heads":"1","tails":"1"},"type":"response","condition":"seqNoFeedback","trueTheta":0.2,"classrooms":["A","B"],"studentTrueClassroom":"A","exampleSet":"second","trial_type":"survey-html-form","trial_index":71,"time_elapsed":1213558,"internal_node_id":"0.0-55.1-0.1","params":{"nStudents":24,"maxFlips":30,"completionMinutes":45,"basePay":8,"maxBonus":9,"perTrialBonus":0.5,"perTrialBonusThreshold":0.05,"exampleCost":0.01},"classroomParams":{"A":{"a":1,"b":4},"B":{"a":4,"b":1},"C":{"a":2,"b":8},"D":{"a":8,"b":2}},"conditions":["nonSeqFull","nonSeqPartial","seqNoFeedback","seqFeedback"],"classroomPairings":[["A","B"],["C","D"]],"coinWeights":[0.2,0.5,0.8],"subjectId":"A39SK1E6IMQBD5","assignmentId":"3R3YRB5GRGPNVQR9OOFV35PUDDKUAH","hitId":"3UDTAB6HH6LRO17U79I9TKUGSHV90J","url":"https://gershmanlab.com/experiments/alicia/teaching/experiment/?hitId=3UDTAB6HH6LRO17U79I9TKUGSHV90J&workerId=A39SK1E6IMQBD5&assignmentId=3R3YRB5GRGPNVQR9OOFV35PUDDKUAH&a=GR3R9&tp_a=GR3R9&b=3R3YRB5GRGPNVQR9OOFV35PUDDKUAH&tp_b=3R3YRB5GRGPNVQR9OOFV35PUDDKUAH&c=365799&tp_c=365799","firstResponseHeads":1,"firstResponseTails":0,"secondResponseHeads":1,"secondResponseTails":1,"totalHeads":2,"totalTails":1,"studentIndex":7,"studentTrueHypers":{"a":1,"b":4},"studentGuess":0.375,"delta":0.175,"bonus":0,"bonusSoFar":0.67,"totalExamples":3},{"rt":7623,"response":{"heads":"1","tails":"1"},"type":"response","condition":"seqNoFeedback","trueTheta":0.5,"classrooms":["C","D"],"studentTrueClassroom":"C","exampleSet":"first","trial_type":"survey-html-form","trial_index":77,"time_elapsed":1243530,"internal_node_id":"0.0-61.0-0.0","params":{"nStudents":24,"maxFlips":30,"completionMinutes":45,"basePay":8,"maxBonus":9,"perTrialBonus":0.5,"perTrialBonusThreshold":0.05,"exampleCost":0.01},"classroomParams":{"A":{"a":1,"b":4},"B":{"a":4,"b":1},"C":{"a":2,"b":8},"D":{"a":8,"b":2}},"conditions":["nonSeqFull","nonSeqPartial","seqNoFeedback","seqFeedback"],"classroomPairings":[["A","B"],["C","D"]],"coinWeights":[0.2,0.5,0.8],"subjectId":"A39SK1E6IMQBD5","assignmentId":"3R3YRB5GRGPNVQR9OOFV35PUDDKUAH","hitId":"3UDTAB6HH6LRO17U79I9TKUGSHV90J","url":"https://gershmanlab.com/experiments/alicia/teaching/experiment/?hitId=3UDTAB6HH6LRO17U79I9TKUGSHV90J&workerId=A39SK1E6IMQBD5&assignmentId=3R3YRB5GRGPNVQR9OOFV35PUDDKUAH&a=GR3R9&tp_a=GR3R9&b=3R3YRB5GRGPNVQR9OOFV35PUDDKUAH&tp_b=3R3YRB5GRGPNVQR9OOFV35PUDDKUAH&c=365799&tp_c=365799","heads":1,"tails":1,"studentIndex":8,"studentTrueHypers":{"a":2,"b":8},"studentGuess":0.25,"delta":0.25,"totalExamples":2,"bonusSoFar":0.67},{"rt":9469,"response":{"heads":"1","tails":"1"},"type":"response","condition":"seqNoFeedback","trueTheta":0.5,"classrooms":["C","D"],"studentTrueClassroom":"C","exampleSet":"second","trial_type":"survey-html-form","trial_index":80,"time_elapsed":1260520,"internal_node_id":"0.0-64.0-0.0","params":{"nStudents":24,"maxFlips":30,"completionMinutes":45,"basePay":8,"maxBonus":9,"perTrialBonus":0.5,"perTrialBonusThreshold":0.05,"exampleCost":0.01},"classroomParams":{"A":{"a":1,"b":4},"B":{"a":4,"b":1},"C":{"a":2,"b":8},"D":{"a":8,"b":2}},"conditions":["nonSeqFull","nonSeqPartial","seqNoFeedback","seqFeedback"],"classroomPairings":[["A","B"],["C","D"]],"coinWeights":[0.2,0.5,0.8],"subjectId":"A39SK1E6IMQBD5","assignmentId":"3R3YRB5GRGPNVQR9OOFV35PUDDKUAH","hitId":"3UDTAB6HH6LRO17U79I9TKUGSHV90J","url":"https://gershmanlab.com/experiments/alicia/teaching/experiment/?hitId=3UDTAB6HH6LRO17U79I9TKUGSHV90J&workerId=A39SK1E6IMQBD5&assignmentId=3R3YRB5GRGPNVQR9OOFV35PUDDKUAH&a=GR3R9&tp_a=GR3R9&b=3R3YRB5GRGPNVQR9OOFV35PUDDKUAH&tp_b=3R3YRB5GRGPNVQR9OOFV35PUDDKUAH&c=365799&tp_c=365799","firstResponseHeads":1,"firstResponseTails":1,"secondResponseHeads":1,"secondResponseTails":1,"totalHeads":2,"totalTails":2,"studentIndex":8,"studentTrueHypers":{"a":2,"b":8},"studentGuess":0.2857142857142857,"delta":0.2142857142857143,"bonus":0,"bonusSoFar":0.67,"totalExamples":4},{"rt":14138,"response":{"heads":"4","tails":"1"},"type":"response","condition":"seqNoFeedback","trueTheta":0.2,"classrooms":["C","D"],"studentTrueClassroom":"D","exampleSet":"first","trial_type":"survey-html-form","trial_index":86,"time_elapsed":1292651,"internal_node_id":"0.0-70.0-0.0","params":{"nStudents":24,"maxFlips":30,"completionMinutes":45,"basePay":8,"maxBonus":9,"perTrialBonus":0.5,"perTrialBonusThreshold":0.05,"exampleCost":0.01},"classroomParams":{"A":{"a":1,"b":4},"B":{"a":4,"b":1},"C":{"a":2,"b":8},"D":{"a":8,"b":2}},"conditions":["nonSeqFull","nonSeqPartial","seqNoFeedback","seqFeedback"],"classroomPairings":[["A","B"],["C","D"]],"coinWeights":[0.2,0.5,0.8],"subjectId":"A39SK1E6IMQBD5","assignmentId":"3R3YRB5GRGPNVQR9OOFV35PUDDKUAH","hitId":"3UDTAB6HH6LRO17U79I9TKUGSHV90J","url":"https://gershmanlab.com/experiments/alicia/teaching/experiment/?hitId=3UDTAB6HH6LRO17U79I9TKUGSHV90J&workerId=A39SK1E6IMQBD5&assignmentId=3R3YRB5GRGPNVQR9OOFV35PUDDKUAH&a=GR3R9&tp_a=GR3R9&b=3R3YRB5GRGPNVQR9OOFV35PUDDKUAH&tp_b=3R3YRB5GRGPNVQR9OOFV35PUDDKUAH&c=365799&tp_c=365799","heads":4,"tails":1,"studentIndex":9,"studentTrueHypers":{"a":8,"b":2},"studentGuess":0.8,"delta":0.6000000000000001,"totalExamples":5,"bonusSoFar":0.67},{"rt":19187,"response":{"heads":"1","tails":"4"},"type":"response","condition":"seqNoFeedback","trueTheta":0.2,"classrooms":["C","D"],"studentTrueClassroom":"D","exampleSet":"second","trial_type":"survey-html-form","trial_index":89,"time_elapsed":1317358,"internal_node_id":"0.0-73.0-0.0","params":{"nStudents":24,"maxFlips":30,"completionMinutes":45,"basePay":8,"maxBonus":9,"perTrialBonus":0.5,"perTrialBonusThreshold":0.05,"exampleCost":0.01},"classroomParams":{"A":{"a":1,"b":4},"B":{"a":4,"b":1},"C":{"a":2,"b":8},"D":{"a":8,"b":2}},"conditions":["nonSeqFull","nonSeqPartial","seqNoFeedback","seqFeedback"],"classroomPairings":[["A","B"],["C","D"]],"coinWeights":[0.2,0.5,0.8],"subjectId":"A39SK1E6IMQBD5","assignmentId":"3R3YRB5GRGPNVQR9OOFV35PUDDKUAH","hitId":"3UDTAB6HH6LRO17U79I9TKUGSHV90J","url":"https://gershmanlab.com/experiments/alicia/teaching/experiment/?hitId=3UDTAB6HH6LRO17U79I9TKUGSHV90J&workerId=A39SK1E6IMQBD5&assignmentId=3R3YRB5GRGPNVQR9OOFV35PUDDKUAH&a=GR3R9&tp_a=GR3R9&b=3R3YRB5GRGPNVQR9OOFV35PUDDKUAH&tp_b=3R3YRB5GRGPNVQR9OOFV35PUDDKUAH&c=365799&tp_c=365799","firstResponseHeads":4,"firstResponseTails":1,"secondResponseHeads":1,"secondResponseTails":4,"totalHeads":5,"totalTails":5,"studentIndex":9,"studentTrueHypers":{"a":8,"b":2},"studentGuess":0.65,"delta":0.45,"bonus":0,"bonusSoFar":0.67,"totalExamples":10},{"rt":15039,"response":{"heads":"8","tails":"2"},"type":"response","condition":"seqNoFeedback","trueTheta":0.8,"classrooms":["A","B"],"studentTrueClassroom":"A","exampleSet":"first","trial_type":"survey-html-form","trial_index":95,"time_elapsed":1350011,"internal_node_id":"0.0-79.0-0.0","params":{"nStudents":24,"maxFlips":30,"completionMinutes":45,"basePay":8,"maxBonus":9,"perTrialBonus":0.5,"perTrialBonusThreshold":0.05,"exampleCost":0.01},"classroomParams":{"A":{"a":1,"b":4},"B":{"a":4,"b":1},"C":{"a":2,"b":8},"D":{"a":8,"b":2}},"conditions":["nonSeqFull","nonSeqPartial","seqNoFeedback","seqFeedback"],"classroomPairings":[["A","B"],["C","D"]],"coinWeights":[0.2,0.5,0.8],"subjectId":"A39SK1E6IMQBD5","assignmentId":"3R3YRB5GRGPNVQR9OOFV35PUDDKUAH","hitId":"3UDTAB6HH6LRO17U79I9TKUGSHV90J","url":"https://gershmanlab.com/experiments/alicia/teaching/experiment/?hitId=3UDTAB6HH6LRO17U79I9TKUGSHV90J&workerId=A39SK1E6IMQBD5&assignmentId=3R3YRB5GRGPNVQR9OOFV35PUDDKUAH&a=GR3R9&tp_a=GR3R9&b=3R3YRB5GRGPNVQR9OOFV35PUDDKUAH&tp_b=3R3YRB5GRGPNVQR9OOFV35PUDDKUAH&c=365799&tp_c=365799","heads":8,"tails":2,"studentIndex":10,"studentTrueHypers":{"a":1,"b":4},"studentGuess":0.6,"delta":0.20000000000000007,"totalExamples":10,"bonusSoFar":0.67},{"rt":7646,"response":{"heads":"8","tails":"2"},"type":"response","condition":"seqNoFeedback","trueTheta":0.8,"classrooms":["A","B"],"studentTrueClassroom":"A","exampleSet":"second","trial_type":"survey-html-form","trial_index":98,"time_elapsed":1364173,"internal_node_id":"0.0-82.0-0.0","params":{"nStudents":24,"maxFlips":30,"completionMinutes":45,"basePay":8,"maxBonus":9,"perTrialBonus":0.5,"perTrialBonusThreshold":0.05,"exampleCost":0.01},"classroomParams":{"A":{"a":1,"b":4},"B":{"a":4,"b":1},"C":{"a":2,"b":8},"D":{"a":8,"b":2}},"conditions":["nonSeqFull","nonSeqPartial","seqNoFeedback","seqFeedback"],"classroomPairings":[["A","B"],["C","D"]],"coinWeights":[0.2,0.5,0.8],"subjectId":"A39SK1E6IMQBD5","assignmentId":"3R3YRB5GRGPNVQR9OOFV35PUDDKUAH","hitId":"3UDTAB6HH6LRO17U79I9TKUGSHV90J","url":"https://gershmanlab.com/experiments/alicia/teaching/experiment/?hitId=3UDTAB6HH6LRO17U79I9TKUGSHV90J&workerId=A39SK1E6IMQBD5&assignmentId=3R3YRB5GRGPNVQR9OOFV35PUDDKUAH&a=GR3R9&tp_a=GR3R9&b=3R3YRB5GRGPNVQR9OOFV35PUDDKUAH&tp_b=3R3YRB5GRGPNVQR9OOFV35PUDDKUAH&c=365799&tp_c=365799","firstResponseHeads":8,"firstResponseTails":2,"secondResponseHeads":8,"secondResponseTails":2,"totalHeads":16,"totalTails":4,"studentIndex":10,"studentTrueHypers":{"a":1,"b":4},"studentGuess":0.68,"delta":0.12,"bonus":0,"bonusSoFar":0.67,"totalExamples":20},{"rt":5290,"response":{"heads":"1","tails":"1"},"type":"response","condition":"nonSeqPartial","trueTheta":0.8,"classrooms":["A","B"],"studentTrueClassroom":"B","exampleSet":"first","trial_type":"survey-html-form","trial_index":104,"time_elapsed":1393169,"internal_node_id":"0.0-88.0-0.0","params":{"nStudents":24,"maxFlips":30,"completionMinutes":45,"basePay":8,"maxBonus":9,"perTrialBonus":0.5,"perTrialBonusThreshold":0.05,"exampleCost":0.01},"classroomParams":{"A":{"a":1,"b":4},"B":{"a":4,"b":1},"C":{"a":2,"b":8},"D":{"a":8,"b":2}},"conditions":["nonSeqFull","nonSeqPartial","seqNoFeedback","seqFeedback"],"classroomPairings":[["A","B"],["C","D"]],"coinWeights":[0.2,0.5,0.8],"subjectId":"A39SK1E6IMQBD5","assignmentId":"3R3YRB5GRGPNVQR9OOFV35PUDDKUAH","hitId":"3UDTAB6HH6LRO17U79I9TKUGSHV90J","url":"https://gershmanlab.com/experiments/alicia/teaching/experiment/?hitId=3UDTAB6HH6LRO17U79I9TKUGSHV90J&workerId=A39SK1E6IMQBD5&assignmentId=3R3YRB5GRGPNVQR9OOFV35PUDDKUAH&a=GR3R9&tp_a=GR3R9&b=3R3YRB5GRGPNVQR9OOFV35PUDDKUAH&tp_b=3R3YRB5GRGPNVQR9OOFV35PUDDKUAH&c=365799&tp_c=365799","heads":1,"tails":1,"studentIndex":11,"studentTrueHypers":{"a":4,"b":1},"studentGuess":0.7142857142857143,"delta":0.08571428571428574,"totalExamples":2,"bonus":0,"bonusSoFar":0.67},{"rt":4438,"response":{"heads":"1","tails":"1"},"type":"response","condition":"seqNoFeedback","trueTheta":0.8,"classrooms":["C","D"],"studentTrueClassroom":"D","exampleSet":"first","trial_type":"survey-html-form","trial_index":110,"time_elapsed":1410244,"internal_node_id":"0.0-94.0-0.0","params":{"nStudents":24,"maxFlips":30,"completionMinutes":45,"basePay":8,"maxBonus":9,"perTrialBonus":0.5,"perTrialBonusThreshold":0.05,"exampleCost":0.01},"classroomParams":{"A":{"a":1,"b":4},"B":{"a":4,"b":1},"C":{"a":2,"b":8},"D":{"a":8,"b":2}},"conditions":["nonSeqFull","nonSeqPartial","seqNoFeedback","seqFeedback"],"classroomPairings":[["A","B"],["C","D"]],"coinWeights":[0.2,0.5,0.8],"subjectId":"A39SK1E6IMQBD5","assignmentId":"3R3YRB5GRGPNVQR9OOFV35PUDDKUAH","hitId":"3UDTAB6HH6LRO17U79I9TKUGSHV90J","url":"https://gershmanlab.com/experiments/alicia/teaching/experiment/?hitId=3UDTAB6HH6LRO17U79I9TKUGSHV90J&workerId=A39SK1E6IMQBD5&assignmentId=3R3YRB5GRGPNVQR9OOFV35PUDDKUAH&a=GR3R9&tp_a=GR3R9&b=3R3YRB5GRGPNVQR9OOFV35PUDDKUAH&tp_b=3R3YRB5GRGPNVQR9OOFV35PUDDKUAH&c=365799&tp_c=365799","heads":1,"tails":1,"studentIndex":12,"studentTrueHypers":{"a":8,"b":2},"studentGuess":0.75,"delta":0.050000000000000044,"totalExamples":2,"bonusSoFar":0.67},{"rt":3771,"response":{"heads":"1","tails":"1"},"type":"response","condition":"seqNoFeedback","trueTheta":0.8,"classrooms":["C","D"],"studentTrueClassroom":"D","exampleSet":"second","trial_type":"survey-html-form","trial_index":113,"time_elapsed":1421031,"internal_node_id":"0.0-97.0-0.0","params":{"nStudents":24,"maxFlips":30,"completionMinutes":45,"basePay":8,"maxBonus":9,"perTrialBonus":0.5,"perTrialBonusThreshold":0.05,"exampleCost":0.01},"classroomParams":{"A":{"a":1,"b":4},"B":{"a":4,"b":1},"C":{"a":2,"b":8},"D":{"a":8,"b":2}},"conditions":["nonSeqFull","nonSeqPartial","seqNoFeedback","seqFeedback"],"classroomPairings":[["A","B"],["C","D"]],"coinWeights":[0.2,0.5,0.8],"subjectId":"A39SK1E6IMQBD5","assignmentId":"3R3YRB5GRGPNVQR9OOFV35PUDDKUAH","hitId":"3UDTAB6HH6LRO17U79I9TKUGSHV90J","url":"https://gershmanlab.com/experiments/alicia/teaching/experiment/?hitId=3UDTAB6HH6LRO17U79I9TKUGSHV90J&workerId=A39SK1E6IMQBD5&assignmentId=3R3YRB5GRGPNVQR9OOFV35PUDDKUAH&a=GR3R9&tp_a=GR3R9&b=3R3YRB5GRGPNVQR9OOFV35PUDDKUAH&tp_b=3R3YRB5GRGPNVQR9OOFV35PUDDKUAH&c=365799&tp_c=365799","firstResponseHeads":1,"firstResponseTails":1,"secondResponseHeads":1,"secondResponseTails":1,"totalHeads":2,"totalTails":2,"studentIndex":12,"studentTrueHypers":{"a":8,"b":2},"studentGuess":0.7142857142857143,"delta":0.08571428571428574,"bonus":0,"bonusSoFar":0.67,"totalExamples":4},{"rt":5670,"response":{"heads":"1","tails":"0"},"type":"response","condition":"nonSeqPartial","trueTheta":0.5,"classrooms":["A","B"],"studentTrueClassroom":"B","exampleSet":"first","trial_type":"survey-html-form","trial_index":119,"time_elapsed":1442544,"internal_node_id":"0.0-103.0-0.0","params":{"nStudents":24,"maxFlips":30,"completionMinutes":45,"basePay":8,"maxBonus":9,"perTrialBonus":0.5,"perTrialBonusThreshold":0.05,"exampleCost":0.01},"classroomParams":{"A":{"a":1,"b":4},"B":{"a":4,"b":1},"C":{"a":2,"b":8},"D":{"a":8,"b":2}},"conditions":["nonSeqFull","nonSeqPartial","seqNoFeedback","seqFeedback"],"classroomPairings":[["A","B"],["C","D"]],"coinWeights":[0.2,0.5,0.8],"subjectId":"A39SK1E6IMQBD5","assignmentId":"3R3YRB5GRGPNVQR9OOFV35PUDDKUAH","hitId":"3UDTAB6HH6LRO17U79I9TKUGSHV90J","url":"https://gershmanlab.com/experiments/alicia/teaching/experiment/?hitId=3UDTAB6HH6LRO17U79I9TKUGSHV90J&workerId=A39SK1E6IMQBD5&assignmentId=3R3YRB5GRGPNVQR9OOFV35PUDDKUAH&a=GR3R9&tp_a=GR3R9&b=3R3YRB5GRGPNVQR9OOFV35PUDDKUAH&tp_b=3R3YRB5GRGPNVQR9OOFV35PUDDKUAH&c=365799&tp_c=365799","heads":1,"tails":0,"studentIndex":13,"studentTrueHypers":{"a":4,"b":1},"studentGuess":0.8333333333333334,"delta":0.33333333333333337,"totalExamples":1,"bonus":0,"bonusSoFar":0.67},{"rt":4048,"response":{"heads":"1","tails":"1"},"type":"response","condition":"seqNoFeedback","trueTheta":0.5,"classrooms":["A","B"],"studentTrueClassroom":"A","exampleSet":"first","trial_type":"survey-html-form","trial_index":125,"time_elapsed":1467048,"internal_node_id":"0.0-109.0-0.0","params":{"nStudents":24,"maxFlips":30,"completionMinutes":45,"basePay":8,"maxBonus":9,"perTrialBonus":0.5,"perTrialBonusThreshold":0.05,"exampleCost":0.01},"classroomParams":{"A":{"a":1,"b":4},"B":{"a":4,"b":1},"C":{"a":2,"b":8},"D":{"a":8,"b":2}},"conditions":["nonSeqFull","nonSeqPartial","seqNoFeedback","seqFeedback"],"classroomPairings":[["A","B"],["C","D"]],"coinWeights":[0.2,0.5,0.8],"subjectId":"A39SK1E6IMQBD5","assignmentId":"3R3YRB5GRGPNVQR9OOFV35PUDDKUAH","hitId":"3UDTAB6HH6LRO17U79I9TKUGSHV90J","url":"https://gershmanlab.com/experiments/alicia/teaching/experiment/?hitId=3UDTAB6HH6LRO17U79I9TKUGSHV90J&workerId=A39SK1E6IMQBD5&assignmentId=3R3YRB5GRGPNVQR9OOFV35PUDDKUAH&a=GR3R9&tp_a=GR3R9&b=3R3YRB5GRGPNVQR9OOFV35PUDDKUAH&tp_b=3R3YRB5GRGPNVQR9OOFV35PUDDKUAH&c=365799&tp_c=365799","heads":1,"tails":1,"studentIndex":14,"studentTrueHypers":{"a":1,"b":4},"studentGuess":0.2857142857142857,"delta":0.2142857142857143,"totalExamples":2,"bonusSoFar":0.67},{"rt":4051,"response":{"heads":"1","tails":"1"},"type":"response","condition":"seqNoFeedback","trueTheta":0.5,"classrooms":["A","B"],"studentTrueClassroom":"A","exampleSet":"second","trial_type":"survey-html-form","trial_index":128,"time_elapsed":1476612,"internal_node_id":"0.0-112.0-0.0","params":{"nStudents":24,"maxFlips":30,"completionMinutes":45,"basePay":8,"maxBonus":9,"perTrialBonus":0.5,"perTrialBonusThreshold":0.05,"exampleCost":0.01},"classroomParams":{"A":{"a":1,"b":4},"B":{"a":4,"b":1},"C":{"a":2,"b":8},"D":{"a":8,"b":2}},"conditions":["nonSeqFull","nonSeqPartial","seqNoFeedback","seqFeedback"],"classroomPairings":[["A","B"],["C","D"]],"coinWeights":[0.2,0.5,0.8],"subjectId":"A39SK1E6IMQBD5","assignmentId":"3R3YRB5GRGPNVQR9OOFV35PUDDKUAH","hitId":"3UDTAB6HH6LRO17U79I9TKUGSHV90J","url":"https://gershmanlab.com/experiments/alicia/teaching/experiment/?hitId=3UDTAB6HH6LRO17U79I9TKUGSHV90J&workerId=A39SK1E6IMQBD5&assignmentId=3R3YRB5GRGPNVQR9OOFV35PUDDKUAH&a=GR3R9&tp_a=GR3R9&b=3R3YRB5GRGPNVQR9OOFV35PUDDKUAH&tp_b=3R3YRB5GRGPNVQR9OOFV35PUDDKUAH&c=365799&tp_c=365799","firstResponseHeads":1,"firstResponseTails":1,"secondResponseHeads":1,"secondResponseTails":1,"totalHeads":2,"totalTails":2,"studentIndex":14,"studentTrueHypers":{"a":1,"b":4},"studentGuess":0.3333333333333333,"delta":0.16666666666666669,"bonus":0,"bonusSoFar":0.67,"totalExamples":4},{"rt":3304,"response":{"heads":"1","tails":"1"},"type":"response","condition":"seqFeedback","trueTheta":0.5,"classrooms":["A","B"],"studentTrueClassroom":"A","exampleSet":"first","trial_type":"survey-html-form","trial_index":134,"time_elapsed":1490211,"internal_node_id":"0.0-118.0-0.0","params":{"nStudents":24,"maxFlips":30,"completionMinutes":45,"basePay":8,"maxBonus":9,"perTrialBonus":0.5,"perTrialBonusThreshold":0.05,"exampleCost":0.01},"classroomParams":{"A":{"a":1,"b":4},"B":{"a":4,"b":1},"C":{"a":2,"b":8},"D":{"a":8,"b":2}},"conditions":["nonSeqFull","nonSeqPartial","seqNoFeedback","seqFeedback"],"classroomPairings":[["A","B"],["C","D"]],"coinWeights":[0.2,0.5,0.8],"subjectId":"A39SK1E6IMQBD5","assignmentId":"3R3YRB5GRGPNVQR9OOFV35PUDDKUAH","hitId":"3UDTAB6HH6LRO17U79I9TKUGSHV90J","url":"https://gershmanlab.com/experiments/alicia/teaching/experiment/?hitId=3UDTAB6HH6LRO17U79I9TKUGSHV90J&workerId=A39SK1E6IMQBD5&assignmentId=3R3YRB5GRGPNVQR9OOFV35PUDDKUAH&a=GR3R9&tp_a=GR3R9&b=3R3YRB5GRGPNVQR9OOFV35PUDDKUAH&tp_b=3R3YRB5GRGPNVQR9OOFV35PUDDKUAH&c=365799&tp_c=365799","heads":1,"tails":1,"studentIndex":15,"studentTrueHypers":{"a":1,"b":4},"studentGuess":0.2857142857142857,"delta":0.2142857142857143,"totalExamples":2,"bonusSoFar":0.67},{"rt":3156,"response":{"heads":"1","tails":"1"},"type":"response","condition":"seqFeedback","trueTheta":0.5,"classrooms":["A","B"],"studentTrueClassroom":"A","exampleSet":"second","trial_type":"survey-html-form","trial_index":138,"time_elapsed":1501652,"internal_node_id":"0.0-122.0-0.0","params":{"nStudents":24,"maxFlips":30,"completionMinutes":45,"basePay":8,"maxBonus":9,"perTrialBonus":0.5,"perTrialBonusThreshold":0.05,"exampleCost":0.01},"classroomParams":{"A":{"a":1,"b":4},"B":{"a":4,"b":1},"C":{"a":2,"b":8},"D":{"a":8,"b":2}},"conditions":["nonSeqFull","nonSeqPartial","seqNoFeedback","seqFeedback"],"classroomPairings":[["A","B"],["C","D"]],"coinWeights":[0.2,0.5,0.8],"subjectId":"A39SK1E6IMQBD5","assignmentId":"3R3YRB5GRGPNVQR9OOFV35PUDDKUAH","hitId":"3UDTAB6HH6LRO17U79I9TKUGSHV90J","url":"https://gershmanlab.com/experiments/alicia/teaching/experiment/?hitId=3UDTAB6HH6LRO17U79I9TKUGSHV90J&workerId=A39SK1E6IMQBD5&assignmentId=3R3YRB5GRGPNVQR9OOFV35PUDDKUAH&a=GR3R9&tp_a=GR3R9&b=3R3YRB5GRGPNVQR9OOFV35PUDDKUAH&tp_b=3R3YRB5GRGPNVQR9OOFV35PUDDKUAH&c=365799&tp_c=365799","firstResponseHeads":1,"firstResponseTails":1,"secondResponseHeads":1,"secondResponseTails":1,"totalHeads":2,"totalTails":2,"studentIndex":15,"studentTrueHypers":{"a":1,"b":4},"studentGuess":0.3333333333333333,"delta":0.16666666666666669,"bonus":0,"bonusSoFar":0.67,"totalExamples":4},{"rt":3093,"response":{"heads":"1","tails":"1"},"type":"response","condition":"nonSeqPartial","trueTheta":0.5,"classrooms":["C","D"],"studentTrueClassroom":"D","exampleSet":"first","trial_type":"survey-html-form","trial_index":144,"time_elapsed":1515792,"internal_node_id":"0.0-128.0-0.0","params":{"nStudents":24,"maxFlips":30,"completionMinutes":45,"basePay":8,"maxBonus":9,"perTrialBonus":0.5,"perTrialBonusThreshold":0.05,"exampleCost":0.01},"classroomParams":{"A":{"a":1,"b":4},"B":{"a":4,"b":1},"C":{"a":2,"b":8},"D":{"a":8,"b":2}},"conditions":["nonSeqFull","nonSeqPartial","seqNoFeedback","seqFeedback"],"classroomPairings":[["A","B"],["C","D"]],"coinWeights":[0.2,0.5,0.8],"subjectId":"A39SK1E6IMQBD5","assignmentId":"3R3YRB5GRGPNVQR9OOFV35PUDDKUAH","hitId":"3UDTAB6HH6LRO17U79I9TKUGSHV90J","url":"https://gershmanlab.com/experiments/alicia/teaching/experiment/?hitId=3UDTAB6HH6LRO17U79I9TKUGSHV90J&workerId=A39SK1E6IMQBD5&assignmentId=3R3YRB5GRGPNVQR9OOFV35PUDDKUAH&a=GR3R9&tp_a=GR3R9&b=3R3YRB5GRGPNVQR9OOFV35PUDDKUAH&tp_b=3R3YRB5GRGPNVQR9OOFV35PUDDKUAH&c=365799&tp_c=365799","heads":1,"tails":1,"studentIndex":16,"studentTrueHypers":{"a":8,"b":2},"studentGuess":0.75,"delta":0.25,"totalExamples":2,"bonus":0,"bonusSoFar":0.67},{"rt":3360,"response":{"heads":"1","tails":"1"},"type":"response","condition":"seqFeedback","trueTheta":0.5,"classrooms":["C","D"],"studentTrueClassroom":"C","exampleSet":"first","trial_type":"survey-html-form","trial_index":150,"time_elapsed":1528982,"internal_node_id":"0.0-134.0-0.0","params":{"nStudents":24,"maxFlips":30,"completionMinutes":45,"basePay":8,"maxBonus":9,"perTrialBonus":0.5,"perTrialBonusThreshold":0.05,"exampleCost":0.01},"classroomParams":{"A":{"a":1,"b":4},"B":{"a":4,"b":1},"C":{"a":2,"b":8},"D":{"a":8,"b":2}},"conditions":["nonSeqFull","nonSeqPartial","seqNoFeedback","seqFeedback"],"classroomPairings":[["A","B"],["C","D"]],"coinWeights":[0.2,0.5,0.8],"subjectId":"A39SK1E6IMQBD5","assignmentId":"3R3YRB5GRGPNVQR9OOFV35PUDDKUAH","hitId":"3UDTAB6HH6LRO17U79I9TKUGSHV90J","url":"https://gershmanlab.com/experiments/alicia/teaching/experiment/?hitId=3UDTAB6HH6LRO17U79I9TKUGSHV90J&workerId=A39SK1E6IMQBD5&assignmentId=3R3YRB5GRGPNVQR9OOFV35PUDDKUAH&a=GR3R9&tp_a=GR3R9&b=3R3YRB5GRGPNVQR9OOFV35PUDDKUAH&tp_b=3R3YRB5GRGPNVQR9OOFV35PUDDKUAH&c=365799&tp_c=365799","heads":1,"tails":1,"studentIndex":17,"studentTrueHypers":{"a":2,"b":8},"studentGuess":0.25,"delta":0.25,"totalExamples":2,"bonusSoFar":0.67},{"rt":4074,"response":{"heads":"1","tails":"1"},"type":"response","condition":"seqFeedback","trueTheta":0.5,"classrooms":["C","D"],"studentTrueClassroom":"C","exampleSet":"second","trial_type":"survey-html-form","trial_index":154,"time_elapsed":1555879,"internal_node_id":"0.0-138.0-0.0","params":{"nStudents":24,"maxFlips":30,"completionMinutes":45,"basePay":8,"maxBonus":9,"perTrialBonus":0.5,"perTrialBonusThreshold":0.05,"exampleCost":0.01},"classroomParams":{"A":{"a":1,"b":4},"B":{"a":4,"b":1},"C":{"a":2,"b":8},"D":{"a":8,"b":2}},"conditions":["nonSeqFull","nonSeqPartial","seqNoFeedback","seqFeedback"],"classroomPairings":[["A","B"],["C","D"]],"coinWeights":[0.2,0.5,0.8],"subjectId":"A39SK1E6IMQBD5","assignmentId":"3R3YRB5GRGPNVQR9OOFV35PUDDKUAH","hitId":"3UDTAB6HH6LRO17U79I9TKUGSHV90J","url":"https://gershmanlab.com/experiments/alicia/teaching/experiment/?hitId=3UDTAB6HH6LRO17U79I9TKUGSHV90J&workerId=A39SK1E6IMQBD5&assignmentId=3R3YRB5GRGPNVQR9OOFV35PUDDKUAH&a=GR3R9&tp_a=GR3R9&b=3R3YRB5GRGPNVQR9OOFV35PUDDKUAH&tp_b=3R3YRB5GRGPNVQR9OOFV35PUDDKUAH&c=365799&tp_c=365799","firstResponseHeads":1,"firstResponseTails":1,"secondResponseHeads":1,"secondResponseTails":1,"totalHeads":2,"totalTails":2,"studentIndex":17,"studentTrueHypers":{"a":2,"b":8},"studentGuess":0.2857142857142857,"delta":0.2142857142857143,"bonus":0,"bonusSoFar":0.67,"totalExamples":4},{"rt":2448,"response":{"heads":"1","tails":"1"},"type":"response","condition":"seqFeedback","trueTheta":0.2,"classrooms":["A","B"],"studentTrueClassroom":"A","exampleSet":"first","trial_type":"survey-html-form","trial_index":160,"time_elapsed":1572298,"internal_node_id":"0.0-144.0-0.0","params":{"nStudents":24,"maxFlips":30,"completionMinutes":45,"basePay":8,"maxBonus":9,"perTrialBonus":0.5,"perTrialBonusThreshold":0.05,"exampleCost":0.01},"classroomParams":{"A":{"a":1,"b":4},"B":{"a":4,"b":1},"C":{"a":2,"b":8},"D":{"a":8,"b":2}},"conditions":["nonSeqFull","nonSeqPartial","seqNoFeedback","seqFeedback"],"classroomPairings":[["A","B"],["C","D"]],"coinWeights":[0.2,0.5,0.8],"subjectId":"A39SK1E6IMQBD5","assignmentId":"3R3YRB5GRGPNVQR9OOFV35PUDDKUAH","hitId":"3UDTAB6HH6LRO17U79I9TKUGSHV90J","url":"https://gershmanlab.com/experiments/alicia/teaching/experiment/?hitId=3UDTAB6HH6LRO17U79I9TKUGSHV90J&workerId=A39SK1E6IMQBD5&assignmentId=3R3YRB5GRGPNVQR9OOFV35PUDDKUAH&a=GR3R9&tp_a=GR3R9&b=3R3YRB5GRGPNVQR9OOFV35PUDDKUAH&tp_b=3R3YRB5GRGPNVQR9OOFV35PUDDKUAH&c=365799&tp_c=365799","heads":1,"tails":1,"studentIndex":18,"studentTrueHypers":{"a":1,"b":4},"studentGuess":0.2857142857142857,"delta":0.08571428571428569,"totalExamples":2,"bonusSoFar":0.67},{"rt":2912,"response":{"heads":"1","tails":"1"},"type":"response","condition":"seqFeedback","trueTheta":0.2,"classrooms":["A","B"],"studentTrueClassroom":"A","exampleSet":"second","trial_type":"survey-html-form","trial_index":164,"time_elapsed":1583469,"internal_node_id":"0.0-148.0-0.0","params":{"nStudents":24,"maxFlips":30,"completionMinutes":45,"basePay":8,"maxBonus":9,"perTrialBonus":0.5,"perTrialBonusThreshold":0.05,"exampleCost":0.01},"classroomParams":{"A":{"a":1,"b":4},"B":{"a":4,"b":1},"C":{"a":2,"b":8},"D":{"a":8,"b":2}},"conditions":["nonSeqFull","nonSeqPartial","seqNoFeedback","seqFeedback"],"classroomPairings":[["A","B"],["C","D"]],"coinWeights":[0.2,0.5,0.8],"subjectId":"A39SK1E6IMQBD5","assignmentId":"3R3YRB5GRGPNVQR9OOFV35PUDDKUAH","hitId":"3UDTAB6HH6LRO17U79I9TKUGSHV90J","url":"https://gershmanlab.com/experiments/alicia/teaching/experiment/?hitId=3UDTAB6HH6LRO17U79I9TKUGSHV90J&workerId=A39SK1E6IMQBD5&assignmentId=3R3YRB5GRGPNVQR9OOFV35PUDDKUAH&a=GR3R9&tp_a=GR3R9&b=3R3YRB5GRGPNVQR9OOFV35PUDDKUAH&tp_b=3R3YRB5GRGPNVQR9OOFV35PUDDKUAH&c=365799&tp_c=365799","firstResponseHeads":1,"firstResponseTails":1,"secondResponseHeads":1,"secondResponseTails":1,"totalHeads":2,"totalTails":2,"studentIndex":18,"studentTrueHypers":{"a":1,"b":4},"studentGuess":0.3333333333333333,"delta":0.1333333333333333,"bonus":0,"bonusSoFar":0.67,"totalExamples":4},{"rt":2856,"response":{"heads":"1","tails":"1"},"type":"response","condition":"seqFeedback","trueTheta":0.8,"classrooms":["A","B"],"studentTrueClassroom":"A","exampleSet":"first","trial_type":"survey-html-form","trial_index":170,"time_elapsed":1596934,"internal_node_id":"0.0-154.0-0.0","params":{"nStudents":24,"maxFlips":30,"completionMinutes":45,"basePay":8,"maxBonus":9,"perTrialBonus":0.5,"perTrialBonusThreshold":0.05,"exampleCost":0.01},"classroomParams":{"A":{"a":1,"b":4},"B":{"a":4,"b":1},"C":{"a":2,"b":8},"D":{"a":8,"b":2}},"conditions":["nonSeqFull","nonSeqPartial","seqNoFeedback","seqFeedback"],"classroomPairings":[["A","B"],["C","D"]],"coinWeights":[0.2,0.5,0.8],"subjectId":"A39SK1E6IMQBD5","assignmentId":"3R3YRB5GRGPNVQR9OOFV35PUDDKUAH","hitId":"3UDTAB6HH6LRO17U79I9TKUGSHV90J","url":"https://gershmanlab.com/experiments/alicia/teaching/experiment/?hitId=3UDTAB6HH6LRO17U79I9TKUGSHV90J&workerId=A39SK1E6IMQBD5&assignmentId=3R3YRB5GRGPNVQR9OOFV35PUDDKUAH&a=GR3R9&tp_a=GR3R9&b=3R3YRB5GRGPNVQR9OOFV35PUDDKUAH&tp_b=3R3YRB5GRGPNVQR9OOFV35PUDDKUAH&c=365799&tp_c=365799","heads":1,"tails":1,"studentIndex":19,"studentTrueHypers":{"a":1,"b":4},"studentGuess":0.2857142857142857,"delta":0.5142857142857143,"totalExamples":2,"bonusSoFar":0.67},{"rt":3309,"response":{"heads":"1","tails":"1"},"type":"response","condition":"seqFeedback","trueTheta":0.8,"classrooms":["A","B"],"studentTrueClassroom":"A","exampleSet":"second","trial_type":"survey-html-form","trial_index":174,"time_elapsed":1606766,"internal_node_id":"0.0-158.0-0.0","params":{"nStudents":24,"maxFlips":30,"completionMinutes":45,"basePay":8,"maxBonus":9,"perTrialBonus":0.5,"perTrialBonusThreshold":0.05,"exampleCost":0.01},"classroomParams":{"A":{"a":1,"b":4},"B":{"a":4,"b":1},"C":{"a":2,"b":8},"D":{"a":8,"b":2}},"conditions":["nonSeqFull","nonSeqPartial","seqNoFeedback","seqFeedback"],"classroomPairings":[["A","B"],["C","D"]],"coinWeights":[0.2,0.5,0.8],"subjectId":"A39SK1E6IMQBD5","assignmentId":"3R3YRB5GRGPNVQR9OOFV35PUDDKUAH","hitId":"3UDTAB6HH6LRO17U79I9TKUGSHV90J","url":"https://gershmanlab.com/experiments/alicia/teaching/experiment/?hitId=3UDTAB6HH6LRO17U79I9TKUGSHV90J&workerId=A39SK1E6IMQBD5&assignmentId=3R3YRB5GRGPNVQR9OOFV35PUDDKUAH&a=GR3R9&tp_a=GR3R9&b=3R3YRB5GRGPNVQR9OOFV35PUDDKUAH&tp_b=3R3YRB5GRGPNVQR9OOFV35PUDDKUAH&c=365799&tp_c=365799","firstResponseHeads":1,"firstResponseTails":1,"secondResponseHeads":1,"secondResponseTails":1,"totalHeads":2,"totalTails":2,"studentIndex":19,"studentTrueHypers":{"a":1,"b":4},"studentGuess":0.3333333333333333,"delta":0.46666666666666673,"bonus":0,"bonusSoFar":0.67,"totalExamples":4},{"rt":3166,"response":{"heads":"1","tails":"1"},"type":"response","condition":"seqFeedback","trueTheta":0.8,"classrooms":["C","D"],"studentTrueClassroom":"C","exampleSet":"first","trial_type":"survey-html-form","trial_index":180,"time_elapsed":1621170,"internal_node_id":"0.0-164.0-0.0","params":{"nStudents":24,"maxFlips":30,"completionMinutes":45,"basePay":8,"maxBonus":9,"perTrialBonus":0.5,"perTrialBonusThreshold":0.05,"exampleCost":0.01},"classroomParams":{"A":{"a":1,"b":4},"B":{"a":4,"b":1},"C":{"a":2,"b":8},"D":{"a":8,"b":2}},"conditions":["nonSeqFull","nonSeqPartial","seqNoFeedback","seqFeedback"],"classroomPairings":[["A","B"],["C","D"]],"coinWeights":[0.2,0.5,0.8],"subjectId":"A39SK1E6IMQBD5","assignmentId":"3R3YRB5GRGPNVQR9OOFV35PUDDKUAH","hitId":"3UDTAB6HH6LRO17U79I9TKUGSHV90J","url":"https://gershmanlab.com/experiments/alicia/teaching/experiment/?hitId=3UDTAB6HH6LRO17U79I9TKUGSHV90J&workerId=A39SK1E6IMQBD5&assignmentId=3R3YRB5GRGPNVQR9OOFV35PUDDKUAH&a=GR3R9&tp_a=GR3R9&b=3R3YRB5GRGPNVQR9OOFV35PUDDKUAH&tp_b=3R3YRB5GRGPNVQR9OOFV35PUDDKUAH&c=365799&tp_c=365799","heads":1,"tails":1,"studentIndex":20,"studentTrueHypers":{"a":2,"b":8},"studentGuess":0.25,"delta":0.55,"totalExamples":2,"bonusSoFar":0.67},{"rt":3030,"response":{"heads":"1","tails":"1"},"type":"response","condition":"seqFeedback","trueTheta":0.8,"classrooms":["C","D"],"studentTrueClassroom":"C","exampleSet":"second","trial_type":"survey-html-form","trial_index":184,"time_elapsed":1632663,"internal_node_id":"0.0-168.0-0.0","params":{"nStudents":24,"maxFlips":30,"completionMinutes":45,"basePay":8,"maxBonus":9,"perTrialBonus":0.5,"perTrialBonusThreshold":0.05,"exampleCost":0.01},"classroomParams":{"A":{"a":1,"b":4},"B":{"a":4,"b":1},"C":{"a":2,"b":8},"D":{"a":8,"b":2}},"conditions":["nonSeqFull","nonSeqPartial","seqNoFeedback","seqFeedback"],"classroomPairings":[["A","B"],["C","D"]],"coinWeights":[0.2,0.5,0.8],"subjectId":"A39SK1E6IMQBD5","assignmentId":"3R3YRB5GRGPNVQR9OOFV35PUDDKUAH","hitId":"3UDTAB6HH6LRO17U79I9TKUGSHV90J","url":"https://gershmanlab.com/experiments/alicia/teaching/experiment/?hitId=3UDTAB6HH6LRO17U79I9TKUGSHV90J&workerId=A39SK1E6IMQBD5&assignmentId=3R3YRB5GRGPNVQR9OOFV35PUDDKUAH&a=GR3R9&tp_a=GR3R9&b=3R3YRB5GRGPNVQR9OOFV35PUDDKUAH&tp_b=3R3YRB5GRGPNVQR9OOFV35PUDDKUAH&c=365799&tp_c=365799","firstResponseHeads":1,"firstResponseTails":1,"secondResponseHeads":1,"secondResponseTails":1,"totalHeads":2,"totalTails":2,"studentIndex":20,"studentTrueHypers":{"a":2,"b":8},"studentGuess":0.2857142857142857,"delta":0.5142857142857143,"bonus":0,"bonusSoFar":0.67,"totalExamples":4},{"rt":2860,"response":{"heads":"1","tails":"1"},"type":"response","condition":"nonSeqFull","trueTheta":0.2,"classrooms":["C","D"],"studentTrueClassroom":"C","exampleSet":"first","trial_type":"survey-html-form","trial_index":190,"time_elapsed":1648791,"internal_node_id":"0.0-174.0-0.0","params":{"nStudents":24,"maxFlips":30,"completionMinutes":45,"basePay":8,"maxBonus":9,"perTrialBonus":0.5,"perTrialBonusThreshold":0.05,"exampleCost":0.01},"classroomParams":{"A":{"a":1,"b":4},"B":{"a":4,"b":1},"C":{"a":2,"b":8},"D":{"a":8,"b":2}},"conditions":["nonSeqFull","nonSeqPartial","seqNoFeedback","seqFeedback"],"classroomPairings":[["A","B"],["C","D"]],"coinWeights":[0.2,0.5,0.8],"subjectId":"A39SK1E6IMQBD5","assignmentId":"3R3YRB5GRGPNVQR9OOFV35PUDDKUAH","hitId":"3UDTAB6HH6LRO17U79I9TKUGSHV90J","url":"https://gershmanlab.com/experiments/alicia/teaching/experiment/?hitId=3UDTAB6HH6LRO17U79I9TKUGSHV90J&workerId=A39SK1E6IMQBD5&assignmentId=3R3YRB5GRGPNVQR9OOFV35PUDDKUAH&a=GR3R9&tp_a=GR3R9&b=3R3YRB5GRGPNVQR9OOFV35PUDDKUAH&tp_b=3R3YRB5GRGPNVQR9OOFV35PUDDKUAH&c=365799&tp_c=365799","heads":1,"tails":1,"studentIndex":21,"studentTrueHypers":{"a":2,"b":8},"studentGuess":0.25,"delta":0.04999999999999999,"totalExamples":2,"bonus":0.48,"bonusSoFar":1.15},{"rt":3566,"response":{"heads":"1","tails":"1"},"type":"response","condition":"nonSeqPartial","trueTheta":0.2,"classrooms":["A","B"],"studentTrueClassroom":"B","exampleSet":"first","trial_type":"survey-html-form","trial_index":196,"time_elapsed":1664378,"internal_node_id":"0.0-180.0-0.0","params":{"nStudents":24,"maxFlips":30,"completionMinutes":45,"basePay":8,"maxBonus":9,"perTrialBonus":0.5,"perTrialBonusThreshold":0.05,"exampleCost":0.01},"classroomParams":{"A":{"a":1,"b":4},"B":{"a":4,"b":1},"C":{"a":2,"b":8},"D":{"a":8,"b":2}},"conditions":["nonSeqFull","nonSeqPartial","seqNoFeedback","seqFeedback"],"classroomPairings":[["A","B"],["C","D"]],"coinWeights":[0.2,0.5,0.8],"subjectId":"A39SK1E6IMQBD5","assignmentId":"3R3YRB5GRGPNVQR9OOFV35PUDDKUAH","hitId":"3UDTAB6HH6LRO17U79I9TKUGSHV90J","url":"https://gershmanlab.com/experiments/alicia/teaching/experiment/?hitId=3UDTAB6HH6LRO17U79I9TKUGSHV90J&workerId=A39SK1E6IMQBD5&assignmentId=3R3YRB5GRGPNVQR9OOFV35PUDDKUAH&a=GR3R9&tp_a=GR3R9&b=3R3YRB5GRGPNVQR9OOFV35PUDDKUAH&tp_b=3R3YRB5GRGPNVQR9OOFV35PUDDKUAH&c=365799&tp_c=365799","heads":1,"tails":1,"studentIndex":22,"studentTrueHypers":{"a":4,"b":1},"studentGuess":0.7142857142857143,"delta":0.5142857142857142,"totalExamples":2,"bonus":0,"bonusSoFar":1.15},{"rt":3375,"response":{"heads":"1","tails":"1"},"type":"response","condition":"nonSeqPartial","trueTheta":0.2,"classrooms":["C","D"],"studentTrueClassroom":"D","exampleSet":"first","trial_type":"survey-html-form","trial_index":202,"time_elapsed":1678094,"internal_node_id":"0.0-186.0-0.0","params":{"nStudents":24,"maxFlips":30,"completionMinutes":45,"basePay":8,"maxBonus":9,"perTrialBonus":0.5,"perTrialBonusThreshold":0.05,"exampleCost":0.01},"classroomParams":{"A":{"a":1,"b":4},"B":{"a":4,"b":1},"C":{"a":2,"b":8},"D":{"a":8,"b":2}},"conditions":["nonSeqFull","nonSeqPartial","seqNoFeedback","seqFeedback"],"classroomPairings":[["A","B"],["C","D"]],"coinWeights":[0.2,0.5,0.8],"subjectId":"A39SK1E6IMQBD5","assignmentId":"3R3YRB5GRGPNVQR9OOFV35PUDDKUAH","hitId":"3UDTAB6HH6LRO17U79I9TKUGSHV90J","url":"https://gershmanlab.com/experiments/alicia/teaching/experiment/?hitId=3UDTAB6HH6LRO17U79I9TKUGSHV90J&workerId=A39SK1E6IMQBD5&assignmentId=3R3YRB5GRGPNVQR9OOFV35PUDDKUAH&a=GR3R9&tp_a=GR3R9&b=3R3YRB5GRGPNVQR9OOFV35PUDDKUAH&tp_b=3R3YRB5GRGPNVQR9OOFV35PUDDKUAH&c=365799&tp_c=365799","heads":1,"tails":1,"studentIndex":23,"studentTrueHypers":{"a":8,"b":2},"studentGuess":0.75,"delta":0.55,"totalExamples":2,"bonus":0,"bonusSoFar":1.15},{"rt":13113,"response":{"gender":"male","age":"33","understood":"yes","comments":""},"type":"response","trial_type":"survey-html-form","trial_index":206,"time_elapsed":1703240,"internal_node_id":"0.0-191.0","params":{"nStudents":24,"maxFlips":30,"completionMinutes":45,"basePay":8,"maxBonus":9,"perTrialBonus":0.5,"perTrialBonusThreshold":0.05,"exampleCost":0.01},"classroomParams":{"A":{"a":1,"b":4},"B":{"a":4,"b":1},"C":{"a":2,"b":8},"D":{"a":8,"b":2}},"conditions":["nonSeqFull","nonSeqPartial","seqNoFeedback","seqFeedback"],"classroomPairings":[["A","B"],["C","D"]],"coinWeights":[0.2,0.5,0.8],"subjectId":"A39SK1E6IMQBD5","assignmentId":"3R3YRB5GRGPNVQR9OOFV35PUDDKUAH","hitId":"3UDTAB6HH6LRO17U79I9TKUGSHV90J","url":"https://gershmanlab.com/experiments/alicia/teaching/experiment/?hitId=3UDTAB6HH6LRO17U79I9TKUGSHV90J&workerId=A39SK1E6IMQBD5&assignmentId=3R3YRB5GRGPNVQR9OOFV35PUDDKUAH&a=GR3R9&tp_a=GR3R9&b=3R3YRB5GRGPNVQR9OOFV35PUDDKUAH&tp_b=3R3YRB5GRGPNVQR9OOFV35PUDDKUAH&c=365799&tp_c=365799","totalBonus":1.15}]