[{"rt":31617,"response":{"heads":"3","tails":"0"},"type":"response","condition":"seqFeedback","trueTheta":0.8,"classrooms":["C","D"],"studentTrueClassroom":"D","exampleSet":"first","trial_type":"survey-html-form","trial_index":7,"time_elapsed":210631,"internal_node_id":"0.0-6.0-0.0","params":{"nStudents":24,"maxFlips":30,"completionMinutes":45,"basePay":8,"maxBonus":9,"perTrialBonus":0.5,"perTrialBonusThreshold":0.05,"exampleCost":0.01},"classroomParams":{"A":{"a":1,"b":4},"B":{"a":4,"b":1},"C":{"a":2,"b":8},"D":{"a":8,"b":2}},"conditions":["nonSeqFull","nonSeqPartial","seqNoFeedback","seqFeedback"],"classroomPairings":[["A","B"],["C","D"]],"coinWeights":[0.2,0.5,0.8],"subjectId":"A3CGQOJC28OVGN","assignmentId":"3Z4AIRP3C7ZJI684XAXPCBVV31VX1O","hitId":"3Z3R5YC0P3915KVY8X6BNRIWSQNFTT","url":"https://gershmanlab.com/experiments/alicia/teaching/experiment/?hitId=3Z3R5YC0P3915KVY8X6BNRIWSQNFTT&workerId=A3CGQOJC28OVGN&assignmentId=3Z4AIRP3C7ZJI684XAXPCBVV31VX1O&a=3I4Z9&tp_a=3I4Z9&b=3Z4AIRP3C7ZJI684XAXPCBVV31VX1O&tp_b=3Z4AIRP3C7ZJI684XAXPCBVV31VX1O&c=365799&tp_c=365799","heads":3,"tails":0,"studentIndex":0,"studentTrueHypers":{"a":8,"b":2},"studentGuess":0.8461538461538461,"delta":0.0461538461538461,"totalExamples":3,"bonusSoFar":0},{"rt":15252,"response":{"heads":"2","tails":"0"},"type":"response","condition":"seqFeedback","trueTheta":0.8,"classrooms":["C","D"],"studentTrueClassroom":"D","exampleSet":"second","trial_type":"survey-html-form","trial_index":11,"time_elapsed":238921,"internal_node_id":"0.0-10.0-0.0","params":{"nStudents":24,"maxFlips":30,"completionMinutes":45,"basePay":8,"maxBonus":9,"perTrialBonus":0.5,"perTrialBonusThreshold":0.05,"exampleCost":0.01},"classroomParams":{"A":{"a":1,"b":4},"B":{"a":4,"b":1},"C":{"a":2,"b":8},"D":{"a":8,"b":2}},"conditions":["nonSeqFull","nonSeqPartial","seqNoFeedback","seqFeedback"],"classroomPairings":[["A","B"],["C","D"]],"coinWeights":[0.2,0.5,0.8],"subjectId":"A3CGQOJC28OVGN","assignmentId":"3Z4AIRP3C7ZJI684XAXPCBVV31VX1O","hitId":"3Z3R5YC0P3915KVY8X6BNRIWSQNFTT","url":"https://gershmanlab.com/experiments/alicia/teaching/experiment/?hitId=3Z3R5YC0P3915KVY8X6BNRIWSQNFTT&workerId=A3CGQOJC28OVGN&assignmentId=3Z4AIRP3C7ZJI684XAXPCBVV31VX1O&a=3I4Z9&tp_a=3I4Z9&b=3Z4AIRP3C7ZJI684XAXPCBVV31VX1O&tp_b=3Z4AIRP3C7ZJI684XAXPCBVV31VX1O&c=365799&tp_c=365799","firstResponseHeads":3,"firstResponseTails":0,"secondResponseHeads":2,"secondResponseTails":0,"totalHeads":5,"totalTails":0,"studentIndex":0,"studentTrueHypers":{"a":8,"b":2},"studentGuess":0.8666666666666667,"delta":0.06666666666666665,"bonus":0,"bonusSoFar":0,"totalExamples":5},{"rt":11376,"response":{"heads":"0","tails":"8"},"type":"response","condition":"nonSeqFull","trueTheta":0.2,"classrooms":["C","D"],"studentTrueClassroom":"D","exampleSet":"first","trial_type":"survey-html-form","trial_index":17,"time_elapsed":271158,"internal_node_id":"0.0-16.0-0.0","params":{"nStudents":24,"maxFlips":30,"completionMinutes":45,"basePay":8,"maxBonus":9,"perTrialBonus":0.5,"perTrialBonusThreshold":0.05,"exampleCost":0.01},"classroomParams":{"A":{"a":1,"b":4},"B":{"a":4,"b":1},"C":{"a":2,"b":8},"D":{"a":8,"b":2}},"conditions":["nonSeqFull","nonSeqPartial","seqNoFeedback","seqFeedback"],"classroomPairings":[["A","B"],["C","D"]],"coinWeights":[0.2,0.5,0.8],"subjectId":"A3CGQOJC28OVGN","assignmentId":"3Z4AIRP3C7ZJI684XAXPCBVV31VX1O","hitId":"3Z3R5YC0P3915KVY8X6BNRIWSQNFTT","url":"https://gershmanlab.com/experiments/alicia/teaching/experiment/?hitId=3Z3R5YC0P3915KVY8X6BNRIWSQNFTT&workerId=A3CGQOJC28OVGN&assignmentId=3Z4AIRP3C7ZJI684XAXPCBVV31VX1O&a=3I4Z9&tp_a=3I4Z9&b=3Z4AIRP3C7ZJI684XAXPCBVV31VX1O&tp_b=3Z4AIRP3C7ZJI684XAXPCBVV31VX1O&c=365799&tp_c=365799","heads":0,"tails":8,"studentIndex":1,"studentTrueHypers":{"a":8,"b":2},"studentGuess":0.4444444444444444,"delta":0.2444444444444444,"totalExamples":8,"bonus":0,"bonusSoFar":0},{"rt":9781,"response":{"heads":"0","tails":"3"},"type":"response","condition":"seqNoFeedback","trueTheta":0.2,"classrooms":["C","D"],"studentTrueClassroom":"C","exampleSet":"first","trial_type":"survey-html-form","trial_index":23,"time_elapsed":298470,"internal_node_id":"0.0-22.0-0.0","params":{"nStudents":24,"maxFlips":30,"completionMinutes":45,"basePay":8,"maxBonus":9,"perTrialBonus":0.5,"perTrialBonusThreshold":0.05,"exampleCost":0.01},"classroomParams":{"A":{"a":1,"b":4},"B":{"a":4,"b":1},"C":{"a":2,"b":8},"D":{"a":8,"b":2}},"conditions":["nonSeqFull","nonSeqPartial","seqNoFeedback","seqFeedback"],"classroomPairings":[["A","B"],["C","D"]],"coinWeights":[0.2,0.5,0.8],"subjectId":"A3CGQOJC28OVGN","assignmentId":"3Z4AIRP3C7ZJI684XAXPCBVV31VX1O","hitId":"3Z3R5YC0P3915KVY8X6BNRIWSQNFTT","url":"https://gershmanlab.com/experiments/alicia/teaching/experiment/?hitId=3Z3R5YC0P3915KVY8X6BNRIWSQNFTT&workerId=A3CGQOJC28OVGN&assignmentId=3Z4AIRP3C7ZJI684XAXPCBVV31VX1O&a=3I4Z9&tp_a=3I4Z9&b=3Z4AIRP3C7ZJI684XAXPCBVV31VX1O&tp_b=3Z4AIRP3C7ZJI684XAXPCBVV31VX1O&c=365799&tp_c=365799","heads":0,"tails":3,"studentIndex":2,"studentTrueHypers":{"a":2,"b":8},"studentGuess":0.15384615384615385,"delta":0.046153846153846156,"totalExamples":3,"bonusSoFar":0},{"rt":13439,"response":{"heads":"1","tails":"4"},"type":"response","condition":"seqNoFeedback","trueTheta":0.2,"classrooms":["C","D"],"studentTrueClassroom":"C","exampleSet":"second","trial_type":"survey-html-form","trial_index":26,"time_elapsed":317923,"internal_node_id":"0.0-25.0-0.0","params":{"nStudents":24,"maxFlips":30,"completionMinutes":45,"basePay":8,"maxBonus":9,"perTrialBonus":0.5,"perTrialBonusThreshold":0.05,"exampleCost":0.01},"classroomParams":{"A":{"a":1,"b":4},"B":{"a":4,"b":1},"C":{"a":2,"b":8},"D":{"a":8,"b":2}},"conditions":["nonSeqFull","nonSeqPartial","seqNoFeedback","seqFeedback"],"classroomPairings":[["A","B"],["C","D"]],"coinWeights":[0.2,0.5,0.8],"subjectId":"A3CGQOJC28OVGN","assignmentId":"3Z4AIRP3C7ZJI684XAXPCBVV31VX1O","hitId":"3Z3R5YC0P3915KVY8X6BNRIWSQNFTT","url":"https://gershmanlab.com/experiments/alicia/teaching/experiment/?hitId=3Z3R5YC0P3915KVY8X6BNRIWSQNFTT&workerId=A3CGQOJC28OVGN&assignmentId=3Z4AIRP3C7ZJI684XAXPCBVV31VX1O&a=3I4Z9&tp_a=3I4Z9&b=3Z4AIRP3C7ZJI684XAXPCBVV31VX1O&tp_b=3Z4AIRP3C7ZJI684XAXPCBVV31VX1O&c=365799&tp_c=365799","firstResponseHeads":0,"firstResponseTails":3,"secondResponseHeads":1,"secondResponseTails":4,"totalHeads":1,"totalTails":7,"studentIndex":2,"studentTrueHypers":{"a":2,"b":8},"studentGuess":0.16666666666666666,"delta":0.033333333333333354,"bonus":0.42,"bonusSoFar":0.42,"totalExamples":8},{"rt":5589,"response":{"heads":"1","tails":"1"},"type":"response","condition":"seqFeedback","trueTheta":0.5,"classrooms":["C","D"],"studentTrueClassroom":"C","exampleSet":"first","trial_type":"survey-html-form","trial_index":32,"time_elapsed":487498,"internal_node_id":"0.0-31.0-0.0","params":{"nStudents":24,"maxFlips":30,"completionMinutes":45,"basePay":8,"maxBonus":9,"perTrialBonus":0.5,"perTrialBonusThreshold":0.05,"exampleCost":0.01},"classroomParams":{"A":{"a":1,"b":4},"B":{"a":4,"b":1},"C":{"a":2,"b":8},"D":{"a":8,"b":2}},"conditions":["nonSeqFull","nonSeqPartial","seqNoFeedback","seqFeedback"],"classroomPairings":[["A","B"],["C","D"]],"coinWeights":[0.2,0.5,0.8],"subjectId":"A3CGQOJC28OVGN","assignmentId":"3Z4AIRP3C7ZJI684XAXPCBVV31VX1O","hitId":"3Z3R5YC0P3915KVY8X6BNRIWSQNFTT","url":"https://gershmanlab.com/experiments/alicia/teaching/experiment/?hitId=3Z3R5YC0P3915KVY8X6BNRIWSQNFTT&workerId=A3CGQOJC28OVGN&assignmentId=3Z4AIRP3C7ZJI684XAXPCBVV31VX1O&a=3I4Z9&tp_a=3I4Z9&b=3Z4AIRP3C7ZJI684XAXPCBVV31VX1O&tp_b=3Z4AIRP3C7ZJI684XAXPCBVV31VX1O&c=365799&tp_c=365799","heads":1,"tails":1,"studentIndex":3,"studentTrueHypers":{"a":2,"b":8},"studentGuess":0.25,"delta":0.25,"totalExamples":2,"bonusSoFar":0.42},{"rt":9726,"response":{"heads":"1","tails":"1"},"type":"response","condition":"seqFeedback","trueTheta":0.5,"classrooms":["C","D"],"studentTrueClassroom":"C","exampleSet":"second","trial_type":"survey-html-form","trial_index":36,"time_elapsed":527469,"internal_node_id":"0.0-35.0-0.0","params":{"nStudents":24,"maxFlips":30,"completionMinutes":45,"basePay":8,"maxBonus":9,"perTrialBonus":0.5,"perTrialBonusThreshold":0.05,"exampleCost":0.01},"classroomParams":{"A":{"a":1,"b":4},"B":{"a":4,"b":1},"C":{"a":2,"b":8},"D":{"a":8,"b":2}},"conditions":["nonSeqFull","nonSeqPartial","seqNoFeedback","seqFeedback"],"classroomPairings":[["A","B"],["C","D"]],"coinWeights":[0.2,0.5,0.8],"subjectId":"A3CGQOJC28OVGN","assignmentId":"3Z4AIRP3C7ZJI684XAXPCBVV31VX1O","hitId":"3Z3R5YC0P3915KVY8X6BNRIWSQNFTT","url":"https://gershmanlab.com/experiments/alicia/teaching/experiment/?hitId=3Z3R5YC0P3915KVY8X6BNRIWSQNFTT&workerId=A3CGQOJC28OVGN&assignmentId=3Z4AIRP3C7ZJI684XAXPCBVV31VX1O&a=3I4Z9&tp_a=3I4Z9&b=3Z4AIRP3C7ZJI684XAXPCBVV31VX1O&tp_b=3Z4AIRP3C7ZJI684XAXPCBVV31VX1O&c=365799&tp_c=365799","firstResponseHeads":1,"firstResponseTails":1,"secondResponseHeads":1,"secondResponseTails":1,"totalHeads":2,"totalTails":2,"studentIndex":3,"studentTrueHypers":{"a":2,"b":8},"studentGuess":0.2857142857142857,"delta":0.2142857142857143,"bonus":0,"bonusSoFar":0.42,"totalExamples":4},{"rt":13968,"response":{"heads":"4","tails":"1"},"type":"response","condition":"seqNoFeedback","trueTheta":0.8,"classrooms":["C","D"],"studentTrueClassroom":"C","exampleSet":"first","trial_type":"survey-html-form","trial_index":42,"time_elapsed":558502,"internal_node_id":"0.0-41.0-0.0","params":{"nStudents":24,"maxFlips":30,"completionMinutes":45,"basePay":8,"maxBonus":9,"perTrialBonus":0.5,"perTrialBonusThreshold":0.05,"exampleCost":0.01},"classroomParams":{"A":{"a":1,"b":4},"B":{"a":4,"b":1},"C":{"a":2,"b":8},"D":{"a":8,"b":2}},"conditions":["nonSeqFull","nonSeqPartial","seqNoFeedback","seqFeedback"],"classroomPairings":[["A","B"],["C","D"]],"coinWeights":[0.2,0.5,0.8],"subjectId":"A3CGQOJC28OVGN","assignmentId":"3Z4AIRP3C7ZJI684XAXPCBVV31VX1O","hitId":"3Z3R5YC0P3915KVY8X6BNRIWSQNFTT","url":"https://gershmanlab.com/experiments/alicia/teaching/experiment/?hitId=3Z3R5YC0P3915KVY8X6BNRIWSQNFTT&workerId=A3CGQOJC28OVGN&assignmentId=3Z4AIRP3C7ZJI684XAXPCBVV31VX1O&a=3I4Z9&tp_a=3I4Z9&b=3Z4AIRP3C7ZJI684XAXPCBVV31VX1O&tp_b=3Z4AIRP3C7ZJI684XAXPCBVV31VX1O&c=365799&tp_c=365799","heads":4,"tails":1,"studentIndex":4,"studentTrueHypers":{"a":2,"b":8},"studentGuess":0.4,"delta":0.4,"totalExamples":5,"bonusSoFar":0.42},{"rt":31848,"response":{"heads":"8","tails":"2"},"type":"response","condition":"seqNoFeedback","trueTheta":0.8,"classrooms":["C","D"],"studentTrueClassroom":"C","exampleSet":"second","trial_type":"survey-html-form","trial_index":45,"time_elapsed":596858,"internal_node_id":"0.0-44.0-0.0","params":{"nStudents":24,"maxFlips":30,"completionMinutes":45,"basePay":8,"maxBonus":9,"perTrialBonus":0.5,"perTrialBonusThreshold":0.05,"exampleCost":0.01},"classroomParams":{"A":{"a":1,"b":4},"B":{"a":4,"b":1},"C":{"a":2,"b":8},"D":{"a":8,"b":2}},"conditions":["nonSeqFull","nonSeqPartial","seqNoFeedback","seqFeedback"],"classroomPairings":[["A","B"],["C","D"]],"coinWeights":[0.2,0.5,0.8],"subjectId":"A3CGQOJC28OVGN","assignmentId":"3Z4AIRP3C7ZJI684XAXPCBVV31VX1O","hitId":"3Z3R5YC0P3915KVY8X6BNRIWSQNFTT","url":"https://gershmanlab.com/experiments/alicia/teaching/experiment/?hitId=3Z3R5YC0P3915KVY8X6BNRIWSQNFTT&workerId=A3CGQOJC28OVGN&assignmentId=3Z4AIRP3C7ZJI684XAXPCBVV31VX1O&a=3I4Z9&tp_a=3I4Z9&b=3Z4AIRP3C7ZJI684XAXPCBVV31VX1O&tp_b=3Z4AIRP3C7ZJI684XAXPCBVV31VX1O&c=365799&tp_c=365799","firstResponseHeads":4,"firstResponseTails":1,"secondResponseHeads":8,"secondResponseTails":2,"totalHeads":12,"totalTails":3,"studentIndex":4,"studentTrueHypers":{"a":2,"b":8},"studentGuess":0.56,"delta":0.24,"bonus":0,"bonusSoFar":0.42,"totalExamples":15},{"rt":6110,"response":{"heads":"1","tails":"4"},"type":"response","condition":"seqFeedback","trueTheta":0.2,"classrooms":["C","D"],"studentTrueClassroom":"D","exampleSet":"first","trial_type":"survey-html-form","trial_index":51,"time_elapsed":621272,"internal_node_id":"0.0-50.0-0.0","params":{"nStudents":24,"maxFlips":30,"completionMinutes":45,"basePay":8,"maxBonus":9,"perTrialBonus":0.5,"perTrialBonusThreshold":0.05,"exampleCost":0.01},"classroomParams":{"A":{"a":1,"b":4},"B":{"a":4,"b":1},"C":{"a":2,"b":8},"D":{"a":8,"b":2}},"conditions":["nonSeqFull","nonSeqPartial","seqNoFeedback","seqFeedback"],"classroomPairings":[["A","B"],["C","D"]],"coinWeights":[0.2,0.5,0.8],"subjectId":"A3CGQOJC28OVGN","assignmentId":"3Z4AIRP3C7ZJI684XAXPCBVV31VX1O","hitId":"3Z3R5YC0P3915KVY8X6BNRIWSQNFTT","url":"https://gershmanlab.com/experiments/alicia/teaching/experiment/?hitId=3Z3R5YC0P3915KVY8X6BNRIWSQNFTT&workerId=A3CGQOJC28OVGN&assignmentId=3Z4AIRP3C7ZJI684XAXPCBVV31VX1O&a=3I4Z9&tp_a=3I4Z9&b=3Z4AIRP3C7ZJI684XAXPCBVV31VX1O&tp_b=3Z4AIRP3C7ZJI684XAXPCBVV31VX1O&c=365799&tp_c=365799","heads":1,"tails":4,"studentIndex":5,"studentTrueHypers":{"a":8,"b":2},"studentGuess":0.6,"delta":0.39999999999999997,"totalExamples":5,"bonusSoFar":0.42},{"rt":7736,"response":{"heads":"10","tails":"2"},"type":"response","condition":"seqFeedback","trueTheta":0.2,"classrooms":["C","D"],"studentTrueClassroom":"D","exampleSet":"second","trial_type":"survey-html-form","trial_index":55,"time_elapsed":641853,"internal_node_id":"0.0-54.0-0.0","params":{"nStudents":24,"maxFlips":30,"completionMinutes":45,"basePay":8,"maxBonus":9,"perTrialBonus":0.5,"perTrialBonusThreshold":0.05,"exampleCost":0.01},"classroomParams":{"A":{"a":1,"b":4},"B":{"a":4,"b":1},"C":{"a":2,"b":8},"D":{"a":8,"b":2}},"conditions":["nonSeqFull","nonSeqPartial","seqNoFeedback","seqFeedback"],"classroomPairings":[["A","B"],["C","D"]],"coinWeights":[0.2,0.5,0.8],"subjectId":"A3CGQOJC28OVGN","assignmentId":"3Z4AIRP3C7ZJI684XAXPCBVV31VX1O","hitId":"3Z3R5YC0P3915KVY8X6BNRIWSQNFTT","url":"https://gershmanlab.com/experiments/alicia/teaching/experiment/?hitId=3Z3R5YC0P3915KVY8X6BNRIWSQNFTT&workerId=A3CGQOJC28OVGN&assignmentId=3Z4AIRP3C7ZJI684XAXPCBVV31VX1O&a=3I4Z9&tp_a=3I4Z9&b=3Z4AIRP3C7ZJI684XAXPCBVV31VX1O&tp_b=3Z4AIRP3C7ZJI684XAXPCBVV31VX1O&c=365799&tp_c=365799","firstResponseHeads":1,"firstResponseTails":4,"secondResponseHeads":10,"secondResponseTails":2,"totalHeads":11,"totalTails":6,"studentIndex":5,"studentTrueHypers":{"a":8,"b":2},"studentGuess":0.7037037037037037,"delta":0.5037037037037038,"bonus":0,"bonusSoFar":0.42,"totalExamples":17},{"rt":5506,"response":{"heads":"5","tails":"5"},"type":"response","condition":"nonSeqPartial","trueTheta":0.5,"classrooms":["A","B"],"studentTrueClassroom":"B","exampleSet":"first","trial_type":"survey-html-form","trial_index":61,"time_elapsed":665057,"internal_node_id":"0.0-60.0-0.0","params":{"nStudents":24,"maxFlips":30,"completionMinutes":45,"basePay":8,"maxBonus":9,"perTrialBonus":0.5,"perTrialBonusThreshold":0.05,"exampleCost":0.01},"classroomParams":{"A":{"a":1,"b":4},"B":{"a":4,"b":1},"C":{"a":2,"b":8},"D":{"a":8,"b":2}},"conditions":["nonSeqFull","nonSeqPartial","seqNoFeedback","seqFeedback"],"classroomPairings":[["A","B"],["C","D"]],"coinWeights":[0.2,0.5,0.8],"subjectId":"A3CGQOJC28OVGN","assignmentId":"3Z4AIRP3C7ZJI684XAXPCBVV31VX1O","hitId":"3Z3R5YC0P3915KVY8X6BNRIWSQNFTT","url":"https://gershmanlab.com/experiments/alicia/teaching/experiment/?hitId=3Z3R5YC0P3915KVY8X6BNRIWSQNFTT&workerId=A3CGQOJC28OVGN&assignmentId=3Z4AIRP3C7ZJI684XAXPCBVV31VX1O&a=3I4Z9&tp_a=3I4Z9&b=3Z4AIRP3C7ZJI684XAXPCBVV31VX1O&tp_b=3Z4AIRP3C7ZJI684XAXPCBVV31VX1O&c=365799&tp_c=365799","heads":5,"tails":5,"studentIndex":6,"studentTrueHypers":{"a":4,"b":1},"studentGuess":0.6,"delta":0.09999999999999998,"totalExamples":10,"bonus":0,"bonusSoFar":0.42},{"rt":15558,"response":{"heads":"12","tails":"3"},"type":"response","condition":"nonSeqFull","trueTheta":0.8,"classrooms":["C","D"],"studentTrueClassroom":"C","exampleSet":"first","trial_type":"survey-html-form","trial_index":67,"time_elapsed":708735,"internal_node_id":"0.0-66.0-0.0","params":{"nStudents":24,"maxFlips":30,"completionMinutes":45,"basePay":8,"maxBonus":9,"perTrialBonus":0.5,"perTrialBonusThreshold":0.05,"exampleCost":0.01},"classroomParams":{"A":{"a":1,"b":4},"B":{"a":4,"b":1},"C":{"a":2,"b":8},"D":{"a":8,"b":2}},"conditions":["nonSeqFull","nonSeqPartial","seqNoFeedback","seqFeedback"],"classroomPairings":[["A","B"],["C","D"]],"coinWeights":[0.2,0.5,0.8],"subjectId":"A3CGQOJC28OVGN","assignmentId":"3Z4AIRP3C7ZJI684XAXPCBVV31VX1O","hitId":"3Z3R5YC0P3915KVY8X6BNRIWSQNFTT","url":"https://gershmanlab.com/experiments/alicia/teaching/experiment/?hitId=3Z3R5YC0P3915KVY8X6BNRIWSQNFTT&workerId=A3CGQOJC28OVGN&assignmentId=3Z4AIRP3C7ZJI684XAXPCBVV31VX1O&a=3I4Z9&tp_a=3I4Z9&b=3Z4AIRP3C7ZJI684XAXPCBVV31VX1O&tp_b=3Z4AIRP3C7ZJI684XAXPCBVV31VX1O&c=365799&tp_c=365799","heads":12,"tails":3,"studentIndex":7,"studentTrueHypers":{"a":2,"b":8},"studentGuess":0.56,"delta":0.24,"totalExamples":15,"bonus":0,"bonusSoFar":0.42},{"rt":6161,"response":{"heads":"2","tails":"8"},"type":"response","condition":"seqNoFeedback","trueTheta":0.2,"classrooms":["A","B"],"studentTrueClassroom":"B","exampleSet":"first","trial_type":"survey-html-form","trial_index":73,"time_elapsed":749164,"internal_node_id":"0.0-72.0-0.0","params":{"nStudents":24,"maxFlips":30,"completionMinutes":45,"basePay":8,"maxBonus":9,"perTrialBonus":0.5,"perTrialBonusThreshold":0.05,"exampleCost":0.01},"classroomParams":{"A":{"a":1,"b":4},"B":{"a":4,"b":1},"C":{"a":2,"b":8},"D":{"a":8,"b":2}},"conditions":["nonSeqFull","nonSeqPartial","seqNoFeedback","seqFeedback"],"classroomPairings":[["A","B"],["C","D"]],"coinWeights":[0.2,0.5,0.8],"subjectId":"A3CGQOJC28OVGN","assignmentId":"3Z4AIRP3C7ZJI684XAXPCBVV31VX1O","hitId":"3Z3R5YC0P3915KVY8X6BNRIWSQNFTT","url":"https://gershmanlab.com/experiments/alicia/teaching/experiment/?hitId=3Z3R5YC0P3915KVY8X6BNRIWSQNFTT&workerId=A3CGQOJC28OVGN&assignmentId=3Z4AIRP3C7ZJI684XAXPCBVV31VX1O&a=3I4Z9&tp_a=3I4Z9&b=3Z4AIRP3C7ZJI684XAXPCBVV31VX1O&tp_b=3Z4AIRP3C7ZJI684XAXPCBVV31VX1O&c=365799&tp_c=365799","heads":2,"tails":8,"studentIndex":8,"studentTrueHypers":{"a":4,"b":1},"studentGuess":0.4,"delta":0.2,"totalExamples":10,"bonusSoFar":0.42},{"rt":7064,"response":{"heads":"2","tails":"8"},"type":"response","condition":"seqNoFeedback","trueTheta":0.2,"classrooms":["A","B"],"studentTrueClassroom":"B","exampleSet":"second","trial_type":"survey-html-form","trial_index":76,"time_elapsed":762741,"internal_node_id":"0.0-75.0-0.0","params":{"nStudents":24,"maxFlips":30,"completionMinutes":45,"basePay":8,"maxBonus":9,"perTrialBonus":0.5,"perTrialBonusThreshold":0.05,"exampleCost":0.01},"classroomParams":{"A":{"a":1,"b":4},"B":{"a":4,"b":1},"C":{"a":2,"b":8},"D":{"a":8,"b":2}},"conditions":["nonSeqFull","nonSeqPartial","seqNoFeedback","seqFeedback"],"classroomPairings":[["A","B"],["C","D"]],"coinWeights":[0.2,0.5,0.8],"subjectId":"A3CGQOJC28OVGN","assignmentId":"3Z4AIRP3C7ZJI684XAXPCBVV31VX1O","hitId":"3Z3R5YC0P3915KVY8X6BNRIWSQNFTT","url":"https://gershmanlab.com/experiments/alicia/teaching/experiment/?hitId=3Z3R5YC0P3915KVY8X6BNRIWSQNFTT&workerId=A3CGQOJC28OVGN&assignmentId=3Z4AIRP3C7ZJI684XAXPCBVV31VX1O&a=3I4Z9&tp_a=3I4Z9&b=3Z4AIRP3C7ZJI684XAXPCBVV31VX1O&tp_b=3Z4AIRP3C7ZJI684XAXPCBVV31VX1O&c=365799&tp_c=365799","firstResponseHeads":2,"firstResponseTails":8,"secondResponseHeads":2,"secondResponseTails":8,"totalHeads":4,"totalTails":16,"studentIndex":8,"studentTrueHypers":{"a":4,"b":1},"studentGuess":0.32,"delta":0.12,"bonus":0,"bonusSoFar":0.42,"totalExamples":20},{"rt":5075,"response":{"heads":"1","tails":"8"},"type":"response","condition":"nonSeqFull","trueTheta":0.2,"classrooms":["A","B"],"studentTrueClassroom":"A","exampleSet":"first","trial_type":"survey-html-form","trial_index":82,"time_elapsed":787135,"internal_node_id":"0.0-81.0-0.0","params":{"nStudents":24,"maxFlips":30,"completionMinutes":45,"basePay":8,"maxBonus":9,"perTrialBonus":0.5,"perTrialBonusThreshold":0.05,"exampleCost":0.01},"classroomParams":{"A":{"a":1,"b":4},"B":{"a":4,"b":1},"C":{"a":2,"b":8},"D":{"a":8,"b":2}},"conditions":["nonSeqFull","nonSeqPartial","seqNoFeedback","seqFeedback"],"classroomPairings":[["A","B"],["C","D"]],"coinWeights":[0.2,0.5,0.8],"subjectId":"A3CGQOJC28OVGN","assignmentId":"3Z4AIRP3C7ZJI684XAXPCBVV31VX1O","hitId":"3Z3R5YC0P3915KVY8X6BNRIWSQNFTT","url":"https://gershmanlab.com/experiments/alicia/teaching/experiment/?hitId=3Z3R5YC0P3915KVY8X6BNRIWSQNFTT&workerId=A3CGQOJC28OVGN&assignmentId=3Z4AIRP3C7ZJI684XAXPCBVV31VX1O&a=3I4Z9&tp_a=3I4Z9&b=3Z4AIRP3C7ZJI684XAXPCBVV31VX1O&tp_b=3Z4AIRP3C7ZJI684XAXPCBVV31VX1O&c=365799&tp_c=365799","heads":1,"tails":8,"studentIndex":9,"studentTrueHypers":{"a":1,"b":4},"studentGuess":0.14285714285714285,"delta":0.05714285714285716,"totalExamples":9,"bonus":0,"bonusSoFar":0.42},{"rt":10285,"response":{"heads":"5","tails":"0"},"type":"response","condition":"seqFeedback","trueTheta":0.8,"classrooms":["A","B"],"studentTrueClassroom":"A","exampleSet":"first","trial_type":"survey-html-form","trial_index":88,"time_elapsed":820060,"internal_node_id":"0.0-87.0-0.0","params":{"nStudents":24,"maxFlips":30,"completionMinutes":45,"basePay":8,"maxBonus":9,"perTrialBonus":0.5,"perTrialBonusThreshold":0.05,"exampleCost":0.01},"classroomParams":{"A":{"a":1,"b":4},"B":{"a":4,"b":1},"C":{"a":2,"b":8},"D":{"a":8,"b":2}},"conditions":["nonSeqFull","nonSeqPartial","seqNoFeedback","seqFeedback"],"classroomPairings":[["A","B"],["C","D"]],"coinWeights":[0.2,0.5,0.8],"subjectId":"A3CGQOJC28OVGN","assignmentId":"3Z4AIRP3C7ZJI684XAXPCBVV31VX1O","hitId":"3Z3R5YC0P3915KVY8X6BNRIWSQNFTT","url":"https://gershmanlab.com/experiments/alicia/teaching/experiment/?hitId=3Z3R5YC0P3915KVY8X6BNRIWSQNFTT&workerId=A3CGQOJC28OVGN&assignmentId=3Z4AIRP3C7ZJI684XAXPCBVV31VX1O&a=3I4Z9&tp_a=3I4Z9&b=3Z4AIRP3C7ZJI684XAXPCBVV31VX1O&tp_b=3Z4AIRP3C7ZJI684XAXPCBVV31VX1O&c=365799&tp_c=365799","heads":5,"tails":0,"studentIndex":10,"studentTrueHypers":{"a":1,"b":4},"studentGuess":0.6,"delta":0.20000000000000007,"totalExamples":5,"bonusSoFar":0.42},{"rt":3970,"response":{"heads":"8","tails":"0"},"type":"response","condition":"seqFeedback","trueTheta":0.8,"classrooms":["A","B"],"studentTrueClassroom":"A","exampleSet":"second","trial_type":"survey-html-form","trial_index":92,"time_elapsed":833644,"internal_node_id":"0.0-91.0-0.0","params":{"nStudents":24,"maxFlips":30,"completionMinutes":45,"basePay":8,"maxBonus":9,"perTrialBonus":0.5,"perTrialBonusThreshold":0.05,"exampleCost":0.01},"classroomParams":{"A":{"a":1,"b":4},"B":{"a":4,"b":1},"C":{"a":2,"b":8},"D":{"a":8,"b":2}},"conditions":["nonSeqFull","nonSeqPartial","seqNoFeedback","seqFeedback"],"classroomPairings":[["A","B"],["C","D"]],"coinWeights":[0.2,0.5,0.8],"subjectId":"A3CGQOJC28OVGN","assignmentId":"3Z4AIRP3C7ZJI684XAXPCBVV31VX1O","hitId":"3Z3R5YC0P3915KVY8X6BNRIWSQNFTT","url":"https://gershmanlab.com/experiments/alicia/teaching/experiment/?hitId=3Z3R5YC0P3915KVY8X6BNRIWSQNFTT&workerId=A3CGQOJC28OVGN&assignmentId=3Z4AIRP3C7ZJI684XAXPCBVV31VX1O&a=3I4Z9&tp_a=3I4Z9&b=3Z4AIRP3C7ZJI684XAXPCBVV31VX1O&tp_b=3Z4AIRP3C7ZJI684XAXPCBVV31VX1O&c=365799&tp_c=365799","firstResponseHeads":5,"firstResponseTails":0,"secondResponseHeads":8,"secondResponseTails":0,"totalHeads":13,"totalTails":0,"studentIndex":10,"studentTrueHypers":{"a":1,"b":4},"studentGuess":0.7777777777777778,"delta":0.022222222222222254,"bonus":0.37,"bonusSoFar":0.79,"totalExamples":13},{"rt":2887,"response":{"heads":"0","tails":"5"},"type":"response","condition":"seqFeedback","trueTheta":0.2,"classrooms":["A","B"],"studentTrueClassroom":"B","exampleSet":"first","trial_type":"survey-html-form","trial_index":98,"time_elapsed":851895,"internal_node_id":"0.0-97.0-0.0","params":{"nStudents":24,"maxFlips":30,"completionMinutes":45,"basePay":8,"maxBonus":9,"perTrialBonus":0.5,"perTrialBonusThreshold":0.05,"exampleCost":0.01},"classroomParams":{"A":{"a":1,"b":4},"B":{"a":4,"b":1},"C":{"a":2,"b":8},"D":{"a":8,"b":2}},"conditions":["nonSeqFull","nonSeqPartial","seqNoFeedback","seqFeedback"],"classroomPairings":[["A","B"],["C","D"]],"coinWeights":[0.2,0.5,0.8],"subjectId":"A3CGQOJC28OVGN","assignmentId":"3Z4AIRP3C7ZJI684XAXPCBVV31VX1O","hitId":"3Z3R5YC0P3915KVY8X6BNRIWSQNFTT","url":"https://gershmanlab.com/experiments/alicia/teaching/experiment/?hitId=3Z3R5YC0P3915KVY8X6BNRIWSQNFTT&workerId=A3CGQOJC28OVGN&assignmentId=3Z4AIRP3C7ZJI684XAXPCBVV31VX1O&a=3I4Z9&tp_a=3I4Z9&b=3Z4AIRP3C7ZJI684XAXPCBVV31VX1O&tp_b=3Z4AIRP3C7ZJI684XAXPCBVV31VX1O&c=365799&tp_c=365799","heads":0,"tails":5,"studentIndex":11,"studentTrueHypers":{"a":4,"b":1},"studentGuess":0.4,"delta":0.2,"totalExamples":5,"bonusSoFar":0.79},{"rt":7085,"response":{"heads":"0","tails":"10"},"type":"response","condition":"seqFeedback","trueTheta":0.2,"classrooms":["A","B"],"studentTrueClassroom":"B","exampleSet":"second","trial_type":"survey-html-form","trial_index":102,"time_elapsed":871093,"internal_node_id":"0.0-101.0-0.0","params":{"nStudents":24,"maxFlips":30,"completionMinutes":45,"basePay":8,"maxBonus":9,"perTrialBonus":0.5,"perTrialBonusThreshold":0.05,"exampleCost":0.01},"classroomParams":{"A":{"a":1,"b":4},"B":{"a":4,"b":1},"C":{"a":2,"b":8},"D":{"a":8,"b":2}},"conditions":["nonSeqFull","nonSeqPartial","seqNoFeedback","seqFeedback"],"classroomPairings":[["A","B"],["C","D"]],"coinWeights":[0.2,0.5,0.8],"subjectId":"A3CGQOJC28OVGN","assignmentId":"3Z4AIRP3C7ZJI684XAXPCBVV31VX1O","hitId":"3Z3R5YC0P3915KVY8X6BNRIWSQNFTT","url":"https://gershmanlab.com/experiments/alicia/teaching/experiment/?hitId=3Z3R5YC0P3915KVY8X6BNRIWSQNFTT&workerId=A3CGQOJC28OVGN&assignmentId=3Z4AIRP3C7ZJI684XAXPCBVV31VX1O&a=3I4Z9&tp_a=3I4Z9&b=3Z4AIRP3C7ZJI684XAXPCBVV31VX1O&tp_b=3Z4AIRP3C7ZJI684XAXPCBVV31VX1O&c=365799&tp_c=365799","firstResponseHeads":0,"firstResponseTails":5,"secondResponseHeads":0,"secondResponseTails":10,"totalHeads":0,"totalTails":15,"studentIndex":11,"studentTrueHypers":{"a":4,"b":1},"studentGuess":0.2,"delta":0,"bonus":0.35,"bonusSoFar":1.14,"totalExamples":15},{"rt":15951,"response":{"heads":"6","tails":"3"},"type":"response","condition":"nonSeqFull","trueTheta":0.5,"classrooms":["C","D"],"studentTrueClassroom":"C","exampleSet":"first","trial_type":"survey-html-form","trial_index":108,"time_elapsed":900702,"internal_node_id":"0.0-107.0-0.0","params":{"nStudents":24,"maxFlips":30,"completionMinutes":45,"basePay":8,"maxBonus":9,"perTrialBonus":0.5,"perTrialBonusThreshold":0.05,"exampleCost":0.01},"classroomParams":{"A":{"a":1,"b":4},"B":{"a":4,"b":1},"C":{"a":2,"b":8},"D":{"a":8,"b":2}},"conditions":["nonSeqFull","nonSeqPartial","seqNoFeedback","seqFeedback"],"classroomPairings":[["A","B"],["C","D"]],"coinWeights":[0.2,0.5,0.8],"subjectId":"A3CGQOJC28OVGN","assignmentId":"3Z4AIRP3C7ZJI684XAXPCBVV31VX1O","hitId":"3Z3R5YC0P3915KVY8X6BNRIWSQNFTT","url":"https://gershmanlab.com/experiments/alicia/teaching/experiment/?hitId=3Z3R5YC0P3915KVY8X6BNRIWSQNFTT&workerId=A3CGQOJC28OVGN&assignmentId=3Z4AIRP3C7ZJI684XAXPCBVV31VX1O&a=3I4Z9&tp_a=3I4Z9&b=3Z4AIRP3C7ZJI684XAXPCBVV31VX1O&tp_b=3Z4AIRP3C7ZJI684XAXPCBVV31VX1O&c=365799&tp_c=365799","heads":6,"tails":3,"studentIndex":12,"studentTrueHypers":{"a":2,"b":8},"studentGuess":0.42105263157894735,"delta":0.07894736842105265,"totalExamples":9,"bonus":0,"bonusSoFar":1.14},{"rt":7976,"response":{"heads":"8","tails":"0"},"type":"response","condition":"nonSeqFull","trueTheta":0.8,"classrooms":["A","B"],"studentTrueClassroom":"B","exampleSet":"first","trial_type":"survey-html-form","trial_index":114,"time_elapsed":921510,"internal_node_id":"0.0-113.0-0.0","params":{"nStudents":24,"maxFlips":30,"completionMinutes":45,"basePay":8,"maxBonus":9,"perTrialBonus":0.5,"perTrialBonusThreshold":0.05,"exampleCost":0.01},"classroomParams":{"A":{"a":1,"b":4},"B":{"a":4,"b":1},"C":{"a":2,"b":8},"D":{"a":8,"b":2}},"conditions":["nonSeqFull","nonSeqPartial","seqNoFeedback","seqFeedback"],"classroomPairings":[["A","B"],["C","D"]],"coinWeights":[0.2,0.5,0.8],"subjectId":"A3CGQOJC28OVGN","assignmentId":"3Z4AIRP3C7ZJI684XAXPCBVV31VX1O","hitId":"3Z3R5YC0P3915KVY8X6BNRIWSQNFTT","url":"https://gershmanlab.com/experiments/alicia/teaching/experiment/?hitId=3Z3R5YC0P3915KVY8X6BNRIWSQNFTT&workerId=A3CGQOJC28OVGN&assignmentId=3Z4AIRP3C7ZJI684XAXPCBVV31VX1O&a=3I4Z9&tp_a=3I4Z9&b=3Z4AIRP3C7ZJI684XAXPCBVV31VX1O&tp_b=3Z4AIRP3C7ZJI684XAXPCBVV31VX1O&c=365799&tp_c=365799","heads":8,"tails":0,"studentIndex":13,"studentTrueHypers":{"a":4,"b":1},"studentGuess":0.9230769230769231,"delta":0.12307692307692308,"totalExamples":8,"bonus":0,"bonusSoFar":1.14},{"rt":5419,"response":{"heads":"4","tails":"1"},"type":"response","condition":"seqNoFeedback","trueTheta":0.8,"classrooms":["A","B"],"studentTrueClassroom":"B","exampleSet":"first","trial_type":"survey-html-form","trial_index":120,"time_elapsed":941430,"internal_node_id":"0.0-119.0-0.0","params":{"nStudents":24,"maxFlips":30,"completionMinutes":45,"basePay":8,"maxBonus":9,"perTrialBonus":0.5,"perTrialBonusThreshold":0.05,"exampleCost":0.01},"classroomParams":{"A":{"a":1,"b":4},"B":{"a":4,"b":1},"C":{"a":2,"b":8},"D":{"a":8,"b":2}},"conditions":["nonSeqFull","nonSeqPartial","seqNoFeedback","seqFeedback"],"classroomPairings":[["A","B"],["C","D"]],"coinWeights":[0.2,0.5,0.8],"subjectId":"A3CGQOJC28OVGN","assignmentId":"3Z4AIRP3C7ZJI684XAXPCBVV31VX1O","hitId":"3Z3R5YC0P3915KVY8X6BNRIWSQNFTT","url":"https://gershmanlab.com/experiments/alicia/teaching/experiment/?hitId=3Z3R5YC0P3915KVY8X6BNRIWSQNFTT&workerId=A3CGQOJC28OVGN&assignmentId=3Z4AIRP3C7ZJI684XAXPCBVV31VX1O&a=3I4Z9&tp_a=3I4Z9&b=3Z4AIRP3C7ZJI684XAXPCBVV31VX1O&tp_b=3Z4AIRP3C7ZJI684XAXPCBVV31VX1O&c=365799&tp_c=365799","heads":4,"tails":1,"studentIndex":14,"studentTrueHypers":{"a":4,"b":1},"studentGuess":0.8,"delta":0,"totalExamples":5,"bonusSoFar":1.14},{"rt":7317,"response":{"heads":"5","tails":"1"},"type":"response","condition":"seqNoFeedback","trueTheta":0.8,"classrooms":["A","B"],"studentTrueClassroom":"B","exampleSet":"second","trial_type":"survey-html-form","trial_index":123,"time_elapsed":955012,"internal_node_id":"0.0-122.0-0.0","params":{"nStudents":24,"maxFlips":30,"completionMinutes":45,"basePay":8,"maxBonus":9,"perTrialBonus":0.5,"perTrialBonusThreshold":0.05,"exampleCost":0.01},"classroomParams":{"A":{"a":1,"b":4},"B":{"a":4,"b":1},"C":{"a":2,"b":8},"D":{"a":8,"b":2}},"conditions":["nonSeqFull","nonSeqPartial","seqNoFeedback","seqFeedback"],"classroomPairings":[["A","B"],["C","D"]],"coinWeights":[0.2,0.5,0.8],"subjectId":"A3CGQOJC28OVGN","assignmentId":"3Z4AIRP3C7ZJI684XAXPCBVV31VX1O","hitId":"3Z3R5YC0P3915KVY8X6BNRIWSQNFTT","url":"https://gershmanlab.com/experiments/alicia/teaching/experiment/?hitId=3Z3R5YC0P3915KVY8X6BNRIWSQNFTT&workerId=A3CGQOJC28OVGN&assignmentId=3Z4AIRP3C7ZJI684XAXPCBVV31VX1O&a=3I4Z9&tp_a=3I4Z9&b=3Z4AIRP3C7ZJI684XAXPCBVV31VX1O&tp_b=3Z4AIRP3C7ZJI684XAXPCBVV31VX1O&c=365799&tp_c=365799","firstResponseHeads":4,"firstResponseTails":1,"secondResponseHeads":5,"secondResponseTails":1,"totalHeads":9,"totalTails":2,"studentIndex":14,"studentTrueHypers":{"a":4,"b":1},"studentGuess":0.8125,"delta":0.012499999999999956,"bonus":0.39,"bonusSoFar":1.53,"totalExamples":11},{"rt":4001,"response":{"heads":"5","tails":"0"},"type":"response","condition":"nonSeqPartial","trueTheta":0.8,"classrooms":["C","D"],"studentTrueClassroom":"D","exampleSet":"first","trial_type":"survey-html-form","trial_index":129,"time_elapsed":998975,"internal_node_id":"0.0-128.0-0.0","params":{"nStudents":24,"maxFlips":30,"completionMinutes":45,"basePay":8,"maxBonus":9,"perTrialBonus":0.5,"perTrialBonusThreshold":0.05,"exampleCost":0.01},"classroomParams":{"A":{"a":1,"b":4},"B":{"a":4,"b":1},"C":{"a":2,"b":8},"D":{"a":8,"b":2}},"conditions":["nonSeqFull","nonSeqPartial","seqNoFeedback","seqFeedback"],"classroomPairings":[["A","B"],["C","D"]],"coinWeights":[0.2,0.5,0.8],"subjectId":"A3CGQOJC28OVGN","assignmentId":"3Z4AIRP3C7ZJI684XAXPCBVV31VX1O","hitId":"3Z3R5YC0P3915KVY8X6BNRIWSQNFTT","url":"https://gershmanlab.com/experiments/alicia/teaching/experiment/?hitId=3Z3R5YC0P3915KVY8X6BNRIWSQNFTT&workerId=A3CGQOJC28OVGN&assignmentId=3Z4AIRP3C7ZJI684XAXPCBVV31VX1O&a=3I4Z9&tp_a=3I4Z9&b=3Z4AIRP3C7ZJI684XAXPCBVV31VX1O&tp_b=3Z4AIRP3C7ZJI684XAXPCBVV31VX1O&c=365799&tp_c=365799","heads":5,"tails":0,"studentIndex":15,"studentTrueHypers":{"a":8,"b":2},"studentGuess":0.8666666666666667,"delta":0.06666666666666665,"totalExamples":5,"bonus":0,"bonusSoFar":1.53},{"rt":10065,"response":{"heads":"2","tails":"2"},"type":"response","condition":"seqNoFeedback","trueTheta":0.5,"classrooms":["A","B"],"studentTrueClassroom":"A","exampleSet":"first","trial_type":"survey-html-form","trial_index":135,"time_elapsed":1027912,"internal_node_id":"0.0-134.0-0.0","params":{"nStudents":24,"maxFlips":30,"completionMinutes":45,"basePay":8,"maxBonus":9,"perTrialBonus":0.5,"perTrialBonusThreshold":0.05,"exampleCost":0.01},"classroomParams":{"A":{"a":1,"b":4},"B":{"a":4,"b":1},"C":{"a":2,"b":8},"D":{"a":8,"b":2}},"conditions":["nonSeqFull","nonSeqPartial","seqNoFeedback","seqFeedback"],"classroomPairings":[["A","B"],["C","D"]],"coinWeights":[0.2,0.5,0.8],"subjectId":"A3CGQOJC28OVGN","assignmentId":"3Z4AIRP3C7ZJI684XAXPCBVV31VX1O","hitId":"3Z3R5YC0P3915KVY8X6BNRIWSQNFTT","url":"https://gershmanlab.com/experiments/alicia/teaching/experiment/?hitId=3Z3R5YC0P3915KVY8X6BNRIWSQNFTT&workerId=A3CGQOJC28OVGN&assignmentId=3Z4AIRP3C7ZJI684XAXPCBVV31VX1O&a=3I4Z9&tp_a=3I4Z9&b=3Z4AIRP3C7ZJI684XAXPCBVV31VX1O&tp_b=3Z4AIRP3C7ZJI684XAXPCBVV31VX1O&c=365799&tp_c=365799","heads":2,"tails":2,"studentIndex":16,"studentTrueHypers":{"a":1,"b":4},"studentGuess":0.3333333333333333,"delta":0.16666666666666669,"totalExamples":4,"bonusSoFar":1.53},{"rt":9375,"response":{"heads":"7","tails":"7"},"type":"response","condition":"seqNoFeedback","trueTheta":0.5,"classrooms":["A","B"],"studentTrueClassroom":"A","exampleSet":"second","trial_type":"survey-html-form","trial_index":138,"time_elapsed":1043797,"internal_node_id":"0.0-137.0-0.0","params":{"nStudents":24,"maxFlips":30,"completionMinutes":45,"basePay":8,"maxBonus":9,"perTrialBonus":0.5,"perTrialBonusThreshold":0.05,"exampleCost":0.01},"classroomParams":{"A":{"a":1,"b":4},"B":{"a":4,"b":1},"C":{"a":2,"b":8},"D":{"a":8,"b":2}},"conditions":["nonSeqFull","nonSeqPartial","seqNoFeedback","seqFeedback"],"classroomPairings":[["A","B"],["C","D"]],"coinWeights":[0.2,0.5,0.8],"subjectId":"A3CGQOJC28OVGN","assignmentId":"3Z4AIRP3C7ZJI684XAXPCBVV31VX1O","hitId":"3Z3R5YC0P3915KVY8X6BNRIWSQNFTT","url":"https://gershmanlab.com/experiments/alicia/teaching/experiment/?hitId=3Z3R5YC0P3915KVY8X6BNRIWSQNFTT&workerId=A3CGQOJC28OVGN&assignmentId=3Z4AIRP3C7ZJI684XAXPCBVV31VX1O&a=3I4Z9&tp_a=3I4Z9&b=3Z4AIRP3C7ZJI684XAXPCBVV31VX1O&tp_b=3Z4AIRP3C7ZJI684XAXPCBVV31VX1O&c=365799&tp_c=365799","firstResponseHeads":2,"firstResponseTails":2,"secondResponseHeads":7,"secondResponseTails":7,"totalHeads":9,"totalTails":9,"studentIndex":16,"studentTrueHypers":{"a":1,"b":4},"studentGuess":0.43478260869565216,"delta":0.06521739130434784,"bonus":0,"bonusSoFar":1.53,"totalExamples":18},{"rt":8987,"response":{"heads":"9","tails":"9"},"type":"response","condition":"nonSeqPartial","trueTheta":0.5,"classrooms":["C","D"],"studentTrueClassroom":"D","exampleSet":"first","trial_type":"survey-html-form","trial_index":144,"time_elapsed":1064204,"internal_node_id":"0.0-143.0-0.0","params":{"nStudents":24,"maxFlips":30,"completionMinutes":45,"basePay":8,"maxBonus":9,"perTrialBonus":0.5,"perTrialBonusThreshold":0.05,"exampleCost":0.01},"classroomParams":{"A":{"a":1,"b":4},"B":{"a":4,"b":1},"C":{"a":2,"b":8},"D":{"a":8,"b":2}},"conditions":["nonSeqFull","nonSeqPartial","seqNoFeedback","seqFeedback"],"classroomPairings":[["A","B"],["C","D"]],"coinWeights":[0.2,0.5,0.8],"subjectId":"A3CGQOJC28OVGN","assignmentId":"3Z4AIRP3C7ZJI684XAXPCBVV31VX1O","hitId":"3Z3R5YC0P3915KVY8X6BNRIWSQNFTT","url":"https://gershmanlab.com/experiments/alicia/teaching/experiment/?hitId=3Z3R5YC0P3915KVY8X6BNRIWSQNFTT&workerId=A3CGQOJC28OVGN&assignmentId=3Z4AIRP3C7ZJI684XAXPCBVV31VX1O&a=3I4Z9&tp_a=3I4Z9&b=3Z4AIRP3C7ZJI684XAXPCBVV31VX1O&tp_b=3Z4AIRP3C7ZJI684XAXPCBVV31VX1O&c=365799&tp_c=365799","heads":9,"tails":9,"studentIndex":17,"studentTrueHypers":{"a":8,"b":2},"studentGuess":0.6071428571428571,"delta":0.1071428571428571,"totalExamples":18,"bonus":0,"bonusSoFar":1.53},{"rt":8515,"response":{"heads":"7","tails":"8"},"type":"response","condition":"seqNoFeedback","trueTheta":0.5,"classrooms":["C","D"],"studentTrueClassroom":"C","exampleSet":"first","trial_type":"survey-html-form","trial_index":150,"time_elapsed":1084887,"internal_node_id":"0.0-149.0-0.0","params":{"nStudents":24,"maxFlips":30,"completionMinutes":45,"basePay":8,"maxBonus":9,"perTrialBonus":0.5,"perTrialBonusThreshold":0.05,"exampleCost":0.01},"classroomParams":{"A":{"a":1,"b":4},"B":{"a":4,"b":1},"C":{"a":2,"b":8},"D":{"a":8,"b":2}},"conditions":["nonSeqFull","nonSeqPartial","seqNoFeedback","seqFeedback"],"classroomPairings":[["A","B"],["C","D"]],"coinWeights":[0.2,0.5,0.8],"subjectId":"A3CGQOJC28OVGN","assignmentId":"3Z4AIRP3C7ZJI684XAXPCBVV31VX1O","hitId":"3Z3R5YC0P3915KVY8X6BNRIWSQNFTT","url":"https://gershmanlab.com/experiments/alicia/teaching/experiment/?hitId=3Z3R5YC0P3915KVY8X6BNRIWSQNFTT&workerId=A3CGQOJC28OVGN&assignmentId=3Z4AIRP3C7ZJI684XAXPCBVV31VX1O&a=3I4Z9&tp_a=3I4Z9&b=3Z4AIRP3C7ZJI684XAXPCBVV31VX1O&tp_b=3Z4AIRP3C7ZJI684XAXPCBVV31VX1O&c=365799&tp_c=365799","heads":7,"tails":8,"studentIndex":18,"studentTrueHypers":{"a":2,"b":8},"studentGuess":0.36,"delta":0.14,"totalExamples":15,"bonusSoFar":1.53},{"rt":8184,"response":{"heads":"8","tails":"8"},"type":"response","condition":"seqNoFeedback","trueTheta":0.5,"classrooms":["C","D"],"studentTrueClassroom":"C","exampleSet":"second","trial_type":"survey-html-form","trial_index":153,"time_elapsed":1100831,"internal_node_id":"0.0-152.0-0.0","params":{"nStudents":24,"maxFlips":30,"completionMinutes":45,"basePay":8,"maxBonus":9,"perTrialBonus":0.5,"perTrialBonusThreshold":0.05,"exampleCost":0.01},"classroomParams":{"A":{"a":1,"b":4},"B":{"a":4,"b":1},"C":{"a":2,"b":8},"D":{"a":8,"b":2}},"conditions":["nonSeqFull","nonSeqPartial","seqNoFeedback","seqFeedback"],"classroomPairings":[["A","B"],["C","D"]],"coinWeights":[0.2,0.5,0.8],"subjectId":"A3CGQOJC28OVGN","assignmentId":"3Z4AIRP3C7ZJI684XAXPCBVV31VX1O","hitId":"3Z3R5YC0P3915KVY8X6BNRIWSQNFTT","url":"https://gershmanlab.com/experiments/alicia/teaching/experiment/?hitId=3Z3R5YC0P3915KVY8X6BNRIWSQNFTT&workerId=A3CGQOJC28OVGN&assignmentId=3Z4AIRP3C7ZJI684XAXPCBVV31VX1O&a=3I4Z9&tp_a=3I4Z9&b=3Z4AIRP3C7ZJI684XAXPCBVV31VX1O&tp_b=3Z4AIRP3C7ZJI684XAXPCBVV31VX1O&c=365799&tp_c=365799","firstResponseHeads":7,"firstResponseTails":8,"secondResponseHeads":8,"secondResponseTails":8,"totalHeads":15,"totalTails":16,"studentIndex":18,"studentTrueHypers":{"a":2,"b":8},"studentGuess":0.4146341463414634,"delta":0.0853658536585366,"bonus":0,"bonusSoFar":1.53,"totalExamples":31},{"rt":12089,"response":{"heads":"2","tails":"8"},"type":"response","condition":"nonSeqPartial","trueTheta":0.2,"classrooms":["A","B"],"studentTrueClassroom":"B","exampleSet":"first","trial_type":"survey-html-form","trial_index":159,"time_elapsed":1127583,"internal_node_id":"0.0-158.0-0.0","params":{"nStudents":24,"maxFlips":30,"completionMinutes":45,"basePay":8,"maxBonus":9,"perTrialBonus":0.5,"perTrialBonusThreshold":0.05,"exampleCost":0.01},"classroomParams":{"A":{"a":1,"b":4},"B":{"a":4,"b":1},"C":{"a":2,"b":8},"D":{"a":8,"b":2}},"conditions":["nonSeqFull","nonSeqPartial","seqNoFeedback","seqFeedback"],"classroomPairings":[["A","B"],["C","D"]],"coinWeights":[0.2,0.5,0.8],"subjectId":"A3CGQOJC28OVGN","assignmentId":"3Z4AIRP3C7ZJI684XAXPCBVV31VX1O","hitId":"3Z3R5YC0P3915KVY8X6BNRIWSQNFTT","url":"https://gershmanlab.com/experiments/alicia/teaching/experiment/?hitId=3Z3R5YC0P3915KVY8X6BNRIWSQNFTT&workerId=A3CGQOJC28OVGN&assignmentId=3Z4AIRP3C7ZJI684XAXPCBVV31VX1O&a=3I4Z9&tp_a=3I4Z9&b=3Z4AIRP3C7ZJI684XAXPCBVV31VX1O&tp_b=3Z4AIRP3C7ZJI684XAXPCBVV31VX1O&c=365799&tp_c=365799","heads":2,"tails":8,"studentIndex":19,"studentTrueHypers":{"a":4,"b":1},"studentGuess":0.4,"delta":0.2,"totalExamples":10,"bonus":0,"bonusSoFar":1.53},{"rt":652989,"response":{"heads":"2","tails":"10"},"type":"response","condition":"nonSeqPartial","trueTheta":0.2,"classrooms":["C","D"],"studentTrueClassroom":"C","exampleSet":"first","trial_type":"survey-html-form","trial_index":165,"time_elapsed":1792967,"internal_node_id":"0.0-164.0-0.0","params":{"nStudents":24,"maxFlips":30,"completionMinutes":45,"basePay":8,"maxBonus":9,"perTrialBonus":0.5,"perTrialBonusThreshold":0.05,"exampleCost":0.01},"classroomParams":{"A":{"a":1,"b":4},"B":{"a":4,"b":1},"C":{"a":2,"b":8},"D":{"a":8,"b":2}},"conditions":["nonSeqFull","nonSeqPartial","seqNoFeedback","seqFeedback"],"classroomPairings":[["A","B"],["C","D"]],"coinWeights":[0.2,0.5,0.8],"subjectId":"A3CGQOJC28OVGN","assignmentId":"3Z4AIRP3C7ZJI684XAXPCBVV31VX1O","hitId":"3Z3R5YC0P3915KVY8X6BNRIWSQNFTT","url":"https://gershmanlab.com/experiments/alicia/teaching/experiment/?hitId=3Z3R5YC0P3915KVY8X6BNRIWSQNFTT&workerId=A3CGQOJC28OVGN&assignmentId=3Z4AIRP3C7ZJI684XAXPCBVV31VX1O&a=3I4Z9&tp_a=3I4Z9&b=3Z4AIRP3C7ZJI684XAXPCBVV31VX1O&tp_b=3Z4AIRP3C7ZJI684XAXPCBVV31VX1O&c=365799&tp_c=365799","heads":2,"tails":10,"studentIndex":20,"studentTrueHypers":{"a":2,"b":8},"studentGuess":0.18181818181818182,"delta":0.018181818181818188,"totalExamples":12,"bonus":0.38,"bonusSoFar":1.91},{"rt":6309,"response":{"heads":"8","tails":"1"},"type":"response","condition":"nonSeqPartial","trueTheta":0.8,"classrooms":["A","B"],"studentTrueClassroom":"B","exampleSet":"first","trial_type":"survey-html-form","trial_index":171,"time_elapsed":1818518,"internal_node_id":"0.0-170.0-0.0","params":{"nStudents":24,"maxFlips":30,"completionMinutes":45,"basePay":8,"maxBonus":9,"perTrialBonus":0.5,"perTrialBonusThreshold":0.05,"exampleCost":0.01},"classroomParams":{"A":{"a":1,"b":4},"B":{"a":4,"b":1},"C":{"a":2,"b":8},"D":{"a":8,"b":2}},"conditions":["nonSeqFull","nonSeqPartial","seqNoFeedback","seqFeedback"],"classroomPairings":[["A","B"],["C","D"]],"coinWeights":[0.2,0.5,0.8],"subjectId":"A3CGQOJC28OVGN","assignmentId":"3Z4AIRP3C7ZJI684XAXPCBVV31VX1O","hitId":"3Z3R5YC0P3915KVY8X6BNRIWSQNFTT","url":"https://gershmanlab.com/experiments/alicia/teaching/experiment/?hitId=3Z3R5YC0P3915KVY8X6BNRIWSQNFTT&workerId=A3CGQOJC28OVGN&assignmentId=3Z4AIRP3C7ZJI684XAXPCBVV31VX1O&a=3I4Z9&tp_a=3I4Z9&b=3Z4AIRP3C7ZJI684XAXPCBVV31VX1O&tp_b=3Z4AIRP3C7ZJI684XAXPCBVV31VX1O&c=365799&tp_c=365799","heads":8,"tails":1,"studentIndex":21,"studentTrueHypers":{"a":4,"b":1},"studentGuess":0.8571428571428571,"delta":0.05714285714285705,"totalExamples":9,"bonus":0,"bonusSoFar":1.91},{"rt":5155,"response":{"heads":"3","tails":"3"},"type":"response","condition":"seqFeedback","trueTheta":0.5,"classrooms":["A","B"],"studentTrueClassroom":"A","exampleSet":"first","trial_type":"survey-html-form","trial_index":177,"time_elapsed":1836008,"internal_node_id":"0.0-176.0-0.0","params":{"nStudents":24,"maxFlips":30,"completionMinutes":45,"basePay":8,"maxBonus":9,"perTrialBonus":0.5,"perTrialBonusThreshold":0.05,"exampleCost":0.01},"classroomParams":{"A":{"a":1,"b":4},"B":{"a":4,"b":1},"C":{"a":2,"b":8},"D":{"a":8,"b":2}},"conditions":["nonSeqFull","nonSeqPartial","seqNoFeedback","seqFeedback"],"classroomPairings":[["A","B"],["C","D"]],"coinWeights":[0.2,0.5,0.8],"subjectId":"A3CGQOJC28OVGN","assignmentId":"3Z4AIRP3C7ZJI684XAXPCBVV31VX1O","hitId":"3Z3R5YC0P3915KVY8X6BNRIWSQNFTT","url":"https://gershmanlab.com/experiments/alicia/teaching/experiment/?hitId=3Z3R5YC0P3915KVY8X6BNRIWSQNFTT&workerId=A3CGQOJC28OVGN&assignmentId=3Z4AIRP3C7ZJI684XAXPCBVV31VX1O&a=3I4Z9&tp_a=3I4Z9&b=3Z4AIRP3C7ZJI684XAXPCBVV31VX1O&tp_b=3Z4AIRP3C7ZJI684XAXPCBVV31VX1O&c=365799&tp_c=365799","heads":3,"tails":3,"studentIndex":22,"studentTrueHypers":{"a":1,"b":4},"studentGuess":0.36363636363636365,"delta":0.13636363636363635,"totalExamples":6,"bonusSoFar":1.91},{"rt":18617,"response":{"heads":"4","tails":"0"},"type":"response","condition":"seqFeedback","trueTheta":0.5,"classrooms":["A","B"],"studentTrueClassroom":"A","exampleSet":"second","trial_type":"survey-html-form","trial_index":181,"time_elapsed":1867314,"internal_node_id":"0.0-180.0-0.0","params":{"nStudents":24,"maxFlips":30,"completionMinutes":45,"basePay":8,"maxBonus":9,"perTrialBonus":0.5,"perTrialBonusThreshold":0.05,"exampleCost":0.01},"classroomParams":{"A":{"a":1,"b":4},"B":{"a":4,"b":1},"C":{"a":2,"b":8},"D":{"a":8,"b":2}},"conditions":["nonSeqFull","nonSeqPartial","seqNoFeedback","seqFeedback"],"classroomPairings":[["A","B"],["C","D"]],"coinWeights":[0.2,0.5,0.8],"subjectId":"A3CGQOJC28OVGN","assignmentId":"3Z4AIRP3C7ZJI684XAXPCBVV31VX1O","hitId":"3Z3R5YC0P3915KVY8X6BNRIWSQNFTT","url":"https://gershmanlab.com/experiments/alicia/teaching/experiment/?hitId=3Z3R5YC0P3915KVY8X6BNRIWSQNFTT&workerId=A3CGQOJC28OVGN&assignmentId=3Z4AIRP3C7ZJI684XAXPCBVV31VX1O&a=3I4Z9&tp_a=3I4Z9&b=3Z4AIRP3C7ZJI684XAXPCBVV31VX1O&tp_b=3Z4AIRP3C7ZJI684XAXPCBVV31VX1O&c=365799&tp_c=365799","firstResponseHeads":3,"firstResponseTails":3,"secondResponseHeads":4,"secondResponseTails":0,"totalHeads":7,"totalTails":3,"studentIndex":22,"studentTrueHypers":{"a":1,"b":4},"studentGuess":0.5333333333333333,"delta":0.033333333333333326,"bonus":0.4,"bonusSoFar":2.31,"totalExamples":10},{"rt":6465,"response":{"heads":"3","tails":"0"},"type":"response","condition":"nonSeqFull","trueTheta":0.5,"classrooms":["A","B"],"studentTrueClassroom":"A","exampleSet":"first","trial_type":"survey-html-form","trial_index":187,"time_elapsed":1886326,"internal_node_id":"0.0-186.0-0.0","params":{"nStudents":24,"maxFlips":30,"completionMinutes":45,"basePay":8,"maxBonus":9,"perTrialBonus":0.5,"perTrialBonusThreshold":0.05,"exampleCost":0.01},"classroomParams":{"A":{"a":1,"b":4},"B":{"a":4,"b":1},"C":{"a":2,"b":8},"D":{"a":8,"b":2}},"conditions":["nonSeqFull","nonSeqPartial","seqNoFeedback","seqFeedback"],"classroomPairings":[["A","B"],["C","D"]],"coinWeights":[0.2,0.5,0.8],"subjectId":"A3CGQOJC28OVGN","assignmentId":"3Z4AIRP3C7ZJI684XAXPCBVV31VX1O","hitId":"3Z3R5YC0P3915KVY8X6BNRIWSQNFTT","url":"https://gershmanlab.com/experiments/alicia/teaching/experiment/?hitId=3Z3R5YC0P3915KVY8X6BNRIWSQNFTT&workerId=A3CGQOJC28OVGN&assignmentId=3Z4AIRP3C7ZJI684XAXPCBVV31VX1O&a=3I4Z9&tp_a=3I4Z9&b=3Z4AIRP3C7ZJI684XAXPCBVV31VX1O&tp_b=3Z4AIRP3C7ZJI684XAXPCBVV31VX1O&c=365799&tp_c=365799","heads":3,"tails":0,"studentIndex":23,"studentTrueHypers":{"a":1,"b":4},"studentGuess":0.5,"delta":0,"totalExamples":3,"bonus":0.47,"bonusSoFar":2.78},{"rt":28208,"response":{"gender":"female","age":"31","understood":"yes","comments":"It took me forever to figiure out where the students guessing was coming from after I gave them examples"},"type":"response","trial_type":"survey-html-form","trial_index":191,"time_elapsed":1923364,"internal_node_id":"0.0-191.0","params":{"nStudents":24,"maxFlips":30,"completionMinutes":45,"basePay":8,"maxBonus":9,"perTrialBonus":0.5,"perTrialBonusThreshold":0.05,"exampleCost":0.01},"classroomParams":{"A":{"a":1,"b":4},"B":{"a":4,"b":1},"C":{"a":2,"b":8},"D":{"a":8,"b":2}},"conditions":["nonSeqFull","nonSeqPartial","seqNoFeedback","seqFeedback"],"classroomPairings":[["A","B"],["C","D"]],"coinWeights":[0.2,0.5,0.8],"subjectId":"A3CGQOJC28OVGN","assignmentId":"3Z4AIRP3C7ZJI684XAXPCBVV31VX1O","hitId":"3Z3R5YC0P3915KVY8X6BNRIWSQNFTT","url":"https://gershmanlab.com/experiments/alicia/teaching/experiment/?hitId=3Z3R5YC0P3915KVY8X6BNRIWSQNFTT&workerId=A3CGQOJC28OVGN&assignmentId=3Z4AIRP3C7ZJI684XAXPCBVV31VX1O&a=3I4Z9&tp_a=3I4Z9&b=3Z4AIRP3C7ZJI684XAXPCBVV31VX1O&tp_b=3Z4AIRP3C7ZJI684XAXPCBVV31VX1O&c=365799&tp_c=365799","totalBonus":2.78}]