[{"rt":46643,"response":{"heads":"2","tails":"8"},"type":"response","condition":"nonSeqPartial","trueTheta":0.2,"classrooms":["A","B"],"studentTrueClassroom":"A","exampleSet":"first","trial_type":"survey-html-form","trial_index":10,"time_elapsed":533957,"internal_node_id":"0.0-6.0-0.0","params":{"nStudents":24,"maxFlips":30,"completionMinutes":45,"basePay":8,"maxBonus":9,"perTrialBonus":0.5,"perTrialBonusThreshold":0.05,"exampleCost":0.01},"classroomParams":{"A":{"a":1,"b":4},"B":{"a":4,"b":1},"C":{"a":2,"b":8},"D":{"a":8,"b":2}},"conditions":["nonSeqFull","nonSeqPartial","seqNoFeedback","seqFeedback"],"classroomPairings":[["A","B"],["C","D"]],"coinWeights":[0.2,0.5,0.8],"subjectId":"A3E8SXH0BAYG85","assignmentId":"3YJ6NA41JC2L4EMH18TEMY5EVJMPJW","hitId":"32TZXEA1OL6QYKM0MXQIQH2ABHN14I","url":"https://gershmanlab.com/experiments/alicia/teaching/experiment/?hitId=32TZXEA1OL6QYKM0MXQIQH2ABHN14I&workerId=A3E8SXH0BAYG85&assignmentId=3YJ6NA41JC2L4EMH18TEMY5EVJMPJW&a=1NJY9&tp_a=1NJY9&b=3YJ6NA41JC2L4EMH18TEMY5EVJMPJW&tp_b=3YJ6NA41JC2L4EMH18TEMY5EVJMPJW&c=365799&tp_c=365799","heads":2,"tails":8,"studentIndex":0,"studentTrueHypers":{"a":1,"b":4},"studentGuess":0.2,"delta":0,"totalExamples":10,"bonus":0.4,"bonusSoFar":0.4},{"rt":6593,"response":{"heads":"5","tails":"5"},"type":"response","condition":"nonSeqPartial","trueTheta":0.5,"classrooms":["C","D"],"studentTrueClassroom":"D","exampleSet":"first","trial_type":"survey-html-form","trial_index":16,"time_elapsed":570713,"internal_node_id":"0.0-12.0-0.0","params":{"nStudents":24,"maxFlips":30,"completionMinutes":45,"basePay":8,"maxBonus":9,"perTrialBonus":0.5,"perTrialBonusThreshold":0.05,"exampleCost":0.01},"classroomParams":{"A":{"a":1,"b":4},"B":{"a":4,"b":1},"C":{"a":2,"b":8},"D":{"a":8,"b":2}},"conditions":["nonSeqFull","nonSeqPartial","seqNoFeedback","seqFeedback"],"classroomPairings":[["A","B"],["C","D"]],"coinWeights":[0.2,0.5,0.8],"subjectId":"A3E8SXH0BAYG85","assignmentId":"3YJ6NA41JC2L4EMH18TEMY5EVJMPJW","hitId":"32TZXEA1OL6QYKM0MXQIQH2ABHN14I","url":"https://gershmanlab.com/experiments/alicia/teaching/experiment/?hitId=32TZXEA1OL6QYKM0MXQIQH2ABHN14I&workerId=A3E8SXH0BAYG85&assignmentId=3YJ6NA41JC2L4EMH18TEMY5EVJMPJW&a=1NJY9&tp_a=1NJY9&b=3YJ6NA41JC2L4EMH18TEMY5EVJMPJW&tp_b=3YJ6NA41JC2L4EMH18TEMY5EVJMPJW&c=365799&tp_c=365799","heads":5,"tails":5,"studentIndex":1,"studentTrueHypers":{"a":8,"b":2},"studentGuess":0.65,"delta":0.15000000000000002,"totalExamples":10,"bonus":0,"bonusSoFar":0.4},{"rt":9857,"response":{"heads":"2","tails":"8"},"type":"response","condition":"nonSeqPartial","trueTheta":0.2,"classrooms":["C","D"],"studentTrueClassroom":"C","exampleSet":"first","trial_type":"survey-html-form","trial_index":22,"time_elapsed":596850,"internal_node_id":"0.0-18.0-0.0","params":{"nStudents":24,"maxFlips":30,"completionMinutes":45,"basePay":8,"maxBonus":9,"perTrialBonus":0.5,"perTrialBonusThreshold":0.05,"exampleCost":0.01},"classroomParams":{"A":{"a":1,"b":4},"B":{"a":4,"b":1},"C":{"a":2,"b":8},"D":{"a":8,"b":2}},"conditions":["nonSeqFull","nonSeqPartial","seqNoFeedback","seqFeedback"],"classroomPairings":[["A","B"],["C","D"]],"coinWeights":[0.2,0.5,0.8],"subjectId":"A3E8SXH0BAYG85","assignmentId":"3YJ6NA41JC2L4EMH18TEMY5EVJMPJW","hitId":"32TZXEA1OL6QYKM0MXQIQH2ABHN14I","url":"https://gershmanlab.com/experiments/alicia/teaching/experiment/?hitId=32TZXEA1OL6QYKM0MXQIQH2ABHN14I&workerId=A3E8SXH0BAYG85&assignmentId=3YJ6NA41JC2L4EMH18TEMY5EVJMPJW&a=1NJY9&tp_a=1NJY9&b=3YJ6NA41JC2L4EMH18TEMY5EVJMPJW&tp_b=3YJ6NA41JC2L4EMH18TEMY5EVJMPJW&c=365799&tp_c=365799","heads":2,"tails":8,"studentIndex":2,"studentTrueHypers":{"a":2,"b":8},"studentGuess":0.2,"delta":0,"totalExamples":10,"bonus":0.4,"bonusSoFar":0.8},{"rt":7201,"response":{"heads":"8","tails":"2"},"type":"response","condition":"seqNoFeedback","trueTheta":0.8,"classrooms":["C","D"],"studentTrueClassroom":"D","exampleSet":"first","trial_type":"survey-html-form","trial_index":28,"time_elapsed":618818,"internal_node_id":"0.0-24.0-0.0","params":{"nStudents":24,"maxFlips":30,"completionMinutes":45,"basePay":8,"maxBonus":9,"perTrialBonus":0.5,"perTrialBonusThreshold":0.05,"exampleCost":0.01},"classroomParams":{"A":{"a":1,"b":4},"B":{"a":4,"b":1},"C":{"a":2,"b":8},"D":{"a":8,"b":2}},"conditions":["nonSeqFull","nonSeqPartial","seqNoFeedback","seqFeedback"],"classroomPairings":[["A","B"],["C","D"]],"coinWeights":[0.2,0.5,0.8],"subjectId":"A3E8SXH0BAYG85","assignmentId":"3YJ6NA41JC2L4EMH18TEMY5EVJMPJW","hitId":"32TZXEA1OL6QYKM0MXQIQH2ABHN14I","url":"https://gershmanlab.com/experiments/alicia/teaching/experiment/?hitId=32TZXEA1OL6QYKM0MXQIQH2ABHN14I&workerId=A3E8SXH0BAYG85&assignmentId=3YJ6NA41JC2L4EMH18TEMY5EVJMPJW&a=1NJY9&tp_a=1NJY9&b=3YJ6NA41JC2L4EMH18TEMY5EVJMPJW&tp_b=3YJ6NA41JC2L4EMH18TEMY5EVJMPJW&c=365799&tp_c=365799","heads":8,"tails":2,"studentIndex":3,"studentTrueHypers":{"a":8,"b":2},"studentGuess":0.8,"delta":0,"totalExamples":10,"bonusSoFar":0.8},{"rt":17997,"response":{"heads":"8","tails":"2"},"type":"response","condition":"seqNoFeedback","trueTheta":0.8,"classrooms":["C","D"],"studentTrueClassroom":"D","exampleSet":"second","trial_type":"survey-html-form","trial_index":31,"time_elapsed":642340,"internal_node_id":"0.0-27.0-0.0","params":{"nStudents":24,"maxFlips":30,"completionMinutes":45,"basePay":8,"maxBonus":9,"perTrialBonus":0.5,"perTrialBonusThreshold":0.05,"exampleCost":0.01},"classroomParams":{"A":{"a":1,"b":4},"B":{"a":4,"b":1},"C":{"a":2,"b":8},"D":{"a":8,"b":2}},"conditions":["nonSeqFull","nonSeqPartial","seqNoFeedback","seqFeedback"],"classroomPairings":[["A","B"],["C","D"]],"coinWeights":[0.2,0.5,0.8],"subjectId":"A3E8SXH0BAYG85","assignmentId":"3YJ6NA41JC2L4EMH18TEMY5EVJMPJW","hitId":"32TZXEA1OL6QYKM0MXQIQH2ABHN14I","url":"https://gershmanlab.com/experiments/alicia/teaching/experiment/?hitId=32TZXEA1OL6QYKM0MXQIQH2ABHN14I&workerId=A3E8SXH0BAYG85&assignmentId=3YJ6NA41JC2L4EMH18TEMY5EVJMPJW&a=1NJY9&tp_a=1NJY9&b=3YJ6NA41JC2L4EMH18TEMY5EVJMPJW&tp_b=3YJ6NA41JC2L4EMH18TEMY5EVJMPJW&c=365799&tp_c=365799","firstResponseHeads":8,"firstResponseTails":2,"secondResponseHeads":8,"secondResponseTails":2,"totalHeads":16,"totalTails":4,"studentIndex":3,"studentTrueHypers":{"a":8,"b":2},"studentGuess":0.8,"delta":0,"bonus":0.3,"bonusSoFar":1.1,"totalExamples":20},{"rt":18083,"response":{"heads":"8","tails":"2"},"type":"response","condition":"nonSeqFull","trueTheta":0.8,"classrooms":["A","B"],"studentTrueClassroom":"A","exampleSet":"first","trial_type":"survey-html-form","trial_index":37,"time_elapsed":676806,"internal_node_id":"0.0-33.0-0.0","params":{"nStudents":24,"maxFlips":30,"completionMinutes":45,"basePay":8,"maxBonus":9,"perTrialBonus":0.5,"perTrialBonusThreshold":0.05,"exampleCost":0.01},"classroomParams":{"A":{"a":1,"b":4},"B":{"a":4,"b":1},"C":{"a":2,"b":8},"D":{"a":8,"b":2}},"conditions":["nonSeqFull","nonSeqPartial","seqNoFeedback","seqFeedback"],"classroomPairings":[["A","B"],["C","D"]],"coinWeights":[0.2,0.5,0.8],"subjectId":"A3E8SXH0BAYG85","assignmentId":"3YJ6NA41JC2L4EMH18TEMY5EVJMPJW","hitId":"32TZXEA1OL6QYKM0MXQIQH2ABHN14I","url":"https://gershmanlab.com/experiments/alicia/teaching/experiment/?hitId=32TZXEA1OL6QYKM0MXQIQH2ABHN14I&workerId=A3E8SXH0BAYG85&assignmentId=3YJ6NA41JC2L4EMH18TEMY5EVJMPJW&a=1NJY9&tp_a=1NJY9&b=3YJ6NA41JC2L4EMH18TEMY5EVJMPJW&tp_b=3YJ6NA41JC2L4EMH18TEMY5EVJMPJW&c=365799&tp_c=365799","heads":8,"tails":2,"studentIndex":4,"studentTrueHypers":{"a":1,"b":4},"studentGuess":0.6,"delta":0.20000000000000007,"totalExamples":10,"bonus":0,"bonusSoFar":1.1},{"rt":12429,"response":{"heads":"2","tails":"8"},"type":"response","condition":"nonSeqFull","trueTheta":0.2,"classrooms":["A","B"],"studentTrueClassroom":"A","exampleSet":"first","trial_type":"survey-html-form","trial_index":43,"time_elapsed":709532,"internal_node_id":"0.0-39.0-0.0","params":{"nStudents":24,"maxFlips":30,"completionMinutes":45,"basePay":8,"maxBonus":9,"perTrialBonus":0.5,"perTrialBonusThreshold":0.05,"exampleCost":0.01},"classroomParams":{"A":{"a":1,"b":4},"B":{"a":4,"b":1},"C":{"a":2,"b":8},"D":{"a":8,"b":2}},"conditions":["nonSeqFull","nonSeqPartial","seqNoFeedback","seqFeedback"],"classroomPairings":[["A","B"],["C","D"]],"coinWeights":[0.2,0.5,0.8],"subjectId":"A3E8SXH0BAYG85","assignmentId":"3YJ6NA41JC2L4EMH18TEMY5EVJMPJW","hitId":"32TZXEA1OL6QYKM0MXQIQH2ABHN14I","url":"https://gershmanlab.com/experiments/alicia/teaching/experiment/?hitId=32TZXEA1OL6QYKM0MXQIQH2ABHN14I&workerId=A3E8SXH0BAYG85&assignmentId=3YJ6NA41JC2L4EMH18TEMY5EVJMPJW&a=1NJY9&tp_a=1NJY9&b=3YJ6NA41JC2L4EMH18TEMY5EVJMPJW&tp_b=3YJ6NA41JC2L4EMH18TEMY5EVJMPJW&c=365799&tp_c=365799","heads":2,"tails":8,"studentIndex":5,"studentTrueHypers":{"a":1,"b":4},"studentGuess":0.2,"delta":0,"totalExamples":10,"bonus":0.4,"bonusSoFar":1.5},{"rt":21083,"response":{"heads":"2","tails":"8"},"type":"response","condition":"seqNoFeedback","trueTheta":0.2,"classrooms":["C","D"],"studentTrueClassroom":"D","exampleSet":"first","trial_type":"survey-html-form","trial_index":49,"time_elapsed":745621,"internal_node_id":"0.0-45.0-0.0","params":{"nStudents":24,"maxFlips":30,"completionMinutes":45,"basePay":8,"maxBonus":9,"perTrialBonus":0.5,"perTrialBonusThreshold":0.05,"exampleCost":0.01},"classroomParams":{"A":{"a":1,"b":4},"B":{"a":4,"b":1},"C":{"a":2,"b":8},"D":{"a":8,"b":2}},"conditions":["nonSeqFull","nonSeqPartial","seqNoFeedback","seqFeedback"],"classroomPairings":[["A","B"],["C","D"]],"coinWeights":[0.2,0.5,0.8],"subjectId":"A3E8SXH0BAYG85","assignmentId":"3YJ6NA41JC2L4EMH18TEMY5EVJMPJW","hitId":"32TZXEA1OL6QYKM0MXQIQH2ABHN14I","url":"https://gershmanlab.com/experiments/alicia/teaching/experiment/?hitId=32TZXEA1OL6QYKM0MXQIQH2ABHN14I&workerId=A3E8SXH0BAYG85&assignmentId=3YJ6NA41JC2L4EMH18TEMY5EVJMPJW&a=1NJY9&tp_a=1NJY9&b=3YJ6NA41JC2L4EMH18TEMY5EVJMPJW&tp_b=3YJ6NA41JC2L4EMH18TEMY5EVJMPJW&c=365799&tp_c=365799","heads":2,"tails":8,"studentIndex":6,"studentTrueHypers":{"a":8,"b":2},"studentGuess":0.5,"delta":0.3,"totalExamples":10,"bonusSoFar":1.5},{"rt":9565,"response":{"heads":"1","tails":"4"},"type":"response","condition":"seqNoFeedback","trueTheta":0.2,"classrooms":["C","D"],"studentTrueClassroom":"D","exampleSet":"second","trial_type":"survey-html-form","trial_index":52,"time_elapsed":761215,"internal_node_id":"0.0-48.0-0.0","params":{"nStudents":24,"maxFlips":30,"completionMinutes":45,"basePay":8,"maxBonus":9,"perTrialBonus":0.5,"perTrialBonusThreshold":0.05,"exampleCost":0.01},"classroomParams":{"A":{"a":1,"b":4},"B":{"a":4,"b":1},"C":{"a":2,"b":8},"D":{"a":8,"b":2}},"conditions":["nonSeqFull","nonSeqPartial","seqNoFeedback","seqFeedback"],"classroomPairings":[["A","B"],["C","D"]],"coinWeights":[0.2,0.5,0.8],"subjectId":"A3E8SXH0BAYG85","assignmentId":"3YJ6NA41JC2L4EMH18TEMY5EVJMPJW","hitId":"32TZXEA1OL6QYKM0MXQIQH2ABHN14I","url":"https://gershmanlab.com/experiments/alicia/teaching/experiment/?hitId=32TZXEA1OL6QYKM0MXQIQH2ABHN14I&workerId=A3E8SXH0BAYG85&assignmentId=3YJ6NA41JC2L4EMH18TEMY5EVJMPJW&a=1NJY9&tp_a=1NJY9&b=3YJ6NA41JC2L4EMH18TEMY5EVJMPJW&tp_b=3YJ6NA41JC2L4EMH18TEMY5EVJMPJW&c=365799&tp_c=365799","firstResponseHeads":2,"firstResponseTails":8,"secondResponseHeads":1,"secondResponseTails":4,"totalHeads":3,"totalTails":12,"studentIndex":6,"studentTrueHypers":{"a":8,"b":2},"studentGuess":0.44,"delta":0.24,"bonus":0,"bonusSoFar":1.5,"totalExamples":15},{"rt":20620,"response":{"heads":"8","tails":"2"},"type":"response","condition":"nonSeqPartial","trueTheta":0.8,"classrooms":["C","D"],"studentTrueClassroom":"D","exampleSet":"first","trial_type":"survey-html-form","trial_index":58,"time_elapsed":800428,"internal_node_id":"0.0-54.0-0.0","params":{"nStudents":24,"maxFlips":30,"completionMinutes":45,"basePay":8,"maxBonus":9,"perTrialBonus":0.5,"perTrialBonusThreshold":0.05,"exampleCost":0.01},"classroomParams":{"A":{"a":1,"b":4},"B":{"a":4,"b":1},"C":{"a":2,"b":8},"D":{"a":8,"b":2}},"conditions":["nonSeqFull","nonSeqPartial","seqNoFeedback","seqFeedback"],"classroomPairings":[["A","B"],["C","D"]],"coinWeights":[0.2,0.5,0.8],"subjectId":"A3E8SXH0BAYG85","assignmentId":"3YJ6NA41JC2L4EMH18TEMY5EVJMPJW","hitId":"32TZXEA1OL6QYKM0MXQIQH2ABHN14I","url":"https://gershmanlab.com/experiments/alicia/teaching/experiment/?hitId=32TZXEA1OL6QYKM0MXQIQH2ABHN14I&workerId=A3E8SXH0BAYG85&assignmentId=3YJ6NA41JC2L4EMH18TEMY5EVJMPJW&a=1NJY9&tp_a=1NJY9&b=3YJ6NA41JC2L4EMH18TEMY5EVJMPJW&tp_b=3YJ6NA41JC2L4EMH18TEMY5EVJMPJW&c=365799&tp_c=365799","heads":8,"tails":2,"studentIndex":7,"studentTrueHypers":{"a":8,"b":2},"studentGuess":0.8,"delta":0,"totalExamples":10,"bonus":0.4,"bonusSoFar":1.9},{"rt":16889,"response":{"heads":"2","tails":"8"},"type":"response","condition":"seqFeedback","trueTheta":0.2,"classrooms":["C","D"],"studentTrueClassroom":"C","exampleSet":"first","trial_type":"survey-html-form","trial_index":64,"time_elapsed":839757,"internal_node_id":"0.0-60.0-0.0","params":{"nStudents":24,"maxFlips":30,"completionMinutes":45,"basePay":8,"maxBonus":9,"perTrialBonus":0.5,"perTrialBonusThreshold":0.05,"exampleCost":0.01},"classroomParams":{"A":{"a":1,"b":4},"B":{"a":4,"b":1},"C":{"a":2,"b":8},"D":{"a":8,"b":2}},"conditions":["nonSeqFull","nonSeqPartial","seqNoFeedback","seqFeedback"],"classroomPairings":[["A","B"],["C","D"]],"coinWeights":[0.2,0.5,0.8],"subjectId":"A3E8SXH0BAYG85","assignmentId":"3YJ6NA41JC2L4EMH18TEMY5EVJMPJW","hitId":"32TZXEA1OL6QYKM0MXQIQH2ABHN14I","url":"https://gershmanlab.com/experiments/alicia/teaching/experiment/?hitId=32TZXEA1OL6QYKM0MXQIQH2ABHN14I&workerId=A3E8SXH0BAYG85&assignmentId=3YJ6NA41JC2L4EMH18TEMY5EVJMPJW&a=1NJY9&tp_a=1NJY9&b=3YJ6NA41JC2L4EMH18TEMY5EVJMPJW&tp_b=3YJ6NA41JC2L4EMH18TEMY5EVJMPJW&c=365799&tp_c=365799","heads":2,"tails":8,"studentIndex":8,"studentTrueHypers":{"a":2,"b":8},"studentGuess":0.2,"delta":0,"totalExamples":10,"bonusSoFar":1.9},{"rt":24709,"response":{"heads":"2","tails":"8"},"type":"response","condition":"seqFeedback","trueTheta":0.2,"classrooms":["C","D"],"studentTrueClassroom":"C","exampleSet":"second","trial_type":"survey-html-form","trial_index":68,"time_elapsed":877878,"internal_node_id":"0.0-64.0-0.0","params":{"nStudents":24,"maxFlips":30,"completionMinutes":45,"basePay":8,"maxBonus":9,"perTrialBonus":0.5,"perTrialBonusThreshold":0.05,"exampleCost":0.01},"classroomParams":{"A":{"a":1,"b":4},"B":{"a":4,"b":1},"C":{"a":2,"b":8},"D":{"a":8,"b":2}},"conditions":["nonSeqFull","nonSeqPartial","seqNoFeedback","seqFeedback"],"classroomPairings":[["A","B"],["C","D"]],"coinWeights":[0.2,0.5,0.8],"subjectId":"A3E8SXH0BAYG85","assignmentId":"3YJ6NA41JC2L4EMH18TEMY5EVJMPJW","hitId":"32TZXEA1OL6QYKM0MXQIQH2ABHN14I","url":"https://gershmanlab.com/experiments/alicia/teaching/experiment/?hitId=32TZXEA1OL6QYKM0MXQIQH2ABHN14I&workerId=A3E8SXH0BAYG85&assignmentId=3YJ6NA41JC2L4EMH18TEMY5EVJMPJW&a=1NJY9&tp_a=1NJY9&b=3YJ6NA41JC2L4EMH18TEMY5EVJMPJW&tp_b=3YJ6NA41JC2L4EMH18TEMY5EVJMPJW&c=365799&tp_c=365799","firstResponseHeads":2,"firstResponseTails":8,"secondResponseHeads":2,"secondResponseTails":8,"totalHeads":4,"totalTails":16,"studentIndex":8,"studentTrueHypers":{"a":2,"b":8},"studentGuess":0.2,"delta":0,"bonus":0.3,"bonusSoFar":2.2,"totalExamples":20},{"rt":21177,"response":{"heads":"2","tails":"8"},"type":"response","condition":"seqNoFeedback","trueTheta":0.2,"classrooms":["A","B"],"studentTrueClassroom":"B","exampleSet":"first","trial_type":"survey-html-form","trial_index":74,"time_elapsed":916232,"internal_node_id":"0.0-70.0-0.0","params":{"nStudents":24,"maxFlips":30,"completionMinutes":45,"basePay":8,"maxBonus":9,"perTrialBonus":0.5,"perTrialBonusThreshold":0.05,"exampleCost":0.01},"classroomParams":{"A":{"a":1,"b":4},"B":{"a":4,"b":1},"C":{"a":2,"b":8},"D":{"a":8,"b":2}},"conditions":["nonSeqFull","nonSeqPartial","seqNoFeedback","seqFeedback"],"classroomPairings":[["A","B"],["C","D"]],"coinWeights":[0.2,0.5,0.8],"subjectId":"A3E8SXH0BAYG85","assignmentId":"3YJ6NA41JC2L4EMH18TEMY5EVJMPJW","hitId":"32TZXEA1OL6QYKM0MXQIQH2ABHN14I","url":"https://gershmanlab.com/experiments/alicia/teaching/experiment/?hitId=32TZXEA1OL6QYKM0MXQIQH2ABHN14I&workerId=A3E8SXH0BAYG85&assignmentId=3YJ6NA41JC2L4EMH18TEMY5EVJMPJW&a=1NJY9&tp_a=1NJY9&b=3YJ6NA41JC2L4EMH18TEMY5EVJMPJW&tp_b=3YJ6NA41JC2L4EMH18TEMY5EVJMPJW&c=365799&tp_c=365799","heads":2,"tails":8,"studentIndex":9,"studentTrueHypers":{"a":4,"b":1},"studentGuess":0.4,"delta":0.2,"totalExamples":10,"bonusSoFar":2.2},{"rt":7875,"response":{"heads":"2","tails":"8"},"type":"response","condition":"seqNoFeedback","trueTheta":0.2,"classrooms":["A","B"],"studentTrueClassroom":"B","exampleSet":"second","trial_type":"survey-html-form","trial_index":77,"time_elapsed":929886,"internal_node_id":"0.0-73.0-0.0","params":{"nStudents":24,"maxFlips":30,"completionMinutes":45,"basePay":8,"maxBonus":9,"perTrialBonus":0.5,"perTrialBonusThreshold":0.05,"exampleCost":0.01},"classroomParams":{"A":{"a":1,"b":4},"B":{"a":4,"b":1},"C":{"a":2,"b":8},"D":{"a":8,"b":2}},"conditions":["nonSeqFull","nonSeqPartial","seqNoFeedback","seqFeedback"],"classroomPairings":[["A","B"],["C","D"]],"coinWeights":[0.2,0.5,0.8],"subjectId":"A3E8SXH0BAYG85","assignmentId":"3YJ6NA41JC2L4EMH18TEMY5EVJMPJW","hitId":"32TZXEA1OL6QYKM0MXQIQH2ABHN14I","url":"https://gershmanlab.com/experiments/alicia/teaching/experiment/?hitId=32TZXEA1OL6QYKM0MXQIQH2ABHN14I&workerId=A3E8SXH0BAYG85&assignmentId=3YJ6NA41JC2L4EMH18TEMY5EVJMPJW&a=1NJY9&tp_a=1NJY9&b=3YJ6NA41JC2L4EMH18TEMY5EVJMPJW&tp_b=3YJ6NA41JC2L4EMH18TEMY5EVJMPJW&c=365799&tp_c=365799","firstResponseHeads":2,"firstResponseTails":8,"secondResponseHeads":2,"secondResponseTails":8,"totalHeads":4,"totalTails":16,"studentIndex":9,"studentTrueHypers":{"a":4,"b":1},"studentGuess":0.32,"delta":0.12,"bonus":0,"bonusSoFar":2.2,"totalExamples":20},{"rt":14841,"response":{"heads":"8","tails":"2"},"type":"response","condition":"seqNoFeedback","trueTheta":0.8,"classrooms":["A","B"],"studentTrueClassroom":"A","exampleSet":"first","trial_type":"survey-html-form","trial_index":83,"time_elapsed":969446,"internal_node_id":"0.0-79.0-0.0","params":{"nStudents":24,"maxFlips":30,"completionMinutes":45,"basePay":8,"maxBonus":9,"perTrialBonus":0.5,"perTrialBonusThreshold":0.05,"exampleCost":0.01},"classroomParams":{"A":{"a":1,"b":4},"B":{"a":4,"b":1},"C":{"a":2,"b":8},"D":{"a":8,"b":2}},"conditions":["nonSeqFull","nonSeqPartial","seqNoFeedback","seqFeedback"],"classroomPairings":[["A","B"],["C","D"]],"coinWeights":[0.2,0.5,0.8],"subjectId":"A3E8SXH0BAYG85","assignmentId":"3YJ6NA41JC2L4EMH18TEMY5EVJMPJW","hitId":"32TZXEA1OL6QYKM0MXQIQH2ABHN14I","url":"https://gershmanlab.com/experiments/alicia/teaching/experiment/?hitId=32TZXEA1OL6QYKM0MXQIQH2ABHN14I&workerId=A3E8SXH0BAYG85&assignmentId=3YJ6NA41JC2L4EMH18TEMY5EVJMPJW&a=1NJY9&tp_a=1NJY9&b=3YJ6NA41JC2L4EMH18TEMY5EVJMPJW&tp_b=3YJ6NA41JC2L4EMH18TEMY5EVJMPJW&c=365799&tp_c=365799","heads":8,"tails":2,"studentIndex":10,"studentTrueHypers":{"a":1,"b":4},"studentGuess":0.6,"delta":0.20000000000000007,"totalExamples":10,"bonusSoFar":2.2},{"rt":9832,"response":{"heads":"8","tails":"2"},"type":"response","condition":"seqNoFeedback","trueTheta":0.8,"classrooms":["A","B"],"studentTrueClassroom":"A","exampleSet":"second","trial_type":"survey-html-form","trial_index":86,"time_elapsed":986539,"internal_node_id":"0.0-82.0-0.0","params":{"nStudents":24,"maxFlips":30,"completionMinutes":45,"basePay":8,"maxBonus":9,"perTrialBonus":0.5,"perTrialBonusThreshold":0.05,"exampleCost":0.01},"classroomParams":{"A":{"a":1,"b":4},"B":{"a":4,"b":1},"C":{"a":2,"b":8},"D":{"a":8,"b":2}},"conditions":["nonSeqFull","nonSeqPartial","seqNoFeedback","seqFeedback"],"classroomPairings":[["A","B"],["C","D"]],"coinWeights":[0.2,0.5,0.8],"subjectId":"A3E8SXH0BAYG85","assignmentId":"3YJ6NA41JC2L4EMH18TEMY5EVJMPJW","hitId":"32TZXEA1OL6QYKM0MXQIQH2ABHN14I","url":"https://gershmanlab.com/experiments/alicia/teaching/experiment/?hitId=32TZXEA1OL6QYKM0MXQIQH2ABHN14I&workerId=A3E8SXH0BAYG85&assignmentId=3YJ6NA41JC2L4EMH18TEMY5EVJMPJW&a=1NJY9&tp_a=1NJY9&b=3YJ6NA41JC2L4EMH18TEMY5EVJMPJW&tp_b=3YJ6NA41JC2L4EMH18TEMY5EVJMPJW&c=365799&tp_c=365799","firstResponseHeads":8,"firstResponseTails":2,"secondResponseHeads":8,"secondResponseTails":2,"totalHeads":16,"totalTails":4,"studentIndex":10,"studentTrueHypers":{"a":1,"b":4},"studentGuess":0.68,"delta":0.12,"bonus":0,"bonusSoFar":2.2,"totalExamples":20},{"rt":15779,"response":{"heads":"4","tails":"4"},"type":"response","condition":"seqFeedback","trueTheta":0.8,"classrooms":["C","D"],"studentTrueClassroom":"D","exampleSet":"first","trial_type":"survey-html-form","trial_index":92,"time_elapsed":1020037,"internal_node_id":"0.0-88.0-0.0","params":{"nStudents":24,"maxFlips":30,"completionMinutes":45,"basePay":8,"maxBonus":9,"perTrialBonus":0.5,"perTrialBonusThreshold":0.05,"exampleCost":0.01},"classroomParams":{"A":{"a":1,"b":4},"B":{"a":4,"b":1},"C":{"a":2,"b":8},"D":{"a":8,"b":2}},"conditions":["nonSeqFull","nonSeqPartial","seqNoFeedback","seqFeedback"],"classroomPairings":[["A","B"],["C","D"]],"coinWeights":[0.2,0.5,0.8],"subjectId":"A3E8SXH0BAYG85","assignmentId":"3YJ6NA41JC2L4EMH18TEMY5EVJMPJW","hitId":"32TZXEA1OL6QYKM0MXQIQH2ABHN14I","url":"https://gershmanlab.com/experiments/alicia/teaching/experiment/?hitId=32TZXEA1OL6QYKM0MXQIQH2ABHN14I&workerId=A3E8SXH0BAYG85&assignmentId=3YJ6NA41JC2L4EMH18TEMY5EVJMPJW&a=1NJY9&tp_a=1NJY9&b=3YJ6NA41JC2L4EMH18TEMY5EVJMPJW&tp_b=3YJ6NA41JC2L4EMH18TEMY5EVJMPJW&c=365799&tp_c=365799","heads":4,"tails":4,"studentIndex":11,"studentTrueHypers":{"a":8,"b":2},"studentGuess":0.6666666666666666,"delta":0.13333333333333341,"totalExamples":8,"bonusSoFar":2.2},{"rt":10927,"response":{"heads":"8","tails":"2"},"type":"response","condition":"seqFeedback","trueTheta":0.8,"classrooms":["C","D"],"studentTrueClassroom":"D","exampleSet":"second","trial_type":"survey-html-form","trial_index":96,"time_elapsed":1042769,"internal_node_id":"0.0-92.0-0.0","params":{"nStudents":24,"maxFlips":30,"completionMinutes":45,"basePay":8,"maxBonus":9,"perTrialBonus":0.5,"perTrialBonusThreshold":0.05,"exampleCost":0.01},"classroomParams":{"A":{"a":1,"b":4},"B":{"a":4,"b":1},"C":{"a":2,"b":8},"D":{"a":8,"b":2}},"conditions":["nonSeqFull","nonSeqPartial","seqNoFeedback","seqFeedback"],"classroomPairings":[["A","B"],["C","D"]],"coinWeights":[0.2,0.5,0.8],"subjectId":"A3E8SXH0BAYG85","assignmentId":"3YJ6NA41JC2L4EMH18TEMY5EVJMPJW","hitId":"32TZXEA1OL6QYKM0MXQIQH2ABHN14I","url":"https://gershmanlab.com/experiments/alicia/teaching/experiment/?hitId=32TZXEA1OL6QYKM0MXQIQH2ABHN14I&workerId=A3E8SXH0BAYG85&assignmentId=3YJ6NA41JC2L4EMH18TEMY5EVJMPJW&a=1NJY9&tp_a=1NJY9&b=3YJ6NA41JC2L4EMH18TEMY5EVJMPJW&tp_b=3YJ6NA41JC2L4EMH18TEMY5EVJMPJW&c=365799&tp_c=365799","firstResponseHeads":4,"firstResponseTails":4,"secondResponseHeads":8,"secondResponseTails":2,"totalHeads":12,"totalTails":6,"studentIndex":11,"studentTrueHypers":{"a":8,"b":2},"studentGuess":0.7142857142857143,"delta":0.08571428571428574,"bonus":0,"bonusSoFar":2.2,"totalExamples":18},{"rt":21751,"response":{"heads":"8","tails":"2"},"type":"response","condition":"seqFeedback","trueTheta":0.8,"classrooms":["A","B"],"studentTrueClassroom":"A","exampleSet":"first","trial_type":"survey-html-form","trial_index":102,"time_elapsed":1085325,"internal_node_id":"0.0-98.0-0.0","params":{"nStudents":24,"maxFlips":30,"completionMinutes":45,"basePay":8,"maxBonus":9,"perTrialBonus":0.5,"perTrialBonusThreshold":0.05,"exampleCost":0.01},"classroomParams":{"A":{"a":1,"b":4},"B":{"a":4,"b":1},"C":{"a":2,"b":8},"D":{"a":8,"b":2}},"conditions":["nonSeqFull","nonSeqPartial","seqNoFeedback","seqFeedback"],"classroomPairings":[["A","B"],["C","D"]],"coinWeights":[0.2,0.5,0.8],"subjectId":"A3E8SXH0BAYG85","assignmentId":"3YJ6NA41JC2L4EMH18TEMY5EVJMPJW","hitId":"32TZXEA1OL6QYKM0MXQIQH2ABHN14I","url":"https://gershmanlab.com/experiments/alicia/teaching/experiment/?hitId=32TZXEA1OL6QYKM0MXQIQH2ABHN14I&workerId=A3E8SXH0BAYG85&assignmentId=3YJ6NA41JC2L4EMH18TEMY5EVJMPJW&a=1NJY9&tp_a=1NJY9&b=3YJ6NA41JC2L4EMH18TEMY5EVJMPJW&tp_b=3YJ6NA41JC2L4EMH18TEMY5EVJMPJW&c=365799&tp_c=365799","heads":8,"tails":2,"studentIndex":12,"studentTrueHypers":{"a":1,"b":4},"studentGuess":0.6,"delta":0.20000000000000007,"totalExamples":10,"bonusSoFar":2.2},{"rt":42477,"response":{"heads":"5","tails":"5"},"type":"response","condition":"seqFeedback","trueTheta":0.8,"classrooms":["A","B"],"studentTrueClassroom":"A","exampleSet":"second","trial_type":"survey-html-form","trial_index":106,"time_elapsed":1137447,"internal_node_id":"0.0-102.0-0.0","params":{"nStudents":24,"maxFlips":30,"completionMinutes":45,"basePay":8,"maxBonus":9,"perTrialBonus":0.5,"perTrialBonusThreshold":0.05,"exampleCost":0.01},"classroomParams":{"A":{"a":1,"b":4},"B":{"a":4,"b":1},"C":{"a":2,"b":8},"D":{"a":8,"b":2}},"conditions":["nonSeqFull","nonSeqPartial","seqNoFeedback","seqFeedback"],"classroomPairings":[["A","B"],["C","D"]],"coinWeights":[0.2,0.5,0.8],"subjectId":"A3E8SXH0BAYG85","assignmentId":"3YJ6NA41JC2L4EMH18TEMY5EVJMPJW","hitId":"32TZXEA1OL6QYKM0MXQIQH2ABHN14I","url":"https://gershmanlab.com/experiments/alicia/teaching/experiment/?hitId=32TZXEA1OL6QYKM0MXQIQH2ABHN14I&workerId=A3E8SXH0BAYG85&assignmentId=3YJ6NA41JC2L4EMH18TEMY5EVJMPJW&a=1NJY9&tp_a=1NJY9&b=3YJ6NA41JC2L4EMH18TEMY5EVJMPJW&tp_b=3YJ6NA41JC2L4EMH18TEMY5EVJMPJW&c=365799&tp_c=365799","firstResponseHeads":8,"firstResponseTails":2,"secondResponseHeads":5,"secondResponseTails":5,"totalHeads":13,"totalTails":7,"studentIndex":12,"studentTrueHypers":{"a":1,"b":4},"studentGuess":0.56,"delta":0.24,"bonus":0,"bonusSoFar":2.2,"totalExamples":20},{"rt":8811,"response":{"heads":"5","tails":"5"},"type":"response","condition":"seqNoFeedback","trueTheta":0.5,"classrooms":["A","B"],"studentTrueClassroom":"A","exampleSet":"first","trial_type":"survey-html-form","trial_index":112,"time_elapsed":1160789,"internal_node_id":"0.0-108.0-0.0","params":{"nStudents":24,"maxFlips":30,"completionMinutes":45,"basePay":8,"maxBonus":9,"perTrialBonus":0.5,"perTrialBonusThreshold":0.05,"exampleCost":0.01},"classroomParams":{"A":{"a":1,"b":4},"B":{"a":4,"b":1},"C":{"a":2,"b":8},"D":{"a":8,"b":2}},"conditions":["nonSeqFull","nonSeqPartial","seqNoFeedback","seqFeedback"],"classroomPairings":[["A","B"],["C","D"]],"coinWeights":[0.2,0.5,0.8],"subjectId":"A3E8SXH0BAYG85","assignmentId":"3YJ6NA41JC2L4EMH18TEMY5EVJMPJW","hitId":"32TZXEA1OL6QYKM0MXQIQH2ABHN14I","url":"https://gershmanlab.com/experiments/alicia/teaching/experiment/?hitId=32TZXEA1OL6QYKM0MXQIQH2ABHN14I&workerId=A3E8SXH0BAYG85&assignmentId=3YJ6NA41JC2L4EMH18TEMY5EVJMPJW&a=1NJY9&tp_a=1NJY9&b=3YJ6NA41JC2L4EMH18TEMY5EVJMPJW&tp_b=3YJ6NA41JC2L4EMH18TEMY5EVJMPJW&c=365799&tp_c=365799","heads":5,"tails":5,"studentIndex":13,"studentTrueHypers":{"a":1,"b":4},"studentGuess":0.4,"delta":0.09999999999999998,"totalExamples":10,"bonusSoFar":2.2},{"rt":5742,"response":{"heads":"5","tails":"5"},"type":"response","condition":"seqNoFeedback","trueTheta":0.5,"classrooms":["A","B"],"studentTrueClassroom":"A","exampleSet":"second","trial_type":"survey-html-form","trial_index":115,"time_elapsed":1173789,"internal_node_id":"0.0-111.0-0.0","params":{"nStudents":24,"maxFlips":30,"completionMinutes":45,"basePay":8,"maxBonus":9,"perTrialBonus":0.5,"perTrialBonusThreshold":0.05,"exampleCost":0.01},"classroomParams":{"A":{"a":1,"b":4},"B":{"a":4,"b":1},"C":{"a":2,"b":8},"D":{"a":8,"b":2}},"conditions":["nonSeqFull","nonSeqPartial","seqNoFeedback","seqFeedback"],"classroomPairings":[["A","B"],["C","D"]],"coinWeights":[0.2,0.5,0.8],"subjectId":"A3E8SXH0BAYG85","assignmentId":"3YJ6NA41JC2L4EMH18TEMY5EVJMPJW","hitId":"32TZXEA1OL6QYKM0MXQIQH2ABHN14I","url":"https://gershmanlab.com/experiments/alicia/teaching/experiment/?hitId=32TZXEA1OL6QYKM0MXQIQH2ABHN14I&workerId=A3E8SXH0BAYG85&assignmentId=3YJ6NA41JC2L4EMH18TEMY5EVJMPJW&a=1NJY9&tp_a=1NJY9&b=3YJ6NA41JC2L4EMH18TEMY5EVJMPJW&tp_b=3YJ6NA41JC2L4EMH18TEMY5EVJMPJW&c=365799&tp_c=365799","firstResponseHeads":5,"firstResponseTails":5,"secondResponseHeads":5,"secondResponseTails":5,"totalHeads":10,"totalTails":10,"studentIndex":13,"studentTrueHypers":{"a":1,"b":4},"studentGuess":0.44,"delta":0.06,"bonus":0,"bonusSoFar":2.2,"totalExamples":20},{"rt":18193,"response":{"heads":"5","tails":"5"},"type":"response","condition":"seqFeedback","trueTheta":0.5,"classrooms":["C","D"],"studentTrueClassroom":"D","exampleSet":"first","trial_type":"survey-html-form","trial_index":121,"time_elapsed":1217316,"internal_node_id":"0.0-117.0-0.0","params":{"nStudents":24,"maxFlips":30,"completionMinutes":45,"basePay":8,"maxBonus":9,"perTrialBonus":0.5,"perTrialBonusThreshold":0.05,"exampleCost":0.01},"classroomParams":{"A":{"a":1,"b":4},"B":{"a":4,"b":1},"C":{"a":2,"b":8},"D":{"a":8,"b":2}},"conditions":["nonSeqFull","nonSeqPartial","seqNoFeedback","seqFeedback"],"classroomPairings":[["A","B"],["C","D"]],"coinWeights":[0.2,0.5,0.8],"subjectId":"A3E8SXH0BAYG85","assignmentId":"3YJ6NA41JC2L4EMH18TEMY5EVJMPJW","hitId":"32TZXEA1OL6QYKM0MXQIQH2ABHN14I","url":"https://gershmanlab.com/experiments/alicia/teaching/experiment/?hitId=32TZXEA1OL6QYKM0MXQIQH2ABHN14I&workerId=A3E8SXH0BAYG85&assignmentId=3YJ6NA41JC2L4EMH18TEMY5EVJMPJW&a=1NJY9&tp_a=1NJY9&b=3YJ6NA41JC2L4EMH18TEMY5EVJMPJW&tp_b=3YJ6NA41JC2L4EMH18TEMY5EVJMPJW&c=365799&tp_c=365799","heads":5,"tails":5,"studentIndex":14,"studentTrueHypers":{"a":8,"b":2},"studentGuess":0.65,"delta":0.15000000000000002,"totalExamples":10,"bonusSoFar":2.2},{"rt":15591,"response":{"heads":"4","tails":"6"},"type":"response","condition":"seqFeedback","trueTheta":0.5,"classrooms":["C","D"],"studentTrueClassroom":"D","exampleSet":"second","trial_type":"survey-html-form","trial_index":125,"time_elapsed":1248696,"internal_node_id":"0.0-121.0-0.0","params":{"nStudents":24,"maxFlips":30,"completionMinutes":45,"basePay":8,"maxBonus":9,"perTrialBonus":0.5,"perTrialBonusThreshold":0.05,"exampleCost":0.01},"classroomParams":{"A":{"a":1,"b":4},"B":{"a":4,"b":1},"C":{"a":2,"b":8},"D":{"a":8,"b":2}},"conditions":["nonSeqFull","nonSeqPartial","seqNoFeedback","seqFeedback"],"classroomPairings":[["A","B"],["C","D"]],"coinWeights":[0.2,0.5,0.8],"subjectId":"A3E8SXH0BAYG85","assignmentId":"3YJ6NA41JC2L4EMH18TEMY5EVJMPJW","hitId":"32TZXEA1OL6QYKM0MXQIQH2ABHN14I","url":"https://gershmanlab.com/experiments/alicia/teaching/experiment/?hitId=32TZXEA1OL6QYKM0MXQIQH2ABHN14I&workerId=A3E8SXH0BAYG85&assignmentId=3YJ6NA41JC2L4EMH18TEMY5EVJMPJW&a=1NJY9&tp_a=1NJY9&b=3YJ6NA41JC2L4EMH18TEMY5EVJMPJW&tp_b=3YJ6NA41JC2L4EMH18TEMY5EVJMPJW&c=365799&tp_c=365799","firstResponseHeads":5,"firstResponseTails":5,"secondResponseHeads":4,"secondResponseTails":6,"totalHeads":9,"totalTails":11,"studentIndex":14,"studentTrueHypers":{"a":8,"b":2},"studentGuess":0.5666666666666667,"delta":0.06666666666666665,"bonus":0,"bonusSoFar":2.2,"totalExamples":20},{"rt":11344,"response":{"heads":"2","tails":"8"},"type":"response","condition":"nonSeqFull","trueTheta":0.8,"classrooms":["C","D"],"studentTrueClassroom":"D","exampleSet":"first","trial_type":"survey-html-form","trial_index":131,"time_elapsed":1275578,"internal_node_id":"0.0-127.0-0.0","params":{"nStudents":24,"maxFlips":30,"completionMinutes":45,"basePay":8,"maxBonus":9,"perTrialBonus":0.5,"perTrialBonusThreshold":0.05,"exampleCost":0.01},"classroomParams":{"A":{"a":1,"b":4},"B":{"a":4,"b":1},"C":{"a":2,"b":8},"D":{"a":8,"b":2}},"conditions":["nonSeqFull","nonSeqPartial","seqNoFeedback","seqFeedback"],"classroomPairings":[["A","B"],["C","D"]],"coinWeights":[0.2,0.5,0.8],"subjectId":"A3E8SXH0BAYG85","assignmentId":"3YJ6NA41JC2L4EMH18TEMY5EVJMPJW","hitId":"32TZXEA1OL6QYKM0MXQIQH2ABHN14I","url":"https://gershmanlab.com/experiments/alicia/teaching/experiment/?hitId=32TZXEA1OL6QYKM0MXQIQH2ABHN14I&workerId=A3E8SXH0BAYG85&assignmentId=3YJ6NA41JC2L4EMH18TEMY5EVJMPJW&a=1NJY9&tp_a=1NJY9&b=3YJ6NA41JC2L4EMH18TEMY5EVJMPJW&tp_b=3YJ6NA41JC2L4EMH18TEMY5EVJMPJW&c=365799&tp_c=365799","heads":2,"tails":8,"studentIndex":15,"studentTrueHypers":{"a":8,"b":2},"studentGuess":0.5,"delta":0.30000000000000004,"totalExamples":10,"bonus":0,"bonusSoFar":2.2},{"rt":15803,"response":{"heads":"9","tails":"6"},"type":"response","condition":"nonSeqFull","trueTheta":0.5,"classrooms":["A","B"],"studentTrueClassroom":"A","exampleSet":"first","trial_type":"survey-html-form","trial_index":137,"time_elapsed":1309379,"internal_node_id":"0.0-133.0-0.0","params":{"nStudents":24,"maxFlips":30,"completionMinutes":45,"basePay":8,"maxBonus":9,"perTrialBonus":0.5,"perTrialBonusThreshold":0.05,"exampleCost":0.01},"classroomParams":{"A":{"a":1,"b":4},"B":{"a":4,"b":1},"C":{"a":2,"b":8},"D":{"a":8,"b":2}},"conditions":["nonSeqFull","nonSeqPartial","seqNoFeedback","seqFeedback"],"classroomPairings":[["A","B"],["C","D"]],"coinWeights":[0.2,0.5,0.8],"subjectId":"A3E8SXH0BAYG85","assignmentId":"3YJ6NA41JC2L4EMH18TEMY5EVJMPJW","hitId":"32TZXEA1OL6QYKM0MXQIQH2ABHN14I","url":"https://gershmanlab.com/experiments/alicia/teaching/experiment/?hitId=32TZXEA1OL6QYKM0MXQIQH2ABHN14I&workerId=A3E8SXH0BAYG85&assignmentId=3YJ6NA41JC2L4EMH18TEMY5EVJMPJW&a=1NJY9&tp_a=1NJY9&b=3YJ6NA41JC2L4EMH18TEMY5EVJMPJW&tp_b=3YJ6NA41JC2L4EMH18TEMY5EVJMPJW&c=365799&tp_c=365799","heads":9,"tails":6,"studentIndex":16,"studentTrueHypers":{"a":1,"b":4},"studentGuess":0.5,"delta":0,"totalExamples":15,"bonus":0.35,"bonusSoFar":2.55},{"rt":10671,"response":{"heads":"8","tails":"2"},"type":"response","condition":"nonSeqFull","trueTheta":0.2,"classrooms":["C","D"],"studentTrueClassroom":"C","exampleSet":"first","trial_type":"survey-html-form","trial_index":143,"time_elapsed":1337437,"internal_node_id":"0.0-139.0-0.0","params":{"nStudents":24,"maxFlips":30,"completionMinutes":45,"basePay":8,"maxBonus":9,"perTrialBonus":0.5,"perTrialBonusThreshold":0.05,"exampleCost":0.01},"classroomParams":{"A":{"a":1,"b":4},"B":{"a":4,"b":1},"C":{"a":2,"b":8},"D":{"a":8,"b":2}},"conditions":["nonSeqFull","nonSeqPartial","seqNoFeedback","seqFeedback"],"classroomPairings":[["A","B"],["C","D"]],"coinWeights":[0.2,0.5,0.8],"subjectId":"A3E8SXH0BAYG85","assignmentId":"3YJ6NA41JC2L4EMH18TEMY5EVJMPJW","hitId":"32TZXEA1OL6QYKM0MXQIQH2ABHN14I","url":"https://gershmanlab.com/experiments/alicia/teaching/experiment/?hitId=32TZXEA1OL6QYKM0MXQIQH2ABHN14I&workerId=A3E8SXH0BAYG85&assignmentId=3YJ6NA41JC2L4EMH18TEMY5EVJMPJW&a=1NJY9&tp_a=1NJY9&b=3YJ6NA41JC2L4EMH18TEMY5EVJMPJW&tp_b=3YJ6NA41JC2L4EMH18TEMY5EVJMPJW&c=365799&tp_c=365799","heads":8,"tails":2,"studentIndex":17,"studentTrueHypers":{"a":2,"b":8},"studentGuess":0.5,"delta":0.3,"totalExamples":10,"bonus":0,"bonusSoFar":2.55},{"rt":13025,"response":{"heads":"8","tails":"8"},"type":"response","condition":"seqNoFeedback","trueTheta":0.5,"classrooms":["C","D"],"studentTrueClassroom":"D","exampleSet":"first","trial_type":"survey-html-form","trial_index":149,"time_elapsed":1365958,"internal_node_id":"0.0-145.0-0.0","params":{"nStudents":24,"maxFlips":30,"completionMinutes":45,"basePay":8,"maxBonus":9,"perTrialBonus":0.5,"perTrialBonusThreshold":0.05,"exampleCost":0.01},"classroomParams":{"A":{"a":1,"b":4},"B":{"a":4,"b":1},"C":{"a":2,"b":8},"D":{"a":8,"b":2}},"conditions":["nonSeqFull","nonSeqPartial","seqNoFeedback","seqFeedback"],"classroomPairings":[["A","B"],["C","D"]],"coinWeights":[0.2,0.5,0.8],"subjectId":"A3E8SXH0BAYG85","assignmentId":"3YJ6NA41JC2L4EMH18TEMY5EVJMPJW","hitId":"32TZXEA1OL6QYKM0MXQIQH2ABHN14I","url":"https://gershmanlab.com/experiments/alicia/teaching/experiment/?hitId=32TZXEA1OL6QYKM0MXQIQH2ABHN14I&workerId=A3E8SXH0BAYG85&assignmentId=3YJ6NA41JC2L4EMH18TEMY5EVJMPJW&a=1NJY9&tp_a=1NJY9&b=3YJ6NA41JC2L4EMH18TEMY5EVJMPJW&tp_b=3YJ6NA41JC2L4EMH18TEMY5EVJMPJW&c=365799&tp_c=365799","heads":8,"tails":8,"studentIndex":18,"studentTrueHypers":{"a":8,"b":2},"studentGuess":0.6153846153846154,"delta":0.11538461538461542,"totalExamples":16,"bonusSoFar":2.55},{"rt":6934,"response":{"heads":"8","tails":"8"},"type":"response","condition":"seqNoFeedback","trueTheta":0.5,"classrooms":["C","D"],"studentTrueClassroom":"D","exampleSet":"second","trial_type":"survey-html-form","trial_index":152,"time_elapsed":1379916,"internal_node_id":"0.0-148.0-0.0","params":{"nStudents":24,"maxFlips":30,"completionMinutes":45,"basePay":8,"maxBonus":9,"perTrialBonus":0.5,"perTrialBonusThreshold":0.05,"exampleCost":0.01},"classroomParams":{"A":{"a":1,"b":4},"B":{"a":4,"b":1},"C":{"a":2,"b":8},"D":{"a":8,"b":2}},"conditions":["nonSeqFull","nonSeqPartial","seqNoFeedback","seqFeedback"],"classroomPairings":[["A","B"],["C","D"]],"coinWeights":[0.2,0.5,0.8],"subjectId":"A3E8SXH0BAYG85","assignmentId":"3YJ6NA41JC2L4EMH18TEMY5EVJMPJW","hitId":"32TZXEA1OL6QYKM0MXQIQH2ABHN14I","url":"https://gershmanlab.com/experiments/alicia/teaching/experiment/?hitId=32TZXEA1OL6QYKM0MXQIQH2ABHN14I&workerId=A3E8SXH0BAYG85&assignmentId=3YJ6NA41JC2L4EMH18TEMY5EVJMPJW&a=1NJY9&tp_a=1NJY9&b=3YJ6NA41JC2L4EMH18TEMY5EVJMPJW&tp_b=3YJ6NA41JC2L4EMH18TEMY5EVJMPJW&c=365799&tp_c=365799","firstResponseHeads":8,"firstResponseTails":8,"secondResponseHeads":8,"secondResponseTails":8,"totalHeads":16,"totalTails":16,"studentIndex":18,"studentTrueHypers":{"a":8,"b":2},"studentGuess":0.5714285714285714,"delta":0.0714285714285714,"bonus":0,"bonusSoFar":2.55,"totalExamples":32},{"rt":5960,"response":{"heads":"8","tails":"2"},"type":"response","condition":"nonSeqPartial","trueTheta":0.8,"classrooms":["A","B"],"studentTrueClassroom":"B","exampleSet":"first","trial_type":"survey-html-form","trial_index":158,"time_elapsed":1404256,"internal_node_id":"0.0-154.0-0.0","params":{"nStudents":24,"maxFlips":30,"completionMinutes":45,"basePay":8,"maxBonus":9,"perTrialBonus":0.5,"perTrialBonusThreshold":0.05,"exampleCost":0.01},"classroomParams":{"A":{"a":1,"b":4},"B":{"a":4,"b":1},"C":{"a":2,"b":8},"D":{"a":8,"b":2}},"conditions":["nonSeqFull","nonSeqPartial","seqNoFeedback","seqFeedback"],"classroomPairings":[["A","B"],["C","D"]],"coinWeights":[0.2,0.5,0.8],"subjectId":"A3E8SXH0BAYG85","assignmentId":"3YJ6NA41JC2L4EMH18TEMY5EVJMPJW","hitId":"32TZXEA1OL6QYKM0MXQIQH2ABHN14I","url":"https://gershmanlab.com/experiments/alicia/teaching/experiment/?hitId=32TZXEA1OL6QYKM0MXQIQH2ABHN14I&workerId=A3E8SXH0BAYG85&assignmentId=3YJ6NA41JC2L4EMH18TEMY5EVJMPJW&a=1NJY9&tp_a=1NJY9&b=3YJ6NA41JC2L4EMH18TEMY5EVJMPJW&tp_b=3YJ6NA41JC2L4EMH18TEMY5EVJMPJW&c=365799&tp_c=365799","heads":8,"tails":2,"studentIndex":19,"studentTrueHypers":{"a":4,"b":1},"studentGuess":0.8,"delta":0,"totalExamples":10,"bonus":0.4,"bonusSoFar":2.95},{"rt":7062,"response":{"heads":"5","tails":"5"},"type":"response","condition":"nonSeqFull","trueTheta":0.5,"classrooms":["C","D"],"studentTrueClassroom":"D","exampleSet":"first","trial_type":"survey-html-form","trial_index":164,"time_elapsed":1425423,"internal_node_id":"0.0-160.0-0.0","params":{"nStudents":24,"maxFlips":30,"completionMinutes":45,"basePay":8,"maxBonus":9,"perTrialBonus":0.5,"perTrialBonusThreshold":0.05,"exampleCost":0.01},"classroomParams":{"A":{"a":1,"b":4},"B":{"a":4,"b":1},"C":{"a":2,"b":8},"D":{"a":8,"b":2}},"conditions":["nonSeqFull","nonSeqPartial","seqNoFeedback","seqFeedback"],"classroomPairings":[["A","B"],["C","D"]],"coinWeights":[0.2,0.5,0.8],"subjectId":"A3E8SXH0BAYG85","assignmentId":"3YJ6NA41JC2L4EMH18TEMY5EVJMPJW","hitId":"32TZXEA1OL6QYKM0MXQIQH2ABHN14I","url":"https://gershmanlab.com/experiments/alicia/teaching/experiment/?hitId=32TZXEA1OL6QYKM0MXQIQH2ABHN14I&workerId=A3E8SXH0BAYG85&assignmentId=3YJ6NA41JC2L4EMH18TEMY5EVJMPJW&a=1NJY9&tp_a=1NJY9&b=3YJ6NA41JC2L4EMH18TEMY5EVJMPJW&tp_b=3YJ6NA41JC2L4EMH18TEMY5EVJMPJW&c=365799&tp_c=365799","heads":5,"tails":5,"studentIndex":20,"studentTrueHypers":{"a":8,"b":2},"studentGuess":0.65,"delta":0.15000000000000002,"totalExamples":10,"bonus":0,"bonusSoFar":2.95},{"rt":13545,"response":{"heads":"6","tails":"6"},"type":"response","condition":"nonSeqPartial","trueTheta":0.5,"classrooms":["A","B"],"studentTrueClassroom":"A","exampleSet":"first","trial_type":"survey-html-form","trial_index":170,"time_elapsed":1455131,"internal_node_id":"0.0-166.0-0.0","params":{"nStudents":24,"maxFlips":30,"completionMinutes":45,"basePay":8,"maxBonus":9,"perTrialBonus":0.5,"perTrialBonusThreshold":0.05,"exampleCost":0.01},"classroomParams":{"A":{"a":1,"b":4},"B":{"a":4,"b":1},"C":{"a":2,"b":8},"D":{"a":8,"b":2}},"conditions":["nonSeqFull","nonSeqPartial","seqNoFeedback","seqFeedback"],"classroomPairings":[["A","B"],["C","D"]],"coinWeights":[0.2,0.5,0.8],"subjectId":"A3E8SXH0BAYG85","assignmentId":"3YJ6NA41JC2L4EMH18TEMY5EVJMPJW","hitId":"32TZXEA1OL6QYKM0MXQIQH2ABHN14I","url":"https://gershmanlab.com/experiments/alicia/teaching/experiment/?hitId=32TZXEA1OL6QYKM0MXQIQH2ABHN14I&workerId=A3E8SXH0BAYG85&assignmentId=3YJ6NA41JC2L4EMH18TEMY5EVJMPJW&a=1NJY9&tp_a=1NJY9&b=3YJ6NA41JC2L4EMH18TEMY5EVJMPJW&tp_b=3YJ6NA41JC2L4EMH18TEMY5EVJMPJW&c=365799&tp_c=365799","heads":6,"tails":6,"studentIndex":21,"studentTrueHypers":{"a":1,"b":4},"studentGuess":0.4117647058823529,"delta":0.08823529411764708,"totalExamples":12,"bonus":0,"bonusSoFar":2.95},{"rt":16045,"response":{"heads":"2","tails":"8"},"type":"response","condition":"seqFeedback","trueTheta":0.2,"classrooms":["A","B"],"studentTrueClassroom":"A","exampleSet":"first","trial_type":"survey-html-form","trial_index":176,"time_elapsed":1488701,"internal_node_id":"0.0-172.0-0.0","params":{"nStudents":24,"maxFlips":30,"completionMinutes":45,"basePay":8,"maxBonus":9,"perTrialBonus":0.5,"perTrialBonusThreshold":0.05,"exampleCost":0.01},"classroomParams":{"A":{"a":1,"b":4},"B":{"a":4,"b":1},"C":{"a":2,"b":8},"D":{"a":8,"b":2}},"conditions":["nonSeqFull","nonSeqPartial","seqNoFeedback","seqFeedback"],"classroomPairings":[["A","B"],["C","D"]],"coinWeights":[0.2,0.5,0.8],"subjectId":"A3E8SXH0BAYG85","assignmentId":"3YJ6NA41JC2L4EMH18TEMY5EVJMPJW","hitId":"32TZXEA1OL6QYKM0MXQIQH2ABHN14I","url":"https://gershmanlab.com/experiments/alicia/teaching/experiment/?hitId=32TZXEA1OL6QYKM0MXQIQH2ABHN14I&workerId=A3E8SXH0BAYG85&assignmentId=3YJ6NA41JC2L4EMH18TEMY5EVJMPJW&a=1NJY9&tp_a=1NJY9&b=3YJ6NA41JC2L4EMH18TEMY5EVJMPJW&tp_b=3YJ6NA41JC2L4EMH18TEMY5EVJMPJW&c=365799&tp_c=365799","heads":2,"tails":8,"studentIndex":22,"studentTrueHypers":{"a":1,"b":4},"studentGuess":0.2,"delta":0,"totalExamples":10,"bonusSoFar":2.95},{"rt":8920,"response":{"heads":"2","tails":"8"},"type":"response","condition":"seqFeedback","trueTheta":0.2,"classrooms":["A","B"],"studentTrueClassroom":"A","exampleSet":"second","trial_type":"survey-html-form","trial_index":180,"time_elapsed":1507865,"internal_node_id":"0.0-176.0-0.0","params":{"nStudents":24,"maxFlips":30,"completionMinutes":45,"basePay":8,"maxBonus":9,"perTrialBonus":0.5,"perTrialBonusThreshold":0.05,"exampleCost":0.01},"classroomParams":{"A":{"a":1,"b":4},"B":{"a":4,"b":1},"C":{"a":2,"b":8},"D":{"a":8,"b":2}},"conditions":["nonSeqFull","nonSeqPartial","seqNoFeedback","seqFeedback"],"classroomPairings":[["A","B"],["C","D"]],"coinWeights":[0.2,0.5,0.8],"subjectId":"A3E8SXH0BAYG85","assignmentId":"3YJ6NA41JC2L4EMH18TEMY5EVJMPJW","hitId":"32TZXEA1OL6QYKM0MXQIQH2ABHN14I","url":"https://gershmanlab.com/experiments/alicia/teaching/experiment/?hitId=32TZXEA1OL6QYKM0MXQIQH2ABHN14I&workerId=A3E8SXH0BAYG85&assignmentId=3YJ6NA41JC2L4EMH18TEMY5EVJMPJW&a=1NJY9&tp_a=1NJY9&b=3YJ6NA41JC2L4EMH18TEMY5EVJMPJW&tp_b=3YJ6NA41JC2L4EMH18TEMY5EVJMPJW&c=365799&tp_c=365799","firstResponseHeads":2,"firstResponseTails":8,"secondResponseHeads":2,"secondResponseTails":8,"totalHeads":4,"totalTails":16,"studentIndex":22,"studentTrueHypers":{"a":1,"b":4},"studentGuess":0.2,"delta":0,"bonus":0.3,"bonusSoFar":3.25,"totalExamples":20},{"rt":5389,"response":{"heads":"5","tails":"5"},"type":"response","condition":"seqFeedback","trueTheta":0.5,"classrooms":["A","B"],"studentTrueClassroom":"B","exampleSet":"first","trial_type":"survey-html-form","trial_index":186,"time_elapsed":1530895,"internal_node_id":"0.0-182.0-0.0","params":{"nStudents":24,"maxFlips":30,"completionMinutes":45,"basePay":8,"maxBonus":9,"perTrialBonus":0.5,"perTrialBonusThreshold":0.05,"exampleCost":0.01},"classroomParams":{"A":{"a":1,"b":4},"B":{"a":4,"b":1},"C":{"a":2,"b":8},"D":{"a":8,"b":2}},"conditions":["nonSeqFull","nonSeqPartial","seqNoFeedback","seqFeedback"],"classroomPairings":[["A","B"],["C","D"]],"coinWeights":[0.2,0.5,0.8],"subjectId":"A3E8SXH0BAYG85","assignmentId":"3YJ6NA41JC2L4EMH18TEMY5EVJMPJW","hitId":"32TZXEA1OL6QYKM0MXQIQH2ABHN14I","url":"https://gershmanlab.com/experiments/alicia/teaching/experiment/?hitId=32TZXEA1OL6QYKM0MXQIQH2ABHN14I&workerId=A3E8SXH0BAYG85&assignmentId=3YJ6NA41JC2L4EMH18TEMY5EVJMPJW&a=1NJY9&tp_a=1NJY9&b=3YJ6NA41JC2L4EMH18TEMY5EVJMPJW&tp_b=3YJ6NA41JC2L4EMH18TEMY5EVJMPJW&c=365799&tp_c=365799","heads":5,"tails":5,"studentIndex":23,"studentTrueHypers":{"a":4,"b":1},"studentGuess":0.6,"delta":0.09999999999999998,"totalExamples":10,"bonusSoFar":3.25},{"rt":5327,"response":{"heads":"5","tails":"5"},"type":"response","condition":"seqFeedback","trueTheta":0.5,"classrooms":["A","B"],"studentTrueClassroom":"B","exampleSet":"second","trial_type":"survey-html-form","trial_index":190,"time_elapsed":1546543,"internal_node_id":"0.0-186.0-0.0","params":{"nStudents":24,"maxFlips":30,"completionMinutes":45,"basePay":8,"maxBonus":9,"perTrialBonus":0.5,"perTrialBonusThreshold":0.05,"exampleCost":0.01},"classroomParams":{"A":{"a":1,"b":4},"B":{"a":4,"b":1},"C":{"a":2,"b":8},"D":{"a":8,"b":2}},"conditions":["nonSeqFull","nonSeqPartial","seqNoFeedback","seqFeedback"],"classroomPairings":[["A","B"],["C","D"]],"coinWeights":[0.2,0.5,0.8],"subjectId":"A3E8SXH0BAYG85","assignmentId":"3YJ6NA41JC2L4EMH18TEMY5EVJMPJW","hitId":"32TZXEA1OL6QYKM0MXQIQH2ABHN14I","url":"https://gershmanlab.com/experiments/alicia/teaching/experiment/?hitId=32TZXEA1OL6QYKM0MXQIQH2ABHN14I&workerId=A3E8SXH0BAYG85&assignmentId=3YJ6NA41JC2L4EMH18TEMY5EVJMPJW&a=1NJY9&tp_a=1NJY9&b=3YJ6NA41JC2L4EMH18TEMY5EVJMPJW&tp_b=3YJ6NA41JC2L4EMH18TEMY5EVJMPJW&c=365799&tp_c=365799","firstResponseHeads":5,"firstResponseTails":5,"secondResponseHeads":5,"secondResponseTails":5,"totalHeads":10,"totalTails":10,"studentIndex":23,"studentTrueHypers":{"a":4,"b":1},"studentGuess":0.56,"delta":0.06000000000000005,"bonus":0,"bonusSoFar":3.25,"totalExamples":20},{"rt":18528,"response":{"gender":"male","age":"45","understood":"yes","comments":"Thank you"},"type":"response","trial_type":"survey-html-form","trial_index":194,"time_elapsed":1576080,"internal_node_id":"0.0-191.0","params":{"nStudents":24,"maxFlips":30,"completionMinutes":45,"basePay":8,"maxBonus":9,"perTrialBonus":0.5,"perTrialBonusThreshold":0.05,"exampleCost":0.01},"classroomParams":{"A":{"a":1,"b":4},"B":{"a":4,"b":1},"C":{"a":2,"b":8},"D":{"a":8,"b":2}},"conditions":["nonSeqFull","nonSeqPartial","seqNoFeedback","seqFeedback"],"classroomPairings":[["A","B"],["C","D"]],"coinWeights":[0.2,0.5,0.8],"subjectId":"A3E8SXH0BAYG85","assignmentId":"3YJ6NA41JC2L4EMH18TEMY5EVJMPJW","hitId":"32TZXEA1OL6QYKM0MXQIQH2ABHN14I","url":"https://gershmanlab.com/experiments/alicia/teaching/experiment/?hitId=32TZXEA1OL6QYKM0MXQIQH2ABHN14I&workerId=A3E8SXH0BAYG85&assignmentId=3YJ6NA41JC2L4EMH18TEMY5EVJMPJW&a=1NJY9&tp_a=1NJY9&b=3YJ6NA41JC2L4EMH18TEMY5EVJMPJW&tp_b=3YJ6NA41JC2L4EMH18TEMY5EVJMPJW&c=365799&tp_c=365799","totalBonus":3.25}]