[{"rt":20700,"response":{"heads":"1","tails":"1"},"type":"response","condition":"seqFeedback","trueTheta":0.5,"classrooms":["A","B"],"studentTrueClassroom":"A","exampleSet":"first","trial_type":"survey-html-form","trial_index":7,"time_elapsed":423399,"internal_node_id":"0.0-6.0-0.0","params":{"nStudents":24,"maxFlips":30,"completionMinutes":45,"basePay":8,"maxBonus":9,"perTrialBonus":0.5,"perTrialBonusThreshold":0.05,"exampleCost":0.01},"classroomParams":{"A":{"a":1,"b":4},"B":{"a":4,"b":1},"C":{"a":2,"b":8},"D":{"a":8,"b":2}},"conditions":["nonSeqFull","nonSeqPartial","seqNoFeedback","seqFeedback"],"classroomPairings":[["A","B"],["C","D"]],"coinWeights":[0.2,0.5,0.8],"subjectId":"A3EA4SHCLJ1UZQ","assignmentId":"3H8DHMCCWAX7Q1P9EK2VNJO2WPJKDC","hitId":"3NI0WFPPI9246I5W92FX9A3E2GN605","url":"https://gershmanlab.com/experiments/alicia/teaching/experiment/?hitId=3NI0WFPPI9246I5W92FX9A3E2GN605&workerId=A3EA4SHCLJ1UZQ&assignmentId=3H8DHMCCWAX7Q1P9EK2VNJO2WPJKDC&a=CH8H9&tp_a=CH8H9&b=3H8DHMCCWAX7Q1P9EK2VNJO2WPJKDC&tp_b=3H8DHMCCWAX7Q1P9EK2VNJO2WPJKDC&c=365799&tp_c=365799","heads":1,"tails":1,"studentIndex":0,"studentTrueHypers":{"a":1,"b":4},"studentGuess":0.2857142857142857,"delta":0.2142857142857143,"totalExamples":2,"bonusSoFar":0},{"rt":6140,"response":{"heads":"1","tails":"1"},"type":"response","condition":"seqFeedback","trueTheta":0.5,"classrooms":["A","B"],"studentTrueClassroom":"A","exampleSet":"second","trial_type":"survey-html-form","trial_index":11,"time_elapsed":446658,"internal_node_id":"0.0-10.0-0.0","params":{"nStudents":24,"maxFlips":30,"completionMinutes":45,"basePay":8,"maxBonus":9,"perTrialBonus":0.5,"perTrialBonusThreshold":0.05,"exampleCost":0.01},"classroomParams":{"A":{"a":1,"b":4},"B":{"a":4,"b":1},"C":{"a":2,"b":8},"D":{"a":8,"b":2}},"conditions":["nonSeqFull","nonSeqPartial","seqNoFeedback","seqFeedback"],"classroomPairings":[["A","B"],["C","D"]],"coinWeights":[0.2,0.5,0.8],"subjectId":"A3EA4SHCLJ1UZQ","assignmentId":"3H8DHMCCWAX7Q1P9EK2VNJO2WPJKDC","hitId":"3NI0WFPPI9246I5W92FX9A3E2GN605","url":"https://gershmanlab.com/experiments/alicia/teaching/experiment/?hitId=3NI0WFPPI9246I5W92FX9A3E2GN605&workerId=A3EA4SHCLJ1UZQ&assignmentId=3H8DHMCCWAX7Q1P9EK2VNJO2WPJKDC&a=CH8H9&tp_a=CH8H9&b=3H8DHMCCWAX7Q1P9EK2VNJO2WPJKDC&tp_b=3H8DHMCCWAX7Q1P9EK2VNJO2WPJKDC&c=365799&tp_c=365799","firstResponseHeads":1,"firstResponseTails":1,"secondResponseHeads":1,"secondResponseTails":1,"totalHeads":2,"totalTails":2,"studentIndex":0,"studentTrueHypers":{"a":1,"b":4},"studentGuess":0.3333333333333333,"delta":0.16666666666666669,"bonus":0,"bonusSoFar":0,"totalExamples":4},{"rt":42367,"response":{"heads":"0","tails":"8"},"type":"response","condition":"nonSeqPartial","trueTheta":0.2,"classrooms":["A","B"],"studentTrueClassroom":"A","exampleSet":"first","trial_type":"survey-html-form","trial_index":17,"time_elapsed":522519,"internal_node_id":"0.0-16.0-0.0","params":{"nStudents":24,"maxFlips":30,"completionMinutes":45,"basePay":8,"maxBonus":9,"perTrialBonus":0.5,"perTrialBonusThreshold":0.05,"exampleCost":0.01},"classroomParams":{"A":{"a":1,"b":4},"B":{"a":4,"b":1},"C":{"a":2,"b":8},"D":{"a":8,"b":2}},"conditions":["nonSeqFull","nonSeqPartial","seqNoFeedback","seqFeedback"],"classroomPairings":[["A","B"],["C","D"]],"coinWeights":[0.2,0.5,0.8],"subjectId":"A3EA4SHCLJ1UZQ","assignmentId":"3H8DHMCCWAX7Q1P9EK2VNJO2WPJKDC","hitId":"3NI0WFPPI9246I5W92FX9A3E2GN605","url":"https://gershmanlab.com/experiments/alicia/teaching/experiment/?hitId=3NI0WFPPI9246I5W92FX9A3E2GN605&workerId=A3EA4SHCLJ1UZQ&assignmentId=3H8DHMCCWAX7Q1P9EK2VNJO2WPJKDC&a=CH8H9&tp_a=CH8H9&b=3H8DHMCCWAX7Q1P9EK2VNJO2WPJKDC&tp_b=3H8DHMCCWAX7Q1P9EK2VNJO2WPJKDC&c=365799&tp_c=365799","heads":0,"tails":8,"studentIndex":1,"studentTrueHypers":{"a":1,"b":4},"studentGuess":0.07692307692307693,"delta":0.12307692307692308,"totalExamples":8,"bonus":0,"bonusSoFar":0},{"rt":7325,"response":{"heads":"8","tails":"0"},"type":"response","condition":"nonSeqFull","trueTheta":0.8,"classrooms":["C","D"],"studentTrueClassroom":"C","exampleSet":"first","trial_type":"survey-html-form","trial_index":23,"time_elapsed":547583,"internal_node_id":"0.0-22.0-0.0","params":{"nStudents":24,"maxFlips":30,"completionMinutes":45,"basePay":8,"maxBonus":9,"perTrialBonus":0.5,"perTrialBonusThreshold":0.05,"exampleCost":0.01},"classroomParams":{"A":{"a":1,"b":4},"B":{"a":4,"b":1},"C":{"a":2,"b":8},"D":{"a":8,"b":2}},"conditions":["nonSeqFull","nonSeqPartial","seqNoFeedback","seqFeedback"],"classroomPairings":[["A","B"],["C","D"]],"coinWeights":[0.2,0.5,0.8],"subjectId":"A3EA4SHCLJ1UZQ","assignmentId":"3H8DHMCCWAX7Q1P9EK2VNJO2WPJKDC","hitId":"3NI0WFPPI9246I5W92FX9A3E2GN605","url":"https://gershmanlab.com/experiments/alicia/teaching/experiment/?hitId=3NI0WFPPI9246I5W92FX9A3E2GN605&workerId=A3EA4SHCLJ1UZQ&assignmentId=3H8DHMCCWAX7Q1P9EK2VNJO2WPJKDC&a=CH8H9&tp_a=CH8H9&b=3H8DHMCCWAX7Q1P9EK2VNJO2WPJKDC&tp_b=3H8DHMCCWAX7Q1P9EK2VNJO2WPJKDC&c=365799&tp_c=365799","heads":8,"tails":0,"studentIndex":2,"studentTrueHypers":{"a":2,"b":8},"studentGuess":0.5555555555555556,"delta":0.24444444444444446,"totalExamples":8,"bonus":0,"bonusSoFar":0},{"rt":10234,"response":{"heads":"8","tails":"0"},"type":"response","condition":"seqNoFeedback","trueTheta":0.8,"classrooms":["A","B"],"studentTrueClassroom":"B","exampleSet":"first","trial_type":"survey-html-form","trial_index":29,"time_elapsed":576821,"internal_node_id":"0.0-28.0-0.0","params":{"nStudents":24,"maxFlips":30,"completionMinutes":45,"basePay":8,"maxBonus":9,"perTrialBonus":0.5,"perTrialBonusThreshold":0.05,"exampleCost":0.01},"classroomParams":{"A":{"a":1,"b":4},"B":{"a":4,"b":1},"C":{"a":2,"b":8},"D":{"a":8,"b":2}},"conditions":["nonSeqFull","nonSeqPartial","seqNoFeedback","seqFeedback"],"classroomPairings":[["A","B"],["C","D"]],"coinWeights":[0.2,0.5,0.8],"subjectId":"A3EA4SHCLJ1UZQ","assignmentId":"3H8DHMCCWAX7Q1P9EK2VNJO2WPJKDC","hitId":"3NI0WFPPI9246I5W92FX9A3E2GN605","url":"https://gershmanlab.com/experiments/alicia/teaching/experiment/?hitId=3NI0WFPPI9246I5W92FX9A3E2GN605&workerId=A3EA4SHCLJ1UZQ&assignmentId=3H8DHMCCWAX7Q1P9EK2VNJO2WPJKDC&a=CH8H9&tp_a=CH8H9&b=3H8DHMCCWAX7Q1P9EK2VNJO2WPJKDC&tp_b=3H8DHMCCWAX7Q1P9EK2VNJO2WPJKDC&c=365799&tp_c=365799","heads":8,"tails":0,"studentIndex":3,"studentTrueHypers":{"a":4,"b":1},"studentGuess":0.9230769230769231,"delta":0.12307692307692308,"totalExamples":8,"bonusSoFar":0},{"rt":6841,"response":{"heads":"8","tails":"0"},"type":"response","condition":"seqNoFeedback","trueTheta":0.8,"classrooms":["A","B"],"studentTrueClassroom":"B","exampleSet":"second","trial_type":"survey-html-form","trial_index":32,"time_elapsed":590171,"internal_node_id":"0.0-31.0-0.0","params":{"nStudents":24,"maxFlips":30,"completionMinutes":45,"basePay":8,"maxBonus":9,"perTrialBonus":0.5,"perTrialBonusThreshold":0.05,"exampleCost":0.01},"classroomParams":{"A":{"a":1,"b":4},"B":{"a":4,"b":1},"C":{"a":2,"b":8},"D":{"a":8,"b":2}},"conditions":["nonSeqFull","nonSeqPartial","seqNoFeedback","seqFeedback"],"classroomPairings":[["A","B"],["C","D"]],"coinWeights":[0.2,0.5,0.8],"subjectId":"A3EA4SHCLJ1UZQ","assignmentId":"3H8DHMCCWAX7Q1P9EK2VNJO2WPJKDC","hitId":"3NI0WFPPI9246I5W92FX9A3E2GN605","url":"https://gershmanlab.com/experiments/alicia/teaching/experiment/?hitId=3NI0WFPPI9246I5W92FX9A3E2GN605&workerId=A3EA4SHCLJ1UZQ&assignmentId=3H8DHMCCWAX7Q1P9EK2VNJO2WPJKDC&a=CH8H9&tp_a=CH8H9&b=3H8DHMCCWAX7Q1P9EK2VNJO2WPJKDC&tp_b=3H8DHMCCWAX7Q1P9EK2VNJO2WPJKDC&c=365799&tp_c=365799","firstResponseHeads":8,"firstResponseTails":0,"secondResponseHeads":8,"secondResponseTails":0,"totalHeads":16,"totalTails":0,"studentIndex":3,"studentTrueHypers":{"a":4,"b":1},"studentGuess":0.9523809523809523,"delta":0.15238095238095228,"bonus":0,"bonusSoFar":0,"totalExamples":16},{"rt":8050,"response":{"heads":"15","tails":"15"},"type":"response","condition":"nonSeqFull","trueTheta":0.5,"classrooms":["C","D"],"studentTrueClassroom":"C","exampleSet":"first","trial_type":"survey-html-form","trial_index":38,"time_elapsed":614328,"internal_node_id":"0.0-37.0-0.0","params":{"nStudents":24,"maxFlips":30,"completionMinutes":45,"basePay":8,"maxBonus":9,"perTrialBonus":0.5,"perTrialBonusThreshold":0.05,"exampleCost":0.01},"classroomParams":{"A":{"a":1,"b":4},"B":{"a":4,"b":1},"C":{"a":2,"b":8},"D":{"a":8,"b":2}},"conditions":["nonSeqFull","nonSeqPartial","seqNoFeedback","seqFeedback"],"classroomPairings":[["A","B"],["C","D"]],"coinWeights":[0.2,0.5,0.8],"subjectId":"A3EA4SHCLJ1UZQ","assignmentId":"3H8DHMCCWAX7Q1P9EK2VNJO2WPJKDC","hitId":"3NI0WFPPI9246I5W92FX9A3E2GN605","url":"https://gershmanlab.com/experiments/alicia/teaching/experiment/?hitId=3NI0WFPPI9246I5W92FX9A3E2GN605&workerId=A3EA4SHCLJ1UZQ&assignmentId=3H8DHMCCWAX7Q1P9EK2VNJO2WPJKDC&a=CH8H9&tp_a=CH8H9&b=3H8DHMCCWAX7Q1P9EK2VNJO2WPJKDC&tp_b=3H8DHMCCWAX7Q1P9EK2VNJO2WPJKDC&c=365799&tp_c=365799","heads":15,"tails":15,"studentIndex":4,"studentTrueHypers":{"a":2,"b":8},"studentGuess":0.425,"delta":0.07500000000000001,"totalExamples":30,"bonus":0,"bonusSoFar":0},{"rt":17199,"response":{"heads":"2","tails":"8"},"type":"response","condition":"seqNoFeedback","trueTheta":0.8,"classrooms":["C","D"],"studentTrueClassroom":"D","exampleSet":"first","trial_type":"survey-html-form","trial_index":44,"time_elapsed":688825,"internal_node_id":"0.0-43.0-0.0","params":{"nStudents":24,"maxFlips":30,"completionMinutes":45,"basePay":8,"maxBonus":9,"perTrialBonus":0.5,"perTrialBonusThreshold":0.05,"exampleCost":0.01},"classroomParams":{"A":{"a":1,"b":4},"B":{"a":4,"b":1},"C":{"a":2,"b":8},"D":{"a":8,"b":2}},"conditions":["nonSeqFull","nonSeqPartial","seqNoFeedback","seqFeedback"],"classroomPairings":[["A","B"],["C","D"]],"coinWeights":[0.2,0.5,0.8],"subjectId":"A3EA4SHCLJ1UZQ","assignmentId":"3H8DHMCCWAX7Q1P9EK2VNJO2WPJKDC","hitId":"3NI0WFPPI9246I5W92FX9A3E2GN605","url":"https://gershmanlab.com/experiments/alicia/teaching/experiment/?hitId=3NI0WFPPI9246I5W92FX9A3E2GN605&workerId=A3EA4SHCLJ1UZQ&assignmentId=3H8DHMCCWAX7Q1P9EK2VNJO2WPJKDC&a=CH8H9&tp_a=CH8H9&b=3H8DHMCCWAX7Q1P9EK2VNJO2WPJKDC&tp_b=3H8DHMCCWAX7Q1P9EK2VNJO2WPJKDC&c=365799&tp_c=365799","heads":2,"tails":8,"studentIndex":5,"studentTrueHypers":{"a":8,"b":2},"studentGuess":0.5,"delta":0.30000000000000004,"totalExamples":10,"bonusSoFar":0},{"rt":11446,"response":{"heads":"8","tails":"2"},"type":"response","condition":"seqNoFeedback","trueTheta":0.8,"classrooms":["C","D"],"studentTrueClassroom":"D","exampleSet":"second","trial_type":"survey-html-form","trial_index":47,"time_elapsed":708277,"internal_node_id":"0.0-46.0-0.0","params":{"nStudents":24,"maxFlips":30,"completionMinutes":45,"basePay":8,"maxBonus":9,"perTrialBonus":0.5,"perTrialBonusThreshold":0.05,"exampleCost":0.01},"classroomParams":{"A":{"a":1,"b":4},"B":{"a":4,"b":1},"C":{"a":2,"b":8},"D":{"a":8,"b":2}},"conditions":["nonSeqFull","nonSeqPartial","seqNoFeedback","seqFeedback"],"classroomPairings":[["A","B"],["C","D"]],"coinWeights":[0.2,0.5,0.8],"subjectId":"A3EA4SHCLJ1UZQ","assignmentId":"3H8DHMCCWAX7Q1P9EK2VNJO2WPJKDC","hitId":"3NI0WFPPI9246I5W92FX9A3E2GN605","url":"https://gershmanlab.com/experiments/alicia/teaching/experiment/?hitId=3NI0WFPPI9246I5W92FX9A3E2GN605&workerId=A3EA4SHCLJ1UZQ&assignmentId=3H8DHMCCWAX7Q1P9EK2VNJO2WPJKDC&a=CH8H9&tp_a=CH8H9&b=3H8DHMCCWAX7Q1P9EK2VNJO2WPJKDC&tp_b=3H8DHMCCWAX7Q1P9EK2VNJO2WPJKDC&c=365799&tp_c=365799","firstResponseHeads":2,"firstResponseTails":8,"secondResponseHeads":8,"secondResponseTails":2,"totalHeads":10,"totalTails":10,"studentIndex":5,"studentTrueHypers":{"a":8,"b":2},"studentGuess":0.6,"delta":0.20000000000000007,"bonus":0,"bonusSoFar":0,"totalExamples":20},{"rt":12416,"response":{"heads":"10","tails":"2"},"type":"response","condition":"seqFeedback","trueTheta":0.8,"classrooms":["C","D"],"studentTrueClassroom":"D","exampleSet":"first","trial_type":"survey-html-form","trial_index":53,"time_elapsed":741838,"internal_node_id":"0.0-52.0-0.0","params":{"nStudents":24,"maxFlips":30,"completionMinutes":45,"basePay":8,"maxBonus":9,"perTrialBonus":0.5,"perTrialBonusThreshold":0.05,"exampleCost":0.01},"classroomParams":{"A":{"a":1,"b":4},"B":{"a":4,"b":1},"C":{"a":2,"b":8},"D":{"a":8,"b":2}},"conditions":["nonSeqFull","nonSeqPartial","seqNoFeedback","seqFeedback"],"classroomPairings":[["A","B"],["C","D"]],"coinWeights":[0.2,0.5,0.8],"subjectId":"A3EA4SHCLJ1UZQ","assignmentId":"3H8DHMCCWAX7Q1P9EK2VNJO2WPJKDC","hitId":"3NI0WFPPI9246I5W92FX9A3E2GN605","url":"https://gershmanlab.com/experiments/alicia/teaching/experiment/?hitId=3NI0WFPPI9246I5W92FX9A3E2GN605&workerId=A3EA4SHCLJ1UZQ&assignmentId=3H8DHMCCWAX7Q1P9EK2VNJO2WPJKDC&a=CH8H9&tp_a=CH8H9&b=3H8DHMCCWAX7Q1P9EK2VNJO2WPJKDC&tp_b=3H8DHMCCWAX7Q1P9EK2VNJO2WPJKDC&c=365799&tp_c=365799","heads":10,"tails":2,"studentIndex":6,"studentTrueHypers":{"a":8,"b":2},"studentGuess":0.8181818181818182,"delta":0.018181818181818188,"totalExamples":12,"bonusSoFar":0},{"rt":7380,"response":{"heads":"10","tails":"2"},"type":"response","condition":"seqFeedback","trueTheta":0.8,"classrooms":["C","D"],"studentTrueClassroom":"D","exampleSet":"second","trial_type":"survey-html-form","trial_index":57,"time_elapsed":762839,"internal_node_id":"0.0-56.0-0.0","params":{"nStudents":24,"maxFlips":30,"completionMinutes":45,"basePay":8,"maxBonus":9,"perTrialBonus":0.5,"perTrialBonusThreshold":0.05,"exampleCost":0.01},"classroomParams":{"A":{"a":1,"b":4},"B":{"a":4,"b":1},"C":{"a":2,"b":8},"D":{"a":8,"b":2}},"conditions":["nonSeqFull","nonSeqPartial","seqNoFeedback","seqFeedback"],"classroomPairings":[["A","B"],["C","D"]],"coinWeights":[0.2,0.5,0.8],"subjectId":"A3EA4SHCLJ1UZQ","assignmentId":"3H8DHMCCWAX7Q1P9EK2VNJO2WPJKDC","hitId":"3NI0WFPPI9246I5W92FX9A3E2GN605","url":"https://gershmanlab.com/experiments/alicia/teaching/experiment/?hitId=3NI0WFPPI9246I5W92FX9A3E2GN605&workerId=A3EA4SHCLJ1UZQ&assignmentId=3H8DHMCCWAX7Q1P9EK2VNJO2WPJKDC&a=CH8H9&tp_a=CH8H9&b=3H8DHMCCWAX7Q1P9EK2VNJO2WPJKDC&tp_b=3H8DHMCCWAX7Q1P9EK2VNJO2WPJKDC&c=365799&tp_c=365799","firstResponseHeads":10,"firstResponseTails":2,"secondResponseHeads":10,"secondResponseTails":2,"totalHeads":20,"totalTails":4,"studentIndex":6,"studentTrueHypers":{"a":8,"b":2},"studentGuess":0.8235294117647058,"delta":0.0235294117647058,"bonus":0.26,"bonusSoFar":0.26,"totalExamples":24},{"rt":8453,"response":{"heads":"10","tails":"2"},"type":"response","condition":"nonSeqFull","trueTheta":0.8,"classrooms":["A","B"],"studentTrueClassroom":"B","exampleSet":"first","trial_type":"survey-html-form","trial_index":63,"time_elapsed":789003,"internal_node_id":"0.0-62.0-0.0","params":{"nStudents":24,"maxFlips":30,"completionMinutes":45,"basePay":8,"maxBonus":9,"perTrialBonus":0.5,"perTrialBonusThreshold":0.05,"exampleCost":0.01},"classroomParams":{"A":{"a":1,"b":4},"B":{"a":4,"b":1},"C":{"a":2,"b":8},"D":{"a":8,"b":2}},"conditions":["nonSeqFull","nonSeqPartial","seqNoFeedback","seqFeedback"],"classroomPairings":[["A","B"],["C","D"]],"coinWeights":[0.2,0.5,0.8],"subjectId":"A3EA4SHCLJ1UZQ","assignmentId":"3H8DHMCCWAX7Q1P9EK2VNJO2WPJKDC","hitId":"3NI0WFPPI9246I5W92FX9A3E2GN605","url":"https://gershmanlab.com/experiments/alicia/teaching/experiment/?hitId=3NI0WFPPI9246I5W92FX9A3E2GN605&workerId=A3EA4SHCLJ1UZQ&assignmentId=3H8DHMCCWAX7Q1P9EK2VNJO2WPJKDC&a=CH8H9&tp_a=CH8H9&b=3H8DHMCCWAX7Q1P9EK2VNJO2WPJKDC&tp_b=3H8DHMCCWAX7Q1P9EK2VNJO2WPJKDC&c=365799&tp_c=365799","heads":10,"tails":2,"studentIndex":7,"studentTrueHypers":{"a":4,"b":1},"studentGuess":0.8235294117647058,"delta":0.0235294117647058,"totalExamples":12,"bonus":0.38,"bonusSoFar":0.64},{"rt":5188,"response":{"heads":"2","tails":"10"},"type":"response","condition":"seqFeedback","trueTheta":0.2,"classrooms":["A","B"],"studentTrueClassroom":"B","exampleSet":"first","trial_type":"survey-html-form","trial_index":69,"time_elapsed":818079,"internal_node_id":"0.0-68.0-0.0","params":{"nStudents":24,"maxFlips":30,"completionMinutes":45,"basePay":8,"maxBonus":9,"perTrialBonus":0.5,"perTrialBonusThreshold":0.05,"exampleCost":0.01},"classroomParams":{"A":{"a":1,"b":4},"B":{"a":4,"b":1},"C":{"a":2,"b":8},"D":{"a":8,"b":2}},"conditions":["nonSeqFull","nonSeqPartial","seqNoFeedback","seqFeedback"],"classroomPairings":[["A","B"],["C","D"]],"coinWeights":[0.2,0.5,0.8],"subjectId":"A3EA4SHCLJ1UZQ","assignmentId":"3H8DHMCCWAX7Q1P9EK2VNJO2WPJKDC","hitId":"3NI0WFPPI9246I5W92FX9A3E2GN605","url":"https://gershmanlab.com/experiments/alicia/teaching/experiment/?hitId=3NI0WFPPI9246I5W92FX9A3E2GN605&workerId=A3EA4SHCLJ1UZQ&assignmentId=3H8DHMCCWAX7Q1P9EK2VNJO2WPJKDC&a=CH8H9&tp_a=CH8H9&b=3H8DHMCCWAX7Q1P9EK2VNJO2WPJKDC&tp_b=3H8DHMCCWAX7Q1P9EK2VNJO2WPJKDC&c=365799&tp_c=365799","heads":2,"tails":10,"studentIndex":8,"studentTrueHypers":{"a":4,"b":1},"studentGuess":0.35294117647058826,"delta":0.15294117647058825,"totalExamples":12,"bonusSoFar":0.64},{"rt":9669,"response":{"heads":"2","tails":"12"},"type":"response","condition":"seqFeedback","trueTheta":0.2,"classrooms":["A","B"],"studentTrueClassroom":"B","exampleSet":"second","trial_type":"survey-html-form","trial_index":73,"time_elapsed":836374,"internal_node_id":"0.0-72.0-0.0","params":{"nStudents":24,"maxFlips":30,"completionMinutes":45,"basePay":8,"maxBonus":9,"perTrialBonus":0.5,"perTrialBonusThreshold":0.05,"exampleCost":0.01},"classroomParams":{"A":{"a":1,"b":4},"B":{"a":4,"b":1},"C":{"a":2,"b":8},"D":{"a":8,"b":2}},"conditions":["nonSeqFull","nonSeqPartial","seqNoFeedback","seqFeedback"],"classroomPairings":[["A","B"],["C","D"]],"coinWeights":[0.2,0.5,0.8],"subjectId":"A3EA4SHCLJ1UZQ","assignmentId":"3H8DHMCCWAX7Q1P9EK2VNJO2WPJKDC","hitId":"3NI0WFPPI9246I5W92FX9A3E2GN605","url":"https://gershmanlab.com/experiments/alicia/teaching/experiment/?hitId=3NI0WFPPI9246I5W92FX9A3E2GN605&workerId=A3EA4SHCLJ1UZQ&assignmentId=3H8DHMCCWAX7Q1P9EK2VNJO2WPJKDC&a=CH8H9&tp_a=CH8H9&b=3H8DHMCCWAX7Q1P9EK2VNJO2WPJKDC&tp_b=3H8DHMCCWAX7Q1P9EK2VNJO2WPJKDC&c=365799&tp_c=365799","firstResponseHeads":2,"firstResponseTails":10,"secondResponseHeads":2,"secondResponseTails":12,"totalHeads":4,"totalTails":22,"studentIndex":8,"studentTrueHypers":{"a":4,"b":1},"studentGuess":0.25806451612903225,"delta":0.05806451612903224,"bonus":0,"bonusSoFar":0.64,"totalExamples":26},{"rt":15399,"response":{"heads":"1","tails":"1"},"type":"response","condition":"nonSeqFull","trueTheta":0.5,"classrooms":["A","B"],"studentTrueClassroom":"B","exampleSet":"first","trial_type":"survey-html-form","trial_index":79,"time_elapsed":869394,"internal_node_id":"0.0-78.0-0.0","params":{"nStudents":24,"maxFlips":30,"completionMinutes":45,"basePay":8,"maxBonus":9,"perTrialBonus":0.5,"perTrialBonusThreshold":0.05,"exampleCost":0.01},"classroomParams":{"A":{"a":1,"b":4},"B":{"a":4,"b":1},"C":{"a":2,"b":8},"D":{"a":8,"b":2}},"conditions":["nonSeqFull","nonSeqPartial","seqNoFeedback","seqFeedback"],"classroomPairings":[["A","B"],["C","D"]],"coinWeights":[0.2,0.5,0.8],"subjectId":"A3EA4SHCLJ1UZQ","assignmentId":"3H8DHMCCWAX7Q1P9EK2VNJO2WPJKDC","hitId":"3NI0WFPPI9246I5W92FX9A3E2GN605","url":"https://gershmanlab.com/experiments/alicia/teaching/experiment/?hitId=3NI0WFPPI9246I5W92FX9A3E2GN605&workerId=A3EA4SHCLJ1UZQ&assignmentId=3H8DHMCCWAX7Q1P9EK2VNJO2WPJKDC&a=CH8H9&tp_a=CH8H9&b=3H8DHMCCWAX7Q1P9EK2VNJO2WPJKDC&tp_b=3H8DHMCCWAX7Q1P9EK2VNJO2WPJKDC&c=365799&tp_c=365799","heads":1,"tails":1,"studentIndex":9,"studentTrueHypers":{"a":4,"b":1},"studentGuess":0.7142857142857143,"delta":0.2142857142857143,"totalExamples":2,"bonus":0,"bonusSoFar":0.64},{"rt":12132,"response":{"heads":"8","tails":"8"},"type":"response","condition":"nonSeqPartial","trueTheta":0.5,"classrooms":["C","D"],"studentTrueClassroom":"C","exampleSet":"first","trial_type":"survey-html-form","trial_index":85,"time_elapsed":895328,"internal_node_id":"0.0-84.0-0.0","params":{"nStudents":24,"maxFlips":30,"completionMinutes":45,"basePay":8,"maxBonus":9,"perTrialBonus":0.5,"perTrialBonusThreshold":0.05,"exampleCost":0.01},"classroomParams":{"A":{"a":1,"b":4},"B":{"a":4,"b":1},"C":{"a":2,"b":8},"D":{"a":8,"b":2}},"conditions":["nonSeqFull","nonSeqPartial","seqNoFeedback","seqFeedback"],"classroomPairings":[["A","B"],["C","D"]],"coinWeights":[0.2,0.5,0.8],"subjectId":"A3EA4SHCLJ1UZQ","assignmentId":"3H8DHMCCWAX7Q1P9EK2VNJO2WPJKDC","hitId":"3NI0WFPPI9246I5W92FX9A3E2GN605","url":"https://gershmanlab.com/experiments/alicia/teaching/experiment/?hitId=3NI0WFPPI9246I5W92FX9A3E2GN605&workerId=A3EA4SHCLJ1UZQ&assignmentId=3H8DHMCCWAX7Q1P9EK2VNJO2WPJKDC&a=CH8H9&tp_a=CH8H9&b=3H8DHMCCWAX7Q1P9EK2VNJO2WPJKDC&tp_b=3H8DHMCCWAX7Q1P9EK2VNJO2WPJKDC&c=365799&tp_c=365799","heads":8,"tails":8,"studentIndex":10,"studentTrueHypers":{"a":2,"b":8},"studentGuess":0.38461538461538464,"delta":0.11538461538461536,"totalExamples":16,"bonus":0,"bonusSoFar":0.64},{"rt":5140,"response":{"heads":"2","tails":"14"},"type":"response","condition":"nonSeqFull","trueTheta":0.2,"classrooms":["C","D"],"studentTrueClassroom":"D","exampleSet":"first","trial_type":"survey-html-form","trial_index":91,"time_elapsed":912242,"internal_node_id":"0.0-90.0-0.0","params":{"nStudents":24,"maxFlips":30,"completionMinutes":45,"basePay":8,"maxBonus":9,"perTrialBonus":0.5,"perTrialBonusThreshold":0.05,"exampleCost":0.01},"classroomParams":{"A":{"a":1,"b":4},"B":{"a":4,"b":1},"C":{"a":2,"b":8},"D":{"a":8,"b":2}},"conditions":["nonSeqFull","nonSeqPartial","seqNoFeedback","seqFeedback"],"classroomPairings":[["A","B"],["C","D"]],"coinWeights":[0.2,0.5,0.8],"subjectId":"A3EA4SHCLJ1UZQ","assignmentId":"3H8DHMCCWAX7Q1P9EK2VNJO2WPJKDC","hitId":"3NI0WFPPI9246I5W92FX9A3E2GN605","url":"https://gershmanlab.com/experiments/alicia/teaching/experiment/?hitId=3NI0WFPPI9246I5W92FX9A3E2GN605&workerId=A3EA4SHCLJ1UZQ&assignmentId=3H8DHMCCWAX7Q1P9EK2VNJO2WPJKDC&a=CH8H9&tp_a=CH8H9&b=3H8DHMCCWAX7Q1P9EK2VNJO2WPJKDC&tp_b=3H8DHMCCWAX7Q1P9EK2VNJO2WPJKDC&c=365799&tp_c=365799","heads":2,"tails":14,"studentIndex":11,"studentTrueHypers":{"a":8,"b":2},"studentGuess":0.38461538461538464,"delta":0.18461538461538463,"totalExamples":16,"bonus":0,"bonusSoFar":0.64},{"rt":4851,"response":{"heads":"1","tails":"1"},"type":"response","condition":"seqNoFeedback","trueTheta":0.5,"classrooms":["A","B"],"studentTrueClassroom":"B","exampleSet":"first","trial_type":"survey-html-form","trial_index":97,"time_elapsed":930077,"internal_node_id":"0.0-96.0-0.0","params":{"nStudents":24,"maxFlips":30,"completionMinutes":45,"basePay":8,"maxBonus":9,"perTrialBonus":0.5,"perTrialBonusThreshold":0.05,"exampleCost":0.01},"classroomParams":{"A":{"a":1,"b":4},"B":{"a":4,"b":1},"C":{"a":2,"b":8},"D":{"a":8,"b":2}},"conditions":["nonSeqFull","nonSeqPartial","seqNoFeedback","seqFeedback"],"classroomPairings":[["A","B"],["C","D"]],"coinWeights":[0.2,0.5,0.8],"subjectId":"A3EA4SHCLJ1UZQ","assignmentId":"3H8DHMCCWAX7Q1P9EK2VNJO2WPJKDC","hitId":"3NI0WFPPI9246I5W92FX9A3E2GN605","url":"https://gershmanlab.com/experiments/alicia/teaching/experiment/?hitId=3NI0WFPPI9246I5W92FX9A3E2GN605&workerId=A3EA4SHCLJ1UZQ&assignmentId=3H8DHMCCWAX7Q1P9EK2VNJO2WPJKDC&a=CH8H9&tp_a=CH8H9&b=3H8DHMCCWAX7Q1P9EK2VNJO2WPJKDC&tp_b=3H8DHMCCWAX7Q1P9EK2VNJO2WPJKDC&c=365799&tp_c=365799","heads":1,"tails":1,"studentIndex":12,"studentTrueHypers":{"a":4,"b":1},"studentGuess":0.7142857142857143,"delta":0.2142857142857143,"totalExamples":2,"bonusSoFar":0.64},{"rt":5476,"response":{"heads":"10","tails":"10"},"type":"response","condition":"seqNoFeedback","trueTheta":0.5,"classrooms":["A","B"],"studentTrueClassroom":"B","exampleSet":"second","trial_type":"survey-html-form","trial_index":100,"time_elapsed":941559,"internal_node_id":"0.0-99.0-0.0","params":{"nStudents":24,"maxFlips":30,"completionMinutes":45,"basePay":8,"maxBonus":9,"perTrialBonus":0.5,"perTrialBonusThreshold":0.05,"exampleCost":0.01},"classroomParams":{"A":{"a":1,"b":4},"B":{"a":4,"b":1},"C":{"a":2,"b":8},"D":{"a":8,"b":2}},"conditions":["nonSeqFull","nonSeqPartial","seqNoFeedback","seqFeedback"],"classroomPairings":[["A","B"],["C","D"]],"coinWeights":[0.2,0.5,0.8],"subjectId":"A3EA4SHCLJ1UZQ","assignmentId":"3H8DHMCCWAX7Q1P9EK2VNJO2WPJKDC","hitId":"3NI0WFPPI9246I5W92FX9A3E2GN605","url":"https://gershmanlab.com/experiments/alicia/teaching/experiment/?hitId=3NI0WFPPI9246I5W92FX9A3E2GN605&workerId=A3EA4SHCLJ1UZQ&assignmentId=3H8DHMCCWAX7Q1P9EK2VNJO2WPJKDC&a=CH8H9&tp_a=CH8H9&b=3H8DHMCCWAX7Q1P9EK2VNJO2WPJKDC&tp_b=3H8DHMCCWAX7Q1P9EK2VNJO2WPJKDC&c=365799&tp_c=365799","firstResponseHeads":1,"firstResponseTails":1,"secondResponseHeads":10,"secondResponseTails":10,"totalHeads":11,"totalTails":11,"studentIndex":12,"studentTrueHypers":{"a":4,"b":1},"studentGuess":0.5555555555555556,"delta":0.05555555555555558,"bonus":0,"bonusSoFar":0.64,"totalExamples":22},{"rt":6733,"response":{"heads":"2","tails":"14"},"type":"response","condition":"seqNoFeedback","trueTheta":0.2,"classrooms":["A","B"],"studentTrueClassroom":"B","exampleSet":"first","trial_type":"survey-html-form","trial_index":106,"time_elapsed":964139,"internal_node_id":"0.0-105.0-0.0","params":{"nStudents":24,"maxFlips":30,"completionMinutes":45,"basePay":8,"maxBonus":9,"perTrialBonus":0.5,"perTrialBonusThreshold":0.05,"exampleCost":0.01},"classroomParams":{"A":{"a":1,"b":4},"B":{"a":4,"b":1},"C":{"a":2,"b":8},"D":{"a":8,"b":2}},"conditions":["nonSeqFull","nonSeqPartial","seqNoFeedback","seqFeedback"],"classroomPairings":[["A","B"],["C","D"]],"coinWeights":[0.2,0.5,0.8],"subjectId":"A3EA4SHCLJ1UZQ","assignmentId":"3H8DHMCCWAX7Q1P9EK2VNJO2WPJKDC","hitId":"3NI0WFPPI9246I5W92FX9A3E2GN605","url":"https://gershmanlab.com/experiments/alicia/teaching/experiment/?hitId=3NI0WFPPI9246I5W92FX9A3E2GN605&workerId=A3EA4SHCLJ1UZQ&assignmentId=3H8DHMCCWAX7Q1P9EK2VNJO2WPJKDC&a=CH8H9&tp_a=CH8H9&b=3H8DHMCCWAX7Q1P9EK2VNJO2WPJKDC&tp_b=3H8DHMCCWAX7Q1P9EK2VNJO2WPJKDC&c=365799&tp_c=365799","heads":2,"tails":14,"studentIndex":13,"studentTrueHypers":{"a":4,"b":1},"studentGuess":0.2857142857142857,"delta":0.08571428571428569,"totalExamples":16,"bonusSoFar":0.64},{"rt":4001,"response":{"heads":"2","tails":"14"},"type":"response","condition":"seqNoFeedback","trueTheta":0.2,"classrooms":["A","B"],"studentTrueClassroom":"B","exampleSet":"second","trial_type":"survey-html-form","trial_index":109,"time_elapsed":974649,"internal_node_id":"0.0-108.0-0.0","params":{"nStudents":24,"maxFlips":30,"completionMinutes":45,"basePay":8,"maxBonus":9,"perTrialBonus":0.5,"perTrialBonusThreshold":0.05,"exampleCost":0.01},"classroomParams":{"A":{"a":1,"b":4},"B":{"a":4,"b":1},"C":{"a":2,"b":8},"D":{"a":8,"b":2}},"conditions":["nonSeqFull","nonSeqPartial","seqNoFeedback","seqFeedback"],"classroomPairings":[["A","B"],["C","D"]],"coinWeights":[0.2,0.5,0.8],"subjectId":"A3EA4SHCLJ1UZQ","assignmentId":"3H8DHMCCWAX7Q1P9EK2VNJO2WPJKDC","hitId":"3NI0WFPPI9246I5W92FX9A3E2GN605","url":"https://gershmanlab.com/experiments/alicia/teaching/experiment/?hitId=3NI0WFPPI9246I5W92FX9A3E2GN605&workerId=A3EA4SHCLJ1UZQ&assignmentId=3H8DHMCCWAX7Q1P9EK2VNJO2WPJKDC&a=CH8H9&tp_a=CH8H9&b=3H8DHMCCWAX7Q1P9EK2VNJO2WPJKDC&tp_b=3H8DHMCCWAX7Q1P9EK2VNJO2WPJKDC&c=365799&tp_c=365799","firstResponseHeads":2,"firstResponseTails":14,"secondResponseHeads":2,"secondResponseTails":14,"totalHeads":4,"totalTails":28,"studentIndex":13,"studentTrueHypers":{"a":4,"b":1},"studentGuess":0.21621621621621623,"delta":0.016216216216216217,"bonus":0.18,"bonusSoFar":0.82,"totalExamples":32},{"rt":3473,"response":{"heads":"5","tails":"5"},"type":"response","condition":"seqNoFeedback","trueTheta":0.5,"classrooms":["C","D"],"studentTrueClassroom":"C","exampleSet":"first","trial_type":"survey-html-form","trial_index":115,"time_elapsed":992210,"internal_node_id":"0.0-114.0-0.0","params":{"nStudents":24,"maxFlips":30,"completionMinutes":45,"basePay":8,"maxBonus":9,"perTrialBonus":0.5,"perTrialBonusThreshold":0.05,"exampleCost":0.01},"classroomParams":{"A":{"a":1,"b":4},"B":{"a":4,"b":1},"C":{"a":2,"b":8},"D":{"a":8,"b":2}},"conditions":["nonSeqFull","nonSeqPartial","seqNoFeedback","seqFeedback"],"classroomPairings":[["A","B"],["C","D"]],"coinWeights":[0.2,0.5,0.8],"subjectId":"A3EA4SHCLJ1UZQ","assignmentId":"3H8DHMCCWAX7Q1P9EK2VNJO2WPJKDC","hitId":"3NI0WFPPI9246I5W92FX9A3E2GN605","url":"https://gershmanlab.com/experiments/alicia/teaching/experiment/?hitId=3NI0WFPPI9246I5W92FX9A3E2GN605&workerId=A3EA4SHCLJ1UZQ&assignmentId=3H8DHMCCWAX7Q1P9EK2VNJO2WPJKDC&a=CH8H9&tp_a=CH8H9&b=3H8DHMCCWAX7Q1P9EK2VNJO2WPJKDC&tp_b=3H8DHMCCWAX7Q1P9EK2VNJO2WPJKDC&c=365799&tp_c=365799","heads":5,"tails":5,"studentIndex":14,"studentTrueHypers":{"a":2,"b":8},"studentGuess":0.35,"delta":0.15000000000000002,"totalExamples":10,"bonusSoFar":0.82},{"rt":5781,"response":{"heads":"1","tails":"1"},"type":"response","condition":"seqNoFeedback","trueTheta":0.5,"classrooms":["C","D"],"studentTrueClassroom":"C","exampleSet":"second","trial_type":"survey-html-form","trial_index":118,"time_elapsed":1005247,"internal_node_id":"0.0-117.0-0.0","params":{"nStudents":24,"maxFlips":30,"completionMinutes":45,"basePay":8,"maxBonus":9,"perTrialBonus":0.5,"perTrialBonusThreshold":0.05,"exampleCost":0.01},"classroomParams":{"A":{"a":1,"b":4},"B":{"a":4,"b":1},"C":{"a":2,"b":8},"D":{"a":8,"b":2}},"conditions":["nonSeqFull","nonSeqPartial","seqNoFeedback","seqFeedback"],"classroomPairings":[["A","B"],["C","D"]],"coinWeights":[0.2,0.5,0.8],"subjectId":"A3EA4SHCLJ1UZQ","assignmentId":"3H8DHMCCWAX7Q1P9EK2VNJO2WPJKDC","hitId":"3NI0WFPPI9246I5W92FX9A3E2GN605","url":"https://gershmanlab.com/experiments/alicia/teaching/experiment/?hitId=3NI0WFPPI9246I5W92FX9A3E2GN605&workerId=A3EA4SHCLJ1UZQ&assignmentId=3H8DHMCCWAX7Q1P9EK2VNJO2WPJKDC&a=CH8H9&tp_a=CH8H9&b=3H8DHMCCWAX7Q1P9EK2VNJO2WPJKDC&tp_b=3H8DHMCCWAX7Q1P9EK2VNJO2WPJKDC&c=365799&tp_c=365799","firstResponseHeads":5,"firstResponseTails":5,"secondResponseHeads":1,"secondResponseTails":1,"totalHeads":6,"totalTails":6,"studentIndex":14,"studentTrueHypers":{"a":2,"b":8},"studentGuess":0.36363636363636365,"delta":0.13636363636363635,"bonus":0,"bonusSoFar":0.82,"totalExamples":12},{"rt":5588,"response":{"heads":"10","tails":"2"},"type":"response","condition":"nonSeqPartial","trueTheta":0.8,"classrooms":["A","B"],"studentTrueClassroom":"A","exampleSet":"first","trial_type":"survey-html-form","trial_index":124,"time_elapsed":1029210,"internal_node_id":"0.0-123.0-0.0","params":{"nStudents":24,"maxFlips":30,"completionMinutes":45,"basePay":8,"maxBonus":9,"perTrialBonus":0.5,"perTrialBonusThreshold":0.05,"exampleCost":0.01},"classroomParams":{"A":{"a":1,"b":4},"B":{"a":4,"b":1},"C":{"a":2,"b":8},"D":{"a":8,"b":2}},"conditions":["nonSeqFull","nonSeqPartial","seqNoFeedback","seqFeedback"],"classroomPairings":[["A","B"],["C","D"]],"coinWeights":[0.2,0.5,0.8],"subjectId":"A3EA4SHCLJ1UZQ","assignmentId":"3H8DHMCCWAX7Q1P9EK2VNJO2WPJKDC","hitId":"3NI0WFPPI9246I5W92FX9A3E2GN605","url":"https://gershmanlab.com/experiments/alicia/teaching/experiment/?hitId=3NI0WFPPI9246I5W92FX9A3E2GN605&workerId=A3EA4SHCLJ1UZQ&assignmentId=3H8DHMCCWAX7Q1P9EK2VNJO2WPJKDC&a=CH8H9&tp_a=CH8H9&b=3H8DHMCCWAX7Q1P9EK2VNJO2WPJKDC&tp_b=3H8DHMCCWAX7Q1P9EK2VNJO2WPJKDC&c=365799&tp_c=365799","heads":10,"tails":2,"studentIndex":15,"studentTrueHypers":{"a":1,"b":4},"studentGuess":0.6470588235294118,"delta":0.15294117647058825,"totalExamples":12,"bonus":0,"bonusSoFar":0.82},{"rt":20649,"response":{"heads":"2","tails":"10"},"type":"response","condition":"nonSeqPartial","trueTheta":0.2,"classrooms":["C","D"],"studentTrueClassroom":"C","exampleSet":"first","trial_type":"survey-html-form","trial_index":130,"time_elapsed":1063217,"internal_node_id":"0.0-129.0-0.0","params":{"nStudents":24,"maxFlips":30,"completionMinutes":45,"basePay":8,"maxBonus":9,"perTrialBonus":0.5,"perTrialBonusThreshold":0.05,"exampleCost":0.01},"classroomParams":{"A":{"a":1,"b":4},"B":{"a":4,"b":1},"C":{"a":2,"b":8},"D":{"a":8,"b":2}},"conditions":["nonSeqFull","nonSeqPartial","seqNoFeedback","seqFeedback"],"classroomPairings":[["A","B"],["C","D"]],"coinWeights":[0.2,0.5,0.8],"subjectId":"A3EA4SHCLJ1UZQ","assignmentId":"3H8DHMCCWAX7Q1P9EK2VNJO2WPJKDC","hitId":"3NI0WFPPI9246I5W92FX9A3E2GN605","url":"https://gershmanlab.com/experiments/alicia/teaching/experiment/?hitId=3NI0WFPPI9246I5W92FX9A3E2GN605&workerId=A3EA4SHCLJ1UZQ&assignmentId=3H8DHMCCWAX7Q1P9EK2VNJO2WPJKDC&a=CH8H9&tp_a=CH8H9&b=3H8DHMCCWAX7Q1P9EK2VNJO2WPJKDC&tp_b=3H8DHMCCWAX7Q1P9EK2VNJO2WPJKDC&c=365799&tp_c=365799","heads":2,"tails":10,"studentIndex":16,"studentTrueHypers":{"a":2,"b":8},"studentGuess":0.18181818181818182,"delta":0.018181818181818188,"totalExamples":12,"bonus":0.38,"bonusSoFar":1.2},{"rt":13961,"response":{"heads":"8","tails":"2"},"type":"response","condition":"nonSeqPartial","trueTheta":0.5,"classrooms":["A","B"],"studentTrueClassroom":"B","exampleSet":"first","trial_type":"survey-html-form","trial_index":136,"time_elapsed":1091284,"internal_node_id":"0.0-135.0-0.0","params":{"nStudents":24,"maxFlips":30,"completionMinutes":45,"basePay":8,"maxBonus":9,"perTrialBonus":0.5,"perTrialBonusThreshold":0.05,"exampleCost":0.01},"classroomParams":{"A":{"a":1,"b":4},"B":{"a":4,"b":1},"C":{"a":2,"b":8},"D":{"a":8,"b":2}},"conditions":["nonSeqFull","nonSeqPartial","seqNoFeedback","seqFeedback"],"classroomPairings":[["A","B"],["C","D"]],"coinWeights":[0.2,0.5,0.8],"subjectId":"A3EA4SHCLJ1UZQ","assignmentId":"3H8DHMCCWAX7Q1P9EK2VNJO2WPJKDC","hitId":"3NI0WFPPI9246I5W92FX9A3E2GN605","url":"https://gershmanlab.com/experiments/alicia/teaching/experiment/?hitId=3NI0WFPPI9246I5W92FX9A3E2GN605&workerId=A3EA4SHCLJ1UZQ&assignmentId=3H8DHMCCWAX7Q1P9EK2VNJO2WPJKDC&a=CH8H9&tp_a=CH8H9&b=3H8DHMCCWAX7Q1P9EK2VNJO2WPJKDC&tp_b=3H8DHMCCWAX7Q1P9EK2VNJO2WPJKDC&c=365799&tp_c=365799","heads":8,"tails":2,"studentIndex":17,"studentTrueHypers":{"a":4,"b":1},"studentGuess":0.8,"delta":0.30000000000000004,"totalExamples":10,"bonus":0,"bonusSoFar":1.2},{"rt":3547,"response":{"heads":"10","tails":"2"},"type":"response","condition":"nonSeqPartial","trueTheta":0.8,"classrooms":["C","D"],"studentTrueClassroom":"D","exampleSet":"first","trial_type":"survey-html-form","trial_index":142,"time_elapsed":1105907,"internal_node_id":"0.0-141.0-0.0","params":{"nStudents":24,"maxFlips":30,"completionMinutes":45,"basePay":8,"maxBonus":9,"perTrialBonus":0.5,"perTrialBonusThreshold":0.05,"exampleCost":0.01},"classroomParams":{"A":{"a":1,"b":4},"B":{"a":4,"b":1},"C":{"a":2,"b":8},"D":{"a":8,"b":2}},"conditions":["nonSeqFull","nonSeqPartial","seqNoFeedback","seqFeedback"],"classroomPairings":[["A","B"],["C","D"]],"coinWeights":[0.2,0.5,0.8],"subjectId":"A3EA4SHCLJ1UZQ","assignmentId":"3H8DHMCCWAX7Q1P9EK2VNJO2WPJKDC","hitId":"3NI0WFPPI9246I5W92FX9A3E2GN605","url":"https://gershmanlab.com/experiments/alicia/teaching/experiment/?hitId=3NI0WFPPI9246I5W92FX9A3E2GN605&workerId=A3EA4SHCLJ1UZQ&assignmentId=3H8DHMCCWAX7Q1P9EK2VNJO2WPJKDC&a=CH8H9&tp_a=CH8H9&b=3H8DHMCCWAX7Q1P9EK2VNJO2WPJKDC&tp_b=3H8DHMCCWAX7Q1P9EK2VNJO2WPJKDC&c=365799&tp_c=365799","heads":10,"tails":2,"studentIndex":18,"studentTrueHypers":{"a":8,"b":2},"studentGuess":0.8181818181818182,"delta":0.018181818181818188,"totalExamples":12,"bonus":0.38,"bonusSoFar":1.58},{"rt":8610,"response":{"heads":"1","tails":"10"},"type":"response","condition":"nonSeqFull","trueTheta":0.2,"classrooms":["A","B"],"studentTrueClassroom":"B","exampleSet":"first","trial_type":"survey-html-form","trial_index":148,"time_elapsed":1127147,"internal_node_id":"0.0-147.0-0.0","params":{"nStudents":24,"maxFlips":30,"completionMinutes":45,"basePay":8,"maxBonus":9,"perTrialBonus":0.5,"perTrialBonusThreshold":0.05,"exampleCost":0.01},"classroomParams":{"A":{"a":1,"b":4},"B":{"a":4,"b":1},"C":{"a":2,"b":8},"D":{"a":8,"b":2}},"conditions":["nonSeqFull","nonSeqPartial","seqNoFeedback","seqFeedback"],"classroomPairings":[["A","B"],["C","D"]],"coinWeights":[0.2,0.5,0.8],"subjectId":"A3EA4SHCLJ1UZQ","assignmentId":"3H8DHMCCWAX7Q1P9EK2VNJO2WPJKDC","hitId":"3NI0WFPPI9246I5W92FX9A3E2GN605","url":"https://gershmanlab.com/experiments/alicia/teaching/experiment/?hitId=3NI0WFPPI9246I5W92FX9A3E2GN605&workerId=A3EA4SHCLJ1UZQ&assignmentId=3H8DHMCCWAX7Q1P9EK2VNJO2WPJKDC&a=CH8H9&tp_a=CH8H9&b=3H8DHMCCWAX7Q1P9EK2VNJO2WPJKDC&tp_b=3H8DHMCCWAX7Q1P9EK2VNJO2WPJKDC&c=365799&tp_c=365799","heads":1,"tails":10,"studentIndex":19,"studentTrueHypers":{"a":4,"b":1},"studentGuess":0.3125,"delta":0.11249999999999999,"totalExamples":11,"bonus":0,"bonusSoFar":1.58},{"rt":4103,"response":{"heads":"2","tails":"10"},"type":"response","condition":"seqNoFeedback","trueTheta":0.2,"classrooms":["C","D"],"studentTrueClassroom":"D","exampleSet":"first","trial_type":"survey-html-form","trial_index":154,"time_elapsed":1142140,"internal_node_id":"0.0-153.0-0.0","params":{"nStudents":24,"maxFlips":30,"completionMinutes":45,"basePay":8,"maxBonus":9,"perTrialBonus":0.5,"perTrialBonusThreshold":0.05,"exampleCost":0.01},"classroomParams":{"A":{"a":1,"b":4},"B":{"a":4,"b":1},"C":{"a":2,"b":8},"D":{"a":8,"b":2}},"conditions":["nonSeqFull","nonSeqPartial","seqNoFeedback","seqFeedback"],"classroomPairings":[["A","B"],["C","D"]],"coinWeights":[0.2,0.5,0.8],"subjectId":"A3EA4SHCLJ1UZQ","assignmentId":"3H8DHMCCWAX7Q1P9EK2VNJO2WPJKDC","hitId":"3NI0WFPPI9246I5W92FX9A3E2GN605","url":"https://gershmanlab.com/experiments/alicia/teaching/experiment/?hitId=3NI0WFPPI9246I5W92FX9A3E2GN605&workerId=A3EA4SHCLJ1UZQ&assignmentId=3H8DHMCCWAX7Q1P9EK2VNJO2WPJKDC&a=CH8H9&tp_a=CH8H9&b=3H8DHMCCWAX7Q1P9EK2VNJO2WPJKDC&tp_b=3H8DHMCCWAX7Q1P9EK2VNJO2WPJKDC&c=365799&tp_c=365799","heads":2,"tails":10,"studentIndex":20,"studentTrueHypers":{"a":8,"b":2},"studentGuess":0.45454545454545453,"delta":0.2545454545454545,"totalExamples":12,"bonusSoFar":1.58},{"rt":9763,"response":{"heads":"1","tails":"20"},"type":"response","condition":"seqNoFeedback","trueTheta":0.2,"classrooms":["C","D"],"studentTrueClassroom":"D","exampleSet":"second","trial_type":"survey-html-form","trial_index":157,"time_elapsed":1158411,"internal_node_id":"0.0-156.0-0.0","params":{"nStudents":24,"maxFlips":30,"completionMinutes":45,"basePay":8,"maxBonus":9,"perTrialBonus":0.5,"perTrialBonusThreshold":0.05,"exampleCost":0.01},"classroomParams":{"A":{"a":1,"b":4},"B":{"a":4,"b":1},"C":{"a":2,"b":8},"D":{"a":8,"b":2}},"conditions":["nonSeqFull","nonSeqPartial","seqNoFeedback","seqFeedback"],"classroomPairings":[["A","B"],["C","D"]],"coinWeights":[0.2,0.5,0.8],"subjectId":"A3EA4SHCLJ1UZQ","assignmentId":"3H8DHMCCWAX7Q1P9EK2VNJO2WPJKDC","hitId":"3NI0WFPPI9246I5W92FX9A3E2GN605","url":"https://gershmanlab.com/experiments/alicia/teaching/experiment/?hitId=3NI0WFPPI9246I5W92FX9A3E2GN605&workerId=A3EA4SHCLJ1UZQ&assignmentId=3H8DHMCCWAX7Q1P9EK2VNJO2WPJKDC&a=CH8H9&tp_a=CH8H9&b=3H8DHMCCWAX7Q1P9EK2VNJO2WPJKDC&tp_b=3H8DHMCCWAX7Q1P9EK2VNJO2WPJKDC&c=365799&tp_c=365799","firstResponseHeads":2,"firstResponseTails":10,"secondResponseHeads":1,"secondResponseTails":20,"totalHeads":3,"totalTails":30,"studentIndex":20,"studentTrueHypers":{"a":8,"b":2},"studentGuess":0.2558139534883721,"delta":0.05581395348837209,"bonus":0,"bonusSoFar":1.58,"totalExamples":33},{"rt":4910,"response":{"heads":"2","tails":"10"},"type":"response","condition":"seqFeedback","trueTheta":0.2,"classrooms":["C","D"],"studentTrueClassroom":"D","exampleSet":"first","trial_type":"survey-html-form","trial_index":163,"time_elapsed":1179197,"internal_node_id":"0.0-162.0-0.0","params":{"nStudents":24,"maxFlips":30,"completionMinutes":45,"basePay":8,"maxBonus":9,"perTrialBonus":0.5,"perTrialBonusThreshold":0.05,"exampleCost":0.01},"classroomParams":{"A":{"a":1,"b":4},"B":{"a":4,"b":1},"C":{"a":2,"b":8},"D":{"a":8,"b":2}},"conditions":["nonSeqFull","nonSeqPartial","seqNoFeedback","seqFeedback"],"classroomPairings":[["A","B"],["C","D"]],"coinWeights":[0.2,0.5,0.8],"subjectId":"A3EA4SHCLJ1UZQ","assignmentId":"3H8DHMCCWAX7Q1P9EK2VNJO2WPJKDC","hitId":"3NI0WFPPI9246I5W92FX9A3E2GN605","url":"https://gershmanlab.com/experiments/alicia/teaching/experiment/?hitId=3NI0WFPPI9246I5W92FX9A3E2GN605&workerId=A3EA4SHCLJ1UZQ&assignmentId=3H8DHMCCWAX7Q1P9EK2VNJO2WPJKDC&a=CH8H9&tp_a=CH8H9&b=3H8DHMCCWAX7Q1P9EK2VNJO2WPJKDC&tp_b=3H8DHMCCWAX7Q1P9EK2VNJO2WPJKDC&c=365799&tp_c=365799","heads":2,"tails":10,"studentIndex":21,"studentTrueHypers":{"a":8,"b":2},"studentGuess":0.45454545454545453,"delta":0.2545454545454545,"totalExamples":12,"bonusSoFar":1.58},{"rt":6353,"response":{"heads":"1","tails":"10"},"type":"response","condition":"seqFeedback","trueTheta":0.2,"classrooms":["C","D"],"studentTrueClassroom":"D","exampleSet":"second","trial_type":"survey-html-form","trial_index":167,"time_elapsed":1197037,"internal_node_id":"0.0-166.0-0.0","params":{"nStudents":24,"maxFlips":30,"completionMinutes":45,"basePay":8,"maxBonus":9,"perTrialBonus":0.5,"perTrialBonusThreshold":0.05,"exampleCost":0.01},"classroomParams":{"A":{"a":1,"b":4},"B":{"a":4,"b":1},"C":{"a":2,"b":8},"D":{"a":8,"b":2}},"conditions":["nonSeqFull","nonSeqPartial","seqNoFeedback","seqFeedback"],"classroomPairings":[["A","B"],["C","D"]],"coinWeights":[0.2,0.5,0.8],"subjectId":"A3EA4SHCLJ1UZQ","assignmentId":"3H8DHMCCWAX7Q1P9EK2VNJO2WPJKDC","hitId":"3NI0WFPPI9246I5W92FX9A3E2GN605","url":"https://gershmanlab.com/experiments/alicia/teaching/experiment/?hitId=3NI0WFPPI9246I5W92FX9A3E2GN605&workerId=A3EA4SHCLJ1UZQ&assignmentId=3H8DHMCCWAX7Q1P9EK2VNJO2WPJKDC&a=CH8H9&tp_a=CH8H9&b=3H8DHMCCWAX7Q1P9EK2VNJO2WPJKDC&tp_b=3H8DHMCCWAX7Q1P9EK2VNJO2WPJKDC&c=365799&tp_c=365799","firstResponseHeads":2,"firstResponseTails":10,"secondResponseHeads":1,"secondResponseTails":10,"totalHeads":3,"totalTails":20,"studentIndex":21,"studentTrueHypers":{"a":8,"b":2},"studentGuess":0.3333333333333333,"delta":0.1333333333333333,"bonus":0,"bonusSoFar":1.58,"totalExamples":23},{"rt":3343,"response":{"heads":"1","tails":"1"},"type":"response","condition":"seqFeedback","trueTheta":0.5,"classrooms":["C","D"],"studentTrueClassroom":"D","exampleSet":"first","trial_type":"survey-html-form","trial_index":173,"time_elapsed":1212159,"internal_node_id":"0.0-172.0-0.0","params":{"nStudents":24,"maxFlips":30,"completionMinutes":45,"basePay":8,"maxBonus":9,"perTrialBonus":0.5,"perTrialBonusThreshold":0.05,"exampleCost":0.01},"classroomParams":{"A":{"a":1,"b":4},"B":{"a":4,"b":1},"C":{"a":2,"b":8},"D":{"a":8,"b":2}},"conditions":["nonSeqFull","nonSeqPartial","seqNoFeedback","seqFeedback"],"classroomPairings":[["A","B"],["C","D"]],"coinWeights":[0.2,0.5,0.8],"subjectId":"A3EA4SHCLJ1UZQ","assignmentId":"3H8DHMCCWAX7Q1P9EK2VNJO2WPJKDC","hitId":"3NI0WFPPI9246I5W92FX9A3E2GN605","url":"https://gershmanlab.com/experiments/alicia/teaching/experiment/?hitId=3NI0WFPPI9246I5W92FX9A3E2GN605&workerId=A3EA4SHCLJ1UZQ&assignmentId=3H8DHMCCWAX7Q1P9EK2VNJO2WPJKDC&a=CH8H9&tp_a=CH8H9&b=3H8DHMCCWAX7Q1P9EK2VNJO2WPJKDC&tp_b=3H8DHMCCWAX7Q1P9EK2VNJO2WPJKDC&c=365799&tp_c=365799","heads":1,"tails":1,"studentIndex":22,"studentTrueHypers":{"a":8,"b":2},"studentGuess":0.75,"delta":0.25,"totalExamples":2,"bonusSoFar":1.58},{"rt":4925,"response":{"heads":"1","tails":"2"},"type":"response","condition":"seqFeedback","trueTheta":0.5,"classrooms":["C","D"],"studentTrueClassroom":"D","exampleSet":"second","trial_type":"survey-html-form","trial_index":177,"time_elapsed":1225728,"internal_node_id":"0.0-176.0-0.0","params":{"nStudents":24,"maxFlips":30,"completionMinutes":45,"basePay":8,"maxBonus":9,"perTrialBonus":0.5,"perTrialBonusThreshold":0.05,"exampleCost":0.01},"classroomParams":{"A":{"a":1,"b":4},"B":{"a":4,"b":1},"C":{"a":2,"b":8},"D":{"a":8,"b":2}},"conditions":["nonSeqFull","nonSeqPartial","seqNoFeedback","seqFeedback"],"classroomPairings":[["A","B"],["C","D"]],"coinWeights":[0.2,0.5,0.8],"subjectId":"A3EA4SHCLJ1UZQ","assignmentId":"3H8DHMCCWAX7Q1P9EK2VNJO2WPJKDC","hitId":"3NI0WFPPI9246I5W92FX9A3E2GN605","url":"https://gershmanlab.com/experiments/alicia/teaching/experiment/?hitId=3NI0WFPPI9246I5W92FX9A3E2GN605&workerId=A3EA4SHCLJ1UZQ&assignmentId=3H8DHMCCWAX7Q1P9EK2VNJO2WPJKDC&a=CH8H9&tp_a=CH8H9&b=3H8DHMCCWAX7Q1P9EK2VNJO2WPJKDC&tp_b=3H8DHMCCWAX7Q1P9EK2VNJO2WPJKDC&c=365799&tp_c=365799","firstResponseHeads":1,"firstResponseTails":1,"secondResponseHeads":1,"secondResponseTails":2,"totalHeads":2,"totalTails":3,"studentIndex":22,"studentTrueHypers":{"a":8,"b":2},"studentGuess":0.6666666666666666,"delta":0.16666666666666663,"bonus":0,"bonusSoFar":1.58,"totalExamples":5},{"rt":2895,"response":{"heads":"10","tails":"2"},"type":"response","condition":"seqFeedback","trueTheta":0.8,"classrooms":["A","B"],"studentTrueClassroom":"A","exampleSet":"first","trial_type":"survey-html-form","trial_index":183,"time_elapsed":1241402,"internal_node_id":"0.0-182.0-0.0","params":{"nStudents":24,"maxFlips":30,"completionMinutes":45,"basePay":8,"maxBonus":9,"perTrialBonus":0.5,"perTrialBonusThreshold":0.05,"exampleCost":0.01},"classroomParams":{"A":{"a":1,"b":4},"B":{"a":4,"b":1},"C":{"a":2,"b":8},"D":{"a":8,"b":2}},"conditions":["nonSeqFull","nonSeqPartial","seqNoFeedback","seqFeedback"],"classroomPairings":[["A","B"],["C","D"]],"coinWeights":[0.2,0.5,0.8],"subjectId":"A3EA4SHCLJ1UZQ","assignmentId":"3H8DHMCCWAX7Q1P9EK2VNJO2WPJKDC","hitId":"3NI0WFPPI9246I5W92FX9A3E2GN605","url":"https://gershmanlab.com/experiments/alicia/teaching/experiment/?hitId=3NI0WFPPI9246I5W92FX9A3E2GN605&workerId=A3EA4SHCLJ1UZQ&assignmentId=3H8DHMCCWAX7Q1P9EK2VNJO2WPJKDC&a=CH8H9&tp_a=CH8H9&b=3H8DHMCCWAX7Q1P9EK2VNJO2WPJKDC&tp_b=3H8DHMCCWAX7Q1P9EK2VNJO2WPJKDC&c=365799&tp_c=365799","heads":10,"tails":2,"studentIndex":23,"studentTrueHypers":{"a":1,"b":4},"studentGuess":0.6470588235294118,"delta":0.15294117647058825,"totalExamples":12,"bonusSoFar":1.58},{"rt":3767,"response":{"heads":"12","tails":"2"},"type":"response","condition":"seqFeedback","trueTheta":0.8,"classrooms":["A","B"],"studentTrueClassroom":"A","exampleSet":"second","trial_type":"survey-html-form","trial_index":187,"time_elapsed":1252769,"internal_node_id":"0.0-186.0-0.0","params":{"nStudents":24,"maxFlips":30,"completionMinutes":45,"basePay":8,"maxBonus":9,"perTrialBonus":0.5,"perTrialBonusThreshold":0.05,"exampleCost":0.01},"classroomParams":{"A":{"a":1,"b":4},"B":{"a":4,"b":1},"C":{"a":2,"b":8},"D":{"a":8,"b":2}},"conditions":["nonSeqFull","nonSeqPartial","seqNoFeedback","seqFeedback"],"classroomPairings":[["A","B"],["C","D"]],"coinWeights":[0.2,0.5,0.8],"subjectId":"A3EA4SHCLJ1UZQ","assignmentId":"3H8DHMCCWAX7Q1P9EK2VNJO2WPJKDC","hitId":"3NI0WFPPI9246I5W92FX9A3E2GN605","url":"https://gershmanlab.com/experiments/alicia/teaching/experiment/?hitId=3NI0WFPPI9246I5W92FX9A3E2GN605&workerId=A3EA4SHCLJ1UZQ&assignmentId=3H8DHMCCWAX7Q1P9EK2VNJO2WPJKDC&a=CH8H9&tp_a=CH8H9&b=3H8DHMCCWAX7Q1P9EK2VNJO2WPJKDC&tp_b=3H8DHMCCWAX7Q1P9EK2VNJO2WPJKDC&c=365799&tp_c=365799","firstResponseHeads":10,"firstResponseTails":2,"secondResponseHeads":12,"secondResponseTails":2,"totalHeads":22,"totalTails":4,"studentIndex":23,"studentTrueHypers":{"a":1,"b":4},"studentGuess":0.7419354838709677,"delta":0.058064516129032295,"bonus":0,"bonusSoFar":1.58,"totalExamples":26},{"rt":13413,"response":{"gender":"male","age":"35","understood":"yes","comments":"n/a"},"type":"response","trial_type":"survey-html-form","trial_index":191,"time_elapsed":1272726,"internal_node_id":"0.0-191.0","params":{"nStudents":24,"maxFlips":30,"completionMinutes":45,"basePay":8,"maxBonus":9,"perTrialBonus":0.5,"perTrialBonusThreshold":0.05,"exampleCost":0.01},"classroomParams":{"A":{"a":1,"b":4},"B":{"a":4,"b":1},"C":{"a":2,"b":8},"D":{"a":8,"b":2}},"conditions":["nonSeqFull","nonSeqPartial","seqNoFeedback","seqFeedback"],"classroomPairings":[["A","B"],["C","D"]],"coinWeights":[0.2,0.5,0.8],"subjectId":"A3EA4SHCLJ1UZQ","assignmentId":"3H8DHMCCWAX7Q1P9EK2VNJO2WPJKDC","hitId":"3NI0WFPPI9246I5W92FX9A3E2GN605","url":"https://gershmanlab.com/experiments/alicia/teaching/experiment/?hitId=3NI0WFPPI9246I5W92FX9A3E2GN605&workerId=A3EA4SHCLJ1UZQ&assignmentId=3H8DHMCCWAX7Q1P9EK2VNJO2WPJKDC&a=CH8H9&tp_a=CH8H9&b=3H8DHMCCWAX7Q1P9EK2VNJO2WPJKDC&tp_b=3H8DHMCCWAX7Q1P9EK2VNJO2WPJKDC&c=365799&tp_c=365799","totalBonus":1.58}]