[{"rt":109630,"response":{"heads":"1","tails":"5"},"type":"response","condition":"nonSeqFull","trueTheta":0.2,"classrooms":["C","D"],"studentTrueClassroom":"C","exampleSet":"first","trial_type":"survey-html-form","trial_index":7,"time_elapsed":553156,"internal_node_id":"0.0-6.0-0.0","params":{"nStudents":24,"maxFlips":30,"completionMinutes":45,"basePay":8,"maxBonus":9,"perTrialBonus":0.5,"perTrialBonusThreshold":0.05,"exampleCost":0.01},"classroomParams":{"A":{"a":1,"b":4},"B":{"a":4,"b":1},"C":{"a":2,"b":8},"D":{"a":8,"b":2}},"conditions":["nonSeqFull","nonSeqPartial","seqNoFeedback","seqFeedback"],"classroomPairings":[["A","B"],["C","D"]],"coinWeights":[0.2,0.5,0.8],"subjectId":"A3EU8ENRH654SB","assignmentId":"3HL8HNGX46NK7PKE1T6WLAD7X8NF9O","hitId":"32TZXEA1OL6QYKM0MXQIQH2ABHN14I","url":"https://gershmanlab.com/experiments/alicia/teaching/experiment/?hitId=32TZXEA1OL6QYKM0MXQIQH2ABHN14I&workerId=A3EU8ENRH654SB&assignmentId=3HL8HNGX46NK7PKE1T6WLAD7X8NF9O&a=XHLH9&tp_a=XHLH9&b=3HL8HNGX46NK7PKE1T6WLAD7X8NF9O&tp_b=3HL8HNGX46NK7PKE1T6WLAD7X8NF9O&c=365799&tp_c=365799","heads":1,"tails":5,"studentIndex":0,"studentTrueHypers":{"a":2,"b":8},"studentGuess":0.1875,"delta":0.012500000000000011,"totalExamples":6,"bonus":0.44,"bonusSoFar":0.44},{"rt":23033,"response":{"heads":"1","tails":"1"},"type":"response","condition":"seqFeedback","trueTheta":0.5,"classrooms":["C","D"],"studentTrueClassroom":"C","exampleSet":"first","trial_type":"survey-html-form","trial_index":13,"time_elapsed":605159,"internal_node_id":"0.0-12.0-0.0","params":{"nStudents":24,"maxFlips":30,"completionMinutes":45,"basePay":8,"maxBonus":9,"perTrialBonus":0.5,"perTrialBonusThreshold":0.05,"exampleCost":0.01},"classroomParams":{"A":{"a":1,"b":4},"B":{"a":4,"b":1},"C":{"a":2,"b":8},"D":{"a":8,"b":2}},"conditions":["nonSeqFull","nonSeqPartial","seqNoFeedback","seqFeedback"],"classroomPairings":[["A","B"],["C","D"]],"coinWeights":[0.2,0.5,0.8],"subjectId":"A3EU8ENRH654SB","assignmentId":"3HL8HNGX46NK7PKE1T6WLAD7X8NF9O","hitId":"32TZXEA1OL6QYKM0MXQIQH2ABHN14I","url":"https://gershmanlab.com/experiments/alicia/teaching/experiment/?hitId=32TZXEA1OL6QYKM0MXQIQH2ABHN14I&workerId=A3EU8ENRH654SB&assignmentId=3HL8HNGX46NK7PKE1T6WLAD7X8NF9O&a=XHLH9&tp_a=XHLH9&b=3HL8HNGX46NK7PKE1T6WLAD7X8NF9O&tp_b=3HL8HNGX46NK7PKE1T6WLAD7X8NF9O&c=365799&tp_c=365799","heads":1,"tails":1,"studentIndex":1,"studentTrueHypers":{"a":2,"b":8},"studentGuess":0.25,"delta":0.25,"totalExamples":2,"bonusSoFar":0.44},{"rt":135211,"response":{"heads":"3","tails":"1"},"type":"response","condition":"seqFeedback","trueTheta":0.5,"classrooms":["C","D"],"studentTrueClassroom":"C","exampleSet":"second","trial_type":"survey-html-form","trial_index":17,"time_elapsed":756359,"internal_node_id":"0.0-16.0-0.0","params":{"nStudents":24,"maxFlips":30,"completionMinutes":45,"basePay":8,"maxBonus":9,"perTrialBonus":0.5,"perTrialBonusThreshold":0.05,"exampleCost":0.01},"classroomParams":{"A":{"a":1,"b":4},"B":{"a":4,"b":1},"C":{"a":2,"b":8},"D":{"a":8,"b":2}},"conditions":["nonSeqFull","nonSeqPartial","seqNoFeedback","seqFeedback"],"classroomPairings":[["A","B"],["C","D"]],"coinWeights":[0.2,0.5,0.8],"subjectId":"A3EU8ENRH654SB","assignmentId":"3HL8HNGX46NK7PKE1T6WLAD7X8NF9O","hitId":"32TZXEA1OL6QYKM0MXQIQH2ABHN14I","url":"https://gershmanlab.com/experiments/alicia/teaching/experiment/?hitId=32TZXEA1OL6QYKM0MXQIQH2ABHN14I&workerId=A3EU8ENRH654SB&assignmentId=3HL8HNGX46NK7PKE1T6WLAD7X8NF9O&a=XHLH9&tp_a=XHLH9&b=3HL8HNGX46NK7PKE1T6WLAD7X8NF9O&tp_b=3HL8HNGX46NK7PKE1T6WLAD7X8NF9O&c=365799&tp_c=365799","firstResponseHeads":1,"firstResponseTails":1,"secondResponseHeads":3,"secondResponseTails":1,"totalHeads":4,"totalTails":2,"studentIndex":1,"studentTrueHypers":{"a":2,"b":8},"studentGuess":0.375,"delta":0.125,"bonus":0,"bonusSoFar":0.44,"totalExamples":6},{"rt":35514,"response":{"heads":"1","tails":"1"},"type":"response","condition":"seqFeedback","trueTheta":0.5,"classrooms":["A","B"],"studentTrueClassroom":"B","exampleSet":"first","trial_type":"survey-html-form","trial_index":23,"time_elapsed":828724,"internal_node_id":"0.0-22.0-0.0","params":{"nStudents":24,"maxFlips":30,"completionMinutes":45,"basePay":8,"maxBonus":9,"perTrialBonus":0.5,"perTrialBonusThreshold":0.05,"exampleCost":0.01},"classroomParams":{"A":{"a":1,"b":4},"B":{"a":4,"b":1},"C":{"a":2,"b":8},"D":{"a":8,"b":2}},"conditions":["nonSeqFull","nonSeqPartial","seqNoFeedback","seqFeedback"],"classroomPairings":[["A","B"],["C","D"]],"coinWeights":[0.2,0.5,0.8],"subjectId":"A3EU8ENRH654SB","assignmentId":"3HL8HNGX46NK7PKE1T6WLAD7X8NF9O","hitId":"32TZXEA1OL6QYKM0MXQIQH2ABHN14I","url":"https://gershmanlab.com/experiments/alicia/teaching/experiment/?hitId=32TZXEA1OL6QYKM0MXQIQH2ABHN14I&workerId=A3EU8ENRH654SB&assignmentId=3HL8HNGX46NK7PKE1T6WLAD7X8NF9O&a=XHLH9&tp_a=XHLH9&b=3HL8HNGX46NK7PKE1T6WLAD7X8NF9O&tp_b=3HL8HNGX46NK7PKE1T6WLAD7X8NF9O&c=365799&tp_c=365799","heads":1,"tails":1,"studentIndex":2,"studentTrueHypers":{"a":4,"b":1},"studentGuess":0.7142857142857143,"delta":0.2142857142857143,"totalExamples":2,"bonusSoFar":0.44},{"rt":108257,"response":{"heads":"1","tails":"4"},"type":"response","condition":"seqFeedback","trueTheta":0.5,"classrooms":["A","B"],"studentTrueClassroom":"B","exampleSet":"second","trial_type":"survey-html-form","trial_index":27,"time_elapsed":970111,"internal_node_id":"0.0-26.0-0.0","params":{"nStudents":24,"maxFlips":30,"completionMinutes":45,"basePay":8,"maxBonus":9,"perTrialBonus":0.5,"perTrialBonusThreshold":0.05,"exampleCost":0.01},"classroomParams":{"A":{"a":1,"b":4},"B":{"a":4,"b":1},"C":{"a":2,"b":8},"D":{"a":8,"b":2}},"conditions":["nonSeqFull","nonSeqPartial","seqNoFeedback","seqFeedback"],"classroomPairings":[["A","B"],["C","D"]],"coinWeights":[0.2,0.5,0.8],"subjectId":"A3EU8ENRH654SB","assignmentId":"3HL8HNGX46NK7PKE1T6WLAD7X8NF9O","hitId":"32TZXEA1OL6QYKM0MXQIQH2ABHN14I","url":"https://gershmanlab.com/experiments/alicia/teaching/experiment/?hitId=32TZXEA1OL6QYKM0MXQIQH2ABHN14I&workerId=A3EU8ENRH654SB&assignmentId=3HL8HNGX46NK7PKE1T6WLAD7X8NF9O&a=XHLH9&tp_a=XHLH9&b=3HL8HNGX46NK7PKE1T6WLAD7X8NF9O&tp_b=3HL8HNGX46NK7PKE1T6WLAD7X8NF9O&c=365799&tp_c=365799","firstResponseHeads":1,"firstResponseTails":1,"secondResponseHeads":1,"secondResponseTails":4,"totalHeads":2,"totalTails":5,"studentIndex":2,"studentTrueHypers":{"a":4,"b":1},"studentGuess":0.5,"delta":0,"bonus":0.43,"bonusSoFar":0.87,"totalExamples":7},{"rt":280881,"response":{"heads":"15","tails":"0"},"type":"response","condition":"nonSeqPartial","trueTheta":0.8,"classrooms":["A","B"],"studentTrueClassroom":"B","exampleSet":"first","trial_type":"survey-html-form","trial_index":33,"time_elapsed":1291207,"internal_node_id":"0.0-32.0-0.0","params":{"nStudents":24,"maxFlips":30,"completionMinutes":45,"basePay":8,"maxBonus":9,"perTrialBonus":0.5,"perTrialBonusThreshold":0.05,"exampleCost":0.01},"classroomParams":{"A":{"a":1,"b":4},"B":{"a":4,"b":1},"C":{"a":2,"b":8},"D":{"a":8,"b":2}},"conditions":["nonSeqFull","nonSeqPartial","seqNoFeedback","seqFeedback"],"classroomPairings":[["A","B"],["C","D"]],"coinWeights":[0.2,0.5,0.8],"subjectId":"A3EU8ENRH654SB","assignmentId":"3HL8HNGX46NK7PKE1T6WLAD7X8NF9O","hitId":"32TZXEA1OL6QYKM0MXQIQH2ABHN14I","url":"https://gershmanlab.com/experiments/alicia/teaching/experiment/?hitId=32TZXEA1OL6QYKM0MXQIQH2ABHN14I&workerId=A3EU8ENRH654SB&assignmentId=3HL8HNGX46NK7PKE1T6WLAD7X8NF9O&a=XHLH9&tp_a=XHLH9&b=3HL8HNGX46NK7PKE1T6WLAD7X8NF9O&tp_b=3HL8HNGX46NK7PKE1T6WLAD7X8NF9O&c=365799&tp_c=365799","heads":15,"tails":0,"studentIndex":3,"studentTrueHypers":{"a":4,"b":1},"studentGuess":0.95,"delta":0.1499999999999999,"totalExamples":15,"bonus":0,"bonusSoFar":0.87},{"rt":44018,"response":{"heads":"1","tails":"1"},"type":"response","condition":"seqNoFeedback","trueTheta":0.8,"classrooms":["C","D"],"studentTrueClassroom":"D","exampleSet":"first","trial_type":"survey-html-form","trial_index":39,"time_elapsed":1356993,"internal_node_id":"0.0-38.0-0.0","params":{"nStudents":24,"maxFlips":30,"completionMinutes":45,"basePay":8,"maxBonus":9,"perTrialBonus":0.5,"perTrialBonusThreshold":0.05,"exampleCost":0.01},"classroomParams":{"A":{"a":1,"b":4},"B":{"a":4,"b":1},"C":{"a":2,"b":8},"D":{"a":8,"b":2}},"conditions":["nonSeqFull","nonSeqPartial","seqNoFeedback","seqFeedback"],"classroomPairings":[["A","B"],["C","D"]],"coinWeights":[0.2,0.5,0.8],"subjectId":"A3EU8ENRH654SB","assignmentId":"3HL8HNGX46NK7PKE1T6WLAD7X8NF9O","hitId":"32TZXEA1OL6QYKM0MXQIQH2ABHN14I","url":"https://gershmanlab.com/experiments/alicia/teaching/experiment/?hitId=32TZXEA1OL6QYKM0MXQIQH2ABHN14I&workerId=A3EU8ENRH654SB&assignmentId=3HL8HNGX46NK7PKE1T6WLAD7X8NF9O&a=XHLH9&tp_a=XHLH9&b=3HL8HNGX46NK7PKE1T6WLAD7X8NF9O&tp_b=3HL8HNGX46NK7PKE1T6WLAD7X8NF9O&c=365799&tp_c=365799","heads":1,"tails":1,"studentIndex":4,"studentTrueHypers":{"a":8,"b":2},"studentGuess":0.75,"delta":0.050000000000000044,"totalExamples":2,"bonusSoFar":0.87},{"rt":146053,"response":{"heads":"30","tails":"0"},"type":"response","condition":"seqNoFeedback","trueTheta":0.8,"classrooms":["C","D"],"studentTrueClassroom":"D","exampleSet":"second","trial_type":"survey-html-form","trial_index":42,"time_elapsed":1509574,"internal_node_id":"0.0-41.0-0.0","params":{"nStudents":24,"maxFlips":30,"completionMinutes":45,"basePay":8,"maxBonus":9,"perTrialBonus":0.5,"perTrialBonusThreshold":0.05,"exampleCost":0.01},"classroomParams":{"A":{"a":1,"b":4},"B":{"a":4,"b":1},"C":{"a":2,"b":8},"D":{"a":8,"b":2}},"conditions":["nonSeqFull","nonSeqPartial","seqNoFeedback","seqFeedback"],"classroomPairings":[["A","B"],["C","D"]],"coinWeights":[0.2,0.5,0.8],"subjectId":"A3EU8ENRH654SB","assignmentId":"3HL8HNGX46NK7PKE1T6WLAD7X8NF9O","hitId":"32TZXEA1OL6QYKM0MXQIQH2ABHN14I","url":"https://gershmanlab.com/experiments/alicia/teaching/experiment/?hitId=32TZXEA1OL6QYKM0MXQIQH2ABHN14I&workerId=A3EU8ENRH654SB&assignmentId=3HL8HNGX46NK7PKE1T6WLAD7X8NF9O&a=XHLH9&tp_a=XHLH9&b=3HL8HNGX46NK7PKE1T6WLAD7X8NF9O&tp_b=3HL8HNGX46NK7PKE1T6WLAD7X8NF9O&c=365799&tp_c=365799","firstResponseHeads":1,"firstResponseTails":1,"secondResponseHeads":30,"secondResponseTails":0,"totalHeads":31,"totalTails":1,"studentIndex":4,"studentTrueHypers":{"a":8,"b":2},"studentGuess":0.9285714285714286,"delta":0.12857142857142856,"bonus":0,"bonusSoFar":0.87,"totalExamples":32},{"rt":96525,"response":{"heads":"15","tails":"0"},"type":"response","condition":"nonSeqFull","trueTheta":0.8,"classrooms":["A","B"],"studentTrueClassroom":"A","exampleSet":"first","trial_type":"survey-html-form","trial_index":48,"time_elapsed":1628343,"internal_node_id":"0.0-47.0-0.0","params":{"nStudents":24,"maxFlips":30,"completionMinutes":45,"basePay":8,"maxBonus":9,"perTrialBonus":0.5,"perTrialBonusThreshold":0.05,"exampleCost":0.01},"classroomParams":{"A":{"a":1,"b":4},"B":{"a":4,"b":1},"C":{"a":2,"b":8},"D":{"a":8,"b":2}},"conditions":["nonSeqFull","nonSeqPartial","seqNoFeedback","seqFeedback"],"classroomPairings":[["A","B"],["C","D"]],"coinWeights":[0.2,0.5,0.8],"subjectId":"A3EU8ENRH654SB","assignmentId":"3HL8HNGX46NK7PKE1T6WLAD7X8NF9O","hitId":"32TZXEA1OL6QYKM0MXQIQH2ABHN14I","url":"https://gershmanlab.com/experiments/alicia/teaching/experiment/?hitId=32TZXEA1OL6QYKM0MXQIQH2ABHN14I&workerId=A3EU8ENRH654SB&assignmentId=3HL8HNGX46NK7PKE1T6WLAD7X8NF9O&a=XHLH9&tp_a=XHLH9&b=3HL8HNGX46NK7PKE1T6WLAD7X8NF9O&tp_b=3HL8HNGX46NK7PKE1T6WLAD7X8NF9O&c=365799&tp_c=365799","heads":15,"tails":0,"studentIndex":5,"studentTrueHypers":{"a":1,"b":4},"studentGuess":0.8,"delta":0,"totalExamples":15,"bonus":0.35,"bonusSoFar":1.22},{"rt":29599,"response":{"heads":"1","tails":"0"},"type":"response","condition":"seqNoFeedback","trueTheta":0.5,"classrooms":["C","D"],"studentTrueClassroom":"C","exampleSet":"first","trial_type":"survey-html-form","trial_index":54,"time_elapsed":1677558,"internal_node_id":"0.0-53.0-0.0","params":{"nStudents":24,"maxFlips":30,"completionMinutes":45,"basePay":8,"maxBonus":9,"perTrialBonus":0.5,"perTrialBonusThreshold":0.05,"exampleCost":0.01},"classroomParams":{"A":{"a":1,"b":4},"B":{"a":4,"b":1},"C":{"a":2,"b":8},"D":{"a":8,"b":2}},"conditions":["nonSeqFull","nonSeqPartial","seqNoFeedback","seqFeedback"],"classroomPairings":[["A","B"],["C","D"]],"coinWeights":[0.2,0.5,0.8],"subjectId":"A3EU8ENRH654SB","assignmentId":"3HL8HNGX46NK7PKE1T6WLAD7X8NF9O","hitId":"32TZXEA1OL6QYKM0MXQIQH2ABHN14I","url":"https://gershmanlab.com/experiments/alicia/teaching/experiment/?hitId=32TZXEA1OL6QYKM0MXQIQH2ABHN14I&workerId=A3EU8ENRH654SB&assignmentId=3HL8HNGX46NK7PKE1T6WLAD7X8NF9O&a=XHLH9&tp_a=XHLH9&b=3HL8HNGX46NK7PKE1T6WLAD7X8NF9O&tp_b=3HL8HNGX46NK7PKE1T6WLAD7X8NF9O&c=365799&tp_c=365799","heads":1,"tails":0,"studentIndex":6,"studentTrueHypers":{"a":2,"b":8},"studentGuess":0.2727272727272727,"delta":0.2272727272727273,"totalExamples":1,"bonusSoFar":1.22},{"rt":50469,"response":{"heads":"6","tails":"0"},"type":"response","condition":"seqNoFeedback","trueTheta":0.5,"classrooms":["C","D"],"studentTrueClassroom":"C","exampleSet":"second","trial_type":"survey-html-form","trial_index":57,"time_elapsed":1735042,"internal_node_id":"0.0-56.0-0.0","params":{"nStudents":24,"maxFlips":30,"completionMinutes":45,"basePay":8,"maxBonus":9,"perTrialBonus":0.5,"perTrialBonusThreshold":0.05,"exampleCost":0.01},"classroomParams":{"A":{"a":1,"b":4},"B":{"a":4,"b":1},"C":{"a":2,"b":8},"D":{"a":8,"b":2}},"conditions":["nonSeqFull","nonSeqPartial","seqNoFeedback","seqFeedback"],"classroomPairings":[["A","B"],["C","D"]],"coinWeights":[0.2,0.5,0.8],"subjectId":"A3EU8ENRH654SB","assignmentId":"3HL8HNGX46NK7PKE1T6WLAD7X8NF9O","hitId":"32TZXEA1OL6QYKM0MXQIQH2ABHN14I","url":"https://gershmanlab.com/experiments/alicia/teaching/experiment/?hitId=32TZXEA1OL6QYKM0MXQIQH2ABHN14I&workerId=A3EU8ENRH654SB&assignmentId=3HL8HNGX46NK7PKE1T6WLAD7X8NF9O&a=XHLH9&tp_a=XHLH9&b=3HL8HNGX46NK7PKE1T6WLAD7X8NF9O&tp_b=3HL8HNGX46NK7PKE1T6WLAD7X8NF9O&c=365799&tp_c=365799","firstResponseHeads":1,"firstResponseTails":0,"secondResponseHeads":6,"secondResponseTails":0,"totalHeads":7,"totalTails":0,"studentIndex":6,"studentTrueHypers":{"a":2,"b":8},"studentGuess":0.5294117647058824,"delta":0.02941176470588236,"bonus":0.43,"bonusSoFar":1.65,"totalExamples":7},{"rt":14969,"response":{"heads":"0","tails":"3"},"type":"response","condition":"nonSeqPartial","trueTheta":0.5,"classrooms":["A","B"],"studentTrueClassroom":"B","exampleSet":"first","trial_type":"survey-html-form","trial_index":63,"time_elapsed":1822079,"internal_node_id":"0.0-62.0-0.0","params":{"nStudents":24,"maxFlips":30,"completionMinutes":45,"basePay":8,"maxBonus":9,"perTrialBonus":0.5,"perTrialBonusThreshold":0.05,"exampleCost":0.01},"classroomParams":{"A":{"a":1,"b":4},"B":{"a":4,"b":1},"C":{"a":2,"b":8},"D":{"a":8,"b":2}},"conditions":["nonSeqFull","nonSeqPartial","seqNoFeedback","seqFeedback"],"classroomPairings":[["A","B"],["C","D"]],"coinWeights":[0.2,0.5,0.8],"subjectId":"A3EU8ENRH654SB","assignmentId":"3HL8HNGX46NK7PKE1T6WLAD7X8NF9O","hitId":"32TZXEA1OL6QYKM0MXQIQH2ABHN14I","url":"https://gershmanlab.com/experiments/alicia/teaching/experiment/?hitId=32TZXEA1OL6QYKM0MXQIQH2ABHN14I&workerId=A3EU8ENRH654SB&assignmentId=3HL8HNGX46NK7PKE1T6WLAD7X8NF9O&a=XHLH9&tp_a=XHLH9&b=3HL8HNGX46NK7PKE1T6WLAD7X8NF9O&tp_b=3HL8HNGX46NK7PKE1T6WLAD7X8NF9O&c=365799&tp_c=365799","heads":0,"tails":3,"studentIndex":7,"studentTrueHypers":{"a":4,"b":1},"studentGuess":0.5,"delta":0,"totalExamples":3,"bonus":0.47,"bonusSoFar":2.12},{"rt":29214,"response":{"heads":"1","tails":"0"},"type":"response","condition":"seqNoFeedback","trueTheta":0.8,"classrooms":["A","B"],"studentTrueClassroom":"B","exampleSet":"first","trial_type":"survey-html-form","trial_index":69,"time_elapsed":1870008,"internal_node_id":"0.0-68.0-0.0","params":{"nStudents":24,"maxFlips":30,"completionMinutes":45,"basePay":8,"maxBonus":9,"perTrialBonus":0.5,"perTrialBonusThreshold":0.05,"exampleCost":0.01},"classroomParams":{"A":{"a":1,"b":4},"B":{"a":4,"b":1},"C":{"a":2,"b":8},"D":{"a":8,"b":2}},"conditions":["nonSeqFull","nonSeqPartial","seqNoFeedback","seqFeedback"],"classroomPairings":[["A","B"],["C","D"]],"coinWeights":[0.2,0.5,0.8],"subjectId":"A3EU8ENRH654SB","assignmentId":"3HL8HNGX46NK7PKE1T6WLAD7X8NF9O","hitId":"32TZXEA1OL6QYKM0MXQIQH2ABHN14I","url":"https://gershmanlab.com/experiments/alicia/teaching/experiment/?hitId=32TZXEA1OL6QYKM0MXQIQH2ABHN14I&workerId=A3EU8ENRH654SB&assignmentId=3HL8HNGX46NK7PKE1T6WLAD7X8NF9O&a=XHLH9&tp_a=XHLH9&b=3HL8HNGX46NK7PKE1T6WLAD7X8NF9O&tp_b=3HL8HNGX46NK7PKE1T6WLAD7X8NF9O&c=365799&tp_c=365799","heads":1,"tails":0,"studentIndex":8,"studentTrueHypers":{"a":4,"b":1},"studentGuess":0.8333333333333334,"delta":0.033333333333333326,"totalExamples":1,"bonusSoFar":2.12},{"rt":13602,"response":{"heads":"15","tails":"0"},"type":"response","condition":"seqNoFeedback","trueTheta":0.8,"classrooms":["A","B"],"studentTrueClassroom":"B","exampleSet":"second","trial_type":"survey-html-form","trial_index":72,"time_elapsed":1891375,"internal_node_id":"0.0-71.0-0.0","params":{"nStudents":24,"maxFlips":30,"completionMinutes":45,"basePay":8,"maxBonus":9,"perTrialBonus":0.5,"perTrialBonusThreshold":0.05,"exampleCost":0.01},"classroomParams":{"A":{"a":1,"b":4},"B":{"a":4,"b":1},"C":{"a":2,"b":8},"D":{"a":8,"b":2}},"conditions":["nonSeqFull","nonSeqPartial","seqNoFeedback","seqFeedback"],"classroomPairings":[["A","B"],["C","D"]],"coinWeights":[0.2,0.5,0.8],"subjectId":"A3EU8ENRH654SB","assignmentId":"3HL8HNGX46NK7PKE1T6WLAD7X8NF9O","hitId":"32TZXEA1OL6QYKM0MXQIQH2ABHN14I","url":"https://gershmanlab.com/experiments/alicia/teaching/experiment/?hitId=32TZXEA1OL6QYKM0MXQIQH2ABHN14I&workerId=A3EU8ENRH654SB&assignmentId=3HL8HNGX46NK7PKE1T6WLAD7X8NF9O&a=XHLH9&tp_a=XHLH9&b=3HL8HNGX46NK7PKE1T6WLAD7X8NF9O&tp_b=3HL8HNGX46NK7PKE1T6WLAD7X8NF9O&c=365799&tp_c=365799","firstResponseHeads":1,"firstResponseTails":0,"secondResponseHeads":15,"secondResponseTails":0,"totalHeads":16,"totalTails":0,"studentIndex":8,"studentTrueHypers":{"a":4,"b":1},"studentGuess":0.9523809523809523,"delta":0.15238095238095228,"bonus":0,"bonusSoFar":2.12,"totalExamples":16},{"rt":15401,"response":{"heads":"0","tails":"0"},"type":"response","condition":"seqFeedback","trueTheta":0.8,"classrooms":["A","B"],"studentTrueClassroom":"A","exampleSet":"first","trial_type":"survey-html-form","trial_index":78,"time_elapsed":1949574,"internal_node_id":"0.0-77.0-0.0","params":{"nStudents":24,"maxFlips":30,"completionMinutes":45,"basePay":8,"maxBonus":9,"perTrialBonus":0.5,"perTrialBonusThreshold":0.05,"exampleCost":0.01},"classroomParams":{"A":{"a":1,"b":4},"B":{"a":4,"b":1},"C":{"a":2,"b":8},"D":{"a":8,"b":2}},"conditions":["nonSeqFull","nonSeqPartial","seqNoFeedback","seqFeedback"],"classroomPairings":[["A","B"],["C","D"]],"coinWeights":[0.2,0.5,0.8],"subjectId":"A3EU8ENRH654SB","assignmentId":"3HL8HNGX46NK7PKE1T6WLAD7X8NF9O","hitId":"32TZXEA1OL6QYKM0MXQIQH2ABHN14I","url":"https://gershmanlab.com/experiments/alicia/teaching/experiment/?hitId=32TZXEA1OL6QYKM0MXQIQH2ABHN14I&workerId=A3EU8ENRH654SB&assignmentId=3HL8HNGX46NK7PKE1T6WLAD7X8NF9O&a=XHLH9&tp_a=XHLH9&b=3HL8HNGX46NK7PKE1T6WLAD7X8NF9O&tp_b=3HL8HNGX46NK7PKE1T6WLAD7X8NF9O&c=365799&tp_c=365799","heads":0,"tails":0,"studentIndex":9,"studentTrueHypers":{"a":1,"b":4},"studentGuess":0.2,"delta":0.6000000000000001,"totalExamples":0,"bonusSoFar":2.12},{"rt":2832,"response":{"heads":"0","tails":"0"},"type":"response","condition":"seqFeedback","trueTheta":0.8,"classrooms":["A","B"],"studentTrueClassroom":"A","exampleSet":"first","trial_type":"survey-html-form","trial_index":79,"time_elapsed":1952408,"internal_node_id":"0.0-77.1-0.1","params":{"nStudents":24,"maxFlips":30,"completionMinutes":45,"basePay":8,"maxBonus":9,"perTrialBonus":0.5,"perTrialBonusThreshold":0.05,"exampleCost":0.01},"classroomParams":{"A":{"a":1,"b":4},"B":{"a":4,"b":1},"C":{"a":2,"b":8},"D":{"a":8,"b":2}},"conditions":["nonSeqFull","nonSeqPartial","seqNoFeedback","seqFeedback"],"classroomPairings":[["A","B"],["C","D"]],"coinWeights":[0.2,0.5,0.8],"subjectId":"A3EU8ENRH654SB","assignmentId":"3HL8HNGX46NK7PKE1T6WLAD7X8NF9O","hitId":"32TZXEA1OL6QYKM0MXQIQH2ABHN14I","url":"https://gershmanlab.com/experiments/alicia/teaching/experiment/?hitId=32TZXEA1OL6QYKM0MXQIQH2ABHN14I&workerId=A3EU8ENRH654SB&assignmentId=3HL8HNGX46NK7PKE1T6WLAD7X8NF9O&a=XHLH9&tp_a=XHLH9&b=3HL8HNGX46NK7PKE1T6WLAD7X8NF9O&tp_b=3HL8HNGX46NK7PKE1T6WLAD7X8NF9O&c=365799&tp_c=365799","heads":0,"tails":0,"studentIndex":9,"studentTrueHypers":{"a":1,"b":4},"studentGuess":0.2,"delta":0.6000000000000001,"totalExamples":0,"bonusSoFar":2.12},{"rt":6114,"response":{"heads":"1","tails":"0"},"type":"response","condition":"seqFeedback","trueTheta":0.8,"classrooms":["A","B"],"studentTrueClassroom":"A","exampleSet":"first","trial_type":"survey-html-form","trial_index":80,"time_elapsed":1958523,"internal_node_id":"0.0-77.2-0.2","params":{"nStudents":24,"maxFlips":30,"completionMinutes":45,"basePay":8,"maxBonus":9,"perTrialBonus":0.5,"perTrialBonusThreshold":0.05,"exampleCost":0.01},"classroomParams":{"A":{"a":1,"b":4},"B":{"a":4,"b":1},"C":{"a":2,"b":8},"D":{"a":8,"b":2}},"conditions":["nonSeqFull","nonSeqPartial","seqNoFeedback","seqFeedback"],"classroomPairings":[["A","B"],["C","D"]],"coinWeights":[0.2,0.5,0.8],"subjectId":"A3EU8ENRH654SB","assignmentId":"3HL8HNGX46NK7PKE1T6WLAD7X8NF9O","hitId":"32TZXEA1OL6QYKM0MXQIQH2ABHN14I","url":"https://gershmanlab.com/experiments/alicia/teaching/experiment/?hitId=32TZXEA1OL6QYKM0MXQIQH2ABHN14I&workerId=A3EU8ENRH654SB&assignmentId=3HL8HNGX46NK7PKE1T6WLAD7X8NF9O&a=XHLH9&tp_a=XHLH9&b=3HL8HNGX46NK7PKE1T6WLAD7X8NF9O&tp_b=3HL8HNGX46NK7PKE1T6WLAD7X8NF9O&c=365799&tp_c=365799","heads":1,"tails":0,"studentIndex":9,"studentTrueHypers":{"a":1,"b":4},"studentGuess":0.3333333333333333,"delta":0.46666666666666673,"totalExamples":1,"bonusSoFar":2.12},{"rt":34655,"response":{"heads":"14","tails":"0"},"type":"response","condition":"seqFeedback","trueTheta":0.8,"classrooms":["A","B"],"studentTrueClassroom":"A","exampleSet":"second","trial_type":"survey-html-form","trial_index":84,"time_elapsed":2010492,"internal_node_id":"0.0-81.0-0.0","params":{"nStudents":24,"maxFlips":30,"completionMinutes":45,"basePay":8,"maxBonus":9,"perTrialBonus":0.5,"perTrialBonusThreshold":0.05,"exampleCost":0.01},"classroomParams":{"A":{"a":1,"b":4},"B":{"a":4,"b":1},"C":{"a":2,"b":8},"D":{"a":8,"b":2}},"conditions":["nonSeqFull","nonSeqPartial","seqNoFeedback","seqFeedback"],"classroomPairings":[["A","B"],["C","D"]],"coinWeights":[0.2,0.5,0.8],"subjectId":"A3EU8ENRH654SB","assignmentId":"3HL8HNGX46NK7PKE1T6WLAD7X8NF9O","hitId":"32TZXEA1OL6QYKM0MXQIQH2ABHN14I","url":"https://gershmanlab.com/experiments/alicia/teaching/experiment/?hitId=32TZXEA1OL6QYKM0MXQIQH2ABHN14I&workerId=A3EU8ENRH654SB&assignmentId=3HL8HNGX46NK7PKE1T6WLAD7X8NF9O&a=XHLH9&tp_a=XHLH9&b=3HL8HNGX46NK7PKE1T6WLAD7X8NF9O&tp_b=3HL8HNGX46NK7PKE1T6WLAD7X8NF9O&c=365799&tp_c=365799","firstResponseHeads":0,"firstResponseTails":0,"secondResponseHeads":14,"secondResponseTails":0,"totalHeads":14,"totalTails":0,"studentIndex":9,"studentTrueHypers":{"a":1,"b":4},"studentGuess":0.7894736842105263,"delta":0.010526315789473717,"bonus":0.36,"bonusSoFar":2.48,"totalExamples":14},{"rt":50648,"response":{"heads":"0","tails":"1"},"type":"response","condition":"nonSeqPartial","trueTheta":0.2,"classrooms":["C","D"],"studentTrueClassroom":"D","exampleSet":"first","trial_type":"survey-html-form","trial_index":90,"time_elapsed":2086341,"internal_node_id":"0.0-87.0-0.0","params":{"nStudents":24,"maxFlips":30,"completionMinutes":45,"basePay":8,"maxBonus":9,"perTrialBonus":0.5,"perTrialBonusThreshold":0.05,"exampleCost":0.01},"classroomParams":{"A":{"a":1,"b":4},"B":{"a":4,"b":1},"C":{"a":2,"b":8},"D":{"a":8,"b":2}},"conditions":["nonSeqFull","nonSeqPartial","seqNoFeedback","seqFeedback"],"classroomPairings":[["A","B"],["C","D"]],"coinWeights":[0.2,0.5,0.8],"subjectId":"A3EU8ENRH654SB","assignmentId":"3HL8HNGX46NK7PKE1T6WLAD7X8NF9O","hitId":"32TZXEA1OL6QYKM0MXQIQH2ABHN14I","url":"https://gershmanlab.com/experiments/alicia/teaching/experiment/?hitId=32TZXEA1OL6QYKM0MXQIQH2ABHN14I&workerId=A3EU8ENRH654SB&assignmentId=3HL8HNGX46NK7PKE1T6WLAD7X8NF9O&a=XHLH9&tp_a=XHLH9&b=3HL8HNGX46NK7PKE1T6WLAD7X8NF9O&tp_b=3HL8HNGX46NK7PKE1T6WLAD7X8NF9O&c=365799&tp_c=365799","heads":0,"tails":1,"studentIndex":10,"studentTrueHypers":{"a":8,"b":2},"studentGuess":0.7272727272727273,"delta":0.5272727272727273,"totalExamples":1,"bonus":0,"bonusSoFar":2.48},{"rt":19864,"response":{"heads":"1","tails":"0"},"type":"response","condition":"seqFeedback","trueTheta":0.2,"classrooms":["C","D"],"studentTrueClassroom":"C","exampleSet":"first","trial_type":"survey-html-form","trial_index":96,"time_elapsed":2131407,"internal_node_id":"0.0-93.0-0.0","params":{"nStudents":24,"maxFlips":30,"completionMinutes":45,"basePay":8,"maxBonus":9,"perTrialBonus":0.5,"perTrialBonusThreshold":0.05,"exampleCost":0.01},"classroomParams":{"A":{"a":1,"b":4},"B":{"a":4,"b":1},"C":{"a":2,"b":8},"D":{"a":8,"b":2}},"conditions":["nonSeqFull","nonSeqPartial","seqNoFeedback","seqFeedback"],"classroomPairings":[["A","B"],["C","D"]],"coinWeights":[0.2,0.5,0.8],"subjectId":"A3EU8ENRH654SB","assignmentId":"3HL8HNGX46NK7PKE1T6WLAD7X8NF9O","hitId":"32TZXEA1OL6QYKM0MXQIQH2ABHN14I","url":"https://gershmanlab.com/experiments/alicia/teaching/experiment/?hitId=32TZXEA1OL6QYKM0MXQIQH2ABHN14I&workerId=A3EU8ENRH654SB&assignmentId=3HL8HNGX46NK7PKE1T6WLAD7X8NF9O&a=XHLH9&tp_a=XHLH9&b=3HL8HNGX46NK7PKE1T6WLAD7X8NF9O&tp_b=3HL8HNGX46NK7PKE1T6WLAD7X8NF9O&c=365799&tp_c=365799","heads":1,"tails":0,"studentIndex":11,"studentTrueHypers":{"a":2,"b":8},"studentGuess":0.2727272727272727,"delta":0.0727272727272727,"totalExamples":1,"bonusSoFar":2.48},{"rt":86062,"response":{"heads":"0","tails":"4"},"type":"response","condition":"seqFeedback","trueTheta":0.2,"classrooms":["C","D"],"studentTrueClassroom":"C","exampleSet":"second","trial_type":"survey-html-form","trial_index":100,"time_elapsed":2229540,"internal_node_id":"0.0-97.0-0.0","params":{"nStudents":24,"maxFlips":30,"completionMinutes":45,"basePay":8,"maxBonus":9,"perTrialBonus":0.5,"perTrialBonusThreshold":0.05,"exampleCost":0.01},"classroomParams":{"A":{"a":1,"b":4},"B":{"a":4,"b":1},"C":{"a":2,"b":8},"D":{"a":8,"b":2}},"conditions":["nonSeqFull","nonSeqPartial","seqNoFeedback","seqFeedback"],"classroomPairings":[["A","B"],["C","D"]],"coinWeights":[0.2,0.5,0.8],"subjectId":"A3EU8ENRH654SB","assignmentId":"3HL8HNGX46NK7PKE1T6WLAD7X8NF9O","hitId":"32TZXEA1OL6QYKM0MXQIQH2ABHN14I","url":"https://gershmanlab.com/experiments/alicia/teaching/experiment/?hitId=32TZXEA1OL6QYKM0MXQIQH2ABHN14I&workerId=A3EU8ENRH654SB&assignmentId=3HL8HNGX46NK7PKE1T6WLAD7X8NF9O&a=XHLH9&tp_a=XHLH9&b=3HL8HNGX46NK7PKE1T6WLAD7X8NF9O&tp_b=3HL8HNGX46NK7PKE1T6WLAD7X8NF9O&c=365799&tp_c=365799","firstResponseHeads":1,"firstResponseTails":0,"secondResponseHeads":0,"secondResponseTails":4,"totalHeads":1,"totalTails":4,"studentIndex":11,"studentTrueHypers":{"a":2,"b":8},"studentGuess":0.2,"delta":0,"bonus":0.45,"bonusSoFar":2.93,"totalExamples":5},{"rt":31030,"response":{"heads":"0","tails":"6"},"type":"response","condition":"seqNoFeedback","trueTheta":0.2,"classrooms":["C","D"],"studentTrueClassroom":"C","exampleSet":"first","trial_type":"survey-html-form","trial_index":106,"time_elapsed":2288974,"internal_node_id":"0.0-103.0-0.0","params":{"nStudents":24,"maxFlips":30,"completionMinutes":45,"basePay":8,"maxBonus":9,"perTrialBonus":0.5,"perTrialBonusThreshold":0.05,"exampleCost":0.01},"classroomParams":{"A":{"a":1,"b":4},"B":{"a":4,"b":1},"C":{"a":2,"b":8},"D":{"a":8,"b":2}},"conditions":["nonSeqFull","nonSeqPartial","seqNoFeedback","seqFeedback"],"classroomPairings":[["A","B"],["C","D"]],"coinWeights":[0.2,0.5,0.8],"subjectId":"A3EU8ENRH654SB","assignmentId":"3HL8HNGX46NK7PKE1T6WLAD7X8NF9O","hitId":"32TZXEA1OL6QYKM0MXQIQH2ABHN14I","url":"https://gershmanlab.com/experiments/alicia/teaching/experiment/?hitId=32TZXEA1OL6QYKM0MXQIQH2ABHN14I&workerId=A3EU8ENRH654SB&assignmentId=3HL8HNGX46NK7PKE1T6WLAD7X8NF9O&a=XHLH9&tp_a=XHLH9&b=3HL8HNGX46NK7PKE1T6WLAD7X8NF9O&tp_b=3HL8HNGX46NK7PKE1T6WLAD7X8NF9O&c=365799&tp_c=365799","heads":0,"tails":6,"studentIndex":12,"studentTrueHypers":{"a":2,"b":8},"studentGuess":0.125,"delta":0.07500000000000001,"totalExamples":6,"bonusSoFar":2.93},{"rt":193519,"response":{"heads":"2","tails":"2"},"type":"response","condition":"seqNoFeedback","trueTheta":0.2,"classrooms":["C","D"],"studentTrueClassroom":"C","exampleSet":"second","trial_type":"survey-html-form","trial_index":109,"time_elapsed":2488758,"internal_node_id":"0.0-106.0-0.0","params":{"nStudents":24,"maxFlips":30,"completionMinutes":45,"basePay":8,"maxBonus":9,"perTrialBonus":0.5,"perTrialBonusThreshold":0.05,"exampleCost":0.01},"classroomParams":{"A":{"a":1,"b":4},"B":{"a":4,"b":1},"C":{"a":2,"b":8},"D":{"a":8,"b":2}},"conditions":["nonSeqFull","nonSeqPartial","seqNoFeedback","seqFeedback"],"classroomPairings":[["A","B"],["C","D"]],"coinWeights":[0.2,0.5,0.8],"subjectId":"A3EU8ENRH654SB","assignmentId":"3HL8HNGX46NK7PKE1T6WLAD7X8NF9O","hitId":"32TZXEA1OL6QYKM0MXQIQH2ABHN14I","url":"https://gershmanlab.com/experiments/alicia/teaching/experiment/?hitId=32TZXEA1OL6QYKM0MXQIQH2ABHN14I&workerId=A3EU8ENRH654SB&assignmentId=3HL8HNGX46NK7PKE1T6WLAD7X8NF9O&a=XHLH9&tp_a=XHLH9&b=3HL8HNGX46NK7PKE1T6WLAD7X8NF9O&tp_b=3HL8HNGX46NK7PKE1T6WLAD7X8NF9O&c=365799&tp_c=365799","firstResponseHeads":0,"firstResponseTails":6,"secondResponseHeads":2,"secondResponseTails":2,"totalHeads":2,"totalTails":8,"studentIndex":12,"studentTrueHypers":{"a":2,"b":8},"studentGuess":0.2,"delta":0,"bonus":0.4,"bonusSoFar":3.33,"totalExamples":10},{"rt":17249,"response":{"heads":"1","tails":"0"},"type":"response","condition":"seqNoFeedback","trueTheta":0.2,"classrooms":["A","B"],"studentTrueClassroom":"A","exampleSet":"first","trial_type":"survey-html-form","trial_index":115,"time_elapsed":2528674,"internal_node_id":"0.0-112.0-0.0","params":{"nStudents":24,"maxFlips":30,"completionMinutes":45,"basePay":8,"maxBonus":9,"perTrialBonus":0.5,"perTrialBonusThreshold":0.05,"exampleCost":0.01},"classroomParams":{"A":{"a":1,"b":4},"B":{"a":4,"b":1},"C":{"a":2,"b":8},"D":{"a":8,"b":2}},"conditions":["nonSeqFull","nonSeqPartial","seqNoFeedback","seqFeedback"],"classroomPairings":[["A","B"],["C","D"]],"coinWeights":[0.2,0.5,0.8],"subjectId":"A3EU8ENRH654SB","assignmentId":"3HL8HNGX46NK7PKE1T6WLAD7X8NF9O","hitId":"32TZXEA1OL6QYKM0MXQIQH2ABHN14I","url":"https://gershmanlab.com/experiments/alicia/teaching/experiment/?hitId=32TZXEA1OL6QYKM0MXQIQH2ABHN14I&workerId=A3EU8ENRH654SB&assignmentId=3HL8HNGX46NK7PKE1T6WLAD7X8NF9O&a=XHLH9&tp_a=XHLH9&b=3HL8HNGX46NK7PKE1T6WLAD7X8NF9O&tp_b=3HL8HNGX46NK7PKE1T6WLAD7X8NF9O&c=365799&tp_c=365799","heads":1,"tails":0,"studentIndex":13,"studentTrueHypers":{"a":1,"b":4},"studentGuess":0.3333333333333333,"delta":0.1333333333333333,"totalExamples":1,"bonusSoFar":3.33},{"rt":62889,"response":{"heads":"0","tails":"4"},"type":"response","condition":"seqNoFeedback","trueTheta":0.2,"classrooms":["A","B"],"studentTrueClassroom":"A","exampleSet":"second","trial_type":"survey-html-form","trial_index":118,"time_elapsed":2598849,"internal_node_id":"0.0-115.0-0.0","params":{"nStudents":24,"maxFlips":30,"completionMinutes":45,"basePay":8,"maxBonus":9,"perTrialBonus":0.5,"perTrialBonusThreshold":0.05,"exampleCost":0.01},"classroomParams":{"A":{"a":1,"b":4},"B":{"a":4,"b":1},"C":{"a":2,"b":8},"D":{"a":8,"b":2}},"conditions":["nonSeqFull","nonSeqPartial","seqNoFeedback","seqFeedback"],"classroomPairings":[["A","B"],["C","D"]],"coinWeights":[0.2,0.5,0.8],"subjectId":"A3EU8ENRH654SB","assignmentId":"3HL8HNGX46NK7PKE1T6WLAD7X8NF9O","hitId":"32TZXEA1OL6QYKM0MXQIQH2ABHN14I","url":"https://gershmanlab.com/experiments/alicia/teaching/experiment/?hitId=32TZXEA1OL6QYKM0MXQIQH2ABHN14I&workerId=A3EU8ENRH654SB&assignmentId=3HL8HNGX46NK7PKE1T6WLAD7X8NF9O&a=XHLH9&tp_a=XHLH9&b=3HL8HNGX46NK7PKE1T6WLAD7X8NF9O&tp_b=3HL8HNGX46NK7PKE1T6WLAD7X8NF9O&c=365799&tp_c=365799","firstResponseHeads":1,"firstResponseTails":0,"secondResponseHeads":0,"secondResponseTails":4,"totalHeads":1,"totalTails":4,"studentIndex":13,"studentTrueHypers":{"a":1,"b":4},"studentGuess":0.2,"delta":0,"bonus":0.45,"bonusSoFar":3.78,"totalExamples":5},{"rt":76381,"response":{"heads":"0","tails":"15"},"type":"response","condition":"nonSeqPartial","trueTheta":0.2,"classrooms":["A","B"],"studentTrueClassroom":"B","exampleSet":"first","trial_type":"survey-html-form","trial_index":124,"time_elapsed":2698024,"internal_node_id":"0.0-121.0-0.0","params":{"nStudents":24,"maxFlips":30,"completionMinutes":45,"basePay":8,"maxBonus":9,"perTrialBonus":0.5,"perTrialBonusThreshold":0.05,"exampleCost":0.01},"classroomParams":{"A":{"a":1,"b":4},"B":{"a":4,"b":1},"C":{"a":2,"b":8},"D":{"a":8,"b":2}},"conditions":["nonSeqFull","nonSeqPartial","seqNoFeedback","seqFeedback"],"classroomPairings":[["A","B"],["C","D"]],"coinWeights":[0.2,0.5,0.8],"subjectId":"A3EU8ENRH654SB","assignmentId":"3HL8HNGX46NK7PKE1T6WLAD7X8NF9O","hitId":"32TZXEA1OL6QYKM0MXQIQH2ABHN14I","url":"https://gershmanlab.com/experiments/alicia/teaching/experiment/?hitId=32TZXEA1OL6QYKM0MXQIQH2ABHN14I&workerId=A3EU8ENRH654SB&assignmentId=3HL8HNGX46NK7PKE1T6WLAD7X8NF9O&a=XHLH9&tp_a=XHLH9&b=3HL8HNGX46NK7PKE1T6WLAD7X8NF9O&tp_b=3HL8HNGX46NK7PKE1T6WLAD7X8NF9O&c=365799&tp_c=365799","heads":0,"tails":15,"studentIndex":14,"studentTrueHypers":{"a":4,"b":1},"studentGuess":0.2,"delta":0,"totalExamples":15,"bonus":0.35,"bonusSoFar":4.13},{"rt":28532,"response":{"heads":"0","tails":"3"},"type":"response","condition":"nonSeqFull","trueTheta":0.5,"classrooms":["A","B"],"studentTrueClassroom":"B","exampleSet":"first","trial_type":"survey-html-form","trial_index":130,"time_elapsed":2743456,"internal_node_id":"0.0-127.0-0.0","params":{"nStudents":24,"maxFlips":30,"completionMinutes":45,"basePay":8,"maxBonus":9,"perTrialBonus":0.5,"perTrialBonusThreshold":0.05,"exampleCost":0.01},"classroomParams":{"A":{"a":1,"b":4},"B":{"a":4,"b":1},"C":{"a":2,"b":8},"D":{"a":8,"b":2}},"conditions":["nonSeqFull","nonSeqPartial","seqNoFeedback","seqFeedback"],"classroomPairings":[["A","B"],["C","D"]],"coinWeights":[0.2,0.5,0.8],"subjectId":"A3EU8ENRH654SB","assignmentId":"3HL8HNGX46NK7PKE1T6WLAD7X8NF9O","hitId":"32TZXEA1OL6QYKM0MXQIQH2ABHN14I","url":"https://gershmanlab.com/experiments/alicia/teaching/experiment/?hitId=32TZXEA1OL6QYKM0MXQIQH2ABHN14I&workerId=A3EU8ENRH654SB&assignmentId=3HL8HNGX46NK7PKE1T6WLAD7X8NF9O&a=XHLH9&tp_a=XHLH9&b=3HL8HNGX46NK7PKE1T6WLAD7X8NF9O&tp_b=3HL8HNGX46NK7PKE1T6WLAD7X8NF9O&c=365799&tp_c=365799","heads":0,"tails":3,"studentIndex":15,"studentTrueHypers":{"a":4,"b":1},"studentGuess":0.5,"delta":0,"totalExamples":3,"bonus":0.47,"bonusSoFar":4.6},{"rt":17331,"response":{"heads":"1","tails":"0"},"type":"response","condition":"seqNoFeedback","trueTheta":0.5,"classrooms":["A","B"],"studentTrueClassroom":"B","exampleSet":"first","trial_type":"survey-html-form","trial_index":136,"time_elapsed":2781123,"internal_node_id":"0.0-133.0-0.0","params":{"nStudents":24,"maxFlips":30,"completionMinutes":45,"basePay":8,"maxBonus":9,"perTrialBonus":0.5,"perTrialBonusThreshold":0.05,"exampleCost":0.01},"classroomParams":{"A":{"a":1,"b":4},"B":{"a":4,"b":1},"C":{"a":2,"b":8},"D":{"a":8,"b":2}},"conditions":["nonSeqFull","nonSeqPartial","seqNoFeedback","seqFeedback"],"classroomPairings":[["A","B"],["C","D"]],"coinWeights":[0.2,0.5,0.8],"subjectId":"A3EU8ENRH654SB","assignmentId":"3HL8HNGX46NK7PKE1T6WLAD7X8NF9O","hitId":"32TZXEA1OL6QYKM0MXQIQH2ABHN14I","url":"https://gershmanlab.com/experiments/alicia/teaching/experiment/?hitId=32TZXEA1OL6QYKM0MXQIQH2ABHN14I&workerId=A3EU8ENRH654SB&assignmentId=3HL8HNGX46NK7PKE1T6WLAD7X8NF9O&a=XHLH9&tp_a=XHLH9&b=3HL8HNGX46NK7PKE1T6WLAD7X8NF9O&tp_b=3HL8HNGX46NK7PKE1T6WLAD7X8NF9O&c=365799&tp_c=365799","heads":1,"tails":0,"studentIndex":16,"studentTrueHypers":{"a":4,"b":1},"studentGuess":0.8333333333333334,"delta":0.33333333333333337,"totalExamples":1,"bonusSoFar":4.6},{"rt":10295,"response":{"heads":"2","tails":"0"},"type":"response","condition":"seqNoFeedback","trueTheta":0.5,"classrooms":["A","B"],"studentTrueClassroom":"B","exampleSet":"second","trial_type":"survey-html-form","trial_index":139,"time_elapsed":2798691,"internal_node_id":"0.0-136.0-0.0","params":{"nStudents":24,"maxFlips":30,"completionMinutes":45,"basePay":8,"maxBonus":9,"perTrialBonus":0.5,"perTrialBonusThreshold":0.05,"exampleCost":0.01},"classroomParams":{"A":{"a":1,"b":4},"B":{"a":4,"b":1},"C":{"a":2,"b":8},"D":{"a":8,"b":2}},"conditions":["nonSeqFull","nonSeqPartial","seqNoFeedback","seqFeedback"],"classroomPairings":[["A","B"],["C","D"]],"coinWeights":[0.2,0.5,0.8],"subjectId":"A3EU8ENRH654SB","assignmentId":"3HL8HNGX46NK7PKE1T6WLAD7X8NF9O","hitId":"32TZXEA1OL6QYKM0MXQIQH2ABHN14I","url":"https://gershmanlab.com/experiments/alicia/teaching/experiment/?hitId=32TZXEA1OL6QYKM0MXQIQH2ABHN14I&workerId=A3EU8ENRH654SB&assignmentId=3HL8HNGX46NK7PKE1T6WLAD7X8NF9O&a=XHLH9&tp_a=XHLH9&b=3HL8HNGX46NK7PKE1T6WLAD7X8NF9O&tp_b=3HL8HNGX46NK7PKE1T6WLAD7X8NF9O&c=365799&tp_c=365799","firstResponseHeads":1,"firstResponseTails":0,"secondResponseHeads":2,"secondResponseTails":0,"totalHeads":3,"totalTails":0,"studentIndex":16,"studentTrueHypers":{"a":4,"b":1},"studentGuess":0.875,"delta":0.375,"bonus":0,"bonusSoFar":4.6,"totalExamples":3},{"rt":41095,"response":{"heads":"0","tails":"1"},"type":"response","condition":"nonSeqFull","trueTheta":0.2,"classrooms":["A","B"],"studentTrueClassroom":"A","exampleSet":"first","trial_type":"survey-html-form","trial_index":145,"time_elapsed":2859023,"internal_node_id":"0.0-142.0-0.0","params":{"nStudents":24,"maxFlips":30,"completionMinutes":45,"basePay":8,"maxBonus":9,"perTrialBonus":0.5,"perTrialBonusThreshold":0.05,"exampleCost":0.01},"classroomParams":{"A":{"a":1,"b":4},"B":{"a":4,"b":1},"C":{"a":2,"b":8},"D":{"a":8,"b":2}},"conditions":["nonSeqFull","nonSeqPartial","seqNoFeedback","seqFeedback"],"classroomPairings":[["A","B"],["C","D"]],"coinWeights":[0.2,0.5,0.8],"subjectId":"A3EU8ENRH654SB","assignmentId":"3HL8HNGX46NK7PKE1T6WLAD7X8NF9O","hitId":"32TZXEA1OL6QYKM0MXQIQH2ABHN14I","url":"https://gershmanlab.com/experiments/alicia/teaching/experiment/?hitId=32TZXEA1OL6QYKM0MXQIQH2ABHN14I&workerId=A3EU8ENRH654SB&assignmentId=3HL8HNGX46NK7PKE1T6WLAD7X8NF9O&a=XHLH9&tp_a=XHLH9&b=3HL8HNGX46NK7PKE1T6WLAD7X8NF9O&tp_b=3HL8HNGX46NK7PKE1T6WLAD7X8NF9O&c=365799&tp_c=365799","heads":0,"tails":1,"studentIndex":17,"studentTrueHypers":{"a":1,"b":4},"studentGuess":0.16666666666666666,"delta":0.033333333333333354,"totalExamples":1,"bonus":0.49,"bonusSoFar":5.09},{"rt":40876,"response":{"heads":"1","tails":"0"},"type":"response","condition":"seqFeedback","trueTheta":0.8,"classrooms":["C","D"],"studentTrueClassroom":"C","exampleSet":"first","trial_type":"survey-html-form","trial_index":151,"time_elapsed":2927741,"internal_node_id":"0.0-148.0-0.0","params":{"nStudents":24,"maxFlips":30,"completionMinutes":45,"basePay":8,"maxBonus":9,"perTrialBonus":0.5,"perTrialBonusThreshold":0.05,"exampleCost":0.01},"classroomParams":{"A":{"a":1,"b":4},"B":{"a":4,"b":1},"C":{"a":2,"b":8},"D":{"a":8,"b":2}},"conditions":["nonSeqFull","nonSeqPartial","seqNoFeedback","seqFeedback"],"classroomPairings":[["A","B"],["C","D"]],"coinWeights":[0.2,0.5,0.8],"subjectId":"A3EU8ENRH654SB","assignmentId":"3HL8HNGX46NK7PKE1T6WLAD7X8NF9O","hitId":"32TZXEA1OL6QYKM0MXQIQH2ABHN14I","url":"https://gershmanlab.com/experiments/alicia/teaching/experiment/?hitId=32TZXEA1OL6QYKM0MXQIQH2ABHN14I&workerId=A3EU8ENRH654SB&assignmentId=3HL8HNGX46NK7PKE1T6WLAD7X8NF9O&a=XHLH9&tp_a=XHLH9&b=3HL8HNGX46NK7PKE1T6WLAD7X8NF9O&tp_b=3HL8HNGX46NK7PKE1T6WLAD7X8NF9O&c=365799&tp_c=365799","heads":1,"tails":0,"studentIndex":18,"studentTrueHypers":{"a":2,"b":8},"studentGuess":0.2727272727272727,"delta":0.5272727272727273,"totalExamples":1,"bonusSoFar":5.09},{"rt":470417,"response":{"heads":"30","tails":"0"},"type":"response","condition":"seqFeedback","trueTheta":0.8,"classrooms":["C","D"],"studentTrueClassroom":"C","exampleSet":"second","trial_type":"survey-html-form","trial_index":155,"time_elapsed":3410705,"internal_node_id":"0.0-152.0-0.0","params":{"nStudents":24,"maxFlips":30,"completionMinutes":45,"basePay":8,"maxBonus":9,"perTrialBonus":0.5,"perTrialBonusThreshold":0.05,"exampleCost":0.01},"classroomParams":{"A":{"a":1,"b":4},"B":{"a":4,"b":1},"C":{"a":2,"b":8},"D":{"a":8,"b":2}},"conditions":["nonSeqFull","nonSeqPartial","seqNoFeedback","seqFeedback"],"classroomPairings":[["A","B"],["C","D"]],"coinWeights":[0.2,0.5,0.8],"subjectId":"A3EU8ENRH654SB","assignmentId":"3HL8HNGX46NK7PKE1T6WLAD7X8NF9O","hitId":"32TZXEA1OL6QYKM0MXQIQH2ABHN14I","url":"https://gershmanlab.com/experiments/alicia/teaching/experiment/?hitId=32TZXEA1OL6QYKM0MXQIQH2ABHN14I&workerId=A3EU8ENRH654SB&assignmentId=3HL8HNGX46NK7PKE1T6WLAD7X8NF9O&a=XHLH9&tp_a=XHLH9&b=3HL8HNGX46NK7PKE1T6WLAD7X8NF9O&tp_b=3HL8HNGX46NK7PKE1T6WLAD7X8NF9O&c=365799&tp_c=365799","firstResponseHeads":1,"firstResponseTails":0,"secondResponseHeads":30,"secondResponseTails":0,"totalHeads":31,"totalTails":0,"studentIndex":18,"studentTrueHypers":{"a":2,"b":8},"studentGuess":0.8048780487804879,"delta":0.004878048780487809,"bonus":0.19,"bonusSoFar":5.28,"totalExamples":31},{"rt":20476,"response":{"heads":"6","tails":"0"},"type":"response","condition":"nonSeqPartial","trueTheta":0.5,"classrooms":["C","D"],"studentTrueClassroom":"D","exampleSet":"first","trial_type":"survey-html-form","trial_index":161,"time_elapsed":3450372,"internal_node_id":"0.0-158.0-0.0","params":{"nStudents":24,"maxFlips":30,"completionMinutes":45,"basePay":8,"maxBonus":9,"perTrialBonus":0.5,"perTrialBonusThreshold":0.05,"exampleCost":0.01},"classroomParams":{"A":{"a":1,"b":4},"B":{"a":4,"b":1},"C":{"a":2,"b":8},"D":{"a":8,"b":2}},"conditions":["nonSeqFull","nonSeqPartial","seqNoFeedback","seqFeedback"],"classroomPairings":[["A","B"],["C","D"]],"coinWeights":[0.2,0.5,0.8],"subjectId":"A3EU8ENRH654SB","assignmentId":"3HL8HNGX46NK7PKE1T6WLAD7X8NF9O","hitId":"32TZXEA1OL6QYKM0MXQIQH2ABHN14I","url":"https://gershmanlab.com/experiments/alicia/teaching/experiment/?hitId=32TZXEA1OL6QYKM0MXQIQH2ABHN14I&workerId=A3EU8ENRH654SB&assignmentId=3HL8HNGX46NK7PKE1T6WLAD7X8NF9O&a=XHLH9&tp_a=XHLH9&b=3HL8HNGX46NK7PKE1T6WLAD7X8NF9O&tp_b=3HL8HNGX46NK7PKE1T6WLAD7X8NF9O&c=365799&tp_c=365799","heads":6,"tails":0,"studentIndex":19,"studentTrueHypers":{"a":8,"b":2},"studentGuess":0.875,"delta":0.375,"totalExamples":6,"bonus":0,"bonusSoFar":5.28},{"rt":12556,"response":{"heads":"6","tails":"0"},"type":"response","condition":"nonSeqFull","trueTheta":0.5,"classrooms":["C","D"],"studentTrueClassroom":"C","exampleSet":"first","trial_type":"survey-html-form","trial_index":167,"time_elapsed":3478831,"internal_node_id":"0.0-164.0-0.0","params":{"nStudents":24,"maxFlips":30,"completionMinutes":45,"basePay":8,"maxBonus":9,"perTrialBonus":0.5,"perTrialBonusThreshold":0.05,"exampleCost":0.01},"classroomParams":{"A":{"a":1,"b":4},"B":{"a":4,"b":1},"C":{"a":2,"b":8},"D":{"a":8,"b":2}},"conditions":["nonSeqFull","nonSeqPartial","seqNoFeedback","seqFeedback"],"classroomPairings":[["A","B"],["C","D"]],"coinWeights":[0.2,0.5,0.8],"subjectId":"A3EU8ENRH654SB","assignmentId":"3HL8HNGX46NK7PKE1T6WLAD7X8NF9O","hitId":"32TZXEA1OL6QYKM0MXQIQH2ABHN14I","url":"https://gershmanlab.com/experiments/alicia/teaching/experiment/?hitId=32TZXEA1OL6QYKM0MXQIQH2ABHN14I&workerId=A3EU8ENRH654SB&assignmentId=3HL8HNGX46NK7PKE1T6WLAD7X8NF9O&a=XHLH9&tp_a=XHLH9&b=3HL8HNGX46NK7PKE1T6WLAD7X8NF9O&tp_b=3HL8HNGX46NK7PKE1T6WLAD7X8NF9O&c=365799&tp_c=365799","heads":6,"tails":0,"studentIndex":20,"studentTrueHypers":{"a":2,"b":8},"studentGuess":0.5,"delta":0,"totalExamples":6,"bonus":0.44,"bonusSoFar":5.72},{"rt":183183,"response":{"heads":"30","tails":"0"},"type":"response","condition":"nonSeqFull","trueTheta":0.8,"classrooms":["C","D"],"studentTrueClassroom":"C","exampleSet":"first","trial_type":"survey-html-form","trial_index":173,"time_elapsed":3681189,"internal_node_id":"0.0-170.0-0.0","params":{"nStudents":24,"maxFlips":30,"completionMinutes":45,"basePay":8,"maxBonus":9,"perTrialBonus":0.5,"perTrialBonusThreshold":0.05,"exampleCost":0.01},"classroomParams":{"A":{"a":1,"b":4},"B":{"a":4,"b":1},"C":{"a":2,"b":8},"D":{"a":8,"b":2}},"conditions":["nonSeqFull","nonSeqPartial","seqNoFeedback","seqFeedback"],"classroomPairings":[["A","B"],["C","D"]],"coinWeights":[0.2,0.5,0.8],"subjectId":"A3EU8ENRH654SB","assignmentId":"3HL8HNGX46NK7PKE1T6WLAD7X8NF9O","hitId":"32TZXEA1OL6QYKM0MXQIQH2ABHN14I","url":"https://gershmanlab.com/experiments/alicia/teaching/experiment/?hitId=32TZXEA1OL6QYKM0MXQIQH2ABHN14I&workerId=A3EU8ENRH654SB&assignmentId=3HL8HNGX46NK7PKE1T6WLAD7X8NF9O&a=XHLH9&tp_a=XHLH9&b=3HL8HNGX46NK7PKE1T6WLAD7X8NF9O&tp_b=3HL8HNGX46NK7PKE1T6WLAD7X8NF9O&c=365799&tp_c=365799","heads":30,"tails":0,"studentIndex":21,"studentTrueHypers":{"a":2,"b":8},"studentGuess":0.8,"delta":0,"totalExamples":30,"bonus":0.2,"bonusSoFar":5.92},{"rt":23382,"response":{"heads":"0","tails":"1"},"type":"response","condition":"seqFeedback","trueTheta":0.2,"classrooms":["A","B"],"studentTrueClassroom":"B","exampleSet":"first","trial_type":"survey-html-form","trial_index":179,"time_elapsed":3724772,"internal_node_id":"0.0-176.0-0.0","params":{"nStudents":24,"maxFlips":30,"completionMinutes":45,"basePay":8,"maxBonus":9,"perTrialBonus":0.5,"perTrialBonusThreshold":0.05,"exampleCost":0.01},"classroomParams":{"A":{"a":1,"b":4},"B":{"a":4,"b":1},"C":{"a":2,"b":8},"D":{"a":8,"b":2}},"conditions":["nonSeqFull","nonSeqPartial","seqNoFeedback","seqFeedback"],"classroomPairings":[["A","B"],["C","D"]],"coinWeights":[0.2,0.5,0.8],"subjectId":"A3EU8ENRH654SB","assignmentId":"3HL8HNGX46NK7PKE1T6WLAD7X8NF9O","hitId":"32TZXEA1OL6QYKM0MXQIQH2ABHN14I","url":"https://gershmanlab.com/experiments/alicia/teaching/experiment/?hitId=32TZXEA1OL6QYKM0MXQIQH2ABHN14I&workerId=A3EU8ENRH654SB&assignmentId=3HL8HNGX46NK7PKE1T6WLAD7X8NF9O&a=XHLH9&tp_a=XHLH9&b=3HL8HNGX46NK7PKE1T6WLAD7X8NF9O&tp_b=3HL8HNGX46NK7PKE1T6WLAD7X8NF9O&c=365799&tp_c=365799","heads":0,"tails":1,"studentIndex":22,"studentTrueHypers":{"a":4,"b":1},"studentGuess":0.6666666666666666,"delta":0.4666666666666666,"totalExamples":1,"bonusSoFar":5.92},{"rt":195022,"response":{"heads":"0","tails":"14"},"type":"response","condition":"seqFeedback","trueTheta":0.2,"classrooms":["A","B"],"studentTrueClassroom":"B","exampleSet":"second","trial_type":"survey-html-form","trial_index":183,"time_elapsed":3941794,"internal_node_id":"0.0-180.0-0.0","params":{"nStudents":24,"maxFlips":30,"completionMinutes":45,"basePay":8,"maxBonus":9,"perTrialBonus":0.5,"perTrialBonusThreshold":0.05,"exampleCost":0.01},"classroomParams":{"A":{"a":1,"b":4},"B":{"a":4,"b":1},"C":{"a":2,"b":8},"D":{"a":8,"b":2}},"conditions":["nonSeqFull","nonSeqPartial","seqNoFeedback","seqFeedback"],"classroomPairings":[["A","B"],["C","D"]],"coinWeights":[0.2,0.5,0.8],"subjectId":"A3EU8ENRH654SB","assignmentId":"3HL8HNGX46NK7PKE1T6WLAD7X8NF9O","hitId":"32TZXEA1OL6QYKM0MXQIQH2ABHN14I","url":"https://gershmanlab.com/experiments/alicia/teaching/experiment/?hitId=32TZXEA1OL6QYKM0MXQIQH2ABHN14I&workerId=A3EU8ENRH654SB&assignmentId=3HL8HNGX46NK7PKE1T6WLAD7X8NF9O&a=XHLH9&tp_a=XHLH9&b=3HL8HNGX46NK7PKE1T6WLAD7X8NF9O&tp_b=3HL8HNGX46NK7PKE1T6WLAD7X8NF9O&c=365799&tp_c=365799","firstResponseHeads":0,"firstResponseTails":1,"secondResponseHeads":0,"secondResponseTails":14,"totalHeads":0,"totalTails":15,"studentIndex":22,"studentTrueHypers":{"a":4,"b":1},"studentGuess":0.2,"delta":0,"bonus":0.35,"bonusSoFar":6.27,"totalExamples":15},{"rt":45831,"response":{"heads":"30","tails":"0"},"type":"response","condition":"nonSeqPartial","trueTheta":0.8,"classrooms":["C","D"],"studentTrueClassroom":"C","exampleSet":"first","trial_type":"survey-html-form","trial_index":189,"time_elapsed":4006388,"internal_node_id":"0.0-186.0-0.0","params":{"nStudents":24,"maxFlips":30,"completionMinutes":45,"basePay":8,"maxBonus":9,"perTrialBonus":0.5,"perTrialBonusThreshold":0.05,"exampleCost":0.01},"classroomParams":{"A":{"a":1,"b":4},"B":{"a":4,"b":1},"C":{"a":2,"b":8},"D":{"a":8,"b":2}},"conditions":["nonSeqFull","nonSeqPartial","seqNoFeedback","seqFeedback"],"classroomPairings":[["A","B"],["C","D"]],"coinWeights":[0.2,0.5,0.8],"subjectId":"A3EU8ENRH654SB","assignmentId":"3HL8HNGX46NK7PKE1T6WLAD7X8NF9O","hitId":"32TZXEA1OL6QYKM0MXQIQH2ABHN14I","url":"https://gershmanlab.com/experiments/alicia/teaching/experiment/?hitId=32TZXEA1OL6QYKM0MXQIQH2ABHN14I&workerId=A3EU8ENRH654SB&assignmentId=3HL8HNGX46NK7PKE1T6WLAD7X8NF9O&a=XHLH9&tp_a=XHLH9&b=3HL8HNGX46NK7PKE1T6WLAD7X8NF9O&tp_b=3HL8HNGX46NK7PKE1T6WLAD7X8NF9O&c=365799&tp_c=365799","heads":30,"tails":0,"studentIndex":23,"studentTrueHypers":{"a":2,"b":8},"studentGuess":0.8,"delta":0,"totalExamples":30,"bonus":0.2,"bonusSoFar":6.47},{"rt":68040,"response":{"gender":"female","age":"43","understood":"yes","comments":"I didn't understand at first that some trials would show me the students first guess, while others would not. So my first guess on a couple trials would have been done differently if I understood I wouldn't always see the first guess on the 2-guess trials."},"type":"response","trial_type":"survey-html-form","trial_index":193,"time_elapsed":4084323,"internal_node_id":"0.0-191.0","params":{"nStudents":24,"maxFlips":30,"completionMinutes":45,"basePay":8,"maxBonus":9,"perTrialBonus":0.5,"perTrialBonusThreshold":0.05,"exampleCost":0.01},"classroomParams":{"A":{"a":1,"b":4},"B":{"a":4,"b":1},"C":{"a":2,"b":8},"D":{"a":8,"b":2}},"conditions":["nonSeqFull","nonSeqPartial","seqNoFeedback","seqFeedback"],"classroomPairings":[["A","B"],["C","D"]],"coinWeights":[0.2,0.5,0.8],"subjectId":"A3EU8ENRH654SB","assignmentId":"3HL8HNGX46NK7PKE1T6WLAD7X8NF9O","hitId":"32TZXEA1OL6QYKM0MXQIQH2ABHN14I","url":"https://gershmanlab.com/experiments/alicia/teaching/experiment/?hitId=32TZXEA1OL6QYKM0MXQIQH2ABHN14I&workerId=A3EU8ENRH654SB&assignmentId=3HL8HNGX46NK7PKE1T6WLAD7X8NF9O&a=XHLH9&tp_a=XHLH9&b=3HL8HNGX46NK7PKE1T6WLAD7X8NF9O&tp_b=3HL8HNGX46NK7PKE1T6WLAD7X8NF9O&c=365799&tp_c=365799","totalBonus":6.47}]