[{"rt":25485,"response":{"heads":"0","tails":"3"},"type":"response","condition":"nonSeqFull","trueTheta":0.5,"classrooms":["A","B"],"studentTrueClassroom":"B","exampleSet":"first","trial_type":"survey-html-form","trial_index":10,"time_elapsed":578601,"internal_node_id":"0.0-6.0-0.0","params":{"nStudents":24,"maxFlips":30,"completionMinutes":45,"basePay":8,"maxBonus":9,"perTrialBonus":0.5,"perTrialBonusThreshold":0.05,"exampleCost":0.01},"classroomParams":{"A":{"a":1,"b":4},"B":{"a":4,"b":1},"C":{"a":2,"b":8},"D":{"a":8,"b":2}},"conditions":["nonSeqFull","nonSeqPartial","seqNoFeedback","seqFeedback"],"classroomPairings":[["A","B"],["C","D"]],"coinWeights":[0.2,0.5,0.8],"subjectId":"A3G5IPGLH1IIZN","assignmentId":"3QEMNNSB2YLJVMIPVQDMJEJGQ5JD7Z","hitId":"3J94SKDEKIB2MY6CGVTNWB9X0ALD5P","url":"https://gershmanlab.com/experiments/alicia/teaching/experiment/?hitId=3J94SKDEKIB2MY6CGVTNWB9X0ALD5P&workerId=A3G5IPGLH1IIZN&assignmentId=3QEMNNSB2YLJVMIPVQDMJEJGQ5JD7Z&a=BNEQ9&tp_a=BNEQ9&b=3QEMNNSB2YLJVMIPVQDMJEJGQ5JD7Z&tp_b=3QEMNNSB2YLJVMIPVQDMJEJGQ5JD7Z&c=365799&tp_c=365799","heads":0,"tails":3,"studentIndex":0,"studentTrueHypers":{"a":4,"b":1},"studentGuess":0.5,"delta":0,"totalExamples":3,"bonus":0.47,"bonusSoFar":0.47},{"rt":11775,"response":{"heads":"2","tails":"0"},"type":"response","condition":"nonSeqFull","trueTheta":0.8,"classrooms":["C","D"],"studentTrueClassroom":"D","exampleSet":"first","trial_type":"survey-html-form","trial_index":16,"time_elapsed":615434,"internal_node_id":"0.0-12.0-0.0","params":{"nStudents":24,"maxFlips":30,"completionMinutes":45,"basePay":8,"maxBonus":9,"perTrialBonus":0.5,"perTrialBonusThreshold":0.05,"exampleCost":0.01},"classroomParams":{"A":{"a":1,"b":4},"B":{"a":4,"b":1},"C":{"a":2,"b":8},"D":{"a":8,"b":2}},"conditions":["nonSeqFull","nonSeqPartial","seqNoFeedback","seqFeedback"],"classroomPairings":[["A","B"],["C","D"]],"coinWeights":[0.2,0.5,0.8],"subjectId":"A3G5IPGLH1IIZN","assignmentId":"3QEMNNSB2YLJVMIPVQDMJEJGQ5JD7Z","hitId":"3J94SKDEKIB2MY6CGVTNWB9X0ALD5P","url":"https://gershmanlab.com/experiments/alicia/teaching/experiment/?hitId=3J94SKDEKIB2MY6CGVTNWB9X0ALD5P&workerId=A3G5IPGLH1IIZN&assignmentId=3QEMNNSB2YLJVMIPVQDMJEJGQ5JD7Z&a=BNEQ9&tp_a=BNEQ9&b=3QEMNNSB2YLJVMIPVQDMJEJGQ5JD7Z&tp_b=3QEMNNSB2YLJVMIPVQDMJEJGQ5JD7Z&c=365799&tp_c=365799","heads":2,"tails":0,"studentIndex":1,"studentTrueHypers":{"a":8,"b":2},"studentGuess":0.8333333333333334,"delta":0.033333333333333326,"totalExamples":2,"bonus":0.48,"bonusSoFar":0.95},{"rt":32004,"response":{"heads":"3","tails":"0"},"type":"response","condition":"seqFeedback","trueTheta":0.5,"classrooms":["A","B"],"studentTrueClassroom":"B","exampleSet":"first","trial_type":"survey-html-form","trial_index":22,"time_elapsed":686632,"internal_node_id":"0.0-18.0-0.0","params":{"nStudents":24,"maxFlips":30,"completionMinutes":45,"basePay":8,"maxBonus":9,"perTrialBonus":0.5,"perTrialBonusThreshold":0.05,"exampleCost":0.01},"classroomParams":{"A":{"a":1,"b":4},"B":{"a":4,"b":1},"C":{"a":2,"b":8},"D":{"a":8,"b":2}},"conditions":["nonSeqFull","nonSeqPartial","seqNoFeedback","seqFeedback"],"classroomPairings":[["A","B"],["C","D"]],"coinWeights":[0.2,0.5,0.8],"subjectId":"A3G5IPGLH1IIZN","assignmentId":"3QEMNNSB2YLJVMIPVQDMJEJGQ5JD7Z","hitId":"3J94SKDEKIB2MY6CGVTNWB9X0ALD5P","url":"https://gershmanlab.com/experiments/alicia/teaching/experiment/?hitId=3J94SKDEKIB2MY6CGVTNWB9X0ALD5P&workerId=A3G5IPGLH1IIZN&assignmentId=3QEMNNSB2YLJVMIPVQDMJEJGQ5JD7Z&a=BNEQ9&tp_a=BNEQ9&b=3QEMNNSB2YLJVMIPVQDMJEJGQ5JD7Z&tp_b=3QEMNNSB2YLJVMIPVQDMJEJGQ5JD7Z&c=365799&tp_c=365799","heads":3,"tails":0,"studentIndex":2,"studentTrueHypers":{"a":4,"b":1},"studentGuess":0.875,"delta":0.375,"totalExamples":3,"bonusSoFar":0.95},{"rt":10538,"response":{"heads":"0","tails":"7"},"type":"response","condition":"seqFeedback","trueTheta":0.5,"classrooms":["A","B"],"studentTrueClassroom":"B","exampleSet":"second","trial_type":"survey-html-form","trial_index":26,"time_elapsed":724488,"internal_node_id":"0.0-22.0-0.0","params":{"nStudents":24,"maxFlips":30,"completionMinutes":45,"basePay":8,"maxBonus":9,"perTrialBonus":0.5,"perTrialBonusThreshold":0.05,"exampleCost":0.01},"classroomParams":{"A":{"a":1,"b":4},"B":{"a":4,"b":1},"C":{"a":2,"b":8},"D":{"a":8,"b":2}},"conditions":["nonSeqFull","nonSeqPartial","seqNoFeedback","seqFeedback"],"classroomPairings":[["A","B"],["C","D"]],"coinWeights":[0.2,0.5,0.8],"subjectId":"A3G5IPGLH1IIZN","assignmentId":"3QEMNNSB2YLJVMIPVQDMJEJGQ5JD7Z","hitId":"3J94SKDEKIB2MY6CGVTNWB9X0ALD5P","url":"https://gershmanlab.com/experiments/alicia/teaching/experiment/?hitId=3J94SKDEKIB2MY6CGVTNWB9X0ALD5P&workerId=A3G5IPGLH1IIZN&assignmentId=3QEMNNSB2YLJVMIPVQDMJEJGQ5JD7Z&a=BNEQ9&tp_a=BNEQ9&b=3QEMNNSB2YLJVMIPVQDMJEJGQ5JD7Z&tp_b=3QEMNNSB2YLJVMIPVQDMJEJGQ5JD7Z&c=365799&tp_c=365799","firstResponseHeads":3,"firstResponseTails":0,"secondResponseHeads":0,"secondResponseTails":7,"totalHeads":3,"totalTails":7,"studentIndex":2,"studentTrueHypers":{"a":4,"b":1},"studentGuess":0.4666666666666667,"delta":0.033333333333333326,"bonus":0.4,"bonusSoFar":1.35,"totalExamples":10},{"rt":27093,"response":{"heads":"6","tails":"0"},"type":"response","condition":"nonSeqPartial","trueTheta":0.8,"classrooms":["C","D"],"studentTrueClassroom":"C","exampleSet":"first","trial_type":"survey-html-form","trial_index":32,"time_elapsed":770192,"internal_node_id":"0.0-28.0-0.0","params":{"nStudents":24,"maxFlips":30,"completionMinutes":45,"basePay":8,"maxBonus":9,"perTrialBonus":0.5,"perTrialBonusThreshold":0.05,"exampleCost":0.01},"classroomParams":{"A":{"a":1,"b":4},"B":{"a":4,"b":1},"C":{"a":2,"b":8},"D":{"a":8,"b":2}},"conditions":["nonSeqFull","nonSeqPartial","seqNoFeedback","seqFeedback"],"classroomPairings":[["A","B"],["C","D"]],"coinWeights":[0.2,0.5,0.8],"subjectId":"A3G5IPGLH1IIZN","assignmentId":"3QEMNNSB2YLJVMIPVQDMJEJGQ5JD7Z","hitId":"3J94SKDEKIB2MY6CGVTNWB9X0ALD5P","url":"https://gershmanlab.com/experiments/alicia/teaching/experiment/?hitId=3J94SKDEKIB2MY6CGVTNWB9X0ALD5P&workerId=A3G5IPGLH1IIZN&assignmentId=3QEMNNSB2YLJVMIPVQDMJEJGQ5JD7Z&a=BNEQ9&tp_a=BNEQ9&b=3QEMNNSB2YLJVMIPVQDMJEJGQ5JD7Z&tp_b=3QEMNNSB2YLJVMIPVQDMJEJGQ5JD7Z&c=365799&tp_c=365799","heads":6,"tails":0,"studentIndex":3,"studentTrueHypers":{"a":2,"b":8},"studentGuess":0.5,"delta":0.30000000000000004,"totalExamples":6,"bonus":0,"bonusSoFar":1.35},{"rt":17420,"response":{"heads":"2","tails":"0"},"type":"response","condition":"seqFeedback","trueTheta":0.2,"classrooms":["A","B"],"studentTrueClassroom":"A","exampleSet":"first","trial_type":"survey-html-form","trial_index":38,"time_elapsed":820376,"internal_node_id":"0.0-34.0-0.0","params":{"nStudents":24,"maxFlips":30,"completionMinutes":45,"basePay":8,"maxBonus":9,"perTrialBonus":0.5,"perTrialBonusThreshold":0.05,"exampleCost":0.01},"classroomParams":{"A":{"a":1,"b":4},"B":{"a":4,"b":1},"C":{"a":2,"b":8},"D":{"a":8,"b":2}},"conditions":["nonSeqFull","nonSeqPartial","seqNoFeedback","seqFeedback"],"classroomPairings":[["A","B"],["C","D"]],"coinWeights":[0.2,0.5,0.8],"subjectId":"A3G5IPGLH1IIZN","assignmentId":"3QEMNNSB2YLJVMIPVQDMJEJGQ5JD7Z","hitId":"3J94SKDEKIB2MY6CGVTNWB9X0ALD5P","url":"https://gershmanlab.com/experiments/alicia/teaching/experiment/?hitId=3J94SKDEKIB2MY6CGVTNWB9X0ALD5P&workerId=A3G5IPGLH1IIZN&assignmentId=3QEMNNSB2YLJVMIPVQDMJEJGQ5JD7Z&a=BNEQ9&tp_a=BNEQ9&b=3QEMNNSB2YLJVMIPVQDMJEJGQ5JD7Z&tp_b=3QEMNNSB2YLJVMIPVQDMJEJGQ5JD7Z&c=365799&tp_c=365799","heads":2,"tails":0,"studentIndex":4,"studentTrueHypers":{"a":1,"b":4},"studentGuess":0.42857142857142855,"delta":0.22857142857142854,"totalExamples":2,"bonusSoFar":1.35},{"rt":10872,"response":{"heads":"0","tails":"6"},"type":"response","condition":"seqFeedback","trueTheta":0.2,"classrooms":["A","B"],"studentTrueClassroom":"A","exampleSet":"second","trial_type":"survey-html-form","trial_index":42,"time_elapsed":850400,"internal_node_id":"0.0-38.0-0.0","params":{"nStudents":24,"maxFlips":30,"completionMinutes":45,"basePay":8,"maxBonus":9,"perTrialBonus":0.5,"perTrialBonusThreshold":0.05,"exampleCost":0.01},"classroomParams":{"A":{"a":1,"b":4},"B":{"a":4,"b":1},"C":{"a":2,"b":8},"D":{"a":8,"b":2}},"conditions":["nonSeqFull","nonSeqPartial","seqNoFeedback","seqFeedback"],"classroomPairings":[["A","B"],["C","D"]],"coinWeights":[0.2,0.5,0.8],"subjectId":"A3G5IPGLH1IIZN","assignmentId":"3QEMNNSB2YLJVMIPVQDMJEJGQ5JD7Z","hitId":"3J94SKDEKIB2MY6CGVTNWB9X0ALD5P","url":"https://gershmanlab.com/experiments/alicia/teaching/experiment/?hitId=3J94SKDEKIB2MY6CGVTNWB9X0ALD5P&workerId=A3G5IPGLH1IIZN&assignmentId=3QEMNNSB2YLJVMIPVQDMJEJGQ5JD7Z&a=BNEQ9&tp_a=BNEQ9&b=3QEMNNSB2YLJVMIPVQDMJEJGQ5JD7Z&tp_b=3QEMNNSB2YLJVMIPVQDMJEJGQ5JD7Z&c=365799&tp_c=365799","firstResponseHeads":2,"firstResponseTails":0,"secondResponseHeads":0,"secondResponseTails":6,"totalHeads":2,"totalTails":6,"studentIndex":4,"studentTrueHypers":{"a":1,"b":4},"studentGuess":0.23076923076923078,"delta":0.03076923076923077,"bonus":0.42,"bonusSoFar":1.77,"totalExamples":8},{"rt":21111,"response":{"heads":"6","tails":"0"},"type":"response","condition":"seqNoFeedback","trueTheta":0.5,"classrooms":["C","D"],"studentTrueClassroom":"C","exampleSet":"first","trial_type":"survey-html-form","trial_index":48,"time_elapsed":892082,"internal_node_id":"0.0-44.0-0.0","params":{"nStudents":24,"maxFlips":30,"completionMinutes":45,"basePay":8,"maxBonus":9,"perTrialBonus":0.5,"perTrialBonusThreshold":0.05,"exampleCost":0.01},"classroomParams":{"A":{"a":1,"b":4},"B":{"a":4,"b":1},"C":{"a":2,"b":8},"D":{"a":8,"b":2}},"conditions":["nonSeqFull","nonSeqPartial","seqNoFeedback","seqFeedback"],"classroomPairings":[["A","B"],["C","D"]],"coinWeights":[0.2,0.5,0.8],"subjectId":"A3G5IPGLH1IIZN","assignmentId":"3QEMNNSB2YLJVMIPVQDMJEJGQ5JD7Z","hitId":"3J94SKDEKIB2MY6CGVTNWB9X0ALD5P","url":"https://gershmanlab.com/experiments/alicia/teaching/experiment/?hitId=3J94SKDEKIB2MY6CGVTNWB9X0ALD5P&workerId=A3G5IPGLH1IIZN&assignmentId=3QEMNNSB2YLJVMIPVQDMJEJGQ5JD7Z&a=BNEQ9&tp_a=BNEQ9&b=3QEMNNSB2YLJVMIPVQDMJEJGQ5JD7Z&tp_b=3QEMNNSB2YLJVMIPVQDMJEJGQ5JD7Z&c=365799&tp_c=365799","heads":6,"tails":0,"studentIndex":5,"studentTrueHypers":{"a":2,"b":8},"studentGuess":0.5,"delta":0,"totalExamples":6,"bonusSoFar":1.77},{"rt":21583,"response":{"heads":"0","tails":"0"},"type":"response","condition":"seqNoFeedback","trueTheta":0.5,"classrooms":["C","D"],"studentTrueClassroom":"C","exampleSet":"second","trial_type":"survey-html-form","trial_index":51,"time_elapsed":919424,"internal_node_id":"0.0-47.0-0.0","params":{"nStudents":24,"maxFlips":30,"completionMinutes":45,"basePay":8,"maxBonus":9,"perTrialBonus":0.5,"perTrialBonusThreshold":0.05,"exampleCost":0.01},"classroomParams":{"A":{"a":1,"b":4},"B":{"a":4,"b":1},"C":{"a":2,"b":8},"D":{"a":8,"b":2}},"conditions":["nonSeqFull","nonSeqPartial","seqNoFeedback","seqFeedback"],"classroomPairings":[["A","B"],["C","D"]],"coinWeights":[0.2,0.5,0.8],"subjectId":"A3G5IPGLH1IIZN","assignmentId":"3QEMNNSB2YLJVMIPVQDMJEJGQ5JD7Z","hitId":"3J94SKDEKIB2MY6CGVTNWB9X0ALD5P","url":"https://gershmanlab.com/experiments/alicia/teaching/experiment/?hitId=3J94SKDEKIB2MY6CGVTNWB9X0ALD5P&workerId=A3G5IPGLH1IIZN&assignmentId=3QEMNNSB2YLJVMIPVQDMJEJGQ5JD7Z&a=BNEQ9&tp_a=BNEQ9&b=3QEMNNSB2YLJVMIPVQDMJEJGQ5JD7Z&tp_b=3QEMNNSB2YLJVMIPVQDMJEJGQ5JD7Z&c=365799&tp_c=365799","firstResponseHeads":6,"firstResponseTails":0,"secondResponseHeads":0,"secondResponseTails":0,"totalHeads":6,"totalTails":0,"studentIndex":5,"studentTrueHypers":{"a":2,"b":8},"studentGuess":0.5,"delta":0,"bonus":0.44,"bonusSoFar":2.21,"totalExamples":6},{"rt":13820,"response":{"heads":"1","tails":"1"},"type":"response","condition":"seqNoFeedback","trueTheta":0.5,"classrooms":["C","D"],"studentTrueClassroom":"C","exampleSet":"second","trial_type":"survey-html-form","trial_index":52,"time_elapsed":933257,"internal_node_id":"0.0-47.1-0.1","params":{"nStudents":24,"maxFlips":30,"completionMinutes":45,"basePay":8,"maxBonus":9,"perTrialBonus":0.5,"perTrialBonusThreshold":0.05,"exampleCost":0.01},"classroomParams":{"A":{"a":1,"b":4},"B":{"a":4,"b":1},"C":{"a":2,"b":8},"D":{"a":8,"b":2}},"conditions":["nonSeqFull","nonSeqPartial","seqNoFeedback","seqFeedback"],"classroomPairings":[["A","B"],["C","D"]],"coinWeights":[0.2,0.5,0.8],"subjectId":"A3G5IPGLH1IIZN","assignmentId":"3QEMNNSB2YLJVMIPVQDMJEJGQ5JD7Z","hitId":"3J94SKDEKIB2MY6CGVTNWB9X0ALD5P","url":"https://gershmanlab.com/experiments/alicia/teaching/experiment/?hitId=3J94SKDEKIB2MY6CGVTNWB9X0ALD5P&workerId=A3G5IPGLH1IIZN&assignmentId=3QEMNNSB2YLJVMIPVQDMJEJGQ5JD7Z&a=BNEQ9&tp_a=BNEQ9&b=3QEMNNSB2YLJVMIPVQDMJEJGQ5JD7Z&tp_b=3QEMNNSB2YLJVMIPVQDMJEJGQ5JD7Z&c=365799&tp_c=365799","firstResponseHeads":6,"firstResponseTails":0,"secondResponseHeads":1,"secondResponseTails":1,"totalHeads":7,"totalTails":1,"studentIndex":5,"studentTrueHypers":{"a":2,"b":8},"studentGuess":0.5,"delta":0,"bonus":0.42,"bonusSoFar":2.63,"totalExamples":8},{"rt":12117,"response":{"heads":"6","tails":"0"},"type":"response","condition":"nonSeqPartial","trueTheta":0.5,"classrooms":["C","D"],"studentTrueClassroom":"D","exampleSet":"first","trial_type":"survey-html-form","trial_index":58,"time_elapsed":973112,"internal_node_id":"0.0-53.0-0.0","params":{"nStudents":24,"maxFlips":30,"completionMinutes":45,"basePay":8,"maxBonus":9,"perTrialBonus":0.5,"perTrialBonusThreshold":0.05,"exampleCost":0.01},"classroomParams":{"A":{"a":1,"b":4},"B":{"a":4,"b":1},"C":{"a":2,"b":8},"D":{"a":8,"b":2}},"conditions":["nonSeqFull","nonSeqPartial","seqNoFeedback","seqFeedback"],"classroomPairings":[["A","B"],["C","D"]],"coinWeights":[0.2,0.5,0.8],"subjectId":"A3G5IPGLH1IIZN","assignmentId":"3QEMNNSB2YLJVMIPVQDMJEJGQ5JD7Z","hitId":"3J94SKDEKIB2MY6CGVTNWB9X0ALD5P","url":"https://gershmanlab.com/experiments/alicia/teaching/experiment/?hitId=3J94SKDEKIB2MY6CGVTNWB9X0ALD5P&workerId=A3G5IPGLH1IIZN&assignmentId=3QEMNNSB2YLJVMIPVQDMJEJGQ5JD7Z&a=BNEQ9&tp_a=BNEQ9&b=3QEMNNSB2YLJVMIPVQDMJEJGQ5JD7Z&tp_b=3QEMNNSB2YLJVMIPVQDMJEJGQ5JD7Z&c=365799&tp_c=365799","heads":6,"tails":0,"studentIndex":6,"studentTrueHypers":{"a":8,"b":2},"studentGuess":0.875,"delta":0.375,"totalExamples":6,"bonus":0,"bonusSoFar":2.63},{"rt":11182,"response":{"heads":"6","tails":"0"},"type":"response","condition":"nonSeqFull","trueTheta":0.5,"classrooms":["C","D"],"studentTrueClassroom":"C","exampleSet":"first","trial_type":"survey-html-form","trial_index":64,"time_elapsed":1002192,"internal_node_id":"0.0-59.0-0.0","params":{"nStudents":24,"maxFlips":30,"completionMinutes":45,"basePay":8,"maxBonus":9,"perTrialBonus":0.5,"perTrialBonusThreshold":0.05,"exampleCost":0.01},"classroomParams":{"A":{"a":1,"b":4},"B":{"a":4,"b":1},"C":{"a":2,"b":8},"D":{"a":8,"b":2}},"conditions":["nonSeqFull","nonSeqPartial","seqNoFeedback","seqFeedback"],"classroomPairings":[["A","B"],["C","D"]],"coinWeights":[0.2,0.5,0.8],"subjectId":"A3G5IPGLH1IIZN","assignmentId":"3QEMNNSB2YLJVMIPVQDMJEJGQ5JD7Z","hitId":"3J94SKDEKIB2MY6CGVTNWB9X0ALD5P","url":"https://gershmanlab.com/experiments/alicia/teaching/experiment/?hitId=3J94SKDEKIB2MY6CGVTNWB9X0ALD5P&workerId=A3G5IPGLH1IIZN&assignmentId=3QEMNNSB2YLJVMIPVQDMJEJGQ5JD7Z&a=BNEQ9&tp_a=BNEQ9&b=3QEMNNSB2YLJVMIPVQDMJEJGQ5JD7Z&tp_b=3QEMNNSB2YLJVMIPVQDMJEJGQ5JD7Z&c=365799&tp_c=365799","heads":6,"tails":0,"studentIndex":7,"studentTrueHypers":{"a":2,"b":8},"studentGuess":0.5,"delta":0,"totalExamples":6,"bonus":0.44,"bonusSoFar":3.07},{"rt":21621,"response":{"heads":"6","tails":"0"},"type":"response","condition":"seqFeedback","trueTheta":0.8,"classrooms":["C","D"],"studentTrueClassroom":"D","exampleSet":"first","trial_type":"survey-html-form","trial_index":70,"time_elapsed":1048347,"internal_node_id":"0.0-65.0-0.0","params":{"nStudents":24,"maxFlips":30,"completionMinutes":45,"basePay":8,"maxBonus":9,"perTrialBonus":0.5,"perTrialBonusThreshold":0.05,"exampleCost":0.01},"classroomParams":{"A":{"a":1,"b":4},"B":{"a":4,"b":1},"C":{"a":2,"b":8},"D":{"a":8,"b":2}},"conditions":["nonSeqFull","nonSeqPartial","seqNoFeedback","seqFeedback"],"classroomPairings":[["A","B"],["C","D"]],"coinWeights":[0.2,0.5,0.8],"subjectId":"A3G5IPGLH1IIZN","assignmentId":"3QEMNNSB2YLJVMIPVQDMJEJGQ5JD7Z","hitId":"3J94SKDEKIB2MY6CGVTNWB9X0ALD5P","url":"https://gershmanlab.com/experiments/alicia/teaching/experiment/?hitId=3J94SKDEKIB2MY6CGVTNWB9X0ALD5P&workerId=A3G5IPGLH1IIZN&assignmentId=3QEMNNSB2YLJVMIPVQDMJEJGQ5JD7Z&a=BNEQ9&tp_a=BNEQ9&b=3QEMNNSB2YLJVMIPVQDMJEJGQ5JD7Z&tp_b=3QEMNNSB2YLJVMIPVQDMJEJGQ5JD7Z&c=365799&tp_c=365799","heads":6,"tails":0,"studentIndex":8,"studentTrueHypers":{"a":8,"b":2},"studentGuess":0.875,"delta":0.07499999999999996,"totalExamples":6,"bonusSoFar":3.07},{"rt":8939,"response":{"heads":"0","tails":"2"},"type":"response","condition":"seqFeedback","trueTheta":0.8,"classrooms":["C","D"],"studentTrueClassroom":"D","exampleSet":"second","trial_type":"survey-html-form","trial_index":74,"time_elapsed":1075592,"internal_node_id":"0.0-69.0-0.0","params":{"nStudents":24,"maxFlips":30,"completionMinutes":45,"basePay":8,"maxBonus":9,"perTrialBonus":0.5,"perTrialBonusThreshold":0.05,"exampleCost":0.01},"classroomParams":{"A":{"a":1,"b":4},"B":{"a":4,"b":1},"C":{"a":2,"b":8},"D":{"a":8,"b":2}},"conditions":["nonSeqFull","nonSeqPartial","seqNoFeedback","seqFeedback"],"classroomPairings":[["A","B"],["C","D"]],"coinWeights":[0.2,0.5,0.8],"subjectId":"A3G5IPGLH1IIZN","assignmentId":"3QEMNNSB2YLJVMIPVQDMJEJGQ5JD7Z","hitId":"3J94SKDEKIB2MY6CGVTNWB9X0ALD5P","url":"https://gershmanlab.com/experiments/alicia/teaching/experiment/?hitId=3J94SKDEKIB2MY6CGVTNWB9X0ALD5P&workerId=A3G5IPGLH1IIZN&assignmentId=3QEMNNSB2YLJVMIPVQDMJEJGQ5JD7Z&a=BNEQ9&tp_a=BNEQ9&b=3QEMNNSB2YLJVMIPVQDMJEJGQ5JD7Z&tp_b=3QEMNNSB2YLJVMIPVQDMJEJGQ5JD7Z&c=365799&tp_c=365799","firstResponseHeads":6,"firstResponseTails":0,"secondResponseHeads":0,"secondResponseTails":2,"totalHeads":6,"totalTails":2,"studentIndex":8,"studentTrueHypers":{"a":8,"b":2},"studentGuess":0.7777777777777778,"delta":0.022222222222222254,"bonus":0.42,"bonusSoFar":3.49,"totalExamples":8},{"rt":19363,"response":{"heads":"0","tails":"6"},"type":"response","condition":"seqFeedback","trueTheta":0.2,"classrooms":["C","D"],"studentTrueClassroom":"D","exampleSet":"first","trial_type":"survey-html-form","trial_index":80,"time_elapsed":1122000,"internal_node_id":"0.0-75.0-0.0","params":{"nStudents":24,"maxFlips":30,"completionMinutes":45,"basePay":8,"maxBonus":9,"perTrialBonus":0.5,"perTrialBonusThreshold":0.05,"exampleCost":0.01},"classroomParams":{"A":{"a":1,"b":4},"B":{"a":4,"b":1},"C":{"a":2,"b":8},"D":{"a":8,"b":2}},"conditions":["nonSeqFull","nonSeqPartial","seqNoFeedback","seqFeedback"],"classroomPairings":[["A","B"],["C","D"]],"coinWeights":[0.2,0.5,0.8],"subjectId":"A3G5IPGLH1IIZN","assignmentId":"3QEMNNSB2YLJVMIPVQDMJEJGQ5JD7Z","hitId":"3J94SKDEKIB2MY6CGVTNWB9X0ALD5P","url":"https://gershmanlab.com/experiments/alicia/teaching/experiment/?hitId=3J94SKDEKIB2MY6CGVTNWB9X0ALD5P&workerId=A3G5IPGLH1IIZN&assignmentId=3QEMNNSB2YLJVMIPVQDMJEJGQ5JD7Z&a=BNEQ9&tp_a=BNEQ9&b=3QEMNNSB2YLJVMIPVQDMJEJGQ5JD7Z&tp_b=3QEMNNSB2YLJVMIPVQDMJEJGQ5JD7Z&c=365799&tp_c=365799","heads":0,"tails":6,"studentIndex":9,"studentTrueHypers":{"a":8,"b":2},"studentGuess":0.5,"delta":0.3,"totalExamples":6,"bonusSoFar":3.49},{"rt":24814,"response":{"heads":"0","tails":"10"},"type":"response","condition":"seqFeedback","trueTheta":0.2,"classrooms":["C","D"],"studentTrueClassroom":"D","exampleSet":"second","trial_type":"survey-html-form","trial_index":84,"time_elapsed":1159064,"internal_node_id":"0.0-79.0-0.0","params":{"nStudents":24,"maxFlips":30,"completionMinutes":45,"basePay":8,"maxBonus":9,"perTrialBonus":0.5,"perTrialBonusThreshold":0.05,"exampleCost":0.01},"classroomParams":{"A":{"a":1,"b":4},"B":{"a":4,"b":1},"C":{"a":2,"b":8},"D":{"a":8,"b":2}},"conditions":["nonSeqFull","nonSeqPartial","seqNoFeedback","seqFeedback"],"classroomPairings":[["A","B"],["C","D"]],"coinWeights":[0.2,0.5,0.8],"subjectId":"A3G5IPGLH1IIZN","assignmentId":"3QEMNNSB2YLJVMIPVQDMJEJGQ5JD7Z","hitId":"3J94SKDEKIB2MY6CGVTNWB9X0ALD5P","url":"https://gershmanlab.com/experiments/alicia/teaching/experiment/?hitId=3J94SKDEKIB2MY6CGVTNWB9X0ALD5P&workerId=A3G5IPGLH1IIZN&assignmentId=3QEMNNSB2YLJVMIPVQDMJEJGQ5JD7Z&a=BNEQ9&tp_a=BNEQ9&b=3QEMNNSB2YLJVMIPVQDMJEJGQ5JD7Z&tp_b=3QEMNNSB2YLJVMIPVQDMJEJGQ5JD7Z&c=365799&tp_c=365799","firstResponseHeads":0,"firstResponseTails":6,"secondResponseHeads":0,"secondResponseTails":10,"totalHeads":0,"totalTails":16,"studentIndex":9,"studentTrueHypers":{"a":8,"b":2},"studentGuess":0.3076923076923077,"delta":0.1076923076923077,"bonus":0,"bonusSoFar":3.49,"totalExamples":16},{"rt":13253,"response":{"heads":"0","tails":"6"},"type":"response","condition":"nonSeqPartial","trueTheta":0.2,"classrooms":["A","B"],"studentTrueClassroom":"A","exampleSet":"first","trial_type":"survey-html-form","trial_index":90,"time_elapsed":1191144,"internal_node_id":"0.0-85.0-0.0","params":{"nStudents":24,"maxFlips":30,"completionMinutes":45,"basePay":8,"maxBonus":9,"perTrialBonus":0.5,"perTrialBonusThreshold":0.05,"exampleCost":0.01},"classroomParams":{"A":{"a":1,"b":4},"B":{"a":4,"b":1},"C":{"a":2,"b":8},"D":{"a":8,"b":2}},"conditions":["nonSeqFull","nonSeqPartial","seqNoFeedback","seqFeedback"],"classroomPairings":[["A","B"],["C","D"]],"coinWeights":[0.2,0.5,0.8],"subjectId":"A3G5IPGLH1IIZN","assignmentId":"3QEMNNSB2YLJVMIPVQDMJEJGQ5JD7Z","hitId":"3J94SKDEKIB2MY6CGVTNWB9X0ALD5P","url":"https://gershmanlab.com/experiments/alicia/teaching/experiment/?hitId=3J94SKDEKIB2MY6CGVTNWB9X0ALD5P&workerId=A3G5IPGLH1IIZN&assignmentId=3QEMNNSB2YLJVMIPVQDMJEJGQ5JD7Z&a=BNEQ9&tp_a=BNEQ9&b=3QEMNNSB2YLJVMIPVQDMJEJGQ5JD7Z&tp_b=3QEMNNSB2YLJVMIPVQDMJEJGQ5JD7Z&c=365799&tp_c=365799","heads":0,"tails":6,"studentIndex":10,"studentTrueHypers":{"a":1,"b":4},"studentGuess":0.09090909090909091,"delta":0.1090909090909091,"totalExamples":6,"bonus":0,"bonusSoFar":3.49},{"rt":9885,"response":{"heads":"0","tails":"2"},"type":"response","condition":"nonSeqFull","trueTheta":0.2,"classrooms":["C","D"],"studentTrueClassroom":"C","exampleSet":"first","trial_type":"survey-html-form","trial_index":96,"time_elapsed":1215887,"internal_node_id":"0.0-91.0-0.0","params":{"nStudents":24,"maxFlips":30,"completionMinutes":45,"basePay":8,"maxBonus":9,"perTrialBonus":0.5,"perTrialBonusThreshold":0.05,"exampleCost":0.01},"classroomParams":{"A":{"a":1,"b":4},"B":{"a":4,"b":1},"C":{"a":2,"b":8},"D":{"a":8,"b":2}},"conditions":["nonSeqFull","nonSeqPartial","seqNoFeedback","seqFeedback"],"classroomPairings":[["A","B"],["C","D"]],"coinWeights":[0.2,0.5,0.8],"subjectId":"A3G5IPGLH1IIZN","assignmentId":"3QEMNNSB2YLJVMIPVQDMJEJGQ5JD7Z","hitId":"3J94SKDEKIB2MY6CGVTNWB9X0ALD5P","url":"https://gershmanlab.com/experiments/alicia/teaching/experiment/?hitId=3J94SKDEKIB2MY6CGVTNWB9X0ALD5P&workerId=A3G5IPGLH1IIZN&assignmentId=3QEMNNSB2YLJVMIPVQDMJEJGQ5JD7Z&a=BNEQ9&tp_a=BNEQ9&b=3QEMNNSB2YLJVMIPVQDMJEJGQ5JD7Z&tp_b=3QEMNNSB2YLJVMIPVQDMJEJGQ5JD7Z&c=365799&tp_c=365799","heads":0,"tails":2,"studentIndex":11,"studentTrueHypers":{"a":2,"b":8},"studentGuess":0.16666666666666666,"delta":0.033333333333333354,"totalExamples":2,"bonus":0.48,"bonusSoFar":3.97},{"rt":18806,"response":{"heads":"1","tails":"4"},"type":"response","condition":"nonSeqFull","trueTheta":0.2,"classrooms":["A","B"],"studentTrueClassroom":"A","exampleSet":"first","trial_type":"survey-html-form","trial_index":102,"time_elapsed":1251087,"internal_node_id":"0.0-97.0-0.0","params":{"nStudents":24,"maxFlips":30,"completionMinutes":45,"basePay":8,"maxBonus":9,"perTrialBonus":0.5,"perTrialBonusThreshold":0.05,"exampleCost":0.01},"classroomParams":{"A":{"a":1,"b":4},"B":{"a":4,"b":1},"C":{"a":2,"b":8},"D":{"a":8,"b":2}},"conditions":["nonSeqFull","nonSeqPartial","seqNoFeedback","seqFeedback"],"classroomPairings":[["A","B"],["C","D"]],"coinWeights":[0.2,0.5,0.8],"subjectId":"A3G5IPGLH1IIZN","assignmentId":"3QEMNNSB2YLJVMIPVQDMJEJGQ5JD7Z","hitId":"3J94SKDEKIB2MY6CGVTNWB9X0ALD5P","url":"https://gershmanlab.com/experiments/alicia/teaching/experiment/?hitId=3J94SKDEKIB2MY6CGVTNWB9X0ALD5P&workerId=A3G5IPGLH1IIZN&assignmentId=3QEMNNSB2YLJVMIPVQDMJEJGQ5JD7Z&a=BNEQ9&tp_a=BNEQ9&b=3QEMNNSB2YLJVMIPVQDMJEJGQ5JD7Z&tp_b=3QEMNNSB2YLJVMIPVQDMJEJGQ5JD7Z&c=365799&tp_c=365799","heads":1,"tails":4,"studentIndex":12,"studentTrueHypers":{"a":1,"b":4},"studentGuess":0.2,"delta":0,"totalExamples":5,"bonus":0.45,"bonusSoFar":4.42},{"rt":12557,"response":{"heads":"3","tails":"0"},"type":"response","condition":"seqNoFeedback","trueTheta":0.5,"classrooms":["A","B"],"studentTrueClassroom":"A","exampleSet":"first","trial_type":"survey-html-form","trial_index":108,"time_elapsed":1284495,"internal_node_id":"0.0-103.0-0.0","params":{"nStudents":24,"maxFlips":30,"completionMinutes":45,"basePay":8,"maxBonus":9,"perTrialBonus":0.5,"perTrialBonusThreshold":0.05,"exampleCost":0.01},"classroomParams":{"A":{"a":1,"b":4},"B":{"a":4,"b":1},"C":{"a":2,"b":8},"D":{"a":8,"b":2}},"conditions":["nonSeqFull","nonSeqPartial","seqNoFeedback","seqFeedback"],"classroomPairings":[["A","B"],["C","D"]],"coinWeights":[0.2,0.5,0.8],"subjectId":"A3G5IPGLH1IIZN","assignmentId":"3QEMNNSB2YLJVMIPVQDMJEJGQ5JD7Z","hitId":"3J94SKDEKIB2MY6CGVTNWB9X0ALD5P","url":"https://gershmanlab.com/experiments/alicia/teaching/experiment/?hitId=3J94SKDEKIB2MY6CGVTNWB9X0ALD5P&workerId=A3G5IPGLH1IIZN&assignmentId=3QEMNNSB2YLJVMIPVQDMJEJGQ5JD7Z&a=BNEQ9&tp_a=BNEQ9&b=3QEMNNSB2YLJVMIPVQDMJEJGQ5JD7Z&tp_b=3QEMNNSB2YLJVMIPVQDMJEJGQ5JD7Z&c=365799&tp_c=365799","heads":3,"tails":0,"studentIndex":13,"studentTrueHypers":{"a":1,"b":4},"studentGuess":0.5,"delta":0,"totalExamples":3,"bonusSoFar":4.42},{"rt":14384,"response":{"heads":"2","tails":"2"},"type":"response","condition":"seqNoFeedback","trueTheta":0.5,"classrooms":["A","B"],"studentTrueClassroom":"A","exampleSet":"second","trial_type":"survey-html-form","trial_index":111,"time_elapsed":1305643,"internal_node_id":"0.0-106.0-0.0","params":{"nStudents":24,"maxFlips":30,"completionMinutes":45,"basePay":8,"maxBonus":9,"perTrialBonus":0.5,"perTrialBonusThreshold":0.05,"exampleCost":0.01},"classroomParams":{"A":{"a":1,"b":4},"B":{"a":4,"b":1},"C":{"a":2,"b":8},"D":{"a":8,"b":2}},"conditions":["nonSeqFull","nonSeqPartial","seqNoFeedback","seqFeedback"],"classroomPairings":[["A","B"],["C","D"]],"coinWeights":[0.2,0.5,0.8],"subjectId":"A3G5IPGLH1IIZN","assignmentId":"3QEMNNSB2YLJVMIPVQDMJEJGQ5JD7Z","hitId":"3J94SKDEKIB2MY6CGVTNWB9X0ALD5P","url":"https://gershmanlab.com/experiments/alicia/teaching/experiment/?hitId=3J94SKDEKIB2MY6CGVTNWB9X0ALD5P&workerId=A3G5IPGLH1IIZN&assignmentId=3QEMNNSB2YLJVMIPVQDMJEJGQ5JD7Z&a=BNEQ9&tp_a=BNEQ9&b=3QEMNNSB2YLJVMIPVQDMJEJGQ5JD7Z&tp_b=3QEMNNSB2YLJVMIPVQDMJEJGQ5JD7Z&c=365799&tp_c=365799","firstResponseHeads":3,"firstResponseTails":0,"secondResponseHeads":2,"secondResponseTails":2,"totalHeads":5,"totalTails":2,"studentIndex":13,"studentTrueHypers":{"a":1,"b":4},"studentGuess":0.5,"delta":0,"bonus":0.43,"bonusSoFar":4.85,"totalExamples":7},{"rt":19902,"response":{"heads":"4","tails":"1"},"type":"response","condition":"seqNoFeedback","trueTheta":0.2,"classrooms":["A","B"],"studentTrueClassroom":"A","exampleSet":"first","trial_type":"survey-html-form","trial_index":117,"time_elapsed":1343791,"internal_node_id":"0.0-112.0-0.0","params":{"nStudents":24,"maxFlips":30,"completionMinutes":45,"basePay":8,"maxBonus":9,"perTrialBonus":0.5,"perTrialBonusThreshold":0.05,"exampleCost":0.01},"classroomParams":{"A":{"a":1,"b":4},"B":{"a":4,"b":1},"C":{"a":2,"b":8},"D":{"a":8,"b":2}},"conditions":["nonSeqFull","nonSeqPartial","seqNoFeedback","seqFeedback"],"classroomPairings":[["A","B"],["C","D"]],"coinWeights":[0.2,0.5,0.8],"subjectId":"A3G5IPGLH1IIZN","assignmentId":"3QEMNNSB2YLJVMIPVQDMJEJGQ5JD7Z","hitId":"3J94SKDEKIB2MY6CGVTNWB9X0ALD5P","url":"https://gershmanlab.com/experiments/alicia/teaching/experiment/?hitId=3J94SKDEKIB2MY6CGVTNWB9X0ALD5P&workerId=A3G5IPGLH1IIZN&assignmentId=3QEMNNSB2YLJVMIPVQDMJEJGQ5JD7Z&a=BNEQ9&tp_a=BNEQ9&b=3QEMNNSB2YLJVMIPVQDMJEJGQ5JD7Z&tp_b=3QEMNNSB2YLJVMIPVQDMJEJGQ5JD7Z&c=365799&tp_c=365799","heads":4,"tails":1,"studentIndex":14,"studentTrueHypers":{"a":1,"b":4},"studentGuess":0.5,"delta":0.3,"totalExamples":5,"bonusSoFar":4.85},{"rt":9675,"response":{"heads":"5","tails":"1"},"type":"response","condition":"seqNoFeedback","trueTheta":0.2,"classrooms":["A","B"],"studentTrueClassroom":"A","exampleSet":"second","trial_type":"survey-html-form","trial_index":120,"time_elapsed":1360976,"internal_node_id":"0.0-115.0-0.0","params":{"nStudents":24,"maxFlips":30,"completionMinutes":45,"basePay":8,"maxBonus":9,"perTrialBonus":0.5,"perTrialBonusThreshold":0.05,"exampleCost":0.01},"classroomParams":{"A":{"a":1,"b":4},"B":{"a":4,"b":1},"C":{"a":2,"b":8},"D":{"a":8,"b":2}},"conditions":["nonSeqFull","nonSeqPartial","seqNoFeedback","seqFeedback"],"classroomPairings":[["A","B"],["C","D"]],"coinWeights":[0.2,0.5,0.8],"subjectId":"A3G5IPGLH1IIZN","assignmentId":"3QEMNNSB2YLJVMIPVQDMJEJGQ5JD7Z","hitId":"3J94SKDEKIB2MY6CGVTNWB9X0ALD5P","url":"https://gershmanlab.com/experiments/alicia/teaching/experiment/?hitId=3J94SKDEKIB2MY6CGVTNWB9X0ALD5P&workerId=A3G5IPGLH1IIZN&assignmentId=3QEMNNSB2YLJVMIPVQDMJEJGQ5JD7Z&a=BNEQ9&tp_a=BNEQ9&b=3QEMNNSB2YLJVMIPVQDMJEJGQ5JD7Z&tp_b=3QEMNNSB2YLJVMIPVQDMJEJGQ5JD7Z&c=365799&tp_c=365799","firstResponseHeads":4,"firstResponseTails":1,"secondResponseHeads":5,"secondResponseTails":1,"totalHeads":9,"totalTails":2,"studentIndex":14,"studentTrueHypers":{"a":1,"b":4},"studentGuess":0.625,"delta":0.425,"bonus":0,"bonusSoFar":4.85,"totalExamples":11},{"rt":13309,"response":{"heads":"6","tails":"0"},"type":"response","condition":"seqFeedback","trueTheta":0.5,"classrooms":["C","D"],"studentTrueClassroom":"C","exampleSet":"first","trial_type":"survey-html-form","trial_index":126,"time_elapsed":1397702,"internal_node_id":"0.0-121.0-0.0","params":{"nStudents":24,"maxFlips":30,"completionMinutes":45,"basePay":8,"maxBonus":9,"perTrialBonus":0.5,"perTrialBonusThreshold":0.05,"exampleCost":0.01},"classroomParams":{"A":{"a":1,"b":4},"B":{"a":4,"b":1},"C":{"a":2,"b":8},"D":{"a":8,"b":2}},"conditions":["nonSeqFull","nonSeqPartial","seqNoFeedback","seqFeedback"],"classroomPairings":[["A","B"],["C","D"]],"coinWeights":[0.2,0.5,0.8],"subjectId":"A3G5IPGLH1IIZN","assignmentId":"3QEMNNSB2YLJVMIPVQDMJEJGQ5JD7Z","hitId":"3J94SKDEKIB2MY6CGVTNWB9X0ALD5P","url":"https://gershmanlab.com/experiments/alicia/teaching/experiment/?hitId=3J94SKDEKIB2MY6CGVTNWB9X0ALD5P&workerId=A3G5IPGLH1IIZN&assignmentId=3QEMNNSB2YLJVMIPVQDMJEJGQ5JD7Z&a=BNEQ9&tp_a=BNEQ9&b=3QEMNNSB2YLJVMIPVQDMJEJGQ5JD7Z&tp_b=3QEMNNSB2YLJVMIPVQDMJEJGQ5JD7Z&c=365799&tp_c=365799","heads":6,"tails":0,"studentIndex":15,"studentTrueHypers":{"a":2,"b":8},"studentGuess":0.5,"delta":0,"totalExamples":6,"bonusSoFar":4.85},{"rt":10375,"response":{"heads":"2","tails":"2"},"type":"response","condition":"seqFeedback","trueTheta":0.5,"classrooms":["C","D"],"studentTrueClassroom":"C","exampleSet":"second","trial_type":"survey-html-form","trial_index":130,"time_elapsed":1421319,"internal_node_id":"0.0-125.0-0.0","params":{"nStudents":24,"maxFlips":30,"completionMinutes":45,"basePay":8,"maxBonus":9,"perTrialBonus":0.5,"perTrialBonusThreshold":0.05,"exampleCost":0.01},"classroomParams":{"A":{"a":1,"b":4},"B":{"a":4,"b":1},"C":{"a":2,"b":8},"D":{"a":8,"b":2}},"conditions":["nonSeqFull","nonSeqPartial","seqNoFeedback","seqFeedback"],"classroomPairings":[["A","B"],["C","D"]],"coinWeights":[0.2,0.5,0.8],"subjectId":"A3G5IPGLH1IIZN","assignmentId":"3QEMNNSB2YLJVMIPVQDMJEJGQ5JD7Z","hitId":"3J94SKDEKIB2MY6CGVTNWB9X0ALD5P","url":"https://gershmanlab.com/experiments/alicia/teaching/experiment/?hitId=3J94SKDEKIB2MY6CGVTNWB9X0ALD5P&workerId=A3G5IPGLH1IIZN&assignmentId=3QEMNNSB2YLJVMIPVQDMJEJGQ5JD7Z&a=BNEQ9&tp_a=BNEQ9&b=3QEMNNSB2YLJVMIPVQDMJEJGQ5JD7Z&tp_b=3QEMNNSB2YLJVMIPVQDMJEJGQ5JD7Z&c=365799&tp_c=365799","firstResponseHeads":6,"firstResponseTails":0,"secondResponseHeads":2,"secondResponseTails":2,"totalHeads":8,"totalTails":2,"studentIndex":15,"studentTrueHypers":{"a":2,"b":8},"studentGuess":0.5,"delta":0,"bonus":0.4,"bonusSoFar":5.25,"totalExamples":10},{"rt":14860,"response":{"heads":"6","tails":"0"},"type":"response","condition":"nonSeqPartial","trueTheta":0.8,"classrooms":["A","B"],"studentTrueClassroom":"A","exampleSet":"first","trial_type":"survey-html-form","trial_index":136,"time_elapsed":1451815,"internal_node_id":"0.0-131.0-0.0","params":{"nStudents":24,"maxFlips":30,"completionMinutes":45,"basePay":8,"maxBonus":9,"perTrialBonus":0.5,"perTrialBonusThreshold":0.05,"exampleCost":0.01},"classroomParams":{"A":{"a":1,"b":4},"B":{"a":4,"b":1},"C":{"a":2,"b":8},"D":{"a":8,"b":2}},"conditions":["nonSeqFull","nonSeqPartial","seqNoFeedback","seqFeedback"],"classroomPairings":[["A","B"],["C","D"]],"coinWeights":[0.2,0.5,0.8],"subjectId":"A3G5IPGLH1IIZN","assignmentId":"3QEMNNSB2YLJVMIPVQDMJEJGQ5JD7Z","hitId":"3J94SKDEKIB2MY6CGVTNWB9X0ALD5P","url":"https://gershmanlab.com/experiments/alicia/teaching/experiment/?hitId=3J94SKDEKIB2MY6CGVTNWB9X0ALD5P&workerId=A3G5IPGLH1IIZN&assignmentId=3QEMNNSB2YLJVMIPVQDMJEJGQ5JD7Z&a=BNEQ9&tp_a=BNEQ9&b=3QEMNNSB2YLJVMIPVQDMJEJGQ5JD7Z&tp_b=3QEMNNSB2YLJVMIPVQDMJEJGQ5JD7Z&c=365799&tp_c=365799","heads":6,"tails":0,"studentIndex":16,"studentTrueHypers":{"a":1,"b":4},"studentGuess":0.6363636363636364,"delta":0.1636363636363637,"totalExamples":6,"bonus":0,"bonusSoFar":5.25},{"rt":26424,"response":{"heads":"1","tails":"4"},"type":"response","condition":"seqNoFeedback","trueTheta":0.2,"classrooms":["C","D"],"studentTrueClassroom":"D","exampleSet":"first","trial_type":"survey-html-form","trial_index":142,"time_elapsed":1494807,"internal_node_id":"0.0-137.0-0.0","params":{"nStudents":24,"maxFlips":30,"completionMinutes":45,"basePay":8,"maxBonus":9,"perTrialBonus":0.5,"perTrialBonusThreshold":0.05,"exampleCost":0.01},"classroomParams":{"A":{"a":1,"b":4},"B":{"a":4,"b":1},"C":{"a":2,"b":8},"D":{"a":8,"b":2}},"conditions":["nonSeqFull","nonSeqPartial","seqNoFeedback","seqFeedback"],"classroomPairings":[["A","B"],["C","D"]],"coinWeights":[0.2,0.5,0.8],"subjectId":"A3G5IPGLH1IIZN","assignmentId":"3QEMNNSB2YLJVMIPVQDMJEJGQ5JD7Z","hitId":"3J94SKDEKIB2MY6CGVTNWB9X0ALD5P","url":"https://gershmanlab.com/experiments/alicia/teaching/experiment/?hitId=3J94SKDEKIB2MY6CGVTNWB9X0ALD5P&workerId=A3G5IPGLH1IIZN&assignmentId=3QEMNNSB2YLJVMIPVQDMJEJGQ5JD7Z&a=BNEQ9&tp_a=BNEQ9&b=3QEMNNSB2YLJVMIPVQDMJEJGQ5JD7Z&tp_b=3QEMNNSB2YLJVMIPVQDMJEJGQ5JD7Z&c=365799&tp_c=365799","heads":1,"tails":4,"studentIndex":17,"studentTrueHypers":{"a":8,"b":2},"studentGuess":0.6,"delta":0.39999999999999997,"totalExamples":5,"bonusSoFar":5.25},{"rt":7990,"response":{"heads":"1","tails":"4"},"type":"response","condition":"seqNoFeedback","trueTheta":0.2,"classrooms":["C","D"],"studentTrueClassroom":"D","exampleSet":"second","trial_type":"survey-html-form","trial_index":145,"time_elapsed":1510055,"internal_node_id":"0.0-140.0-0.0","params":{"nStudents":24,"maxFlips":30,"completionMinutes":45,"basePay":8,"maxBonus":9,"perTrialBonus":0.5,"perTrialBonusThreshold":0.05,"exampleCost":0.01},"classroomParams":{"A":{"a":1,"b":4},"B":{"a":4,"b":1},"C":{"a":2,"b":8},"D":{"a":8,"b":2}},"conditions":["nonSeqFull","nonSeqPartial","seqNoFeedback","seqFeedback"],"classroomPairings":[["A","B"],["C","D"]],"coinWeights":[0.2,0.5,0.8],"subjectId":"A3G5IPGLH1IIZN","assignmentId":"3QEMNNSB2YLJVMIPVQDMJEJGQ5JD7Z","hitId":"3J94SKDEKIB2MY6CGVTNWB9X0ALD5P","url":"https://gershmanlab.com/experiments/alicia/teaching/experiment/?hitId=3J94SKDEKIB2MY6CGVTNWB9X0ALD5P&workerId=A3G5IPGLH1IIZN&assignmentId=3QEMNNSB2YLJVMIPVQDMJEJGQ5JD7Z&a=BNEQ9&tp_a=BNEQ9&b=3QEMNNSB2YLJVMIPVQDMJEJGQ5JD7Z&tp_b=3QEMNNSB2YLJVMIPVQDMJEJGQ5JD7Z&c=365799&tp_c=365799","firstResponseHeads":1,"firstResponseTails":4,"secondResponseHeads":1,"secondResponseTails":4,"totalHeads":2,"totalTails":8,"studentIndex":17,"studentTrueHypers":{"a":8,"b":2},"studentGuess":0.5,"delta":0.3,"bonus":0,"bonusSoFar":5.25,"totalExamples":10},{"rt":12934,"response":{"heads":"2","tails":"8"},"type":"response","condition":"seqNoFeedback","trueTheta":0.8,"classrooms":["C","D"],"studentTrueClassroom":"C","exampleSet":"first","trial_type":"survey-html-form","trial_index":151,"time_elapsed":1538975,"internal_node_id":"0.0-146.0-0.0","params":{"nStudents":24,"maxFlips":30,"completionMinutes":45,"basePay":8,"maxBonus":9,"perTrialBonus":0.5,"perTrialBonusThreshold":0.05,"exampleCost":0.01},"classroomParams":{"A":{"a":1,"b":4},"B":{"a":4,"b":1},"C":{"a":2,"b":8},"D":{"a":8,"b":2}},"conditions":["nonSeqFull","nonSeqPartial","seqNoFeedback","seqFeedback"],"classroomPairings":[["A","B"],["C","D"]],"coinWeights":[0.2,0.5,0.8],"subjectId":"A3G5IPGLH1IIZN","assignmentId":"3QEMNNSB2YLJVMIPVQDMJEJGQ5JD7Z","hitId":"3J94SKDEKIB2MY6CGVTNWB9X0ALD5P","url":"https://gershmanlab.com/experiments/alicia/teaching/experiment/?hitId=3J94SKDEKIB2MY6CGVTNWB9X0ALD5P&workerId=A3G5IPGLH1IIZN&assignmentId=3QEMNNSB2YLJVMIPVQDMJEJGQ5JD7Z&a=BNEQ9&tp_a=BNEQ9&b=3QEMNNSB2YLJVMIPVQDMJEJGQ5JD7Z&tp_b=3QEMNNSB2YLJVMIPVQDMJEJGQ5JD7Z&c=365799&tp_c=365799","heads":2,"tails":8,"studentIndex":18,"studentTrueHypers":{"a":2,"b":8},"studentGuess":0.2,"delta":0.6000000000000001,"totalExamples":10,"bonusSoFar":5.25},{"rt":6443,"response":{"heads":"2","tails":"8"},"type":"response","condition":"seqNoFeedback","trueTheta":0.8,"classrooms":["C","D"],"studentTrueClassroom":"C","exampleSet":"second","trial_type":"survey-html-form","trial_index":154,"time_elapsed":1550927,"internal_node_id":"0.0-149.0-0.0","params":{"nStudents":24,"maxFlips":30,"completionMinutes":45,"basePay":8,"maxBonus":9,"perTrialBonus":0.5,"perTrialBonusThreshold":0.05,"exampleCost":0.01},"classroomParams":{"A":{"a":1,"b":4},"B":{"a":4,"b":1},"C":{"a":2,"b":8},"D":{"a":8,"b":2}},"conditions":["nonSeqFull","nonSeqPartial","seqNoFeedback","seqFeedback"],"classroomPairings":[["A","B"],["C","D"]],"coinWeights":[0.2,0.5,0.8],"subjectId":"A3G5IPGLH1IIZN","assignmentId":"3QEMNNSB2YLJVMIPVQDMJEJGQ5JD7Z","hitId":"3J94SKDEKIB2MY6CGVTNWB9X0ALD5P","url":"https://gershmanlab.com/experiments/alicia/teaching/experiment/?hitId=3J94SKDEKIB2MY6CGVTNWB9X0ALD5P&workerId=A3G5IPGLH1IIZN&assignmentId=3QEMNNSB2YLJVMIPVQDMJEJGQ5JD7Z&a=BNEQ9&tp_a=BNEQ9&b=3QEMNNSB2YLJVMIPVQDMJEJGQ5JD7Z&tp_b=3QEMNNSB2YLJVMIPVQDMJEJGQ5JD7Z&c=365799&tp_c=365799","firstResponseHeads":2,"firstResponseTails":8,"secondResponseHeads":2,"secondResponseTails":8,"totalHeads":4,"totalTails":16,"studentIndex":18,"studentTrueHypers":{"a":2,"b":8},"studentGuess":0.2,"delta":0.6000000000000001,"bonus":0,"bonusSoFar":5.25,"totalExamples":20},{"rt":27485,"response":{"heads":"0","tails":"1"},"type":"response","condition":"nonSeqPartial","trueTheta":0.2,"classrooms":["C","D"],"studentTrueClassroom":"C","exampleSet":"first","trial_type":"survey-html-form","trial_index":160,"time_elapsed":1610415,"internal_node_id":"0.0-155.0-0.0","params":{"nStudents":24,"maxFlips":30,"completionMinutes":45,"basePay":8,"maxBonus":9,"perTrialBonus":0.5,"perTrialBonusThreshold":0.05,"exampleCost":0.01},"classroomParams":{"A":{"a":1,"b":4},"B":{"a":4,"b":1},"C":{"a":2,"b":8},"D":{"a":8,"b":2}},"conditions":["nonSeqFull","nonSeqPartial","seqNoFeedback","seqFeedback"],"classroomPairings":[["A","B"],["C","D"]],"coinWeights":[0.2,0.5,0.8],"subjectId":"A3G5IPGLH1IIZN","assignmentId":"3QEMNNSB2YLJVMIPVQDMJEJGQ5JD7Z","hitId":"3J94SKDEKIB2MY6CGVTNWB9X0ALD5P","url":"https://gershmanlab.com/experiments/alicia/teaching/experiment/?hitId=3J94SKDEKIB2MY6CGVTNWB9X0ALD5P&workerId=A3G5IPGLH1IIZN&assignmentId=3QEMNNSB2YLJVMIPVQDMJEJGQ5JD7Z&a=BNEQ9&tp_a=BNEQ9&b=3QEMNNSB2YLJVMIPVQDMJEJGQ5JD7Z&tp_b=3QEMNNSB2YLJVMIPVQDMJEJGQ5JD7Z&c=365799&tp_c=365799","heads":0,"tails":1,"studentIndex":19,"studentTrueHypers":{"a":2,"b":8},"studentGuess":0.18181818181818182,"delta":0.018181818181818188,"totalExamples":1,"bonus":0.49,"bonusSoFar":5.74},{"rt":9534,"response":{"heads":"4","tails":"1"},"type":"response","condition":"nonSeqFull","trueTheta":0.8,"classrooms":["A","B"],"studentTrueClassroom":"B","exampleSet":"first","trial_type":"survey-html-form","trial_index":166,"time_elapsed":1636902,"internal_node_id":"0.0-161.0-0.0","params":{"nStudents":24,"maxFlips":30,"completionMinutes":45,"basePay":8,"maxBonus":9,"perTrialBonus":0.5,"perTrialBonusThreshold":0.05,"exampleCost":0.01},"classroomParams":{"A":{"a":1,"b":4},"B":{"a":4,"b":1},"C":{"a":2,"b":8},"D":{"a":8,"b":2}},"conditions":["nonSeqFull","nonSeqPartial","seqNoFeedback","seqFeedback"],"classroomPairings":[["A","B"],["C","D"]],"coinWeights":[0.2,0.5,0.8],"subjectId":"A3G5IPGLH1IIZN","assignmentId":"3QEMNNSB2YLJVMIPVQDMJEJGQ5JD7Z","hitId":"3J94SKDEKIB2MY6CGVTNWB9X0ALD5P","url":"https://gershmanlab.com/experiments/alicia/teaching/experiment/?hitId=3J94SKDEKIB2MY6CGVTNWB9X0ALD5P&workerId=A3G5IPGLH1IIZN&assignmentId=3QEMNNSB2YLJVMIPVQDMJEJGQ5JD7Z&a=BNEQ9&tp_a=BNEQ9&b=3QEMNNSB2YLJVMIPVQDMJEJGQ5JD7Z&tp_b=3QEMNNSB2YLJVMIPVQDMJEJGQ5JD7Z&c=365799&tp_c=365799","heads":4,"tails":1,"studentIndex":20,"studentTrueHypers":{"a":4,"b":1},"studentGuess":0.8,"delta":0,"totalExamples":5,"bonus":0.45,"bonusSoFar":6.19},{"rt":24982,"response":{"heads":"5","tails":"1"},"type":"response","condition":"seqNoFeedback","trueTheta":0.8,"classrooms":["A","B"],"studentTrueClassroom":"A","exampleSet":"first","trial_type":"survey-html-form","trial_index":172,"time_elapsed":1681328,"internal_node_id":"0.0-167.0-0.0","params":{"nStudents":24,"maxFlips":30,"completionMinutes":45,"basePay":8,"maxBonus":9,"perTrialBonus":0.5,"perTrialBonusThreshold":0.05,"exampleCost":0.01},"classroomParams":{"A":{"a":1,"b":4},"B":{"a":4,"b":1},"C":{"a":2,"b":8},"D":{"a":8,"b":2}},"conditions":["nonSeqFull","nonSeqPartial","seqNoFeedback","seqFeedback"],"classroomPairings":[["A","B"],["C","D"]],"coinWeights":[0.2,0.5,0.8],"subjectId":"A3G5IPGLH1IIZN","assignmentId":"3QEMNNSB2YLJVMIPVQDMJEJGQ5JD7Z","hitId":"3J94SKDEKIB2MY6CGVTNWB9X0ALD5P","url":"https://gershmanlab.com/experiments/alicia/teaching/experiment/?hitId=3J94SKDEKIB2MY6CGVTNWB9X0ALD5P&workerId=A3G5IPGLH1IIZN&assignmentId=3QEMNNSB2YLJVMIPVQDMJEJGQ5JD7Z&a=BNEQ9&tp_a=BNEQ9&b=3QEMNNSB2YLJVMIPVQDMJEJGQ5JD7Z&tp_b=3QEMNNSB2YLJVMIPVQDMJEJGQ5JD7Z&c=365799&tp_c=365799","heads":5,"tails":1,"studentIndex":21,"studentTrueHypers":{"a":1,"b":4},"studentGuess":0.5454545454545454,"delta":0.25454545454545463,"totalExamples":6,"bonusSoFar":6.19},{"rt":5378,"response":{"heads":"5","tails":"1"},"type":"response","condition":"seqNoFeedback","trueTheta":0.8,"classrooms":["A","B"],"studentTrueClassroom":"A","exampleSet":"second","trial_type":"survey-html-form","trial_index":175,"time_elapsed":1692215,"internal_node_id":"0.0-170.0-0.0","params":{"nStudents":24,"maxFlips":30,"completionMinutes":45,"basePay":8,"maxBonus":9,"perTrialBonus":0.5,"perTrialBonusThreshold":0.05,"exampleCost":0.01},"classroomParams":{"A":{"a":1,"b":4},"B":{"a":4,"b":1},"C":{"a":2,"b":8},"D":{"a":8,"b":2}},"conditions":["nonSeqFull","nonSeqPartial","seqNoFeedback","seqFeedback"],"classroomPairings":[["A","B"],["C","D"]],"coinWeights":[0.2,0.5,0.8],"subjectId":"A3G5IPGLH1IIZN","assignmentId":"3QEMNNSB2YLJVMIPVQDMJEJGQ5JD7Z","hitId":"3J94SKDEKIB2MY6CGVTNWB9X0ALD5P","url":"https://gershmanlab.com/experiments/alicia/teaching/experiment/?hitId=3J94SKDEKIB2MY6CGVTNWB9X0ALD5P&workerId=A3G5IPGLH1IIZN&assignmentId=3QEMNNSB2YLJVMIPVQDMJEJGQ5JD7Z&a=BNEQ9&tp_a=BNEQ9&b=3QEMNNSB2YLJVMIPVQDMJEJGQ5JD7Z&tp_b=3QEMNNSB2YLJVMIPVQDMJEJGQ5JD7Z&c=365799&tp_c=365799","firstResponseHeads":5,"firstResponseTails":1,"secondResponseHeads":5,"secondResponseTails":1,"totalHeads":10,"totalTails":2,"studentIndex":21,"studentTrueHypers":{"a":1,"b":4},"studentGuess":0.6470588235294118,"delta":0.15294117647058825,"bonus":0,"bonusSoFar":6.19,"totalExamples":12},{"rt":23525,"response":{"heads":"2","tails":"2"},"type":"response","condition":"nonSeqPartial","trueTheta":0.5,"classrooms":["A","B"],"studentTrueClassroom":"B","exampleSet":"first","trial_type":"survey-html-form","trial_index":181,"time_elapsed":1731727,"internal_node_id":"0.0-176.0-0.0","params":{"nStudents":24,"maxFlips":30,"completionMinutes":45,"basePay":8,"maxBonus":9,"perTrialBonus":0.5,"perTrialBonusThreshold":0.05,"exampleCost":0.01},"classroomParams":{"A":{"a":1,"b":4},"B":{"a":4,"b":1},"C":{"a":2,"b":8},"D":{"a":8,"b":2}},"conditions":["nonSeqFull","nonSeqPartial","seqNoFeedback","seqFeedback"],"classroomPairings":[["A","B"],["C","D"]],"coinWeights":[0.2,0.5,0.8],"subjectId":"A3G5IPGLH1IIZN","assignmentId":"3QEMNNSB2YLJVMIPVQDMJEJGQ5JD7Z","hitId":"3J94SKDEKIB2MY6CGVTNWB9X0ALD5P","url":"https://gershmanlab.com/experiments/alicia/teaching/experiment/?hitId=3J94SKDEKIB2MY6CGVTNWB9X0ALD5P&workerId=A3G5IPGLH1IIZN&assignmentId=3QEMNNSB2YLJVMIPVQDMJEJGQ5JD7Z&a=BNEQ9&tp_a=BNEQ9&b=3QEMNNSB2YLJVMIPVQDMJEJGQ5JD7Z&tp_b=3QEMNNSB2YLJVMIPVQDMJEJGQ5JD7Z&c=365799&tp_c=365799","heads":2,"tails":2,"studentIndex":22,"studentTrueHypers":{"a":4,"b":1},"studentGuess":0.6666666666666666,"delta":0.16666666666666663,"totalExamples":4,"bonus":0,"bonusSoFar":6.19},{"rt":20062,"response":{"heads":"3","tails":"0"},"type":"response","condition":"seqFeedback","trueTheta":0.8,"classrooms":["A","B"],"studentTrueClassroom":"B","exampleSet":"first","trial_type":"survey-html-form","trial_index":187,"time_elapsed":1772118,"internal_node_id":"0.0-182.0-0.0","params":{"nStudents":24,"maxFlips":30,"completionMinutes":45,"basePay":8,"maxBonus":9,"perTrialBonus":0.5,"perTrialBonusThreshold":0.05,"exampleCost":0.01},"classroomParams":{"A":{"a":1,"b":4},"B":{"a":4,"b":1},"C":{"a":2,"b":8},"D":{"a":8,"b":2}},"conditions":["nonSeqFull","nonSeqPartial","seqNoFeedback","seqFeedback"],"classroomPairings":[["A","B"],["C","D"]],"coinWeights":[0.2,0.5,0.8],"subjectId":"A3G5IPGLH1IIZN","assignmentId":"3QEMNNSB2YLJVMIPVQDMJEJGQ5JD7Z","hitId":"3J94SKDEKIB2MY6CGVTNWB9X0ALD5P","url":"https://gershmanlab.com/experiments/alicia/teaching/experiment/?hitId=3J94SKDEKIB2MY6CGVTNWB9X0ALD5P&workerId=A3G5IPGLH1IIZN&assignmentId=3QEMNNSB2YLJVMIPVQDMJEJGQ5JD7Z&a=BNEQ9&tp_a=BNEQ9&b=3QEMNNSB2YLJVMIPVQDMJEJGQ5JD7Z&tp_b=3QEMNNSB2YLJVMIPVQDMJEJGQ5JD7Z&c=365799&tp_c=365799","heads":3,"tails":0,"studentIndex":23,"studentTrueHypers":{"a":4,"b":1},"studentGuess":0.875,"delta":0.07499999999999996,"totalExamples":3,"bonusSoFar":6.19},{"rt":14415,"response":{"heads":"0","tails":"1"},"type":"response","condition":"seqFeedback","trueTheta":0.8,"classrooms":["A","B"],"studentTrueClassroom":"B","exampleSet":"second","trial_type":"survey-html-form","trial_index":191,"time_elapsed":1801190,"internal_node_id":"0.0-186.0-0.0","params":{"nStudents":24,"maxFlips":30,"completionMinutes":45,"basePay":8,"maxBonus":9,"perTrialBonus":0.5,"perTrialBonusThreshold":0.05,"exampleCost":0.01},"classroomParams":{"A":{"a":1,"b":4},"B":{"a":4,"b":1},"C":{"a":2,"b":8},"D":{"a":8,"b":2}},"conditions":["nonSeqFull","nonSeqPartial","seqNoFeedback","seqFeedback"],"classroomPairings":[["A","B"],["C","D"]],"coinWeights":[0.2,0.5,0.8],"subjectId":"A3G5IPGLH1IIZN","assignmentId":"3QEMNNSB2YLJVMIPVQDMJEJGQ5JD7Z","hitId":"3J94SKDEKIB2MY6CGVTNWB9X0ALD5P","url":"https://gershmanlab.com/experiments/alicia/teaching/experiment/?hitId=3J94SKDEKIB2MY6CGVTNWB9X0ALD5P&workerId=A3G5IPGLH1IIZN&assignmentId=3QEMNNSB2YLJVMIPVQDMJEJGQ5JD7Z&a=BNEQ9&tp_a=BNEQ9&b=3QEMNNSB2YLJVMIPVQDMJEJGQ5JD7Z&tp_b=3QEMNNSB2YLJVMIPVQDMJEJGQ5JD7Z&c=365799&tp_c=365799","firstResponseHeads":3,"firstResponseTails":0,"secondResponseHeads":0,"secondResponseTails":1,"totalHeads":3,"totalTails":1,"studentIndex":23,"studentTrueHypers":{"a":4,"b":1},"studentGuess":0.7777777777777778,"delta":0.022222222222222254,"bonus":0.46,"bonusSoFar":6.65,"totalExamples":4},{"rt":17350,"response":{"gender":"female","age":"57","understood":"yes","comments":"none"},"type":"response","trial_type":"survey-html-form","trial_index":195,"time_elapsed":1831135,"internal_node_id":"0.0-191.0","params":{"nStudents":24,"maxFlips":30,"completionMinutes":45,"basePay":8,"maxBonus":9,"perTrialBonus":0.5,"perTrialBonusThreshold":0.05,"exampleCost":0.01},"classroomParams":{"A":{"a":1,"b":4},"B":{"a":4,"b":1},"C":{"a":2,"b":8},"D":{"a":8,"b":2}},"conditions":["nonSeqFull","nonSeqPartial","seqNoFeedback","seqFeedback"],"classroomPairings":[["A","B"],["C","D"]],"coinWeights":[0.2,0.5,0.8],"subjectId":"A3G5IPGLH1IIZN","assignmentId":"3QEMNNSB2YLJVMIPVQDMJEJGQ5JD7Z","hitId":"3J94SKDEKIB2MY6CGVTNWB9X0ALD5P","url":"https://gershmanlab.com/experiments/alicia/teaching/experiment/?hitId=3J94SKDEKIB2MY6CGVTNWB9X0ALD5P&workerId=A3G5IPGLH1IIZN&assignmentId=3QEMNNSB2YLJVMIPVQDMJEJGQ5JD7Z&a=BNEQ9&tp_a=BNEQ9&b=3QEMNNSB2YLJVMIPVQDMJEJGQ5JD7Z&tp_b=3QEMNNSB2YLJVMIPVQDMJEJGQ5JD7Z&c=365799&tp_c=365799","totalBonus":6.65}]