[{"rt":24280,"response":{"heads":"1","tails":"4"},"type":"response","condition":"nonSeqFull","trueTheta":0.2,"classrooms":["A","B"],"studentTrueClassroom":"B","exampleSet":"first","trial_type":"survey-html-form","trial_index":7,"time_elapsed":258699,"internal_node_id":"0.0-6.0-0.0","params":{"nStudents":24,"maxFlips":30,"completionMinutes":45,"basePay":8,"maxBonus":9,"perTrialBonus":0.5,"perTrialBonusThreshold":0.05,"exampleCost":0.01},"classroomParams":{"A":{"a":1,"b":4},"B":{"a":4,"b":1},"C":{"a":2,"b":8},"D":{"a":8,"b":2}},"conditions":["nonSeqFull","nonSeqPartial","seqNoFeedback","seqFeedback"],"classroomPairings":[["A","B"],["C","D"]],"coinWeights":[0.2,0.5,0.8],"subjectId":"A3I40B0FATY8VH","assignmentId":"3RYC5T2D74F2225U9D2NOPR550GRPQ","hitId":"3E9VAUV7BW02QFDK7N7IH7ZKACRYAN","url":"https://gershmanlab.com/experiments/alicia/teaching/experiment/?hitId=3E9VAUV7BW02QFDK7N7IH7ZKACRYAN&workerId=A3I40B0FATY8VH&assignmentId=3RYC5T2D74F2225U9D2NOPR550GRPQ&a=D5YR9&tp_a=D5YR9&b=3RYC5T2D74F2225U9D2NOPR550GRPQ&tp_b=3RYC5T2D74F2225U9D2NOPR550GRPQ&c=365799&tp_c=365799","heads":1,"tails":4,"studentIndex":0,"studentTrueHypers":{"a":4,"b":1},"studentGuess":0.5,"delta":0.3,"totalExamples":5,"bonus":0,"bonusSoFar":0},{"rt":17934,"response":{"heads":"10","tails":"0"},"type":"response","condition":"seqNoFeedback","trueTheta":0.8,"classrooms":["C","D"],"studentTrueClassroom":"D","exampleSet":"first","trial_type":"survey-html-form","trial_index":13,"time_elapsed":294025,"internal_node_id":"0.0-12.0-0.0","params":{"nStudents":24,"maxFlips":30,"completionMinutes":45,"basePay":8,"maxBonus":9,"perTrialBonus":0.5,"perTrialBonusThreshold":0.05,"exampleCost":0.01},"classroomParams":{"A":{"a":1,"b":4},"B":{"a":4,"b":1},"C":{"a":2,"b":8},"D":{"a":8,"b":2}},"conditions":["nonSeqFull","nonSeqPartial","seqNoFeedback","seqFeedback"],"classroomPairings":[["A","B"],["C","D"]],"coinWeights":[0.2,0.5,0.8],"subjectId":"A3I40B0FATY8VH","assignmentId":"3RYC5T2D74F2225U9D2NOPR550GRPQ","hitId":"3E9VAUV7BW02QFDK7N7IH7ZKACRYAN","url":"https://gershmanlab.com/experiments/alicia/teaching/experiment/?hitId=3E9VAUV7BW02QFDK7N7IH7ZKACRYAN&workerId=A3I40B0FATY8VH&assignmentId=3RYC5T2D74F2225U9D2NOPR550GRPQ&a=D5YR9&tp_a=D5YR9&b=3RYC5T2D74F2225U9D2NOPR550GRPQ&tp_b=3RYC5T2D74F2225U9D2NOPR550GRPQ&c=365799&tp_c=365799","heads":10,"tails":0,"studentIndex":1,"studentTrueHypers":{"a":8,"b":2},"studentGuess":0.9,"delta":0.09999999999999998,"totalExamples":10,"bonusSoFar":0},{"rt":16774,"response":{"heads":"10","tails":"0"},"type":"response","condition":"seqNoFeedback","trueTheta":0.8,"classrooms":["C","D"],"studentTrueClassroom":"D","exampleSet":"second","trial_type":"survey-html-form","trial_index":16,"time_elapsed":317805,"internal_node_id":"0.0-15.0-0.0","params":{"nStudents":24,"maxFlips":30,"completionMinutes":45,"basePay":8,"maxBonus":9,"perTrialBonus":0.5,"perTrialBonusThreshold":0.05,"exampleCost":0.01},"classroomParams":{"A":{"a":1,"b":4},"B":{"a":4,"b":1},"C":{"a":2,"b":8},"D":{"a":8,"b":2}},"conditions":["nonSeqFull","nonSeqPartial","seqNoFeedback","seqFeedback"],"classroomPairings":[["A","B"],["C","D"]],"coinWeights":[0.2,0.5,0.8],"subjectId":"A3I40B0FATY8VH","assignmentId":"3RYC5T2D74F2225U9D2NOPR550GRPQ","hitId":"3E9VAUV7BW02QFDK7N7IH7ZKACRYAN","url":"https://gershmanlab.com/experiments/alicia/teaching/experiment/?hitId=3E9VAUV7BW02QFDK7N7IH7ZKACRYAN&workerId=A3I40B0FATY8VH&assignmentId=3RYC5T2D74F2225U9D2NOPR550GRPQ&a=D5YR9&tp_a=D5YR9&b=3RYC5T2D74F2225U9D2NOPR550GRPQ&tp_b=3RYC5T2D74F2225U9D2NOPR550GRPQ&c=365799&tp_c=365799","firstResponseHeads":10,"firstResponseTails":0,"secondResponseHeads":10,"secondResponseTails":0,"totalHeads":20,"totalTails":0,"studentIndex":1,"studentTrueHypers":{"a":8,"b":2},"studentGuess":0.9333333333333333,"delta":0.1333333333333333,"bonus":0,"bonusSoFar":0,"totalExamples":20},{"rt":17972,"response":{"heads":"10","tails":"5"},"type":"response","condition":"nonSeqFull","trueTheta":0.8,"classrooms":["A","B"],"studentTrueClassroom":"B","exampleSet":"first","trial_type":"survey-html-form","trial_index":22,"time_elapsed":354374,"internal_node_id":"0.0-21.0-0.0","params":{"nStudents":24,"maxFlips":30,"completionMinutes":45,"basePay":8,"maxBonus":9,"perTrialBonus":0.5,"perTrialBonusThreshold":0.05,"exampleCost":0.01},"classroomParams":{"A":{"a":1,"b":4},"B":{"a":4,"b":1},"C":{"a":2,"b":8},"D":{"a":8,"b":2}},"conditions":["nonSeqFull","nonSeqPartial","seqNoFeedback","seqFeedback"],"classroomPairings":[["A","B"],["C","D"]],"coinWeights":[0.2,0.5,0.8],"subjectId":"A3I40B0FATY8VH","assignmentId":"3RYC5T2D74F2225U9D2NOPR550GRPQ","hitId":"3E9VAUV7BW02QFDK7N7IH7ZKACRYAN","url":"https://gershmanlab.com/experiments/alicia/teaching/experiment/?hitId=3E9VAUV7BW02QFDK7N7IH7ZKACRYAN&workerId=A3I40B0FATY8VH&assignmentId=3RYC5T2D74F2225U9D2NOPR550GRPQ&a=D5YR9&tp_a=D5YR9&b=3RYC5T2D74F2225U9D2NOPR550GRPQ&tp_b=3RYC5T2D74F2225U9D2NOPR550GRPQ&c=365799&tp_c=365799","heads":10,"tails":5,"studentIndex":2,"studentTrueHypers":{"a":4,"b":1},"studentGuess":0.7,"delta":0.10000000000000009,"totalExamples":15,"bonus":0,"bonusSoFar":0},{"rt":12958,"response":{"heads":"15","tails":"0"},"type":"response","condition":"seqNoFeedback","trueTheta":0.5,"classrooms":["A","B"],"studentTrueClassroom":"A","exampleSet":"first","trial_type":"survey-html-form","trial_index":28,"time_elapsed":386861,"internal_node_id":"0.0-27.0-0.0","params":{"nStudents":24,"maxFlips":30,"completionMinutes":45,"basePay":8,"maxBonus":9,"perTrialBonus":0.5,"perTrialBonusThreshold":0.05,"exampleCost":0.01},"classroomParams":{"A":{"a":1,"b":4},"B":{"a":4,"b":1},"C":{"a":2,"b":8},"D":{"a":8,"b":2}},"conditions":["nonSeqFull","nonSeqPartial","seqNoFeedback","seqFeedback"],"classroomPairings":[["A","B"],["C","D"]],"coinWeights":[0.2,0.5,0.8],"subjectId":"A3I40B0FATY8VH","assignmentId":"3RYC5T2D74F2225U9D2NOPR550GRPQ","hitId":"3E9VAUV7BW02QFDK7N7IH7ZKACRYAN","url":"https://gershmanlab.com/experiments/alicia/teaching/experiment/?hitId=3E9VAUV7BW02QFDK7N7IH7ZKACRYAN&workerId=A3I40B0FATY8VH&assignmentId=3RYC5T2D74F2225U9D2NOPR550GRPQ&a=D5YR9&tp_a=D5YR9&b=3RYC5T2D74F2225U9D2NOPR550GRPQ&tp_b=3RYC5T2D74F2225U9D2NOPR550GRPQ&c=365799&tp_c=365799","heads":15,"tails":0,"studentIndex":3,"studentTrueHypers":{"a":1,"b":4},"studentGuess":0.8,"delta":0.30000000000000004,"totalExamples":15,"bonusSoFar":0},{"rt":9879,"response":{"heads":"15","tails":"15"},"type":"response","condition":"seqNoFeedback","trueTheta":0.5,"classrooms":["A","B"],"studentTrueClassroom":"A","exampleSet":"second","trial_type":"survey-html-form","trial_index":31,"time_elapsed":402494,"internal_node_id":"0.0-30.0-0.0","params":{"nStudents":24,"maxFlips":30,"completionMinutes":45,"basePay":8,"maxBonus":9,"perTrialBonus":0.5,"perTrialBonusThreshold":0.05,"exampleCost":0.01},"classroomParams":{"A":{"a":1,"b":4},"B":{"a":4,"b":1},"C":{"a":2,"b":8},"D":{"a":8,"b":2}},"conditions":["nonSeqFull","nonSeqPartial","seqNoFeedback","seqFeedback"],"classroomPairings":[["A","B"],["C","D"]],"coinWeights":[0.2,0.5,0.8],"subjectId":"A3I40B0FATY8VH","assignmentId":"3RYC5T2D74F2225U9D2NOPR550GRPQ","hitId":"3E9VAUV7BW02QFDK7N7IH7ZKACRYAN","url":"https://gershmanlab.com/experiments/alicia/teaching/experiment/?hitId=3E9VAUV7BW02QFDK7N7IH7ZKACRYAN&workerId=A3I40B0FATY8VH&assignmentId=3RYC5T2D74F2225U9D2NOPR550GRPQ&a=D5YR9&tp_a=D5YR9&b=3RYC5T2D74F2225U9D2NOPR550GRPQ&tp_b=3RYC5T2D74F2225U9D2NOPR550GRPQ&c=365799&tp_c=365799","firstResponseHeads":15,"firstResponseTails":0,"secondResponseHeads":15,"secondResponseTails":15,"totalHeads":30,"totalTails":15,"studentIndex":3,"studentTrueHypers":{"a":1,"b":4},"studentGuess":0.62,"delta":0.12,"bonus":0,"bonusSoFar":0,"totalExamples":45},{"rt":10744,"response":{"heads":"10","tails":"5"},"type":"response","condition":"seqFeedback","trueTheta":0.8,"classrooms":["C","D"],"studentTrueClassroom":"C","exampleSet":"first","trial_type":"survey-html-form","trial_index":37,"time_elapsed":437956,"internal_node_id":"0.0-36.0-0.0","params":{"nStudents":24,"maxFlips":30,"completionMinutes":45,"basePay":8,"maxBonus":9,"perTrialBonus":0.5,"perTrialBonusThreshold":0.05,"exampleCost":0.01},"classroomParams":{"A":{"a":1,"b":4},"B":{"a":4,"b":1},"C":{"a":2,"b":8},"D":{"a":8,"b":2}},"conditions":["nonSeqFull","nonSeqPartial","seqNoFeedback","seqFeedback"],"classroomPairings":[["A","B"],["C","D"]],"coinWeights":[0.2,0.5,0.8],"subjectId":"A3I40B0FATY8VH","assignmentId":"3RYC5T2D74F2225U9D2NOPR550GRPQ","hitId":"3E9VAUV7BW02QFDK7N7IH7ZKACRYAN","url":"https://gershmanlab.com/experiments/alicia/teaching/experiment/?hitId=3E9VAUV7BW02QFDK7N7IH7ZKACRYAN&workerId=A3I40B0FATY8VH&assignmentId=3RYC5T2D74F2225U9D2NOPR550GRPQ&a=D5YR9&tp_a=D5YR9&b=3RYC5T2D74F2225U9D2NOPR550GRPQ&tp_b=3RYC5T2D74F2225U9D2NOPR550GRPQ&c=365799&tp_c=365799","heads":10,"tails":5,"studentIndex":4,"studentTrueHypers":{"a":2,"b":8},"studentGuess":0.48,"delta":0.32000000000000006,"totalExamples":15,"bonusSoFar":0},{"rt":10358,"response":{"heads":"12","tails":"0"},"type":"response","condition":"seqFeedback","trueTheta":0.8,"classrooms":["C","D"],"studentTrueClassroom":"C","exampleSet":"second","trial_type":"survey-html-form","trial_index":41,"time_elapsed":460574,"internal_node_id":"0.0-40.0-0.0","params":{"nStudents":24,"maxFlips":30,"completionMinutes":45,"basePay":8,"maxBonus":9,"perTrialBonus":0.5,"perTrialBonusThreshold":0.05,"exampleCost":0.01},"classroomParams":{"A":{"a":1,"b":4},"B":{"a":4,"b":1},"C":{"a":2,"b":8},"D":{"a":8,"b":2}},"conditions":["nonSeqFull","nonSeqPartial","seqNoFeedback","seqFeedback"],"classroomPairings":[["A","B"],["C","D"]],"coinWeights":[0.2,0.5,0.8],"subjectId":"A3I40B0FATY8VH","assignmentId":"3RYC5T2D74F2225U9D2NOPR550GRPQ","hitId":"3E9VAUV7BW02QFDK7N7IH7ZKACRYAN","url":"https://gershmanlab.com/experiments/alicia/teaching/experiment/?hitId=3E9VAUV7BW02QFDK7N7IH7ZKACRYAN&workerId=A3I40B0FATY8VH&assignmentId=3RYC5T2D74F2225U9D2NOPR550GRPQ&a=D5YR9&tp_a=D5YR9&b=3RYC5T2D74F2225U9D2NOPR550GRPQ&tp_b=3RYC5T2D74F2225U9D2NOPR550GRPQ&c=365799&tp_c=365799","firstResponseHeads":10,"firstResponseTails":5,"secondResponseHeads":12,"secondResponseTails":0,"totalHeads":22,"totalTails":5,"studentIndex":4,"studentTrueHypers":{"a":2,"b":8},"studentGuess":0.6486486486486487,"delta":0.15135135135135136,"bonus":0,"bonusSoFar":0,"totalExamples":27},{"rt":11439,"response":{"heads":"14","tails":"8"},"type":"response","condition":"seqFeedback","trueTheta":0.5,"classrooms":["C","D"],"studentTrueClassroom":"D","exampleSet":"first","trial_type":"survey-html-form","trial_index":47,"time_elapsed":491302,"internal_node_id":"0.0-46.0-0.0","params":{"nStudents":24,"maxFlips":30,"completionMinutes":45,"basePay":8,"maxBonus":9,"perTrialBonus":0.5,"perTrialBonusThreshold":0.05,"exampleCost":0.01},"classroomParams":{"A":{"a":1,"b":4},"B":{"a":4,"b":1},"C":{"a":2,"b":8},"D":{"a":8,"b":2}},"conditions":["nonSeqFull","nonSeqPartial","seqNoFeedback","seqFeedback"],"classroomPairings":[["A","B"],["C","D"]],"coinWeights":[0.2,0.5,0.8],"subjectId":"A3I40B0FATY8VH","assignmentId":"3RYC5T2D74F2225U9D2NOPR550GRPQ","hitId":"3E9VAUV7BW02QFDK7N7IH7ZKACRYAN","url":"https://gershmanlab.com/experiments/alicia/teaching/experiment/?hitId=3E9VAUV7BW02QFDK7N7IH7ZKACRYAN&workerId=A3I40B0FATY8VH&assignmentId=3RYC5T2D74F2225U9D2NOPR550GRPQ&a=D5YR9&tp_a=D5YR9&b=3RYC5T2D74F2225U9D2NOPR550GRPQ&tp_b=3RYC5T2D74F2225U9D2NOPR550GRPQ&c=365799&tp_c=365799","heads":14,"tails":8,"studentIndex":5,"studentTrueHypers":{"a":8,"b":2},"studentGuess":0.6875,"delta":0.1875,"totalExamples":22,"bonusSoFar":0},{"rt":10956,"response":{"heads":"10","tails":"10"},"type":"response","condition":"seqFeedback","trueTheta":0.5,"classrooms":["C","D"],"studentTrueClassroom":"D","exampleSet":"second","trial_type":"survey-html-form","trial_index":51,"time_elapsed":515119,"internal_node_id":"0.0-50.0-0.0","params":{"nStudents":24,"maxFlips":30,"completionMinutes":45,"basePay":8,"maxBonus":9,"perTrialBonus":0.5,"perTrialBonusThreshold":0.05,"exampleCost":0.01},"classroomParams":{"A":{"a":1,"b":4},"B":{"a":4,"b":1},"C":{"a":2,"b":8},"D":{"a":8,"b":2}},"conditions":["nonSeqFull","nonSeqPartial","seqNoFeedback","seqFeedback"],"classroomPairings":[["A","B"],["C","D"]],"coinWeights":[0.2,0.5,0.8],"subjectId":"A3I40B0FATY8VH","assignmentId":"3RYC5T2D74F2225U9D2NOPR550GRPQ","hitId":"3E9VAUV7BW02QFDK7N7IH7ZKACRYAN","url":"https://gershmanlab.com/experiments/alicia/teaching/experiment/?hitId=3E9VAUV7BW02QFDK7N7IH7ZKACRYAN&workerId=A3I40B0FATY8VH&assignmentId=3RYC5T2D74F2225U9D2NOPR550GRPQ&a=D5YR9&tp_a=D5YR9&b=3RYC5T2D74F2225U9D2NOPR550GRPQ&tp_b=3RYC5T2D74F2225U9D2NOPR550GRPQ&c=365799&tp_c=365799","firstResponseHeads":14,"firstResponseTails":8,"secondResponseHeads":10,"secondResponseTails":10,"totalHeads":24,"totalTails":18,"studentIndex":5,"studentTrueHypers":{"a":8,"b":2},"studentGuess":0.6153846153846154,"delta":0.11538461538461542,"bonus":0,"bonusSoFar":0,"totalExamples":42},{"rt":11375,"response":{"heads":"0","tails":"15"},"type":"response","condition":"seqFeedback","trueTheta":0.2,"classrooms":["C","D"],"studentTrueClassroom":"D","exampleSet":"first","trial_type":"survey-html-form","trial_index":57,"time_elapsed":546868,"internal_node_id":"0.0-56.0-0.0","params":{"nStudents":24,"maxFlips":30,"completionMinutes":45,"basePay":8,"maxBonus":9,"perTrialBonus":0.5,"perTrialBonusThreshold":0.05,"exampleCost":0.01},"classroomParams":{"A":{"a":1,"b":4},"B":{"a":4,"b":1},"C":{"a":2,"b":8},"D":{"a":8,"b":2}},"conditions":["nonSeqFull","nonSeqPartial","seqNoFeedback","seqFeedback"],"classroomPairings":[["A","B"],["C","D"]],"coinWeights":[0.2,0.5,0.8],"subjectId":"A3I40B0FATY8VH","assignmentId":"3RYC5T2D74F2225U9D2NOPR550GRPQ","hitId":"3E9VAUV7BW02QFDK7N7IH7ZKACRYAN","url":"https://gershmanlab.com/experiments/alicia/teaching/experiment/?hitId=3E9VAUV7BW02QFDK7N7IH7ZKACRYAN&workerId=A3I40B0FATY8VH&assignmentId=3RYC5T2D74F2225U9D2NOPR550GRPQ&a=D5YR9&tp_a=D5YR9&b=3RYC5T2D74F2225U9D2NOPR550GRPQ&tp_b=3RYC5T2D74F2225U9D2NOPR550GRPQ&c=365799&tp_c=365799","heads":0,"tails":15,"studentIndex":6,"studentTrueHypers":{"a":8,"b":2},"studentGuess":0.32,"delta":0.12,"totalExamples":15,"bonusSoFar":0},{"rt":9883,"response":{"heads":"10","tails":"20"},"type":"response","condition":"seqFeedback","trueTheta":0.2,"classrooms":["C","D"],"studentTrueClassroom":"D","exampleSet":"second","trial_type":"survey-html-form","trial_index":61,"time_elapsed":566407,"internal_node_id":"0.0-60.0-0.0","params":{"nStudents":24,"maxFlips":30,"completionMinutes":45,"basePay":8,"maxBonus":9,"perTrialBonus":0.5,"perTrialBonusThreshold":0.05,"exampleCost":0.01},"classroomParams":{"A":{"a":1,"b":4},"B":{"a":4,"b":1},"C":{"a":2,"b":8},"D":{"a":8,"b":2}},"conditions":["nonSeqFull","nonSeqPartial","seqNoFeedback","seqFeedback"],"classroomPairings":[["A","B"],["C","D"]],"coinWeights":[0.2,0.5,0.8],"subjectId":"A3I40B0FATY8VH","assignmentId":"3RYC5T2D74F2225U9D2NOPR550GRPQ","hitId":"3E9VAUV7BW02QFDK7N7IH7ZKACRYAN","url":"https://gershmanlab.com/experiments/alicia/teaching/experiment/?hitId=3E9VAUV7BW02QFDK7N7IH7ZKACRYAN&workerId=A3I40B0FATY8VH&assignmentId=3RYC5T2D74F2225U9D2NOPR550GRPQ&a=D5YR9&tp_a=D5YR9&b=3RYC5T2D74F2225U9D2NOPR550GRPQ&tp_b=3RYC5T2D74F2225U9D2NOPR550GRPQ&c=365799&tp_c=365799","firstResponseHeads":0,"firstResponseTails":15,"secondResponseHeads":10,"secondResponseTails":20,"totalHeads":10,"totalTails":35,"studentIndex":6,"studentTrueHypers":{"a":8,"b":2},"studentGuess":0.32727272727272727,"delta":0.12727272727272726,"bonus":0,"bonusSoFar":0,"totalExamples":45},{"rt":5648,"response":{"heads":"10","tails":"10"},"type":"response","condition":"seqFeedback","trueTheta":0.5,"classrooms":["A","B"],"studentTrueClassroom":"A","exampleSet":"first","trial_type":"survey-html-form","trial_index":67,"time_elapsed":595998,"internal_node_id":"0.0-66.0-0.0","params":{"nStudents":24,"maxFlips":30,"completionMinutes":45,"basePay":8,"maxBonus":9,"perTrialBonus":0.5,"perTrialBonusThreshold":0.05,"exampleCost":0.01},"classroomParams":{"A":{"a":1,"b":4},"B":{"a":4,"b":1},"C":{"a":2,"b":8},"D":{"a":8,"b":2}},"conditions":["nonSeqFull","nonSeqPartial","seqNoFeedback","seqFeedback"],"classroomPairings":[["A","B"],["C","D"]],"coinWeights":[0.2,0.5,0.8],"subjectId":"A3I40B0FATY8VH","assignmentId":"3RYC5T2D74F2225U9D2NOPR550GRPQ","hitId":"3E9VAUV7BW02QFDK7N7IH7ZKACRYAN","url":"https://gershmanlab.com/experiments/alicia/teaching/experiment/?hitId=3E9VAUV7BW02QFDK7N7IH7ZKACRYAN&workerId=A3I40B0FATY8VH&assignmentId=3RYC5T2D74F2225U9D2NOPR550GRPQ&a=D5YR9&tp_a=D5YR9&b=3RYC5T2D74F2225U9D2NOPR550GRPQ&tp_b=3RYC5T2D74F2225U9D2NOPR550GRPQ&c=365799&tp_c=365799","heads":10,"tails":10,"studentIndex":7,"studentTrueHypers":{"a":1,"b":4},"studentGuess":0.44,"delta":0.06,"totalExamples":20,"bonusSoFar":0},{"rt":6931,"response":{"heads":"12","tails":"12"},"type":"response","condition":"seqFeedback","trueTheta":0.5,"classrooms":["A","B"],"studentTrueClassroom":"A","exampleSet":"second","trial_type":"survey-html-form","trial_index":71,"time_elapsed":614444,"internal_node_id":"0.0-70.0-0.0","params":{"nStudents":24,"maxFlips":30,"completionMinutes":45,"basePay":8,"maxBonus":9,"perTrialBonus":0.5,"perTrialBonusThreshold":0.05,"exampleCost":0.01},"classroomParams":{"A":{"a":1,"b":4},"B":{"a":4,"b":1},"C":{"a":2,"b":8},"D":{"a":8,"b":2}},"conditions":["nonSeqFull","nonSeqPartial","seqNoFeedback","seqFeedback"],"classroomPairings":[["A","B"],["C","D"]],"coinWeights":[0.2,0.5,0.8],"subjectId":"A3I40B0FATY8VH","assignmentId":"3RYC5T2D74F2225U9D2NOPR550GRPQ","hitId":"3E9VAUV7BW02QFDK7N7IH7ZKACRYAN","url":"https://gershmanlab.com/experiments/alicia/teaching/experiment/?hitId=3E9VAUV7BW02QFDK7N7IH7ZKACRYAN&workerId=A3I40B0FATY8VH&assignmentId=3RYC5T2D74F2225U9D2NOPR550GRPQ&a=D5YR9&tp_a=D5YR9&b=3RYC5T2D74F2225U9D2NOPR550GRPQ&tp_b=3RYC5T2D74F2225U9D2NOPR550GRPQ&c=365799&tp_c=365799","firstResponseHeads":10,"firstResponseTails":10,"secondResponseHeads":12,"secondResponseTails":12,"totalHeads":22,"totalTails":22,"studentIndex":7,"studentTrueHypers":{"a":1,"b":4},"studentGuess":0.46938775510204084,"delta":0.030612244897959162,"bonus":0.06,"bonusSoFar":0.06,"totalExamples":44},{"rt":3896,"response":{"heads":"12","tails":"12"},"type":"response","condition":"nonSeqPartial","trueTheta":0.5,"classrooms":["A","B"],"studentTrueClassroom":"B","exampleSet":"first","trial_type":"survey-html-form","trial_index":77,"time_elapsed":633989,"internal_node_id":"0.0-76.0-0.0","params":{"nStudents":24,"maxFlips":30,"completionMinutes":45,"basePay":8,"maxBonus":9,"perTrialBonus":0.5,"perTrialBonusThreshold":0.05,"exampleCost":0.01},"classroomParams":{"A":{"a":1,"b":4},"B":{"a":4,"b":1},"C":{"a":2,"b":8},"D":{"a":8,"b":2}},"conditions":["nonSeqFull","nonSeqPartial","seqNoFeedback","seqFeedback"],"classroomPairings":[["A","B"],["C","D"]],"coinWeights":[0.2,0.5,0.8],"subjectId":"A3I40B0FATY8VH","assignmentId":"3RYC5T2D74F2225U9D2NOPR550GRPQ","hitId":"3E9VAUV7BW02QFDK7N7IH7ZKACRYAN","url":"https://gershmanlab.com/experiments/alicia/teaching/experiment/?hitId=3E9VAUV7BW02QFDK7N7IH7ZKACRYAN&workerId=A3I40B0FATY8VH&assignmentId=3RYC5T2D74F2225U9D2NOPR550GRPQ&a=D5YR9&tp_a=D5YR9&b=3RYC5T2D74F2225U9D2NOPR550GRPQ&tp_b=3RYC5T2D74F2225U9D2NOPR550GRPQ&c=365799&tp_c=365799","heads":12,"tails":12,"studentIndex":8,"studentTrueHypers":{"a":4,"b":1},"studentGuess":0.5517241379310345,"delta":0.051724137931034475,"totalExamples":24,"bonus":0,"bonusSoFar":0.06},{"rt":11937,"response":{"heads":"0","tails":"10"},"type":"response","condition":"seqFeedback","trueTheta":0.2,"classrooms":["A","B"],"studentTrueClassroom":"A","exampleSet":"first","trial_type":"survey-html-form","trial_index":83,"time_elapsed":663267,"internal_node_id":"0.0-82.0-0.0","params":{"nStudents":24,"maxFlips":30,"completionMinutes":45,"basePay":8,"maxBonus":9,"perTrialBonus":0.5,"perTrialBonusThreshold":0.05,"exampleCost":0.01},"classroomParams":{"A":{"a":1,"b":4},"B":{"a":4,"b":1},"C":{"a":2,"b":8},"D":{"a":8,"b":2}},"conditions":["nonSeqFull","nonSeqPartial","seqNoFeedback","seqFeedback"],"classroomPairings":[["A","B"],["C","D"]],"coinWeights":[0.2,0.5,0.8],"subjectId":"A3I40B0FATY8VH","assignmentId":"3RYC5T2D74F2225U9D2NOPR550GRPQ","hitId":"3E9VAUV7BW02QFDK7N7IH7ZKACRYAN","url":"https://gershmanlab.com/experiments/alicia/teaching/experiment/?hitId=3E9VAUV7BW02QFDK7N7IH7ZKACRYAN&workerId=A3I40B0FATY8VH&assignmentId=3RYC5T2D74F2225U9D2NOPR550GRPQ&a=D5YR9&tp_a=D5YR9&b=3RYC5T2D74F2225U9D2NOPR550GRPQ&tp_b=3RYC5T2D74F2225U9D2NOPR550GRPQ&c=365799&tp_c=365799","heads":0,"tails":10,"studentIndex":9,"studentTrueHypers":{"a":1,"b":4},"studentGuess":0.06666666666666667,"delta":0.13333333333333336,"totalExamples":10,"bonusSoFar":0.06},{"rt":7282,"response":{"heads":"12","tails":"0"},"type":"response","condition":"seqFeedback","trueTheta":0.2,"classrooms":["A","B"],"studentTrueClassroom":"A","exampleSet":"second","trial_type":"survey-html-form","trial_index":87,"time_elapsed":680892,"internal_node_id":"0.0-86.0-0.0","params":{"nStudents":24,"maxFlips":30,"completionMinutes":45,"basePay":8,"maxBonus":9,"perTrialBonus":0.5,"perTrialBonusThreshold":0.05,"exampleCost":0.01},"classroomParams":{"A":{"a":1,"b":4},"B":{"a":4,"b":1},"C":{"a":2,"b":8},"D":{"a":8,"b":2}},"conditions":["nonSeqFull","nonSeqPartial","seqNoFeedback","seqFeedback"],"classroomPairings":[["A","B"],["C","D"]],"coinWeights":[0.2,0.5,0.8],"subjectId":"A3I40B0FATY8VH","assignmentId":"3RYC5T2D74F2225U9D2NOPR550GRPQ","hitId":"3E9VAUV7BW02QFDK7N7IH7ZKACRYAN","url":"https://gershmanlab.com/experiments/alicia/teaching/experiment/?hitId=3E9VAUV7BW02QFDK7N7IH7ZKACRYAN&workerId=A3I40B0FATY8VH&assignmentId=3RYC5T2D74F2225U9D2NOPR550GRPQ&a=D5YR9&tp_a=D5YR9&b=3RYC5T2D74F2225U9D2NOPR550GRPQ&tp_b=3RYC5T2D74F2225U9D2NOPR550GRPQ&c=365799&tp_c=365799","firstResponseHeads":0,"firstResponseTails":10,"secondResponseHeads":12,"secondResponseTails":0,"totalHeads":12,"totalTails":10,"studentIndex":9,"studentTrueHypers":{"a":1,"b":4},"studentGuess":0.48148148148148145,"delta":0.28148148148148144,"bonus":0,"bonusSoFar":0.06,"totalExamples":22},{"rt":4204,"response":{"heads":"5","tails":"5"},"type":"response","condition":"nonSeqFull","trueTheta":0.2,"classrooms":["C","D"],"studentTrueClassroom":"C","exampleSet":"first","trial_type":"survey-html-form","trial_index":93,"time_elapsed":702055,"internal_node_id":"0.0-92.0-0.0","params":{"nStudents":24,"maxFlips":30,"completionMinutes":45,"basePay":8,"maxBonus":9,"perTrialBonus":0.5,"perTrialBonusThreshold":0.05,"exampleCost":0.01},"classroomParams":{"A":{"a":1,"b":4},"B":{"a":4,"b":1},"C":{"a":2,"b":8},"D":{"a":8,"b":2}},"conditions":["nonSeqFull","nonSeqPartial","seqNoFeedback","seqFeedback"],"classroomPairings":[["A","B"],["C","D"]],"coinWeights":[0.2,0.5,0.8],"subjectId":"A3I40B0FATY8VH","assignmentId":"3RYC5T2D74F2225U9D2NOPR550GRPQ","hitId":"3E9VAUV7BW02QFDK7N7IH7ZKACRYAN","url":"https://gershmanlab.com/experiments/alicia/teaching/experiment/?hitId=3E9VAUV7BW02QFDK7N7IH7ZKACRYAN&workerId=A3I40B0FATY8VH&assignmentId=3RYC5T2D74F2225U9D2NOPR550GRPQ&a=D5YR9&tp_a=D5YR9&b=3RYC5T2D74F2225U9D2NOPR550GRPQ&tp_b=3RYC5T2D74F2225U9D2NOPR550GRPQ&c=365799&tp_c=365799","heads":5,"tails":5,"studentIndex":10,"studentTrueHypers":{"a":2,"b":8},"studentGuess":0.35,"delta":0.14999999999999997,"totalExamples":10,"bonus":0,"bonusSoFar":0.06},{"rt":7022,"response":{"heads":"15","tails":"0"},"type":"response","condition":"seqNoFeedback","trueTheta":0.8,"classrooms":["A","B"],"studentTrueClassroom":"B","exampleSet":"first","trial_type":"survey-html-form","trial_index":99,"time_elapsed":724132,"internal_node_id":"0.0-98.0-0.0","params":{"nStudents":24,"maxFlips":30,"completionMinutes":45,"basePay":8,"maxBonus":9,"perTrialBonus":0.5,"perTrialBonusThreshold":0.05,"exampleCost":0.01},"classroomParams":{"A":{"a":1,"b":4},"B":{"a":4,"b":1},"C":{"a":2,"b":8},"D":{"a":8,"b":2}},"conditions":["nonSeqFull","nonSeqPartial","seqNoFeedback","seqFeedback"],"classroomPairings":[["A","B"],["C","D"]],"coinWeights":[0.2,0.5,0.8],"subjectId":"A3I40B0FATY8VH","assignmentId":"3RYC5T2D74F2225U9D2NOPR550GRPQ","hitId":"3E9VAUV7BW02QFDK7N7IH7ZKACRYAN","url":"https://gershmanlab.com/experiments/alicia/teaching/experiment/?hitId=3E9VAUV7BW02QFDK7N7IH7ZKACRYAN&workerId=A3I40B0FATY8VH&assignmentId=3RYC5T2D74F2225U9D2NOPR550GRPQ&a=D5YR9&tp_a=D5YR9&b=3RYC5T2D74F2225U9D2NOPR550GRPQ&tp_b=3RYC5T2D74F2225U9D2NOPR550GRPQ&c=365799&tp_c=365799","heads":15,"tails":0,"studentIndex":11,"studentTrueHypers":{"a":4,"b":1},"studentGuess":0.95,"delta":0.1499999999999999,"totalExamples":15,"bonusSoFar":0.06},{"rt":8857,"response":{"heads":"15","tails":"0"},"type":"response","condition":"seqNoFeedback","trueTheta":0.8,"classrooms":["A","B"],"studentTrueClassroom":"B","exampleSet":"second","trial_type":"survey-html-form","trial_index":102,"time_elapsed":739994,"internal_node_id":"0.0-101.0-0.0","params":{"nStudents":24,"maxFlips":30,"completionMinutes":45,"basePay":8,"maxBonus":9,"perTrialBonus":0.5,"perTrialBonusThreshold":0.05,"exampleCost":0.01},"classroomParams":{"A":{"a":1,"b":4},"B":{"a":4,"b":1},"C":{"a":2,"b":8},"D":{"a":8,"b":2}},"conditions":["nonSeqFull","nonSeqPartial","seqNoFeedback","seqFeedback"],"classroomPairings":[["A","B"],["C","D"]],"coinWeights":[0.2,0.5,0.8],"subjectId":"A3I40B0FATY8VH","assignmentId":"3RYC5T2D74F2225U9D2NOPR550GRPQ","hitId":"3E9VAUV7BW02QFDK7N7IH7ZKACRYAN","url":"https://gershmanlab.com/experiments/alicia/teaching/experiment/?hitId=3E9VAUV7BW02QFDK7N7IH7ZKACRYAN&workerId=A3I40B0FATY8VH&assignmentId=3RYC5T2D74F2225U9D2NOPR550GRPQ&a=D5YR9&tp_a=D5YR9&b=3RYC5T2D74F2225U9D2NOPR550GRPQ&tp_b=3RYC5T2D74F2225U9D2NOPR550GRPQ&c=365799&tp_c=365799","firstResponseHeads":15,"firstResponseTails":0,"secondResponseHeads":15,"secondResponseTails":0,"totalHeads":30,"totalTails":0,"studentIndex":11,"studentTrueHypers":{"a":4,"b":1},"studentGuess":0.9714285714285714,"delta":0.17142857142857137,"bonus":0,"bonusSoFar":0.06,"totalExamples":30},{"rt":3862,"response":{"heads":"2","tails":"8"},"type":"response","condition":"nonSeqPartial","trueTheta":0.2,"classrooms":["C","D"],"studentTrueClassroom":"C","exampleSet":"first","trial_type":"survey-html-form","trial_index":108,"time_elapsed":767488,"internal_node_id":"0.0-107.0-0.0","params":{"nStudents":24,"maxFlips":30,"completionMinutes":45,"basePay":8,"maxBonus":9,"perTrialBonus":0.5,"perTrialBonusThreshold":0.05,"exampleCost":0.01},"classroomParams":{"A":{"a":1,"b":4},"B":{"a":4,"b":1},"C":{"a":2,"b":8},"D":{"a":8,"b":2}},"conditions":["nonSeqFull","nonSeqPartial","seqNoFeedback","seqFeedback"],"classroomPairings":[["A","B"],["C","D"]],"coinWeights":[0.2,0.5,0.8],"subjectId":"A3I40B0FATY8VH","assignmentId":"3RYC5T2D74F2225U9D2NOPR550GRPQ","hitId":"3E9VAUV7BW02QFDK7N7IH7ZKACRYAN","url":"https://gershmanlab.com/experiments/alicia/teaching/experiment/?hitId=3E9VAUV7BW02QFDK7N7IH7ZKACRYAN&workerId=A3I40B0FATY8VH&assignmentId=3RYC5T2D74F2225U9D2NOPR550GRPQ&a=D5YR9&tp_a=D5YR9&b=3RYC5T2D74F2225U9D2NOPR550GRPQ&tp_b=3RYC5T2D74F2225U9D2NOPR550GRPQ&c=365799&tp_c=365799","heads":2,"tails":8,"studentIndex":12,"studentTrueHypers":{"a":2,"b":8},"studentGuess":0.2,"delta":0,"totalExamples":10,"bonus":0.4,"bonusSoFar":0.46},{"rt":3186,"response":{"heads":"5","tails":"5"},"type":"response","condition":"nonSeqPartial","trueTheta":0.5,"classrooms":["C","D"],"studentTrueClassroom":"C","exampleSet":"first","trial_type":"survey-html-form","trial_index":114,"time_elapsed":790950,"internal_node_id":"0.0-113.0-0.0","params":{"nStudents":24,"maxFlips":30,"completionMinutes":45,"basePay":8,"maxBonus":9,"perTrialBonus":0.5,"perTrialBonusThreshold":0.05,"exampleCost":0.01},"classroomParams":{"A":{"a":1,"b":4},"B":{"a":4,"b":1},"C":{"a":2,"b":8},"D":{"a":8,"b":2}},"conditions":["nonSeqFull","nonSeqPartial","seqNoFeedback","seqFeedback"],"classroomPairings":[["A","B"],["C","D"]],"coinWeights":[0.2,0.5,0.8],"subjectId":"A3I40B0FATY8VH","assignmentId":"3RYC5T2D74F2225U9D2NOPR550GRPQ","hitId":"3E9VAUV7BW02QFDK7N7IH7ZKACRYAN","url":"https://gershmanlab.com/experiments/alicia/teaching/experiment/?hitId=3E9VAUV7BW02QFDK7N7IH7ZKACRYAN&workerId=A3I40B0FATY8VH&assignmentId=3RYC5T2D74F2225U9D2NOPR550GRPQ&a=D5YR9&tp_a=D5YR9&b=3RYC5T2D74F2225U9D2NOPR550GRPQ&tp_b=3RYC5T2D74F2225U9D2NOPR550GRPQ&c=365799&tp_c=365799","heads":5,"tails":5,"studentIndex":13,"studentTrueHypers":{"a":2,"b":8},"studentGuess":0.35,"delta":0.15000000000000002,"totalExamples":10,"bonus":0,"bonusSoFar":0.46},{"rt":7659,"response":{"heads":"6","tails":"4"},"type":"response","condition":"seqNoFeedback","trueTheta":0.5,"classrooms":["C","D"],"studentTrueClassroom":"C","exampleSet":"first","trial_type":"survey-html-form","trial_index":120,"time_elapsed":811181,"internal_node_id":"0.0-119.0-0.0","params":{"nStudents":24,"maxFlips":30,"completionMinutes":45,"basePay":8,"maxBonus":9,"perTrialBonus":0.5,"perTrialBonusThreshold":0.05,"exampleCost":0.01},"classroomParams":{"A":{"a":1,"b":4},"B":{"a":4,"b":1},"C":{"a":2,"b":8},"D":{"a":8,"b":2}},"conditions":["nonSeqFull","nonSeqPartial","seqNoFeedback","seqFeedback"],"classroomPairings":[["A","B"],["C","D"]],"coinWeights":[0.2,0.5,0.8],"subjectId":"A3I40B0FATY8VH","assignmentId":"3RYC5T2D74F2225U9D2NOPR550GRPQ","hitId":"3E9VAUV7BW02QFDK7N7IH7ZKACRYAN","url":"https://gershmanlab.com/experiments/alicia/teaching/experiment/?hitId=3E9VAUV7BW02QFDK7N7IH7ZKACRYAN&workerId=A3I40B0FATY8VH&assignmentId=3RYC5T2D74F2225U9D2NOPR550GRPQ&a=D5YR9&tp_a=D5YR9&b=3RYC5T2D74F2225U9D2NOPR550GRPQ&tp_b=3RYC5T2D74F2225U9D2NOPR550GRPQ&c=365799&tp_c=365799","heads":6,"tails":4,"studentIndex":14,"studentTrueHypers":{"a":2,"b":8},"studentGuess":0.4,"delta":0.09999999999999998,"totalExamples":10,"bonusSoFar":0.46},{"rt":4476,"response":{"heads":"4","tails":"6"},"type":"response","condition":"seqNoFeedback","trueTheta":0.5,"classrooms":["C","D"],"studentTrueClassroom":"C","exampleSet":"second","trial_type":"survey-html-form","trial_index":123,"time_elapsed":821412,"internal_node_id":"0.0-122.0-0.0","params":{"nStudents":24,"maxFlips":30,"completionMinutes":45,"basePay":8,"maxBonus":9,"perTrialBonus":0.5,"perTrialBonusThreshold":0.05,"exampleCost":0.01},"classroomParams":{"A":{"a":1,"b":4},"B":{"a":4,"b":1},"C":{"a":2,"b":8},"D":{"a":8,"b":2}},"conditions":["nonSeqFull","nonSeqPartial","seqNoFeedback","seqFeedback"],"classroomPairings":[["A","B"],["C","D"]],"coinWeights":[0.2,0.5,0.8],"subjectId":"A3I40B0FATY8VH","assignmentId":"3RYC5T2D74F2225U9D2NOPR550GRPQ","hitId":"3E9VAUV7BW02QFDK7N7IH7ZKACRYAN","url":"https://gershmanlab.com/experiments/alicia/teaching/experiment/?hitId=3E9VAUV7BW02QFDK7N7IH7ZKACRYAN&workerId=A3I40B0FATY8VH&assignmentId=3RYC5T2D74F2225U9D2NOPR550GRPQ&a=D5YR9&tp_a=D5YR9&b=3RYC5T2D74F2225U9D2NOPR550GRPQ&tp_b=3RYC5T2D74F2225U9D2NOPR550GRPQ&c=365799&tp_c=365799","firstResponseHeads":6,"firstResponseTails":4,"secondResponseHeads":4,"secondResponseTails":6,"totalHeads":10,"totalTails":10,"studentIndex":14,"studentTrueHypers":{"a":2,"b":8},"studentGuess":0.4,"delta":0.09999999999999998,"bonus":0,"bonusSoFar":0.46,"totalExamples":20},{"rt":3948,"response":{"heads":"10","tails":"0"},"type":"response","condition":"nonSeqFull","trueTheta":0.8,"classrooms":["C","D"],"studentTrueClassroom":"C","exampleSet":"first","trial_type":"survey-html-form","trial_index":129,"time_elapsed":838633,"internal_node_id":"0.0-128.0-0.0","params":{"nStudents":24,"maxFlips":30,"completionMinutes":45,"basePay":8,"maxBonus":9,"perTrialBonus":0.5,"perTrialBonusThreshold":0.05,"exampleCost":0.01},"classroomParams":{"A":{"a":1,"b":4},"B":{"a":4,"b":1},"C":{"a":2,"b":8},"D":{"a":8,"b":2}},"conditions":["nonSeqFull","nonSeqPartial","seqNoFeedback","seqFeedback"],"classroomPairings":[["A","B"],["C","D"]],"coinWeights":[0.2,0.5,0.8],"subjectId":"A3I40B0FATY8VH","assignmentId":"3RYC5T2D74F2225U9D2NOPR550GRPQ","hitId":"3E9VAUV7BW02QFDK7N7IH7ZKACRYAN","url":"https://gershmanlab.com/experiments/alicia/teaching/experiment/?hitId=3E9VAUV7BW02QFDK7N7IH7ZKACRYAN&workerId=A3I40B0FATY8VH&assignmentId=3RYC5T2D74F2225U9D2NOPR550GRPQ&a=D5YR9&tp_a=D5YR9&b=3RYC5T2D74F2225U9D2NOPR550GRPQ&tp_b=3RYC5T2D74F2225U9D2NOPR550GRPQ&c=365799&tp_c=365799","heads":10,"tails":0,"studentIndex":15,"studentTrueHypers":{"a":2,"b":8},"studentGuess":0.6,"delta":0.20000000000000007,"totalExamples":10,"bonus":0,"bonusSoFar":0.46},{"rt":8749,"response":{"heads":"11","tails":"0"},"type":"response","condition":"nonSeqFull","trueTheta":0.5,"classrooms":["C","D"],"studentTrueClassroom":"C","exampleSet":"first","trial_type":"survey-html-form","trial_index":135,"time_elapsed":860532,"internal_node_id":"0.0-134.0-0.0","params":{"nStudents":24,"maxFlips":30,"completionMinutes":45,"basePay":8,"maxBonus":9,"perTrialBonus":0.5,"perTrialBonusThreshold":0.05,"exampleCost":0.01},"classroomParams":{"A":{"a":1,"b":4},"B":{"a":4,"b":1},"C":{"a":2,"b":8},"D":{"a":8,"b":2}},"conditions":["nonSeqFull","nonSeqPartial","seqNoFeedback","seqFeedback"],"classroomPairings":[["A","B"],["C","D"]],"coinWeights":[0.2,0.5,0.8],"subjectId":"A3I40B0FATY8VH","assignmentId":"3RYC5T2D74F2225U9D2NOPR550GRPQ","hitId":"3E9VAUV7BW02QFDK7N7IH7ZKACRYAN","url":"https://gershmanlab.com/experiments/alicia/teaching/experiment/?hitId=3E9VAUV7BW02QFDK7N7IH7ZKACRYAN&workerId=A3I40B0FATY8VH&assignmentId=3RYC5T2D74F2225U9D2NOPR550GRPQ&a=D5YR9&tp_a=D5YR9&b=3RYC5T2D74F2225U9D2NOPR550GRPQ&tp_b=3RYC5T2D74F2225U9D2NOPR550GRPQ&c=365799&tp_c=365799","heads":11,"tails":0,"studentIndex":16,"studentTrueHypers":{"a":2,"b":8},"studentGuess":0.6190476190476191,"delta":0.11904761904761907,"totalExamples":11,"bonus":0,"bonusSoFar":0.46},{"rt":6593,"response":{"heads":"5","tails":"5"},"type":"response","condition":"nonSeqFull","trueTheta":0.5,"classrooms":["A","B"],"studentTrueClassroom":"A","exampleSet":"first","trial_type":"survey-html-form","trial_index":141,"time_elapsed":879271,"internal_node_id":"0.0-140.0-0.0","params":{"nStudents":24,"maxFlips":30,"completionMinutes":45,"basePay":8,"maxBonus":9,"perTrialBonus":0.5,"perTrialBonusThreshold":0.05,"exampleCost":0.01},"classroomParams":{"A":{"a":1,"b":4},"B":{"a":4,"b":1},"C":{"a":2,"b":8},"D":{"a":8,"b":2}},"conditions":["nonSeqFull","nonSeqPartial","seqNoFeedback","seqFeedback"],"classroomPairings":[["A","B"],["C","D"]],"coinWeights":[0.2,0.5,0.8],"subjectId":"A3I40B0FATY8VH","assignmentId":"3RYC5T2D74F2225U9D2NOPR550GRPQ","hitId":"3E9VAUV7BW02QFDK7N7IH7ZKACRYAN","url":"https://gershmanlab.com/experiments/alicia/teaching/experiment/?hitId=3E9VAUV7BW02QFDK7N7IH7ZKACRYAN&workerId=A3I40B0FATY8VH&assignmentId=3RYC5T2D74F2225U9D2NOPR550GRPQ&a=D5YR9&tp_a=D5YR9&b=3RYC5T2D74F2225U9D2NOPR550GRPQ&tp_b=3RYC5T2D74F2225U9D2NOPR550GRPQ&c=365799&tp_c=365799","heads":5,"tails":5,"studentIndex":17,"studentTrueHypers":{"a":1,"b":4},"studentGuess":0.4,"delta":0.09999999999999998,"totalExamples":10,"bonus":0,"bonusSoFar":0.46},{"rt":4455,"response":{"heads":"13","tails":"0"},"type":"response","condition":"nonSeqPartial","trueTheta":0.8,"classrooms":["C","D"],"studentTrueClassroom":"C","exampleSet":"first","trial_type":"survey-html-form","trial_index":147,"time_elapsed":899175,"internal_node_id":"0.0-146.0-0.0","params":{"nStudents":24,"maxFlips":30,"completionMinutes":45,"basePay":8,"maxBonus":9,"perTrialBonus":0.5,"perTrialBonusThreshold":0.05,"exampleCost":0.01},"classroomParams":{"A":{"a":1,"b":4},"B":{"a":4,"b":1},"C":{"a":2,"b":8},"D":{"a":8,"b":2}},"conditions":["nonSeqFull","nonSeqPartial","seqNoFeedback","seqFeedback"],"classroomPairings":[["A","B"],["C","D"]],"coinWeights":[0.2,0.5,0.8],"subjectId":"A3I40B0FATY8VH","assignmentId":"3RYC5T2D74F2225U9D2NOPR550GRPQ","hitId":"3E9VAUV7BW02QFDK7N7IH7ZKACRYAN","url":"https://gershmanlab.com/experiments/alicia/teaching/experiment/?hitId=3E9VAUV7BW02QFDK7N7IH7ZKACRYAN&workerId=A3I40B0FATY8VH&assignmentId=3RYC5T2D74F2225U9D2NOPR550GRPQ&a=D5YR9&tp_a=D5YR9&b=3RYC5T2D74F2225U9D2NOPR550GRPQ&tp_b=3RYC5T2D74F2225U9D2NOPR550GRPQ&c=365799&tp_c=365799","heads":13,"tails":0,"studentIndex":18,"studentTrueHypers":{"a":2,"b":8},"studentGuess":0.6521739130434783,"delta":0.14782608695652177,"totalExamples":13,"bonus":0,"bonusSoFar":0.46},{"rt":4049,"response":{"heads":"2","tails":"10"},"type":"response","condition":"nonSeqPartial","trueTheta":0.2,"classrooms":["A","B"],"studentTrueClassroom":"B","exampleSet":"first","trial_type":"survey-html-form","trial_index":153,"time_elapsed":916634,"internal_node_id":"0.0-152.0-0.0","params":{"nStudents":24,"maxFlips":30,"completionMinutes":45,"basePay":8,"maxBonus":9,"perTrialBonus":0.5,"perTrialBonusThreshold":0.05,"exampleCost":0.01},"classroomParams":{"A":{"a":1,"b":4},"B":{"a":4,"b":1},"C":{"a":2,"b":8},"D":{"a":8,"b":2}},"conditions":["nonSeqFull","nonSeqPartial","seqNoFeedback","seqFeedback"],"classroomPairings":[["A","B"],["C","D"]],"coinWeights":[0.2,0.5,0.8],"subjectId":"A3I40B0FATY8VH","assignmentId":"3RYC5T2D74F2225U9D2NOPR550GRPQ","hitId":"3E9VAUV7BW02QFDK7N7IH7ZKACRYAN","url":"https://gershmanlab.com/experiments/alicia/teaching/experiment/?hitId=3E9VAUV7BW02QFDK7N7IH7ZKACRYAN&workerId=A3I40B0FATY8VH&assignmentId=3RYC5T2D74F2225U9D2NOPR550GRPQ&a=D5YR9&tp_a=D5YR9&b=3RYC5T2D74F2225U9D2NOPR550GRPQ&tp_b=3RYC5T2D74F2225U9D2NOPR550GRPQ&c=365799&tp_c=365799","heads":2,"tails":10,"studentIndex":19,"studentTrueHypers":{"a":4,"b":1},"studentGuess":0.35294117647058826,"delta":0.15294117647058825,"totalExamples":12,"bonus":0,"bonusSoFar":0.46},{"rt":8060,"response":{"heads":"15","tails":"0"},"type":"response","condition":"seqNoFeedback","trueTheta":0.2,"classrooms":["A","B"],"studentTrueClassroom":"A","exampleSet":"first","trial_type":"survey-html-form","trial_index":159,"time_elapsed":938110,"internal_node_id":"0.0-158.0-0.0","params":{"nStudents":24,"maxFlips":30,"completionMinutes":45,"basePay":8,"maxBonus":9,"perTrialBonus":0.5,"perTrialBonusThreshold":0.05,"exampleCost":0.01},"classroomParams":{"A":{"a":1,"b":4},"B":{"a":4,"b":1},"C":{"a":2,"b":8},"D":{"a":8,"b":2}},"conditions":["nonSeqFull","nonSeqPartial","seqNoFeedback","seqFeedback"],"classroomPairings":[["A","B"],["C","D"]],"coinWeights":[0.2,0.5,0.8],"subjectId":"A3I40B0FATY8VH","assignmentId":"3RYC5T2D74F2225U9D2NOPR550GRPQ","hitId":"3E9VAUV7BW02QFDK7N7IH7ZKACRYAN","url":"https://gershmanlab.com/experiments/alicia/teaching/experiment/?hitId=3E9VAUV7BW02QFDK7N7IH7ZKACRYAN&workerId=A3I40B0FATY8VH&assignmentId=3RYC5T2D74F2225U9D2NOPR550GRPQ&a=D5YR9&tp_a=D5YR9&b=3RYC5T2D74F2225U9D2NOPR550GRPQ&tp_b=3RYC5T2D74F2225U9D2NOPR550GRPQ&c=365799&tp_c=365799","heads":15,"tails":0,"studentIndex":20,"studentTrueHypers":{"a":1,"b":4},"studentGuess":0.8,"delta":0.6000000000000001,"totalExamples":15,"bonusSoFar":0.46},{"rt":2663,"response":{"heads":"0","tails":"15"},"type":"response","condition":"seqNoFeedback","trueTheta":0.2,"classrooms":["A","B"],"studentTrueClassroom":"A","exampleSet":"second","trial_type":"survey-html-form","trial_index":162,"time_elapsed":948526,"internal_node_id":"0.0-161.0-0.0","params":{"nStudents":24,"maxFlips":30,"completionMinutes":45,"basePay":8,"maxBonus":9,"perTrialBonus":0.5,"perTrialBonusThreshold":0.05,"exampleCost":0.01},"classroomParams":{"A":{"a":1,"b":4},"B":{"a":4,"b":1},"C":{"a":2,"b":8},"D":{"a":8,"b":2}},"conditions":["nonSeqFull","nonSeqPartial","seqNoFeedback","seqFeedback"],"classroomPairings":[["A","B"],["C","D"]],"coinWeights":[0.2,0.5,0.8],"subjectId":"A3I40B0FATY8VH","assignmentId":"3RYC5T2D74F2225U9D2NOPR550GRPQ","hitId":"3E9VAUV7BW02QFDK7N7IH7ZKACRYAN","url":"https://gershmanlab.com/experiments/alicia/teaching/experiment/?hitId=3E9VAUV7BW02QFDK7N7IH7ZKACRYAN&workerId=A3I40B0FATY8VH&assignmentId=3RYC5T2D74F2225U9D2NOPR550GRPQ&a=D5YR9&tp_a=D5YR9&b=3RYC5T2D74F2225U9D2NOPR550GRPQ&tp_b=3RYC5T2D74F2225U9D2NOPR550GRPQ&c=365799&tp_c=365799","firstResponseHeads":15,"firstResponseTails":0,"secondResponseHeads":0,"secondResponseTails":15,"totalHeads":15,"totalTails":15,"studentIndex":20,"studentTrueHypers":{"a":1,"b":4},"studentGuess":0.45714285714285713,"delta":0.2571428571428571,"bonus":0,"bonusSoFar":0.46,"totalExamples":30},{"rt":4502,"response":{"heads":"14","tails":"0"},"type":"response","condition":"nonSeqPartial","trueTheta":0.8,"classrooms":["A","B"],"studentTrueClassroom":"A","exampleSet":"first","trial_type":"survey-html-form","trial_index":168,"time_elapsed":969386,"internal_node_id":"0.0-167.0-0.0","params":{"nStudents":24,"maxFlips":30,"completionMinutes":45,"basePay":8,"maxBonus":9,"perTrialBonus":0.5,"perTrialBonusThreshold":0.05,"exampleCost":0.01},"classroomParams":{"A":{"a":1,"b":4},"B":{"a":4,"b":1},"C":{"a":2,"b":8},"D":{"a":8,"b":2}},"conditions":["nonSeqFull","nonSeqPartial","seqNoFeedback","seqFeedback"],"classroomPairings":[["A","B"],["C","D"]],"coinWeights":[0.2,0.5,0.8],"subjectId":"A3I40B0FATY8VH","assignmentId":"3RYC5T2D74F2225U9D2NOPR550GRPQ","hitId":"3E9VAUV7BW02QFDK7N7IH7ZKACRYAN","url":"https://gershmanlab.com/experiments/alicia/teaching/experiment/?hitId=3E9VAUV7BW02QFDK7N7IH7ZKACRYAN&workerId=A3I40B0FATY8VH&assignmentId=3RYC5T2D74F2225U9D2NOPR550GRPQ&a=D5YR9&tp_a=D5YR9&b=3RYC5T2D74F2225U9D2NOPR550GRPQ&tp_b=3RYC5T2D74F2225U9D2NOPR550GRPQ&c=365799&tp_c=365799","heads":14,"tails":0,"studentIndex":21,"studentTrueHypers":{"a":1,"b":4},"studentGuess":0.7894736842105263,"delta":0.010526315789473717,"totalExamples":14,"bonus":0.36,"bonusSoFar":0.82},{"rt":2218,"response":{"heads":"14","tails":"0"},"type":"response","condition":"seqFeedback","trueTheta":0.8,"classrooms":["A","B"],"studentTrueClassroom":"B","exampleSet":"first","trial_type":"survey-html-form","trial_index":174,"time_elapsed":986354,"internal_node_id":"0.0-173.0-0.0","params":{"nStudents":24,"maxFlips":30,"completionMinutes":45,"basePay":8,"maxBonus":9,"perTrialBonus":0.5,"perTrialBonusThreshold":0.05,"exampleCost":0.01},"classroomParams":{"A":{"a":1,"b":4},"B":{"a":4,"b":1},"C":{"a":2,"b":8},"D":{"a":8,"b":2}},"conditions":["nonSeqFull","nonSeqPartial","seqNoFeedback","seqFeedback"],"classroomPairings":[["A","B"],["C","D"]],"coinWeights":[0.2,0.5,0.8],"subjectId":"A3I40B0FATY8VH","assignmentId":"3RYC5T2D74F2225U9D2NOPR550GRPQ","hitId":"3E9VAUV7BW02QFDK7N7IH7ZKACRYAN","url":"https://gershmanlab.com/experiments/alicia/teaching/experiment/?hitId=3E9VAUV7BW02QFDK7N7IH7ZKACRYAN&workerId=A3I40B0FATY8VH&assignmentId=3RYC5T2D74F2225U9D2NOPR550GRPQ&a=D5YR9&tp_a=D5YR9&b=3RYC5T2D74F2225U9D2NOPR550GRPQ&tp_b=3RYC5T2D74F2225U9D2NOPR550GRPQ&c=365799&tp_c=365799","heads":14,"tails":0,"studentIndex":22,"studentTrueHypers":{"a":4,"b":1},"studentGuess":0.9473684210526315,"delta":0.14736842105263148,"totalExamples":14,"bonusSoFar":0.82},{"rt":4910,"response":{"heads":"0","tails":"8"},"type":"response","condition":"seqFeedback","trueTheta":0.8,"classrooms":["A","B"],"studentTrueClassroom":"B","exampleSet":"second","trial_type":"survey-html-form","trial_index":178,"time_elapsed":1004579,"internal_node_id":"0.0-177.0-0.0","params":{"nStudents":24,"maxFlips":30,"completionMinutes":45,"basePay":8,"maxBonus":9,"perTrialBonus":0.5,"perTrialBonusThreshold":0.05,"exampleCost":0.01},"classroomParams":{"A":{"a":1,"b":4},"B":{"a":4,"b":1},"C":{"a":2,"b":8},"D":{"a":8,"b":2}},"conditions":["nonSeqFull","nonSeqPartial","seqNoFeedback","seqFeedback"],"classroomPairings":[["A","B"],["C","D"]],"coinWeights":[0.2,0.5,0.8],"subjectId":"A3I40B0FATY8VH","assignmentId":"3RYC5T2D74F2225U9D2NOPR550GRPQ","hitId":"3E9VAUV7BW02QFDK7N7IH7ZKACRYAN","url":"https://gershmanlab.com/experiments/alicia/teaching/experiment/?hitId=3E9VAUV7BW02QFDK7N7IH7ZKACRYAN&workerId=A3I40B0FATY8VH&assignmentId=3RYC5T2D74F2225U9D2NOPR550GRPQ&a=D5YR9&tp_a=D5YR9&b=3RYC5T2D74F2225U9D2NOPR550GRPQ&tp_b=3RYC5T2D74F2225U9D2NOPR550GRPQ&c=365799&tp_c=365799","firstResponseHeads":14,"firstResponseTails":0,"secondResponseHeads":0,"secondResponseTails":8,"totalHeads":14,"totalTails":8,"studentIndex":22,"studentTrueHypers":{"a":4,"b":1},"studentGuess":0.6666666666666666,"delta":0.13333333333333341,"bonus":0,"bonusSoFar":0.82,"totalExamples":22},{"rt":3973,"response":{"heads":"1","tails":"9"},"type":"response","condition":"seqNoFeedback","trueTheta":0.2,"classrooms":["C","D"],"studentTrueClassroom":"D","exampleSet":"first","trial_type":"survey-html-form","trial_index":184,"time_elapsed":1025781,"internal_node_id":"0.0-183.0-0.0","params":{"nStudents":24,"maxFlips":30,"completionMinutes":45,"basePay":8,"maxBonus":9,"perTrialBonus":0.5,"perTrialBonusThreshold":0.05,"exampleCost":0.01},"classroomParams":{"A":{"a":1,"b":4},"B":{"a":4,"b":1},"C":{"a":2,"b":8},"D":{"a":8,"b":2}},"conditions":["nonSeqFull","nonSeqPartial","seqNoFeedback","seqFeedback"],"classroomPairings":[["A","B"],["C","D"]],"coinWeights":[0.2,0.5,0.8],"subjectId":"A3I40B0FATY8VH","assignmentId":"3RYC5T2D74F2225U9D2NOPR550GRPQ","hitId":"3E9VAUV7BW02QFDK7N7IH7ZKACRYAN","url":"https://gershmanlab.com/experiments/alicia/teaching/experiment/?hitId=3E9VAUV7BW02QFDK7N7IH7ZKACRYAN&workerId=A3I40B0FATY8VH&assignmentId=3RYC5T2D74F2225U9D2NOPR550GRPQ&a=D5YR9&tp_a=D5YR9&b=3RYC5T2D74F2225U9D2NOPR550GRPQ&tp_b=3RYC5T2D74F2225U9D2NOPR550GRPQ&c=365799&tp_c=365799","heads":1,"tails":9,"studentIndex":23,"studentTrueHypers":{"a":8,"b":2},"studentGuess":0.45,"delta":0.25,"totalExamples":10,"bonusSoFar":0.82},{"rt":6230,"response":{"heads":"2","tails":"10"},"type":"response","condition":"seqNoFeedback","trueTheta":0.2,"classrooms":["C","D"],"studentTrueClassroom":"D","exampleSet":"second","trial_type":"survey-html-form","trial_index":187,"time_elapsed":1040017,"internal_node_id":"0.0-186.0-0.0","params":{"nStudents":24,"maxFlips":30,"completionMinutes":45,"basePay":8,"maxBonus":9,"perTrialBonus":0.5,"perTrialBonusThreshold":0.05,"exampleCost":0.01},"classroomParams":{"A":{"a":1,"b":4},"B":{"a":4,"b":1},"C":{"a":2,"b":8},"D":{"a":8,"b":2}},"conditions":["nonSeqFull","nonSeqPartial","seqNoFeedback","seqFeedback"],"classroomPairings":[["A","B"],["C","D"]],"coinWeights":[0.2,0.5,0.8],"subjectId":"A3I40B0FATY8VH","assignmentId":"3RYC5T2D74F2225U9D2NOPR550GRPQ","hitId":"3E9VAUV7BW02QFDK7N7IH7ZKACRYAN","url":"https://gershmanlab.com/experiments/alicia/teaching/experiment/?hitId=3E9VAUV7BW02QFDK7N7IH7ZKACRYAN&workerId=A3I40B0FATY8VH&assignmentId=3RYC5T2D74F2225U9D2NOPR550GRPQ&a=D5YR9&tp_a=D5YR9&b=3RYC5T2D74F2225U9D2NOPR550GRPQ&tp_b=3RYC5T2D74F2225U9D2NOPR550GRPQ&c=365799&tp_c=365799","firstResponseHeads":1,"firstResponseTails":9,"secondResponseHeads":2,"secondResponseTails":10,"totalHeads":3,"totalTails":19,"studentIndex":23,"studentTrueHypers":{"a":8,"b":2},"studentGuess":0.34375,"delta":0.14375,"bonus":0,"bonusSoFar":0.82,"totalExamples":22},{"rt":12695,"response":{"gender":"male","age":"29","understood":"yes","comments":""},"type":"response","trial_type":"survey-html-form","trial_index":191,"time_elapsed":1062161,"internal_node_id":"0.0-191.0","params":{"nStudents":24,"maxFlips":30,"completionMinutes":45,"basePay":8,"maxBonus":9,"perTrialBonus":0.5,"perTrialBonusThreshold":0.05,"exampleCost":0.01},"classroomParams":{"A":{"a":1,"b":4},"B":{"a":4,"b":1},"C":{"a":2,"b":8},"D":{"a":8,"b":2}},"conditions":["nonSeqFull","nonSeqPartial","seqNoFeedback","seqFeedback"],"classroomPairings":[["A","B"],["C","D"]],"coinWeights":[0.2,0.5,0.8],"subjectId":"A3I40B0FATY8VH","assignmentId":"3RYC5T2D74F2225U9D2NOPR550GRPQ","hitId":"3E9VAUV7BW02QFDK7N7IH7ZKACRYAN","url":"https://gershmanlab.com/experiments/alicia/teaching/experiment/?hitId=3E9VAUV7BW02QFDK7N7IH7ZKACRYAN&workerId=A3I40B0FATY8VH&assignmentId=3RYC5T2D74F2225U9D2NOPR550GRPQ&a=D5YR9&tp_a=D5YR9&b=3RYC5T2D74F2225U9D2NOPR550GRPQ&tp_b=3RYC5T2D74F2225U9D2NOPR550GRPQ&c=365799&tp_c=365799","totalBonus":0.82}]