[{"rt":30879,"response":{"heads":"8","tails":"2"},"type":"response","condition":"nonSeqPartial","trueTheta":0.8,"classrooms":["C","D"],"studentTrueClassroom":"C","exampleSet":"first","trial_type":"survey-html-form","trial_index":13,"time_elapsed":580882,"internal_node_id":"0.0-6.0-0.0","params":{"nStudents":24,"maxFlips":30,"completionMinutes":45,"basePay":8,"maxBonus":9,"perTrialBonus":0.5,"perTrialBonusThreshold":0.05,"exampleCost":0.01},"classroomParams":{"A":{"a":1,"b":4},"B":{"a":4,"b":1},"C":{"a":2,"b":8},"D":{"a":8,"b":2}},"conditions":["nonSeqFull","nonSeqPartial","seqNoFeedback","seqFeedback"],"classroomPairings":[["A","B"],["C","D"]],"coinWeights":[0.2,0.5,0.8],"subjectId":"A3JUITX7YOAIRQ","assignmentId":"3LPW2N6LKUOQPKFSTSOEVU98LZJU5B","hitId":"3AQN9REUTF20OMGWRXYK787QVFOYDP","url":"https://gershmanlab.com/experiments/alicia/teaching/experiment/?hitId=3AQN9REUTF20OMGWRXYK787QVFOYDP&workerId=A3JUITX7YOAIRQ&assignmentId=3LPW2N6LKUOQPKFSTSOEVU98LZJU5B&a=L2PL9&tp_a=L2PL9&b=3LPW2N6LKUOQPKFSTSOEVU98LZJU5B&tp_b=3LPW2N6LKUOQPKFSTSOEVU98LZJU5B&c=365799&tp_c=365799","heads":8,"tails":2,"studentIndex":0,"studentTrueHypers":{"a":2,"b":8},"studentGuess":0.5,"delta":0.30000000000000004,"totalExamples":10,"bonus":0,"bonusSoFar":0},{"rt":17037,"response":{"heads":"2","tails":"2"},"type":"response","condition":"nonSeqPartial","trueTheta":0.5,"classrooms":["A","B"],"studentTrueClassroom":"B","exampleSet":"first","trial_type":"survey-html-form","trial_index":19,"time_elapsed":613194,"internal_node_id":"0.0-12.0-0.0","params":{"nStudents":24,"maxFlips":30,"completionMinutes":45,"basePay":8,"maxBonus":9,"perTrialBonus":0.5,"perTrialBonusThreshold":0.05,"exampleCost":0.01},"classroomParams":{"A":{"a":1,"b":4},"B":{"a":4,"b":1},"C":{"a":2,"b":8},"D":{"a":8,"b":2}},"conditions":["nonSeqFull","nonSeqPartial","seqNoFeedback","seqFeedback"],"classroomPairings":[["A","B"],["C","D"]],"coinWeights":[0.2,0.5,0.8],"subjectId":"A3JUITX7YOAIRQ","assignmentId":"3LPW2N6LKUOQPKFSTSOEVU98LZJU5B","hitId":"3AQN9REUTF20OMGWRXYK787QVFOYDP","url":"https://gershmanlab.com/experiments/alicia/teaching/experiment/?hitId=3AQN9REUTF20OMGWRXYK787QVFOYDP&workerId=A3JUITX7YOAIRQ&assignmentId=3LPW2N6LKUOQPKFSTSOEVU98LZJU5B&a=L2PL9&tp_a=L2PL9&b=3LPW2N6LKUOQPKFSTSOEVU98LZJU5B&tp_b=3LPW2N6LKUOQPKFSTSOEVU98LZJU5B&c=365799&tp_c=365799","heads":2,"tails":2,"studentIndex":1,"studentTrueHypers":{"a":4,"b":1},"studentGuess":0.6666666666666666,"delta":0.16666666666666663,"totalExamples":4,"bonus":0,"bonusSoFar":0},{"rt":10300,"response":{"heads":"0","tails":"0"},"type":"response","condition":"nonSeqPartial","trueTheta":0.2,"classrooms":["C","D"],"studentTrueClassroom":"D","exampleSet":"first","trial_type":"survey-html-form","trial_index":25,"time_elapsed":636154,"internal_node_id":"0.0-18.0-0.0","params":{"nStudents":24,"maxFlips":30,"completionMinutes":45,"basePay":8,"maxBonus":9,"perTrialBonus":0.5,"perTrialBonusThreshold":0.05,"exampleCost":0.01},"classroomParams":{"A":{"a":1,"b":4},"B":{"a":4,"b":1},"C":{"a":2,"b":8},"D":{"a":8,"b":2}},"conditions":["nonSeqFull","nonSeqPartial","seqNoFeedback","seqFeedback"],"classroomPairings":[["A","B"],["C","D"]],"coinWeights":[0.2,0.5,0.8],"subjectId":"A3JUITX7YOAIRQ","assignmentId":"3LPW2N6LKUOQPKFSTSOEVU98LZJU5B","hitId":"3AQN9REUTF20OMGWRXYK787QVFOYDP","url":"https://gershmanlab.com/experiments/alicia/teaching/experiment/?hitId=3AQN9REUTF20OMGWRXYK787QVFOYDP&workerId=A3JUITX7YOAIRQ&assignmentId=3LPW2N6LKUOQPKFSTSOEVU98LZJU5B&a=L2PL9&tp_a=L2PL9&b=3LPW2N6LKUOQPKFSTSOEVU98LZJU5B&tp_b=3LPW2N6LKUOQPKFSTSOEVU98LZJU5B&c=365799&tp_c=365799","heads":0,"tails":0,"studentIndex":2,"studentTrueHypers":{"a":8,"b":2},"studentGuess":0.8,"delta":0.6000000000000001,"totalExamples":0,"bonus":0,"bonusSoFar":0},{"rt":1857,"response":{"heads":"0","tails":"0"},"type":"response","condition":"nonSeqPartial","trueTheta":0.2,"classrooms":["C","D"],"studentTrueClassroom":"D","exampleSet":"first","trial_type":"survey-html-form","trial_index":26,"time_elapsed":638014,"internal_node_id":"0.0-18.1-0.1","params":{"nStudents":24,"maxFlips":30,"completionMinutes":45,"basePay":8,"maxBonus":9,"perTrialBonus":0.5,"perTrialBonusThreshold":0.05,"exampleCost":0.01},"classroomParams":{"A":{"a":1,"b":4},"B":{"a":4,"b":1},"C":{"a":2,"b":8},"D":{"a":8,"b":2}},"conditions":["nonSeqFull","nonSeqPartial","seqNoFeedback","seqFeedback"],"classroomPairings":[["A","B"],["C","D"]],"coinWeights":[0.2,0.5,0.8],"subjectId":"A3JUITX7YOAIRQ","assignmentId":"3LPW2N6LKUOQPKFSTSOEVU98LZJU5B","hitId":"3AQN9REUTF20OMGWRXYK787QVFOYDP","url":"https://gershmanlab.com/experiments/alicia/teaching/experiment/?hitId=3AQN9REUTF20OMGWRXYK787QVFOYDP&workerId=A3JUITX7YOAIRQ&assignmentId=3LPW2N6LKUOQPKFSTSOEVU98LZJU5B&a=L2PL9&tp_a=L2PL9&b=3LPW2N6LKUOQPKFSTSOEVU98LZJU5B&tp_b=3LPW2N6LKUOQPKFSTSOEVU98LZJU5B&c=365799&tp_c=365799","heads":0,"tails":0,"studentIndex":2,"studentTrueHypers":{"a":8,"b":2},"studentGuess":0.8,"delta":0.6000000000000001,"totalExamples":0,"bonus":0,"bonusSoFar":0},{"rt":8821,"response":{"heads":"1","tails":"1"},"type":"response","condition":"nonSeqPartial","trueTheta":0.2,"classrooms":["C","D"],"studentTrueClassroom":"D","exampleSet":"first","trial_type":"survey-html-form","trial_index":27,"time_elapsed":646838,"internal_node_id":"0.0-18.2-0.2","params":{"nStudents":24,"maxFlips":30,"completionMinutes":45,"basePay":8,"maxBonus":9,"perTrialBonus":0.5,"perTrialBonusThreshold":0.05,"exampleCost":0.01},"classroomParams":{"A":{"a":1,"b":4},"B":{"a":4,"b":1},"C":{"a":2,"b":8},"D":{"a":8,"b":2}},"conditions":["nonSeqFull","nonSeqPartial","seqNoFeedback","seqFeedback"],"classroomPairings":[["A","B"],["C","D"]],"coinWeights":[0.2,0.5,0.8],"subjectId":"A3JUITX7YOAIRQ","assignmentId":"3LPW2N6LKUOQPKFSTSOEVU98LZJU5B","hitId":"3AQN9REUTF20OMGWRXYK787QVFOYDP","url":"https://gershmanlab.com/experiments/alicia/teaching/experiment/?hitId=3AQN9REUTF20OMGWRXYK787QVFOYDP&workerId=A3JUITX7YOAIRQ&assignmentId=3LPW2N6LKUOQPKFSTSOEVU98LZJU5B&a=L2PL9&tp_a=L2PL9&b=3LPW2N6LKUOQPKFSTSOEVU98LZJU5B&tp_b=3LPW2N6LKUOQPKFSTSOEVU98LZJU5B&c=365799&tp_c=365799","heads":1,"tails":1,"studentIndex":2,"studentTrueHypers":{"a":8,"b":2},"studentGuess":0.75,"delta":0.55,"totalExamples":2,"bonus":0,"bonusSoFar":0},{"rt":32889,"response":{"heads":"30","tails":"0"},"type":"response","condition":"nonSeqFull","trueTheta":0.8,"classrooms":["C","D"],"studentTrueClassroom":"C","exampleSet":"first","trial_type":"survey-html-form","trial_index":33,"time_elapsed":693050,"internal_node_id":"0.0-24.0-0.0","params":{"nStudents":24,"maxFlips":30,"completionMinutes":45,"basePay":8,"maxBonus":9,"perTrialBonus":0.5,"perTrialBonusThreshold":0.05,"exampleCost":0.01},"classroomParams":{"A":{"a":1,"b":4},"B":{"a":4,"b":1},"C":{"a":2,"b":8},"D":{"a":8,"b":2}},"conditions":["nonSeqFull","nonSeqPartial","seqNoFeedback","seqFeedback"],"classroomPairings":[["A","B"],["C","D"]],"coinWeights":[0.2,0.5,0.8],"subjectId":"A3JUITX7YOAIRQ","assignmentId":"3LPW2N6LKUOQPKFSTSOEVU98LZJU5B","hitId":"3AQN9REUTF20OMGWRXYK787QVFOYDP","url":"https://gershmanlab.com/experiments/alicia/teaching/experiment/?hitId=3AQN9REUTF20OMGWRXYK787QVFOYDP&workerId=A3JUITX7YOAIRQ&assignmentId=3LPW2N6LKUOQPKFSTSOEVU98LZJU5B&a=L2PL9&tp_a=L2PL9&b=3LPW2N6LKUOQPKFSTSOEVU98LZJU5B&tp_b=3LPW2N6LKUOQPKFSTSOEVU98LZJU5B&c=365799&tp_c=365799","heads":30,"tails":0,"studentIndex":3,"studentTrueHypers":{"a":2,"b":8},"studentGuess":0.8,"delta":0,"totalExamples":30,"bonus":0.2,"bonusSoFar":0.2},{"rt":16539,"response":{"heads":"1","tails":"0"},"type":"response","condition":"seqNoFeedback","trueTheta":0.8,"classrooms":["C","D"],"studentTrueClassroom":"C","exampleSet":"first","trial_type":"survey-html-form","trial_index":39,"time_elapsed":722086,"internal_node_id":"0.0-30.0-0.0","params":{"nStudents":24,"maxFlips":30,"completionMinutes":45,"basePay":8,"maxBonus":9,"perTrialBonus":0.5,"perTrialBonusThreshold":0.05,"exampleCost":0.01},"classroomParams":{"A":{"a":1,"b":4},"B":{"a":4,"b":1},"C":{"a":2,"b":8},"D":{"a":8,"b":2}},"conditions":["nonSeqFull","nonSeqPartial","seqNoFeedback","seqFeedback"],"classroomPairings":[["A","B"],["C","D"]],"coinWeights":[0.2,0.5,0.8],"subjectId":"A3JUITX7YOAIRQ","assignmentId":"3LPW2N6LKUOQPKFSTSOEVU98LZJU5B","hitId":"3AQN9REUTF20OMGWRXYK787QVFOYDP","url":"https://gershmanlab.com/experiments/alicia/teaching/experiment/?hitId=3AQN9REUTF20OMGWRXYK787QVFOYDP&workerId=A3JUITX7YOAIRQ&assignmentId=3LPW2N6LKUOQPKFSTSOEVU98LZJU5B&a=L2PL9&tp_a=L2PL9&b=3LPW2N6LKUOQPKFSTSOEVU98LZJU5B&tp_b=3LPW2N6LKUOQPKFSTSOEVU98LZJU5B&c=365799&tp_c=365799","heads":1,"tails":0,"studentIndex":4,"studentTrueHypers":{"a":2,"b":8},"studentGuess":0.2727272727272727,"delta":0.5272727272727273,"totalExamples":1,"bonusSoFar":0.2},{"rt":20999,"response":{"heads":"4","tails":"1"},"type":"response","condition":"seqNoFeedback","trueTheta":0.8,"classrooms":["C","D"],"studentTrueClassroom":"C","exampleSet":"second","trial_type":"survey-html-form","trial_index":42,"time_elapsed":748614,"internal_node_id":"0.0-33.0-0.0","params":{"nStudents":24,"maxFlips":30,"completionMinutes":45,"basePay":8,"maxBonus":9,"perTrialBonus":0.5,"perTrialBonusThreshold":0.05,"exampleCost":0.01},"classroomParams":{"A":{"a":1,"b":4},"B":{"a":4,"b":1},"C":{"a":2,"b":8},"D":{"a":8,"b":2}},"conditions":["nonSeqFull","nonSeqPartial","seqNoFeedback","seqFeedback"],"classroomPairings":[["A","B"],["C","D"]],"coinWeights":[0.2,0.5,0.8],"subjectId":"A3JUITX7YOAIRQ","assignmentId":"3LPW2N6LKUOQPKFSTSOEVU98LZJU5B","hitId":"3AQN9REUTF20OMGWRXYK787QVFOYDP","url":"https://gershmanlab.com/experiments/alicia/teaching/experiment/?hitId=3AQN9REUTF20OMGWRXYK787QVFOYDP&workerId=A3JUITX7YOAIRQ&assignmentId=3LPW2N6LKUOQPKFSTSOEVU98LZJU5B&a=L2PL9&tp_a=L2PL9&b=3LPW2N6LKUOQPKFSTSOEVU98LZJU5B&tp_b=3LPW2N6LKUOQPKFSTSOEVU98LZJU5B&c=365799&tp_c=365799","firstResponseHeads":1,"firstResponseTails":0,"secondResponseHeads":4,"secondResponseTails":1,"totalHeads":5,"totalTails":1,"studentIndex":4,"studentTrueHypers":{"a":2,"b":8},"studentGuess":0.4375,"delta":0.36250000000000004,"bonus":0,"bonusSoFar":0.2,"totalExamples":6},{"rt":5714,"response":{"heads":"0","tails":"0"},"type":"response","condition":"nonSeqPartial","trueTheta":0.8,"classrooms":["A","B"],"studentTrueClassroom":"B","exampleSet":"first","trial_type":"survey-html-form","trial_index":48,"time_elapsed":770604,"internal_node_id":"0.0-39.0-0.0","params":{"nStudents":24,"maxFlips":30,"completionMinutes":45,"basePay":8,"maxBonus":9,"perTrialBonus":0.5,"perTrialBonusThreshold":0.05,"exampleCost":0.01},"classroomParams":{"A":{"a":1,"b":4},"B":{"a":4,"b":1},"C":{"a":2,"b":8},"D":{"a":8,"b":2}},"conditions":["nonSeqFull","nonSeqPartial","seqNoFeedback","seqFeedback"],"classroomPairings":[["A","B"],["C","D"]],"coinWeights":[0.2,0.5,0.8],"subjectId":"A3JUITX7YOAIRQ","assignmentId":"3LPW2N6LKUOQPKFSTSOEVU98LZJU5B","hitId":"3AQN9REUTF20OMGWRXYK787QVFOYDP","url":"https://gershmanlab.com/experiments/alicia/teaching/experiment/?hitId=3AQN9REUTF20OMGWRXYK787QVFOYDP&workerId=A3JUITX7YOAIRQ&assignmentId=3LPW2N6LKUOQPKFSTSOEVU98LZJU5B&a=L2PL9&tp_a=L2PL9&b=3LPW2N6LKUOQPKFSTSOEVU98LZJU5B&tp_b=3LPW2N6LKUOQPKFSTSOEVU98LZJU5B&c=365799&tp_c=365799","heads":0,"tails":0,"studentIndex":5,"studentTrueHypers":{"a":4,"b":1},"studentGuess":0.8,"delta":0,"totalExamples":0,"bonus":0.5,"bonusSoFar":0.7},{"rt":12705,"response":{"heads":"4","tails":"1"},"type":"response","condition":"nonSeqPartial","trueTheta":0.8,"classrooms":["A","B"],"studentTrueClassroom":"B","exampleSet":"first","trial_type":"survey-html-form","trial_index":49,"time_elapsed":783310,"internal_node_id":"0.0-39.1-0.1","params":{"nStudents":24,"maxFlips":30,"completionMinutes":45,"basePay":8,"maxBonus":9,"perTrialBonus":0.5,"perTrialBonusThreshold":0.05,"exampleCost":0.01},"classroomParams":{"A":{"a":1,"b":4},"B":{"a":4,"b":1},"C":{"a":2,"b":8},"D":{"a":8,"b":2}},"conditions":["nonSeqFull","nonSeqPartial","seqNoFeedback","seqFeedback"],"classroomPairings":[["A","B"],["C","D"]],"coinWeights":[0.2,0.5,0.8],"subjectId":"A3JUITX7YOAIRQ","assignmentId":"3LPW2N6LKUOQPKFSTSOEVU98LZJU5B","hitId":"3AQN9REUTF20OMGWRXYK787QVFOYDP","url":"https://gershmanlab.com/experiments/alicia/teaching/experiment/?hitId=3AQN9REUTF20OMGWRXYK787QVFOYDP&workerId=A3JUITX7YOAIRQ&assignmentId=3LPW2N6LKUOQPKFSTSOEVU98LZJU5B&a=L2PL9&tp_a=L2PL9&b=3LPW2N6LKUOQPKFSTSOEVU98LZJU5B&tp_b=3LPW2N6LKUOQPKFSTSOEVU98LZJU5B&c=365799&tp_c=365799","heads":4,"tails":1,"studentIndex":5,"studentTrueHypers":{"a":4,"b":1},"studentGuess":0.8,"delta":0,"totalExamples":5,"bonus":0.45,"bonusSoFar":1.15},{"rt":18762,"response":{"heads":"0","tails":"4"},"type":"response","condition":"seqFeedback","trueTheta":0.2,"classrooms":["A","B"],"studentTrueClassroom":"B","exampleSet":"first","trial_type":"survey-html-form","trial_index":55,"time_elapsed":818401,"internal_node_id":"0.0-45.0-0.0","params":{"nStudents":24,"maxFlips":30,"completionMinutes":45,"basePay":8,"maxBonus":9,"perTrialBonus":0.5,"perTrialBonusThreshold":0.05,"exampleCost":0.01},"classroomParams":{"A":{"a":1,"b":4},"B":{"a":4,"b":1},"C":{"a":2,"b":8},"D":{"a":8,"b":2}},"conditions":["nonSeqFull","nonSeqPartial","seqNoFeedback","seqFeedback"],"classroomPairings":[["A","B"],["C","D"]],"coinWeights":[0.2,0.5,0.8],"subjectId":"A3JUITX7YOAIRQ","assignmentId":"3LPW2N6LKUOQPKFSTSOEVU98LZJU5B","hitId":"3AQN9REUTF20OMGWRXYK787QVFOYDP","url":"https://gershmanlab.com/experiments/alicia/teaching/experiment/?hitId=3AQN9REUTF20OMGWRXYK787QVFOYDP&workerId=A3JUITX7YOAIRQ&assignmentId=3LPW2N6LKUOQPKFSTSOEVU98LZJU5B&a=L2PL9&tp_a=L2PL9&b=3LPW2N6LKUOQPKFSTSOEVU98LZJU5B&tp_b=3LPW2N6LKUOQPKFSTSOEVU98LZJU5B&c=365799&tp_c=365799","heads":0,"tails":4,"studentIndex":6,"studentTrueHypers":{"a":4,"b":1},"studentGuess":0.4444444444444444,"delta":0.2444444444444444,"totalExamples":4,"bonusSoFar":1.15},{"rt":9934,"response":{"heads":"1","tails":"4"},"type":"response","condition":"seqFeedback","trueTheta":0.2,"classrooms":["A","B"],"studentTrueClassroom":"B","exampleSet":"second","trial_type":"survey-html-form","trial_index":59,"time_elapsed":838415,"internal_node_id":"0.0-49.0-0.0","params":{"nStudents":24,"maxFlips":30,"completionMinutes":45,"basePay":8,"maxBonus":9,"perTrialBonus":0.5,"perTrialBonusThreshold":0.05,"exampleCost":0.01},"classroomParams":{"A":{"a":1,"b":4},"B":{"a":4,"b":1},"C":{"a":2,"b":8},"D":{"a":8,"b":2}},"conditions":["nonSeqFull","nonSeqPartial","seqNoFeedback","seqFeedback"],"classroomPairings":[["A","B"],["C","D"]],"coinWeights":[0.2,0.5,0.8],"subjectId":"A3JUITX7YOAIRQ","assignmentId":"3LPW2N6LKUOQPKFSTSOEVU98LZJU5B","hitId":"3AQN9REUTF20OMGWRXYK787QVFOYDP","url":"https://gershmanlab.com/experiments/alicia/teaching/experiment/?hitId=3AQN9REUTF20OMGWRXYK787QVFOYDP&workerId=A3JUITX7YOAIRQ&assignmentId=3LPW2N6LKUOQPKFSTSOEVU98LZJU5B&a=L2PL9&tp_a=L2PL9&b=3LPW2N6LKUOQPKFSTSOEVU98LZJU5B&tp_b=3LPW2N6LKUOQPKFSTSOEVU98LZJU5B&c=365799&tp_c=365799","firstResponseHeads":0,"firstResponseTails":4,"secondResponseHeads":1,"secondResponseTails":4,"totalHeads":1,"totalTails":8,"studentIndex":6,"studentTrueHypers":{"a":4,"b":1},"studentGuess":0.35714285714285715,"delta":0.15714285714285714,"bonus":0,"bonusSoFar":1.15,"totalExamples":9},{"rt":10996,"response":{"heads":"6","tails":"0"},"type":"response","condition":"nonSeqPartial","trueTheta":0.5,"classrooms":["C","D"],"studentTrueClassroom":"D","exampleSet":"first","trial_type":"survey-html-form","trial_index":65,"time_elapsed":864434,"internal_node_id":"0.0-55.0-0.0","params":{"nStudents":24,"maxFlips":30,"completionMinutes":45,"basePay":8,"maxBonus":9,"perTrialBonus":0.5,"perTrialBonusThreshold":0.05,"exampleCost":0.01},"classroomParams":{"A":{"a":1,"b":4},"B":{"a":4,"b":1},"C":{"a":2,"b":8},"D":{"a":8,"b":2}},"conditions":["nonSeqFull","nonSeqPartial","seqNoFeedback","seqFeedback"],"classroomPairings":[["A","B"],["C","D"]],"coinWeights":[0.2,0.5,0.8],"subjectId":"A3JUITX7YOAIRQ","assignmentId":"3LPW2N6LKUOQPKFSTSOEVU98LZJU5B","hitId":"3AQN9REUTF20OMGWRXYK787QVFOYDP","url":"https://gershmanlab.com/experiments/alicia/teaching/experiment/?hitId=3AQN9REUTF20OMGWRXYK787QVFOYDP&workerId=A3JUITX7YOAIRQ&assignmentId=3LPW2N6LKUOQPKFSTSOEVU98LZJU5B&a=L2PL9&tp_a=L2PL9&b=3LPW2N6LKUOQPKFSTSOEVU98LZJU5B&tp_b=3LPW2N6LKUOQPKFSTSOEVU98LZJU5B&c=365799&tp_c=365799","heads":6,"tails":0,"studentIndex":7,"studentTrueHypers":{"a":8,"b":2},"studentGuess":0.875,"delta":0.375,"totalExamples":6,"bonus":0,"bonusSoFar":1.15},{"rt":12010,"response":{"heads":"0","tails":"6"},"type":"response","condition":"nonSeqFull","trueTheta":0.5,"classrooms":["C","D"],"studentTrueClassroom":"D","exampleSet":"first","trial_type":"survey-html-form","trial_index":71,"time_elapsed":890731,"internal_node_id":"0.0-61.0-0.0","params":{"nStudents":24,"maxFlips":30,"completionMinutes":45,"basePay":8,"maxBonus":9,"perTrialBonus":0.5,"perTrialBonusThreshold":0.05,"exampleCost":0.01},"classroomParams":{"A":{"a":1,"b":4},"B":{"a":4,"b":1},"C":{"a":2,"b":8},"D":{"a":8,"b":2}},"conditions":["nonSeqFull","nonSeqPartial","seqNoFeedback","seqFeedback"],"classroomPairings":[["A","B"],["C","D"]],"coinWeights":[0.2,0.5,0.8],"subjectId":"A3JUITX7YOAIRQ","assignmentId":"3LPW2N6LKUOQPKFSTSOEVU98LZJU5B","hitId":"3AQN9REUTF20OMGWRXYK787QVFOYDP","url":"https://gershmanlab.com/experiments/alicia/teaching/experiment/?hitId=3AQN9REUTF20OMGWRXYK787QVFOYDP&workerId=A3JUITX7YOAIRQ&assignmentId=3LPW2N6LKUOQPKFSTSOEVU98LZJU5B&a=L2PL9&tp_a=L2PL9&b=3LPW2N6LKUOQPKFSTSOEVU98LZJU5B&tp_b=3LPW2N6LKUOQPKFSTSOEVU98LZJU5B&c=365799&tp_c=365799","heads":0,"tails":6,"studentIndex":8,"studentTrueHypers":{"a":8,"b":2},"studentGuess":0.5,"delta":0,"totalExamples":6,"bonus":0.44,"bonusSoFar":1.59},{"rt":6026,"response":{"heads":"6","tails":"0"},"type":"response","condition":"seqFeedback","trueTheta":0.8,"classrooms":["C","D"],"studentTrueClassroom":"C","exampleSet":"first","trial_type":"survey-html-form","trial_index":77,"time_elapsed":909988,"internal_node_id":"0.0-67.0-0.0","params":{"nStudents":24,"maxFlips":30,"completionMinutes":45,"basePay":8,"maxBonus":9,"perTrialBonus":0.5,"perTrialBonusThreshold":0.05,"exampleCost":0.01},"classroomParams":{"A":{"a":1,"b":4},"B":{"a":4,"b":1},"C":{"a":2,"b":8},"D":{"a":8,"b":2}},"conditions":["nonSeqFull","nonSeqPartial","seqNoFeedback","seqFeedback"],"classroomPairings":[["A","B"],["C","D"]],"coinWeights":[0.2,0.5,0.8],"subjectId":"A3JUITX7YOAIRQ","assignmentId":"3LPW2N6LKUOQPKFSTSOEVU98LZJU5B","hitId":"3AQN9REUTF20OMGWRXYK787QVFOYDP","url":"https://gershmanlab.com/experiments/alicia/teaching/experiment/?hitId=3AQN9REUTF20OMGWRXYK787QVFOYDP&workerId=A3JUITX7YOAIRQ&assignmentId=3LPW2N6LKUOQPKFSTSOEVU98LZJU5B&a=L2PL9&tp_a=L2PL9&b=3LPW2N6LKUOQPKFSTSOEVU98LZJU5B&tp_b=3LPW2N6LKUOQPKFSTSOEVU98LZJU5B&c=365799&tp_c=365799","heads":6,"tails":0,"studentIndex":9,"studentTrueHypers":{"a":2,"b":8},"studentGuess":0.5,"delta":0.30000000000000004,"totalExamples":6,"bonusSoFar":1.59},{"rt":20374,"response":{"heads":"24","tails":"0"},"type":"response","condition":"seqFeedback","trueTheta":0.8,"classrooms":["C","D"],"studentTrueClassroom":"C","exampleSet":"second","trial_type":"survey-html-form","trial_index":81,"time_elapsed":939877,"internal_node_id":"0.0-71.0-0.0","params":{"nStudents":24,"maxFlips":30,"completionMinutes":45,"basePay":8,"maxBonus":9,"perTrialBonus":0.5,"perTrialBonusThreshold":0.05,"exampleCost":0.01},"classroomParams":{"A":{"a":1,"b":4},"B":{"a":4,"b":1},"C":{"a":2,"b":8},"D":{"a":8,"b":2}},"conditions":["nonSeqFull","nonSeqPartial","seqNoFeedback","seqFeedback"],"classroomPairings":[["A","B"],["C","D"]],"coinWeights":[0.2,0.5,0.8],"subjectId":"A3JUITX7YOAIRQ","assignmentId":"3LPW2N6LKUOQPKFSTSOEVU98LZJU5B","hitId":"3AQN9REUTF20OMGWRXYK787QVFOYDP","url":"https://gershmanlab.com/experiments/alicia/teaching/experiment/?hitId=3AQN9REUTF20OMGWRXYK787QVFOYDP&workerId=A3JUITX7YOAIRQ&assignmentId=3LPW2N6LKUOQPKFSTSOEVU98LZJU5B&a=L2PL9&tp_a=L2PL9&b=3LPW2N6LKUOQPKFSTSOEVU98LZJU5B&tp_b=3LPW2N6LKUOQPKFSTSOEVU98LZJU5B&c=365799&tp_c=365799","firstResponseHeads":6,"firstResponseTails":0,"secondResponseHeads":24,"secondResponseTails":0,"totalHeads":30,"totalTails":0,"studentIndex":9,"studentTrueHypers":{"a":2,"b":8},"studentGuess":0.8,"delta":0,"bonus":0.2,"bonusSoFar":1.79,"totalExamples":30},{"rt":15447,"response":{"heads":"1","tails":"4"},"type":"response","condition":"nonSeqPartial","trueTheta":0.2,"classrooms":["A","B"],"studentTrueClassroom":"A","exampleSet":"first","trial_type":"survey-html-form","trial_index":87,"time_elapsed":979936,"internal_node_id":"0.0-77.0-0.0","params":{"nStudents":24,"maxFlips":30,"completionMinutes":45,"basePay":8,"maxBonus":9,"perTrialBonus":0.5,"perTrialBonusThreshold":0.05,"exampleCost":0.01},"classroomParams":{"A":{"a":1,"b":4},"B":{"a":4,"b":1},"C":{"a":2,"b":8},"D":{"a":8,"b":2}},"conditions":["nonSeqFull","nonSeqPartial","seqNoFeedback","seqFeedback"],"classroomPairings":[["A","B"],["C","D"]],"coinWeights":[0.2,0.5,0.8],"subjectId":"A3JUITX7YOAIRQ","assignmentId":"3LPW2N6LKUOQPKFSTSOEVU98LZJU5B","hitId":"3AQN9REUTF20OMGWRXYK787QVFOYDP","url":"https://gershmanlab.com/experiments/alicia/teaching/experiment/?hitId=3AQN9REUTF20OMGWRXYK787QVFOYDP&workerId=A3JUITX7YOAIRQ&assignmentId=3LPW2N6LKUOQPKFSTSOEVU98LZJU5B&a=L2PL9&tp_a=L2PL9&b=3LPW2N6LKUOQPKFSTSOEVU98LZJU5B&tp_b=3LPW2N6LKUOQPKFSTSOEVU98LZJU5B&c=365799&tp_c=365799","heads":1,"tails":4,"studentIndex":10,"studentTrueHypers":{"a":1,"b":4},"studentGuess":0.2,"delta":0,"totalExamples":5,"bonus":0.45,"bonusSoFar":2.24},{"rt":11718,"response":{"heads":"1","tails":"4"},"type":"response","condition":"seqNoFeedback","trueTheta":0.2,"classrooms":["A","B"],"studentTrueClassroom":"B","exampleSet":"first","trial_type":"survey-html-form","trial_index":93,"time_elapsed":1006108,"internal_node_id":"0.0-83.0-0.0","params":{"nStudents":24,"maxFlips":30,"completionMinutes":45,"basePay":8,"maxBonus":9,"perTrialBonus":0.5,"perTrialBonusThreshold":0.05,"exampleCost":0.01},"classroomParams":{"A":{"a":1,"b":4},"B":{"a":4,"b":1},"C":{"a":2,"b":8},"D":{"a":8,"b":2}},"conditions":["nonSeqFull","nonSeqPartial","seqNoFeedback","seqFeedback"],"classroomPairings":[["A","B"],["C","D"]],"coinWeights":[0.2,0.5,0.8],"subjectId":"A3JUITX7YOAIRQ","assignmentId":"3LPW2N6LKUOQPKFSTSOEVU98LZJU5B","hitId":"3AQN9REUTF20OMGWRXYK787QVFOYDP","url":"https://gershmanlab.com/experiments/alicia/teaching/experiment/?hitId=3AQN9REUTF20OMGWRXYK787QVFOYDP&workerId=A3JUITX7YOAIRQ&assignmentId=3LPW2N6LKUOQPKFSTSOEVU98LZJU5B&a=L2PL9&tp_a=L2PL9&b=3LPW2N6LKUOQPKFSTSOEVU98LZJU5B&tp_b=3LPW2N6LKUOQPKFSTSOEVU98LZJU5B&c=365799&tp_c=365799","heads":1,"tails":4,"studentIndex":11,"studentTrueHypers":{"a":4,"b":1},"studentGuess":0.5,"delta":0.3,"totalExamples":5,"bonusSoFar":2.24},{"rt":12720,"response":{"heads":"1","tails":"4"},"type":"response","condition":"seqNoFeedback","trueTheta":0.2,"classrooms":["A","B"],"studentTrueClassroom":"B","exampleSet":"second","trial_type":"survey-html-form","trial_index":96,"time_elapsed":1024856,"internal_node_id":"0.0-86.0-0.0","params":{"nStudents":24,"maxFlips":30,"completionMinutes":45,"basePay":8,"maxBonus":9,"perTrialBonus":0.5,"perTrialBonusThreshold":0.05,"exampleCost":0.01},"classroomParams":{"A":{"a":1,"b":4},"B":{"a":4,"b":1},"C":{"a":2,"b":8},"D":{"a":8,"b":2}},"conditions":["nonSeqFull","nonSeqPartial","seqNoFeedback","seqFeedback"],"classroomPairings":[["A","B"],["C","D"]],"coinWeights":[0.2,0.5,0.8],"subjectId":"A3JUITX7YOAIRQ","assignmentId":"3LPW2N6LKUOQPKFSTSOEVU98LZJU5B","hitId":"3AQN9REUTF20OMGWRXYK787QVFOYDP","url":"https://gershmanlab.com/experiments/alicia/teaching/experiment/?hitId=3AQN9REUTF20OMGWRXYK787QVFOYDP&workerId=A3JUITX7YOAIRQ&assignmentId=3LPW2N6LKUOQPKFSTSOEVU98LZJU5B&a=L2PL9&tp_a=L2PL9&b=3LPW2N6LKUOQPKFSTSOEVU98LZJU5B&tp_b=3LPW2N6LKUOQPKFSTSOEVU98LZJU5B&c=365799&tp_c=365799","firstResponseHeads":1,"firstResponseTails":4,"secondResponseHeads":1,"secondResponseTails":4,"totalHeads":2,"totalTails":8,"studentIndex":11,"studentTrueHypers":{"a":4,"b":1},"studentGuess":0.4,"delta":0.2,"bonus":0,"bonusSoFar":2.24,"totalExamples":10},{"rt":23348,"response":{"heads":"4","tails":"1"},"type":"response","condition":"seqFeedback","trueTheta":0.5,"classrooms":["C","D"],"studentTrueClassroom":"D","exampleSet":"first","trial_type":"survey-html-form","trial_index":102,"time_elapsed":1060862,"internal_node_id":"0.0-92.0-0.0","params":{"nStudents":24,"maxFlips":30,"completionMinutes":45,"basePay":8,"maxBonus":9,"perTrialBonus":0.5,"perTrialBonusThreshold":0.05,"exampleCost":0.01},"classroomParams":{"A":{"a":1,"b":4},"B":{"a":4,"b":1},"C":{"a":2,"b":8},"D":{"a":8,"b":2}},"conditions":["nonSeqFull","nonSeqPartial","seqNoFeedback","seqFeedback"],"classroomPairings":[["A","B"],["C","D"]],"coinWeights":[0.2,0.5,0.8],"subjectId":"A3JUITX7YOAIRQ","assignmentId":"3LPW2N6LKUOQPKFSTSOEVU98LZJU5B","hitId":"3AQN9REUTF20OMGWRXYK787QVFOYDP","url":"https://gershmanlab.com/experiments/alicia/teaching/experiment/?hitId=3AQN9REUTF20OMGWRXYK787QVFOYDP&workerId=A3JUITX7YOAIRQ&assignmentId=3LPW2N6LKUOQPKFSTSOEVU98LZJU5B&a=L2PL9&tp_a=L2PL9&b=3LPW2N6LKUOQPKFSTSOEVU98LZJU5B&tp_b=3LPW2N6LKUOQPKFSTSOEVU98LZJU5B&c=365799&tp_c=365799","heads":4,"tails":1,"studentIndex":12,"studentTrueHypers":{"a":8,"b":2},"studentGuess":0.8,"delta":0.30000000000000004,"totalExamples":5,"bonusSoFar":2.24},{"rt":12782,"response":{"heads":"0","tails":"13"},"type":"response","condition":"seqFeedback","trueTheta":0.5,"classrooms":["C","D"],"studentTrueClassroom":"D","exampleSet":"second","trial_type":"survey-html-form","trial_index":106,"time_elapsed":1082542,"internal_node_id":"0.0-96.0-0.0","params":{"nStudents":24,"maxFlips":30,"completionMinutes":45,"basePay":8,"maxBonus":9,"perTrialBonus":0.5,"perTrialBonusThreshold":0.05,"exampleCost":0.01},"classroomParams":{"A":{"a":1,"b":4},"B":{"a":4,"b":1},"C":{"a":2,"b":8},"D":{"a":8,"b":2}},"conditions":["nonSeqFull","nonSeqPartial","seqNoFeedback","seqFeedback"],"classroomPairings":[["A","B"],["C","D"]],"coinWeights":[0.2,0.5,0.8],"subjectId":"A3JUITX7YOAIRQ","assignmentId":"3LPW2N6LKUOQPKFSTSOEVU98LZJU5B","hitId":"3AQN9REUTF20OMGWRXYK787QVFOYDP","url":"https://gershmanlab.com/experiments/alicia/teaching/experiment/?hitId=3AQN9REUTF20OMGWRXYK787QVFOYDP&workerId=A3JUITX7YOAIRQ&assignmentId=3LPW2N6LKUOQPKFSTSOEVU98LZJU5B&a=L2PL9&tp_a=L2PL9&b=3LPW2N6LKUOQPKFSTSOEVU98LZJU5B&tp_b=3LPW2N6LKUOQPKFSTSOEVU98LZJU5B&c=365799&tp_c=365799","firstResponseHeads":4,"firstResponseTails":1,"secondResponseHeads":0,"secondResponseTails":13,"totalHeads":4,"totalTails":14,"studentIndex":12,"studentTrueHypers":{"a":8,"b":2},"studentGuess":0.42857142857142855,"delta":0.07142857142857145,"bonus":0,"bonusSoFar":2.24,"totalExamples":18},{"rt":9154,"response":{"heads":"3","tails":"0"},"type":"response","condition":"seqNoFeedback","trueTheta":0.5,"classrooms":["A","B"],"studentTrueClassroom":"B","exampleSet":"first","trial_type":"survey-html-form","trial_index":112,"time_elapsed":1105618,"internal_node_id":"0.0-102.0-0.0","params":{"nStudents":24,"maxFlips":30,"completionMinutes":45,"basePay":8,"maxBonus":9,"perTrialBonus":0.5,"perTrialBonusThreshold":0.05,"exampleCost":0.01},"classroomParams":{"A":{"a":1,"b":4},"B":{"a":4,"b":1},"C":{"a":2,"b":8},"D":{"a":8,"b":2}},"conditions":["nonSeqFull","nonSeqPartial","seqNoFeedback","seqFeedback"],"classroomPairings":[["A","B"],["C","D"]],"coinWeights":[0.2,0.5,0.8],"subjectId":"A3JUITX7YOAIRQ","assignmentId":"3LPW2N6LKUOQPKFSTSOEVU98LZJU5B","hitId":"3AQN9REUTF20OMGWRXYK787QVFOYDP","url":"https://gershmanlab.com/experiments/alicia/teaching/experiment/?hitId=3AQN9REUTF20OMGWRXYK787QVFOYDP&workerId=A3JUITX7YOAIRQ&assignmentId=3LPW2N6LKUOQPKFSTSOEVU98LZJU5B&a=L2PL9&tp_a=L2PL9&b=3LPW2N6LKUOQPKFSTSOEVU98LZJU5B&tp_b=3LPW2N6LKUOQPKFSTSOEVU98LZJU5B&c=365799&tp_c=365799","heads":3,"tails":0,"studentIndex":13,"studentTrueHypers":{"a":4,"b":1},"studentGuess":0.875,"delta":0.375,"totalExamples":3,"bonusSoFar":2.24},{"rt":7939,"response":{"heads":"1","tails":"0"},"type":"response","condition":"seqNoFeedback","trueTheta":0.5,"classrooms":["A","B"],"studentTrueClassroom":"B","exampleSet":"second","trial_type":"survey-html-form","trial_index":115,"time_elapsed":1119825,"internal_node_id":"0.0-105.0-0.0","params":{"nStudents":24,"maxFlips":30,"completionMinutes":45,"basePay":8,"maxBonus":9,"perTrialBonus":0.5,"perTrialBonusThreshold":0.05,"exampleCost":0.01},"classroomParams":{"A":{"a":1,"b":4},"B":{"a":4,"b":1},"C":{"a":2,"b":8},"D":{"a":8,"b":2}},"conditions":["nonSeqFull","nonSeqPartial","seqNoFeedback","seqFeedback"],"classroomPairings":[["A","B"],["C","D"]],"coinWeights":[0.2,0.5,0.8],"subjectId":"A3JUITX7YOAIRQ","assignmentId":"3LPW2N6LKUOQPKFSTSOEVU98LZJU5B","hitId":"3AQN9REUTF20OMGWRXYK787QVFOYDP","url":"https://gershmanlab.com/experiments/alicia/teaching/experiment/?hitId=3AQN9REUTF20OMGWRXYK787QVFOYDP&workerId=A3JUITX7YOAIRQ&assignmentId=3LPW2N6LKUOQPKFSTSOEVU98LZJU5B&a=L2PL9&tp_a=L2PL9&b=3LPW2N6LKUOQPKFSTSOEVU98LZJU5B&tp_b=3LPW2N6LKUOQPKFSTSOEVU98LZJU5B&c=365799&tp_c=365799","firstResponseHeads":3,"firstResponseTails":0,"secondResponseHeads":1,"secondResponseTails":0,"totalHeads":4,"totalTails":0,"studentIndex":13,"studentTrueHypers":{"a":4,"b":1},"studentGuess":0.8888888888888888,"delta":0.38888888888888884,"bonus":0,"bonusSoFar":2.24,"totalExamples":4},{"rt":8185,"response":{"heads":"0","tails":"3"},"type":"response","condition":"nonSeqFull","trueTheta":0.5,"classrooms":["A","B"],"studentTrueClassroom":"B","exampleSet":"first","trial_type":"survey-html-form","trial_index":121,"time_elapsed":1141207,"internal_node_id":"0.0-111.0-0.0","params":{"nStudents":24,"maxFlips":30,"completionMinutes":45,"basePay":8,"maxBonus":9,"perTrialBonus":0.5,"perTrialBonusThreshold":0.05,"exampleCost":0.01},"classroomParams":{"A":{"a":1,"b":4},"B":{"a":4,"b":1},"C":{"a":2,"b":8},"D":{"a":8,"b":2}},"conditions":["nonSeqFull","nonSeqPartial","seqNoFeedback","seqFeedback"],"classroomPairings":[["A","B"],["C","D"]],"coinWeights":[0.2,0.5,0.8],"subjectId":"A3JUITX7YOAIRQ","assignmentId":"3LPW2N6LKUOQPKFSTSOEVU98LZJU5B","hitId":"3AQN9REUTF20OMGWRXYK787QVFOYDP","url":"https://gershmanlab.com/experiments/alicia/teaching/experiment/?hitId=3AQN9REUTF20OMGWRXYK787QVFOYDP&workerId=A3JUITX7YOAIRQ&assignmentId=3LPW2N6LKUOQPKFSTSOEVU98LZJU5B&a=L2PL9&tp_a=L2PL9&b=3LPW2N6LKUOQPKFSTSOEVU98LZJU5B&tp_b=3LPW2N6LKUOQPKFSTSOEVU98LZJU5B&c=365799&tp_c=365799","heads":0,"tails":3,"studentIndex":14,"studentTrueHypers":{"a":4,"b":1},"studentGuess":0.5,"delta":0,"totalExamples":3,"bonus":0.47,"bonusSoFar":2.71},{"rt":10330,"response":{"heads":"6","tails":"0"},"type":"response","condition":"seqFeedback","trueTheta":0.2,"classrooms":["C","D"],"studentTrueClassroom":"C","exampleSet":"first","trial_type":"survey-html-form","trial_index":127,"time_elapsed":1167036,"internal_node_id":"0.0-117.0-0.0","params":{"nStudents":24,"maxFlips":30,"completionMinutes":45,"basePay":8,"maxBonus":9,"perTrialBonus":0.5,"perTrialBonusThreshold":0.05,"exampleCost":0.01},"classroomParams":{"A":{"a":1,"b":4},"B":{"a":4,"b":1},"C":{"a":2,"b":8},"D":{"a":8,"b":2}},"conditions":["nonSeqFull","nonSeqPartial","seqNoFeedback","seqFeedback"],"classroomPairings":[["A","B"],["C","D"]],"coinWeights":[0.2,0.5,0.8],"subjectId":"A3JUITX7YOAIRQ","assignmentId":"3LPW2N6LKUOQPKFSTSOEVU98LZJU5B","hitId":"3AQN9REUTF20OMGWRXYK787QVFOYDP","url":"https://gershmanlab.com/experiments/alicia/teaching/experiment/?hitId=3AQN9REUTF20OMGWRXYK787QVFOYDP&workerId=A3JUITX7YOAIRQ&assignmentId=3LPW2N6LKUOQPKFSTSOEVU98LZJU5B&a=L2PL9&tp_a=L2PL9&b=3LPW2N6LKUOQPKFSTSOEVU98LZJU5B&tp_b=3LPW2N6LKUOQPKFSTSOEVU98LZJU5B&c=365799&tp_c=365799","heads":6,"tails":0,"studentIndex":15,"studentTrueHypers":{"a":2,"b":8},"studentGuess":0.5,"delta":0.3,"totalExamples":6,"bonusSoFar":2.71},{"rt":28663,"response":{"heads":"30","tails":"0"},"type":"response","condition":"seqFeedback","trueTheta":0.2,"classrooms":["C","D"],"studentTrueClassroom":"C","exampleSet":"second","trial_type":"survey-html-form","trial_index":131,"time_elapsed":1204437,"internal_node_id":"0.0-121.0-0.0","params":{"nStudents":24,"maxFlips":30,"completionMinutes":45,"basePay":8,"maxBonus":9,"perTrialBonus":0.5,"perTrialBonusThreshold":0.05,"exampleCost":0.01},"classroomParams":{"A":{"a":1,"b":4},"B":{"a":4,"b":1},"C":{"a":2,"b":8},"D":{"a":8,"b":2}},"conditions":["nonSeqFull","nonSeqPartial","seqNoFeedback","seqFeedback"],"classroomPairings":[["A","B"],["C","D"]],"coinWeights":[0.2,0.5,0.8],"subjectId":"A3JUITX7YOAIRQ","assignmentId":"3LPW2N6LKUOQPKFSTSOEVU98LZJU5B","hitId":"3AQN9REUTF20OMGWRXYK787QVFOYDP","url":"https://gershmanlab.com/experiments/alicia/teaching/experiment/?hitId=3AQN9REUTF20OMGWRXYK787QVFOYDP&workerId=A3JUITX7YOAIRQ&assignmentId=3LPW2N6LKUOQPKFSTSOEVU98LZJU5B&a=L2PL9&tp_a=L2PL9&b=3LPW2N6LKUOQPKFSTSOEVU98LZJU5B&tp_b=3LPW2N6LKUOQPKFSTSOEVU98LZJU5B&c=365799&tp_c=365799","firstResponseHeads":6,"firstResponseTails":0,"secondResponseHeads":30,"secondResponseTails":0,"totalHeads":36,"totalTails":0,"studentIndex":15,"studentTrueHypers":{"a":2,"b":8},"studentGuess":0.8260869565217391,"delta":0.6260869565217391,"bonus":0,"bonusSoFar":2.71,"totalExamples":36},{"rt":34567,"response":{"heads":"0","tails":"30"},"type":"response","condition":"nonSeqFull","trueTheta":0.2,"classrooms":["C","D"],"studentTrueClassroom":"D","exampleSet":"first","trial_type":"survey-html-form","trial_index":137,"time_elapsed":1251167,"internal_node_id":"0.0-127.0-0.0","params":{"nStudents":24,"maxFlips":30,"completionMinutes":45,"basePay":8,"maxBonus":9,"perTrialBonus":0.5,"perTrialBonusThreshold":0.05,"exampleCost":0.01},"classroomParams":{"A":{"a":1,"b":4},"B":{"a":4,"b":1},"C":{"a":2,"b":8},"D":{"a":8,"b":2}},"conditions":["nonSeqFull","nonSeqPartial","seqNoFeedback","seqFeedback"],"classroomPairings":[["A","B"],["C","D"]],"coinWeights":[0.2,0.5,0.8],"subjectId":"A3JUITX7YOAIRQ","assignmentId":"3LPW2N6LKUOQPKFSTSOEVU98LZJU5B","hitId":"3AQN9REUTF20OMGWRXYK787QVFOYDP","url":"https://gershmanlab.com/experiments/alicia/teaching/experiment/?hitId=3AQN9REUTF20OMGWRXYK787QVFOYDP&workerId=A3JUITX7YOAIRQ&assignmentId=3LPW2N6LKUOQPKFSTSOEVU98LZJU5B&a=L2PL9&tp_a=L2PL9&b=3LPW2N6LKUOQPKFSTSOEVU98LZJU5B&tp_b=3LPW2N6LKUOQPKFSTSOEVU98LZJU5B&c=365799&tp_c=365799","heads":0,"tails":30,"studentIndex":16,"studentTrueHypers":{"a":8,"b":2},"studentGuess":0.2,"delta":0,"totalExamples":30,"bonus":0.2,"bonusSoFar":2.91},{"rt":10344,"response":{"heads":"1","tails":"4"},"type":"response","condition":"nonSeqFull","trueTheta":0.2,"classrooms":["A","B"],"studentTrueClassroom":"A","exampleSet":"first","trial_type":"survey-html-form","trial_index":143,"time_elapsed":1275558,"internal_node_id":"0.0-133.0-0.0","params":{"nStudents":24,"maxFlips":30,"completionMinutes":45,"basePay":8,"maxBonus":9,"perTrialBonus":0.5,"perTrialBonusThreshold":0.05,"exampleCost":0.01},"classroomParams":{"A":{"a":1,"b":4},"B":{"a":4,"b":1},"C":{"a":2,"b":8},"D":{"a":8,"b":2}},"conditions":["nonSeqFull","nonSeqPartial","seqNoFeedback","seqFeedback"],"classroomPairings":[["A","B"],["C","D"]],"coinWeights":[0.2,0.5,0.8],"subjectId":"A3JUITX7YOAIRQ","assignmentId":"3LPW2N6LKUOQPKFSTSOEVU98LZJU5B","hitId":"3AQN9REUTF20OMGWRXYK787QVFOYDP","url":"https://gershmanlab.com/experiments/alicia/teaching/experiment/?hitId=3AQN9REUTF20OMGWRXYK787QVFOYDP&workerId=A3JUITX7YOAIRQ&assignmentId=3LPW2N6LKUOQPKFSTSOEVU98LZJU5B&a=L2PL9&tp_a=L2PL9&b=3LPW2N6LKUOQPKFSTSOEVU98LZJU5B&tp_b=3LPW2N6LKUOQPKFSTSOEVU98LZJU5B&c=365799&tp_c=365799","heads":1,"tails":4,"studentIndex":17,"studentTrueHypers":{"a":1,"b":4},"studentGuess":0.2,"delta":0,"totalExamples":5,"bonus":0.45,"bonusSoFar":3.36},{"rt":10496,"response":{"heads":"6","tails":"0"},"type":"response","condition":"seqNoFeedback","trueTheta":0.5,"classrooms":["C","D"],"studentTrueClassroom":"D","exampleSet":"first","trial_type":"survey-html-form","trial_index":149,"time_elapsed":1314870,"internal_node_id":"0.0-139.0-0.0","params":{"nStudents":24,"maxFlips":30,"completionMinutes":45,"basePay":8,"maxBonus":9,"perTrialBonus":0.5,"perTrialBonusThreshold":0.05,"exampleCost":0.01},"classroomParams":{"A":{"a":1,"b":4},"B":{"a":4,"b":1},"C":{"a":2,"b":8},"D":{"a":8,"b":2}},"conditions":["nonSeqFull","nonSeqPartial","seqNoFeedback","seqFeedback"],"classroomPairings":[["A","B"],["C","D"]],"coinWeights":[0.2,0.5,0.8],"subjectId":"A3JUITX7YOAIRQ","assignmentId":"3LPW2N6LKUOQPKFSTSOEVU98LZJU5B","hitId":"3AQN9REUTF20OMGWRXYK787QVFOYDP","url":"https://gershmanlab.com/experiments/alicia/teaching/experiment/?hitId=3AQN9REUTF20OMGWRXYK787QVFOYDP&workerId=A3JUITX7YOAIRQ&assignmentId=3LPW2N6LKUOQPKFSTSOEVU98LZJU5B&a=L2PL9&tp_a=L2PL9&b=3LPW2N6LKUOQPKFSTSOEVU98LZJU5B&tp_b=3LPW2N6LKUOQPKFSTSOEVU98LZJU5B&c=365799&tp_c=365799","heads":6,"tails":0,"studentIndex":18,"studentTrueHypers":{"a":8,"b":2},"studentGuess":0.875,"delta":0.375,"totalExamples":6,"bonusSoFar":3.36},{"rt":10490,"response":{"heads":"1","tails":"1"},"type":"response","condition":"seqNoFeedback","trueTheta":0.5,"classrooms":["C","D"],"studentTrueClassroom":"D","exampleSet":"second","trial_type":"survey-html-form","trial_index":152,"time_elapsed":1330630,"internal_node_id":"0.0-142.0-0.0","params":{"nStudents":24,"maxFlips":30,"completionMinutes":45,"basePay":8,"maxBonus":9,"perTrialBonus":0.5,"perTrialBonusThreshold":0.05,"exampleCost":0.01},"classroomParams":{"A":{"a":1,"b":4},"B":{"a":4,"b":1},"C":{"a":2,"b":8},"D":{"a":8,"b":2}},"conditions":["nonSeqFull","nonSeqPartial","seqNoFeedback","seqFeedback"],"classroomPairings":[["A","B"],["C","D"]],"coinWeights":[0.2,0.5,0.8],"subjectId":"A3JUITX7YOAIRQ","assignmentId":"3LPW2N6LKUOQPKFSTSOEVU98LZJU5B","hitId":"3AQN9REUTF20OMGWRXYK787QVFOYDP","url":"https://gershmanlab.com/experiments/alicia/teaching/experiment/?hitId=3AQN9REUTF20OMGWRXYK787QVFOYDP&workerId=A3JUITX7YOAIRQ&assignmentId=3LPW2N6LKUOQPKFSTSOEVU98LZJU5B&a=L2PL9&tp_a=L2PL9&b=3LPW2N6LKUOQPKFSTSOEVU98LZJU5B&tp_b=3LPW2N6LKUOQPKFSTSOEVU98LZJU5B&c=365799&tp_c=365799","firstResponseHeads":6,"firstResponseTails":0,"secondResponseHeads":1,"secondResponseTails":1,"totalHeads":7,"totalTails":1,"studentIndex":18,"studentTrueHypers":{"a":8,"b":2},"studentGuess":0.8333333333333334,"delta":0.33333333333333337,"bonus":0,"bonusSoFar":3.36,"totalExamples":8},{"rt":8070,"response":{"heads":"4","tails":"1"},"type":"response","condition":"seqFeedback","trueTheta":0.8,"classrooms":["A","B"],"studentTrueClassroom":"B","exampleSet":"first","trial_type":"survey-html-form","trial_index":158,"time_elapsed":1351671,"internal_node_id":"0.0-148.0-0.0","params":{"nStudents":24,"maxFlips":30,"completionMinutes":45,"basePay":8,"maxBonus":9,"perTrialBonus":0.5,"perTrialBonusThreshold":0.05,"exampleCost":0.01},"classroomParams":{"A":{"a":1,"b":4},"B":{"a":4,"b":1},"C":{"a":2,"b":8},"D":{"a":8,"b":2}},"conditions":["nonSeqFull","nonSeqPartial","seqNoFeedback","seqFeedback"],"classroomPairings":[["A","B"],["C","D"]],"coinWeights":[0.2,0.5,0.8],"subjectId":"A3JUITX7YOAIRQ","assignmentId":"3LPW2N6LKUOQPKFSTSOEVU98LZJU5B","hitId":"3AQN9REUTF20OMGWRXYK787QVFOYDP","url":"https://gershmanlab.com/experiments/alicia/teaching/experiment/?hitId=3AQN9REUTF20OMGWRXYK787QVFOYDP&workerId=A3JUITX7YOAIRQ&assignmentId=3LPW2N6LKUOQPKFSTSOEVU98LZJU5B&a=L2PL9&tp_a=L2PL9&b=3LPW2N6LKUOQPKFSTSOEVU98LZJU5B&tp_b=3LPW2N6LKUOQPKFSTSOEVU98LZJU5B&c=365799&tp_c=365799","heads":4,"tails":1,"studentIndex":19,"studentTrueHypers":{"a":4,"b":1},"studentGuess":0.8,"delta":0,"totalExamples":5,"bonusSoFar":3.36},{"rt":6811,"response":{"heads":"4","tails":"1"},"type":"response","condition":"seqFeedback","trueTheta":0.8,"classrooms":["A","B"],"studentTrueClassroom":"B","exampleSet":"second","trial_type":"survey-html-form","trial_index":162,"time_elapsed":1366823,"internal_node_id":"0.0-152.0-0.0","params":{"nStudents":24,"maxFlips":30,"completionMinutes":45,"basePay":8,"maxBonus":9,"perTrialBonus":0.5,"perTrialBonusThreshold":0.05,"exampleCost":0.01},"classroomParams":{"A":{"a":1,"b":4},"B":{"a":4,"b":1},"C":{"a":2,"b":8},"D":{"a":8,"b":2}},"conditions":["nonSeqFull","nonSeqPartial","seqNoFeedback","seqFeedback"],"classroomPairings":[["A","B"],["C","D"]],"coinWeights":[0.2,0.5,0.8],"subjectId":"A3JUITX7YOAIRQ","assignmentId":"3LPW2N6LKUOQPKFSTSOEVU98LZJU5B","hitId":"3AQN9REUTF20OMGWRXYK787QVFOYDP","url":"https://gershmanlab.com/experiments/alicia/teaching/experiment/?hitId=3AQN9REUTF20OMGWRXYK787QVFOYDP&workerId=A3JUITX7YOAIRQ&assignmentId=3LPW2N6LKUOQPKFSTSOEVU98LZJU5B&a=L2PL9&tp_a=L2PL9&b=3LPW2N6LKUOQPKFSTSOEVU98LZJU5B&tp_b=3LPW2N6LKUOQPKFSTSOEVU98LZJU5B&c=365799&tp_c=365799","firstResponseHeads":4,"firstResponseTails":1,"secondResponseHeads":4,"secondResponseTails":1,"totalHeads":8,"totalTails":2,"studentIndex":19,"studentTrueHypers":{"a":4,"b":1},"studentGuess":0.8,"delta":0,"bonus":0.4,"bonusSoFar":3.76,"totalExamples":10},{"rt":6714,"response":{"heads":"3","tails":"0"},"type":"response","condition":"seqFeedback","trueTheta":0.5,"classrooms":["A","B"],"studentTrueClassroom":"B","exampleSet":"first","trial_type":"survey-html-form","trial_index":168,"time_elapsed":1386781,"internal_node_id":"0.0-158.0-0.0","params":{"nStudents":24,"maxFlips":30,"completionMinutes":45,"basePay":8,"maxBonus":9,"perTrialBonus":0.5,"perTrialBonusThreshold":0.05,"exampleCost":0.01},"classroomParams":{"A":{"a":1,"b":4},"B":{"a":4,"b":1},"C":{"a":2,"b":8},"D":{"a":8,"b":2}},"conditions":["nonSeqFull","nonSeqPartial","seqNoFeedback","seqFeedback"],"classroomPairings":[["A","B"],["C","D"]],"coinWeights":[0.2,0.5,0.8],"subjectId":"A3JUITX7YOAIRQ","assignmentId":"3LPW2N6LKUOQPKFSTSOEVU98LZJU5B","hitId":"3AQN9REUTF20OMGWRXYK787QVFOYDP","url":"https://gershmanlab.com/experiments/alicia/teaching/experiment/?hitId=3AQN9REUTF20OMGWRXYK787QVFOYDP&workerId=A3JUITX7YOAIRQ&assignmentId=3LPW2N6LKUOQPKFSTSOEVU98LZJU5B&a=L2PL9&tp_a=L2PL9&b=3LPW2N6LKUOQPKFSTSOEVU98LZJU5B&tp_b=3LPW2N6LKUOQPKFSTSOEVU98LZJU5B&c=365799&tp_c=365799","heads":3,"tails":0,"studentIndex":20,"studentTrueHypers":{"a":4,"b":1},"studentGuess":0.875,"delta":0.375,"totalExamples":3,"bonusSoFar":3.76},{"rt":7958,"response":{"heads":"0","tails":"6"},"type":"response","condition":"seqFeedback","trueTheta":0.5,"classrooms":["A","B"],"studentTrueClassroom":"B","exampleSet":"second","trial_type":"survey-html-form","trial_index":172,"time_elapsed":1406125,"internal_node_id":"0.0-162.0-0.0","params":{"nStudents":24,"maxFlips":30,"completionMinutes":45,"basePay":8,"maxBonus":9,"perTrialBonus":0.5,"perTrialBonusThreshold":0.05,"exampleCost":0.01},"classroomParams":{"A":{"a":1,"b":4},"B":{"a":4,"b":1},"C":{"a":2,"b":8},"D":{"a":8,"b":2}},"conditions":["nonSeqFull","nonSeqPartial","seqNoFeedback","seqFeedback"],"classroomPairings":[["A","B"],["C","D"]],"coinWeights":[0.2,0.5,0.8],"subjectId":"A3JUITX7YOAIRQ","assignmentId":"3LPW2N6LKUOQPKFSTSOEVU98LZJU5B","hitId":"3AQN9REUTF20OMGWRXYK787QVFOYDP","url":"https://gershmanlab.com/experiments/alicia/teaching/experiment/?hitId=3AQN9REUTF20OMGWRXYK787QVFOYDP&workerId=A3JUITX7YOAIRQ&assignmentId=3LPW2N6LKUOQPKFSTSOEVU98LZJU5B&a=L2PL9&tp_a=L2PL9&b=3LPW2N6LKUOQPKFSTSOEVU98LZJU5B&tp_b=3LPW2N6LKUOQPKFSTSOEVU98LZJU5B&c=365799&tp_c=365799","firstResponseHeads":3,"firstResponseTails":0,"secondResponseHeads":0,"secondResponseTails":6,"totalHeads":3,"totalTails":6,"studentIndex":20,"studentTrueHypers":{"a":4,"b":1},"studentGuess":0.5,"delta":0,"bonus":0.41,"bonusSoFar":4.17,"totalExamples":9},{"rt":17181,"response":{"heads":"30","tails":"0"},"type":"response","condition":"nonSeqFull","trueTheta":0.8,"classrooms":["A","B"],"studentTrueClassroom":"A","exampleSet":"first","trial_type":"survey-html-form","trial_index":178,"time_elapsed":1434567,"internal_node_id":"0.0-168.0-0.0","params":{"nStudents":24,"maxFlips":30,"completionMinutes":45,"basePay":8,"maxBonus":9,"perTrialBonus":0.5,"perTrialBonusThreshold":0.05,"exampleCost":0.01},"classroomParams":{"A":{"a":1,"b":4},"B":{"a":4,"b":1},"C":{"a":2,"b":8},"D":{"a":8,"b":2}},"conditions":["nonSeqFull","nonSeqPartial","seqNoFeedback","seqFeedback"],"classroomPairings":[["A","B"],["C","D"]],"coinWeights":[0.2,0.5,0.8],"subjectId":"A3JUITX7YOAIRQ","assignmentId":"3LPW2N6LKUOQPKFSTSOEVU98LZJU5B","hitId":"3AQN9REUTF20OMGWRXYK787QVFOYDP","url":"https://gershmanlab.com/experiments/alicia/teaching/experiment/?hitId=3AQN9REUTF20OMGWRXYK787QVFOYDP&workerId=A3JUITX7YOAIRQ&assignmentId=3LPW2N6LKUOQPKFSTSOEVU98LZJU5B&a=L2PL9&tp_a=L2PL9&b=3LPW2N6LKUOQPKFSTSOEVU98LZJU5B&tp_b=3LPW2N6LKUOQPKFSTSOEVU98LZJU5B&c=365799&tp_c=365799","heads":30,"tails":0,"studentIndex":21,"studentTrueHypers":{"a":1,"b":4},"studentGuess":0.8857142857142857,"delta":0.08571428571428563,"totalExamples":30,"bonus":0,"bonusSoFar":4.17},{"rt":7794,"response":{"heads":"4","tails":"1"},"type":"response","condition":"seqNoFeedback","trueTheta":0.8,"classrooms":["A","B"],"studentTrueClassroom":"B","exampleSet":"first","trial_type":"survey-html-form","trial_index":184,"time_elapsed":1453055,"internal_node_id":"0.0-174.0-0.0","params":{"nStudents":24,"maxFlips":30,"completionMinutes":45,"basePay":8,"maxBonus":9,"perTrialBonus":0.5,"perTrialBonusThreshold":0.05,"exampleCost":0.01},"classroomParams":{"A":{"a":1,"b":4},"B":{"a":4,"b":1},"C":{"a":2,"b":8},"D":{"a":8,"b":2}},"conditions":["nonSeqFull","nonSeqPartial","seqNoFeedback","seqFeedback"],"classroomPairings":[["A","B"],["C","D"]],"coinWeights":[0.2,0.5,0.8],"subjectId":"A3JUITX7YOAIRQ","assignmentId":"3LPW2N6LKUOQPKFSTSOEVU98LZJU5B","hitId":"3AQN9REUTF20OMGWRXYK787QVFOYDP","url":"https://gershmanlab.com/experiments/alicia/teaching/experiment/?hitId=3AQN9REUTF20OMGWRXYK787QVFOYDP&workerId=A3JUITX7YOAIRQ&assignmentId=3LPW2N6LKUOQPKFSTSOEVU98LZJU5B&a=L2PL9&tp_a=L2PL9&b=3LPW2N6LKUOQPKFSTSOEVU98LZJU5B&tp_b=3LPW2N6LKUOQPKFSTSOEVU98LZJU5B&c=365799&tp_c=365799","heads":4,"tails":1,"studentIndex":22,"studentTrueHypers":{"a":4,"b":1},"studentGuess":0.8,"delta":0,"totalExamples":5,"bonusSoFar":4.17},{"rt":6003,"response":{"heads":"4","tails":"1"},"type":"response","condition":"seqNoFeedback","trueTheta":0.8,"classrooms":["A","B"],"studentTrueClassroom":"B","exampleSet":"second","trial_type":"survey-html-form","trial_index":187,"time_elapsed":1465335,"internal_node_id":"0.0-177.0-0.0","params":{"nStudents":24,"maxFlips":30,"completionMinutes":45,"basePay":8,"maxBonus":9,"perTrialBonus":0.5,"perTrialBonusThreshold":0.05,"exampleCost":0.01},"classroomParams":{"A":{"a":1,"b":4},"B":{"a":4,"b":1},"C":{"a":2,"b":8},"D":{"a":8,"b":2}},"conditions":["nonSeqFull","nonSeqPartial","seqNoFeedback","seqFeedback"],"classroomPairings":[["A","B"],["C","D"]],"coinWeights":[0.2,0.5,0.8],"subjectId":"A3JUITX7YOAIRQ","assignmentId":"3LPW2N6LKUOQPKFSTSOEVU98LZJU5B","hitId":"3AQN9REUTF20OMGWRXYK787QVFOYDP","url":"https://gershmanlab.com/experiments/alicia/teaching/experiment/?hitId=3AQN9REUTF20OMGWRXYK787QVFOYDP&workerId=A3JUITX7YOAIRQ&assignmentId=3LPW2N6LKUOQPKFSTSOEVU98LZJU5B&a=L2PL9&tp_a=L2PL9&b=3LPW2N6LKUOQPKFSTSOEVU98LZJU5B&tp_b=3LPW2N6LKUOQPKFSTSOEVU98LZJU5B&c=365799&tp_c=365799","firstResponseHeads":4,"firstResponseTails":1,"secondResponseHeads":4,"secondResponseTails":1,"totalHeads":8,"totalTails":2,"studentIndex":22,"studentTrueHypers":{"a":4,"b":1},"studentGuess":0.8,"delta":0,"bonus":0.4,"bonusSoFar":4.57,"totalExamples":10},{"rt":10764,"response":{"heads":"1","tails":"4"},"type":"response","condition":"seqNoFeedback","trueTheta":0.2,"classrooms":["C","D"],"studentTrueClassroom":"D","exampleSet":"first","trial_type":"survey-html-form","trial_index":193,"time_elapsed":1488213,"internal_node_id":"0.0-183.0-0.0","params":{"nStudents":24,"maxFlips":30,"completionMinutes":45,"basePay":8,"maxBonus":9,"perTrialBonus":0.5,"perTrialBonusThreshold":0.05,"exampleCost":0.01},"classroomParams":{"A":{"a":1,"b":4},"B":{"a":4,"b":1},"C":{"a":2,"b":8},"D":{"a":8,"b":2}},"conditions":["nonSeqFull","nonSeqPartial","seqNoFeedback","seqFeedback"],"classroomPairings":[["A","B"],["C","D"]],"coinWeights":[0.2,0.5,0.8],"subjectId":"A3JUITX7YOAIRQ","assignmentId":"3LPW2N6LKUOQPKFSTSOEVU98LZJU5B","hitId":"3AQN9REUTF20OMGWRXYK787QVFOYDP","url":"https://gershmanlab.com/experiments/alicia/teaching/experiment/?hitId=3AQN9REUTF20OMGWRXYK787QVFOYDP&workerId=A3JUITX7YOAIRQ&assignmentId=3LPW2N6LKUOQPKFSTSOEVU98LZJU5B&a=L2PL9&tp_a=L2PL9&b=3LPW2N6LKUOQPKFSTSOEVU98LZJU5B&tp_b=3LPW2N6LKUOQPKFSTSOEVU98LZJU5B&c=365799&tp_c=365799","heads":1,"tails":4,"studentIndex":23,"studentTrueHypers":{"a":8,"b":2},"studentGuess":0.6,"delta":0.39999999999999997,"totalExamples":5,"bonusSoFar":4.57},{"rt":7031,"response":{"heads":"1","tails":"4"},"type":"response","condition":"seqNoFeedback","trueTheta":0.2,"classrooms":["C","D"],"studentTrueClassroom":"D","exampleSet":"second","trial_type":"survey-html-form","trial_index":196,"time_elapsed":1501015,"internal_node_id":"0.0-186.0-0.0","params":{"nStudents":24,"maxFlips":30,"completionMinutes":45,"basePay":8,"maxBonus":9,"perTrialBonus":0.5,"perTrialBonusThreshold":0.05,"exampleCost":0.01},"classroomParams":{"A":{"a":1,"b":4},"B":{"a":4,"b":1},"C":{"a":2,"b":8},"D":{"a":8,"b":2}},"conditions":["nonSeqFull","nonSeqPartial","seqNoFeedback","seqFeedback"],"classroomPairings":[["A","B"],["C","D"]],"coinWeights":[0.2,0.5,0.8],"subjectId":"A3JUITX7YOAIRQ","assignmentId":"3LPW2N6LKUOQPKFSTSOEVU98LZJU5B","hitId":"3AQN9REUTF20OMGWRXYK787QVFOYDP","url":"https://gershmanlab.com/experiments/alicia/teaching/experiment/?hitId=3AQN9REUTF20OMGWRXYK787QVFOYDP&workerId=A3JUITX7YOAIRQ&assignmentId=3LPW2N6LKUOQPKFSTSOEVU98LZJU5B&a=L2PL9&tp_a=L2PL9&b=3LPW2N6LKUOQPKFSTSOEVU98LZJU5B&tp_b=3LPW2N6LKUOQPKFSTSOEVU98LZJU5B&c=365799&tp_c=365799","firstResponseHeads":1,"firstResponseTails":4,"secondResponseHeads":1,"secondResponseTails":4,"totalHeads":2,"totalTails":8,"studentIndex":23,"studentTrueHypers":{"a":8,"b":2},"studentGuess":0.5,"delta":0.3,"bonus":0,"bonusSoFar":4.57,"totalExamples":10},{"rt":9840,"response":{"gender":"male","age":"24","understood":"yes","comments":""},"type":"response","trial_type":"survey-html-form","trial_index":200,"time_elapsed":1518781,"internal_node_id":"0.0-191.0","params":{"nStudents":24,"maxFlips":30,"completionMinutes":45,"basePay":8,"maxBonus":9,"perTrialBonus":0.5,"perTrialBonusThreshold":0.05,"exampleCost":0.01},"classroomParams":{"A":{"a":1,"b":4},"B":{"a":4,"b":1},"C":{"a":2,"b":8},"D":{"a":8,"b":2}},"conditions":["nonSeqFull","nonSeqPartial","seqNoFeedback","seqFeedback"],"classroomPairings":[["A","B"],["C","D"]],"coinWeights":[0.2,0.5,0.8],"subjectId":"A3JUITX7YOAIRQ","assignmentId":"3LPW2N6LKUOQPKFSTSOEVU98LZJU5B","hitId":"3AQN9REUTF20OMGWRXYK787QVFOYDP","url":"https://gershmanlab.com/experiments/alicia/teaching/experiment/?hitId=3AQN9REUTF20OMGWRXYK787QVFOYDP&workerId=A3JUITX7YOAIRQ&assignmentId=3LPW2N6LKUOQPKFSTSOEVU98LZJU5B&a=L2PL9&tp_a=L2PL9&b=3LPW2N6LKUOQPKFSTSOEVU98LZJU5B&tp_b=3LPW2N6LKUOQPKFSTSOEVU98LZJU5B&c=365799&tp_c=365799","totalBonus":4.57}]