[{"rt":37074,"response":{"heads":"8","tails":"2"},"type":"response","condition":"nonSeqPartial","trueTheta":0.8,"classrooms":["C","D"],"studentTrueClassroom":"D","exampleSet":"first","trial_type":"survey-html-form","trial_index":19,"time_elapsed":910842,"internal_node_id":"0.0-6.0-0.0","params":{"nStudents":24,"maxFlips":30,"completionMinutes":45,"basePay":8,"maxBonus":9,"perTrialBonus":0.5,"perTrialBonusThreshold":0.05,"exampleCost":0.01},"classroomParams":{"A":{"a":1,"b":4},"B":{"a":4,"b":1},"C":{"a":2,"b":8},"D":{"a":8,"b":2}},"conditions":["nonSeqFull","nonSeqPartial","seqNoFeedback","seqFeedback"],"classroomPairings":[["A","B"],["C","D"]],"coinWeights":[0.2,0.5,0.8],"subjectId":"A3KACB3ERCT0DG","assignmentId":"3HL8HNGX46NK7PKE1T6WLAD7X8NF9O","hitId":"32TZXEA1OL6QYKM0MXQIQH2ABHN14I","url":"https://gershmanlab.com/experiments/alicia/teaching/experiment/?hitId=32TZXEA1OL6QYKM0MXQIQH2ABHN14I&workerId=A3KACB3ERCT0DG&assignmentId=3HL8HNGX46NK7PKE1T6WLAD7X8NF9O&a=XHLH9&tp_a=XHLH9&b=3HL8HNGX46NK7PKE1T6WLAD7X8NF9O&tp_b=3HL8HNGX46NK7PKE1T6WLAD7X8NF9O&c=365799&tp_c=365799","heads":8,"tails":2,"studentIndex":0,"studentTrueHypers":{"a":8,"b":2},"studentGuess":0.8,"delta":0,"totalExamples":10,"bonus":0.4,"bonusSoFar":0.4},{"rt":12604,"response":{"heads":"5","tails":"5"},"type":"response","condition":"nonSeqPartial","trueTheta":0.5,"classrooms":["A","B"],"studentTrueClassroom":"B","exampleSet":"first","trial_type":"survey-html-form","trial_index":25,"time_elapsed":939938,"internal_node_id":"0.0-12.0-0.0","params":{"nStudents":24,"maxFlips":30,"completionMinutes":45,"basePay":8,"maxBonus":9,"perTrialBonus":0.5,"perTrialBonusThreshold":0.05,"exampleCost":0.01},"classroomParams":{"A":{"a":1,"b":4},"B":{"a":4,"b":1},"C":{"a":2,"b":8},"D":{"a":8,"b":2}},"conditions":["nonSeqFull","nonSeqPartial","seqNoFeedback","seqFeedback"],"classroomPairings":[["A","B"],["C","D"]],"coinWeights":[0.2,0.5,0.8],"subjectId":"A3KACB3ERCT0DG","assignmentId":"3HL8HNGX46NK7PKE1T6WLAD7X8NF9O","hitId":"32TZXEA1OL6QYKM0MXQIQH2ABHN14I","url":"https://gershmanlab.com/experiments/alicia/teaching/experiment/?hitId=32TZXEA1OL6QYKM0MXQIQH2ABHN14I&workerId=A3KACB3ERCT0DG&assignmentId=3HL8HNGX46NK7PKE1T6WLAD7X8NF9O&a=XHLH9&tp_a=XHLH9&b=3HL8HNGX46NK7PKE1T6WLAD7X8NF9O&tp_b=3HL8HNGX46NK7PKE1T6WLAD7X8NF9O&c=365799&tp_c=365799","heads":5,"tails":5,"studentIndex":1,"studentTrueHypers":{"a":4,"b":1},"studentGuess":0.6,"delta":0.09999999999999998,"totalExamples":10,"bonus":0,"bonusSoFar":0.4},{"rt":14932,"response":{"heads":"8","tails":"2"},"type":"response","condition":"seqFeedback","trueTheta":0.2,"classrooms":["A","B"],"studentTrueClassroom":"B","exampleSet":"first","trial_type":"survey-html-form","trial_index":31,"time_elapsed":978622,"internal_node_id":"0.0-18.0-0.0","params":{"nStudents":24,"maxFlips":30,"completionMinutes":45,"basePay":8,"maxBonus":9,"perTrialBonus":0.5,"perTrialBonusThreshold":0.05,"exampleCost":0.01},"classroomParams":{"A":{"a":1,"b":4},"B":{"a":4,"b":1},"C":{"a":2,"b":8},"D":{"a":8,"b":2}},"conditions":["nonSeqFull","nonSeqPartial","seqNoFeedback","seqFeedback"],"classroomPairings":[["A","B"],["C","D"]],"coinWeights":[0.2,0.5,0.8],"subjectId":"A3KACB3ERCT0DG","assignmentId":"3HL8HNGX46NK7PKE1T6WLAD7X8NF9O","hitId":"32TZXEA1OL6QYKM0MXQIQH2ABHN14I","url":"https://gershmanlab.com/experiments/alicia/teaching/experiment/?hitId=32TZXEA1OL6QYKM0MXQIQH2ABHN14I&workerId=A3KACB3ERCT0DG&assignmentId=3HL8HNGX46NK7PKE1T6WLAD7X8NF9O&a=XHLH9&tp_a=XHLH9&b=3HL8HNGX46NK7PKE1T6WLAD7X8NF9O&tp_b=3HL8HNGX46NK7PKE1T6WLAD7X8NF9O&c=365799&tp_c=365799","heads":8,"tails":2,"studentIndex":2,"studentTrueHypers":{"a":4,"b":1},"studentGuess":0.8,"delta":0.6000000000000001,"totalExamples":10,"bonusSoFar":0.4},{"rt":39430,"response":{"heads":"8","tails":"2"},"type":"response","condition":"seqFeedback","trueTheta":0.2,"classrooms":["A","B"],"studentTrueClassroom":"B","exampleSet":"second","trial_type":"survey-html-form","trial_index":35,"time_elapsed":1037051,"internal_node_id":"0.0-22.0-0.0","params":{"nStudents":24,"maxFlips":30,"completionMinutes":45,"basePay":8,"maxBonus":9,"perTrialBonus":0.5,"perTrialBonusThreshold":0.05,"exampleCost":0.01},"classroomParams":{"A":{"a":1,"b":4},"B":{"a":4,"b":1},"C":{"a":2,"b":8},"D":{"a":8,"b":2}},"conditions":["nonSeqFull","nonSeqPartial","seqNoFeedback","seqFeedback"],"classroomPairings":[["A","B"],["C","D"]],"coinWeights":[0.2,0.5,0.8],"subjectId":"A3KACB3ERCT0DG","assignmentId":"3HL8HNGX46NK7PKE1T6WLAD7X8NF9O","hitId":"32TZXEA1OL6QYKM0MXQIQH2ABHN14I","url":"https://gershmanlab.com/experiments/alicia/teaching/experiment/?hitId=32TZXEA1OL6QYKM0MXQIQH2ABHN14I&workerId=A3KACB3ERCT0DG&assignmentId=3HL8HNGX46NK7PKE1T6WLAD7X8NF9O&a=XHLH9&tp_a=XHLH9&b=3HL8HNGX46NK7PKE1T6WLAD7X8NF9O&tp_b=3HL8HNGX46NK7PKE1T6WLAD7X8NF9O&c=365799&tp_c=365799","firstResponseHeads":8,"firstResponseTails":2,"secondResponseHeads":8,"secondResponseTails":2,"totalHeads":16,"totalTails":4,"studentIndex":2,"studentTrueHypers":{"a":4,"b":1},"studentGuess":0.8,"delta":0.6000000000000001,"bonus":0,"bonusSoFar":0.4,"totalExamples":20},{"rt":14607,"response":{"heads":"5","tails":"5"},"type":"response","condition":"nonSeqFull","trueTheta":0.5,"classrooms":["C","D"],"studentTrueClassroom":"D","exampleSet":"first","trial_type":"survey-html-form","trial_index":41,"time_elapsed":1079612,"internal_node_id":"0.0-28.0-0.0","params":{"nStudents":24,"maxFlips":30,"completionMinutes":45,"basePay":8,"maxBonus":9,"perTrialBonus":0.5,"perTrialBonusThreshold":0.05,"exampleCost":0.01},"classroomParams":{"A":{"a":1,"b":4},"B":{"a":4,"b":1},"C":{"a":2,"b":8},"D":{"a":8,"b":2}},"conditions":["nonSeqFull","nonSeqPartial","seqNoFeedback","seqFeedback"],"classroomPairings":[["A","B"],["C","D"]],"coinWeights":[0.2,0.5,0.8],"subjectId":"A3KACB3ERCT0DG","assignmentId":"3HL8HNGX46NK7PKE1T6WLAD7X8NF9O","hitId":"32TZXEA1OL6QYKM0MXQIQH2ABHN14I","url":"https://gershmanlab.com/experiments/alicia/teaching/experiment/?hitId=32TZXEA1OL6QYKM0MXQIQH2ABHN14I&workerId=A3KACB3ERCT0DG&assignmentId=3HL8HNGX46NK7PKE1T6WLAD7X8NF9O&a=XHLH9&tp_a=XHLH9&b=3HL8HNGX46NK7PKE1T6WLAD7X8NF9O&tp_b=3HL8HNGX46NK7PKE1T6WLAD7X8NF9O&c=365799&tp_c=365799","heads":5,"tails":5,"studentIndex":3,"studentTrueHypers":{"a":8,"b":2},"studentGuess":0.65,"delta":0.15000000000000002,"totalExamples":10,"bonus":0,"bonusSoFar":0.4},{"rt":31377,"response":{"heads":"1","tails":"4"},"type":"response","condition":"nonSeqFull","trueTheta":0.5,"classrooms":["A","B"],"studentTrueClassroom":"B","exampleSet":"first","trial_type":"survey-html-form","trial_index":47,"time_elapsed":1127258,"internal_node_id":"0.0-34.0-0.0","params":{"nStudents":24,"maxFlips":30,"completionMinutes":45,"basePay":8,"maxBonus":9,"perTrialBonus":0.5,"perTrialBonusThreshold":0.05,"exampleCost":0.01},"classroomParams":{"A":{"a":1,"b":4},"B":{"a":4,"b":1},"C":{"a":2,"b":8},"D":{"a":8,"b":2}},"conditions":["nonSeqFull","nonSeqPartial","seqNoFeedback","seqFeedback"],"classroomPairings":[["A","B"],["C","D"]],"coinWeights":[0.2,0.5,0.8],"subjectId":"A3KACB3ERCT0DG","assignmentId":"3HL8HNGX46NK7PKE1T6WLAD7X8NF9O","hitId":"32TZXEA1OL6QYKM0MXQIQH2ABHN14I","url":"https://gershmanlab.com/experiments/alicia/teaching/experiment/?hitId=32TZXEA1OL6QYKM0MXQIQH2ABHN14I&workerId=A3KACB3ERCT0DG&assignmentId=3HL8HNGX46NK7PKE1T6WLAD7X8NF9O&a=XHLH9&tp_a=XHLH9&b=3HL8HNGX46NK7PKE1T6WLAD7X8NF9O&tp_b=3HL8HNGX46NK7PKE1T6WLAD7X8NF9O&c=365799&tp_c=365799","heads":1,"tails":4,"studentIndex":4,"studentTrueHypers":{"a":4,"b":1},"studentGuess":0.5,"delta":0,"totalExamples":5,"bonus":0.45,"bonusSoFar":0.85},{"rt":24783,"response":{"heads":"8","tails":"2"},"type":"response","condition":"nonSeqPartial","trueTheta":0.2,"classrooms":["A","B"],"studentTrueClassroom":"A","exampleSet":"first","trial_type":"survey-html-form","trial_index":53,"time_elapsed":1168958,"internal_node_id":"0.0-40.0-0.0","params":{"nStudents":24,"maxFlips":30,"completionMinutes":45,"basePay":8,"maxBonus":9,"perTrialBonus":0.5,"perTrialBonusThreshold":0.05,"exampleCost":0.01},"classroomParams":{"A":{"a":1,"b":4},"B":{"a":4,"b":1},"C":{"a":2,"b":8},"D":{"a":8,"b":2}},"conditions":["nonSeqFull","nonSeqPartial","seqNoFeedback","seqFeedback"],"classroomPairings":[["A","B"],["C","D"]],"coinWeights":[0.2,0.5,0.8],"subjectId":"A3KACB3ERCT0DG","assignmentId":"3HL8HNGX46NK7PKE1T6WLAD7X8NF9O","hitId":"32TZXEA1OL6QYKM0MXQIQH2ABHN14I","url":"https://gershmanlab.com/experiments/alicia/teaching/experiment/?hitId=32TZXEA1OL6QYKM0MXQIQH2ABHN14I&workerId=A3KACB3ERCT0DG&assignmentId=3HL8HNGX46NK7PKE1T6WLAD7X8NF9O&a=XHLH9&tp_a=XHLH9&b=3HL8HNGX46NK7PKE1T6WLAD7X8NF9O&tp_b=3HL8HNGX46NK7PKE1T6WLAD7X8NF9O&c=365799&tp_c=365799","heads":8,"tails":2,"studentIndex":5,"studentTrueHypers":{"a":1,"b":4},"studentGuess":0.6,"delta":0.39999999999999997,"totalExamples":10,"bonus":0,"bonusSoFar":0.85},{"rt":14561,"response":{"heads":"2","tails":"8"},"type":"response","condition":"seqNoFeedback","trueTheta":0.2,"classrooms":["A","B"],"studentTrueClassroom":"A","exampleSet":"first","trial_type":"survey-html-form","trial_index":59,"time_elapsed":1204833,"internal_node_id":"0.0-46.0-0.0","params":{"nStudents":24,"maxFlips":30,"completionMinutes":45,"basePay":8,"maxBonus":9,"perTrialBonus":0.5,"perTrialBonusThreshold":0.05,"exampleCost":0.01},"classroomParams":{"A":{"a":1,"b":4},"B":{"a":4,"b":1},"C":{"a":2,"b":8},"D":{"a":8,"b":2}},"conditions":["nonSeqFull","nonSeqPartial","seqNoFeedback","seqFeedback"],"classroomPairings":[["A","B"],["C","D"]],"coinWeights":[0.2,0.5,0.8],"subjectId":"A3KACB3ERCT0DG","assignmentId":"3HL8HNGX46NK7PKE1T6WLAD7X8NF9O","hitId":"32TZXEA1OL6QYKM0MXQIQH2ABHN14I","url":"https://gershmanlab.com/experiments/alicia/teaching/experiment/?hitId=32TZXEA1OL6QYKM0MXQIQH2ABHN14I&workerId=A3KACB3ERCT0DG&assignmentId=3HL8HNGX46NK7PKE1T6WLAD7X8NF9O&a=XHLH9&tp_a=XHLH9&b=3HL8HNGX46NK7PKE1T6WLAD7X8NF9O&tp_b=3HL8HNGX46NK7PKE1T6WLAD7X8NF9O&c=365799&tp_c=365799","heads":2,"tails":8,"studentIndex":6,"studentTrueHypers":{"a":1,"b":4},"studentGuess":0.2,"delta":0,"totalExamples":10,"bonusSoFar":0.85},{"rt":49457,"response":{"heads":"1","tails":"5"},"type":"response","condition":"seqNoFeedback","trueTheta":0.2,"classrooms":["A","B"],"studentTrueClassroom":"A","exampleSet":"second","trial_type":"survey-html-form","trial_index":62,"time_elapsed":1261062,"internal_node_id":"0.0-49.0-0.0","params":{"nStudents":24,"maxFlips":30,"completionMinutes":45,"basePay":8,"maxBonus":9,"perTrialBonus":0.5,"perTrialBonusThreshold":0.05,"exampleCost":0.01},"classroomParams":{"A":{"a":1,"b":4},"B":{"a":4,"b":1},"C":{"a":2,"b":8},"D":{"a":8,"b":2}},"conditions":["nonSeqFull","nonSeqPartial","seqNoFeedback","seqFeedback"],"classroomPairings":[["A","B"],["C","D"]],"coinWeights":[0.2,0.5,0.8],"subjectId":"A3KACB3ERCT0DG","assignmentId":"3HL8HNGX46NK7PKE1T6WLAD7X8NF9O","hitId":"32TZXEA1OL6QYKM0MXQIQH2ABHN14I","url":"https://gershmanlab.com/experiments/alicia/teaching/experiment/?hitId=32TZXEA1OL6QYKM0MXQIQH2ABHN14I&workerId=A3KACB3ERCT0DG&assignmentId=3HL8HNGX46NK7PKE1T6WLAD7X8NF9O&a=XHLH9&tp_a=XHLH9&b=3HL8HNGX46NK7PKE1T6WLAD7X8NF9O&tp_b=3HL8HNGX46NK7PKE1T6WLAD7X8NF9O&c=365799&tp_c=365799","firstResponseHeads":2,"firstResponseTails":8,"secondResponseHeads":1,"secondResponseTails":5,"totalHeads":3,"totalTails":13,"studentIndex":6,"studentTrueHypers":{"a":1,"b":4},"studentGuess":0.19047619047619047,"delta":0.009523809523809545,"bonus":0.34,"bonusSoFar":1.19,"totalExamples":16},{"rt":24048,"response":{"heads":"4","tails":"1"},"type":"response","condition":"seqFeedback","trueTheta":0.8,"classrooms":["C","D"],"studentTrueClassroom":"C","exampleSet":"first","trial_type":"survey-html-form","trial_index":68,"time_elapsed":1310157,"internal_node_id":"0.0-55.0-0.0","params":{"nStudents":24,"maxFlips":30,"completionMinutes":45,"basePay":8,"maxBonus":9,"perTrialBonus":0.5,"perTrialBonusThreshold":0.05,"exampleCost":0.01},"classroomParams":{"A":{"a":1,"b":4},"B":{"a":4,"b":1},"C":{"a":2,"b":8},"D":{"a":8,"b":2}},"conditions":["nonSeqFull","nonSeqPartial","seqNoFeedback","seqFeedback"],"classroomPairings":[["A","B"],["C","D"]],"coinWeights":[0.2,0.5,0.8],"subjectId":"A3KACB3ERCT0DG","assignmentId":"3HL8HNGX46NK7PKE1T6WLAD7X8NF9O","hitId":"32TZXEA1OL6QYKM0MXQIQH2ABHN14I","url":"https://gershmanlab.com/experiments/alicia/teaching/experiment/?hitId=32TZXEA1OL6QYKM0MXQIQH2ABHN14I&workerId=A3KACB3ERCT0DG&assignmentId=3HL8HNGX46NK7PKE1T6WLAD7X8NF9O&a=XHLH9&tp_a=XHLH9&b=3HL8HNGX46NK7PKE1T6WLAD7X8NF9O&tp_b=3HL8HNGX46NK7PKE1T6WLAD7X8NF9O&c=365799&tp_c=365799","heads":4,"tails":1,"studentIndex":7,"studentTrueHypers":{"a":2,"b":8},"studentGuess":0.4,"delta":0.4,"totalExamples":5,"bonusSoFar":1.19},{"rt":18645,"response":{"heads":"8","tails":"2"},"type":"response","condition":"seqFeedback","trueTheta":0.8,"classrooms":["C","D"],"studentTrueClassroom":"C","exampleSet":"second","trial_type":"survey-html-form","trial_index":72,"time_elapsed":1344778,"internal_node_id":"0.0-59.0-0.0","params":{"nStudents":24,"maxFlips":30,"completionMinutes":45,"basePay":8,"maxBonus":9,"perTrialBonus":0.5,"perTrialBonusThreshold":0.05,"exampleCost":0.01},"classroomParams":{"A":{"a":1,"b":4},"B":{"a":4,"b":1},"C":{"a":2,"b":8},"D":{"a":8,"b":2}},"conditions":["nonSeqFull","nonSeqPartial","seqNoFeedback","seqFeedback"],"classroomPairings":[["A","B"],["C","D"]],"coinWeights":[0.2,0.5,0.8],"subjectId":"A3KACB3ERCT0DG","assignmentId":"3HL8HNGX46NK7PKE1T6WLAD7X8NF9O","hitId":"32TZXEA1OL6QYKM0MXQIQH2ABHN14I","url":"https://gershmanlab.com/experiments/alicia/teaching/experiment/?hitId=32TZXEA1OL6QYKM0MXQIQH2ABHN14I&workerId=A3KACB3ERCT0DG&assignmentId=3HL8HNGX46NK7PKE1T6WLAD7X8NF9O&a=XHLH9&tp_a=XHLH9&b=3HL8HNGX46NK7PKE1T6WLAD7X8NF9O&tp_b=3HL8HNGX46NK7PKE1T6WLAD7X8NF9O&c=365799&tp_c=365799","firstResponseHeads":4,"firstResponseTails":1,"secondResponseHeads":8,"secondResponseTails":2,"totalHeads":12,"totalTails":3,"studentIndex":7,"studentTrueHypers":{"a":2,"b":8},"studentGuess":0.56,"delta":0.24,"bonus":0,"bonusSoFar":1.19,"totalExamples":15},{"rt":93646,"response":{"heads":"10","tails":"2"},"type":"response","condition":"nonSeqFull","trueTheta":0.8,"classrooms":["C","D"],"studentTrueClassroom":"C","exampleSet":"first","trial_type":"survey-html-form","trial_index":78,"time_elapsed":1456715,"internal_node_id":"0.0-65.0-0.0","params":{"nStudents":24,"maxFlips":30,"completionMinutes":45,"basePay":8,"maxBonus":9,"perTrialBonus":0.5,"perTrialBonusThreshold":0.05,"exampleCost":0.01},"classroomParams":{"A":{"a":1,"b":4},"B":{"a":4,"b":1},"C":{"a":2,"b":8},"D":{"a":8,"b":2}},"conditions":["nonSeqFull","nonSeqPartial","seqNoFeedback","seqFeedback"],"classroomPairings":[["A","B"],["C","D"]],"coinWeights":[0.2,0.5,0.8],"subjectId":"A3KACB3ERCT0DG","assignmentId":"3HL8HNGX46NK7PKE1T6WLAD7X8NF9O","hitId":"32TZXEA1OL6QYKM0MXQIQH2ABHN14I","url":"https://gershmanlab.com/experiments/alicia/teaching/experiment/?hitId=32TZXEA1OL6QYKM0MXQIQH2ABHN14I&workerId=A3KACB3ERCT0DG&assignmentId=3HL8HNGX46NK7PKE1T6WLAD7X8NF9O&a=XHLH9&tp_a=XHLH9&b=3HL8HNGX46NK7PKE1T6WLAD7X8NF9O&tp_b=3HL8HNGX46NK7PKE1T6WLAD7X8NF9O&c=365799&tp_c=365799","heads":10,"tails":2,"studentIndex":8,"studentTrueHypers":{"a":2,"b":8},"studentGuess":0.5454545454545454,"delta":0.25454545454545463,"totalExamples":12,"bonus":0,"bonusSoFar":1.19},{"rt":39388,"response":{"heads":"20","tails":"0"},"type":"response","condition":"nonSeqPartial","trueTheta":0.5,"classrooms":["C","D"],"studentTrueClassroom":"D","exampleSet":"first","trial_type":"survey-html-form","trial_index":84,"time_elapsed":1524697,"internal_node_id":"0.0-71.0-0.0","params":{"nStudents":24,"maxFlips":30,"completionMinutes":45,"basePay":8,"maxBonus":9,"perTrialBonus":0.5,"perTrialBonusThreshold":0.05,"exampleCost":0.01},"classroomParams":{"A":{"a":1,"b":4},"B":{"a":4,"b":1},"C":{"a":2,"b":8},"D":{"a":8,"b":2}},"conditions":["nonSeqFull","nonSeqPartial","seqNoFeedback","seqFeedback"],"classroomPairings":[["A","B"],["C","D"]],"coinWeights":[0.2,0.5,0.8],"subjectId":"A3KACB3ERCT0DG","assignmentId":"3HL8HNGX46NK7PKE1T6WLAD7X8NF9O","hitId":"32TZXEA1OL6QYKM0MXQIQH2ABHN14I","url":"https://gershmanlab.com/experiments/alicia/teaching/experiment/?hitId=32TZXEA1OL6QYKM0MXQIQH2ABHN14I&workerId=A3KACB3ERCT0DG&assignmentId=3HL8HNGX46NK7PKE1T6WLAD7X8NF9O&a=XHLH9&tp_a=XHLH9&b=3HL8HNGX46NK7PKE1T6WLAD7X8NF9O&tp_b=3HL8HNGX46NK7PKE1T6WLAD7X8NF9O&c=365799&tp_c=365799","heads":20,"tails":0,"studentIndex":9,"studentTrueHypers":{"a":8,"b":2},"studentGuess":0.9333333333333333,"delta":0.43333333333333335,"totalExamples":20,"bonus":0,"bonusSoFar":1.19},{"rt":133761,"response":{"heads":"16","tails":"2"},"type":"response","condition":"nonSeqPartial","trueTheta":0.8,"classrooms":["A","B"],"studentTrueClassroom":"A","exampleSet":"first","trial_type":"survey-html-form","trial_index":90,"time_elapsed":1678237,"internal_node_id":"0.0-77.0-0.0","params":{"nStudents":24,"maxFlips":30,"completionMinutes":45,"basePay":8,"maxBonus":9,"perTrialBonus":0.5,"perTrialBonusThreshold":0.05,"exampleCost":0.01},"classroomParams":{"A":{"a":1,"b":4},"B":{"a":4,"b":1},"C":{"a":2,"b":8},"D":{"a":8,"b":2}},"conditions":["nonSeqFull","nonSeqPartial","seqNoFeedback","seqFeedback"],"classroomPairings":[["A","B"],["C","D"]],"coinWeights":[0.2,0.5,0.8],"subjectId":"A3KACB3ERCT0DG","assignmentId":"3HL8HNGX46NK7PKE1T6WLAD7X8NF9O","hitId":"32TZXEA1OL6QYKM0MXQIQH2ABHN14I","url":"https://gershmanlab.com/experiments/alicia/teaching/experiment/?hitId=32TZXEA1OL6QYKM0MXQIQH2ABHN14I&workerId=A3KACB3ERCT0DG&assignmentId=3HL8HNGX46NK7PKE1T6WLAD7X8NF9O&a=XHLH9&tp_a=XHLH9&b=3HL8HNGX46NK7PKE1T6WLAD7X8NF9O&tp_b=3HL8HNGX46NK7PKE1T6WLAD7X8NF9O&c=365799&tp_c=365799","heads":16,"tails":2,"studentIndex":10,"studentTrueHypers":{"a":1,"b":4},"studentGuess":0.7391304347826086,"delta":0.0608695652173914,"totalExamples":18,"bonus":0,"bonusSoFar":1.19},{"rt":63587,"response":{"heads":"16","tails":"0"},"type":"response","condition":"nonSeqFull","trueTheta":0.8,"classrooms":["A","B"],"studentTrueClassroom":"A","exampleSet":"first","trial_type":"survey-html-form","trial_index":96,"time_elapsed":1759017,"internal_node_id":"0.0-83.0-0.0","params":{"nStudents":24,"maxFlips":30,"completionMinutes":45,"basePay":8,"maxBonus":9,"perTrialBonus":0.5,"perTrialBonusThreshold":0.05,"exampleCost":0.01},"classroomParams":{"A":{"a":1,"b":4},"B":{"a":4,"b":1},"C":{"a":2,"b":8},"D":{"a":8,"b":2}},"conditions":["nonSeqFull","nonSeqPartial","seqNoFeedback","seqFeedback"],"classroomPairings":[["A","B"],["C","D"]],"coinWeights":[0.2,0.5,0.8],"subjectId":"A3KACB3ERCT0DG","assignmentId":"3HL8HNGX46NK7PKE1T6WLAD7X8NF9O","hitId":"32TZXEA1OL6QYKM0MXQIQH2ABHN14I","url":"https://gershmanlab.com/experiments/alicia/teaching/experiment/?hitId=32TZXEA1OL6QYKM0MXQIQH2ABHN14I&workerId=A3KACB3ERCT0DG&assignmentId=3HL8HNGX46NK7PKE1T6WLAD7X8NF9O&a=XHLH9&tp_a=XHLH9&b=3HL8HNGX46NK7PKE1T6WLAD7X8NF9O&tp_b=3HL8HNGX46NK7PKE1T6WLAD7X8NF9O&c=365799&tp_c=365799","heads":16,"tails":0,"studentIndex":11,"studentTrueHypers":{"a":1,"b":4},"studentGuess":0.8095238095238095,"delta":0.00952380952380949,"totalExamples":16,"bonus":0.34,"bonusSoFar":1.53},{"rt":49227,"response":{"heads":"10","tails":"2"},"type":"response","condition":"seqNoFeedback","trueTheta":0.5,"classrooms":["A","B"],"studentTrueClassroom":"B","exampleSet":"first","trial_type":"survey-html-form","trial_index":102,"time_elapsed":1823976,"internal_node_id":"0.0-89.0-0.0","params":{"nStudents":24,"maxFlips":30,"completionMinutes":45,"basePay":8,"maxBonus":9,"perTrialBonus":0.5,"perTrialBonusThreshold":0.05,"exampleCost":0.01},"classroomParams":{"A":{"a":1,"b":4},"B":{"a":4,"b":1},"C":{"a":2,"b":8},"D":{"a":8,"b":2}},"conditions":["nonSeqFull","nonSeqPartial","seqNoFeedback","seqFeedback"],"classroomPairings":[["A","B"],["C","D"]],"coinWeights":[0.2,0.5,0.8],"subjectId":"A3KACB3ERCT0DG","assignmentId":"3HL8HNGX46NK7PKE1T6WLAD7X8NF9O","hitId":"32TZXEA1OL6QYKM0MXQIQH2ABHN14I","url":"https://gershmanlab.com/experiments/alicia/teaching/experiment/?hitId=32TZXEA1OL6QYKM0MXQIQH2ABHN14I&workerId=A3KACB3ERCT0DG&assignmentId=3HL8HNGX46NK7PKE1T6WLAD7X8NF9O&a=XHLH9&tp_a=XHLH9&b=3HL8HNGX46NK7PKE1T6WLAD7X8NF9O&tp_b=3HL8HNGX46NK7PKE1T6WLAD7X8NF9O&c=365799&tp_c=365799","heads":10,"tails":2,"studentIndex":12,"studentTrueHypers":{"a":4,"b":1},"studentGuess":0.8235294117647058,"delta":0.32352941176470584,"totalExamples":12,"bonusSoFar":1.53},{"rt":45567,"response":{"heads":"2","tails":"1"},"type":"response","condition":"seqNoFeedback","trueTheta":0.5,"classrooms":["A","B"],"studentTrueClassroom":"B","exampleSet":"second","trial_type":"survey-html-form","trial_index":105,"time_elapsed":1875829,"internal_node_id":"0.0-92.0-0.0","params":{"nStudents":24,"maxFlips":30,"completionMinutes":45,"basePay":8,"maxBonus":9,"perTrialBonus":0.5,"perTrialBonusThreshold":0.05,"exampleCost":0.01},"classroomParams":{"A":{"a":1,"b":4},"B":{"a":4,"b":1},"C":{"a":2,"b":8},"D":{"a":8,"b":2}},"conditions":["nonSeqFull","nonSeqPartial","seqNoFeedback","seqFeedback"],"classroomPairings":[["A","B"],["C","D"]],"coinWeights":[0.2,0.5,0.8],"subjectId":"A3KACB3ERCT0DG","assignmentId":"3HL8HNGX46NK7PKE1T6WLAD7X8NF9O","hitId":"32TZXEA1OL6QYKM0MXQIQH2ABHN14I","url":"https://gershmanlab.com/experiments/alicia/teaching/experiment/?hitId=32TZXEA1OL6QYKM0MXQIQH2ABHN14I&workerId=A3KACB3ERCT0DG&assignmentId=3HL8HNGX46NK7PKE1T6WLAD7X8NF9O&a=XHLH9&tp_a=XHLH9&b=3HL8HNGX46NK7PKE1T6WLAD7X8NF9O&tp_b=3HL8HNGX46NK7PKE1T6WLAD7X8NF9O&c=365799&tp_c=365799","firstResponseHeads":10,"firstResponseTails":2,"secondResponseHeads":2,"secondResponseTails":1,"totalHeads":12,"totalTails":3,"studentIndex":12,"studentTrueHypers":{"a":4,"b":1},"studentGuess":0.8,"delta":0.30000000000000004,"bonus":0,"bonusSoFar":1.53,"totalExamples":15},{"rt":44196,"response":{"heads":"10","tails":"0"},"type":"response","condition":"seqFeedback","trueTheta":0.5,"classrooms":["C","D"],"studentTrueClassroom":"C","exampleSet":"first","trial_type":"survey-html-form","trial_index":111,"time_elapsed":1938028,"internal_node_id":"0.0-98.0-0.0","params":{"nStudents":24,"maxFlips":30,"completionMinutes":45,"basePay":8,"maxBonus":9,"perTrialBonus":0.5,"perTrialBonusThreshold":0.05,"exampleCost":0.01},"classroomParams":{"A":{"a":1,"b":4},"B":{"a":4,"b":1},"C":{"a":2,"b":8},"D":{"a":8,"b":2}},"conditions":["nonSeqFull","nonSeqPartial","seqNoFeedback","seqFeedback"],"classroomPairings":[["A","B"],["C","D"]],"coinWeights":[0.2,0.5,0.8],"subjectId":"A3KACB3ERCT0DG","assignmentId":"3HL8HNGX46NK7PKE1T6WLAD7X8NF9O","hitId":"32TZXEA1OL6QYKM0MXQIQH2ABHN14I","url":"https://gershmanlab.com/experiments/alicia/teaching/experiment/?hitId=32TZXEA1OL6QYKM0MXQIQH2ABHN14I&workerId=A3KACB3ERCT0DG&assignmentId=3HL8HNGX46NK7PKE1T6WLAD7X8NF9O&a=XHLH9&tp_a=XHLH9&b=3HL8HNGX46NK7PKE1T6WLAD7X8NF9O&tp_b=3HL8HNGX46NK7PKE1T6WLAD7X8NF9O&c=365799&tp_c=365799","heads":10,"tails":0,"studentIndex":13,"studentTrueHypers":{"a":2,"b":8},"studentGuess":0.6,"delta":0.09999999999999998,"totalExamples":10,"bonusSoFar":1.53},{"rt":19927,"response":{"heads":"4","tails":"2"},"type":"response","condition":"seqFeedback","trueTheta":0.5,"classrooms":["C","D"],"studentTrueClassroom":"C","exampleSet":"second","trial_type":"survey-html-form","trial_index":115,"time_elapsed":1973382,"internal_node_id":"0.0-102.0-0.0","params":{"nStudents":24,"maxFlips":30,"completionMinutes":45,"basePay":8,"maxBonus":9,"perTrialBonus":0.5,"perTrialBonusThreshold":0.05,"exampleCost":0.01},"classroomParams":{"A":{"a":1,"b":4},"B":{"a":4,"b":1},"C":{"a":2,"b":8},"D":{"a":8,"b":2}},"conditions":["nonSeqFull","nonSeqPartial","seqNoFeedback","seqFeedback"],"classroomPairings":[["A","B"],["C","D"]],"coinWeights":[0.2,0.5,0.8],"subjectId":"A3KACB3ERCT0DG","assignmentId":"3HL8HNGX46NK7PKE1T6WLAD7X8NF9O","hitId":"32TZXEA1OL6QYKM0MXQIQH2ABHN14I","url":"https://gershmanlab.com/experiments/alicia/teaching/experiment/?hitId=32TZXEA1OL6QYKM0MXQIQH2ABHN14I&workerId=A3KACB3ERCT0DG&assignmentId=3HL8HNGX46NK7PKE1T6WLAD7X8NF9O&a=XHLH9&tp_a=XHLH9&b=3HL8HNGX46NK7PKE1T6WLAD7X8NF9O&tp_b=3HL8HNGX46NK7PKE1T6WLAD7X8NF9O&c=365799&tp_c=365799","firstResponseHeads":10,"firstResponseTails":0,"secondResponseHeads":4,"secondResponseTails":2,"totalHeads":14,"totalTails":2,"studentIndex":13,"studentTrueHypers":{"a":2,"b":8},"studentGuess":0.6153846153846154,"delta":0.11538461538461542,"bonus":0,"bonusSoFar":1.53,"totalExamples":16},{"rt":49688,"response":{"heads":"15","tails":"5"},"type":"response","condition":"seqFeedback","trueTheta":0.5,"classrooms":["A","B"],"studentTrueClassroom":"B","exampleSet":"first","trial_type":"survey-html-form","trial_index":121,"time_elapsed":2041691,"internal_node_id":"0.0-108.0-0.0","params":{"nStudents":24,"maxFlips":30,"completionMinutes":45,"basePay":8,"maxBonus":9,"perTrialBonus":0.5,"perTrialBonusThreshold":0.05,"exampleCost":0.01},"classroomParams":{"A":{"a":1,"b":4},"B":{"a":4,"b":1},"C":{"a":2,"b":8},"D":{"a":8,"b":2}},"conditions":["nonSeqFull","nonSeqPartial","seqNoFeedback","seqFeedback"],"classroomPairings":[["A","B"],["C","D"]],"coinWeights":[0.2,0.5,0.8],"subjectId":"A3KACB3ERCT0DG","assignmentId":"3HL8HNGX46NK7PKE1T6WLAD7X8NF9O","hitId":"32TZXEA1OL6QYKM0MXQIQH2ABHN14I","url":"https://gershmanlab.com/experiments/alicia/teaching/experiment/?hitId=32TZXEA1OL6QYKM0MXQIQH2ABHN14I&workerId=A3KACB3ERCT0DG&assignmentId=3HL8HNGX46NK7PKE1T6WLAD7X8NF9O&a=XHLH9&tp_a=XHLH9&b=3HL8HNGX46NK7PKE1T6WLAD7X8NF9O&tp_b=3HL8HNGX46NK7PKE1T6WLAD7X8NF9O&c=365799&tp_c=365799","heads":15,"tails":5,"studentIndex":14,"studentTrueHypers":{"a":4,"b":1},"studentGuess":0.76,"delta":0.26,"totalExamples":20,"bonusSoFar":1.53},{"rt":27594,"response":{"heads":"5","tails":"3"},"type":"response","condition":"seqFeedback","trueTheta":0.5,"classrooms":["A","B"],"studentTrueClassroom":"B","exampleSet":"second","trial_type":"survey-html-form","trial_index":125,"time_elapsed":2081342,"internal_node_id":"0.0-112.0-0.0","params":{"nStudents":24,"maxFlips":30,"completionMinutes":45,"basePay":8,"maxBonus":9,"perTrialBonus":0.5,"perTrialBonusThreshold":0.05,"exampleCost":0.01},"classroomParams":{"A":{"a":1,"b":4},"B":{"a":4,"b":1},"C":{"a":2,"b":8},"D":{"a":8,"b":2}},"conditions":["nonSeqFull","nonSeqPartial","seqNoFeedback","seqFeedback"],"classroomPairings":[["A","B"],["C","D"]],"coinWeights":[0.2,0.5,0.8],"subjectId":"A3KACB3ERCT0DG","assignmentId":"3HL8HNGX46NK7PKE1T6WLAD7X8NF9O","hitId":"32TZXEA1OL6QYKM0MXQIQH2ABHN14I","url":"https://gershmanlab.com/experiments/alicia/teaching/experiment/?hitId=32TZXEA1OL6QYKM0MXQIQH2ABHN14I&workerId=A3KACB3ERCT0DG&assignmentId=3HL8HNGX46NK7PKE1T6WLAD7X8NF9O&a=XHLH9&tp_a=XHLH9&b=3HL8HNGX46NK7PKE1T6WLAD7X8NF9O&tp_b=3HL8HNGX46NK7PKE1T6WLAD7X8NF9O&c=365799&tp_c=365799","firstResponseHeads":15,"firstResponseTails":5,"secondResponseHeads":5,"secondResponseTails":3,"totalHeads":20,"totalTails":8,"studentIndex":14,"studentTrueHypers":{"a":4,"b":1},"studentGuess":0.7272727272727273,"delta":0.2272727272727273,"bonus":0,"bonusSoFar":1.53,"totalExamples":28},{"rt":9369,"response":{"heads":"2","tails":"8"},"type":"response","condition":"nonSeqFull","trueTheta":0.2,"classrooms":["C","D"],"studentTrueClassroom":"C","exampleSet":"first","trial_type":"survey-html-form","trial_index":131,"time_elapsed":2105652,"internal_node_id":"0.0-118.0-0.0","params":{"nStudents":24,"maxFlips":30,"completionMinutes":45,"basePay":8,"maxBonus":9,"perTrialBonus":0.5,"perTrialBonusThreshold":0.05,"exampleCost":0.01},"classroomParams":{"A":{"a":1,"b":4},"B":{"a":4,"b":1},"C":{"a":2,"b":8},"D":{"a":8,"b":2}},"conditions":["nonSeqFull","nonSeqPartial","seqNoFeedback","seqFeedback"],"classroomPairings":[["A","B"],["C","D"]],"coinWeights":[0.2,0.5,0.8],"subjectId":"A3KACB3ERCT0DG","assignmentId":"3HL8HNGX46NK7PKE1T6WLAD7X8NF9O","hitId":"32TZXEA1OL6QYKM0MXQIQH2ABHN14I","url":"https://gershmanlab.com/experiments/alicia/teaching/experiment/?hitId=32TZXEA1OL6QYKM0MXQIQH2ABHN14I&workerId=A3KACB3ERCT0DG&assignmentId=3HL8HNGX46NK7PKE1T6WLAD7X8NF9O&a=XHLH9&tp_a=XHLH9&b=3HL8HNGX46NK7PKE1T6WLAD7X8NF9O&tp_b=3HL8HNGX46NK7PKE1T6WLAD7X8NF9O&c=365799&tp_c=365799","heads":2,"tails":8,"studentIndex":15,"studentTrueHypers":{"a":2,"b":8},"studentGuess":0.2,"delta":0,"totalExamples":10,"bonus":0.4,"bonusSoFar":1.93},{"rt":14306,"response":{"heads":"8","tails":"2"},"type":"response","condition":"seqNoFeedback","trueTheta":0.8,"classrooms":["C","D"],"studentTrueClassroom":"C","exampleSet":"first","trial_type":"survey-html-form","trial_index":137,"time_elapsed":2134352,"internal_node_id":"0.0-124.0-0.0","params":{"nStudents":24,"maxFlips":30,"completionMinutes":45,"basePay":8,"maxBonus":9,"perTrialBonus":0.5,"perTrialBonusThreshold":0.05,"exampleCost":0.01},"classroomParams":{"A":{"a":1,"b":4},"B":{"a":4,"b":1},"C":{"a":2,"b":8},"D":{"a":8,"b":2}},"conditions":["nonSeqFull","nonSeqPartial","seqNoFeedback","seqFeedback"],"classroomPairings":[["A","B"],["C","D"]],"coinWeights":[0.2,0.5,0.8],"subjectId":"A3KACB3ERCT0DG","assignmentId":"3HL8HNGX46NK7PKE1T6WLAD7X8NF9O","hitId":"32TZXEA1OL6QYKM0MXQIQH2ABHN14I","url":"https://gershmanlab.com/experiments/alicia/teaching/experiment/?hitId=32TZXEA1OL6QYKM0MXQIQH2ABHN14I&workerId=A3KACB3ERCT0DG&assignmentId=3HL8HNGX46NK7PKE1T6WLAD7X8NF9O&a=XHLH9&tp_a=XHLH9&b=3HL8HNGX46NK7PKE1T6WLAD7X8NF9O&tp_b=3HL8HNGX46NK7PKE1T6WLAD7X8NF9O&c=365799&tp_c=365799","heads":8,"tails":2,"studentIndex":16,"studentTrueHypers":{"a":2,"b":8},"studentGuess":0.5,"delta":0.30000000000000004,"totalExamples":10,"bonusSoFar":1.93},{"rt":12052,"response":{"heads":"4","tails":"1"},"type":"response","condition":"seqNoFeedback","trueTheta":0.8,"classrooms":["C","D"],"studentTrueClassroom":"C","exampleSet":"second","trial_type":"survey-html-form","trial_index":140,"time_elapsed":2152689,"internal_node_id":"0.0-127.0-0.0","params":{"nStudents":24,"maxFlips":30,"completionMinutes":45,"basePay":8,"maxBonus":9,"perTrialBonus":0.5,"perTrialBonusThreshold":0.05,"exampleCost":0.01},"classroomParams":{"A":{"a":1,"b":4},"B":{"a":4,"b":1},"C":{"a":2,"b":8},"D":{"a":8,"b":2}},"conditions":["nonSeqFull","nonSeqPartial","seqNoFeedback","seqFeedback"],"classroomPairings":[["A","B"],["C","D"]],"coinWeights":[0.2,0.5,0.8],"subjectId":"A3KACB3ERCT0DG","assignmentId":"3HL8HNGX46NK7PKE1T6WLAD7X8NF9O","hitId":"32TZXEA1OL6QYKM0MXQIQH2ABHN14I","url":"https://gershmanlab.com/experiments/alicia/teaching/experiment/?hitId=32TZXEA1OL6QYKM0MXQIQH2ABHN14I&workerId=A3KACB3ERCT0DG&assignmentId=3HL8HNGX46NK7PKE1T6WLAD7X8NF9O&a=XHLH9&tp_a=XHLH9&b=3HL8HNGX46NK7PKE1T6WLAD7X8NF9O&tp_b=3HL8HNGX46NK7PKE1T6WLAD7X8NF9O&c=365799&tp_c=365799","firstResponseHeads":8,"firstResponseTails":2,"secondResponseHeads":4,"secondResponseTails":1,"totalHeads":12,"totalTails":3,"studentIndex":16,"studentTrueHypers":{"a":2,"b":8},"studentGuess":0.56,"delta":0.24,"bonus":0,"bonusSoFar":1.93,"totalExamples":15},{"rt":7672,"response":{"heads":"8","tails":"2"},"type":"response","condition":"seqFeedback","trueTheta":0.2,"classrooms":["C","D"],"studentTrueClassroom":"C","exampleSet":"first","trial_type":"survey-html-form","trial_index":146,"time_elapsed":2176392,"internal_node_id":"0.0-133.0-0.0","params":{"nStudents":24,"maxFlips":30,"completionMinutes":45,"basePay":8,"maxBonus":9,"perTrialBonus":0.5,"perTrialBonusThreshold":0.05,"exampleCost":0.01},"classroomParams":{"A":{"a":1,"b":4},"B":{"a":4,"b":1},"C":{"a":2,"b":8},"D":{"a":8,"b":2}},"conditions":["nonSeqFull","nonSeqPartial","seqNoFeedback","seqFeedback"],"classroomPairings":[["A","B"],["C","D"]],"coinWeights":[0.2,0.5,0.8],"subjectId":"A3KACB3ERCT0DG","assignmentId":"3HL8HNGX46NK7PKE1T6WLAD7X8NF9O","hitId":"32TZXEA1OL6QYKM0MXQIQH2ABHN14I","url":"https://gershmanlab.com/experiments/alicia/teaching/experiment/?hitId=32TZXEA1OL6QYKM0MXQIQH2ABHN14I&workerId=A3KACB3ERCT0DG&assignmentId=3HL8HNGX46NK7PKE1T6WLAD7X8NF9O&a=XHLH9&tp_a=XHLH9&b=3HL8HNGX46NK7PKE1T6WLAD7X8NF9O&tp_b=3HL8HNGX46NK7PKE1T6WLAD7X8NF9O&c=365799&tp_c=365799","heads":8,"tails":2,"studentIndex":17,"studentTrueHypers":{"a":2,"b":8},"studentGuess":0.5,"delta":0.3,"totalExamples":10,"bonusSoFar":1.93},{"rt":9056,"response":{"heads":"8","tails":"2"},"type":"response","condition":"seqFeedback","trueTheta":0.2,"classrooms":["C","D"],"studentTrueClassroom":"C","exampleSet":"second","trial_type":"survey-html-form","trial_index":150,"time_elapsed":2196163,"internal_node_id":"0.0-137.0-0.0","params":{"nStudents":24,"maxFlips":30,"completionMinutes":45,"basePay":8,"maxBonus":9,"perTrialBonus":0.5,"perTrialBonusThreshold":0.05,"exampleCost":0.01},"classroomParams":{"A":{"a":1,"b":4},"B":{"a":4,"b":1},"C":{"a":2,"b":8},"D":{"a":8,"b":2}},"conditions":["nonSeqFull","nonSeqPartial","seqNoFeedback","seqFeedback"],"classroomPairings":[["A","B"],["C","D"]],"coinWeights":[0.2,0.5,0.8],"subjectId":"A3KACB3ERCT0DG","assignmentId":"3HL8HNGX46NK7PKE1T6WLAD7X8NF9O","hitId":"32TZXEA1OL6QYKM0MXQIQH2ABHN14I","url":"https://gershmanlab.com/experiments/alicia/teaching/experiment/?hitId=32TZXEA1OL6QYKM0MXQIQH2ABHN14I&workerId=A3KACB3ERCT0DG&assignmentId=3HL8HNGX46NK7PKE1T6WLAD7X8NF9O&a=XHLH9&tp_a=XHLH9&b=3HL8HNGX46NK7PKE1T6WLAD7X8NF9O&tp_b=3HL8HNGX46NK7PKE1T6WLAD7X8NF9O&c=365799&tp_c=365799","firstResponseHeads":8,"firstResponseTails":2,"secondResponseHeads":8,"secondResponseTails":2,"totalHeads":16,"totalTails":4,"studentIndex":17,"studentTrueHypers":{"a":2,"b":8},"studentGuess":0.6,"delta":0.39999999999999997,"bonus":0,"bonusSoFar":1.93,"totalExamples":20},{"rt":17375,"response":{"heads":"8","tails":"2"},"type":"response","condition":"seqNoFeedback","trueTheta":0.2,"classrooms":["C","D"],"studentTrueClassroom":"C","exampleSet":"first","trial_type":"survey-html-form","trial_index":156,"time_elapsed":2227353,"internal_node_id":"0.0-143.0-0.0","params":{"nStudents":24,"maxFlips":30,"completionMinutes":45,"basePay":8,"maxBonus":9,"perTrialBonus":0.5,"perTrialBonusThreshold":0.05,"exampleCost":0.01},"classroomParams":{"A":{"a":1,"b":4},"B":{"a":4,"b":1},"C":{"a":2,"b":8},"D":{"a":8,"b":2}},"conditions":["nonSeqFull","nonSeqPartial","seqNoFeedback","seqFeedback"],"classroomPairings":[["A","B"],["C","D"]],"coinWeights":[0.2,0.5,0.8],"subjectId":"A3KACB3ERCT0DG","assignmentId":"3HL8HNGX46NK7PKE1T6WLAD7X8NF9O","hitId":"32TZXEA1OL6QYKM0MXQIQH2ABHN14I","url":"https://gershmanlab.com/experiments/alicia/teaching/experiment/?hitId=32TZXEA1OL6QYKM0MXQIQH2ABHN14I&workerId=A3KACB3ERCT0DG&assignmentId=3HL8HNGX46NK7PKE1T6WLAD7X8NF9O&a=XHLH9&tp_a=XHLH9&b=3HL8HNGX46NK7PKE1T6WLAD7X8NF9O&tp_b=3HL8HNGX46NK7PKE1T6WLAD7X8NF9O&c=365799&tp_c=365799","heads":8,"tails":2,"studentIndex":18,"studentTrueHypers":{"a":2,"b":8},"studentGuess":0.5,"delta":0.3,"totalExamples":10,"bonusSoFar":1.93},{"rt":47319,"response":{"heads":"12","tails":"3"},"type":"response","condition":"seqNoFeedback","trueTheta":0.2,"classrooms":["C","D"],"studentTrueClassroom":"C","exampleSet":"second","trial_type":"survey-html-form","trial_index":159,"time_elapsed":2282204,"internal_node_id":"0.0-146.0-0.0","params":{"nStudents":24,"maxFlips":30,"completionMinutes":45,"basePay":8,"maxBonus":9,"perTrialBonus":0.5,"perTrialBonusThreshold":0.05,"exampleCost":0.01},"classroomParams":{"A":{"a":1,"b":4},"B":{"a":4,"b":1},"C":{"a":2,"b":8},"D":{"a":8,"b":2}},"conditions":["nonSeqFull","nonSeqPartial","seqNoFeedback","seqFeedback"],"classroomPairings":[["A","B"],["C","D"]],"coinWeights":[0.2,0.5,0.8],"subjectId":"A3KACB3ERCT0DG","assignmentId":"3HL8HNGX46NK7PKE1T6WLAD7X8NF9O","hitId":"32TZXEA1OL6QYKM0MXQIQH2ABHN14I","url":"https://gershmanlab.com/experiments/alicia/teaching/experiment/?hitId=32TZXEA1OL6QYKM0MXQIQH2ABHN14I&workerId=A3KACB3ERCT0DG&assignmentId=3HL8HNGX46NK7PKE1T6WLAD7X8NF9O&a=XHLH9&tp_a=XHLH9&b=3HL8HNGX46NK7PKE1T6WLAD7X8NF9O&tp_b=3HL8HNGX46NK7PKE1T6WLAD7X8NF9O&c=365799&tp_c=365799","firstResponseHeads":8,"firstResponseTails":2,"secondResponseHeads":12,"secondResponseTails":3,"totalHeads":20,"totalTails":5,"studentIndex":18,"studentTrueHypers":{"a":2,"b":8},"studentGuess":0.6285714285714286,"delta":0.42857142857142855,"bonus":0,"bonusSoFar":1.93,"totalExamples":25},{"rt":23211,"response":{"heads":"16","tails":"4"},"type":"response","condition":"seqNoFeedback","trueTheta":0.8,"classrooms":["A","B"],"studentTrueClassroom":"A","exampleSet":"first","trial_type":"survey-html-form","trial_index":165,"time_elapsed":2320297,"internal_node_id":"0.0-152.0-0.0","params":{"nStudents":24,"maxFlips":30,"completionMinutes":45,"basePay":8,"maxBonus":9,"perTrialBonus":0.5,"perTrialBonusThreshold":0.05,"exampleCost":0.01},"classroomParams":{"A":{"a":1,"b":4},"B":{"a":4,"b":1},"C":{"a":2,"b":8},"D":{"a":8,"b":2}},"conditions":["nonSeqFull","nonSeqPartial","seqNoFeedback","seqFeedback"],"classroomPairings":[["A","B"],["C","D"]],"coinWeights":[0.2,0.5,0.8],"subjectId":"A3KACB3ERCT0DG","assignmentId":"3HL8HNGX46NK7PKE1T6WLAD7X8NF9O","hitId":"32TZXEA1OL6QYKM0MXQIQH2ABHN14I","url":"https://gershmanlab.com/experiments/alicia/teaching/experiment/?hitId=32TZXEA1OL6QYKM0MXQIQH2ABHN14I&workerId=A3KACB3ERCT0DG&assignmentId=3HL8HNGX46NK7PKE1T6WLAD7X8NF9O&a=XHLH9&tp_a=XHLH9&b=3HL8HNGX46NK7PKE1T6WLAD7X8NF9O&tp_b=3HL8HNGX46NK7PKE1T6WLAD7X8NF9O&c=365799&tp_c=365799","heads":16,"tails":4,"studentIndex":19,"studentTrueHypers":{"a":1,"b":4},"studentGuess":0.68,"delta":0.12,"totalExamples":20,"bonusSoFar":1.93},{"rt":9971,"response":{"heads":"8","tails":"2"},"type":"response","condition":"seqNoFeedback","trueTheta":0.8,"classrooms":["A","B"],"studentTrueClassroom":"A","exampleSet":"second","trial_type":"survey-html-form","trial_index":168,"time_elapsed":2337792,"internal_node_id":"0.0-155.0-0.0","params":{"nStudents":24,"maxFlips":30,"completionMinutes":45,"basePay":8,"maxBonus":9,"perTrialBonus":0.5,"perTrialBonusThreshold":0.05,"exampleCost":0.01},"classroomParams":{"A":{"a":1,"b":4},"B":{"a":4,"b":1},"C":{"a":2,"b":8},"D":{"a":8,"b":2}},"conditions":["nonSeqFull","nonSeqPartial","seqNoFeedback","seqFeedback"],"classroomPairings":[["A","B"],["C","D"]],"coinWeights":[0.2,0.5,0.8],"subjectId":"A3KACB3ERCT0DG","assignmentId":"3HL8HNGX46NK7PKE1T6WLAD7X8NF9O","hitId":"32TZXEA1OL6QYKM0MXQIQH2ABHN14I","url":"https://gershmanlab.com/experiments/alicia/teaching/experiment/?hitId=32TZXEA1OL6QYKM0MXQIQH2ABHN14I&workerId=A3KACB3ERCT0DG&assignmentId=3HL8HNGX46NK7PKE1T6WLAD7X8NF9O&a=XHLH9&tp_a=XHLH9&b=3HL8HNGX46NK7PKE1T6WLAD7X8NF9O&tp_b=3HL8HNGX46NK7PKE1T6WLAD7X8NF9O&c=365799&tp_c=365799","firstResponseHeads":16,"firstResponseTails":4,"secondResponseHeads":8,"secondResponseTails":2,"totalHeads":24,"totalTails":6,"studentIndex":19,"studentTrueHypers":{"a":1,"b":4},"studentGuess":0.7142857142857143,"delta":0.08571428571428574,"bonus":0,"bonusSoFar":1.93,"totalExamples":30},{"rt":15242,"response":{"heads":"2","tails":"8"},"type":"response","condition":"nonSeqFull","trueTheta":0.2,"classrooms":["A","B"],"studentTrueClassroom":"B","exampleSet":"first","trial_type":"survey-html-form","trial_index":174,"time_elapsed":2367068,"internal_node_id":"0.0-161.0-0.0","params":{"nStudents":24,"maxFlips":30,"completionMinutes":45,"basePay":8,"maxBonus":9,"perTrialBonus":0.5,"perTrialBonusThreshold":0.05,"exampleCost":0.01},"classroomParams":{"A":{"a":1,"b":4},"B":{"a":4,"b":1},"C":{"a":2,"b":8},"D":{"a":8,"b":2}},"conditions":["nonSeqFull","nonSeqPartial","seqNoFeedback","seqFeedback"],"classroomPairings":[["A","B"],["C","D"]],"coinWeights":[0.2,0.5,0.8],"subjectId":"A3KACB3ERCT0DG","assignmentId":"3HL8HNGX46NK7PKE1T6WLAD7X8NF9O","hitId":"32TZXEA1OL6QYKM0MXQIQH2ABHN14I","url":"https://gershmanlab.com/experiments/alicia/teaching/experiment/?hitId=32TZXEA1OL6QYKM0MXQIQH2ABHN14I&workerId=A3KACB3ERCT0DG&assignmentId=3HL8HNGX46NK7PKE1T6WLAD7X8NF9O&a=XHLH9&tp_a=XHLH9&b=3HL8HNGX46NK7PKE1T6WLAD7X8NF9O&tp_b=3HL8HNGX46NK7PKE1T6WLAD7X8NF9O&c=365799&tp_c=365799","heads":2,"tails":8,"studentIndex":20,"studentTrueHypers":{"a":4,"b":1},"studentGuess":0.4,"delta":0.2,"totalExamples":10,"bonus":0,"bonusSoFar":1.93},{"rt":25993,"response":{"heads":"20","tails":"0"},"type":"response","condition":"seqNoFeedback","trueTheta":0.5,"classrooms":["C","D"],"studentTrueClassroom":"D","exampleSet":"first","trial_type":"survey-html-form","trial_index":180,"time_elapsed":2408638,"internal_node_id":"0.0-167.0-0.0","params":{"nStudents":24,"maxFlips":30,"completionMinutes":45,"basePay":8,"maxBonus":9,"perTrialBonus":0.5,"perTrialBonusThreshold":0.05,"exampleCost":0.01},"classroomParams":{"A":{"a":1,"b":4},"B":{"a":4,"b":1},"C":{"a":2,"b":8},"D":{"a":8,"b":2}},"conditions":["nonSeqFull","nonSeqPartial","seqNoFeedback","seqFeedback"],"classroomPairings":[["A","B"],["C","D"]],"coinWeights":[0.2,0.5,0.8],"subjectId":"A3KACB3ERCT0DG","assignmentId":"3HL8HNGX46NK7PKE1T6WLAD7X8NF9O","hitId":"32TZXEA1OL6QYKM0MXQIQH2ABHN14I","url":"https://gershmanlab.com/experiments/alicia/teaching/experiment/?hitId=32TZXEA1OL6QYKM0MXQIQH2ABHN14I&workerId=A3KACB3ERCT0DG&assignmentId=3HL8HNGX46NK7PKE1T6WLAD7X8NF9O&a=XHLH9&tp_a=XHLH9&b=3HL8HNGX46NK7PKE1T6WLAD7X8NF9O&tp_b=3HL8HNGX46NK7PKE1T6WLAD7X8NF9O&c=365799&tp_c=365799","heads":20,"tails":0,"studentIndex":21,"studentTrueHypers":{"a":8,"b":2},"studentGuess":0.9333333333333333,"delta":0.43333333333333335,"totalExamples":20,"bonusSoFar":1.93},{"rt":8568,"response":{"heads":"5","tails":"5"},"type":"response","condition":"seqNoFeedback","trueTheta":0.5,"classrooms":["C","D"],"studentTrueClassroom":"D","exampleSet":"second","trial_type":"survey-html-form","trial_index":183,"time_elapsed":2423981,"internal_node_id":"0.0-170.0-0.0","params":{"nStudents":24,"maxFlips":30,"completionMinutes":45,"basePay":8,"maxBonus":9,"perTrialBonus":0.5,"perTrialBonusThreshold":0.05,"exampleCost":0.01},"classroomParams":{"A":{"a":1,"b":4},"B":{"a":4,"b":1},"C":{"a":2,"b":8},"D":{"a":8,"b":2}},"conditions":["nonSeqFull","nonSeqPartial","seqNoFeedback","seqFeedback"],"classroomPairings":[["A","B"],["C","D"]],"coinWeights":[0.2,0.5,0.8],"subjectId":"A3KACB3ERCT0DG","assignmentId":"3HL8HNGX46NK7PKE1T6WLAD7X8NF9O","hitId":"32TZXEA1OL6QYKM0MXQIQH2ABHN14I","url":"https://gershmanlab.com/experiments/alicia/teaching/experiment/?hitId=32TZXEA1OL6QYKM0MXQIQH2ABHN14I&workerId=A3KACB3ERCT0DG&assignmentId=3HL8HNGX46NK7PKE1T6WLAD7X8NF9O&a=XHLH9&tp_a=XHLH9&b=3HL8HNGX46NK7PKE1T6WLAD7X8NF9O&tp_b=3HL8HNGX46NK7PKE1T6WLAD7X8NF9O&c=365799&tp_c=365799","firstResponseHeads":20,"firstResponseTails":0,"secondResponseHeads":5,"secondResponseTails":5,"totalHeads":25,"totalTails":5,"studentIndex":21,"studentTrueHypers":{"a":8,"b":2},"studentGuess":0.825,"delta":0.32499999999999996,"bonus":0,"bonusSoFar":1.93,"totalExamples":30},{"rt":13092,"response":{"heads":"2","tails":"8"},"type":"response","condition":"nonSeqPartial","trueTheta":0.2,"classrooms":["C","D"],"studentTrueClassroom":"D","exampleSet":"first","trial_type":"survey-html-form","trial_index":189,"time_elapsed":2452619,"internal_node_id":"0.0-176.0-0.0","params":{"nStudents":24,"maxFlips":30,"completionMinutes":45,"basePay":8,"maxBonus":9,"perTrialBonus":0.5,"perTrialBonusThreshold":0.05,"exampleCost":0.01},"classroomParams":{"A":{"a":1,"b":4},"B":{"a":4,"b":1},"C":{"a":2,"b":8},"D":{"a":8,"b":2}},"conditions":["nonSeqFull","nonSeqPartial","seqNoFeedback","seqFeedback"],"classroomPairings":[["A","B"],["C","D"]],"coinWeights":[0.2,0.5,0.8],"subjectId":"A3KACB3ERCT0DG","assignmentId":"3HL8HNGX46NK7PKE1T6WLAD7X8NF9O","hitId":"32TZXEA1OL6QYKM0MXQIQH2ABHN14I","url":"https://gershmanlab.com/experiments/alicia/teaching/experiment/?hitId=32TZXEA1OL6QYKM0MXQIQH2ABHN14I&workerId=A3KACB3ERCT0DG&assignmentId=3HL8HNGX46NK7PKE1T6WLAD7X8NF9O&a=XHLH9&tp_a=XHLH9&b=3HL8HNGX46NK7PKE1T6WLAD7X8NF9O&tp_b=3HL8HNGX46NK7PKE1T6WLAD7X8NF9O&c=365799&tp_c=365799","heads":2,"tails":8,"studentIndex":22,"studentTrueHypers":{"a":8,"b":2},"studentGuess":0.5,"delta":0.3,"totalExamples":10,"bonus":0,"bonusSoFar":1.93},{"rt":23326,"response":{"heads":"16","tails":"4"},"type":"response","condition":"seqFeedback","trueTheta":0.8,"classrooms":["A","B"],"studentTrueClassroom":"A","exampleSet":"first","trial_type":"survey-html-form","trial_index":195,"time_elapsed":2505600,"internal_node_id":"0.0-182.0-0.0","params":{"nStudents":24,"maxFlips":30,"completionMinutes":45,"basePay":8,"maxBonus":9,"perTrialBonus":0.5,"perTrialBonusThreshold":0.05,"exampleCost":0.01},"classroomParams":{"A":{"a":1,"b":4},"B":{"a":4,"b":1},"C":{"a":2,"b":8},"D":{"a":8,"b":2}},"conditions":["nonSeqFull","nonSeqPartial","seqNoFeedback","seqFeedback"],"classroomPairings":[["A","B"],["C","D"]],"coinWeights":[0.2,0.5,0.8],"subjectId":"A3KACB3ERCT0DG","assignmentId":"3HL8HNGX46NK7PKE1T6WLAD7X8NF9O","hitId":"32TZXEA1OL6QYKM0MXQIQH2ABHN14I","url":"https://gershmanlab.com/experiments/alicia/teaching/experiment/?hitId=32TZXEA1OL6QYKM0MXQIQH2ABHN14I&workerId=A3KACB3ERCT0DG&assignmentId=3HL8HNGX46NK7PKE1T6WLAD7X8NF9O&a=XHLH9&tp_a=XHLH9&b=3HL8HNGX46NK7PKE1T6WLAD7X8NF9O&tp_b=3HL8HNGX46NK7PKE1T6WLAD7X8NF9O&c=365799&tp_c=365799","heads":16,"tails":4,"studentIndex":23,"studentTrueHypers":{"a":1,"b":4},"studentGuess":0.68,"delta":0.12,"totalExamples":20,"bonusSoFar":1.93},{"rt":10797,"response":{"heads":"8","tails":"2"},"type":"response","condition":"seqFeedback","trueTheta":0.8,"classrooms":["A","B"],"studentTrueClassroom":"A","exampleSet":"second","trial_type":"survey-html-form","trial_index":199,"time_elapsed":2526426,"internal_node_id":"0.0-186.0-0.0","params":{"nStudents":24,"maxFlips":30,"completionMinutes":45,"basePay":8,"maxBonus":9,"perTrialBonus":0.5,"perTrialBonusThreshold":0.05,"exampleCost":0.01},"classroomParams":{"A":{"a":1,"b":4},"B":{"a":4,"b":1},"C":{"a":2,"b":8},"D":{"a":8,"b":2}},"conditions":["nonSeqFull","nonSeqPartial","seqNoFeedback","seqFeedback"],"classroomPairings":[["A","B"],["C","D"]],"coinWeights":[0.2,0.5,0.8],"subjectId":"A3KACB3ERCT0DG","assignmentId":"3HL8HNGX46NK7PKE1T6WLAD7X8NF9O","hitId":"32TZXEA1OL6QYKM0MXQIQH2ABHN14I","url":"https://gershmanlab.com/experiments/alicia/teaching/experiment/?hitId=32TZXEA1OL6QYKM0MXQIQH2ABHN14I&workerId=A3KACB3ERCT0DG&assignmentId=3HL8HNGX46NK7PKE1T6WLAD7X8NF9O&a=XHLH9&tp_a=XHLH9&b=3HL8HNGX46NK7PKE1T6WLAD7X8NF9O&tp_b=3HL8HNGX46NK7PKE1T6WLAD7X8NF9O&c=365799&tp_c=365799","firstResponseHeads":16,"firstResponseTails":4,"secondResponseHeads":8,"secondResponseTails":2,"totalHeads":24,"totalTails":6,"studentIndex":23,"studentTrueHypers":{"a":1,"b":4},"studentGuess":0.7142857142857143,"delta":0.08571428571428574,"bonus":0,"bonusSoFar":1.93,"totalExamples":30},{"rt":9442,"response":{"gender":"female","age":"48","understood":"yes","comments":""},"type":"response","trial_type":"survey-html-form","trial_index":203,"time_elapsed":2544215,"internal_node_id":"0.0-191.0","params":{"nStudents":24,"maxFlips":30,"completionMinutes":45,"basePay":8,"maxBonus":9,"perTrialBonus":0.5,"perTrialBonusThreshold":0.05,"exampleCost":0.01},"classroomParams":{"A":{"a":1,"b":4},"B":{"a":4,"b":1},"C":{"a":2,"b":8},"D":{"a":8,"b":2}},"conditions":["nonSeqFull","nonSeqPartial","seqNoFeedback","seqFeedback"],"classroomPairings":[["A","B"],["C","D"]],"coinWeights":[0.2,0.5,0.8],"subjectId":"A3KACB3ERCT0DG","assignmentId":"3HL8HNGX46NK7PKE1T6WLAD7X8NF9O","hitId":"32TZXEA1OL6QYKM0MXQIQH2ABHN14I","url":"https://gershmanlab.com/experiments/alicia/teaching/experiment/?hitId=32TZXEA1OL6QYKM0MXQIQH2ABHN14I&workerId=A3KACB3ERCT0DG&assignmentId=3HL8HNGX46NK7PKE1T6WLAD7X8NF9O&a=XHLH9&tp_a=XHLH9&b=3HL8HNGX46NK7PKE1T6WLAD7X8NF9O&tp_b=3HL8HNGX46NK7PKE1T6WLAD7X8NF9O&c=365799&tp_c=365799","totalBonus":1.93}]