[{"rt":26845,"response":{"heads":"7","tails":"1"},"type":"response","condition":"nonSeqFull","trueTheta":0.5,"classrooms":["C","D"],"studentTrueClassroom":"C","exampleSet":"first","trial_type":"survey-html-form","trial_index":10,"time_elapsed":309380,"internal_node_id":"0.0-6.0-0.0","params":{"nStudents":24,"maxFlips":30,"completionMinutes":45,"basePay":8,"maxBonus":9,"perTrialBonus":0.5,"perTrialBonusThreshold":0.05,"exampleCost":0.01},"classroomParams":{"A":{"a":1,"b":4},"B":{"a":4,"b":1},"C":{"a":2,"b":8},"D":{"a":8,"b":2}},"conditions":["nonSeqFull","nonSeqPartial","seqNoFeedback","seqFeedback"],"classroomPairings":[["A","B"],["C","D"]],"coinWeights":[0.2,0.5,0.8],"subjectId":"A3KVKK1XLBTSN3","assignmentId":"3WOKGM4L722WH89U006TFTLSM400OX","hitId":"34XASH8KLQ89J2U8D314D7180O4PMV","url":"https://gershmanlab.com/experiments/alicia/teaching/experiment/?hitId=34XASH8KLQ89J2U8D314D7180O4PMV&workerId=A3KVKK1XLBTSN3&assignmentId=3WOKGM4L722WH89U006TFTLSM400OX&a=LGOW7&tp_a=LGOW7&b=3WOKGM4L722WH89U006TFTLSM400OX&tp_b=3WOKGM4L722WH89U006TFTLSM400OX&c=365717&tp_c=365717","heads":7,"tails":1,"studentIndex":0,"studentTrueHypers":{"a":2,"b":8},"studentGuess":0.5,"delta":0,"totalExamples":8,"bonus":0.42,"bonusSoFar":0.42},{"rt":28010,"response":{"heads":"8","tails":"2"},"type":"response","condition":"seqFeedback","trueTheta":0.8,"classrooms":["A","B"],"studentTrueClassroom":"A","exampleSet":"first","trial_type":"survey-html-form","trial_index":16,"time_elapsed":354609,"internal_node_id":"0.0-12.0-0.0","params":{"nStudents":24,"maxFlips":30,"completionMinutes":45,"basePay":8,"maxBonus":9,"perTrialBonus":0.5,"perTrialBonusThreshold":0.05,"exampleCost":0.01},"classroomParams":{"A":{"a":1,"b":4},"B":{"a":4,"b":1},"C":{"a":2,"b":8},"D":{"a":8,"b":2}},"conditions":["nonSeqFull","nonSeqPartial","seqNoFeedback","seqFeedback"],"classroomPairings":[["A","B"],["C","D"]],"coinWeights":[0.2,0.5,0.8],"subjectId":"A3KVKK1XLBTSN3","assignmentId":"3WOKGM4L722WH89U006TFTLSM400OX","hitId":"34XASH8KLQ89J2U8D314D7180O4PMV","url":"https://gershmanlab.com/experiments/alicia/teaching/experiment/?hitId=34XASH8KLQ89J2U8D314D7180O4PMV&workerId=A3KVKK1XLBTSN3&assignmentId=3WOKGM4L722WH89U006TFTLSM400OX&a=LGOW7&tp_a=LGOW7&b=3WOKGM4L722WH89U006TFTLSM400OX&tp_b=3WOKGM4L722WH89U006TFTLSM400OX&c=365717&tp_c=365717","heads":8,"tails":2,"studentIndex":1,"studentTrueHypers":{"a":1,"b":4},"studentGuess":0.6,"delta":0.20000000000000007,"totalExamples":10,"bonusSoFar":0.42},{"rt":25911,"response":{"heads":"15","tails":"3"},"type":"response","condition":"seqFeedback","trueTheta":0.8,"classrooms":["A","B"],"studentTrueClassroom":"A","exampleSet":"second","trial_type":"survey-html-form","trial_index":20,"time_elapsed":391393,"internal_node_id":"0.0-16.0-0.0","params":{"nStudents":24,"maxFlips":30,"completionMinutes":45,"basePay":8,"maxBonus":9,"perTrialBonus":0.5,"perTrialBonusThreshold":0.05,"exampleCost":0.01},"classroomParams":{"A":{"a":1,"b":4},"B":{"a":4,"b":1},"C":{"a":2,"b":8},"D":{"a":8,"b":2}},"conditions":["nonSeqFull","nonSeqPartial","seqNoFeedback","seqFeedback"],"classroomPairings":[["A","B"],["C","D"]],"coinWeights":[0.2,0.5,0.8],"subjectId":"A3KVKK1XLBTSN3","assignmentId":"3WOKGM4L722WH89U006TFTLSM400OX","hitId":"34XASH8KLQ89J2U8D314D7180O4PMV","url":"https://gershmanlab.com/experiments/alicia/teaching/experiment/?hitId=34XASH8KLQ89J2U8D314D7180O4PMV&workerId=A3KVKK1XLBTSN3&assignmentId=3WOKGM4L722WH89U006TFTLSM400OX&a=LGOW7&tp_a=LGOW7&b=3WOKGM4L722WH89U006TFTLSM400OX&tp_b=3WOKGM4L722WH89U006TFTLSM400OX&c=365717&tp_c=365717","firstResponseHeads":8,"firstResponseTails":2,"secondResponseHeads":15,"secondResponseTails":3,"totalHeads":23,"totalTails":5,"studentIndex":1,"studentTrueHypers":{"a":1,"b":4},"studentGuess":0.7272727272727273,"delta":0.07272727272727275,"bonus":0,"bonusSoFar":0.42,"totalExamples":28},{"rt":12713,"response":{"heads":"3","tails":"15"},"type":"response","condition":"nonSeqPartial","trueTheta":0.2,"classrooms":["A","B"],"studentTrueClassroom":"B","exampleSet":"first","trial_type":"survey-html-form","trial_index":26,"time_elapsed":416683,"internal_node_id":"0.0-22.0-0.0","params":{"nStudents":24,"maxFlips":30,"completionMinutes":45,"basePay":8,"maxBonus":9,"perTrialBonus":0.5,"perTrialBonusThreshold":0.05,"exampleCost":0.01},"classroomParams":{"A":{"a":1,"b":4},"B":{"a":4,"b":1},"C":{"a":2,"b":8},"D":{"a":8,"b":2}},"conditions":["nonSeqFull","nonSeqPartial","seqNoFeedback","seqFeedback"],"classroomPairings":[["A","B"],["C","D"]],"coinWeights":[0.2,0.5,0.8],"subjectId":"A3KVKK1XLBTSN3","assignmentId":"3WOKGM4L722WH89U006TFTLSM400OX","hitId":"34XASH8KLQ89J2U8D314D7180O4PMV","url":"https://gershmanlab.com/experiments/alicia/teaching/experiment/?hitId=34XASH8KLQ89J2U8D314D7180O4PMV&workerId=A3KVKK1XLBTSN3&assignmentId=3WOKGM4L722WH89U006TFTLSM400OX&a=LGOW7&tp_a=LGOW7&b=3WOKGM4L722WH89U006TFTLSM400OX&tp_b=3WOKGM4L722WH89U006TFTLSM400OX&c=365717&tp_c=365717","heads":3,"tails":15,"studentIndex":2,"studentTrueHypers":{"a":4,"b":1},"studentGuess":0.30434782608695654,"delta":0.10434782608695653,"totalExamples":18,"bonus":0,"bonusSoFar":0.42},{"rt":11059,"response":{"heads":"20","tails":"4"},"type":"response","condition":"nonSeqFull","trueTheta":0.8,"classrooms":["C","D"],"studentTrueClassroom":"C","exampleSet":"first","trial_type":"survey-html-form","trial_index":32,"time_elapsed":440929,"internal_node_id":"0.0-28.0-0.0","params":{"nStudents":24,"maxFlips":30,"completionMinutes":45,"basePay":8,"maxBonus":9,"perTrialBonus":0.5,"perTrialBonusThreshold":0.05,"exampleCost":0.01},"classroomParams":{"A":{"a":1,"b":4},"B":{"a":4,"b":1},"C":{"a":2,"b":8},"D":{"a":8,"b":2}},"conditions":["nonSeqFull","nonSeqPartial","seqNoFeedback","seqFeedback"],"classroomPairings":[["A","B"],["C","D"]],"coinWeights":[0.2,0.5,0.8],"subjectId":"A3KVKK1XLBTSN3","assignmentId":"3WOKGM4L722WH89U006TFTLSM400OX","hitId":"34XASH8KLQ89J2U8D314D7180O4PMV","url":"https://gershmanlab.com/experiments/alicia/teaching/experiment/?hitId=34XASH8KLQ89J2U8D314D7180O4PMV&workerId=A3KVKK1XLBTSN3&assignmentId=3WOKGM4L722WH89U006TFTLSM400OX&a=LGOW7&tp_a=LGOW7&b=3WOKGM4L722WH89U006TFTLSM400OX&tp_b=3WOKGM4L722WH89U006TFTLSM400OX&c=365717&tp_c=365717","heads":20,"tails":4,"studentIndex":3,"studentTrueHypers":{"a":2,"b":8},"studentGuess":0.6470588235294118,"delta":0.15294117647058825,"totalExamples":24,"bonus":0,"bonusSoFar":0.42},{"rt":6525,"response":{"heads":"8","tails":"2"},"type":"response","condition":"seqFeedback","trueTheta":0.8,"classrooms":["C","D"],"studentTrueClassroom":"D","exampleSet":"first","trial_type":"survey-html-form","trial_index":38,"time_elapsed":461370,"internal_node_id":"0.0-34.0-0.0","params":{"nStudents":24,"maxFlips":30,"completionMinutes":45,"basePay":8,"maxBonus":9,"perTrialBonus":0.5,"perTrialBonusThreshold":0.05,"exampleCost":0.01},"classroomParams":{"A":{"a":1,"b":4},"B":{"a":4,"b":1},"C":{"a":2,"b":8},"D":{"a":8,"b":2}},"conditions":["nonSeqFull","nonSeqPartial","seqNoFeedback","seqFeedback"],"classroomPairings":[["A","B"],["C","D"]],"coinWeights":[0.2,0.5,0.8],"subjectId":"A3KVKK1XLBTSN3","assignmentId":"3WOKGM4L722WH89U006TFTLSM400OX","hitId":"34XASH8KLQ89J2U8D314D7180O4PMV","url":"https://gershmanlab.com/experiments/alicia/teaching/experiment/?hitId=34XASH8KLQ89J2U8D314D7180O4PMV&workerId=A3KVKK1XLBTSN3&assignmentId=3WOKGM4L722WH89U006TFTLSM400OX&a=LGOW7&tp_a=LGOW7&b=3WOKGM4L722WH89U006TFTLSM400OX&tp_b=3WOKGM4L722WH89U006TFTLSM400OX&c=365717&tp_c=365717","heads":8,"tails":2,"studentIndex":4,"studentTrueHypers":{"a":8,"b":2},"studentGuess":0.8,"delta":0,"totalExamples":10,"bonusSoFar":0.42},{"rt":4956,"response":{"heads":"8","tails":"2"},"type":"response","condition":"seqFeedback","trueTheta":0.8,"classrooms":["C","D"],"studentTrueClassroom":"D","exampleSet":"second","trial_type":"survey-html-form","trial_index":42,"time_elapsed":475679,"internal_node_id":"0.0-38.0-0.0","params":{"nStudents":24,"maxFlips":30,"completionMinutes":45,"basePay":8,"maxBonus":9,"perTrialBonus":0.5,"perTrialBonusThreshold":0.05,"exampleCost":0.01},"classroomParams":{"A":{"a":1,"b":4},"B":{"a":4,"b":1},"C":{"a":2,"b":8},"D":{"a":8,"b":2}},"conditions":["nonSeqFull","nonSeqPartial","seqNoFeedback","seqFeedback"],"classroomPairings":[["A","B"],["C","D"]],"coinWeights":[0.2,0.5,0.8],"subjectId":"A3KVKK1XLBTSN3","assignmentId":"3WOKGM4L722WH89U006TFTLSM400OX","hitId":"34XASH8KLQ89J2U8D314D7180O4PMV","url":"https://gershmanlab.com/experiments/alicia/teaching/experiment/?hitId=34XASH8KLQ89J2U8D314D7180O4PMV&workerId=A3KVKK1XLBTSN3&assignmentId=3WOKGM4L722WH89U006TFTLSM400OX&a=LGOW7&tp_a=LGOW7&b=3WOKGM4L722WH89U006TFTLSM400OX&tp_b=3WOKGM4L722WH89U006TFTLSM400OX&c=365717&tp_c=365717","firstResponseHeads":8,"firstResponseTails":2,"secondResponseHeads":8,"secondResponseTails":2,"totalHeads":16,"totalTails":4,"studentIndex":4,"studentTrueHypers":{"a":8,"b":2},"studentGuess":0.8,"delta":0,"bonus":0.3,"bonusSoFar":0.72,"totalExamples":20},{"rt":5224,"response":{"heads":"4","tails":"4"},"type":"response","condition":"nonSeqPartial","trueTheta":0.5,"classrooms":["C","D"],"studentTrueClassroom":"C","exampleSet":"first","trial_type":"survey-html-form","trial_index":48,"time_elapsed":496557,"internal_node_id":"0.0-44.0-0.0","params":{"nStudents":24,"maxFlips":30,"completionMinutes":45,"basePay":8,"maxBonus":9,"perTrialBonus":0.5,"perTrialBonusThreshold":0.05,"exampleCost":0.01},"classroomParams":{"A":{"a":1,"b":4},"B":{"a":4,"b":1},"C":{"a":2,"b":8},"D":{"a":8,"b":2}},"conditions":["nonSeqFull","nonSeqPartial","seqNoFeedback","seqFeedback"],"classroomPairings":[["A","B"],["C","D"]],"coinWeights":[0.2,0.5,0.8],"subjectId":"A3KVKK1XLBTSN3","assignmentId":"3WOKGM4L722WH89U006TFTLSM400OX","hitId":"34XASH8KLQ89J2U8D314D7180O4PMV","url":"https://gershmanlab.com/experiments/alicia/teaching/experiment/?hitId=34XASH8KLQ89J2U8D314D7180O4PMV&workerId=A3KVKK1XLBTSN3&assignmentId=3WOKGM4L722WH89U006TFTLSM400OX&a=LGOW7&tp_a=LGOW7&b=3WOKGM4L722WH89U006TFTLSM400OX&tp_b=3WOKGM4L722WH89U006TFTLSM400OX&c=365717&tp_c=365717","heads":4,"tails":4,"studentIndex":5,"studentTrueHypers":{"a":2,"b":8},"studentGuess":0.3333333333333333,"delta":0.16666666666666669,"totalExamples":8,"bonus":0,"bonusSoFar":0.72},{"rt":3029,"response":{"heads":"4","tails":"4"},"type":"response","condition":"seqNoFeedback","trueTheta":0.5,"classrooms":["A","B"],"studentTrueClassroom":"B","exampleSet":"first","trial_type":"survey-html-form","trial_index":54,"time_elapsed":512717,"internal_node_id":"0.0-50.0-0.0","params":{"nStudents":24,"maxFlips":30,"completionMinutes":45,"basePay":8,"maxBonus":9,"perTrialBonus":0.5,"perTrialBonusThreshold":0.05,"exampleCost":0.01},"classroomParams":{"A":{"a":1,"b":4},"B":{"a":4,"b":1},"C":{"a":2,"b":8},"D":{"a":8,"b":2}},"conditions":["nonSeqFull","nonSeqPartial","seqNoFeedback","seqFeedback"],"classroomPairings":[["A","B"],["C","D"]],"coinWeights":[0.2,0.5,0.8],"subjectId":"A3KVKK1XLBTSN3","assignmentId":"3WOKGM4L722WH89U006TFTLSM400OX","hitId":"34XASH8KLQ89J2U8D314D7180O4PMV","url":"https://gershmanlab.com/experiments/alicia/teaching/experiment/?hitId=34XASH8KLQ89J2U8D314D7180O4PMV&workerId=A3KVKK1XLBTSN3&assignmentId=3WOKGM4L722WH89U006TFTLSM400OX&a=LGOW7&tp_a=LGOW7&b=3WOKGM4L722WH89U006TFTLSM400OX&tp_b=3WOKGM4L722WH89U006TFTLSM400OX&c=365717&tp_c=365717","heads":4,"tails":4,"studentIndex":6,"studentTrueHypers":{"a":4,"b":1},"studentGuess":0.6153846153846154,"delta":0.11538461538461542,"totalExamples":8,"bonusSoFar":0.72},{"rt":5918,"response":{"heads":"5","tails":"5"},"type":"response","condition":"seqNoFeedback","trueTheta":0.5,"classrooms":["A","B"],"studentTrueClassroom":"B","exampleSet":"second","trial_type":"survey-html-form","trial_index":57,"time_elapsed":523897,"internal_node_id":"0.0-53.0-0.0","params":{"nStudents":24,"maxFlips":30,"completionMinutes":45,"basePay":8,"maxBonus":9,"perTrialBonus":0.5,"perTrialBonusThreshold":0.05,"exampleCost":0.01},"classroomParams":{"A":{"a":1,"b":4},"B":{"a":4,"b":1},"C":{"a":2,"b":8},"D":{"a":8,"b":2}},"conditions":["nonSeqFull","nonSeqPartial","seqNoFeedback","seqFeedback"],"classroomPairings":[["A","B"],["C","D"]],"coinWeights":[0.2,0.5,0.8],"subjectId":"A3KVKK1XLBTSN3","assignmentId":"3WOKGM4L722WH89U006TFTLSM400OX","hitId":"34XASH8KLQ89J2U8D314D7180O4PMV","url":"https://gershmanlab.com/experiments/alicia/teaching/experiment/?hitId=34XASH8KLQ89J2U8D314D7180O4PMV&workerId=A3KVKK1XLBTSN3&assignmentId=3WOKGM4L722WH89U006TFTLSM400OX&a=LGOW7&tp_a=LGOW7&b=3WOKGM4L722WH89U006TFTLSM400OX&tp_b=3WOKGM4L722WH89U006TFTLSM400OX&c=365717&tp_c=365717","firstResponseHeads":4,"firstResponseTails":4,"secondResponseHeads":5,"secondResponseTails":5,"totalHeads":9,"totalTails":9,"studentIndex":6,"studentTrueHypers":{"a":4,"b":1},"studentGuess":0.5652173913043478,"delta":0.06521739130434778,"bonus":0,"bonusSoFar":0.72,"totalExamples":18},{"rt":5075,"response":{"heads":"2","tails":"8"},"type":"response","condition":"seqFeedback","trueTheta":0.2,"classrooms":["A","B"],"studentTrueClassroom":"B","exampleSet":"first","trial_type":"survey-html-form","trial_index":63,"time_elapsed":546483,"internal_node_id":"0.0-59.0-0.0","params":{"nStudents":24,"maxFlips":30,"completionMinutes":45,"basePay":8,"maxBonus":9,"perTrialBonus":0.5,"perTrialBonusThreshold":0.05,"exampleCost":0.01},"classroomParams":{"A":{"a":1,"b":4},"B":{"a":4,"b":1},"C":{"a":2,"b":8},"D":{"a":8,"b":2}},"conditions":["nonSeqFull","nonSeqPartial","seqNoFeedback","seqFeedback"],"classroomPairings":[["A","B"],["C","D"]],"coinWeights":[0.2,0.5,0.8],"subjectId":"A3KVKK1XLBTSN3","assignmentId":"3WOKGM4L722WH89U006TFTLSM400OX","hitId":"34XASH8KLQ89J2U8D314D7180O4PMV","url":"https://gershmanlab.com/experiments/alicia/teaching/experiment/?hitId=34XASH8KLQ89J2U8D314D7180O4PMV&workerId=A3KVKK1XLBTSN3&assignmentId=3WOKGM4L722WH89U006TFTLSM400OX&a=LGOW7&tp_a=LGOW7&b=3WOKGM4L722WH89U006TFTLSM400OX&tp_b=3WOKGM4L722WH89U006TFTLSM400OX&c=365717&tp_c=365717","heads":2,"tails":8,"studentIndex":7,"studentTrueHypers":{"a":4,"b":1},"studentGuess":0.4,"delta":0.2,"totalExamples":10,"bonusSoFar":0.72},{"rt":8123,"response":{"heads":"4","tails":"16"},"type":"response","condition":"seqFeedback","trueTheta":0.2,"classrooms":["A","B"],"studentTrueClassroom":"B","exampleSet":"second","trial_type":"survey-html-form","trial_index":67,"time_elapsed":564638,"internal_node_id":"0.0-63.0-0.0","params":{"nStudents":24,"maxFlips":30,"completionMinutes":45,"basePay":8,"maxBonus":9,"perTrialBonus":0.5,"perTrialBonusThreshold":0.05,"exampleCost":0.01},"classroomParams":{"A":{"a":1,"b":4},"B":{"a":4,"b":1},"C":{"a":2,"b":8},"D":{"a":8,"b":2}},"conditions":["nonSeqFull","nonSeqPartial","seqNoFeedback","seqFeedback"],"classroomPairings":[["A","B"],["C","D"]],"coinWeights":[0.2,0.5,0.8],"subjectId":"A3KVKK1XLBTSN3","assignmentId":"3WOKGM4L722WH89U006TFTLSM400OX","hitId":"34XASH8KLQ89J2U8D314D7180O4PMV","url":"https://gershmanlab.com/experiments/alicia/teaching/experiment/?hitId=34XASH8KLQ89J2U8D314D7180O4PMV&workerId=A3KVKK1XLBTSN3&assignmentId=3WOKGM4L722WH89U006TFTLSM400OX&a=LGOW7&tp_a=LGOW7&b=3WOKGM4L722WH89U006TFTLSM400OX&tp_b=3WOKGM4L722WH89U006TFTLSM400OX&c=365717&tp_c=365717","firstResponseHeads":2,"firstResponseTails":8,"secondResponseHeads":4,"secondResponseTails":16,"totalHeads":6,"totalTails":24,"studentIndex":7,"studentTrueHypers":{"a":4,"b":1},"studentGuess":0.2857142857142857,"delta":0.08571428571428569,"bonus":0,"bonusSoFar":0.72,"totalExamples":30},{"rt":5467,"response":{"heads":"4","tails":"16"},"type":"response","condition":"seqNoFeedback","trueTheta":0.2,"classrooms":["A","B"],"studentTrueClassroom":"A","exampleSet":"first","trial_type":"survey-html-form","trial_index":73,"time_elapsed":609088,"internal_node_id":"0.0-69.0-0.0","params":{"nStudents":24,"maxFlips":30,"completionMinutes":45,"basePay":8,"maxBonus":9,"perTrialBonus":0.5,"perTrialBonusThreshold":0.05,"exampleCost":0.01},"classroomParams":{"A":{"a":1,"b":4},"B":{"a":4,"b":1},"C":{"a":2,"b":8},"D":{"a":8,"b":2}},"conditions":["nonSeqFull","nonSeqPartial","seqNoFeedback","seqFeedback"],"classroomPairings":[["A","B"],["C","D"]],"coinWeights":[0.2,0.5,0.8],"subjectId":"A3KVKK1XLBTSN3","assignmentId":"3WOKGM4L722WH89U006TFTLSM400OX","hitId":"34XASH8KLQ89J2U8D314D7180O4PMV","url":"https://gershmanlab.com/experiments/alicia/teaching/experiment/?hitId=34XASH8KLQ89J2U8D314D7180O4PMV&workerId=A3KVKK1XLBTSN3&assignmentId=3WOKGM4L722WH89U006TFTLSM400OX&a=LGOW7&tp_a=LGOW7&b=3WOKGM4L722WH89U006TFTLSM400OX&tp_b=3WOKGM4L722WH89U006TFTLSM400OX&c=365717&tp_c=365717","heads":4,"tails":16,"studentIndex":8,"studentTrueHypers":{"a":1,"b":4},"studentGuess":0.2,"delta":0,"totalExamples":20,"bonusSoFar":0.72},{"rt":5008,"response":{"heads":"4","tails":"16"},"type":"response","condition":"seqNoFeedback","trueTheta":0.2,"classrooms":["A","B"],"studentTrueClassroom":"A","exampleSet":"second","trial_type":"survey-html-form","trial_index":76,"time_elapsed":620358,"internal_node_id":"0.0-72.0-0.0","params":{"nStudents":24,"maxFlips":30,"completionMinutes":45,"basePay":8,"maxBonus":9,"perTrialBonus":0.5,"perTrialBonusThreshold":0.05,"exampleCost":0.01},"classroomParams":{"A":{"a":1,"b":4},"B":{"a":4,"b":1},"C":{"a":2,"b":8},"D":{"a":8,"b":2}},"conditions":["nonSeqFull","nonSeqPartial","seqNoFeedback","seqFeedback"],"classroomPairings":[["A","B"],["C","D"]],"coinWeights":[0.2,0.5,0.8],"subjectId":"A3KVKK1XLBTSN3","assignmentId":"3WOKGM4L722WH89U006TFTLSM400OX","hitId":"34XASH8KLQ89J2U8D314D7180O4PMV","url":"https://gershmanlab.com/experiments/alicia/teaching/experiment/?hitId=34XASH8KLQ89J2U8D314D7180O4PMV&workerId=A3KVKK1XLBTSN3&assignmentId=3WOKGM4L722WH89U006TFTLSM400OX&a=LGOW7&tp_a=LGOW7&b=3WOKGM4L722WH89U006TFTLSM400OX&tp_b=3WOKGM4L722WH89U006TFTLSM400OX&c=365717&tp_c=365717","firstResponseHeads":4,"firstResponseTails":16,"secondResponseHeads":4,"secondResponseTails":16,"totalHeads":8,"totalTails":32,"studentIndex":8,"studentTrueHypers":{"a":1,"b":4},"studentGuess":0.2,"delta":0,"bonus":0.1,"bonusSoFar":0.82,"totalExamples":40},{"rt":10650,"response":{"heads":"3","tails":"15"},"type":"response","condition":"nonSeqPartial","trueTheta":0.2,"classrooms":["C","D"],"studentTrueClassroom":"C","exampleSet":"first","trial_type":"survey-html-form","trial_index":82,"time_elapsed":645128,"internal_node_id":"0.0-78.0-0.0","params":{"nStudents":24,"maxFlips":30,"completionMinutes":45,"basePay":8,"maxBonus":9,"perTrialBonus":0.5,"perTrialBonusThreshold":0.05,"exampleCost":0.01},"classroomParams":{"A":{"a":1,"b":4},"B":{"a":4,"b":1},"C":{"a":2,"b":8},"D":{"a":8,"b":2}},"conditions":["nonSeqFull","nonSeqPartial","seqNoFeedback","seqFeedback"],"classroomPairings":[["A","B"],["C","D"]],"coinWeights":[0.2,0.5,0.8],"subjectId":"A3KVKK1XLBTSN3","assignmentId":"3WOKGM4L722WH89U006TFTLSM400OX","hitId":"34XASH8KLQ89J2U8D314D7180O4PMV","url":"https://gershmanlab.com/experiments/alicia/teaching/experiment/?hitId=34XASH8KLQ89J2U8D314D7180O4PMV&workerId=A3KVKK1XLBTSN3&assignmentId=3WOKGM4L722WH89U006TFTLSM400OX&a=LGOW7&tp_a=LGOW7&b=3WOKGM4L722WH89U006TFTLSM400OX&tp_b=3WOKGM4L722WH89U006TFTLSM400OX&c=365717&tp_c=365717","heads":3,"tails":15,"studentIndex":9,"studentTrueHypers":{"a":2,"b":8},"studentGuess":0.17857142857142858,"delta":0.021428571428571436,"totalExamples":18,"bonus":0.32,"bonusSoFar":1.14},{"rt":17411,"response":{"heads":"4","tails":"18"},"type":"response","condition":"nonSeqFull","trueTheta":0.2,"classrooms":["C","D"],"studentTrueClassroom":"D","exampleSet":"first","trial_type":"survey-html-form","trial_index":88,"time_elapsed":676706,"internal_node_id":"0.0-84.0-0.0","params":{"nStudents":24,"maxFlips":30,"completionMinutes":45,"basePay":8,"maxBonus":9,"perTrialBonus":0.5,"perTrialBonusThreshold":0.05,"exampleCost":0.01},"classroomParams":{"A":{"a":1,"b":4},"B":{"a":4,"b":1},"C":{"a":2,"b":8},"D":{"a":8,"b":2}},"conditions":["nonSeqFull","nonSeqPartial","seqNoFeedback","seqFeedback"],"classroomPairings":[["A","B"],["C","D"]],"coinWeights":[0.2,0.5,0.8],"subjectId":"A3KVKK1XLBTSN3","assignmentId":"3WOKGM4L722WH89U006TFTLSM400OX","hitId":"34XASH8KLQ89J2U8D314D7180O4PMV","url":"https://gershmanlab.com/experiments/alicia/teaching/experiment/?hitId=34XASH8KLQ89J2U8D314D7180O4PMV&workerId=A3KVKK1XLBTSN3&assignmentId=3WOKGM4L722WH89U006TFTLSM400OX&a=LGOW7&tp_a=LGOW7&b=3WOKGM4L722WH89U006TFTLSM400OX&tp_b=3WOKGM4L722WH89U006TFTLSM400OX&c=365717&tp_c=365717","heads":4,"tails":18,"studentIndex":10,"studentTrueHypers":{"a":8,"b":2},"studentGuess":0.375,"delta":0.175,"totalExamples":22,"bonus":0,"bonusSoFar":1.14},{"rt":5011,"response":{"heads":"8","tails":"2"},"type":"response","condition":"nonSeqPartial","trueTheta":0.8,"classrooms":["A","B"],"studentTrueClassroom":"B","exampleSet":"first","trial_type":"survey-html-form","trial_index":94,"time_elapsed":694594,"internal_node_id":"0.0-90.0-0.0","params":{"nStudents":24,"maxFlips":30,"completionMinutes":45,"basePay":8,"maxBonus":9,"perTrialBonus":0.5,"perTrialBonusThreshold":0.05,"exampleCost":0.01},"classroomParams":{"A":{"a":1,"b":4},"B":{"a":4,"b":1},"C":{"a":2,"b":8},"D":{"a":8,"b":2}},"conditions":["nonSeqFull","nonSeqPartial","seqNoFeedback","seqFeedback"],"classroomPairings":[["A","B"],["C","D"]],"coinWeights":[0.2,0.5,0.8],"subjectId":"A3KVKK1XLBTSN3","assignmentId":"3WOKGM4L722WH89U006TFTLSM400OX","hitId":"34XASH8KLQ89J2U8D314D7180O4PMV","url":"https://gershmanlab.com/experiments/alicia/teaching/experiment/?hitId=34XASH8KLQ89J2U8D314D7180O4PMV&workerId=A3KVKK1XLBTSN3&assignmentId=3WOKGM4L722WH89U006TFTLSM400OX&a=LGOW7&tp_a=LGOW7&b=3WOKGM4L722WH89U006TFTLSM400OX&tp_b=3WOKGM4L722WH89U006TFTLSM400OX&c=365717&tp_c=365717","heads":8,"tails":2,"studentIndex":11,"studentTrueHypers":{"a":4,"b":1},"studentGuess":0.8,"delta":0,"totalExamples":10,"bonus":0.4,"bonusSoFar":1.54},{"rt":4700,"response":{"heads":"2","tails":"8"},"type":"response","condition":"seqFeedback","trueTheta":0.2,"classrooms":["C","D"],"studentTrueClassroom":"C","exampleSet":"first","trial_type":"survey-html-form","trial_index":100,"time_elapsed":715446,"internal_node_id":"0.0-96.0-0.0","params":{"nStudents":24,"maxFlips":30,"completionMinutes":45,"basePay":8,"maxBonus":9,"perTrialBonus":0.5,"perTrialBonusThreshold":0.05,"exampleCost":0.01},"classroomParams":{"A":{"a":1,"b":4},"B":{"a":4,"b":1},"C":{"a":2,"b":8},"D":{"a":8,"b":2}},"conditions":["nonSeqFull","nonSeqPartial","seqNoFeedback","seqFeedback"],"classroomPairings":[["A","B"],["C","D"]],"coinWeights":[0.2,0.5,0.8],"subjectId":"A3KVKK1XLBTSN3","assignmentId":"3WOKGM4L722WH89U006TFTLSM400OX","hitId":"34XASH8KLQ89J2U8D314D7180O4PMV","url":"https://gershmanlab.com/experiments/alicia/teaching/experiment/?hitId=34XASH8KLQ89J2U8D314D7180O4PMV&workerId=A3KVKK1XLBTSN3&assignmentId=3WOKGM4L722WH89U006TFTLSM400OX&a=LGOW7&tp_a=LGOW7&b=3WOKGM4L722WH89U006TFTLSM400OX&tp_b=3WOKGM4L722WH89U006TFTLSM400OX&c=365717&tp_c=365717","heads":2,"tails":8,"studentIndex":12,"studentTrueHypers":{"a":2,"b":8},"studentGuess":0.2,"delta":0,"totalExamples":10,"bonusSoFar":1.54},{"rt":4086,"response":{"heads":"2","tails":"8"},"type":"response","condition":"seqFeedback","trueTheta":0.2,"classrooms":["C","D"],"studentTrueClassroom":"C","exampleSet":"second","trial_type":"survey-html-form","trial_index":104,"time_elapsed":728439,"internal_node_id":"0.0-100.0-0.0","params":{"nStudents":24,"maxFlips":30,"completionMinutes":45,"basePay":8,"maxBonus":9,"perTrialBonus":0.5,"perTrialBonusThreshold":0.05,"exampleCost":0.01},"classroomParams":{"A":{"a":1,"b":4},"B":{"a":4,"b":1},"C":{"a":2,"b":8},"D":{"a":8,"b":2}},"conditions":["nonSeqFull","nonSeqPartial","seqNoFeedback","seqFeedback"],"classroomPairings":[["A","B"],["C","D"]],"coinWeights":[0.2,0.5,0.8],"subjectId":"A3KVKK1XLBTSN3","assignmentId":"3WOKGM4L722WH89U006TFTLSM400OX","hitId":"34XASH8KLQ89J2U8D314D7180O4PMV","url":"https://gershmanlab.com/experiments/alicia/teaching/experiment/?hitId=34XASH8KLQ89J2U8D314D7180O4PMV&workerId=A3KVKK1XLBTSN3&assignmentId=3WOKGM4L722WH89U006TFTLSM400OX&a=LGOW7&tp_a=LGOW7&b=3WOKGM4L722WH89U006TFTLSM400OX&tp_b=3WOKGM4L722WH89U006TFTLSM400OX&c=365717&tp_c=365717","firstResponseHeads":2,"firstResponseTails":8,"secondResponseHeads":2,"secondResponseTails":8,"totalHeads":4,"totalTails":16,"studentIndex":12,"studentTrueHypers":{"a":2,"b":8},"studentGuess":0.2,"delta":0,"bonus":0.3,"bonusSoFar":1.84,"totalExamples":20},{"rt":12992,"response":{"heads":"15","tails":"3"},"type":"response","condition":"nonSeqFull","trueTheta":0.8,"classrooms":["A","B"],"studentTrueClassroom":"A","exampleSet":"first","trial_type":"survey-html-form","trial_index":110,"time_elapsed":755997,"internal_node_id":"0.0-106.0-0.0","params":{"nStudents":24,"maxFlips":30,"completionMinutes":45,"basePay":8,"maxBonus":9,"perTrialBonus":0.5,"perTrialBonusThreshold":0.05,"exampleCost":0.01},"classroomParams":{"A":{"a":1,"b":4},"B":{"a":4,"b":1},"C":{"a":2,"b":8},"D":{"a":8,"b":2}},"conditions":["nonSeqFull","nonSeqPartial","seqNoFeedback","seqFeedback"],"classroomPairings":[["A","B"],["C","D"]],"coinWeights":[0.2,0.5,0.8],"subjectId":"A3KVKK1XLBTSN3","assignmentId":"3WOKGM4L722WH89U006TFTLSM400OX","hitId":"34XASH8KLQ89J2U8D314D7180O4PMV","url":"https://gershmanlab.com/experiments/alicia/teaching/experiment/?hitId=34XASH8KLQ89J2U8D314D7180O4PMV&workerId=A3KVKK1XLBTSN3&assignmentId=3WOKGM4L722WH89U006TFTLSM400OX&a=LGOW7&tp_a=LGOW7&b=3WOKGM4L722WH89U006TFTLSM400OX&tp_b=3WOKGM4L722WH89U006TFTLSM400OX&c=365717&tp_c=365717","heads":15,"tails":3,"studentIndex":13,"studentTrueHypers":{"a":1,"b":4},"studentGuess":0.6956521739130435,"delta":0.10434782608695659,"totalExamples":18,"bonus":0,"bonusSoFar":1.84},{"rt":5774,"response":{"heads":"2","tails":"8"},"type":"response","condition":"seqNoFeedback","trueTheta":0.2,"classrooms":["C","D"],"studentTrueClassroom":"D","exampleSet":"first","trial_type":"survey-html-form","trial_index":116,"time_elapsed":779766,"internal_node_id":"0.0-112.0-0.0","params":{"nStudents":24,"maxFlips":30,"completionMinutes":45,"basePay":8,"maxBonus":9,"perTrialBonus":0.5,"perTrialBonusThreshold":0.05,"exampleCost":0.01},"classroomParams":{"A":{"a":1,"b":4},"B":{"a":4,"b":1},"C":{"a":2,"b":8},"D":{"a":8,"b":2}},"conditions":["nonSeqFull","nonSeqPartial","seqNoFeedback","seqFeedback"],"classroomPairings":[["A","B"],["C","D"]],"coinWeights":[0.2,0.5,0.8],"subjectId":"A3KVKK1XLBTSN3","assignmentId":"3WOKGM4L722WH89U006TFTLSM400OX","hitId":"34XASH8KLQ89J2U8D314D7180O4PMV","url":"https://gershmanlab.com/experiments/alicia/teaching/experiment/?hitId=34XASH8KLQ89J2U8D314D7180O4PMV&workerId=A3KVKK1XLBTSN3&assignmentId=3WOKGM4L722WH89U006TFTLSM400OX&a=LGOW7&tp_a=LGOW7&b=3WOKGM4L722WH89U006TFTLSM400OX&tp_b=3WOKGM4L722WH89U006TFTLSM400OX&c=365717&tp_c=365717","heads":2,"tails":8,"studentIndex":14,"studentTrueHypers":{"a":8,"b":2},"studentGuess":0.5,"delta":0.3,"totalExamples":10,"bonusSoFar":1.84},{"rt":13796,"response":{"heads":"2","tails":"8"},"type":"response","condition":"seqNoFeedback","trueTheta":0.2,"classrooms":["C","D"],"studentTrueClassroom":"D","exampleSet":"second","trial_type":"survey-html-form","trial_index":119,"time_elapsed":800575,"internal_node_id":"0.0-115.0-0.0","params":{"nStudents":24,"maxFlips":30,"completionMinutes":45,"basePay":8,"maxBonus":9,"perTrialBonus":0.5,"perTrialBonusThreshold":0.05,"exampleCost":0.01},"classroomParams":{"A":{"a":1,"b":4},"B":{"a":4,"b":1},"C":{"a":2,"b":8},"D":{"a":8,"b":2}},"conditions":["nonSeqFull","nonSeqPartial","seqNoFeedback","seqFeedback"],"classroomPairings":[["A","B"],["C","D"]],"coinWeights":[0.2,0.5,0.8],"subjectId":"A3KVKK1XLBTSN3","assignmentId":"3WOKGM4L722WH89U006TFTLSM400OX","hitId":"34XASH8KLQ89J2U8D314D7180O4PMV","url":"https://gershmanlab.com/experiments/alicia/teaching/experiment/?hitId=34XASH8KLQ89J2U8D314D7180O4PMV&workerId=A3KVKK1XLBTSN3&assignmentId=3WOKGM4L722WH89U006TFTLSM400OX&a=LGOW7&tp_a=LGOW7&b=3WOKGM4L722WH89U006TFTLSM400OX&tp_b=3WOKGM4L722WH89U006TFTLSM400OX&c=365717&tp_c=365717","firstResponseHeads":2,"firstResponseTails":8,"secondResponseHeads":2,"secondResponseTails":8,"totalHeads":4,"totalTails":16,"studentIndex":14,"studentTrueHypers":{"a":8,"b":2},"studentGuess":0.4,"delta":0.2,"bonus":0,"bonusSoFar":1.84,"totalExamples":20},{"rt":3188,"response":{"heads":"8","tails":"2"},"type":"response","condition":"seqNoFeedback","trueTheta":0.8,"classrooms":["C","D"],"studentTrueClassroom":"C","exampleSet":"first","trial_type":"survey-html-form","trial_index":125,"time_elapsed":821376,"internal_node_id":"0.0-121.0-0.0","params":{"nStudents":24,"maxFlips":30,"completionMinutes":45,"basePay":8,"maxBonus":9,"perTrialBonus":0.5,"perTrialBonusThreshold":0.05,"exampleCost":0.01},"classroomParams":{"A":{"a":1,"b":4},"B":{"a":4,"b":1},"C":{"a":2,"b":8},"D":{"a":8,"b":2}},"conditions":["nonSeqFull","nonSeqPartial","seqNoFeedback","seqFeedback"],"classroomPairings":[["A","B"],["C","D"]],"coinWeights":[0.2,0.5,0.8],"subjectId":"A3KVKK1XLBTSN3","assignmentId":"3WOKGM4L722WH89U006TFTLSM400OX","hitId":"34XASH8KLQ89J2U8D314D7180O4PMV","url":"https://gershmanlab.com/experiments/alicia/teaching/experiment/?hitId=34XASH8KLQ89J2U8D314D7180O4PMV&workerId=A3KVKK1XLBTSN3&assignmentId=3WOKGM4L722WH89U006TFTLSM400OX&a=LGOW7&tp_a=LGOW7&b=3WOKGM4L722WH89U006TFTLSM400OX&tp_b=3WOKGM4L722WH89U006TFTLSM400OX&c=365717&tp_c=365717","heads":8,"tails":2,"studentIndex":15,"studentTrueHypers":{"a":2,"b":8},"studentGuess":0.5,"delta":0.30000000000000004,"totalExamples":10,"bonusSoFar":1.84},{"rt":7197,"response":{"heads":"15","tails":"3"},"type":"response","condition":"seqNoFeedback","trueTheta":0.8,"classrooms":["C","D"],"studentTrueClassroom":"C","exampleSet":"second","trial_type":"survey-html-form","trial_index":128,"time_elapsed":834840,"internal_node_id":"0.0-124.0-0.0","params":{"nStudents":24,"maxFlips":30,"completionMinutes":45,"basePay":8,"maxBonus":9,"perTrialBonus":0.5,"perTrialBonusThreshold":0.05,"exampleCost":0.01},"classroomParams":{"A":{"a":1,"b":4},"B":{"a":4,"b":1},"C":{"a":2,"b":8},"D":{"a":8,"b":2}},"conditions":["nonSeqFull","nonSeqPartial","seqNoFeedback","seqFeedback"],"classroomPairings":[["A","B"],["C","D"]],"coinWeights":[0.2,0.5,0.8],"subjectId":"A3KVKK1XLBTSN3","assignmentId":"3WOKGM4L722WH89U006TFTLSM400OX","hitId":"34XASH8KLQ89J2U8D314D7180O4PMV","url":"https://gershmanlab.com/experiments/alicia/teaching/experiment/?hitId=34XASH8KLQ89J2U8D314D7180O4PMV&workerId=A3KVKK1XLBTSN3&assignmentId=3WOKGM4L722WH89U006TFTLSM400OX&a=LGOW7&tp_a=LGOW7&b=3WOKGM4L722WH89U006TFTLSM400OX&tp_b=3WOKGM4L722WH89U006TFTLSM400OX&c=365717&tp_c=365717","firstResponseHeads":8,"firstResponseTails":2,"secondResponseHeads":15,"secondResponseTails":3,"totalHeads":23,"totalTails":5,"studentIndex":15,"studentTrueHypers":{"a":2,"b":8},"studentGuess":0.6578947368421053,"delta":0.14210526315789473,"bonus":0,"bonusSoFar":1.84,"totalExamples":28},{"rt":5343,"response":{"heads":"5","tails":"5"},"type":"response","condition":"nonSeqPartial","trueTheta":0.5,"classrooms":["A","B"],"studentTrueClassroom":"A","exampleSet":"first","trial_type":"survey-html-form","trial_index":134,"time_elapsed":854841,"internal_node_id":"0.0-130.0-0.0","params":{"nStudents":24,"maxFlips":30,"completionMinutes":45,"basePay":8,"maxBonus":9,"perTrialBonus":0.5,"perTrialBonusThreshold":0.05,"exampleCost":0.01},"classroomParams":{"A":{"a":1,"b":4},"B":{"a":4,"b":1},"C":{"a":2,"b":8},"D":{"a":8,"b":2}},"conditions":["nonSeqFull","nonSeqPartial","seqNoFeedback","seqFeedback"],"classroomPairings":[["A","B"],["C","D"]],"coinWeights":[0.2,0.5,0.8],"subjectId":"A3KVKK1XLBTSN3","assignmentId":"3WOKGM4L722WH89U006TFTLSM400OX","hitId":"34XASH8KLQ89J2U8D314D7180O4PMV","url":"https://gershmanlab.com/experiments/alicia/teaching/experiment/?hitId=34XASH8KLQ89J2U8D314D7180O4PMV&workerId=A3KVKK1XLBTSN3&assignmentId=3WOKGM4L722WH89U006TFTLSM400OX&a=LGOW7&tp_a=LGOW7&b=3WOKGM4L722WH89U006TFTLSM400OX&tp_b=3WOKGM4L722WH89U006TFTLSM400OX&c=365717&tp_c=365717","heads":5,"tails":5,"studentIndex":16,"studentTrueHypers":{"a":1,"b":4},"studentGuess":0.4,"delta":0.09999999999999998,"totalExamples":10,"bonus":0,"bonusSoFar":1.84},{"rt":5965,"response":{"heads":"16","tails":"4"},"type":"response","condition":"seqNoFeedback","trueTheta":0.8,"classrooms":["A","B"],"studentTrueClassroom":"B","exampleSet":"first","trial_type":"survey-html-form","trial_index":140,"time_elapsed":874490,"internal_node_id":"0.0-136.0-0.0","params":{"nStudents":24,"maxFlips":30,"completionMinutes":45,"basePay":8,"maxBonus":9,"perTrialBonus":0.5,"perTrialBonusThreshold":0.05,"exampleCost":0.01},"classroomParams":{"A":{"a":1,"b":4},"B":{"a":4,"b":1},"C":{"a":2,"b":8},"D":{"a":8,"b":2}},"conditions":["nonSeqFull","nonSeqPartial","seqNoFeedback","seqFeedback"],"classroomPairings":[["A","B"],["C","D"]],"coinWeights":[0.2,0.5,0.8],"subjectId":"A3KVKK1XLBTSN3","assignmentId":"3WOKGM4L722WH89U006TFTLSM400OX","hitId":"34XASH8KLQ89J2U8D314D7180O4PMV","url":"https://gershmanlab.com/experiments/alicia/teaching/experiment/?hitId=34XASH8KLQ89J2U8D314D7180O4PMV&workerId=A3KVKK1XLBTSN3&assignmentId=3WOKGM4L722WH89U006TFTLSM400OX&a=LGOW7&tp_a=LGOW7&b=3WOKGM4L722WH89U006TFTLSM400OX&tp_b=3WOKGM4L722WH89U006TFTLSM400OX&c=365717&tp_c=365717","heads":16,"tails":4,"studentIndex":17,"studentTrueHypers":{"a":4,"b":1},"studentGuess":0.8,"delta":0,"totalExamples":20,"bonusSoFar":1.84},{"rt":23332,"response":{"heads":"16","tails":"4"},"type":"response","condition":"seqNoFeedback","trueTheta":0.8,"classrooms":["A","B"],"studentTrueClassroom":"B","exampleSet":"second","trial_type":"survey-html-form","trial_index":143,"time_elapsed":905334,"internal_node_id":"0.0-139.0-0.0","params":{"nStudents":24,"maxFlips":30,"completionMinutes":45,"basePay":8,"maxBonus":9,"perTrialBonus":0.5,"perTrialBonusThreshold":0.05,"exampleCost":0.01},"classroomParams":{"A":{"a":1,"b":4},"B":{"a":4,"b":1},"C":{"a":2,"b":8},"D":{"a":8,"b":2}},"conditions":["nonSeqFull","nonSeqPartial","seqNoFeedback","seqFeedback"],"classroomPairings":[["A","B"],["C","D"]],"coinWeights":[0.2,0.5,0.8],"subjectId":"A3KVKK1XLBTSN3","assignmentId":"3WOKGM4L722WH89U006TFTLSM400OX","hitId":"34XASH8KLQ89J2U8D314D7180O4PMV","url":"https://gershmanlab.com/experiments/alicia/teaching/experiment/?hitId=34XASH8KLQ89J2U8D314D7180O4PMV&workerId=A3KVKK1XLBTSN3&assignmentId=3WOKGM4L722WH89U006TFTLSM400OX&a=LGOW7&tp_a=LGOW7&b=3WOKGM4L722WH89U006TFTLSM400OX&tp_b=3WOKGM4L722WH89U006TFTLSM400OX&c=365717&tp_c=365717","firstResponseHeads":16,"firstResponseTails":4,"secondResponseHeads":16,"secondResponseTails":4,"totalHeads":32,"totalTails":8,"studentIndex":17,"studentTrueHypers":{"a":4,"b":1},"studentGuess":0.8,"delta":0,"bonus":0.1,"bonusSoFar":1.94,"totalExamples":40},{"rt":5912,"response":{"heads":"8","tails":"8"},"type":"response","condition":"seqFeedback","trueTheta":0.5,"classrooms":["C","D"],"studentTrueClassroom":"D","exampleSet":"first","trial_type":"survey-html-form","trial_index":149,"time_elapsed":925726,"internal_node_id":"0.0-145.0-0.0","params":{"nStudents":24,"maxFlips":30,"completionMinutes":45,"basePay":8,"maxBonus":9,"perTrialBonus":0.5,"perTrialBonusThreshold":0.05,"exampleCost":0.01},"classroomParams":{"A":{"a":1,"b":4},"B":{"a":4,"b":1},"C":{"a":2,"b":8},"D":{"a":8,"b":2}},"conditions":["nonSeqFull","nonSeqPartial","seqNoFeedback","seqFeedback"],"classroomPairings":[["A","B"],["C","D"]],"coinWeights":[0.2,0.5,0.8],"subjectId":"A3KVKK1XLBTSN3","assignmentId":"3WOKGM4L722WH89U006TFTLSM400OX","hitId":"34XASH8KLQ89J2U8D314D7180O4PMV","url":"https://gershmanlab.com/experiments/alicia/teaching/experiment/?hitId=34XASH8KLQ89J2U8D314D7180O4PMV&workerId=A3KVKK1XLBTSN3&assignmentId=3WOKGM4L722WH89U006TFTLSM400OX&a=LGOW7&tp_a=LGOW7&b=3WOKGM4L722WH89U006TFTLSM400OX&tp_b=3WOKGM4L722WH89U006TFTLSM400OX&c=365717&tp_c=365717","heads":8,"tails":8,"studentIndex":18,"studentTrueHypers":{"a":8,"b":2},"studentGuess":0.6153846153846154,"delta":0.11538461538461542,"totalExamples":16,"bonusSoFar":1.94},{"rt":4741,"response":{"heads":"9","tails":"9"},"type":"response","condition":"seqFeedback","trueTheta":0.5,"classrooms":["C","D"],"studentTrueClassroom":"D","exampleSet":"second","trial_type":"survey-html-form","trial_index":153,"time_elapsed":939031,"internal_node_id":"0.0-149.0-0.0","params":{"nStudents":24,"maxFlips":30,"completionMinutes":45,"basePay":8,"maxBonus":9,"perTrialBonus":0.5,"perTrialBonusThreshold":0.05,"exampleCost":0.01},"classroomParams":{"A":{"a":1,"b":4},"B":{"a":4,"b":1},"C":{"a":2,"b":8},"D":{"a":8,"b":2}},"conditions":["nonSeqFull","nonSeqPartial","seqNoFeedback","seqFeedback"],"classroomPairings":[["A","B"],["C","D"]],"coinWeights":[0.2,0.5,0.8],"subjectId":"A3KVKK1XLBTSN3","assignmentId":"3WOKGM4L722WH89U006TFTLSM400OX","hitId":"34XASH8KLQ89J2U8D314D7180O4PMV","url":"https://gershmanlab.com/experiments/alicia/teaching/experiment/?hitId=34XASH8KLQ89J2U8D314D7180O4PMV&workerId=A3KVKK1XLBTSN3&assignmentId=3WOKGM4L722WH89U006TFTLSM400OX&a=LGOW7&tp_a=LGOW7&b=3WOKGM4L722WH89U006TFTLSM400OX&tp_b=3WOKGM4L722WH89U006TFTLSM400OX&c=365717&tp_c=365717","firstResponseHeads":8,"firstResponseTails":8,"secondResponseHeads":9,"secondResponseTails":9,"totalHeads":17,"totalTails":17,"studentIndex":18,"studentTrueHypers":{"a":8,"b":2},"studentGuess":0.5681818181818182,"delta":0.06818181818181823,"bonus":0,"bonusSoFar":1.94,"totalExamples":34},{"rt":3695,"response":{"heads":"8","tails":"2"},"type":"response","condition":"nonSeqPartial","trueTheta":0.8,"classrooms":["C","D"],"studentTrueClassroom":"D","exampleSet":"first","trial_type":"survey-html-form","trial_index":159,"time_elapsed":956337,"internal_node_id":"0.0-155.0-0.0","params":{"nStudents":24,"maxFlips":30,"completionMinutes":45,"basePay":8,"maxBonus":9,"perTrialBonus":0.5,"perTrialBonusThreshold":0.05,"exampleCost":0.01},"classroomParams":{"A":{"a":1,"b":4},"B":{"a":4,"b":1},"C":{"a":2,"b":8},"D":{"a":8,"b":2}},"conditions":["nonSeqFull","nonSeqPartial","seqNoFeedback","seqFeedback"],"classroomPairings":[["A","B"],["C","D"]],"coinWeights":[0.2,0.5,0.8],"subjectId":"A3KVKK1XLBTSN3","assignmentId":"3WOKGM4L722WH89U006TFTLSM400OX","hitId":"34XASH8KLQ89J2U8D314D7180O4PMV","url":"https://gershmanlab.com/experiments/alicia/teaching/experiment/?hitId=34XASH8KLQ89J2U8D314D7180O4PMV&workerId=A3KVKK1XLBTSN3&assignmentId=3WOKGM4L722WH89U006TFTLSM400OX&a=LGOW7&tp_a=LGOW7&b=3WOKGM4L722WH89U006TFTLSM400OX&tp_b=3WOKGM4L722WH89U006TFTLSM400OX&c=365717&tp_c=365717","heads":8,"tails":2,"studentIndex":19,"studentTrueHypers":{"a":8,"b":2},"studentGuess":0.8,"delta":0,"totalExamples":10,"bonus":0.4,"bonusSoFar":2.34},{"rt":3044,"response":{"heads":"5","tails":"5"},"type":"response","condition":"seqFeedback","trueTheta":0.5,"classrooms":["A","B"],"studentTrueClassroom":"A","exampleSet":"first","trial_type":"survey-html-form","trial_index":165,"time_elapsed":976057,"internal_node_id":"0.0-161.0-0.0","params":{"nStudents":24,"maxFlips":30,"completionMinutes":45,"basePay":8,"maxBonus":9,"perTrialBonus":0.5,"perTrialBonusThreshold":0.05,"exampleCost":0.01},"classroomParams":{"A":{"a":1,"b":4},"B":{"a":4,"b":1},"C":{"a":2,"b":8},"D":{"a":8,"b":2}},"conditions":["nonSeqFull","nonSeqPartial","seqNoFeedback","seqFeedback"],"classroomPairings":[["A","B"],["C","D"]],"coinWeights":[0.2,0.5,0.8],"subjectId":"A3KVKK1XLBTSN3","assignmentId":"3WOKGM4L722WH89U006TFTLSM400OX","hitId":"34XASH8KLQ89J2U8D314D7180O4PMV","url":"https://gershmanlab.com/experiments/alicia/teaching/experiment/?hitId=34XASH8KLQ89J2U8D314D7180O4PMV&workerId=A3KVKK1XLBTSN3&assignmentId=3WOKGM4L722WH89U006TFTLSM400OX&a=LGOW7&tp_a=LGOW7&b=3WOKGM4L722WH89U006TFTLSM400OX&tp_b=3WOKGM4L722WH89U006TFTLSM400OX&c=365717&tp_c=365717","heads":5,"tails":5,"studentIndex":20,"studentTrueHypers":{"a":1,"b":4},"studentGuess":0.4,"delta":0.09999999999999998,"totalExamples":10,"bonusSoFar":2.34},{"rt":4733,"response":{"heads":"6","tails":"6"},"type":"response","condition":"seqFeedback","trueTheta":0.5,"classrooms":["A","B"],"studentTrueClassroom":"A","exampleSet":"second","trial_type":"survey-html-form","trial_index":169,"time_elapsed":990518,"internal_node_id":"0.0-165.0-0.0","params":{"nStudents":24,"maxFlips":30,"completionMinutes":45,"basePay":8,"maxBonus":9,"perTrialBonus":0.5,"perTrialBonusThreshold":0.05,"exampleCost":0.01},"classroomParams":{"A":{"a":1,"b":4},"B":{"a":4,"b":1},"C":{"a":2,"b":8},"D":{"a":8,"b":2}},"conditions":["nonSeqFull","nonSeqPartial","seqNoFeedback","seqFeedback"],"classroomPairings":[["A","B"],["C","D"]],"coinWeights":[0.2,0.5,0.8],"subjectId":"A3KVKK1XLBTSN3","assignmentId":"3WOKGM4L722WH89U006TFTLSM400OX","hitId":"34XASH8KLQ89J2U8D314D7180O4PMV","url":"https://gershmanlab.com/experiments/alicia/teaching/experiment/?hitId=34XASH8KLQ89J2U8D314D7180O4PMV&workerId=A3KVKK1XLBTSN3&assignmentId=3WOKGM4L722WH89U006TFTLSM400OX&a=LGOW7&tp_a=LGOW7&b=3WOKGM4L722WH89U006TFTLSM400OX&tp_b=3WOKGM4L722WH89U006TFTLSM400OX&c=365717&tp_c=365717","firstResponseHeads":5,"firstResponseTails":5,"secondResponseHeads":6,"secondResponseTails":6,"totalHeads":11,"totalTails":11,"studentIndex":20,"studentTrueHypers":{"a":1,"b":4},"studentGuess":0.4444444444444444,"delta":0.05555555555555558,"bonus":0,"bonusSoFar":2.34,"totalExamples":22},{"rt":3251,"response":{"heads":"6","tails":"6"},"type":"response","condition":"seqNoFeedback","trueTheta":0.5,"classrooms":["C","D"],"studentTrueClassroom":"C","exampleSet":"first","trial_type":"survey-html-form","trial_index":175,"time_elapsed":1007308,"internal_node_id":"0.0-171.0-0.0","params":{"nStudents":24,"maxFlips":30,"completionMinutes":45,"basePay":8,"maxBonus":9,"perTrialBonus":0.5,"perTrialBonusThreshold":0.05,"exampleCost":0.01},"classroomParams":{"A":{"a":1,"b":4},"B":{"a":4,"b":1},"C":{"a":2,"b":8},"D":{"a":8,"b":2}},"conditions":["nonSeqFull","nonSeqPartial","seqNoFeedback","seqFeedback"],"classroomPairings":[["A","B"],["C","D"]],"coinWeights":[0.2,0.5,0.8],"subjectId":"A3KVKK1XLBTSN3","assignmentId":"3WOKGM4L722WH89U006TFTLSM400OX","hitId":"34XASH8KLQ89J2U8D314D7180O4PMV","url":"https://gershmanlab.com/experiments/alicia/teaching/experiment/?hitId=34XASH8KLQ89J2U8D314D7180O4PMV&workerId=A3KVKK1XLBTSN3&assignmentId=3WOKGM4L722WH89U006TFTLSM400OX&a=LGOW7&tp_a=LGOW7&b=3WOKGM4L722WH89U006TFTLSM400OX&tp_b=3WOKGM4L722WH89U006TFTLSM400OX&c=365717&tp_c=365717","heads":6,"tails":6,"studentIndex":21,"studentTrueHypers":{"a":2,"b":8},"studentGuess":0.36363636363636365,"delta":0.13636363636363635,"totalExamples":12,"bonusSoFar":2.34},{"rt":3816,"response":{"heads":"8","tails":"8"},"type":"response","condition":"seqNoFeedback","trueTheta":0.5,"classrooms":["C","D"],"studentTrueClassroom":"C","exampleSet":"second","trial_type":"survey-html-form","trial_index":178,"time_elapsed":1018630,"internal_node_id":"0.0-174.0-0.0","params":{"nStudents":24,"maxFlips":30,"completionMinutes":45,"basePay":8,"maxBonus":9,"perTrialBonus":0.5,"perTrialBonusThreshold":0.05,"exampleCost":0.01},"classroomParams":{"A":{"a":1,"b":4},"B":{"a":4,"b":1},"C":{"a":2,"b":8},"D":{"a":8,"b":2}},"conditions":["nonSeqFull","nonSeqPartial","seqNoFeedback","seqFeedback"],"classroomPairings":[["A","B"],["C","D"]],"coinWeights":[0.2,0.5,0.8],"subjectId":"A3KVKK1XLBTSN3","assignmentId":"3WOKGM4L722WH89U006TFTLSM400OX","hitId":"34XASH8KLQ89J2U8D314D7180O4PMV","url":"https://gershmanlab.com/experiments/alicia/teaching/experiment/?hitId=34XASH8KLQ89J2U8D314D7180O4PMV&workerId=A3KVKK1XLBTSN3&assignmentId=3WOKGM4L722WH89U006TFTLSM400OX&a=LGOW7&tp_a=LGOW7&b=3WOKGM4L722WH89U006TFTLSM400OX&tp_b=3WOKGM4L722WH89U006TFTLSM400OX&c=365717&tp_c=365717","firstResponseHeads":6,"firstResponseTails":6,"secondResponseHeads":8,"secondResponseTails":8,"totalHeads":14,"totalTails":14,"studentIndex":21,"studentTrueHypers":{"a":2,"b":8},"studentGuess":0.42105263157894735,"delta":0.07894736842105265,"bonus":0,"bonusSoFar":2.34,"totalExamples":28},{"rt":7967,"response":{"heads":"12","tails":"12"},"type":"response","condition":"nonSeqFull","trueTheta":0.5,"classrooms":["A","B"],"studentTrueClassroom":"A","exampleSet":"first","trial_type":"survey-html-form","trial_index":184,"time_elapsed":1040383,"internal_node_id":"0.0-180.0-0.0","params":{"nStudents":24,"maxFlips":30,"completionMinutes":45,"basePay":8,"maxBonus":9,"perTrialBonus":0.5,"perTrialBonusThreshold":0.05,"exampleCost":0.01},"classroomParams":{"A":{"a":1,"b":4},"B":{"a":4,"b":1},"C":{"a":2,"b":8},"D":{"a":8,"b":2}},"conditions":["nonSeqFull","nonSeqPartial","seqNoFeedback","seqFeedback"],"classroomPairings":[["A","B"],["C","D"]],"coinWeights":[0.2,0.5,0.8],"subjectId":"A3KVKK1XLBTSN3","assignmentId":"3WOKGM4L722WH89U006TFTLSM400OX","hitId":"34XASH8KLQ89J2U8D314D7180O4PMV","url":"https://gershmanlab.com/experiments/alicia/teaching/experiment/?hitId=34XASH8KLQ89J2U8D314D7180O4PMV&workerId=A3KVKK1XLBTSN3&assignmentId=3WOKGM4L722WH89U006TFTLSM400OX&a=LGOW7&tp_a=LGOW7&b=3WOKGM4L722WH89U006TFTLSM400OX&tp_b=3WOKGM4L722WH89U006TFTLSM400OX&c=365717&tp_c=365717","heads":12,"tails":12,"studentIndex":22,"studentTrueHypers":{"a":1,"b":4},"studentGuess":0.4482758620689655,"delta":0.051724137931034475,"totalExamples":24,"bonus":0,"bonusSoFar":2.34},{"rt":4710,"response":{"heads":"2","tails":"8"},"type":"response","condition":"nonSeqFull","trueTheta":0.2,"classrooms":["A","B"],"studentTrueClassroom":"A","exampleSet":"first","trial_type":"survey-html-form","trial_index":190,"time_elapsed":1059192,"internal_node_id":"0.0-186.0-0.0","params":{"nStudents":24,"maxFlips":30,"completionMinutes":45,"basePay":8,"maxBonus":9,"perTrialBonus":0.5,"perTrialBonusThreshold":0.05,"exampleCost":0.01},"classroomParams":{"A":{"a":1,"b":4},"B":{"a":4,"b":1},"C":{"a":2,"b":8},"D":{"a":8,"b":2}},"conditions":["nonSeqFull","nonSeqPartial","seqNoFeedback","seqFeedback"],"classroomPairings":[["A","B"],["C","D"]],"coinWeights":[0.2,0.5,0.8],"subjectId":"A3KVKK1XLBTSN3","assignmentId":"3WOKGM4L722WH89U006TFTLSM400OX","hitId":"34XASH8KLQ89J2U8D314D7180O4PMV","url":"https://gershmanlab.com/experiments/alicia/teaching/experiment/?hitId=34XASH8KLQ89J2U8D314D7180O4PMV&workerId=A3KVKK1XLBTSN3&assignmentId=3WOKGM4L722WH89U006TFTLSM400OX&a=LGOW7&tp_a=LGOW7&b=3WOKGM4L722WH89U006TFTLSM400OX&tp_b=3WOKGM4L722WH89U006TFTLSM400OX&c=365717&tp_c=365717","heads":2,"tails":8,"studentIndex":23,"studentTrueHypers":{"a":1,"b":4},"studentGuess":0.2,"delta":0,"totalExamples":10,"bonus":0.4,"bonusSoFar":2.74},{"rt":7228,"response":{"gender":"male","age":"39","understood":"yes","comments":""},"type":"response","trial_type":"survey-html-form","trial_index":194,"time_elapsed":1075917,"internal_node_id":"0.0-191.0","params":{"nStudents":24,"maxFlips":30,"completionMinutes":45,"basePay":8,"maxBonus":9,"perTrialBonus":0.5,"perTrialBonusThreshold":0.05,"exampleCost":0.01},"classroomParams":{"A":{"a":1,"b":4},"B":{"a":4,"b":1},"C":{"a":2,"b":8},"D":{"a":8,"b":2}},"conditions":["nonSeqFull","nonSeqPartial","seqNoFeedback","seqFeedback"],"classroomPairings":[["A","B"],["C","D"]],"coinWeights":[0.2,0.5,0.8],"subjectId":"A3KVKK1XLBTSN3","assignmentId":"3WOKGM4L722WH89U006TFTLSM400OX","hitId":"34XASH8KLQ89J2U8D314D7180O4PMV","url":"https://gershmanlab.com/experiments/alicia/teaching/experiment/?hitId=34XASH8KLQ89J2U8D314D7180O4PMV&workerId=A3KVKK1XLBTSN3&assignmentId=3WOKGM4L722WH89U006TFTLSM400OX&a=LGOW7&tp_a=LGOW7&b=3WOKGM4L722WH89U006TFTLSM400OX&tp_b=3WOKGM4L722WH89U006TFTLSM400OX&c=365717&tp_c=365717","totalBonus":2.74}]