[{"rt":21486,"response":{"heads":"3","tails":"3"},"type":"response","condition":"seqNoFeedback","trueTheta":0.5,"classrooms":["C","D"],"studentTrueClassroom":"D","exampleSet":"first","trial_type":"survey-html-form","trial_index":7,"time_elapsed":215467,"internal_node_id":"0.0-6.0-0.0","params":{"nStudents":24,"maxFlips":30,"completionMinutes":45,"basePay":8,"maxBonus":9,"perTrialBonus":0.5,"perTrialBonusThreshold":0.05,"exampleCost":0.01},"classroomParams":{"A":{"a":1,"b":4},"B":{"a":4,"b":1},"C":{"a":2,"b":8},"D":{"a":8,"b":2}},"conditions":["nonSeqFull","nonSeqPartial","seqNoFeedback","seqFeedback"],"classroomPairings":[["A","B"],["C","D"]],"coinWeights":[0.2,0.5,0.8],"subjectId":"A3RKG5PZN97RD5","assignmentId":"3HYA4D452S5975ZFGKRHBN5TR1T2FX","hitId":"34XASH8KLQ89J2U8D314D7180O4PMV","url":"https://gershmanlab.com/experiments/alicia/teaching/experiment/?hitId=34XASH8KLQ89J2U8D314D7180O4PMV&workerId=A3RKG5PZN97RD5&assignmentId=3HYA4D452S5975ZFGKRHBN5TR1T2FX&a=54YH7&tp_a=54YH7&b=3HYA4D452S5975ZFGKRHBN5TR1T2FX&tp_b=3HYA4D452S5975ZFGKRHBN5TR1T2FX&c=365717&tp_c=365717","heads":3,"tails":3,"studentIndex":0,"studentTrueHypers":{"a":8,"b":2},"studentGuess":0.6875,"delta":0.1875,"totalExamples":6,"bonusSoFar":0},{"rt":16575,"response":{"heads":"3","tails":"3"},"type":"response","condition":"seqNoFeedback","trueTheta":0.5,"classrooms":["C","D"],"studentTrueClassroom":"D","exampleSet":"second","trial_type":"survey-html-form","trial_index":10,"time_elapsed":237813,"internal_node_id":"0.0-9.0-0.0","params":{"nStudents":24,"maxFlips":30,"completionMinutes":45,"basePay":8,"maxBonus":9,"perTrialBonus":0.5,"perTrialBonusThreshold":0.05,"exampleCost":0.01},"classroomParams":{"A":{"a":1,"b":4},"B":{"a":4,"b":1},"C":{"a":2,"b":8},"D":{"a":8,"b":2}},"conditions":["nonSeqFull","nonSeqPartial","seqNoFeedback","seqFeedback"],"classroomPairings":[["A","B"],["C","D"]],"coinWeights":[0.2,0.5,0.8],"subjectId":"A3RKG5PZN97RD5","assignmentId":"3HYA4D452S5975ZFGKRHBN5TR1T2FX","hitId":"34XASH8KLQ89J2U8D314D7180O4PMV","url":"https://gershmanlab.com/experiments/alicia/teaching/experiment/?hitId=34XASH8KLQ89J2U8D314D7180O4PMV&workerId=A3RKG5PZN97RD5&assignmentId=3HYA4D452S5975ZFGKRHBN5TR1T2FX&a=54YH7&tp_a=54YH7&b=3HYA4D452S5975ZFGKRHBN5TR1T2FX&tp_b=3HYA4D452S5975ZFGKRHBN5TR1T2FX&c=365717&tp_c=365717","firstResponseHeads":3,"firstResponseTails":3,"secondResponseHeads":3,"secondResponseTails":3,"totalHeads":6,"totalTails":6,"studentIndex":0,"studentTrueHypers":{"a":8,"b":2},"studentGuess":0.6363636363636364,"delta":0.13636363636363635,"bonus":0,"bonusSoFar":0,"totalExamples":12},{"rt":11931,"response":{"heads":"5","tails":"5"},"type":"response","condition":"nonSeqPartial","trueTheta":0.5,"classrooms":["C","D"],"studentTrueClassroom":"D","exampleSet":"first","trial_type":"survey-html-form","trial_index":16,"time_elapsed":269486,"internal_node_id":"0.0-15.0-0.0","params":{"nStudents":24,"maxFlips":30,"completionMinutes":45,"basePay":8,"maxBonus":9,"perTrialBonus":0.5,"perTrialBonusThreshold":0.05,"exampleCost":0.01},"classroomParams":{"A":{"a":1,"b":4},"B":{"a":4,"b":1},"C":{"a":2,"b":8},"D":{"a":8,"b":2}},"conditions":["nonSeqFull","nonSeqPartial","seqNoFeedback","seqFeedback"],"classroomPairings":[["A","B"],["C","D"]],"coinWeights":[0.2,0.5,0.8],"subjectId":"A3RKG5PZN97RD5","assignmentId":"3HYA4D452S5975ZFGKRHBN5TR1T2FX","hitId":"34XASH8KLQ89J2U8D314D7180O4PMV","url":"https://gershmanlab.com/experiments/alicia/teaching/experiment/?hitId=34XASH8KLQ89J2U8D314D7180O4PMV&workerId=A3RKG5PZN97RD5&assignmentId=3HYA4D452S5975ZFGKRHBN5TR1T2FX&a=54YH7&tp_a=54YH7&b=3HYA4D452S5975ZFGKRHBN5TR1T2FX&tp_b=3HYA4D452S5975ZFGKRHBN5TR1T2FX&c=365717&tp_c=365717","heads":5,"tails":5,"studentIndex":1,"studentTrueHypers":{"a":8,"b":2},"studentGuess":0.65,"delta":0.15000000000000002,"totalExamples":10,"bonus":0,"bonusSoFar":0},{"rt":9603,"response":{"heads":"1","tails":"6"},"type":"response","condition":"seqFeedback","trueTheta":0.2,"classrooms":["A","B"],"studentTrueClassroom":"A","exampleSet":"first","trial_type":"survey-html-form","trial_index":22,"time_elapsed":298511,"internal_node_id":"0.0-21.0-0.0","params":{"nStudents":24,"maxFlips":30,"completionMinutes":45,"basePay":8,"maxBonus":9,"perTrialBonus":0.5,"perTrialBonusThreshold":0.05,"exampleCost":0.01},"classroomParams":{"A":{"a":1,"b":4},"B":{"a":4,"b":1},"C":{"a":2,"b":8},"D":{"a":8,"b":2}},"conditions":["nonSeqFull","nonSeqPartial","seqNoFeedback","seqFeedback"],"classroomPairings":[["A","B"],["C","D"]],"coinWeights":[0.2,0.5,0.8],"subjectId":"A3RKG5PZN97RD5","assignmentId":"3HYA4D452S5975ZFGKRHBN5TR1T2FX","hitId":"34XASH8KLQ89J2U8D314D7180O4PMV","url":"https://gershmanlab.com/experiments/alicia/teaching/experiment/?hitId=34XASH8KLQ89J2U8D314D7180O4PMV&workerId=A3RKG5PZN97RD5&assignmentId=3HYA4D452S5975ZFGKRHBN5TR1T2FX&a=54YH7&tp_a=54YH7&b=3HYA4D452S5975ZFGKRHBN5TR1T2FX&tp_b=3HYA4D452S5975ZFGKRHBN5TR1T2FX&c=365717&tp_c=365717","heads":1,"tails":6,"studentIndex":2,"studentTrueHypers":{"a":1,"b":4},"studentGuess":0.16666666666666666,"delta":0.033333333333333354,"totalExamples":7,"bonusSoFar":0},{"rt":4760,"response":{"heads":"1","tails":"5"},"type":"response","condition":"seqFeedback","trueTheta":0.2,"classrooms":["A","B"],"studentTrueClassroom":"A","exampleSet":"second","trial_type":"survey-html-form","trial_index":26,"time_elapsed":319333,"internal_node_id":"0.0-25.0-0.0","params":{"nStudents":24,"maxFlips":30,"completionMinutes":45,"basePay":8,"maxBonus":9,"perTrialBonus":0.5,"perTrialBonusThreshold":0.05,"exampleCost":0.01},"classroomParams":{"A":{"a":1,"b":4},"B":{"a":4,"b":1},"C":{"a":2,"b":8},"D":{"a":8,"b":2}},"conditions":["nonSeqFull","nonSeqPartial","seqNoFeedback","seqFeedback"],"classroomPairings":[["A","B"],["C","D"]],"coinWeights":[0.2,0.5,0.8],"subjectId":"A3RKG5PZN97RD5","assignmentId":"3HYA4D452S5975ZFGKRHBN5TR1T2FX","hitId":"34XASH8KLQ89J2U8D314D7180O4PMV","url":"https://gershmanlab.com/experiments/alicia/teaching/experiment/?hitId=34XASH8KLQ89J2U8D314D7180O4PMV&workerId=A3RKG5PZN97RD5&assignmentId=3HYA4D452S5975ZFGKRHBN5TR1T2FX&a=54YH7&tp_a=54YH7&b=3HYA4D452S5975ZFGKRHBN5TR1T2FX&tp_b=3HYA4D452S5975ZFGKRHBN5TR1T2FX&c=365717&tp_c=365717","firstResponseHeads":1,"firstResponseTails":6,"secondResponseHeads":1,"secondResponseTails":5,"totalHeads":2,"totalTails":11,"studentIndex":2,"studentTrueHypers":{"a":1,"b":4},"studentGuess":0.16666666666666666,"delta":0.033333333333333354,"bonus":0.37,"bonusSoFar":0.37,"totalExamples":13},{"rt":8284,"response":{"heads":"3","tails":"3"},"type":"response","condition":"nonSeqPartial","trueTheta":0.5,"classrooms":["A","B"],"studentTrueClassroom":"A","exampleSet":"first","trial_type":"survey-html-form","trial_index":32,"time_elapsed":340632,"internal_node_id":"0.0-31.0-0.0","params":{"nStudents":24,"maxFlips":30,"completionMinutes":45,"basePay":8,"maxBonus":9,"perTrialBonus":0.5,"perTrialBonusThreshold":0.05,"exampleCost":0.01},"classroomParams":{"A":{"a":1,"b":4},"B":{"a":4,"b":1},"C":{"a":2,"b":8},"D":{"a":8,"b":2}},"conditions":["nonSeqFull","nonSeqPartial","seqNoFeedback","seqFeedback"],"classroomPairings":[["A","B"],["C","D"]],"coinWeights":[0.2,0.5,0.8],"subjectId":"A3RKG5PZN97RD5","assignmentId":"3HYA4D452S5975ZFGKRHBN5TR1T2FX","hitId":"34XASH8KLQ89J2U8D314D7180O4PMV","url":"https://gershmanlab.com/experiments/alicia/teaching/experiment/?hitId=34XASH8KLQ89J2U8D314D7180O4PMV&workerId=A3RKG5PZN97RD5&assignmentId=3HYA4D452S5975ZFGKRHBN5TR1T2FX&a=54YH7&tp_a=54YH7&b=3HYA4D452S5975ZFGKRHBN5TR1T2FX&tp_b=3HYA4D452S5975ZFGKRHBN5TR1T2FX&c=365717&tp_c=365717","heads":3,"tails":3,"studentIndex":3,"studentTrueHypers":{"a":1,"b":4},"studentGuess":0.36363636363636365,"delta":0.13636363636363635,"totalExamples":6,"bonus":0,"bonusSoFar":0.37},{"rt":6656,"response":{"heads":"6","tails":"1"},"type":"response","condition":"seqNoFeedback","trueTheta":0.8,"classrooms":["A","B"],"studentTrueClassroom":"A","exampleSet":"first","trial_type":"survey-html-form","trial_index":38,"time_elapsed":365249,"internal_node_id":"0.0-37.0-0.0","params":{"nStudents":24,"maxFlips":30,"completionMinutes":45,"basePay":8,"maxBonus":9,"perTrialBonus":0.5,"perTrialBonusThreshold":0.05,"exampleCost":0.01},"classroomParams":{"A":{"a":1,"b":4},"B":{"a":4,"b":1},"C":{"a":2,"b":8},"D":{"a":8,"b":2}},"conditions":["nonSeqFull","nonSeqPartial","seqNoFeedback","seqFeedback"],"classroomPairings":[["A","B"],["C","D"]],"coinWeights":[0.2,0.5,0.8],"subjectId":"A3RKG5PZN97RD5","assignmentId":"3HYA4D452S5975ZFGKRHBN5TR1T2FX","hitId":"34XASH8KLQ89J2U8D314D7180O4PMV","url":"https://gershmanlab.com/experiments/alicia/teaching/experiment/?hitId=34XASH8KLQ89J2U8D314D7180O4PMV&workerId=A3RKG5PZN97RD5&assignmentId=3HYA4D452S5975ZFGKRHBN5TR1T2FX&a=54YH7&tp_a=54YH7&b=3HYA4D452S5975ZFGKRHBN5TR1T2FX&tp_b=3HYA4D452S5975ZFGKRHBN5TR1T2FX&c=365717&tp_c=365717","heads":6,"tails":1,"studentIndex":4,"studentTrueHypers":{"a":1,"b":4},"studentGuess":0.5833333333333334,"delta":0.21666666666666667,"totalExamples":7,"bonusSoFar":0.37},{"rt":12823,"response":{"heads":"6","tails":"1"},"type":"response","condition":"seqNoFeedback","trueTheta":0.8,"classrooms":["A","B"],"studentTrueClassroom":"A","exampleSet":"second","trial_type":"survey-html-form","trial_index":41,"time_elapsed":385330,"internal_node_id":"0.0-40.0-0.0","params":{"nStudents":24,"maxFlips":30,"completionMinutes":45,"basePay":8,"maxBonus":9,"perTrialBonus":0.5,"perTrialBonusThreshold":0.05,"exampleCost":0.01},"classroomParams":{"A":{"a":1,"b":4},"B":{"a":4,"b":1},"C":{"a":2,"b":8},"D":{"a":8,"b":2}},"conditions":["nonSeqFull","nonSeqPartial","seqNoFeedback","seqFeedback"],"classroomPairings":[["A","B"],["C","D"]],"coinWeights":[0.2,0.5,0.8],"subjectId":"A3RKG5PZN97RD5","assignmentId":"3HYA4D452S5975ZFGKRHBN5TR1T2FX","hitId":"34XASH8KLQ89J2U8D314D7180O4PMV","url":"https://gershmanlab.com/experiments/alicia/teaching/experiment/?hitId=34XASH8KLQ89J2U8D314D7180O4PMV&workerId=A3RKG5PZN97RD5&assignmentId=3HYA4D452S5975ZFGKRHBN5TR1T2FX&a=54YH7&tp_a=54YH7&b=3HYA4D452S5975ZFGKRHBN5TR1T2FX&tp_b=3HYA4D452S5975ZFGKRHBN5TR1T2FX&c=365717&tp_c=365717","firstResponseHeads":6,"firstResponseTails":1,"secondResponseHeads":6,"secondResponseTails":1,"totalHeads":12,"totalTails":2,"studentIndex":4,"studentTrueHypers":{"a":1,"b":4},"studentGuess":0.6842105263157895,"delta":0.11578947368421055,"bonus":0,"bonusSoFar":0.37,"totalExamples":14},{"rt":5325,"response":{"heads":"1","tails":"5"},"type":"response","condition":"nonSeqFull","trueTheta":0.2,"classrooms":["A","B"],"studentTrueClassroom":"A","exampleSet":"first","trial_type":"survey-html-form","trial_index":47,"time_elapsed":413119,"internal_node_id":"0.0-46.0-0.0","params":{"nStudents":24,"maxFlips":30,"completionMinutes":45,"basePay":8,"maxBonus":9,"perTrialBonus":0.5,"perTrialBonusThreshold":0.05,"exampleCost":0.01},"classroomParams":{"A":{"a":1,"b":4},"B":{"a":4,"b":1},"C":{"a":2,"b":8},"D":{"a":8,"b":2}},"conditions":["nonSeqFull","nonSeqPartial","seqNoFeedback","seqFeedback"],"classroomPairings":[["A","B"],["C","D"]],"coinWeights":[0.2,0.5,0.8],"subjectId":"A3RKG5PZN97RD5","assignmentId":"3HYA4D452S5975ZFGKRHBN5TR1T2FX","hitId":"34XASH8KLQ89J2U8D314D7180O4PMV","url":"https://gershmanlab.com/experiments/alicia/teaching/experiment/?hitId=34XASH8KLQ89J2U8D314D7180O4PMV&workerId=A3RKG5PZN97RD5&assignmentId=3HYA4D452S5975ZFGKRHBN5TR1T2FX&a=54YH7&tp_a=54YH7&b=3HYA4D452S5975ZFGKRHBN5TR1T2FX&tp_b=3HYA4D452S5975ZFGKRHBN5TR1T2FX&c=365717&tp_c=365717","heads":1,"tails":5,"studentIndex":5,"studentTrueHypers":{"a":1,"b":4},"studentGuess":0.18181818181818182,"delta":0.018181818181818188,"totalExamples":6,"bonus":0.44,"bonusSoFar":0.81},{"rt":5076,"response":{"heads":"5","tails":"1"},"type":"response","condition":"nonSeqFull","trueTheta":0.8,"classrooms":["A","B"],"studentTrueClassroom":"A","exampleSet":"first","trial_type":"survey-html-form","trial_index":53,"time_elapsed":434053,"internal_node_id":"0.0-52.0-0.0","params":{"nStudents":24,"maxFlips":30,"completionMinutes":45,"basePay":8,"maxBonus":9,"perTrialBonus":0.5,"perTrialBonusThreshold":0.05,"exampleCost":0.01},"classroomParams":{"A":{"a":1,"b":4},"B":{"a":4,"b":1},"C":{"a":2,"b":8},"D":{"a":8,"b":2}},"conditions":["nonSeqFull","nonSeqPartial","seqNoFeedback","seqFeedback"],"classroomPairings":[["A","B"],["C","D"]],"coinWeights":[0.2,0.5,0.8],"subjectId":"A3RKG5PZN97RD5","assignmentId":"3HYA4D452S5975ZFGKRHBN5TR1T2FX","hitId":"34XASH8KLQ89J2U8D314D7180O4PMV","url":"https://gershmanlab.com/experiments/alicia/teaching/experiment/?hitId=34XASH8KLQ89J2U8D314D7180O4PMV&workerId=A3RKG5PZN97RD5&assignmentId=3HYA4D452S5975ZFGKRHBN5TR1T2FX&a=54YH7&tp_a=54YH7&b=3HYA4D452S5975ZFGKRHBN5TR1T2FX&tp_b=3HYA4D452S5975ZFGKRHBN5TR1T2FX&c=365717&tp_c=365717","heads":5,"tails":1,"studentIndex":6,"studentTrueHypers":{"a":1,"b":4},"studentGuess":0.5454545454545454,"delta":0.25454545454545463,"totalExamples":6,"bonus":0,"bonusSoFar":0.81},{"rt":5817,"response":{"heads":"5","tails":"1"},"type":"response","condition":"seqFeedback","trueTheta":0.8,"classrooms":["A","B"],"studentTrueClassroom":"A","exampleSet":"first","trial_type":"survey-html-form","trial_index":59,"time_elapsed":456616,"internal_node_id":"0.0-58.0-0.0","params":{"nStudents":24,"maxFlips":30,"completionMinutes":45,"basePay":8,"maxBonus":9,"perTrialBonus":0.5,"perTrialBonusThreshold":0.05,"exampleCost":0.01},"classroomParams":{"A":{"a":1,"b":4},"B":{"a":4,"b":1},"C":{"a":2,"b":8},"D":{"a":8,"b":2}},"conditions":["nonSeqFull","nonSeqPartial","seqNoFeedback","seqFeedback"],"classroomPairings":[["A","B"],["C","D"]],"coinWeights":[0.2,0.5,0.8],"subjectId":"A3RKG5PZN97RD5","assignmentId":"3HYA4D452S5975ZFGKRHBN5TR1T2FX","hitId":"34XASH8KLQ89J2U8D314D7180O4PMV","url":"https://gershmanlab.com/experiments/alicia/teaching/experiment/?hitId=34XASH8KLQ89J2U8D314D7180O4PMV&workerId=A3RKG5PZN97RD5&assignmentId=3HYA4D452S5975ZFGKRHBN5TR1T2FX&a=54YH7&tp_a=54YH7&b=3HYA4D452S5975ZFGKRHBN5TR1T2FX&tp_b=3HYA4D452S5975ZFGKRHBN5TR1T2FX&c=365717&tp_c=365717","heads":5,"tails":1,"studentIndex":7,"studentTrueHypers":{"a":1,"b":4},"studentGuess":0.5454545454545454,"delta":0.25454545454545463,"totalExamples":6,"bonusSoFar":0.81},{"rt":5404,"response":{"heads":"6","tails":"1"},"type":"response","condition":"seqFeedback","trueTheta":0.8,"classrooms":["A","B"],"studentTrueClassroom":"A","exampleSet":"second","trial_type":"survey-html-form","trial_index":63,"time_elapsed":474634,"internal_node_id":"0.0-62.0-0.0","params":{"nStudents":24,"maxFlips":30,"completionMinutes":45,"basePay":8,"maxBonus":9,"perTrialBonus":0.5,"perTrialBonusThreshold":0.05,"exampleCost":0.01},"classroomParams":{"A":{"a":1,"b":4},"B":{"a":4,"b":1},"C":{"a":2,"b":8},"D":{"a":8,"b":2}},"conditions":["nonSeqFull","nonSeqPartial","seqNoFeedback","seqFeedback"],"classroomPairings":[["A","B"],["C","D"]],"coinWeights":[0.2,0.5,0.8],"subjectId":"A3RKG5PZN97RD5","assignmentId":"3HYA4D452S5975ZFGKRHBN5TR1T2FX","hitId":"34XASH8KLQ89J2U8D314D7180O4PMV","url":"https://gershmanlab.com/experiments/alicia/teaching/experiment/?hitId=34XASH8KLQ89J2U8D314D7180O4PMV&workerId=A3RKG5PZN97RD5&assignmentId=3HYA4D452S5975ZFGKRHBN5TR1T2FX&a=54YH7&tp_a=54YH7&b=3HYA4D452S5975ZFGKRHBN5TR1T2FX&tp_b=3HYA4D452S5975ZFGKRHBN5TR1T2FX&c=365717&tp_c=365717","firstResponseHeads":5,"firstResponseTails":1,"secondResponseHeads":6,"secondResponseTails":1,"totalHeads":11,"totalTails":2,"studentIndex":7,"studentTrueHypers":{"a":1,"b":4},"studentGuess":0.6666666666666666,"delta":0.13333333333333341,"bonus":0,"bonusSoFar":0.81,"totalExamples":13},{"rt":4926,"response":{"heads":"5","tails":"0"},"type":"response","condition":"seqFeedback","trueTheta":0.8,"classrooms":["C","D"],"studentTrueClassroom":"C","exampleSet":"first","trial_type":"survey-html-form","trial_index":69,"time_elapsed":496600,"internal_node_id":"0.0-68.0-0.0","params":{"nStudents":24,"maxFlips":30,"completionMinutes":45,"basePay":8,"maxBonus":9,"perTrialBonus":0.5,"perTrialBonusThreshold":0.05,"exampleCost":0.01},"classroomParams":{"A":{"a":1,"b":4},"B":{"a":4,"b":1},"C":{"a":2,"b":8},"D":{"a":8,"b":2}},"conditions":["nonSeqFull","nonSeqPartial","seqNoFeedback","seqFeedback"],"classroomPairings":[["A","B"],["C","D"]],"coinWeights":[0.2,0.5,0.8],"subjectId":"A3RKG5PZN97RD5","assignmentId":"3HYA4D452S5975ZFGKRHBN5TR1T2FX","hitId":"34XASH8KLQ89J2U8D314D7180O4PMV","url":"https://gershmanlab.com/experiments/alicia/teaching/experiment/?hitId=34XASH8KLQ89J2U8D314D7180O4PMV&workerId=A3RKG5PZN97RD5&assignmentId=3HYA4D452S5975ZFGKRHBN5TR1T2FX&a=54YH7&tp_a=54YH7&b=3HYA4D452S5975ZFGKRHBN5TR1T2FX&tp_b=3HYA4D452S5975ZFGKRHBN5TR1T2FX&c=365717&tp_c=365717","heads":5,"tails":0,"studentIndex":8,"studentTrueHypers":{"a":2,"b":8},"studentGuess":0.4666666666666667,"delta":0.33333333333333337,"totalExamples":5,"bonusSoFar":0.81},{"rt":6481,"response":{"heads":"6","tails":"1"},"type":"response","condition":"seqFeedback","trueTheta":0.8,"classrooms":["C","D"],"studentTrueClassroom":"C","exampleSet":"second","trial_type":"survey-html-form","trial_index":73,"time_elapsed":512097,"internal_node_id":"0.0-72.0-0.0","params":{"nStudents":24,"maxFlips":30,"completionMinutes":45,"basePay":8,"maxBonus":9,"perTrialBonus":0.5,"perTrialBonusThreshold":0.05,"exampleCost":0.01},"classroomParams":{"A":{"a":1,"b":4},"B":{"a":4,"b":1},"C":{"a":2,"b":8},"D":{"a":8,"b":2}},"conditions":["nonSeqFull","nonSeqPartial","seqNoFeedback","seqFeedback"],"classroomPairings":[["A","B"],["C","D"]],"coinWeights":[0.2,0.5,0.8],"subjectId":"A3RKG5PZN97RD5","assignmentId":"3HYA4D452S5975ZFGKRHBN5TR1T2FX","hitId":"34XASH8KLQ89J2U8D314D7180O4PMV","url":"https://gershmanlab.com/experiments/alicia/teaching/experiment/?hitId=34XASH8KLQ89J2U8D314D7180O4PMV&workerId=A3RKG5PZN97RD5&assignmentId=3HYA4D452S5975ZFGKRHBN5TR1T2FX&a=54YH7&tp_a=54YH7&b=3HYA4D452S5975ZFGKRHBN5TR1T2FX&tp_b=3HYA4D452S5975ZFGKRHBN5TR1T2FX&c=365717&tp_c=365717","firstResponseHeads":5,"firstResponseTails":0,"secondResponseHeads":6,"secondResponseTails":1,"totalHeads":11,"totalTails":1,"studentIndex":8,"studentTrueHypers":{"a":2,"b":8},"studentGuess":0.5909090909090909,"delta":0.2090909090909091,"bonus":0,"bonusSoFar":0.81,"totalExamples":12},{"rt":2978,"response":{"heads":"0","tails":"3"},"type":"response","condition":"nonSeqPartial","trueTheta":0.2,"classrooms":["A","B"],"studentTrueClassroom":"B","exampleSet":"first","trial_type":"survey-html-form","trial_index":79,"time_elapsed":530070,"internal_node_id":"0.0-78.0-0.0","params":{"nStudents":24,"maxFlips":30,"completionMinutes":45,"basePay":8,"maxBonus":9,"perTrialBonus":0.5,"perTrialBonusThreshold":0.05,"exampleCost":0.01},"classroomParams":{"A":{"a":1,"b":4},"B":{"a":4,"b":1},"C":{"a":2,"b":8},"D":{"a":8,"b":2}},"conditions":["nonSeqFull","nonSeqPartial","seqNoFeedback","seqFeedback"],"classroomPairings":[["A","B"],["C","D"]],"coinWeights":[0.2,0.5,0.8],"subjectId":"A3RKG5PZN97RD5","assignmentId":"3HYA4D452S5975ZFGKRHBN5TR1T2FX","hitId":"34XASH8KLQ89J2U8D314D7180O4PMV","url":"https://gershmanlab.com/experiments/alicia/teaching/experiment/?hitId=34XASH8KLQ89J2U8D314D7180O4PMV&workerId=A3RKG5PZN97RD5&assignmentId=3HYA4D452S5975ZFGKRHBN5TR1T2FX&a=54YH7&tp_a=54YH7&b=3HYA4D452S5975ZFGKRHBN5TR1T2FX&tp_b=3HYA4D452S5975ZFGKRHBN5TR1T2FX&c=365717&tp_c=365717","heads":0,"tails":3,"studentIndex":9,"studentTrueHypers":{"a":4,"b":1},"studentGuess":0.5,"delta":0.3,"totalExamples":3,"bonus":0,"bonusSoFar":0.81},{"rt":4090,"response":{"heads":"0","tails":"5"},"type":"response","condition":"nonSeqPartial","trueTheta":0.2,"classrooms":["C","D"],"studentTrueClassroom":"C","exampleSet":"first","trial_type":"survey-html-form","trial_index":85,"time_elapsed":549749,"internal_node_id":"0.0-84.0-0.0","params":{"nStudents":24,"maxFlips":30,"completionMinutes":45,"basePay":8,"maxBonus":9,"perTrialBonus":0.5,"perTrialBonusThreshold":0.05,"exampleCost":0.01},"classroomParams":{"A":{"a":1,"b":4},"B":{"a":4,"b":1},"C":{"a":2,"b":8},"D":{"a":8,"b":2}},"conditions":["nonSeqFull","nonSeqPartial","seqNoFeedback","seqFeedback"],"classroomPairings":[["A","B"],["C","D"]],"coinWeights":[0.2,0.5,0.8],"subjectId":"A3RKG5PZN97RD5","assignmentId":"3HYA4D452S5975ZFGKRHBN5TR1T2FX","hitId":"34XASH8KLQ89J2U8D314D7180O4PMV","url":"https://gershmanlab.com/experiments/alicia/teaching/experiment/?hitId=34XASH8KLQ89J2U8D314D7180O4PMV&workerId=A3RKG5PZN97RD5&assignmentId=3HYA4D452S5975ZFGKRHBN5TR1T2FX&a=54YH7&tp_a=54YH7&b=3HYA4D452S5975ZFGKRHBN5TR1T2FX&tp_b=3HYA4D452S5975ZFGKRHBN5TR1T2FX&c=365717&tp_c=365717","heads":0,"tails":5,"studentIndex":10,"studentTrueHypers":{"a":2,"b":8},"studentGuess":0.13333333333333333,"delta":0.06666666666666668,"totalExamples":5,"bonus":0,"bonusSoFar":0.81},{"rt":4389,"response":{"heads":"0","tails":"5"},"type":"response","condition":"nonSeqFull","trueTheta":0.2,"classrooms":["C","D"],"studentTrueClassroom":"C","exampleSet":"first","trial_type":"survey-html-form","trial_index":91,"time_elapsed":568580,"internal_node_id":"0.0-90.0-0.0","params":{"nStudents":24,"maxFlips":30,"completionMinutes":45,"basePay":8,"maxBonus":9,"perTrialBonus":0.5,"perTrialBonusThreshold":0.05,"exampleCost":0.01},"classroomParams":{"A":{"a":1,"b":4},"B":{"a":4,"b":1},"C":{"a":2,"b":8},"D":{"a":8,"b":2}},"conditions":["nonSeqFull","nonSeqPartial","seqNoFeedback","seqFeedback"],"classroomPairings":[["A","B"],["C","D"]],"coinWeights":[0.2,0.5,0.8],"subjectId":"A3RKG5PZN97RD5","assignmentId":"3HYA4D452S5975ZFGKRHBN5TR1T2FX","hitId":"34XASH8KLQ89J2U8D314D7180O4PMV","url":"https://gershmanlab.com/experiments/alicia/teaching/experiment/?hitId=34XASH8KLQ89J2U8D314D7180O4PMV&workerId=A3RKG5PZN97RD5&assignmentId=3HYA4D452S5975ZFGKRHBN5TR1T2FX&a=54YH7&tp_a=54YH7&b=3HYA4D452S5975ZFGKRHBN5TR1T2FX&tp_b=3HYA4D452S5975ZFGKRHBN5TR1T2FX&c=365717&tp_c=365717","heads":0,"tails":5,"studentIndex":11,"studentTrueHypers":{"a":2,"b":8},"studentGuess":0.13333333333333333,"delta":0.06666666666666668,"totalExamples":5,"bonus":0,"bonusSoFar":0.81},{"rt":4884,"response":{"heads":"3","tails":"3"},"type":"response","condition":"seqFeedback","trueTheta":0.5,"classrooms":["A","B"],"studentTrueClassroom":"B","exampleSet":"first","trial_type":"survey-html-form","trial_index":97,"time_elapsed":588237,"internal_node_id":"0.0-96.0-0.0","params":{"nStudents":24,"maxFlips":30,"completionMinutes":45,"basePay":8,"maxBonus":9,"perTrialBonus":0.5,"perTrialBonusThreshold":0.05,"exampleCost":0.01},"classroomParams":{"A":{"a":1,"b":4},"B":{"a":4,"b":1},"C":{"a":2,"b":8},"D":{"a":8,"b":2}},"conditions":["nonSeqFull","nonSeqPartial","seqNoFeedback","seqFeedback"],"classroomPairings":[["A","B"],["C","D"]],"coinWeights":[0.2,0.5,0.8],"subjectId":"A3RKG5PZN97RD5","assignmentId":"3HYA4D452S5975ZFGKRHBN5TR1T2FX","hitId":"34XASH8KLQ89J2U8D314D7180O4PMV","url":"https://gershmanlab.com/experiments/alicia/teaching/experiment/?hitId=34XASH8KLQ89J2U8D314D7180O4PMV&workerId=A3RKG5PZN97RD5&assignmentId=3HYA4D452S5975ZFGKRHBN5TR1T2FX&a=54YH7&tp_a=54YH7&b=3HYA4D452S5975ZFGKRHBN5TR1T2FX&tp_b=3HYA4D452S5975ZFGKRHBN5TR1T2FX&c=365717&tp_c=365717","heads":3,"tails":3,"studentIndex":12,"studentTrueHypers":{"a":4,"b":1},"studentGuess":0.6363636363636364,"delta":0.13636363636363635,"totalExamples":6,"bonusSoFar":0.81},{"rt":6097,"response":{"heads":"3","tails":"3"},"type":"response","condition":"seqFeedback","trueTheta":0.5,"classrooms":["A","B"],"studentTrueClassroom":"B","exampleSet":"second","trial_type":"survey-html-form","trial_index":101,"time_elapsed":605500,"internal_node_id":"0.0-100.0-0.0","params":{"nStudents":24,"maxFlips":30,"completionMinutes":45,"basePay":8,"maxBonus":9,"perTrialBonus":0.5,"perTrialBonusThreshold":0.05,"exampleCost":0.01},"classroomParams":{"A":{"a":1,"b":4},"B":{"a":4,"b":1},"C":{"a":2,"b":8},"D":{"a":8,"b":2}},"conditions":["nonSeqFull","nonSeqPartial","seqNoFeedback","seqFeedback"],"classroomPairings":[["A","B"],["C","D"]],"coinWeights":[0.2,0.5,0.8],"subjectId":"A3RKG5PZN97RD5","assignmentId":"3HYA4D452S5975ZFGKRHBN5TR1T2FX","hitId":"34XASH8KLQ89J2U8D314D7180O4PMV","url":"https://gershmanlab.com/experiments/alicia/teaching/experiment/?hitId=34XASH8KLQ89J2U8D314D7180O4PMV&workerId=A3RKG5PZN97RD5&assignmentId=3HYA4D452S5975ZFGKRHBN5TR1T2FX&a=54YH7&tp_a=54YH7&b=3HYA4D452S5975ZFGKRHBN5TR1T2FX&tp_b=3HYA4D452S5975ZFGKRHBN5TR1T2FX&c=365717&tp_c=365717","firstResponseHeads":3,"firstResponseTails":3,"secondResponseHeads":3,"secondResponseTails":3,"totalHeads":6,"totalTails":6,"studentIndex":12,"studentTrueHypers":{"a":4,"b":1},"studentGuess":0.5882352941176471,"delta":0.08823529411764708,"bonus":0,"bonusSoFar":0.81,"totalExamples":12},{"rt":3788,"response":{"heads":"5","tails":"0"},"type":"response","condition":"nonSeqFull","trueTheta":0.8,"classrooms":["C","D"],"studentTrueClassroom":"C","exampleSet":"first","trial_type":"survey-html-form","trial_index":107,"time_elapsed":622512,"internal_node_id":"0.0-106.0-0.0","params":{"nStudents":24,"maxFlips":30,"completionMinutes":45,"basePay":8,"maxBonus":9,"perTrialBonus":0.5,"perTrialBonusThreshold":0.05,"exampleCost":0.01},"classroomParams":{"A":{"a":1,"b":4},"B":{"a":4,"b":1},"C":{"a":2,"b":8},"D":{"a":8,"b":2}},"conditions":["nonSeqFull","nonSeqPartial","seqNoFeedback","seqFeedback"],"classroomPairings":[["A","B"],["C","D"]],"coinWeights":[0.2,0.5,0.8],"subjectId":"A3RKG5PZN97RD5","assignmentId":"3HYA4D452S5975ZFGKRHBN5TR1T2FX","hitId":"34XASH8KLQ89J2U8D314D7180O4PMV","url":"https://gershmanlab.com/experiments/alicia/teaching/experiment/?hitId=34XASH8KLQ89J2U8D314D7180O4PMV&workerId=A3RKG5PZN97RD5&assignmentId=3HYA4D452S5975ZFGKRHBN5TR1T2FX&a=54YH7&tp_a=54YH7&b=3HYA4D452S5975ZFGKRHBN5TR1T2FX&tp_b=3HYA4D452S5975ZFGKRHBN5TR1T2FX&c=365717&tp_c=365717","heads":5,"tails":0,"studentIndex":13,"studentTrueHypers":{"a":2,"b":8},"studentGuess":0.4666666666666667,"delta":0.33333333333333337,"totalExamples":5,"bonus":0,"bonusSoFar":0.81},{"rt":4286,"response":{"heads":"0","tails":"5"},"type":"response","condition":"seqFeedback","trueTheta":0.2,"classrooms":["C","D"],"studentTrueClassroom":"C","exampleSet":"first","trial_type":"survey-html-form","trial_index":113,"time_elapsed":643562,"internal_node_id":"0.0-112.0-0.0","params":{"nStudents":24,"maxFlips":30,"completionMinutes":45,"basePay":8,"maxBonus":9,"perTrialBonus":0.5,"perTrialBonusThreshold":0.05,"exampleCost":0.01},"classroomParams":{"A":{"a":1,"b":4},"B":{"a":4,"b":1},"C":{"a":2,"b":8},"D":{"a":8,"b":2}},"conditions":["nonSeqFull","nonSeqPartial","seqNoFeedback","seqFeedback"],"classroomPairings":[["A","B"],["C","D"]],"coinWeights":[0.2,0.5,0.8],"subjectId":"A3RKG5PZN97RD5","assignmentId":"3HYA4D452S5975ZFGKRHBN5TR1T2FX","hitId":"34XASH8KLQ89J2U8D314D7180O4PMV","url":"https://gershmanlab.com/experiments/alicia/teaching/experiment/?hitId=34XASH8KLQ89J2U8D314D7180O4PMV&workerId=A3RKG5PZN97RD5&assignmentId=3HYA4D452S5975ZFGKRHBN5TR1T2FX&a=54YH7&tp_a=54YH7&b=3HYA4D452S5975ZFGKRHBN5TR1T2FX&tp_b=3HYA4D452S5975ZFGKRHBN5TR1T2FX&c=365717&tp_c=365717","heads":0,"tails":5,"studentIndex":14,"studentTrueHypers":{"a":2,"b":8},"studentGuess":0.13333333333333333,"delta":0.06666666666666668,"totalExamples":5,"bonusSoFar":0.81},{"rt":3164,"response":{"heads":"0","tails":"4"},"type":"response","condition":"seqFeedback","trueTheta":0.2,"classrooms":["C","D"],"studentTrueClassroom":"C","exampleSet":"second","trial_type":"survey-html-form","trial_index":117,"time_elapsed":661407,"internal_node_id":"0.0-116.0-0.0","params":{"nStudents":24,"maxFlips":30,"completionMinutes":45,"basePay":8,"maxBonus":9,"perTrialBonus":0.5,"perTrialBonusThreshold":0.05,"exampleCost":0.01},"classroomParams":{"A":{"a":1,"b":4},"B":{"a":4,"b":1},"C":{"a":2,"b":8},"D":{"a":8,"b":2}},"conditions":["nonSeqFull","nonSeqPartial","seqNoFeedback","seqFeedback"],"classroomPairings":[["A","B"],["C","D"]],"coinWeights":[0.2,0.5,0.8],"subjectId":"A3RKG5PZN97RD5","assignmentId":"3HYA4D452S5975ZFGKRHBN5TR1T2FX","hitId":"34XASH8KLQ89J2U8D314D7180O4PMV","url":"https://gershmanlab.com/experiments/alicia/teaching/experiment/?hitId=34XASH8KLQ89J2U8D314D7180O4PMV&workerId=A3RKG5PZN97RD5&assignmentId=3HYA4D452S5975ZFGKRHBN5TR1T2FX&a=54YH7&tp_a=54YH7&b=3HYA4D452S5975ZFGKRHBN5TR1T2FX&tp_b=3HYA4D452S5975ZFGKRHBN5TR1T2FX&c=365717&tp_c=365717","firstResponseHeads":0,"firstResponseTails":5,"secondResponseHeads":0,"secondResponseTails":4,"totalHeads":0,"totalTails":9,"studentIndex":14,"studentTrueHypers":{"a":2,"b":8},"studentGuess":0.10526315789473684,"delta":0.09473684210526317,"bonus":0,"bonusSoFar":0.81,"totalExamples":9},{"rt":3655,"response":{"heads":"6","tails":"0"},"type":"response","condition":"nonSeqPartial","trueTheta":0.8,"classrooms":["A","B"],"studentTrueClassroom":"B","exampleSet":"first","trial_type":"survey-html-form","trial_index":123,"time_elapsed":680151,"internal_node_id":"0.0-122.0-0.0","params":{"nStudents":24,"maxFlips":30,"completionMinutes":45,"basePay":8,"maxBonus":9,"perTrialBonus":0.5,"perTrialBonusThreshold":0.05,"exampleCost":0.01},"classroomParams":{"A":{"a":1,"b":4},"B":{"a":4,"b":1},"C":{"a":2,"b":8},"D":{"a":8,"b":2}},"conditions":["nonSeqFull","nonSeqPartial","seqNoFeedback","seqFeedback"],"classroomPairings":[["A","B"],["C","D"]],"coinWeights":[0.2,0.5,0.8],"subjectId":"A3RKG5PZN97RD5","assignmentId":"3HYA4D452S5975ZFGKRHBN5TR1T2FX","hitId":"34XASH8KLQ89J2U8D314D7180O4PMV","url":"https://gershmanlab.com/experiments/alicia/teaching/experiment/?hitId=34XASH8KLQ89J2U8D314D7180O4PMV&workerId=A3RKG5PZN97RD5&assignmentId=3HYA4D452S5975ZFGKRHBN5TR1T2FX&a=54YH7&tp_a=54YH7&b=3HYA4D452S5975ZFGKRHBN5TR1T2FX&tp_b=3HYA4D452S5975ZFGKRHBN5TR1T2FX&c=365717&tp_c=365717","heads":6,"tails":0,"studentIndex":15,"studentTrueHypers":{"a":4,"b":1},"studentGuess":0.9090909090909091,"delta":0.10909090909090902,"totalExamples":6,"bonus":0,"bonusSoFar":0.81},{"rt":4111,"response":{"heads":"3","tails":"3"},"type":"response","condition":"nonSeqFull","trueTheta":0.5,"classrooms":["C","D"],"studentTrueClassroom":"C","exampleSet":"first","trial_type":"survey-html-form","trial_index":129,"time_elapsed":699926,"internal_node_id":"0.0-128.0-0.0","params":{"nStudents":24,"maxFlips":30,"completionMinutes":45,"basePay":8,"maxBonus":9,"perTrialBonus":0.5,"perTrialBonusThreshold":0.05,"exampleCost":0.01},"classroomParams":{"A":{"a":1,"b":4},"B":{"a":4,"b":1},"C":{"a":2,"b":8},"D":{"a":8,"b":2}},"conditions":["nonSeqFull","nonSeqPartial","seqNoFeedback","seqFeedback"],"classroomPairings":[["A","B"],["C","D"]],"coinWeights":[0.2,0.5,0.8],"subjectId":"A3RKG5PZN97RD5","assignmentId":"3HYA4D452S5975ZFGKRHBN5TR1T2FX","hitId":"34XASH8KLQ89J2U8D314D7180O4PMV","url":"https://gershmanlab.com/experiments/alicia/teaching/experiment/?hitId=34XASH8KLQ89J2U8D314D7180O4PMV&workerId=A3RKG5PZN97RD5&assignmentId=3HYA4D452S5975ZFGKRHBN5TR1T2FX&a=54YH7&tp_a=54YH7&b=3HYA4D452S5975ZFGKRHBN5TR1T2FX&tp_b=3HYA4D452S5975ZFGKRHBN5TR1T2FX&c=365717&tp_c=365717","heads":3,"tails":3,"studentIndex":16,"studentTrueHypers":{"a":2,"b":8},"studentGuess":0.3125,"delta":0.1875,"totalExamples":6,"bonus":0,"bonusSoFar":0.81},{"rt":1936,"response":{"heads":"0","tails":"0"},"type":"response","condition":"seqNoFeedback","trueTheta":0.5,"classrooms":["A","B"],"studentTrueClassroom":"B","exampleSet":"first","trial_type":"survey-html-form","trial_index":135,"time_elapsed":715052,"internal_node_id":"0.0-134.0-0.0","params":{"nStudents":24,"maxFlips":30,"completionMinutes":45,"basePay":8,"maxBonus":9,"perTrialBonus":0.5,"perTrialBonusThreshold":0.05,"exampleCost":0.01},"classroomParams":{"A":{"a":1,"b":4},"B":{"a":4,"b":1},"C":{"a":2,"b":8},"D":{"a":8,"b":2}},"conditions":["nonSeqFull","nonSeqPartial","seqNoFeedback","seqFeedback"],"classroomPairings":[["A","B"],["C","D"]],"coinWeights":[0.2,0.5,0.8],"subjectId":"A3RKG5PZN97RD5","assignmentId":"3HYA4D452S5975ZFGKRHBN5TR1T2FX","hitId":"34XASH8KLQ89J2U8D314D7180O4PMV","url":"https://gershmanlab.com/experiments/alicia/teaching/experiment/?hitId=34XASH8KLQ89J2U8D314D7180O4PMV&workerId=A3RKG5PZN97RD5&assignmentId=3HYA4D452S5975ZFGKRHBN5TR1T2FX&a=54YH7&tp_a=54YH7&b=3HYA4D452S5975ZFGKRHBN5TR1T2FX&tp_b=3HYA4D452S5975ZFGKRHBN5TR1T2FX&c=365717&tp_c=365717","heads":0,"tails":0,"studentIndex":17,"studentTrueHypers":{"a":4,"b":1},"studentGuess":0.8,"delta":0.30000000000000004,"totalExamples":0,"bonusSoFar":0.81},{"rt":4698,"response":{"heads":"0","tails":"0"},"type":"response","condition":"seqNoFeedback","trueTheta":0.5,"classrooms":["A","B"],"studentTrueClassroom":"B","exampleSet":"first","trial_type":"survey-html-form","trial_index":136,"time_elapsed":719756,"internal_node_id":"0.0-134.1-0.1","params":{"nStudents":24,"maxFlips":30,"completionMinutes":45,"basePay":8,"maxBonus":9,"perTrialBonus":0.5,"perTrialBonusThreshold":0.05,"exampleCost":0.01},"classroomParams":{"A":{"a":1,"b":4},"B":{"a":4,"b":1},"C":{"a":2,"b":8},"D":{"a":8,"b":2}},"conditions":["nonSeqFull","nonSeqPartial","seqNoFeedback","seqFeedback"],"classroomPairings":[["A","B"],["C","D"]],"coinWeights":[0.2,0.5,0.8],"subjectId":"A3RKG5PZN97RD5","assignmentId":"3HYA4D452S5975ZFGKRHBN5TR1T2FX","hitId":"34XASH8KLQ89J2U8D314D7180O4PMV","url":"https://gershmanlab.com/experiments/alicia/teaching/experiment/?hitId=34XASH8KLQ89J2U8D314D7180O4PMV&workerId=A3RKG5PZN97RD5&assignmentId=3HYA4D452S5975ZFGKRHBN5TR1T2FX&a=54YH7&tp_a=54YH7&b=3HYA4D452S5975ZFGKRHBN5TR1T2FX&tp_b=3HYA4D452S5975ZFGKRHBN5TR1T2FX&c=365717&tp_c=365717","heads":0,"tails":0,"studentIndex":17,"studentTrueHypers":{"a":4,"b":1},"studentGuess":0.8,"delta":0.30000000000000004,"totalExamples":0,"bonusSoFar":0.81},{"rt":3273,"response":{"heads":"1","tails":"1"},"type":"response","condition":"seqNoFeedback","trueTheta":0.5,"classrooms":["A","B"],"studentTrueClassroom":"B","exampleSet":"first","trial_type":"survey-html-form","trial_index":137,"time_elapsed":723034,"internal_node_id":"0.0-134.2-0.2","params":{"nStudents":24,"maxFlips":30,"completionMinutes":45,"basePay":8,"maxBonus":9,"perTrialBonus":0.5,"perTrialBonusThreshold":0.05,"exampleCost":0.01},"classroomParams":{"A":{"a":1,"b":4},"B":{"a":4,"b":1},"C":{"a":2,"b":8},"D":{"a":8,"b":2}},"conditions":["nonSeqFull","nonSeqPartial","seqNoFeedback","seqFeedback"],"classroomPairings":[["A","B"],["C","D"]],"coinWeights":[0.2,0.5,0.8],"subjectId":"A3RKG5PZN97RD5","assignmentId":"3HYA4D452S5975ZFGKRHBN5TR1T2FX","hitId":"34XASH8KLQ89J2U8D314D7180O4PMV","url":"https://gershmanlab.com/experiments/alicia/teaching/experiment/?hitId=34XASH8KLQ89J2U8D314D7180O4PMV&workerId=A3RKG5PZN97RD5&assignmentId=3HYA4D452S5975ZFGKRHBN5TR1T2FX&a=54YH7&tp_a=54YH7&b=3HYA4D452S5975ZFGKRHBN5TR1T2FX&tp_b=3HYA4D452S5975ZFGKRHBN5TR1T2FX&c=365717&tp_c=365717","heads":1,"tails":1,"studentIndex":17,"studentTrueHypers":{"a":4,"b":1},"studentGuess":0.7142857142857143,"delta":0.2142857142857143,"totalExamples":2,"bonusSoFar":0.81},{"rt":4644,"response":{"heads":"1","tails":"1"},"type":"response","condition":"seqNoFeedback","trueTheta":0.5,"classrooms":["A","B"],"studentTrueClassroom":"B","exampleSet":"second","trial_type":"survey-html-form","trial_index":140,"time_elapsed":733938,"internal_node_id":"0.0-137.0-0.0","params":{"nStudents":24,"maxFlips":30,"completionMinutes":45,"basePay":8,"maxBonus":9,"perTrialBonus":0.5,"perTrialBonusThreshold":0.05,"exampleCost":0.01},"classroomParams":{"A":{"a":1,"b":4},"B":{"a":4,"b":1},"C":{"a":2,"b":8},"D":{"a":8,"b":2}},"conditions":["nonSeqFull","nonSeqPartial","seqNoFeedback","seqFeedback"],"classroomPairings":[["A","B"],["C","D"]],"coinWeights":[0.2,0.5,0.8],"subjectId":"A3RKG5PZN97RD5","assignmentId":"3HYA4D452S5975ZFGKRHBN5TR1T2FX","hitId":"34XASH8KLQ89J2U8D314D7180O4PMV","url":"https://gershmanlab.com/experiments/alicia/teaching/experiment/?hitId=34XASH8KLQ89J2U8D314D7180O4PMV&workerId=A3RKG5PZN97RD5&assignmentId=3HYA4D452S5975ZFGKRHBN5TR1T2FX&a=54YH7&tp_a=54YH7&b=3HYA4D452S5975ZFGKRHBN5TR1T2FX&tp_b=3HYA4D452S5975ZFGKRHBN5TR1T2FX&c=365717&tp_c=365717","firstResponseHeads":0,"firstResponseTails":0,"secondResponseHeads":1,"secondResponseTails":1,"totalHeads":1,"totalTails":1,"studentIndex":17,"studentTrueHypers":{"a":4,"b":1},"studentGuess":0.7142857142857143,"delta":0.2142857142857143,"bonus":0,"bonusSoFar":0.81,"totalExamples":2},{"rt":4681,"response":{"heads":"3","tails":"3"},"type":"response","condition":"seqFeedback","trueTheta":0.5,"classrooms":["C","D"],"studentTrueClassroom":"D","exampleSet":"first","trial_type":"survey-html-form","trial_index":146,"time_elapsed":752884,"internal_node_id":"0.0-143.0-0.0","params":{"nStudents":24,"maxFlips":30,"completionMinutes":45,"basePay":8,"maxBonus":9,"perTrialBonus":0.5,"perTrialBonusThreshold":0.05,"exampleCost":0.01},"classroomParams":{"A":{"a":1,"b":4},"B":{"a":4,"b":1},"C":{"a":2,"b":8},"D":{"a":8,"b":2}},"conditions":["nonSeqFull","nonSeqPartial","seqNoFeedback","seqFeedback"],"classroomPairings":[["A","B"],["C","D"]],"coinWeights":[0.2,0.5,0.8],"subjectId":"A3RKG5PZN97RD5","assignmentId":"3HYA4D452S5975ZFGKRHBN5TR1T2FX","hitId":"34XASH8KLQ89J2U8D314D7180O4PMV","url":"https://gershmanlab.com/experiments/alicia/teaching/experiment/?hitId=34XASH8KLQ89J2U8D314D7180O4PMV&workerId=A3RKG5PZN97RD5&assignmentId=3HYA4D452S5975ZFGKRHBN5TR1T2FX&a=54YH7&tp_a=54YH7&b=3HYA4D452S5975ZFGKRHBN5TR1T2FX&tp_b=3HYA4D452S5975ZFGKRHBN5TR1T2FX&c=365717&tp_c=365717","heads":3,"tails":3,"studentIndex":18,"studentTrueHypers":{"a":8,"b":2},"studentGuess":0.6875,"delta":0.1875,"totalExamples":6,"bonusSoFar":0.81},{"rt":3449,"response":{"heads":"1","tails":"1"},"type":"response","condition":"seqFeedback","trueTheta":0.5,"classrooms":["C","D"],"studentTrueClassroom":"D","exampleSet":"second","trial_type":"survey-html-form","trial_index":150,"time_elapsed":765516,"internal_node_id":"0.0-147.0-0.0","params":{"nStudents":24,"maxFlips":30,"completionMinutes":45,"basePay":8,"maxBonus":9,"perTrialBonus":0.5,"perTrialBonusThreshold":0.05,"exampleCost":0.01},"classroomParams":{"A":{"a":1,"b":4},"B":{"a":4,"b":1},"C":{"a":2,"b":8},"D":{"a":8,"b":2}},"conditions":["nonSeqFull","nonSeqPartial","seqNoFeedback","seqFeedback"],"classroomPairings":[["A","B"],["C","D"]],"coinWeights":[0.2,0.5,0.8],"subjectId":"A3RKG5PZN97RD5","assignmentId":"3HYA4D452S5975ZFGKRHBN5TR1T2FX","hitId":"34XASH8KLQ89J2U8D314D7180O4PMV","url":"https://gershmanlab.com/experiments/alicia/teaching/experiment/?hitId=34XASH8KLQ89J2U8D314D7180O4PMV&workerId=A3RKG5PZN97RD5&assignmentId=3HYA4D452S5975ZFGKRHBN5TR1T2FX&a=54YH7&tp_a=54YH7&b=3HYA4D452S5975ZFGKRHBN5TR1T2FX&tp_b=3HYA4D452S5975ZFGKRHBN5TR1T2FX&c=365717&tp_c=365717","firstResponseHeads":3,"firstResponseTails":3,"secondResponseHeads":1,"secondResponseTails":1,"totalHeads":4,"totalTails":4,"studentIndex":18,"studentTrueHypers":{"a":8,"b":2},"studentGuess":0.6666666666666666,"delta":0.16666666666666663,"bonus":0,"bonusSoFar":0.81,"totalExamples":8},{"rt":4623,"response":{"heads":"1","tails":"6"},"type":"response","condition":"seqNoFeedback","trueTheta":0.2,"classrooms":["C","D"],"studentTrueClassroom":"C","exampleSet":"first","trial_type":"survey-html-form","trial_index":156,"time_elapsed":787701,"internal_node_id":"0.0-153.0-0.0","params":{"nStudents":24,"maxFlips":30,"completionMinutes":45,"basePay":8,"maxBonus":9,"perTrialBonus":0.5,"perTrialBonusThreshold":0.05,"exampleCost":0.01},"classroomParams":{"A":{"a":1,"b":4},"B":{"a":4,"b":1},"C":{"a":2,"b":8},"D":{"a":8,"b":2}},"conditions":["nonSeqFull","nonSeqPartial","seqNoFeedback","seqFeedback"],"classroomPairings":[["A","B"],["C","D"]],"coinWeights":[0.2,0.5,0.8],"subjectId":"A3RKG5PZN97RD5","assignmentId":"3HYA4D452S5975ZFGKRHBN5TR1T2FX","hitId":"34XASH8KLQ89J2U8D314D7180O4PMV","url":"https://gershmanlab.com/experiments/alicia/teaching/experiment/?hitId=34XASH8KLQ89J2U8D314D7180O4PMV&workerId=A3RKG5PZN97RD5&assignmentId=3HYA4D452S5975ZFGKRHBN5TR1T2FX&a=54YH7&tp_a=54YH7&b=3HYA4D452S5975ZFGKRHBN5TR1T2FX&tp_b=3HYA4D452S5975ZFGKRHBN5TR1T2FX&c=365717&tp_c=365717","heads":1,"tails":6,"studentIndex":19,"studentTrueHypers":{"a":2,"b":8},"studentGuess":0.17647058823529413,"delta":0.023529411764705882,"totalExamples":7,"bonusSoFar":0.81},{"rt":7470,"response":{"heads":"1","tails":"5"},"type":"response","condition":"seqNoFeedback","trueTheta":0.2,"classrooms":["C","D"],"studentTrueClassroom":"C","exampleSet":"second","trial_type":"survey-html-form","trial_index":159,"time_elapsed":800434,"internal_node_id":"0.0-156.0-0.0","params":{"nStudents":24,"maxFlips":30,"completionMinutes":45,"basePay":8,"maxBonus":9,"perTrialBonus":0.5,"perTrialBonusThreshold":0.05,"exampleCost":0.01},"classroomParams":{"A":{"a":1,"b":4},"B":{"a":4,"b":1},"C":{"a":2,"b":8},"D":{"a":8,"b":2}},"conditions":["nonSeqFull","nonSeqPartial","seqNoFeedback","seqFeedback"],"classroomPairings":[["A","B"],["C","D"]],"coinWeights":[0.2,0.5,0.8],"subjectId":"A3RKG5PZN97RD5","assignmentId":"3HYA4D452S5975ZFGKRHBN5TR1T2FX","hitId":"34XASH8KLQ89J2U8D314D7180O4PMV","url":"https://gershmanlab.com/experiments/alicia/teaching/experiment/?hitId=34XASH8KLQ89J2U8D314D7180O4PMV&workerId=A3RKG5PZN97RD5&assignmentId=3HYA4D452S5975ZFGKRHBN5TR1T2FX&a=54YH7&tp_a=54YH7&b=3HYA4D452S5975ZFGKRHBN5TR1T2FX&tp_b=3HYA4D452S5975ZFGKRHBN5TR1T2FX&c=365717&tp_c=365717","firstResponseHeads":1,"firstResponseTails":6,"secondResponseHeads":1,"secondResponseTails":5,"totalHeads":2,"totalTails":11,"studentIndex":19,"studentTrueHypers":{"a":2,"b":8},"studentGuess":0.17391304347826086,"delta":0.026086956521739146,"bonus":0.37,"bonusSoFar":1.18,"totalExamples":13},{"rt":8726,"response":{"heads":"8","tails":"0"},"type":"response","condition":"nonSeqPartial","trueTheta":0.8,"classrooms":["C","D"],"studentTrueClassroom":"D","exampleSet":"first","trial_type":"survey-html-form","trial_index":165,"time_elapsed":824776,"internal_node_id":"0.0-162.0-0.0","params":{"nStudents":24,"maxFlips":30,"completionMinutes":45,"basePay":8,"maxBonus":9,"perTrialBonus":0.5,"perTrialBonusThreshold":0.05,"exampleCost":0.01},"classroomParams":{"A":{"a":1,"b":4},"B":{"a":4,"b":1},"C":{"a":2,"b":8},"D":{"a":8,"b":2}},"conditions":["nonSeqFull","nonSeqPartial","seqNoFeedback","seqFeedback"],"classroomPairings":[["A","B"],["C","D"]],"coinWeights":[0.2,0.5,0.8],"subjectId":"A3RKG5PZN97RD5","assignmentId":"3HYA4D452S5975ZFGKRHBN5TR1T2FX","hitId":"34XASH8KLQ89J2U8D314D7180O4PMV","url":"https://gershmanlab.com/experiments/alicia/teaching/experiment/?hitId=34XASH8KLQ89J2U8D314D7180O4PMV&workerId=A3RKG5PZN97RD5&assignmentId=3HYA4D452S5975ZFGKRHBN5TR1T2FX&a=54YH7&tp_a=54YH7&b=3HYA4D452S5975ZFGKRHBN5TR1T2FX&tp_b=3HYA4D452S5975ZFGKRHBN5TR1T2FX&c=365717&tp_c=365717","heads":8,"tails":0,"studentIndex":20,"studentTrueHypers":{"a":8,"b":2},"studentGuess":0.8888888888888888,"delta":0.0888888888888888,"totalExamples":8,"bonus":0,"bonusSoFar":1.18},{"rt":4926,"response":{"heads":"8","tails":"0"},"type":"response","condition":"seqNoFeedback","trueTheta":0.8,"classrooms":["C","D"],"studentTrueClassroom":"C","exampleSet":"first","trial_type":"survey-html-form","trial_index":171,"time_elapsed":842696,"internal_node_id":"0.0-168.0-0.0","params":{"nStudents":24,"maxFlips":30,"completionMinutes":45,"basePay":8,"maxBonus":9,"perTrialBonus":0.5,"perTrialBonusThreshold":0.05,"exampleCost":0.01},"classroomParams":{"A":{"a":1,"b":4},"B":{"a":4,"b":1},"C":{"a":2,"b":8},"D":{"a":8,"b":2}},"conditions":["nonSeqFull","nonSeqPartial","seqNoFeedback","seqFeedback"],"classroomPairings":[["A","B"],["C","D"]],"coinWeights":[0.2,0.5,0.8],"subjectId":"A3RKG5PZN97RD5","assignmentId":"3HYA4D452S5975ZFGKRHBN5TR1T2FX","hitId":"34XASH8KLQ89J2U8D314D7180O4PMV","url":"https://gershmanlab.com/experiments/alicia/teaching/experiment/?hitId=34XASH8KLQ89J2U8D314D7180O4PMV&workerId=A3RKG5PZN97RD5&assignmentId=3HYA4D452S5975ZFGKRHBN5TR1T2FX&a=54YH7&tp_a=54YH7&b=3HYA4D452S5975ZFGKRHBN5TR1T2FX&tp_b=3HYA4D452S5975ZFGKRHBN5TR1T2FX&c=365717&tp_c=365717","heads":8,"tails":0,"studentIndex":21,"studentTrueHypers":{"a":2,"b":8},"studentGuess":0.5555555555555556,"delta":0.24444444444444446,"totalExamples":8,"bonusSoFar":1.18},{"rt":7282,"response":{"heads":"8","tails":"0"},"type":"response","condition":"seqNoFeedback","trueTheta":0.8,"classrooms":["C","D"],"studentTrueClassroom":"C","exampleSet":"second","trial_type":"survey-html-form","trial_index":174,"time_elapsed":856738,"internal_node_id":"0.0-171.0-0.0","params":{"nStudents":24,"maxFlips":30,"completionMinutes":45,"basePay":8,"maxBonus":9,"perTrialBonus":0.5,"perTrialBonusThreshold":0.05,"exampleCost":0.01},"classroomParams":{"A":{"a":1,"b":4},"B":{"a":4,"b":1},"C":{"a":2,"b":8},"D":{"a":8,"b":2}},"conditions":["nonSeqFull","nonSeqPartial","seqNoFeedback","seqFeedback"],"classroomPairings":[["A","B"],["C","D"]],"coinWeights":[0.2,0.5,0.8],"subjectId":"A3RKG5PZN97RD5","assignmentId":"3HYA4D452S5975ZFGKRHBN5TR1T2FX","hitId":"34XASH8KLQ89J2U8D314D7180O4PMV","url":"https://gershmanlab.com/experiments/alicia/teaching/experiment/?hitId=34XASH8KLQ89J2U8D314D7180O4PMV&workerId=A3RKG5PZN97RD5&assignmentId=3HYA4D452S5975ZFGKRHBN5TR1T2FX&a=54YH7&tp_a=54YH7&b=3HYA4D452S5975ZFGKRHBN5TR1T2FX&tp_b=3HYA4D452S5975ZFGKRHBN5TR1T2FX&c=365717&tp_c=365717","firstResponseHeads":8,"firstResponseTails":0,"secondResponseHeads":8,"secondResponseTails":0,"totalHeads":16,"totalTails":0,"studentIndex":21,"studentTrueHypers":{"a":2,"b":8},"studentGuess":0.6923076923076923,"delta":0.10769230769230775,"bonus":0,"bonusSoFar":1.18,"totalExamples":16},{"rt":4705,"response":{"heads":"2","tails":"2"},"type":"response","condition":"nonSeqFull","trueTheta":0.5,"classrooms":["A","B"],"studentTrueClassroom":"A","exampleSet":"first","trial_type":"survey-html-form","trial_index":180,"time_elapsed":877427,"internal_node_id":"0.0-177.0-0.0","params":{"nStudents":24,"maxFlips":30,"completionMinutes":45,"basePay":8,"maxBonus":9,"perTrialBonus":0.5,"perTrialBonusThreshold":0.05,"exampleCost":0.01},"classroomParams":{"A":{"a":1,"b":4},"B":{"a":4,"b":1},"C":{"a":2,"b":8},"D":{"a":8,"b":2}},"conditions":["nonSeqFull","nonSeqPartial","seqNoFeedback","seqFeedback"],"classroomPairings":[["A","B"],["C","D"]],"coinWeights":[0.2,0.5,0.8],"subjectId":"A3RKG5PZN97RD5","assignmentId":"3HYA4D452S5975ZFGKRHBN5TR1T2FX","hitId":"34XASH8KLQ89J2U8D314D7180O4PMV","url":"https://gershmanlab.com/experiments/alicia/teaching/experiment/?hitId=34XASH8KLQ89J2U8D314D7180O4PMV&workerId=A3RKG5PZN97RD5&assignmentId=3HYA4D452S5975ZFGKRHBN5TR1T2FX&a=54YH7&tp_a=54YH7&b=3HYA4D452S5975ZFGKRHBN5TR1T2FX&tp_b=3HYA4D452S5975ZFGKRHBN5TR1T2FX&c=365717&tp_c=365717","heads":2,"tails":2,"studentIndex":22,"studentTrueHypers":{"a":1,"b":4},"studentGuess":0.3333333333333333,"delta":0.16666666666666669,"totalExamples":4,"bonus":0,"bonusSoFar":1.18},{"rt":8202,"response":{"heads":"1","tails":"5"},"type":"response","condition":"seqNoFeedback","trueTheta":0.2,"classrooms":["A","B"],"studentTrueClassroom":"A","exampleSet":"first","trial_type":"survey-html-form","trial_index":186,"time_elapsed":899999,"internal_node_id":"0.0-183.0-0.0","params":{"nStudents":24,"maxFlips":30,"completionMinutes":45,"basePay":8,"maxBonus":9,"perTrialBonus":0.5,"perTrialBonusThreshold":0.05,"exampleCost":0.01},"classroomParams":{"A":{"a":1,"b":4},"B":{"a":4,"b":1},"C":{"a":2,"b":8},"D":{"a":8,"b":2}},"conditions":["nonSeqFull","nonSeqPartial","seqNoFeedback","seqFeedback"],"classroomPairings":[["A","B"],["C","D"]],"coinWeights":[0.2,0.5,0.8],"subjectId":"A3RKG5PZN97RD5","assignmentId":"3HYA4D452S5975ZFGKRHBN5TR1T2FX","hitId":"34XASH8KLQ89J2U8D314D7180O4PMV","url":"https://gershmanlab.com/experiments/alicia/teaching/experiment/?hitId=34XASH8KLQ89J2U8D314D7180O4PMV&workerId=A3RKG5PZN97RD5&assignmentId=3HYA4D452S5975ZFGKRHBN5TR1T2FX&a=54YH7&tp_a=54YH7&b=3HYA4D452S5975ZFGKRHBN5TR1T2FX&tp_b=3HYA4D452S5975ZFGKRHBN5TR1T2FX&c=365717&tp_c=365717","heads":1,"tails":5,"studentIndex":23,"studentTrueHypers":{"a":1,"b":4},"studentGuess":0.18181818181818182,"delta":0.018181818181818188,"totalExamples":6,"bonusSoFar":1.18},{"rt":4816,"response":{"heads":"1","tails":"5"},"type":"response","condition":"seqNoFeedback","trueTheta":0.2,"classrooms":["A","B"],"studentTrueClassroom":"A","exampleSet":"second","trial_type":"survey-html-form","trial_index":189,"time_elapsed":912324,"internal_node_id":"0.0-186.0-0.0","params":{"nStudents":24,"maxFlips":30,"completionMinutes":45,"basePay":8,"maxBonus":9,"perTrialBonus":0.5,"perTrialBonusThreshold":0.05,"exampleCost":0.01},"classroomParams":{"A":{"a":1,"b":4},"B":{"a":4,"b":1},"C":{"a":2,"b":8},"D":{"a":8,"b":2}},"conditions":["nonSeqFull","nonSeqPartial","seqNoFeedback","seqFeedback"],"classroomPairings":[["A","B"],["C","D"]],"coinWeights":[0.2,0.5,0.8],"subjectId":"A3RKG5PZN97RD5","assignmentId":"3HYA4D452S5975ZFGKRHBN5TR1T2FX","hitId":"34XASH8KLQ89J2U8D314D7180O4PMV","url":"https://gershmanlab.com/experiments/alicia/teaching/experiment/?hitId=34XASH8KLQ89J2U8D314D7180O4PMV&workerId=A3RKG5PZN97RD5&assignmentId=3HYA4D452S5975ZFGKRHBN5TR1T2FX&a=54YH7&tp_a=54YH7&b=3HYA4D452S5975ZFGKRHBN5TR1T2FX&tp_b=3HYA4D452S5975ZFGKRHBN5TR1T2FX&c=365717&tp_c=365717","firstResponseHeads":1,"firstResponseTails":5,"secondResponseHeads":1,"secondResponseTails":5,"totalHeads":2,"totalTails":10,"studentIndex":23,"studentTrueHypers":{"a":1,"b":4},"studentGuess":0.17647058823529413,"delta":0.023529411764705882,"bonus":0.38,"bonusSoFar":1.56,"totalExamples":12},{"rt":9307,"response":{"gender":"female","age":"51","understood":"yes","comments":""},"type":"response","trial_type":"survey-html-form","trial_index":193,"time_elapsed":931876,"internal_node_id":"0.0-191.0","params":{"nStudents":24,"maxFlips":30,"completionMinutes":45,"basePay":8,"maxBonus":9,"perTrialBonus":0.5,"perTrialBonusThreshold":0.05,"exampleCost":0.01},"classroomParams":{"A":{"a":1,"b":4},"B":{"a":4,"b":1},"C":{"a":2,"b":8},"D":{"a":8,"b":2}},"conditions":["nonSeqFull","nonSeqPartial","seqNoFeedback","seqFeedback"],"classroomPairings":[["A","B"],["C","D"]],"coinWeights":[0.2,0.5,0.8],"subjectId":"A3RKG5PZN97RD5","assignmentId":"3HYA4D452S5975ZFGKRHBN5TR1T2FX","hitId":"34XASH8KLQ89J2U8D314D7180O4PMV","url":"https://gershmanlab.com/experiments/alicia/teaching/experiment/?hitId=34XASH8KLQ89J2U8D314D7180O4PMV&workerId=A3RKG5PZN97RD5&assignmentId=3HYA4D452S5975ZFGKRHBN5TR1T2FX&a=54YH7&tp_a=54YH7&b=3HYA4D452S5975ZFGKRHBN5TR1T2FX&tp_b=3HYA4D452S5975ZFGKRHBN5TR1T2FX&c=365717&tp_c=365717","totalBonus":1.56}]