[{"rt":26967,"response":{"heads":"4","tails":"1"},"type":"response","condition":"seqFeedback","trueTheta":0.8,"classrooms":["C","D"],"studentTrueClassroom":"C","exampleSet":"first","trial_type":"survey-html-form","trial_index":28,"time_elapsed":644127,"internal_node_id":"0.0-6.0-0.0","params":{"nStudents":24,"maxFlips":30,"completionMinutes":45,"basePay":8,"maxBonus":9,"perTrialBonus":0.5,"perTrialBonusThreshold":0.05,"exampleCost":0.01},"classroomParams":{"A":{"a":1,"b":4},"B":{"a":4,"b":1},"C":{"a":2,"b":8},"D":{"a":8,"b":2}},"conditions":["nonSeqFull","nonSeqPartial","seqNoFeedback","seqFeedback"],"classroomPairings":[["A","B"],["C","D"]],"coinWeights":[0.2,0.5,0.8],"subjectId":"A3T3KEK5G6JYTZ","assignmentId":"3CPLWGV3MPLWVHXVZHP9TFMGZZA9NQ","hitId":"3SD15I2WD2G0NA4TSPXGB81L5S7630","url":"https://gershmanlab.com/experiments/alicia/teaching/experiment/?hitId=3SD15I2WD2G0NA4TSPXGB81L5S7630&workerId=A3T3KEK5G6JYTZ&assignmentId=3CPLWGV3MPLWVHXVZHP9TFMGZZA9NQ&a=3WPC9&tp_a=3WPC9&b=3CPLWGV3MPLWVHXVZHP9TFMGZZA9NQ&tp_b=3CPLWGV3MPLWVHXVZHP9TFMGZZA9NQ&c=365799&tp_c=365799","heads":4,"tails":1,"studentIndex":0,"studentTrueHypers":{"a":2,"b":8},"studentGuess":0.4,"delta":0.4,"totalExamples":5,"bonusSoFar":0},{"rt":21224,"response":{"heads":"8","tails":"2"},"type":"response","condition":"seqFeedback","trueTheta":0.8,"classrooms":["C","D"],"studentTrueClassroom":"C","exampleSet":"second","trial_type":"survey-html-form","trial_index":32,"time_elapsed":678199,"internal_node_id":"0.0-10.0-0.0","params":{"nStudents":24,"maxFlips":30,"completionMinutes":45,"basePay":8,"maxBonus":9,"perTrialBonus":0.5,"perTrialBonusThreshold":0.05,"exampleCost":0.01},"classroomParams":{"A":{"a":1,"b":4},"B":{"a":4,"b":1},"C":{"a":2,"b":8},"D":{"a":8,"b":2}},"conditions":["nonSeqFull","nonSeqPartial","seqNoFeedback","seqFeedback"],"classroomPairings":[["A","B"],["C","D"]],"coinWeights":[0.2,0.5,0.8],"subjectId":"A3T3KEK5G6JYTZ","assignmentId":"3CPLWGV3MPLWVHXVZHP9TFMGZZA9NQ","hitId":"3SD15I2WD2G0NA4TSPXGB81L5S7630","url":"https://gershmanlab.com/experiments/alicia/teaching/experiment/?hitId=3SD15I2WD2G0NA4TSPXGB81L5S7630&workerId=A3T3KEK5G6JYTZ&assignmentId=3CPLWGV3MPLWVHXVZHP9TFMGZZA9NQ&a=3WPC9&tp_a=3WPC9&b=3CPLWGV3MPLWVHXVZHP9TFMGZZA9NQ&tp_b=3CPLWGV3MPLWVHXVZHP9TFMGZZA9NQ&c=365799&tp_c=365799","firstResponseHeads":4,"firstResponseTails":1,"secondResponseHeads":8,"secondResponseTails":2,"totalHeads":12,"totalTails":3,"studentIndex":0,"studentTrueHypers":{"a":2,"b":8},"studentGuess":0.56,"delta":0.24,"bonus":0,"bonusSoFar":0,"totalExamples":15},{"rt":9877,"response":{"heads":"4","tails":"1"},"type":"response","condition":"nonSeqFull","trueTheta":0.8,"classrooms":["A","B"],"studentTrueClassroom":"B","exampleSet":"first","trial_type":"survey-html-form","trial_index":38,"time_elapsed":704277,"internal_node_id":"0.0-16.0-0.0","params":{"nStudents":24,"maxFlips":30,"completionMinutes":45,"basePay":8,"maxBonus":9,"perTrialBonus":0.5,"perTrialBonusThreshold":0.05,"exampleCost":0.01},"classroomParams":{"A":{"a":1,"b":4},"B":{"a":4,"b":1},"C":{"a":2,"b":8},"D":{"a":8,"b":2}},"conditions":["nonSeqFull","nonSeqPartial","seqNoFeedback","seqFeedback"],"classroomPairings":[["A","B"],["C","D"]],"coinWeights":[0.2,0.5,0.8],"subjectId":"A3T3KEK5G6JYTZ","assignmentId":"3CPLWGV3MPLWVHXVZHP9TFMGZZA9NQ","hitId":"3SD15I2WD2G0NA4TSPXGB81L5S7630","url":"https://gershmanlab.com/experiments/alicia/teaching/experiment/?hitId=3SD15I2WD2G0NA4TSPXGB81L5S7630&workerId=A3T3KEK5G6JYTZ&assignmentId=3CPLWGV3MPLWVHXVZHP9TFMGZZA9NQ&a=3WPC9&tp_a=3WPC9&b=3CPLWGV3MPLWVHXVZHP9TFMGZZA9NQ&tp_b=3CPLWGV3MPLWVHXVZHP9TFMGZZA9NQ&c=365799&tp_c=365799","heads":4,"tails":1,"studentIndex":1,"studentTrueHypers":{"a":4,"b":1},"studentGuess":0.8,"delta":0,"totalExamples":5,"bonus":0.45,"bonusSoFar":0.45},{"rt":14486,"response":{"heads":"4","tails":"1"},"type":"response","condition":"nonSeqFull","trueTheta":0.8,"classrooms":["C","D"],"studentTrueClassroom":"D","exampleSet":"first","trial_type":"survey-html-form","trial_index":44,"time_elapsed":732687,"internal_node_id":"0.0-22.0-0.0","params":{"nStudents":24,"maxFlips":30,"completionMinutes":45,"basePay":8,"maxBonus":9,"perTrialBonus":0.5,"perTrialBonusThreshold":0.05,"exampleCost":0.01},"classroomParams":{"A":{"a":1,"b":4},"B":{"a":4,"b":1},"C":{"a":2,"b":8},"D":{"a":8,"b":2}},"conditions":["nonSeqFull","nonSeqPartial","seqNoFeedback","seqFeedback"],"classroomPairings":[["A","B"],["C","D"]],"coinWeights":[0.2,0.5,0.8],"subjectId":"A3T3KEK5G6JYTZ","assignmentId":"3CPLWGV3MPLWVHXVZHP9TFMGZZA9NQ","hitId":"3SD15I2WD2G0NA4TSPXGB81L5S7630","url":"https://gershmanlab.com/experiments/alicia/teaching/experiment/?hitId=3SD15I2WD2G0NA4TSPXGB81L5S7630&workerId=A3T3KEK5G6JYTZ&assignmentId=3CPLWGV3MPLWVHXVZHP9TFMGZZA9NQ&a=3WPC9&tp_a=3WPC9&b=3CPLWGV3MPLWVHXVZHP9TFMGZZA9NQ&tp_b=3CPLWGV3MPLWVHXVZHP9TFMGZZA9NQ&c=365799&tp_c=365799","heads":4,"tails":1,"studentIndex":2,"studentTrueHypers":{"a":8,"b":2},"studentGuess":0.8,"delta":0,"totalExamples":5,"bonus":0.45,"bonusSoFar":0.9},{"rt":17543,"response":{"heads":"15","tails":"15"},"type":"response","condition":"nonSeqPartial","trueTheta":0.5,"classrooms":["A","B"],"studentTrueClassroom":"A","exampleSet":"first","trial_type":"survey-html-form","trial_index":50,"time_elapsed":765073,"internal_node_id":"0.0-28.0-0.0","params":{"nStudents":24,"maxFlips":30,"completionMinutes":45,"basePay":8,"maxBonus":9,"perTrialBonus":0.5,"perTrialBonusThreshold":0.05,"exampleCost":0.01},"classroomParams":{"A":{"a":1,"b":4},"B":{"a":4,"b":1},"C":{"a":2,"b":8},"D":{"a":8,"b":2}},"conditions":["nonSeqFull","nonSeqPartial","seqNoFeedback","seqFeedback"],"classroomPairings":[["A","B"],["C","D"]],"coinWeights":[0.2,0.5,0.8],"subjectId":"A3T3KEK5G6JYTZ","assignmentId":"3CPLWGV3MPLWVHXVZHP9TFMGZZA9NQ","hitId":"3SD15I2WD2G0NA4TSPXGB81L5S7630","url":"https://gershmanlab.com/experiments/alicia/teaching/experiment/?hitId=3SD15I2WD2G0NA4TSPXGB81L5S7630&workerId=A3T3KEK5G6JYTZ&assignmentId=3CPLWGV3MPLWVHXVZHP9TFMGZZA9NQ&a=3WPC9&tp_a=3WPC9&b=3CPLWGV3MPLWVHXVZHP9TFMGZZA9NQ&tp_b=3CPLWGV3MPLWVHXVZHP9TFMGZZA9NQ&c=365799&tp_c=365799","heads":15,"tails":15,"studentIndex":3,"studentTrueHypers":{"a":1,"b":4},"studentGuess":0.45714285714285713,"delta":0.04285714285714287,"totalExamples":30,"bonus":0.2,"bonusSoFar":1.1},{"rt":28421,"response":{"heads":"1","tails":"4"},"type":"response","condition":"seqNoFeedback","trueTheta":0.2,"classrooms":["A","B"],"studentTrueClassroom":"B","exampleSet":"first","trial_type":"survey-html-form","trial_index":56,"time_elapsed":811403,"internal_node_id":"0.0-34.0-0.0","params":{"nStudents":24,"maxFlips":30,"completionMinutes":45,"basePay":8,"maxBonus":9,"perTrialBonus":0.5,"perTrialBonusThreshold":0.05,"exampleCost":0.01},"classroomParams":{"A":{"a":1,"b":4},"B":{"a":4,"b":1},"C":{"a":2,"b":8},"D":{"a":8,"b":2}},"conditions":["nonSeqFull","nonSeqPartial","seqNoFeedback","seqFeedback"],"classroomPairings":[["A","B"],["C","D"]],"coinWeights":[0.2,0.5,0.8],"subjectId":"A3T3KEK5G6JYTZ","assignmentId":"3CPLWGV3MPLWVHXVZHP9TFMGZZA9NQ","hitId":"3SD15I2WD2G0NA4TSPXGB81L5S7630","url":"https://gershmanlab.com/experiments/alicia/teaching/experiment/?hitId=3SD15I2WD2G0NA4TSPXGB81L5S7630&workerId=A3T3KEK5G6JYTZ&assignmentId=3CPLWGV3MPLWVHXVZHP9TFMGZZA9NQ&a=3WPC9&tp_a=3WPC9&b=3CPLWGV3MPLWVHXVZHP9TFMGZZA9NQ&tp_b=3CPLWGV3MPLWVHXVZHP9TFMGZZA9NQ&c=365799&tp_c=365799","heads":1,"tails":4,"studentIndex":4,"studentTrueHypers":{"a":4,"b":1},"studentGuess":0.5,"delta":0.3,"totalExamples":5,"bonusSoFar":1.1},{"rt":20916,"response":{"heads":"4","tails":"16"},"type":"response","condition":"seqNoFeedback","trueTheta":0.2,"classrooms":["A","B"],"studentTrueClassroom":"B","exampleSet":"second","trial_type":"survey-html-form","trial_index":59,"time_elapsed":839581,"internal_node_id":"0.0-37.0-0.0","params":{"nStudents":24,"maxFlips":30,"completionMinutes":45,"basePay":8,"maxBonus":9,"perTrialBonus":0.5,"perTrialBonusThreshold":0.05,"exampleCost":0.01},"classroomParams":{"A":{"a":1,"b":4},"B":{"a":4,"b":1},"C":{"a":2,"b":8},"D":{"a":8,"b":2}},"conditions":["nonSeqFull","nonSeqPartial","seqNoFeedback","seqFeedback"],"classroomPairings":[["A","B"],["C","D"]],"coinWeights":[0.2,0.5,0.8],"subjectId":"A3T3KEK5G6JYTZ","assignmentId":"3CPLWGV3MPLWVHXVZHP9TFMGZZA9NQ","hitId":"3SD15I2WD2G0NA4TSPXGB81L5S7630","url":"https://gershmanlab.com/experiments/alicia/teaching/experiment/?hitId=3SD15I2WD2G0NA4TSPXGB81L5S7630&workerId=A3T3KEK5G6JYTZ&assignmentId=3CPLWGV3MPLWVHXVZHP9TFMGZZA9NQ&a=3WPC9&tp_a=3WPC9&b=3CPLWGV3MPLWVHXVZHP9TFMGZZA9NQ&tp_b=3CPLWGV3MPLWVHXVZHP9TFMGZZA9NQ&c=365799&tp_c=365799","firstResponseHeads":1,"firstResponseTails":4,"secondResponseHeads":4,"secondResponseTails":16,"totalHeads":5,"totalTails":20,"studentIndex":4,"studentTrueHypers":{"a":4,"b":1},"studentGuess":0.3,"delta":0.09999999999999998,"bonus":0,"bonusSoFar":1.1,"totalExamples":25},{"rt":9792,"response":{"heads":"15","tails":"15"},"type":"response","condition":"seqNoFeedback","trueTheta":0.5,"classrooms":["C","D"],"studentTrueClassroom":"C","exampleSet":"first","trial_type":"survey-html-form","trial_index":65,"time_elapsed":867902,"internal_node_id":"0.0-43.0-0.0","params":{"nStudents":24,"maxFlips":30,"completionMinutes":45,"basePay":8,"maxBonus":9,"perTrialBonus":0.5,"perTrialBonusThreshold":0.05,"exampleCost":0.01},"classroomParams":{"A":{"a":1,"b":4},"B":{"a":4,"b":1},"C":{"a":2,"b":8},"D":{"a":8,"b":2}},"conditions":["nonSeqFull","nonSeqPartial","seqNoFeedback","seqFeedback"],"classroomPairings":[["A","B"],["C","D"]],"coinWeights":[0.2,0.5,0.8],"subjectId":"A3T3KEK5G6JYTZ","assignmentId":"3CPLWGV3MPLWVHXVZHP9TFMGZZA9NQ","hitId":"3SD15I2WD2G0NA4TSPXGB81L5S7630","url":"https://gershmanlab.com/experiments/alicia/teaching/experiment/?hitId=3SD15I2WD2G0NA4TSPXGB81L5S7630&workerId=A3T3KEK5G6JYTZ&assignmentId=3CPLWGV3MPLWVHXVZHP9TFMGZZA9NQ&a=3WPC9&tp_a=3WPC9&b=3CPLWGV3MPLWVHXVZHP9TFMGZZA9NQ&tp_b=3CPLWGV3MPLWVHXVZHP9TFMGZZA9NQ&c=365799&tp_c=365799","heads":15,"tails":15,"studentIndex":5,"studentTrueHypers":{"a":2,"b":8},"studentGuess":0.425,"delta":0.07500000000000001,"totalExamples":30,"bonusSoFar":1.1},{"rt":5503,"response":{"heads":"15","tails":"15"},"type":"response","condition":"seqNoFeedback","trueTheta":0.5,"classrooms":["C","D"],"studentTrueClassroom":"C","exampleSet":"second","trial_type":"survey-html-form","trial_index":68,"time_elapsed":880916,"internal_node_id":"0.0-46.0-0.0","params":{"nStudents":24,"maxFlips":30,"completionMinutes":45,"basePay":8,"maxBonus":9,"perTrialBonus":0.5,"perTrialBonusThreshold":0.05,"exampleCost":0.01},"classroomParams":{"A":{"a":1,"b":4},"B":{"a":4,"b":1},"C":{"a":2,"b":8},"D":{"a":8,"b":2}},"conditions":["nonSeqFull","nonSeqPartial","seqNoFeedback","seqFeedback"],"classroomPairings":[["A","B"],["C","D"]],"coinWeights":[0.2,0.5,0.8],"subjectId":"A3T3KEK5G6JYTZ","assignmentId":"3CPLWGV3MPLWVHXVZHP9TFMGZZA9NQ","hitId":"3SD15I2WD2G0NA4TSPXGB81L5S7630","url":"https://gershmanlab.com/experiments/alicia/teaching/experiment/?hitId=3SD15I2WD2G0NA4TSPXGB81L5S7630&workerId=A3T3KEK5G6JYTZ&assignmentId=3CPLWGV3MPLWVHXVZHP9TFMGZZA9NQ&a=3WPC9&tp_a=3WPC9&b=3CPLWGV3MPLWVHXVZHP9TFMGZZA9NQ&tp_b=3CPLWGV3MPLWVHXVZHP9TFMGZZA9NQ&c=365799&tp_c=365799","firstResponseHeads":15,"firstResponseTails":15,"secondResponseHeads":15,"secondResponseTails":15,"totalHeads":30,"totalTails":30,"studentIndex":5,"studentTrueHypers":{"a":2,"b":8},"studentGuess":0.45714285714285713,"delta":0.04285714285714287,"bonus":0,"bonusSoFar":1.1,"totalExamples":60},{"rt":16067,"response":{"heads":"0","tails":"30"},"type":"response","condition":"nonSeqFull","trueTheta":0.2,"classrooms":["C","D"],"studentTrueClassroom":"D","exampleSet":"first","trial_type":"survey-html-form","trial_index":74,"time_elapsed":915246,"internal_node_id":"0.0-52.0-0.0","params":{"nStudents":24,"maxFlips":30,"completionMinutes":45,"basePay":8,"maxBonus":9,"perTrialBonus":0.5,"perTrialBonusThreshold":0.05,"exampleCost":0.01},"classroomParams":{"A":{"a":1,"b":4},"B":{"a":4,"b":1},"C":{"a":2,"b":8},"D":{"a":8,"b":2}},"conditions":["nonSeqFull","nonSeqPartial","seqNoFeedback","seqFeedback"],"classroomPairings":[["A","B"],["C","D"]],"coinWeights":[0.2,0.5,0.8],"subjectId":"A3T3KEK5G6JYTZ","assignmentId":"3CPLWGV3MPLWVHXVZHP9TFMGZZA9NQ","hitId":"3SD15I2WD2G0NA4TSPXGB81L5S7630","url":"https://gershmanlab.com/experiments/alicia/teaching/experiment/?hitId=3SD15I2WD2G0NA4TSPXGB81L5S7630&workerId=A3T3KEK5G6JYTZ&assignmentId=3CPLWGV3MPLWVHXVZHP9TFMGZZA9NQ&a=3WPC9&tp_a=3WPC9&b=3CPLWGV3MPLWVHXVZHP9TFMGZZA9NQ&tp_b=3CPLWGV3MPLWVHXVZHP9TFMGZZA9NQ&c=365799&tp_c=365799","heads":0,"tails":30,"studentIndex":6,"studentTrueHypers":{"a":8,"b":2},"studentGuess":0.2,"delta":0,"totalExamples":30,"bonus":0.2,"bonusSoFar":1.3},{"rt":9995,"response":{"heads":"15","tails":"15"},"type":"response","condition":"seqNoFeedback","trueTheta":0.5,"classrooms":["A","B"],"studentTrueClassroom":"B","exampleSet":"first","trial_type":"survey-html-form","trial_index":80,"time_elapsed":941813,"internal_node_id":"0.0-58.0-0.0","params":{"nStudents":24,"maxFlips":30,"completionMinutes":45,"basePay":8,"maxBonus":9,"perTrialBonus":0.5,"perTrialBonusThreshold":0.05,"exampleCost":0.01},"classroomParams":{"A":{"a":1,"b":4},"B":{"a":4,"b":1},"C":{"a":2,"b":8},"D":{"a":8,"b":2}},"conditions":["nonSeqFull","nonSeqPartial","seqNoFeedback","seqFeedback"],"classroomPairings":[["A","B"],["C","D"]],"coinWeights":[0.2,0.5,0.8],"subjectId":"A3T3KEK5G6JYTZ","assignmentId":"3CPLWGV3MPLWVHXVZHP9TFMGZZA9NQ","hitId":"3SD15I2WD2G0NA4TSPXGB81L5S7630","url":"https://gershmanlab.com/experiments/alicia/teaching/experiment/?hitId=3SD15I2WD2G0NA4TSPXGB81L5S7630&workerId=A3T3KEK5G6JYTZ&assignmentId=3CPLWGV3MPLWVHXVZHP9TFMGZZA9NQ&a=3WPC9&tp_a=3WPC9&b=3CPLWGV3MPLWVHXVZHP9TFMGZZA9NQ&tp_b=3CPLWGV3MPLWVHXVZHP9TFMGZZA9NQ&c=365799&tp_c=365799","heads":15,"tails":15,"studentIndex":7,"studentTrueHypers":{"a":4,"b":1},"studentGuess":0.5428571428571428,"delta":0.042857142857142816,"totalExamples":30,"bonusSoFar":1.3},{"rt":3786,"response":{"heads":"15","tails":"15"},"type":"response","condition":"seqNoFeedback","trueTheta":0.5,"classrooms":["A","B"],"studentTrueClassroom":"B","exampleSet":"second","trial_type":"survey-html-form","trial_index":83,"time_elapsed":952359,"internal_node_id":"0.0-61.0-0.0","params":{"nStudents":24,"maxFlips":30,"completionMinutes":45,"basePay":8,"maxBonus":9,"perTrialBonus":0.5,"perTrialBonusThreshold":0.05,"exampleCost":0.01},"classroomParams":{"A":{"a":1,"b":4},"B":{"a":4,"b":1},"C":{"a":2,"b":8},"D":{"a":8,"b":2}},"conditions":["nonSeqFull","nonSeqPartial","seqNoFeedback","seqFeedback"],"classroomPairings":[["A","B"],["C","D"]],"coinWeights":[0.2,0.5,0.8],"subjectId":"A3T3KEK5G6JYTZ","assignmentId":"3CPLWGV3MPLWVHXVZHP9TFMGZZA9NQ","hitId":"3SD15I2WD2G0NA4TSPXGB81L5S7630","url":"https://gershmanlab.com/experiments/alicia/teaching/experiment/?hitId=3SD15I2WD2G0NA4TSPXGB81L5S7630&workerId=A3T3KEK5G6JYTZ&assignmentId=3CPLWGV3MPLWVHXVZHP9TFMGZZA9NQ&a=3WPC9&tp_a=3WPC9&b=3CPLWGV3MPLWVHXVZHP9TFMGZZA9NQ&tp_b=3CPLWGV3MPLWVHXVZHP9TFMGZZA9NQ&c=365799&tp_c=365799","firstResponseHeads":15,"firstResponseTails":15,"secondResponseHeads":15,"secondResponseTails":15,"totalHeads":30,"totalTails":30,"studentIndex":7,"studentTrueHypers":{"a":4,"b":1},"studentGuess":0.5230769230769231,"delta":0.023076923076923106,"bonus":0,"bonusSoFar":1.3,"totalExamples":60},{"rt":16721,"response":{"heads":"1","tails":"4"},"type":"response","condition":"seqNoFeedback","trueTheta":0.2,"classrooms":["C","D"],"studentTrueClassroom":"C","exampleSet":"first","trial_type":"survey-html-form","trial_index":89,"time_elapsed":985309,"internal_node_id":"0.0-67.0-0.0","params":{"nStudents":24,"maxFlips":30,"completionMinutes":45,"basePay":8,"maxBonus":9,"perTrialBonus":0.5,"perTrialBonusThreshold":0.05,"exampleCost":0.01},"classroomParams":{"A":{"a":1,"b":4},"B":{"a":4,"b":1},"C":{"a":2,"b":8},"D":{"a":8,"b":2}},"conditions":["nonSeqFull","nonSeqPartial","seqNoFeedback","seqFeedback"],"classroomPairings":[["A","B"],["C","D"]],"coinWeights":[0.2,0.5,0.8],"subjectId":"A3T3KEK5G6JYTZ","assignmentId":"3CPLWGV3MPLWVHXVZHP9TFMGZZA9NQ","hitId":"3SD15I2WD2G0NA4TSPXGB81L5S7630","url":"https://gershmanlab.com/experiments/alicia/teaching/experiment/?hitId=3SD15I2WD2G0NA4TSPXGB81L5S7630&workerId=A3T3KEK5G6JYTZ&assignmentId=3CPLWGV3MPLWVHXVZHP9TFMGZZA9NQ&a=3WPC9&tp_a=3WPC9&b=3CPLWGV3MPLWVHXVZHP9TFMGZZA9NQ&tp_b=3CPLWGV3MPLWVHXVZHP9TFMGZZA9NQ&c=365799&tp_c=365799","heads":1,"tails":4,"studentIndex":8,"studentTrueHypers":{"a":2,"b":8},"studentGuess":0.2,"delta":0,"totalExamples":5,"bonusSoFar":1.3},{"rt":8717,"response":{"heads":"0","tails":"0"},"type":"response","condition":"seqNoFeedback","trueTheta":0.2,"classrooms":["C","D"],"studentTrueClassroom":"C","exampleSet":"second","trial_type":"survey-html-form","trial_index":92,"time_elapsed":1000786,"internal_node_id":"0.0-70.0-0.0","params":{"nStudents":24,"maxFlips":30,"completionMinutes":45,"basePay":8,"maxBonus":9,"perTrialBonus":0.5,"perTrialBonusThreshold":0.05,"exampleCost":0.01},"classroomParams":{"A":{"a":1,"b":4},"B":{"a":4,"b":1},"C":{"a":2,"b":8},"D":{"a":8,"b":2}},"conditions":["nonSeqFull","nonSeqPartial","seqNoFeedback","seqFeedback"],"classroomPairings":[["A","B"],["C","D"]],"coinWeights":[0.2,0.5,0.8],"subjectId":"A3T3KEK5G6JYTZ","assignmentId":"3CPLWGV3MPLWVHXVZHP9TFMGZZA9NQ","hitId":"3SD15I2WD2G0NA4TSPXGB81L5S7630","url":"https://gershmanlab.com/experiments/alicia/teaching/experiment/?hitId=3SD15I2WD2G0NA4TSPXGB81L5S7630&workerId=A3T3KEK5G6JYTZ&assignmentId=3CPLWGV3MPLWVHXVZHP9TFMGZZA9NQ&a=3WPC9&tp_a=3WPC9&b=3CPLWGV3MPLWVHXVZHP9TFMGZZA9NQ&tp_b=3CPLWGV3MPLWVHXVZHP9TFMGZZA9NQ&c=365799&tp_c=365799","firstResponseHeads":1,"firstResponseTails":4,"secondResponseHeads":0,"secondResponseTails":0,"totalHeads":1,"totalTails":4,"studentIndex":8,"studentTrueHypers":{"a":2,"b":8},"studentGuess":0.2,"delta":0,"bonus":0.45,"bonusSoFar":1.75,"totalExamples":5},{"rt":4522,"response":{"heads":"1","tails":"4"},"type":"response","condition":"seqNoFeedback","trueTheta":0.2,"classrooms":["C","D"],"studentTrueClassroom":"C","exampleSet":"second","trial_type":"survey-html-form","trial_index":93,"time_elapsed":1005310,"internal_node_id":"0.0-70.1-0.1","params":{"nStudents":24,"maxFlips":30,"completionMinutes":45,"basePay":8,"maxBonus":9,"perTrialBonus":0.5,"perTrialBonusThreshold":0.05,"exampleCost":0.01},"classroomParams":{"A":{"a":1,"b":4},"B":{"a":4,"b":1},"C":{"a":2,"b":8},"D":{"a":8,"b":2}},"conditions":["nonSeqFull","nonSeqPartial","seqNoFeedback","seqFeedback"],"classroomPairings":[["A","B"],["C","D"]],"coinWeights":[0.2,0.5,0.8],"subjectId":"A3T3KEK5G6JYTZ","assignmentId":"3CPLWGV3MPLWVHXVZHP9TFMGZZA9NQ","hitId":"3SD15I2WD2G0NA4TSPXGB81L5S7630","url":"https://gershmanlab.com/experiments/alicia/teaching/experiment/?hitId=3SD15I2WD2G0NA4TSPXGB81L5S7630&workerId=A3T3KEK5G6JYTZ&assignmentId=3CPLWGV3MPLWVHXVZHP9TFMGZZA9NQ&a=3WPC9&tp_a=3WPC9&b=3CPLWGV3MPLWVHXVZHP9TFMGZZA9NQ&tp_b=3CPLWGV3MPLWVHXVZHP9TFMGZZA9NQ&c=365799&tp_c=365799","firstResponseHeads":1,"firstResponseTails":4,"secondResponseHeads":1,"secondResponseTails":4,"totalHeads":2,"totalTails":8,"studentIndex":8,"studentTrueHypers":{"a":2,"b":8},"studentGuess":0.2,"delta":0,"bonus":0.4,"bonusSoFar":2.15,"totalExamples":10},{"rt":6959,"response":{"heads":"1","tails":"4"},"type":"response","condition":"nonSeqPartial","trueTheta":0.2,"classrooms":["A","B"],"studentTrueClassroom":"A","exampleSet":"first","trial_type":"survey-html-form","trial_index":99,"time_elapsed":1025166,"internal_node_id":"0.0-76.0-0.0","params":{"nStudents":24,"maxFlips":30,"completionMinutes":45,"basePay":8,"maxBonus":9,"perTrialBonus":0.5,"perTrialBonusThreshold":0.05,"exampleCost":0.01},"classroomParams":{"A":{"a":1,"b":4},"B":{"a":4,"b":1},"C":{"a":2,"b":8},"D":{"a":8,"b":2}},"conditions":["nonSeqFull","nonSeqPartial","seqNoFeedback","seqFeedback"],"classroomPairings":[["A","B"],["C","D"]],"coinWeights":[0.2,0.5,0.8],"subjectId":"A3T3KEK5G6JYTZ","assignmentId":"3CPLWGV3MPLWVHXVZHP9TFMGZZA9NQ","hitId":"3SD15I2WD2G0NA4TSPXGB81L5S7630","url":"https://gershmanlab.com/experiments/alicia/teaching/experiment/?hitId=3SD15I2WD2G0NA4TSPXGB81L5S7630&workerId=A3T3KEK5G6JYTZ&assignmentId=3CPLWGV3MPLWVHXVZHP9TFMGZZA9NQ&a=3WPC9&tp_a=3WPC9&b=3CPLWGV3MPLWVHXVZHP9TFMGZZA9NQ&tp_b=3CPLWGV3MPLWVHXVZHP9TFMGZZA9NQ&c=365799&tp_c=365799","heads":1,"tails":4,"studentIndex":9,"studentTrueHypers":{"a":1,"b":4},"studentGuess":0.2,"delta":0,"totalExamples":5,"bonus":0.45,"bonusSoFar":2.6},{"rt":32510,"response":{"heads":"20","tails":"4"},"type":"response","condition":"nonSeqPartial","trueTheta":0.8,"classrooms":["C","D"],"studentTrueClassroom":"C","exampleSet":"first","trial_type":"survey-html-form","trial_index":105,"time_elapsed":1071713,"internal_node_id":"0.0-82.0-0.0","params":{"nStudents":24,"maxFlips":30,"completionMinutes":45,"basePay":8,"maxBonus":9,"perTrialBonus":0.5,"perTrialBonusThreshold":0.05,"exampleCost":0.01},"classroomParams":{"A":{"a":1,"b":4},"B":{"a":4,"b":1},"C":{"a":2,"b":8},"D":{"a":8,"b":2}},"conditions":["nonSeqFull","nonSeqPartial","seqNoFeedback","seqFeedback"],"classroomPairings":[["A","B"],["C","D"]],"coinWeights":[0.2,0.5,0.8],"subjectId":"A3T3KEK5G6JYTZ","assignmentId":"3CPLWGV3MPLWVHXVZHP9TFMGZZA9NQ","hitId":"3SD15I2WD2G0NA4TSPXGB81L5S7630","url":"https://gershmanlab.com/experiments/alicia/teaching/experiment/?hitId=3SD15I2WD2G0NA4TSPXGB81L5S7630&workerId=A3T3KEK5G6JYTZ&assignmentId=3CPLWGV3MPLWVHXVZHP9TFMGZZA9NQ&a=3WPC9&tp_a=3WPC9&b=3CPLWGV3MPLWVHXVZHP9TFMGZZA9NQ&tp_b=3CPLWGV3MPLWVHXVZHP9TFMGZZA9NQ&c=365799&tp_c=365799","heads":20,"tails":4,"studentIndex":10,"studentTrueHypers":{"a":2,"b":8},"studentGuess":0.6470588235294118,"delta":0.15294117647058825,"totalExamples":24,"bonus":0,"bonusSoFar":2.6},{"rt":12201,"response":{"heads":"0","tails":"6"},"type":"response","condition":"nonSeqFull","trueTheta":0.5,"classrooms":["C","D"],"studentTrueClassroom":"D","exampleSet":"first","trial_type":"survey-html-form","trial_index":111,"time_elapsed":1099465,"internal_node_id":"0.0-88.0-0.0","params":{"nStudents":24,"maxFlips":30,"completionMinutes":45,"basePay":8,"maxBonus":9,"perTrialBonus":0.5,"perTrialBonusThreshold":0.05,"exampleCost":0.01},"classroomParams":{"A":{"a":1,"b":4},"B":{"a":4,"b":1},"C":{"a":2,"b":8},"D":{"a":8,"b":2}},"conditions":["nonSeqFull","nonSeqPartial","seqNoFeedback","seqFeedback"],"classroomPairings":[["A","B"],["C","D"]],"coinWeights":[0.2,0.5,0.8],"subjectId":"A3T3KEK5G6JYTZ","assignmentId":"3CPLWGV3MPLWVHXVZHP9TFMGZZA9NQ","hitId":"3SD15I2WD2G0NA4TSPXGB81L5S7630","url":"https://gershmanlab.com/experiments/alicia/teaching/experiment/?hitId=3SD15I2WD2G0NA4TSPXGB81L5S7630&workerId=A3T3KEK5G6JYTZ&assignmentId=3CPLWGV3MPLWVHXVZHP9TFMGZZA9NQ&a=3WPC9&tp_a=3WPC9&b=3CPLWGV3MPLWVHXVZHP9TFMGZZA9NQ&tp_b=3CPLWGV3MPLWVHXVZHP9TFMGZZA9NQ&c=365799&tp_c=365799","heads":0,"tails":6,"studentIndex":11,"studentTrueHypers":{"a":8,"b":2},"studentGuess":0.5,"delta":0,"totalExamples":6,"bonus":0.44,"bonusSoFar":3.04},{"rt":6645,"response":{"heads":"0","tails":"3"},"type":"response","condition":"nonSeqFull","trueTheta":0.5,"classrooms":["A","B"],"studentTrueClassroom":"B","exampleSet":"first","trial_type":"survey-html-form","trial_index":117,"time_elapsed":1118265,"internal_node_id":"0.0-94.0-0.0","params":{"nStudents":24,"maxFlips":30,"completionMinutes":45,"basePay":8,"maxBonus":9,"perTrialBonus":0.5,"perTrialBonusThreshold":0.05,"exampleCost":0.01},"classroomParams":{"A":{"a":1,"b":4},"B":{"a":4,"b":1},"C":{"a":2,"b":8},"D":{"a":8,"b":2}},"conditions":["nonSeqFull","nonSeqPartial","seqNoFeedback","seqFeedback"],"classroomPairings":[["A","B"],["C","D"]],"coinWeights":[0.2,0.5,0.8],"subjectId":"A3T3KEK5G6JYTZ","assignmentId":"3CPLWGV3MPLWVHXVZHP9TFMGZZA9NQ","hitId":"3SD15I2WD2G0NA4TSPXGB81L5S7630","url":"https://gershmanlab.com/experiments/alicia/teaching/experiment/?hitId=3SD15I2WD2G0NA4TSPXGB81L5S7630&workerId=A3T3KEK5G6JYTZ&assignmentId=3CPLWGV3MPLWVHXVZHP9TFMGZZA9NQ&a=3WPC9&tp_a=3WPC9&b=3CPLWGV3MPLWVHXVZHP9TFMGZZA9NQ&tp_b=3CPLWGV3MPLWVHXVZHP9TFMGZZA9NQ&c=365799&tp_c=365799","heads":0,"tails":3,"studentIndex":12,"studentTrueHypers":{"a":4,"b":1},"studentGuess":0.5,"delta":0,"totalExamples":3,"bonus":0.47,"bonusSoFar":3.51},{"rt":19167,"response":{"heads":"24","tails":"6"},"type":"response","condition":"seqNoFeedback","trueTheta":0.8,"classrooms":["C","D"],"studentTrueClassroom":"C","exampleSet":"first","trial_type":"survey-html-form","trial_index":123,"time_elapsed":1149532,"internal_node_id":"0.0-100.0-0.0","params":{"nStudents":24,"maxFlips":30,"completionMinutes":45,"basePay":8,"maxBonus":9,"perTrialBonus":0.5,"perTrialBonusThreshold":0.05,"exampleCost":0.01},"classroomParams":{"A":{"a":1,"b":4},"B":{"a":4,"b":1},"C":{"a":2,"b":8},"D":{"a":8,"b":2}},"conditions":["nonSeqFull","nonSeqPartial","seqNoFeedback","seqFeedback"],"classroomPairings":[["A","B"],["C","D"]],"coinWeights":[0.2,0.5,0.8],"subjectId":"A3T3KEK5G6JYTZ","assignmentId":"3CPLWGV3MPLWVHXVZHP9TFMGZZA9NQ","hitId":"3SD15I2WD2G0NA4TSPXGB81L5S7630","url":"https://gershmanlab.com/experiments/alicia/teaching/experiment/?hitId=3SD15I2WD2G0NA4TSPXGB81L5S7630&workerId=A3T3KEK5G6JYTZ&assignmentId=3CPLWGV3MPLWVHXVZHP9TFMGZZA9NQ&a=3WPC9&tp_a=3WPC9&b=3CPLWGV3MPLWVHXVZHP9TFMGZZA9NQ&tp_b=3CPLWGV3MPLWVHXVZHP9TFMGZZA9NQ&c=365799&tp_c=365799","heads":24,"tails":6,"studentIndex":13,"studentTrueHypers":{"a":2,"b":8},"studentGuess":0.65,"delta":0.15000000000000002,"totalExamples":30,"bonusSoFar":3.51},{"rt":4667,"response":{"heads":"24","tails":"6"},"type":"response","condition":"seqNoFeedback","trueTheta":0.8,"classrooms":["C","D"],"studentTrueClassroom":"C","exampleSet":"second","trial_type":"survey-html-form","trial_index":126,"time_elapsed":1159459,"internal_node_id":"0.0-103.0-0.0","params":{"nStudents":24,"maxFlips":30,"completionMinutes":45,"basePay":8,"maxBonus":9,"perTrialBonus":0.5,"perTrialBonusThreshold":0.05,"exampleCost":0.01},"classroomParams":{"A":{"a":1,"b":4},"B":{"a":4,"b":1},"C":{"a":2,"b":8},"D":{"a":8,"b":2}},"conditions":["nonSeqFull","nonSeqPartial","seqNoFeedback","seqFeedback"],"classroomPairings":[["A","B"],["C","D"]],"coinWeights":[0.2,0.5,0.8],"subjectId":"A3T3KEK5G6JYTZ","assignmentId":"3CPLWGV3MPLWVHXVZHP9TFMGZZA9NQ","hitId":"3SD15I2WD2G0NA4TSPXGB81L5S7630","url":"https://gershmanlab.com/experiments/alicia/teaching/experiment/?hitId=3SD15I2WD2G0NA4TSPXGB81L5S7630&workerId=A3T3KEK5G6JYTZ&assignmentId=3CPLWGV3MPLWVHXVZHP9TFMGZZA9NQ&a=3WPC9&tp_a=3WPC9&b=3CPLWGV3MPLWVHXVZHP9TFMGZZA9NQ&tp_b=3CPLWGV3MPLWVHXVZHP9TFMGZZA9NQ&c=365799&tp_c=365799","firstResponseHeads":24,"firstResponseTails":6,"secondResponseHeads":24,"secondResponseTails":6,"totalHeads":48,"totalTails":12,"studentIndex":13,"studentTrueHypers":{"a":2,"b":8},"studentGuess":0.7142857142857143,"delta":0.08571428571428574,"bonus":0,"bonusSoFar":3.51,"totalExamples":60},{"rt":20162,"response":{"heads":"6","tails":"0"},"type":"response","condition":"nonSeqPartial","trueTheta":0.5,"classrooms":["C","D"],"studentTrueClassroom":"C","exampleSet":"first","trial_type":"survey-html-form","trial_index":132,"time_elapsed":1196852,"internal_node_id":"0.0-109.0-0.0","params":{"nStudents":24,"maxFlips":30,"completionMinutes":45,"basePay":8,"maxBonus":9,"perTrialBonus":0.5,"perTrialBonusThreshold":0.05,"exampleCost":0.01},"classroomParams":{"A":{"a":1,"b":4},"B":{"a":4,"b":1},"C":{"a":2,"b":8},"D":{"a":8,"b":2}},"conditions":["nonSeqFull","nonSeqPartial","seqNoFeedback","seqFeedback"],"classroomPairings":[["A","B"],["C","D"]],"coinWeights":[0.2,0.5,0.8],"subjectId":"A3T3KEK5G6JYTZ","assignmentId":"3CPLWGV3MPLWVHXVZHP9TFMGZZA9NQ","hitId":"3SD15I2WD2G0NA4TSPXGB81L5S7630","url":"https://gershmanlab.com/experiments/alicia/teaching/experiment/?hitId=3SD15I2WD2G0NA4TSPXGB81L5S7630&workerId=A3T3KEK5G6JYTZ&assignmentId=3CPLWGV3MPLWVHXVZHP9TFMGZZA9NQ&a=3WPC9&tp_a=3WPC9&b=3CPLWGV3MPLWVHXVZHP9TFMGZZA9NQ&tp_b=3CPLWGV3MPLWVHXVZHP9TFMGZZA9NQ&c=365799&tp_c=365799","heads":6,"tails":0,"studentIndex":14,"studentTrueHypers":{"a":2,"b":8},"studentGuess":0.5,"delta":0,"totalExamples":6,"bonus":0.44,"bonusSoFar":3.95},{"rt":11949,"response":{"heads":"0","tails":"15"},"type":"response","condition":"nonSeqFull","trueTheta":0.2,"classrooms":["A","B"],"studentTrueClassroom":"B","exampleSet":"first","trial_type":"survey-html-form","trial_index":138,"time_elapsed":1234454,"internal_node_id":"0.0-115.0-0.0","params":{"nStudents":24,"maxFlips":30,"completionMinutes":45,"basePay":8,"maxBonus":9,"perTrialBonus":0.5,"perTrialBonusThreshold":0.05,"exampleCost":0.01},"classroomParams":{"A":{"a":1,"b":4},"B":{"a":4,"b":1},"C":{"a":2,"b":8},"D":{"a":8,"b":2}},"conditions":["nonSeqFull","nonSeqPartial","seqNoFeedback","seqFeedback"],"classroomPairings":[["A","B"],["C","D"]],"coinWeights":[0.2,0.5,0.8],"subjectId":"A3T3KEK5G6JYTZ","assignmentId":"3CPLWGV3MPLWVHXVZHP9TFMGZZA9NQ","hitId":"3SD15I2WD2G0NA4TSPXGB81L5S7630","url":"https://gershmanlab.com/experiments/alicia/teaching/experiment/?hitId=3SD15I2WD2G0NA4TSPXGB81L5S7630&workerId=A3T3KEK5G6JYTZ&assignmentId=3CPLWGV3MPLWVHXVZHP9TFMGZZA9NQ&a=3WPC9&tp_a=3WPC9&b=3CPLWGV3MPLWVHXVZHP9TFMGZZA9NQ&tp_b=3CPLWGV3MPLWVHXVZHP9TFMGZZA9NQ&c=365799&tp_c=365799","heads":0,"tails":15,"studentIndex":15,"studentTrueHypers":{"a":4,"b":1},"studentGuess":0.2,"delta":0,"totalExamples":15,"bonus":0.35,"bonusSoFar":4.3},{"rt":35559,"response":{"heads":"0","tails":"30"},"type":"response","condition":"nonSeqPartial","trueTheta":0.2,"classrooms":["C","D"],"studentTrueClassroom":"D","exampleSet":"first","trial_type":"survey-html-form","trial_index":144,"time_elapsed":1283141,"internal_node_id":"0.0-121.0-0.0","params":{"nStudents":24,"maxFlips":30,"completionMinutes":45,"basePay":8,"maxBonus":9,"perTrialBonus":0.5,"perTrialBonusThreshold":0.05,"exampleCost":0.01},"classroomParams":{"A":{"a":1,"b":4},"B":{"a":4,"b":1},"C":{"a":2,"b":8},"D":{"a":8,"b":2}},"conditions":["nonSeqFull","nonSeqPartial","seqNoFeedback","seqFeedback"],"classroomPairings":[["A","B"],["C","D"]],"coinWeights":[0.2,0.5,0.8],"subjectId":"A3T3KEK5G6JYTZ","assignmentId":"3CPLWGV3MPLWVHXVZHP9TFMGZZA9NQ","hitId":"3SD15I2WD2G0NA4TSPXGB81L5S7630","url":"https://gershmanlab.com/experiments/alicia/teaching/experiment/?hitId=3SD15I2WD2G0NA4TSPXGB81L5S7630&workerId=A3T3KEK5G6JYTZ&assignmentId=3CPLWGV3MPLWVHXVZHP9TFMGZZA9NQ&a=3WPC9&tp_a=3WPC9&b=3CPLWGV3MPLWVHXVZHP9TFMGZZA9NQ&tp_b=3CPLWGV3MPLWVHXVZHP9TFMGZZA9NQ&c=365799&tp_c=365799","heads":0,"tails":30,"studentIndex":16,"studentTrueHypers":{"a":8,"b":2},"studentGuess":0.2,"delta":0,"totalExamples":30,"bonus":0.2,"bonusSoFar":4.5},{"rt":11273,"response":{"heads":"0","tails":"3"},"type":"response","condition":"seqFeedback","trueTheta":0.5,"classrooms":["A","B"],"studentTrueClassroom":"B","exampleSet":"first","trial_type":"survey-html-form","trial_index":150,"time_elapsed":1307771,"internal_node_id":"0.0-127.0-0.0","params":{"nStudents":24,"maxFlips":30,"completionMinutes":45,"basePay":8,"maxBonus":9,"perTrialBonus":0.5,"perTrialBonusThreshold":0.05,"exampleCost":0.01},"classroomParams":{"A":{"a":1,"b":4},"B":{"a":4,"b":1},"C":{"a":2,"b":8},"D":{"a":8,"b":2}},"conditions":["nonSeqFull","nonSeqPartial","seqNoFeedback","seqFeedback"],"classroomPairings":[["A","B"],["C","D"]],"coinWeights":[0.2,0.5,0.8],"subjectId":"A3T3KEK5G6JYTZ","assignmentId":"3CPLWGV3MPLWVHXVZHP9TFMGZZA9NQ","hitId":"3SD15I2WD2G0NA4TSPXGB81L5S7630","url":"https://gershmanlab.com/experiments/alicia/teaching/experiment/?hitId=3SD15I2WD2G0NA4TSPXGB81L5S7630&workerId=A3T3KEK5G6JYTZ&assignmentId=3CPLWGV3MPLWVHXVZHP9TFMGZZA9NQ&a=3WPC9&tp_a=3WPC9&b=3CPLWGV3MPLWVHXVZHP9TFMGZZA9NQ&tp_b=3CPLWGV3MPLWVHXVZHP9TFMGZZA9NQ&c=365799&tp_c=365799","heads":0,"tails":3,"studentIndex":17,"studentTrueHypers":{"a":4,"b":1},"studentGuess":0.5,"delta":0,"totalExamples":3,"bonusSoFar":4.5},{"rt":3770,"response":{"heads":"1","tails":"1"},"type":"response","condition":"seqFeedback","trueTheta":0.5,"classrooms":["A","B"],"studentTrueClassroom":"B","exampleSet":"second","trial_type":"survey-html-form","trial_index":154,"time_elapsed":1321731,"internal_node_id":"0.0-131.0-0.0","params":{"nStudents":24,"maxFlips":30,"completionMinutes":45,"basePay":8,"maxBonus":9,"perTrialBonus":0.5,"perTrialBonusThreshold":0.05,"exampleCost":0.01},"classroomParams":{"A":{"a":1,"b":4},"B":{"a":4,"b":1},"C":{"a":2,"b":8},"D":{"a":8,"b":2}},"conditions":["nonSeqFull","nonSeqPartial","seqNoFeedback","seqFeedback"],"classroomPairings":[["A","B"],["C","D"]],"coinWeights":[0.2,0.5,0.8],"subjectId":"A3T3KEK5G6JYTZ","assignmentId":"3CPLWGV3MPLWVHXVZHP9TFMGZZA9NQ","hitId":"3SD15I2WD2G0NA4TSPXGB81L5S7630","url":"https://gershmanlab.com/experiments/alicia/teaching/experiment/?hitId=3SD15I2WD2G0NA4TSPXGB81L5S7630&workerId=A3T3KEK5G6JYTZ&assignmentId=3CPLWGV3MPLWVHXVZHP9TFMGZZA9NQ&a=3WPC9&tp_a=3WPC9&b=3CPLWGV3MPLWVHXVZHP9TFMGZZA9NQ&tp_b=3CPLWGV3MPLWVHXVZHP9TFMGZZA9NQ&c=365799&tp_c=365799","firstResponseHeads":0,"firstResponseTails":3,"secondResponseHeads":1,"secondResponseTails":1,"totalHeads":1,"totalTails":4,"studentIndex":17,"studentTrueHypers":{"a":4,"b":1},"studentGuess":0.5,"delta":0,"bonus":0.45,"bonusSoFar":4.95,"totalExamples":5},{"rt":21541,"response":{"heads":"0","tails":"15"},"type":"response","condition":"seqFeedback","trueTheta":0.2,"classrooms":["A","B"],"studentTrueClassroom":"B","exampleSet":"first","trial_type":"survey-html-form","trial_index":160,"time_elapsed":1359890,"internal_node_id":"0.0-137.0-0.0","params":{"nStudents":24,"maxFlips":30,"completionMinutes":45,"basePay":8,"maxBonus":9,"perTrialBonus":0.5,"perTrialBonusThreshold":0.05,"exampleCost":0.01},"classroomParams":{"A":{"a":1,"b":4},"B":{"a":4,"b":1},"C":{"a":2,"b":8},"D":{"a":8,"b":2}},"conditions":["nonSeqFull","nonSeqPartial","seqNoFeedback","seqFeedback"],"classroomPairings":[["A","B"],["C","D"]],"coinWeights":[0.2,0.5,0.8],"subjectId":"A3T3KEK5G6JYTZ","assignmentId":"3CPLWGV3MPLWVHXVZHP9TFMGZZA9NQ","hitId":"3SD15I2WD2G0NA4TSPXGB81L5S7630","url":"https://gershmanlab.com/experiments/alicia/teaching/experiment/?hitId=3SD15I2WD2G0NA4TSPXGB81L5S7630&workerId=A3T3KEK5G6JYTZ&assignmentId=3CPLWGV3MPLWVHXVZHP9TFMGZZA9NQ&a=3WPC9&tp_a=3WPC9&b=3CPLWGV3MPLWVHXVZHP9TFMGZZA9NQ&tp_b=3CPLWGV3MPLWVHXVZHP9TFMGZZA9NQ&c=365799&tp_c=365799","heads":0,"tails":15,"studentIndex":18,"studentTrueHypers":{"a":4,"b":1},"studentGuess":0.2,"delta":0,"totalExamples":15,"bonusSoFar":4.95},{"rt":3856,"response":{"heads":"0","tails":"0"},"type":"response","condition":"seqFeedback","trueTheta":0.2,"classrooms":["A","B"],"studentTrueClassroom":"B","exampleSet":"second","trial_type":"survey-html-form","trial_index":164,"time_elapsed":1376137,"internal_node_id":"0.0-141.0-0.0","params":{"nStudents":24,"maxFlips":30,"completionMinutes":45,"basePay":8,"maxBonus":9,"perTrialBonus":0.5,"perTrialBonusThreshold":0.05,"exampleCost":0.01},"classroomParams":{"A":{"a":1,"b":4},"B":{"a":4,"b":1},"C":{"a":2,"b":8},"D":{"a":8,"b":2}},"conditions":["nonSeqFull","nonSeqPartial","seqNoFeedback","seqFeedback"],"classroomPairings":[["A","B"],["C","D"]],"coinWeights":[0.2,0.5,0.8],"subjectId":"A3T3KEK5G6JYTZ","assignmentId":"3CPLWGV3MPLWVHXVZHP9TFMGZZA9NQ","hitId":"3SD15I2WD2G0NA4TSPXGB81L5S7630","url":"https://gershmanlab.com/experiments/alicia/teaching/experiment/?hitId=3SD15I2WD2G0NA4TSPXGB81L5S7630&workerId=A3T3KEK5G6JYTZ&assignmentId=3CPLWGV3MPLWVHXVZHP9TFMGZZA9NQ&a=3WPC9&tp_a=3WPC9&b=3CPLWGV3MPLWVHXVZHP9TFMGZZA9NQ&tp_b=3CPLWGV3MPLWVHXVZHP9TFMGZZA9NQ&c=365799&tp_c=365799","firstResponseHeads":0,"firstResponseTails":15,"secondResponseHeads":0,"secondResponseTails":0,"totalHeads":0,"totalTails":15,"studentIndex":18,"studentTrueHypers":{"a":4,"b":1},"studentGuess":0.2,"delta":0,"bonus":0.35,"bonusSoFar":5.3,"totalExamples":15},{"rt":956,"response":{"heads":"0","tails":"0"},"type":"response","condition":"seqFeedback","trueTheta":0.2,"classrooms":["A","B"],"studentTrueClassroom":"B","exampleSet":"second","trial_type":"survey-html-form","trial_index":165,"time_elapsed":1377096,"internal_node_id":"0.0-141.1-0.1","params":{"nStudents":24,"maxFlips":30,"completionMinutes":45,"basePay":8,"maxBonus":9,"perTrialBonus":0.5,"perTrialBonusThreshold":0.05,"exampleCost":0.01},"classroomParams":{"A":{"a":1,"b":4},"B":{"a":4,"b":1},"C":{"a":2,"b":8},"D":{"a":8,"b":2}},"conditions":["nonSeqFull","nonSeqPartial","seqNoFeedback","seqFeedback"],"classroomPairings":[["A","B"],["C","D"]],"coinWeights":[0.2,0.5,0.8],"subjectId":"A3T3KEK5G6JYTZ","assignmentId":"3CPLWGV3MPLWVHXVZHP9TFMGZZA9NQ","hitId":"3SD15I2WD2G0NA4TSPXGB81L5S7630","url":"https://gershmanlab.com/experiments/alicia/teaching/experiment/?hitId=3SD15I2WD2G0NA4TSPXGB81L5S7630&workerId=A3T3KEK5G6JYTZ&assignmentId=3CPLWGV3MPLWVHXVZHP9TFMGZZA9NQ&a=3WPC9&tp_a=3WPC9&b=3CPLWGV3MPLWVHXVZHP9TFMGZZA9NQ&tp_b=3CPLWGV3MPLWVHXVZHP9TFMGZZA9NQ&c=365799&tp_c=365799","firstResponseHeads":0,"firstResponseTails":15,"secondResponseHeads":0,"secondResponseTails":0,"totalHeads":0,"totalTails":15,"studentIndex":18,"studentTrueHypers":{"a":4,"b":1},"studentGuess":0.2,"delta":0,"bonus":0.35,"bonusSoFar":5.65,"totalExamples":15},{"rt":7584,"response":{"heads":"1","tails":"4"},"type":"response","condition":"seqFeedback","trueTheta":0.2,"classrooms":["A","B"],"studentTrueClassroom":"B","exampleSet":"second","trial_type":"survey-html-form","trial_index":166,"time_elapsed":1384681,"internal_node_id":"0.0-141.2-0.2","params":{"nStudents":24,"maxFlips":30,"completionMinutes":45,"basePay":8,"maxBonus":9,"perTrialBonus":0.5,"perTrialBonusThreshold":0.05,"exampleCost":0.01},"classroomParams":{"A":{"a":1,"b":4},"B":{"a":4,"b":1},"C":{"a":2,"b":8},"D":{"a":8,"b":2}},"conditions":["nonSeqFull","nonSeqPartial","seqNoFeedback","seqFeedback"],"classroomPairings":[["A","B"],["C","D"]],"coinWeights":[0.2,0.5,0.8],"subjectId":"A3T3KEK5G6JYTZ","assignmentId":"3CPLWGV3MPLWVHXVZHP9TFMGZZA9NQ","hitId":"3SD15I2WD2G0NA4TSPXGB81L5S7630","url":"https://gershmanlab.com/experiments/alicia/teaching/experiment/?hitId=3SD15I2WD2G0NA4TSPXGB81L5S7630&workerId=A3T3KEK5G6JYTZ&assignmentId=3CPLWGV3MPLWVHXVZHP9TFMGZZA9NQ&a=3WPC9&tp_a=3WPC9&b=3CPLWGV3MPLWVHXVZHP9TFMGZZA9NQ&tp_b=3CPLWGV3MPLWVHXVZHP9TFMGZZA9NQ&c=365799&tp_c=365799","firstResponseHeads":0,"firstResponseTails":15,"secondResponseHeads":1,"secondResponseTails":4,"totalHeads":1,"totalTails":19,"studentIndex":18,"studentTrueHypers":{"a":4,"b":1},"studentGuess":0.2,"delta":0,"bonus":0.3,"bonusSoFar":5.95,"totalExamples":20},{"rt":13680,"response":{"heads":"4","tails":"1"},"type":"response","condition":"seqNoFeedback","trueTheta":0.8,"classrooms":["A","B"],"studentTrueClassroom":"B","exampleSet":"first","trial_type":"survey-html-form","trial_index":172,"time_elapsed":1417674,"internal_node_id":"0.0-147.0-0.0","params":{"nStudents":24,"maxFlips":30,"completionMinutes":45,"basePay":8,"maxBonus":9,"perTrialBonus":0.5,"perTrialBonusThreshold":0.05,"exampleCost":0.01},"classroomParams":{"A":{"a":1,"b":4},"B":{"a":4,"b":1},"C":{"a":2,"b":8},"D":{"a":8,"b":2}},"conditions":["nonSeqFull","nonSeqPartial","seqNoFeedback","seqFeedback"],"classroomPairings":[["A","B"],["C","D"]],"coinWeights":[0.2,0.5,0.8],"subjectId":"A3T3KEK5G6JYTZ","assignmentId":"3CPLWGV3MPLWVHXVZHP9TFMGZZA9NQ","hitId":"3SD15I2WD2G0NA4TSPXGB81L5S7630","url":"https://gershmanlab.com/experiments/alicia/teaching/experiment/?hitId=3SD15I2WD2G0NA4TSPXGB81L5S7630&workerId=A3T3KEK5G6JYTZ&assignmentId=3CPLWGV3MPLWVHXVZHP9TFMGZZA9NQ&a=3WPC9&tp_a=3WPC9&b=3CPLWGV3MPLWVHXVZHP9TFMGZZA9NQ&tp_b=3CPLWGV3MPLWVHXVZHP9TFMGZZA9NQ&c=365799&tp_c=365799","heads":4,"tails":1,"studentIndex":19,"studentTrueHypers":{"a":4,"b":1},"studentGuess":0.8,"delta":0,"totalExamples":5,"bonusSoFar":5.95},{"rt":21721,"response":{"heads":"15","tails":"0"},"type":"response","condition":"seqNoFeedback","trueTheta":0.8,"classrooms":["A","B"],"studentTrueClassroom":"B","exampleSet":"second","trial_type":"survey-html-form","trial_index":175,"time_elapsed":1446654,"internal_node_id":"0.0-150.0-0.0","params":{"nStudents":24,"maxFlips":30,"completionMinutes":45,"basePay":8,"maxBonus":9,"perTrialBonus":0.5,"perTrialBonusThreshold":0.05,"exampleCost":0.01},"classroomParams":{"A":{"a":1,"b":4},"B":{"a":4,"b":1},"C":{"a":2,"b":8},"D":{"a":8,"b":2}},"conditions":["nonSeqFull","nonSeqPartial","seqNoFeedback","seqFeedback"],"classroomPairings":[["A","B"],["C","D"]],"coinWeights":[0.2,0.5,0.8],"subjectId":"A3T3KEK5G6JYTZ","assignmentId":"3CPLWGV3MPLWVHXVZHP9TFMGZZA9NQ","hitId":"3SD15I2WD2G0NA4TSPXGB81L5S7630","url":"https://gershmanlab.com/experiments/alicia/teaching/experiment/?hitId=3SD15I2WD2G0NA4TSPXGB81L5S7630&workerId=A3T3KEK5G6JYTZ&assignmentId=3CPLWGV3MPLWVHXVZHP9TFMGZZA9NQ&a=3WPC9&tp_a=3WPC9&b=3CPLWGV3MPLWVHXVZHP9TFMGZZA9NQ&tp_b=3CPLWGV3MPLWVHXVZHP9TFMGZZA9NQ&c=365799&tp_c=365799","firstResponseHeads":4,"firstResponseTails":1,"secondResponseHeads":15,"secondResponseTails":0,"totalHeads":19,"totalTails":1,"studentIndex":19,"studentTrueHypers":{"a":4,"b":1},"studentGuess":0.92,"delta":0.12,"bonus":0,"bonusSoFar":5.95,"totalExamples":20},{"rt":18957,"response":{"heads":"0","tails":"30"},"type":"response","condition":"seqFeedback","trueTheta":0.2,"classrooms":["C","D"],"studentTrueClassroom":"C","exampleSet":"first","trial_type":"survey-html-form","trial_index":181,"time_elapsed":1485881,"internal_node_id":"0.0-156.0-0.0","params":{"nStudents":24,"maxFlips":30,"completionMinutes":45,"basePay":8,"maxBonus":9,"perTrialBonus":0.5,"perTrialBonusThreshold":0.05,"exampleCost":0.01},"classroomParams":{"A":{"a":1,"b":4},"B":{"a":4,"b":1},"C":{"a":2,"b":8},"D":{"a":8,"b":2}},"conditions":["nonSeqFull","nonSeqPartial","seqNoFeedback","seqFeedback"],"classroomPairings":[["A","B"],["C","D"]],"coinWeights":[0.2,0.5,0.8],"subjectId":"A3T3KEK5G6JYTZ","assignmentId":"3CPLWGV3MPLWVHXVZHP9TFMGZZA9NQ","hitId":"3SD15I2WD2G0NA4TSPXGB81L5S7630","url":"https://gershmanlab.com/experiments/alicia/teaching/experiment/?hitId=3SD15I2WD2G0NA4TSPXGB81L5S7630&workerId=A3T3KEK5G6JYTZ&assignmentId=3CPLWGV3MPLWVHXVZHP9TFMGZZA9NQ&a=3WPC9&tp_a=3WPC9&b=3CPLWGV3MPLWVHXVZHP9TFMGZZA9NQ&tp_b=3CPLWGV3MPLWVHXVZHP9TFMGZZA9NQ&c=365799&tp_c=365799","heads":0,"tails":30,"studentIndex":20,"studentTrueHypers":{"a":2,"b":8},"studentGuess":0.05,"delta":0.15000000000000002,"totalExamples":30,"bonusSoFar":5.95},{"rt":10935,"response":{"heads":"6","tails":"0"},"type":"response","condition":"seqFeedback","trueTheta":0.2,"classrooms":["C","D"],"studentTrueClassroom":"C","exampleSet":"second","trial_type":"survey-html-form","trial_index":185,"time_elapsed":1505398,"internal_node_id":"0.0-160.0-0.0","params":{"nStudents":24,"maxFlips":30,"completionMinutes":45,"basePay":8,"maxBonus":9,"perTrialBonus":0.5,"perTrialBonusThreshold":0.05,"exampleCost":0.01},"classroomParams":{"A":{"a":1,"b":4},"B":{"a":4,"b":1},"C":{"a":2,"b":8},"D":{"a":8,"b":2}},"conditions":["nonSeqFull","nonSeqPartial","seqNoFeedback","seqFeedback"],"classroomPairings":[["A","B"],["C","D"]],"coinWeights":[0.2,0.5,0.8],"subjectId":"A3T3KEK5G6JYTZ","assignmentId":"3CPLWGV3MPLWVHXVZHP9TFMGZZA9NQ","hitId":"3SD15I2WD2G0NA4TSPXGB81L5S7630","url":"https://gershmanlab.com/experiments/alicia/teaching/experiment/?hitId=3SD15I2WD2G0NA4TSPXGB81L5S7630&workerId=A3T3KEK5G6JYTZ&assignmentId=3CPLWGV3MPLWVHXVZHP9TFMGZZA9NQ&a=3WPC9&tp_a=3WPC9&b=3CPLWGV3MPLWVHXVZHP9TFMGZZA9NQ&tp_b=3CPLWGV3MPLWVHXVZHP9TFMGZZA9NQ&c=365799&tp_c=365799","firstResponseHeads":0,"firstResponseTails":30,"secondResponseHeads":6,"secondResponseTails":0,"totalHeads":6,"totalTails":30,"studentIndex":20,"studentTrueHypers":{"a":2,"b":8},"studentGuess":0.17391304347826086,"delta":0.026086956521739146,"bonus":0.14,"bonusSoFar":6.09,"totalExamples":36},{"rt":8577,"response":{"heads":"6","tails":"0"},"type":"response","condition":"seqFeedback","trueTheta":0.5,"classrooms":["C","D"],"studentTrueClassroom":"D","exampleSet":"first","trial_type":"survey-html-form","trial_index":191,"time_elapsed":1532220,"internal_node_id":"0.0-166.0-0.0","params":{"nStudents":24,"maxFlips":30,"completionMinutes":45,"basePay":8,"maxBonus":9,"perTrialBonus":0.5,"perTrialBonusThreshold":0.05,"exampleCost":0.01},"classroomParams":{"A":{"a":1,"b":4},"B":{"a":4,"b":1},"C":{"a":2,"b":8},"D":{"a":8,"b":2}},"conditions":["nonSeqFull","nonSeqPartial","seqNoFeedback","seqFeedback"],"classroomPairings":[["A","B"],["C","D"]],"coinWeights":[0.2,0.5,0.8],"subjectId":"A3T3KEK5G6JYTZ","assignmentId":"3CPLWGV3MPLWVHXVZHP9TFMGZZA9NQ","hitId":"3SD15I2WD2G0NA4TSPXGB81L5S7630","url":"https://gershmanlab.com/experiments/alicia/teaching/experiment/?hitId=3SD15I2WD2G0NA4TSPXGB81L5S7630&workerId=A3T3KEK5G6JYTZ&assignmentId=3CPLWGV3MPLWVHXVZHP9TFMGZZA9NQ&a=3WPC9&tp_a=3WPC9&b=3CPLWGV3MPLWVHXVZHP9TFMGZZA9NQ&tp_b=3CPLWGV3MPLWVHXVZHP9TFMGZZA9NQ&c=365799&tp_c=365799","heads":6,"tails":0,"studentIndex":21,"studentTrueHypers":{"a":8,"b":2},"studentGuess":0.875,"delta":0.375,"totalExamples":6,"bonusSoFar":6.09},{"rt":10425,"response":{"heads":"0","tails":"12"},"type":"response","condition":"seqFeedback","trueTheta":0.5,"classrooms":["C","D"],"studentTrueClassroom":"D","exampleSet":"second","trial_type":"survey-html-form","trial_index":195,"time_elapsed":1551837,"internal_node_id":"0.0-170.0-0.0","params":{"nStudents":24,"maxFlips":30,"completionMinutes":45,"basePay":8,"maxBonus":9,"perTrialBonus":0.5,"perTrialBonusThreshold":0.05,"exampleCost":0.01},"classroomParams":{"A":{"a":1,"b":4},"B":{"a":4,"b":1},"C":{"a":2,"b":8},"D":{"a":8,"b":2}},"conditions":["nonSeqFull","nonSeqPartial","seqNoFeedback","seqFeedback"],"classroomPairings":[["A","B"],["C","D"]],"coinWeights":[0.2,0.5,0.8],"subjectId":"A3T3KEK5G6JYTZ","assignmentId":"3CPLWGV3MPLWVHXVZHP9TFMGZZA9NQ","hitId":"3SD15I2WD2G0NA4TSPXGB81L5S7630","url":"https://gershmanlab.com/experiments/alicia/teaching/experiment/?hitId=3SD15I2WD2G0NA4TSPXGB81L5S7630&workerId=A3T3KEK5G6JYTZ&assignmentId=3CPLWGV3MPLWVHXVZHP9TFMGZZA9NQ&a=3WPC9&tp_a=3WPC9&b=3CPLWGV3MPLWVHXVZHP9TFMGZZA9NQ&tp_b=3CPLWGV3MPLWVHXVZHP9TFMGZZA9NQ&c=365799&tp_c=365799","firstResponseHeads":6,"firstResponseTails":0,"secondResponseHeads":0,"secondResponseTails":12,"totalHeads":6,"totalTails":12,"studentIndex":21,"studentTrueHypers":{"a":8,"b":2},"studentGuess":0.5,"delta":0,"bonus":0.32,"bonusSoFar":6.41,"totalExamples":18},{"rt":20335,"response":{"heads":"4","tails":"1"},"type":"response","condition":"nonSeqPartial","trueTheta":0.8,"classrooms":["A","B"],"studentTrueClassroom":"A","exampleSet":"first","trial_type":"survey-html-form","trial_index":201,"time_elapsed":1590313,"internal_node_id":"0.0-176.0-0.0","params":{"nStudents":24,"maxFlips":30,"completionMinutes":45,"basePay":8,"maxBonus":9,"perTrialBonus":0.5,"perTrialBonusThreshold":0.05,"exampleCost":0.01},"classroomParams":{"A":{"a":1,"b":4},"B":{"a":4,"b":1},"C":{"a":2,"b":8},"D":{"a":8,"b":2}},"conditions":["nonSeqFull","nonSeqPartial","seqNoFeedback","seqFeedback"],"classroomPairings":[["A","B"],["C","D"]],"coinWeights":[0.2,0.5,0.8],"subjectId":"A3T3KEK5G6JYTZ","assignmentId":"3CPLWGV3MPLWVHXVZHP9TFMGZZA9NQ","hitId":"3SD15I2WD2G0NA4TSPXGB81L5S7630","url":"https://gershmanlab.com/experiments/alicia/teaching/experiment/?hitId=3SD15I2WD2G0NA4TSPXGB81L5S7630&workerId=A3T3KEK5G6JYTZ&assignmentId=3CPLWGV3MPLWVHXVZHP9TFMGZZA9NQ&a=3WPC9&tp_a=3WPC9&b=3CPLWGV3MPLWVHXVZHP9TFMGZZA9NQ&tp_b=3CPLWGV3MPLWVHXVZHP9TFMGZZA9NQ&c=365799&tp_c=365799","heads":4,"tails":1,"studentIndex":22,"studentTrueHypers":{"a":1,"b":4},"studentGuess":0.5,"delta":0.30000000000000004,"totalExamples":5,"bonus":0,"bonusSoFar":6.41},{"rt":29735,"response":{"heads":"8","tails":"2"},"type":"response","condition":"seqFeedback","trueTheta":0.8,"classrooms":["A","B"],"studentTrueClassroom":"A","exampleSet":"first","trial_type":"survey-html-form","trial_index":207,"time_elapsed":1636090,"internal_node_id":"0.0-182.0-0.0","params":{"nStudents":24,"maxFlips":30,"completionMinutes":45,"basePay":8,"maxBonus":9,"perTrialBonus":0.5,"perTrialBonusThreshold":0.05,"exampleCost":0.01},"classroomParams":{"A":{"a":1,"b":4},"B":{"a":4,"b":1},"C":{"a":2,"b":8},"D":{"a":8,"b":2}},"conditions":["nonSeqFull","nonSeqPartial","seqNoFeedback","seqFeedback"],"classroomPairings":[["A","B"],["C","D"]],"coinWeights":[0.2,0.5,0.8],"subjectId":"A3T3KEK5G6JYTZ","assignmentId":"3CPLWGV3MPLWVHXVZHP9TFMGZZA9NQ","hitId":"3SD15I2WD2G0NA4TSPXGB81L5S7630","url":"https://gershmanlab.com/experiments/alicia/teaching/experiment/?hitId=3SD15I2WD2G0NA4TSPXGB81L5S7630&workerId=A3T3KEK5G6JYTZ&assignmentId=3CPLWGV3MPLWVHXVZHP9TFMGZZA9NQ&a=3WPC9&tp_a=3WPC9&b=3CPLWGV3MPLWVHXVZHP9TFMGZZA9NQ&tp_b=3CPLWGV3MPLWVHXVZHP9TFMGZZA9NQ&c=365799&tp_c=365799","heads":8,"tails":2,"studentIndex":23,"studentTrueHypers":{"a":1,"b":4},"studentGuess":0.6,"delta":0.20000000000000007,"totalExamples":10,"bonusSoFar":6.41},{"rt":15709,"response":{"heads":"11","tails":"0"},"type":"response","condition":"seqFeedback","trueTheta":0.8,"classrooms":["A","B"],"studentTrueClassroom":"A","exampleSet":"second","trial_type":"survey-html-form","trial_index":211,"time_elapsed":1664918,"internal_node_id":"0.0-186.0-0.0","params":{"nStudents":24,"maxFlips":30,"completionMinutes":45,"basePay":8,"maxBonus":9,"perTrialBonus":0.5,"perTrialBonusThreshold":0.05,"exampleCost":0.01},"classroomParams":{"A":{"a":1,"b":4},"B":{"a":4,"b":1},"C":{"a":2,"b":8},"D":{"a":8,"b":2}},"conditions":["nonSeqFull","nonSeqPartial","seqNoFeedback","seqFeedback"],"classroomPairings":[["A","B"],["C","D"]],"coinWeights":[0.2,0.5,0.8],"subjectId":"A3T3KEK5G6JYTZ","assignmentId":"3CPLWGV3MPLWVHXVZHP9TFMGZZA9NQ","hitId":"3SD15I2WD2G0NA4TSPXGB81L5S7630","url":"https://gershmanlab.com/experiments/alicia/teaching/experiment/?hitId=3SD15I2WD2G0NA4TSPXGB81L5S7630&workerId=A3T3KEK5G6JYTZ&assignmentId=3CPLWGV3MPLWVHXVZHP9TFMGZZA9NQ&a=3WPC9&tp_a=3WPC9&b=3CPLWGV3MPLWVHXVZHP9TFMGZZA9NQ&tp_b=3CPLWGV3MPLWVHXVZHP9TFMGZZA9NQ&c=365799&tp_c=365799","firstResponseHeads":8,"firstResponseTails":2,"secondResponseHeads":11,"secondResponseTails":0,"totalHeads":19,"totalTails":2,"studentIndex":23,"studentTrueHypers":{"a":1,"b":4},"studentGuess":0.7692307692307693,"delta":0.03076923076923077,"bonus":0.29,"bonusSoFar":6.7,"totalExamples":21},{"rt":103394,"response":{"gender":"female","age":"52","understood":"yes","comments":"Multiple times, when I had two rounds to teach, i did NOT get the student's guess information.  Also, the instructions are vague at the beginning.  when you say \"You will teach each student over either one or two trials\"  it is unclear whether two trials counts as seeing a student twice.  It made it hard to pass your validation questions, lol"},"type":"response","trial_type":"survey-html-form","trial_index":215,"time_elapsed":1780318,"internal_node_id":"0.0-191.0","params":{"nStudents":24,"maxFlips":30,"completionMinutes":45,"basePay":8,"maxBonus":9,"perTrialBonus":0.5,"perTrialBonusThreshold":0.05,"exampleCost":0.01},"classroomParams":{"A":{"a":1,"b":4},"B":{"a":4,"b":1},"C":{"a":2,"b":8},"D":{"a":8,"b":2}},"conditions":["nonSeqFull","nonSeqPartial","seqNoFeedback","seqFeedback"],"classroomPairings":[["A","B"],["C","D"]],"coinWeights":[0.2,0.5,0.8],"subjectId":"A3T3KEK5G6JYTZ","assignmentId":"3CPLWGV3MPLWVHXVZHP9TFMGZZA9NQ","hitId":"3SD15I2WD2G0NA4TSPXGB81L5S7630","url":"https://gershmanlab.com/experiments/alicia/teaching/experiment/?hitId=3SD15I2WD2G0NA4TSPXGB81L5S7630&workerId=A3T3KEK5G6JYTZ&assignmentId=3CPLWGV3MPLWVHXVZHP9TFMGZZA9NQ&a=3WPC9&tp_a=3WPC9&b=3CPLWGV3MPLWVHXVZHP9TFMGZZA9NQ&tp_b=3CPLWGV3MPLWVHXVZHP9TFMGZZA9NQ&c=365799&tp_c=365799","totalBonus":6.7}]