[{"rt":19833,"response":{"heads":"4","tails":"1"},"type":"response","condition":"nonSeqPartial","trueTheta":0.8,"classrooms":["A","B"],"studentTrueClassroom":"B","exampleSet":"first","trial_type":"survey-html-form","trial_index":10,"time_elapsed":498839,"internal_node_id":"0.0-6.0-0.0","params":{"nStudents":24,"maxFlips":30,"completionMinutes":45,"basePay":8,"maxBonus":9,"perTrialBonus":0.5,"perTrialBonusThreshold":0.05,"exampleCost":0.01},"classroomParams":{"A":{"a":1,"b":4},"B":{"a":4,"b":1},"C":{"a":2,"b":8},"D":{"a":8,"b":2}},"conditions":["nonSeqFull","nonSeqPartial","seqNoFeedback","seqFeedback"],"classroomPairings":[["A","B"],["C","D"]],"coinWeights":[0.2,0.5,0.8],"subjectId":"A3TBG0S2IEBVHU","assignmentId":"3COPXFW7XCYGFYSZJTTQND5RA8MKPQ","hitId":"3UDTAB6HH6LRO17U79I9TKUGSHV90J","url":"https://gershmanlab.com/experiments/alicia/teaching/experiment/?hitId=3UDTAB6HH6LRO17U79I9TKUGSHV90J&workerId=A3TBG0S2IEBVHU&assignmentId=3COPXFW7XCYGFYSZJTTQND5RA8MKPQ&a=7XOC9&tp_a=7XOC9&b=3COPXFW7XCYGFYSZJTTQND5RA8MKPQ&tp_b=3COPXFW7XCYGFYSZJTTQND5RA8MKPQ&c=365799&tp_c=365799","heads":4,"tails":1,"studentIndex":0,"studentTrueHypers":{"a":4,"b":1},"studentGuess":0.8,"delta":0,"totalExamples":5,"bonus":0.45,"bonusSoFar":0.45},{"rt":30347,"response":{"heads":"5","tails":"5"},"type":"response","condition":"seqNoFeedback","trueTheta":0.5,"classrooms":["A","B"],"studentTrueClassroom":"A","exampleSet":"first","trial_type":"survey-html-form","trial_index":16,"time_elapsed":547740,"internal_node_id":"0.0-12.0-0.0","params":{"nStudents":24,"maxFlips":30,"completionMinutes":45,"basePay":8,"maxBonus":9,"perTrialBonus":0.5,"perTrialBonusThreshold":0.05,"exampleCost":0.01},"classroomParams":{"A":{"a":1,"b":4},"B":{"a":4,"b":1},"C":{"a":2,"b":8},"D":{"a":8,"b":2}},"conditions":["nonSeqFull","nonSeqPartial","seqNoFeedback","seqFeedback"],"classroomPairings":[["A","B"],["C","D"]],"coinWeights":[0.2,0.5,0.8],"subjectId":"A3TBG0S2IEBVHU","assignmentId":"3COPXFW7XCYGFYSZJTTQND5RA8MKPQ","hitId":"3UDTAB6HH6LRO17U79I9TKUGSHV90J","url":"https://gershmanlab.com/experiments/alicia/teaching/experiment/?hitId=3UDTAB6HH6LRO17U79I9TKUGSHV90J&workerId=A3TBG0S2IEBVHU&assignmentId=3COPXFW7XCYGFYSZJTTQND5RA8MKPQ&a=7XOC9&tp_a=7XOC9&b=3COPXFW7XCYGFYSZJTTQND5RA8MKPQ&tp_b=3COPXFW7XCYGFYSZJTTQND5RA8MKPQ&c=365799&tp_c=365799","heads":5,"tails":5,"studentIndex":1,"studentTrueHypers":{"a":1,"b":4},"studentGuess":0.4,"delta":0.09999999999999998,"totalExamples":10,"bonusSoFar":0.45},{"rt":8766,"response":{"heads":"5","tails":"5"},"type":"response","condition":"seqNoFeedback","trueTheta":0.5,"classrooms":["A","B"],"studentTrueClassroom":"A","exampleSet":"second","trial_type":"survey-html-form","trial_index":19,"time_elapsed":562285,"internal_node_id":"0.0-15.0-0.0","params":{"nStudents":24,"maxFlips":30,"completionMinutes":45,"basePay":8,"maxBonus":9,"perTrialBonus":0.5,"perTrialBonusThreshold":0.05,"exampleCost":0.01},"classroomParams":{"A":{"a":1,"b":4},"B":{"a":4,"b":1},"C":{"a":2,"b":8},"D":{"a":8,"b":2}},"conditions":["nonSeqFull","nonSeqPartial","seqNoFeedback","seqFeedback"],"classroomPairings":[["A","B"],["C","D"]],"coinWeights":[0.2,0.5,0.8],"subjectId":"A3TBG0S2IEBVHU","assignmentId":"3COPXFW7XCYGFYSZJTTQND5RA8MKPQ","hitId":"3UDTAB6HH6LRO17U79I9TKUGSHV90J","url":"https://gershmanlab.com/experiments/alicia/teaching/experiment/?hitId=3UDTAB6HH6LRO17U79I9TKUGSHV90J&workerId=A3TBG0S2IEBVHU&assignmentId=3COPXFW7XCYGFYSZJTTQND5RA8MKPQ&a=7XOC9&tp_a=7XOC9&b=3COPXFW7XCYGFYSZJTTQND5RA8MKPQ&tp_b=3COPXFW7XCYGFYSZJTTQND5RA8MKPQ&c=365799&tp_c=365799","firstResponseHeads":5,"firstResponseTails":5,"secondResponseHeads":5,"secondResponseTails":5,"totalHeads":10,"totalTails":10,"studentIndex":1,"studentTrueHypers":{"a":1,"b":4},"studentGuess":0.44,"delta":0.06,"bonus":0,"bonusSoFar":0.45,"totalExamples":20},{"rt":8496,"response":{"heads":"8","tails":"2"},"type":"response","condition":"seqFeedback","trueTheta":0.8,"classrooms":["C","D"],"studentTrueClassroom":"C","exampleSet":"first","trial_type":"survey-html-form","trial_index":25,"time_elapsed":585792,"internal_node_id":"0.0-21.0-0.0","params":{"nStudents":24,"maxFlips":30,"completionMinutes":45,"basePay":8,"maxBonus":9,"perTrialBonus":0.5,"perTrialBonusThreshold":0.05,"exampleCost":0.01},"classroomParams":{"A":{"a":1,"b":4},"B":{"a":4,"b":1},"C":{"a":2,"b":8},"D":{"a":8,"b":2}},"conditions":["nonSeqFull","nonSeqPartial","seqNoFeedback","seqFeedback"],"classroomPairings":[["A","B"],["C","D"]],"coinWeights":[0.2,0.5,0.8],"subjectId":"A3TBG0S2IEBVHU","assignmentId":"3COPXFW7XCYGFYSZJTTQND5RA8MKPQ","hitId":"3UDTAB6HH6LRO17U79I9TKUGSHV90J","url":"https://gershmanlab.com/experiments/alicia/teaching/experiment/?hitId=3UDTAB6HH6LRO17U79I9TKUGSHV90J&workerId=A3TBG0S2IEBVHU&assignmentId=3COPXFW7XCYGFYSZJTTQND5RA8MKPQ&a=7XOC9&tp_a=7XOC9&b=3COPXFW7XCYGFYSZJTTQND5RA8MKPQ&tp_b=3COPXFW7XCYGFYSZJTTQND5RA8MKPQ&c=365799&tp_c=365799","heads":8,"tails":2,"studentIndex":2,"studentTrueHypers":{"a":2,"b":8},"studentGuess":0.5,"delta":0.30000000000000004,"totalExamples":10,"bonusSoFar":0.45},{"rt":13449,"response":{"heads":"10","tails":"0"},"type":"response","condition":"seqFeedback","trueTheta":0.8,"classrooms":["C","D"],"studentTrueClassroom":"C","exampleSet":"second","trial_type":"survey-html-form","trial_index":29,"time_elapsed":610315,"internal_node_id":"0.0-25.0-0.0","params":{"nStudents":24,"maxFlips":30,"completionMinutes":45,"basePay":8,"maxBonus":9,"perTrialBonus":0.5,"perTrialBonusThreshold":0.05,"exampleCost":0.01},"classroomParams":{"A":{"a":1,"b":4},"B":{"a":4,"b":1},"C":{"a":2,"b":8},"D":{"a":8,"b":2}},"conditions":["nonSeqFull","nonSeqPartial","seqNoFeedback","seqFeedback"],"classroomPairings":[["A","B"],["C","D"]],"coinWeights":[0.2,0.5,0.8],"subjectId":"A3TBG0S2IEBVHU","assignmentId":"3COPXFW7XCYGFYSZJTTQND5RA8MKPQ","hitId":"3UDTAB6HH6LRO17U79I9TKUGSHV90J","url":"https://gershmanlab.com/experiments/alicia/teaching/experiment/?hitId=3UDTAB6HH6LRO17U79I9TKUGSHV90J&workerId=A3TBG0S2IEBVHU&assignmentId=3COPXFW7XCYGFYSZJTTQND5RA8MKPQ&a=7XOC9&tp_a=7XOC9&b=3COPXFW7XCYGFYSZJTTQND5RA8MKPQ&tp_b=3COPXFW7XCYGFYSZJTTQND5RA8MKPQ&c=365799&tp_c=365799","firstResponseHeads":8,"firstResponseTails":2,"secondResponseHeads":10,"secondResponseTails":0,"totalHeads":18,"totalTails":2,"studentIndex":2,"studentTrueHypers":{"a":2,"b":8},"studentGuess":0.6666666666666666,"delta":0.13333333333333341,"bonus":0,"bonusSoFar":0.45,"totalExamples":20},{"rt":5576,"response":{"heads":"10","tails":"0"},"type":"response","condition":"seqNoFeedback","trueTheta":0.8,"classrooms":["C","D"],"studentTrueClassroom":"C","exampleSet":"first","trial_type":"survey-html-form","trial_index":35,"time_elapsed":632333,"internal_node_id":"0.0-31.0-0.0","params":{"nStudents":24,"maxFlips":30,"completionMinutes":45,"basePay":8,"maxBonus":9,"perTrialBonus":0.5,"perTrialBonusThreshold":0.05,"exampleCost":0.01},"classroomParams":{"A":{"a":1,"b":4},"B":{"a":4,"b":1},"C":{"a":2,"b":8},"D":{"a":8,"b":2}},"conditions":["nonSeqFull","nonSeqPartial","seqNoFeedback","seqFeedback"],"classroomPairings":[["A","B"],["C","D"]],"coinWeights":[0.2,0.5,0.8],"subjectId":"A3TBG0S2IEBVHU","assignmentId":"3COPXFW7XCYGFYSZJTTQND5RA8MKPQ","hitId":"3UDTAB6HH6LRO17U79I9TKUGSHV90J","url":"https://gershmanlab.com/experiments/alicia/teaching/experiment/?hitId=3UDTAB6HH6LRO17U79I9TKUGSHV90J&workerId=A3TBG0S2IEBVHU&assignmentId=3COPXFW7XCYGFYSZJTTQND5RA8MKPQ&a=7XOC9&tp_a=7XOC9&b=3COPXFW7XCYGFYSZJTTQND5RA8MKPQ&tp_b=3COPXFW7XCYGFYSZJTTQND5RA8MKPQ&c=365799&tp_c=365799","heads":10,"tails":0,"studentIndex":3,"studentTrueHypers":{"a":2,"b":8},"studentGuess":0.6,"delta":0.20000000000000007,"totalExamples":10,"bonusSoFar":0.45},{"rt":9642,"response":{"heads":"10","tails":"0"},"type":"response","condition":"seqNoFeedback","trueTheta":0.8,"classrooms":["C","D"],"studentTrueClassroom":"C","exampleSet":"second","trial_type":"survey-html-form","trial_index":38,"time_elapsed":649247,"internal_node_id":"0.0-34.0-0.0","params":{"nStudents":24,"maxFlips":30,"completionMinutes":45,"basePay":8,"maxBonus":9,"perTrialBonus":0.5,"perTrialBonusThreshold":0.05,"exampleCost":0.01},"classroomParams":{"A":{"a":1,"b":4},"B":{"a":4,"b":1},"C":{"a":2,"b":8},"D":{"a":8,"b":2}},"conditions":["nonSeqFull","nonSeqPartial","seqNoFeedback","seqFeedback"],"classroomPairings":[["A","B"],["C","D"]],"coinWeights":[0.2,0.5,0.8],"subjectId":"A3TBG0S2IEBVHU","assignmentId":"3COPXFW7XCYGFYSZJTTQND5RA8MKPQ","hitId":"3UDTAB6HH6LRO17U79I9TKUGSHV90J","url":"https://gershmanlab.com/experiments/alicia/teaching/experiment/?hitId=3UDTAB6HH6LRO17U79I9TKUGSHV90J&workerId=A3TBG0S2IEBVHU&assignmentId=3COPXFW7XCYGFYSZJTTQND5RA8MKPQ&a=7XOC9&tp_a=7XOC9&b=3COPXFW7XCYGFYSZJTTQND5RA8MKPQ&tp_b=3COPXFW7XCYGFYSZJTTQND5RA8MKPQ&c=365799&tp_c=365799","firstResponseHeads":10,"firstResponseTails":0,"secondResponseHeads":10,"secondResponseTails":0,"totalHeads":20,"totalTails":0,"studentIndex":3,"studentTrueHypers":{"a":2,"b":8},"studentGuess":0.7333333333333333,"delta":0.06666666666666676,"bonus":0,"bonusSoFar":0.45,"totalExamples":20},{"rt":18305,"response":{"heads":"6","tails":"4"},"type":"response","condition":"seqNoFeedback","trueTheta":0.5,"classrooms":["C","D"],"studentTrueClassroom":"D","exampleSet":"first","trial_type":"survey-html-form","trial_index":44,"time_elapsed":685091,"internal_node_id":"0.0-40.0-0.0","params":{"nStudents":24,"maxFlips":30,"completionMinutes":45,"basePay":8,"maxBonus":9,"perTrialBonus":0.5,"perTrialBonusThreshold":0.05,"exampleCost":0.01},"classroomParams":{"A":{"a":1,"b":4},"B":{"a":4,"b":1},"C":{"a":2,"b":8},"D":{"a":8,"b":2}},"conditions":["nonSeqFull","nonSeqPartial","seqNoFeedback","seqFeedback"],"classroomPairings":[["A","B"],["C","D"]],"coinWeights":[0.2,0.5,0.8],"subjectId":"A3TBG0S2IEBVHU","assignmentId":"3COPXFW7XCYGFYSZJTTQND5RA8MKPQ","hitId":"3UDTAB6HH6LRO17U79I9TKUGSHV90J","url":"https://gershmanlab.com/experiments/alicia/teaching/experiment/?hitId=3UDTAB6HH6LRO17U79I9TKUGSHV90J&workerId=A3TBG0S2IEBVHU&assignmentId=3COPXFW7XCYGFYSZJTTQND5RA8MKPQ&a=7XOC9&tp_a=7XOC9&b=3COPXFW7XCYGFYSZJTTQND5RA8MKPQ&tp_b=3COPXFW7XCYGFYSZJTTQND5RA8MKPQ&c=365799&tp_c=365799","heads":6,"tails":4,"studentIndex":4,"studentTrueHypers":{"a":8,"b":2},"studentGuess":0.7,"delta":0.19999999999999996,"totalExamples":10,"bonusSoFar":0.45},{"rt":3132,"response":{"heads":"4","tails":"6"},"type":"response","condition":"seqNoFeedback","trueTheta":0.5,"classrooms":["C","D"],"studentTrueClassroom":"D","exampleSet":"second","trial_type":"survey-html-form","trial_index":47,"time_elapsed":695004,"internal_node_id":"0.0-43.0-0.0","params":{"nStudents":24,"maxFlips":30,"completionMinutes":45,"basePay":8,"maxBonus":9,"perTrialBonus":0.5,"perTrialBonusThreshold":0.05,"exampleCost":0.01},"classroomParams":{"A":{"a":1,"b":4},"B":{"a":4,"b":1},"C":{"a":2,"b":8},"D":{"a":8,"b":2}},"conditions":["nonSeqFull","nonSeqPartial","seqNoFeedback","seqFeedback"],"classroomPairings":[["A","B"],["C","D"]],"coinWeights":[0.2,0.5,0.8],"subjectId":"A3TBG0S2IEBVHU","assignmentId":"3COPXFW7XCYGFYSZJTTQND5RA8MKPQ","hitId":"3UDTAB6HH6LRO17U79I9TKUGSHV90J","url":"https://gershmanlab.com/experiments/alicia/teaching/experiment/?hitId=3UDTAB6HH6LRO17U79I9TKUGSHV90J&workerId=A3TBG0S2IEBVHU&assignmentId=3COPXFW7XCYGFYSZJTTQND5RA8MKPQ&a=7XOC9&tp_a=7XOC9&b=3COPXFW7XCYGFYSZJTTQND5RA8MKPQ&tp_b=3COPXFW7XCYGFYSZJTTQND5RA8MKPQ&c=365799&tp_c=365799","firstResponseHeads":6,"firstResponseTails":4,"secondResponseHeads":4,"secondResponseTails":6,"totalHeads":10,"totalTails":10,"studentIndex":4,"studentTrueHypers":{"a":8,"b":2},"studentGuess":0.6,"delta":0.09999999999999998,"bonus":0,"bonusSoFar":0.45,"totalExamples":20},{"rt":3912,"response":{"heads":"5","tails":"5"},"type":"response","condition":"nonSeqFull","trueTheta":0.5,"classrooms":["A","B"],"studentTrueClassroom":"B","exampleSet":"first","trial_type":"survey-html-form","trial_index":53,"time_elapsed":711533,"internal_node_id":"0.0-49.0-0.0","params":{"nStudents":24,"maxFlips":30,"completionMinutes":45,"basePay":8,"maxBonus":9,"perTrialBonus":0.5,"perTrialBonusThreshold":0.05,"exampleCost":0.01},"classroomParams":{"A":{"a":1,"b":4},"B":{"a":4,"b":1},"C":{"a":2,"b":8},"D":{"a":8,"b":2}},"conditions":["nonSeqFull","nonSeqPartial","seqNoFeedback","seqFeedback"],"classroomPairings":[["A","B"],["C","D"]],"coinWeights":[0.2,0.5,0.8],"subjectId":"A3TBG0S2IEBVHU","assignmentId":"3COPXFW7XCYGFYSZJTTQND5RA8MKPQ","hitId":"3UDTAB6HH6LRO17U79I9TKUGSHV90J","url":"https://gershmanlab.com/experiments/alicia/teaching/experiment/?hitId=3UDTAB6HH6LRO17U79I9TKUGSHV90J&workerId=A3TBG0S2IEBVHU&assignmentId=3COPXFW7XCYGFYSZJTTQND5RA8MKPQ&a=7XOC9&tp_a=7XOC9&b=3COPXFW7XCYGFYSZJTTQND5RA8MKPQ&tp_b=3COPXFW7XCYGFYSZJTTQND5RA8MKPQ&c=365799&tp_c=365799","heads":5,"tails":5,"studentIndex":5,"studentTrueHypers":{"a":4,"b":1},"studentGuess":0.6,"delta":0.09999999999999998,"totalExamples":10,"bonus":0,"bonusSoFar":0.45},{"rt":7848,"response":{"heads":"5","tails":"5"},"type":"response","condition":"nonSeqPartial","trueTheta":0.5,"classrooms":["A","B"],"studentTrueClassroom":"B","exampleSet":"first","trial_type":"survey-html-form","trial_index":59,"time_elapsed":733560,"internal_node_id":"0.0-55.0-0.0","params":{"nStudents":24,"maxFlips":30,"completionMinutes":45,"basePay":8,"maxBonus":9,"perTrialBonus":0.5,"perTrialBonusThreshold":0.05,"exampleCost":0.01},"classroomParams":{"A":{"a":1,"b":4},"B":{"a":4,"b":1},"C":{"a":2,"b":8},"D":{"a":8,"b":2}},"conditions":["nonSeqFull","nonSeqPartial","seqNoFeedback","seqFeedback"],"classroomPairings":[["A","B"],["C","D"]],"coinWeights":[0.2,0.5,0.8],"subjectId":"A3TBG0S2IEBVHU","assignmentId":"3COPXFW7XCYGFYSZJTTQND5RA8MKPQ","hitId":"3UDTAB6HH6LRO17U79I9TKUGSHV90J","url":"https://gershmanlab.com/experiments/alicia/teaching/experiment/?hitId=3UDTAB6HH6LRO17U79I9TKUGSHV90J&workerId=A3TBG0S2IEBVHU&assignmentId=3COPXFW7XCYGFYSZJTTQND5RA8MKPQ&a=7XOC9&tp_a=7XOC9&b=3COPXFW7XCYGFYSZJTTQND5RA8MKPQ&tp_b=3COPXFW7XCYGFYSZJTTQND5RA8MKPQ&c=365799&tp_c=365799","heads":5,"tails":5,"studentIndex":6,"studentTrueHypers":{"a":4,"b":1},"studentGuess":0.6,"delta":0.09999999999999998,"totalExamples":10,"bonus":0,"bonusSoFar":0.45},{"rt":3496,"response":{"heads":"2","tails":"8"},"type":"response","condition":"seqFeedback","trueTheta":0.2,"classrooms":["C","D"],"studentTrueClassroom":"C","exampleSet":"first","trial_type":"survey-html-form","trial_index":65,"time_elapsed":747665,"internal_node_id":"0.0-61.0-0.0","params":{"nStudents":24,"maxFlips":30,"completionMinutes":45,"basePay":8,"maxBonus":9,"perTrialBonus":0.5,"perTrialBonusThreshold":0.05,"exampleCost":0.01},"classroomParams":{"A":{"a":1,"b":4},"B":{"a":4,"b":1},"C":{"a":2,"b":8},"D":{"a":8,"b":2}},"conditions":["nonSeqFull","nonSeqPartial","seqNoFeedback","seqFeedback"],"classroomPairings":[["A","B"],["C","D"]],"coinWeights":[0.2,0.5,0.8],"subjectId":"A3TBG0S2IEBVHU","assignmentId":"3COPXFW7XCYGFYSZJTTQND5RA8MKPQ","hitId":"3UDTAB6HH6LRO17U79I9TKUGSHV90J","url":"https://gershmanlab.com/experiments/alicia/teaching/experiment/?hitId=3UDTAB6HH6LRO17U79I9TKUGSHV90J&workerId=A3TBG0S2IEBVHU&assignmentId=3COPXFW7XCYGFYSZJTTQND5RA8MKPQ&a=7XOC9&tp_a=7XOC9&b=3COPXFW7XCYGFYSZJTTQND5RA8MKPQ&tp_b=3COPXFW7XCYGFYSZJTTQND5RA8MKPQ&c=365799&tp_c=365799","heads":2,"tails":8,"studentIndex":7,"studentTrueHypers":{"a":2,"b":8},"studentGuess":0.2,"delta":0,"totalExamples":10,"bonusSoFar":0.45},{"rt":2552,"response":{"heads":"2","tails":"8"},"type":"response","condition":"seqFeedback","trueTheta":0.2,"classrooms":["C","D"],"studentTrueClassroom":"C","exampleSet":"second","trial_type":"survey-html-form","trial_index":69,"time_elapsed":758186,"internal_node_id":"0.0-65.0-0.0","params":{"nStudents":24,"maxFlips":30,"completionMinutes":45,"basePay":8,"maxBonus":9,"perTrialBonus":0.5,"perTrialBonusThreshold":0.05,"exampleCost":0.01},"classroomParams":{"A":{"a":1,"b":4},"B":{"a":4,"b":1},"C":{"a":2,"b":8},"D":{"a":8,"b":2}},"conditions":["nonSeqFull","nonSeqPartial","seqNoFeedback","seqFeedback"],"classroomPairings":[["A","B"],["C","D"]],"coinWeights":[0.2,0.5,0.8],"subjectId":"A3TBG0S2IEBVHU","assignmentId":"3COPXFW7XCYGFYSZJTTQND5RA8MKPQ","hitId":"3UDTAB6HH6LRO17U79I9TKUGSHV90J","url":"https://gershmanlab.com/experiments/alicia/teaching/experiment/?hitId=3UDTAB6HH6LRO17U79I9TKUGSHV90J&workerId=A3TBG0S2IEBVHU&assignmentId=3COPXFW7XCYGFYSZJTTQND5RA8MKPQ&a=7XOC9&tp_a=7XOC9&b=3COPXFW7XCYGFYSZJTTQND5RA8MKPQ&tp_b=3COPXFW7XCYGFYSZJTTQND5RA8MKPQ&c=365799&tp_c=365799","firstResponseHeads":2,"firstResponseTails":8,"secondResponseHeads":2,"secondResponseTails":8,"totalHeads":4,"totalTails":16,"studentIndex":7,"studentTrueHypers":{"a":2,"b":8},"studentGuess":0.2,"delta":0,"bonus":0.3,"bonusSoFar":0.75,"totalExamples":20},{"rt":1327,"response":{"heads":"8","tails":"2"},"type":"response","condition":"nonSeqPartial","trueTheta":0.8,"classrooms":["C","D"],"studentTrueClassroom":"C","exampleSet":"first","trial_type":"survey-html-form","trial_index":75,"time_elapsed":772900,"internal_node_id":"0.0-71.0-0.0","params":{"nStudents":24,"maxFlips":30,"completionMinutes":45,"basePay":8,"maxBonus":9,"perTrialBonus":0.5,"perTrialBonusThreshold":0.05,"exampleCost":0.01},"classroomParams":{"A":{"a":1,"b":4},"B":{"a":4,"b":1},"C":{"a":2,"b":8},"D":{"a":8,"b":2}},"conditions":["nonSeqFull","nonSeqPartial","seqNoFeedback","seqFeedback"],"classroomPairings":[["A","B"],["C","D"]],"coinWeights":[0.2,0.5,0.8],"subjectId":"A3TBG0S2IEBVHU","assignmentId":"3COPXFW7XCYGFYSZJTTQND5RA8MKPQ","hitId":"3UDTAB6HH6LRO17U79I9TKUGSHV90J","url":"https://gershmanlab.com/experiments/alicia/teaching/experiment/?hitId=3UDTAB6HH6LRO17U79I9TKUGSHV90J&workerId=A3TBG0S2IEBVHU&assignmentId=3COPXFW7XCYGFYSZJTTQND5RA8MKPQ&a=7XOC9&tp_a=7XOC9&b=3COPXFW7XCYGFYSZJTTQND5RA8MKPQ&tp_b=3COPXFW7XCYGFYSZJTTQND5RA8MKPQ&c=365799&tp_c=365799","heads":8,"tails":2,"studentIndex":8,"studentTrueHypers":{"a":2,"b":8},"studentGuess":0.5,"delta":0.30000000000000004,"totalExamples":10,"bonus":0,"bonusSoFar":0.75},{"rt":1832,"response":{"heads":"8","tails":"2"},"type":"response","condition":"nonSeqFull","trueTheta":0.8,"classrooms":["A","B"],"studentTrueClassroom":"B","exampleSet":"first","trial_type":"survey-html-form","trial_index":81,"time_elapsed":789254,"internal_node_id":"0.0-77.0-0.0","params":{"nStudents":24,"maxFlips":30,"completionMinutes":45,"basePay":8,"maxBonus":9,"perTrialBonus":0.5,"perTrialBonusThreshold":0.05,"exampleCost":0.01},"classroomParams":{"A":{"a":1,"b":4},"B":{"a":4,"b":1},"C":{"a":2,"b":8},"D":{"a":8,"b":2}},"conditions":["nonSeqFull","nonSeqPartial","seqNoFeedback","seqFeedback"],"classroomPairings":[["A","B"],["C","D"]],"coinWeights":[0.2,0.5,0.8],"subjectId":"A3TBG0S2IEBVHU","assignmentId":"3COPXFW7XCYGFYSZJTTQND5RA8MKPQ","hitId":"3UDTAB6HH6LRO17U79I9TKUGSHV90J","url":"https://gershmanlab.com/experiments/alicia/teaching/experiment/?hitId=3UDTAB6HH6LRO17U79I9TKUGSHV90J&workerId=A3TBG0S2IEBVHU&assignmentId=3COPXFW7XCYGFYSZJTTQND5RA8MKPQ&a=7XOC9&tp_a=7XOC9&b=3COPXFW7XCYGFYSZJTTQND5RA8MKPQ&tp_b=3COPXFW7XCYGFYSZJTTQND5RA8MKPQ&c=365799&tp_c=365799","heads":8,"tails":2,"studentIndex":9,"studentTrueHypers":{"a":4,"b":1},"studentGuess":0.8,"delta":0,"totalExamples":10,"bonus":0.4,"bonusSoFar":1.15},{"rt":1800,"response":{"heads":"2","tails":"8"},"type":"response","condition":"nonSeqPartial","trueTheta":0.2,"classrooms":["C","D"],"studentTrueClassroom":"C","exampleSet":"first","trial_type":"survey-html-form","trial_index":87,"time_elapsed":814617,"internal_node_id":"0.0-83.0-0.0","params":{"nStudents":24,"maxFlips":30,"completionMinutes":45,"basePay":8,"maxBonus":9,"perTrialBonus":0.5,"perTrialBonusThreshold":0.05,"exampleCost":0.01},"classroomParams":{"A":{"a":1,"b":4},"B":{"a":4,"b":1},"C":{"a":2,"b":8},"D":{"a":8,"b":2}},"conditions":["nonSeqFull","nonSeqPartial","seqNoFeedback","seqFeedback"],"classroomPairings":[["A","B"],["C","D"]],"coinWeights":[0.2,0.5,0.8],"subjectId":"A3TBG0S2IEBVHU","assignmentId":"3COPXFW7XCYGFYSZJTTQND5RA8MKPQ","hitId":"3UDTAB6HH6LRO17U79I9TKUGSHV90J","url":"https://gershmanlab.com/experiments/alicia/teaching/experiment/?hitId=3UDTAB6HH6LRO17U79I9TKUGSHV90J&workerId=A3TBG0S2IEBVHU&assignmentId=3COPXFW7XCYGFYSZJTTQND5RA8MKPQ&a=7XOC9&tp_a=7XOC9&b=3COPXFW7XCYGFYSZJTTQND5RA8MKPQ&tp_b=3COPXFW7XCYGFYSZJTTQND5RA8MKPQ&c=365799&tp_c=365799","heads":2,"tails":8,"studentIndex":10,"studentTrueHypers":{"a":2,"b":8},"studentGuess":0.2,"delta":0,"totalExamples":10,"bonus":0.4,"bonusSoFar":1.55},{"rt":1728,"response":{"heads":"2","tails":"8"},"type":"response","condition":"seqNoFeedback","trueTheta":0.2,"classrooms":["A","B"],"studentTrueClassroom":"B","exampleSet":"first","trial_type":"survey-html-form","trial_index":93,"time_elapsed":828514,"internal_node_id":"0.0-89.0-0.0","params":{"nStudents":24,"maxFlips":30,"completionMinutes":45,"basePay":8,"maxBonus":9,"perTrialBonus":0.5,"perTrialBonusThreshold":0.05,"exampleCost":0.01},"classroomParams":{"A":{"a":1,"b":4},"B":{"a":4,"b":1},"C":{"a":2,"b":8},"D":{"a":8,"b":2}},"conditions":["nonSeqFull","nonSeqPartial","seqNoFeedback","seqFeedback"],"classroomPairings":[["A","B"],["C","D"]],"coinWeights":[0.2,0.5,0.8],"subjectId":"A3TBG0S2IEBVHU","assignmentId":"3COPXFW7XCYGFYSZJTTQND5RA8MKPQ","hitId":"3UDTAB6HH6LRO17U79I9TKUGSHV90J","url":"https://gershmanlab.com/experiments/alicia/teaching/experiment/?hitId=3UDTAB6HH6LRO17U79I9TKUGSHV90J&workerId=A3TBG0S2IEBVHU&assignmentId=3COPXFW7XCYGFYSZJTTQND5RA8MKPQ&a=7XOC9&tp_a=7XOC9&b=3COPXFW7XCYGFYSZJTTQND5RA8MKPQ&tp_b=3COPXFW7XCYGFYSZJTTQND5RA8MKPQ&c=365799&tp_c=365799","heads":2,"tails":8,"studentIndex":11,"studentTrueHypers":{"a":4,"b":1},"studentGuess":0.4,"delta":0.2,"totalExamples":10,"bonusSoFar":1.55},{"rt":2358,"response":{"heads":"2","tails":"8"},"type":"response","condition":"seqNoFeedback","trueTheta":0.2,"classrooms":["A","B"],"studentTrueClassroom":"B","exampleSet":"second","trial_type":"survey-html-form","trial_index":96,"time_elapsed":836131,"internal_node_id":"0.0-92.0-0.0","params":{"nStudents":24,"maxFlips":30,"completionMinutes":45,"basePay":8,"maxBonus":9,"perTrialBonus":0.5,"perTrialBonusThreshold":0.05,"exampleCost":0.01},"classroomParams":{"A":{"a":1,"b":4},"B":{"a":4,"b":1},"C":{"a":2,"b":8},"D":{"a":8,"b":2}},"conditions":["nonSeqFull","nonSeqPartial","seqNoFeedback","seqFeedback"],"classroomPairings":[["A","B"],["C","D"]],"coinWeights":[0.2,0.5,0.8],"subjectId":"A3TBG0S2IEBVHU","assignmentId":"3COPXFW7XCYGFYSZJTTQND5RA8MKPQ","hitId":"3UDTAB6HH6LRO17U79I9TKUGSHV90J","url":"https://gershmanlab.com/experiments/alicia/teaching/experiment/?hitId=3UDTAB6HH6LRO17U79I9TKUGSHV90J&workerId=A3TBG0S2IEBVHU&assignmentId=3COPXFW7XCYGFYSZJTTQND5RA8MKPQ&a=7XOC9&tp_a=7XOC9&b=3COPXFW7XCYGFYSZJTTQND5RA8MKPQ&tp_b=3COPXFW7XCYGFYSZJTTQND5RA8MKPQ&c=365799&tp_c=365799","firstResponseHeads":2,"firstResponseTails":8,"secondResponseHeads":2,"secondResponseTails":8,"totalHeads":4,"totalTails":16,"studentIndex":11,"studentTrueHypers":{"a":4,"b":1},"studentGuess":0.32,"delta":0.12,"bonus":0,"bonusSoFar":1.55,"totalExamples":20},{"rt":2175,"response":{"heads":"5","tails":"5"},"type":"response","condition":"seqFeedback","trueTheta":0.5,"classrooms":["C","D"],"studentTrueClassroom":"D","exampleSet":"first","trial_type":"survey-html-form","trial_index":102,"time_elapsed":850700,"internal_node_id":"0.0-98.0-0.0","params":{"nStudents":24,"maxFlips":30,"completionMinutes":45,"basePay":8,"maxBonus":9,"perTrialBonus":0.5,"perTrialBonusThreshold":0.05,"exampleCost":0.01},"classroomParams":{"A":{"a":1,"b":4},"B":{"a":4,"b":1},"C":{"a":2,"b":8},"D":{"a":8,"b":2}},"conditions":["nonSeqFull","nonSeqPartial","seqNoFeedback","seqFeedback"],"classroomPairings":[["A","B"],["C","D"]],"coinWeights":[0.2,0.5,0.8],"subjectId":"A3TBG0S2IEBVHU","assignmentId":"3COPXFW7XCYGFYSZJTTQND5RA8MKPQ","hitId":"3UDTAB6HH6LRO17U79I9TKUGSHV90J","url":"https://gershmanlab.com/experiments/alicia/teaching/experiment/?hitId=3UDTAB6HH6LRO17U79I9TKUGSHV90J&workerId=A3TBG0S2IEBVHU&assignmentId=3COPXFW7XCYGFYSZJTTQND5RA8MKPQ&a=7XOC9&tp_a=7XOC9&b=3COPXFW7XCYGFYSZJTTQND5RA8MKPQ&tp_b=3COPXFW7XCYGFYSZJTTQND5RA8MKPQ&c=365799&tp_c=365799","heads":5,"tails":5,"studentIndex":12,"studentTrueHypers":{"a":8,"b":2},"studentGuess":0.65,"delta":0.15000000000000002,"totalExamples":10,"bonusSoFar":1.55},{"rt":8817,"response":{"heads":"3","tails":"7"},"type":"response","condition":"seqFeedback","trueTheta":0.5,"classrooms":["C","D"],"studentTrueClassroom":"D","exampleSet":"second","trial_type":"survey-html-form","trial_index":106,"time_elapsed":869326,"internal_node_id":"0.0-102.0-0.0","params":{"nStudents":24,"maxFlips":30,"completionMinutes":45,"basePay":8,"maxBonus":9,"perTrialBonus":0.5,"perTrialBonusThreshold":0.05,"exampleCost":0.01},"classroomParams":{"A":{"a":1,"b":4},"B":{"a":4,"b":1},"C":{"a":2,"b":8},"D":{"a":8,"b":2}},"conditions":["nonSeqFull","nonSeqPartial","seqNoFeedback","seqFeedback"],"classroomPairings":[["A","B"],["C","D"]],"coinWeights":[0.2,0.5,0.8],"subjectId":"A3TBG0S2IEBVHU","assignmentId":"3COPXFW7XCYGFYSZJTTQND5RA8MKPQ","hitId":"3UDTAB6HH6LRO17U79I9TKUGSHV90J","url":"https://gershmanlab.com/experiments/alicia/teaching/experiment/?hitId=3UDTAB6HH6LRO17U79I9TKUGSHV90J&workerId=A3TBG0S2IEBVHU&assignmentId=3COPXFW7XCYGFYSZJTTQND5RA8MKPQ&a=7XOC9&tp_a=7XOC9&b=3COPXFW7XCYGFYSZJTTQND5RA8MKPQ&tp_b=3COPXFW7XCYGFYSZJTTQND5RA8MKPQ&c=365799&tp_c=365799","firstResponseHeads":5,"firstResponseTails":5,"secondResponseHeads":3,"secondResponseTails":7,"totalHeads":8,"totalTails":12,"studentIndex":12,"studentTrueHypers":{"a":8,"b":2},"studentGuess":0.5333333333333333,"delta":0.033333333333333326,"bonus":0.3,"bonusSoFar":1.85,"totalExamples":20},{"rt":2400,"response":{"heads":"2","tails":"8"},"type":"response","condition":"nonSeqFull","trueTheta":0.2,"classrooms":["A","B"],"studentTrueClassroom":"A","exampleSet":"first","trial_type":"survey-html-form","trial_index":112,"time_elapsed":884936,"internal_node_id":"0.0-108.0-0.0","params":{"nStudents":24,"maxFlips":30,"completionMinutes":45,"basePay":8,"maxBonus":9,"perTrialBonus":0.5,"perTrialBonusThreshold":0.05,"exampleCost":0.01},"classroomParams":{"A":{"a":1,"b":4},"B":{"a":4,"b":1},"C":{"a":2,"b":8},"D":{"a":8,"b":2}},"conditions":["nonSeqFull","nonSeqPartial","seqNoFeedback","seqFeedback"],"classroomPairings":[["A","B"],["C","D"]],"coinWeights":[0.2,0.5,0.8],"subjectId":"A3TBG0S2IEBVHU","assignmentId":"3COPXFW7XCYGFYSZJTTQND5RA8MKPQ","hitId":"3UDTAB6HH6LRO17U79I9TKUGSHV90J","url":"https://gershmanlab.com/experiments/alicia/teaching/experiment/?hitId=3UDTAB6HH6LRO17U79I9TKUGSHV90J&workerId=A3TBG0S2IEBVHU&assignmentId=3COPXFW7XCYGFYSZJTTQND5RA8MKPQ&a=7XOC9&tp_a=7XOC9&b=3COPXFW7XCYGFYSZJTTQND5RA8MKPQ&tp_b=3COPXFW7XCYGFYSZJTTQND5RA8MKPQ&c=365799&tp_c=365799","heads":2,"tails":8,"studentIndex":13,"studentTrueHypers":{"a":1,"b":4},"studentGuess":0.2,"delta":0,"totalExamples":10,"bonus":0.4,"bonusSoFar":2.25},{"rt":4760,"response":{"heads":"8","tails":"2"},"type":"response","condition":"seqNoFeedback","trueTheta":0.8,"classrooms":["A","B"],"studentTrueClassroom":"B","exampleSet":"first","trial_type":"survey-html-form","trial_index":118,"time_elapsed":901186,"internal_node_id":"0.0-114.0-0.0","params":{"nStudents":24,"maxFlips":30,"completionMinutes":45,"basePay":8,"maxBonus":9,"perTrialBonus":0.5,"perTrialBonusThreshold":0.05,"exampleCost":0.01},"classroomParams":{"A":{"a":1,"b":4},"B":{"a":4,"b":1},"C":{"a":2,"b":8},"D":{"a":8,"b":2}},"conditions":["nonSeqFull","nonSeqPartial","seqNoFeedback","seqFeedback"],"classroomPairings":[["A","B"],["C","D"]],"coinWeights":[0.2,0.5,0.8],"subjectId":"A3TBG0S2IEBVHU","assignmentId":"3COPXFW7XCYGFYSZJTTQND5RA8MKPQ","hitId":"3UDTAB6HH6LRO17U79I9TKUGSHV90J","url":"https://gershmanlab.com/experiments/alicia/teaching/experiment/?hitId=3UDTAB6HH6LRO17U79I9TKUGSHV90J&workerId=A3TBG0S2IEBVHU&assignmentId=3COPXFW7XCYGFYSZJTTQND5RA8MKPQ&a=7XOC9&tp_a=7XOC9&b=3COPXFW7XCYGFYSZJTTQND5RA8MKPQ&tp_b=3COPXFW7XCYGFYSZJTTQND5RA8MKPQ&c=365799&tp_c=365799","heads":8,"tails":2,"studentIndex":14,"studentTrueHypers":{"a":4,"b":1},"studentGuess":0.8,"delta":0,"totalExamples":10,"bonusSoFar":2.25},{"rt":7766,"response":{"heads":"9","tails":"1"},"type":"response","condition":"seqNoFeedback","trueTheta":0.8,"classrooms":["A","B"],"studentTrueClassroom":"B","exampleSet":"second","trial_type":"survey-html-form","trial_index":121,"time_elapsed":915459,"internal_node_id":"0.0-117.0-0.0","params":{"nStudents":24,"maxFlips":30,"completionMinutes":45,"basePay":8,"maxBonus":9,"perTrialBonus":0.5,"perTrialBonusThreshold":0.05,"exampleCost":0.01},"classroomParams":{"A":{"a":1,"b":4},"B":{"a":4,"b":1},"C":{"a":2,"b":8},"D":{"a":8,"b":2}},"conditions":["nonSeqFull","nonSeqPartial","seqNoFeedback","seqFeedback"],"classroomPairings":[["A","B"],["C","D"]],"coinWeights":[0.2,0.5,0.8],"subjectId":"A3TBG0S2IEBVHU","assignmentId":"3COPXFW7XCYGFYSZJTTQND5RA8MKPQ","hitId":"3UDTAB6HH6LRO17U79I9TKUGSHV90J","url":"https://gershmanlab.com/experiments/alicia/teaching/experiment/?hitId=3UDTAB6HH6LRO17U79I9TKUGSHV90J&workerId=A3TBG0S2IEBVHU&assignmentId=3COPXFW7XCYGFYSZJTTQND5RA8MKPQ&a=7XOC9&tp_a=7XOC9&b=3COPXFW7XCYGFYSZJTTQND5RA8MKPQ&tp_b=3COPXFW7XCYGFYSZJTTQND5RA8MKPQ&c=365799&tp_c=365799","firstResponseHeads":8,"firstResponseTails":2,"secondResponseHeads":9,"secondResponseTails":1,"totalHeads":17,"totalTails":3,"studentIndex":14,"studentTrueHypers":{"a":4,"b":1},"studentGuess":0.84,"delta":0.039999999999999925,"bonus":0.3,"bonusSoFar":2.55,"totalExamples":20},{"rt":2024,"response":{"heads":"2","tails":"8"},"type":"response","condition":"nonSeqPartial","trueTheta":0.2,"classrooms":["A","B"],"studentTrueClassroom":"B","exampleSet":"first","trial_type":"survey-html-form","trial_index":127,"time_elapsed":930381,"internal_node_id":"0.0-123.0-0.0","params":{"nStudents":24,"maxFlips":30,"completionMinutes":45,"basePay":8,"maxBonus":9,"perTrialBonus":0.5,"perTrialBonusThreshold":0.05,"exampleCost":0.01},"classroomParams":{"A":{"a":1,"b":4},"B":{"a":4,"b":1},"C":{"a":2,"b":8},"D":{"a":8,"b":2}},"conditions":["nonSeqFull","nonSeqPartial","seqNoFeedback","seqFeedback"],"classroomPairings":[["A","B"],["C","D"]],"coinWeights":[0.2,0.5,0.8],"subjectId":"A3TBG0S2IEBVHU","assignmentId":"3COPXFW7XCYGFYSZJTTQND5RA8MKPQ","hitId":"3UDTAB6HH6LRO17U79I9TKUGSHV90J","url":"https://gershmanlab.com/experiments/alicia/teaching/experiment/?hitId=3UDTAB6HH6LRO17U79I9TKUGSHV90J&workerId=A3TBG0S2IEBVHU&assignmentId=3COPXFW7XCYGFYSZJTTQND5RA8MKPQ&a=7XOC9&tp_a=7XOC9&b=3COPXFW7XCYGFYSZJTTQND5RA8MKPQ&tp_b=3COPXFW7XCYGFYSZJTTQND5RA8MKPQ&c=365799&tp_c=365799","heads":2,"tails":8,"studentIndex":15,"studentTrueHypers":{"a":4,"b":1},"studentGuess":0.4,"delta":0.2,"totalExamples":10,"bonus":0,"bonusSoFar":2.55},{"rt":1800,"response":{"heads":"8","tails":"2"},"type":"response","condition":"seqFeedback","trueTheta":0.8,"classrooms":["A","B"],"studentTrueClassroom":"A","exampleSet":"first","trial_type":"survey-html-form","trial_index":133,"time_elapsed":944454,"internal_node_id":"0.0-129.0-0.0","params":{"nStudents":24,"maxFlips":30,"completionMinutes":45,"basePay":8,"maxBonus":9,"perTrialBonus":0.5,"perTrialBonusThreshold":0.05,"exampleCost":0.01},"classroomParams":{"A":{"a":1,"b":4},"B":{"a":4,"b":1},"C":{"a":2,"b":8},"D":{"a":8,"b":2}},"conditions":["nonSeqFull","nonSeqPartial","seqNoFeedback","seqFeedback"],"classroomPairings":[["A","B"],["C","D"]],"coinWeights":[0.2,0.5,0.8],"subjectId":"A3TBG0S2IEBVHU","assignmentId":"3COPXFW7XCYGFYSZJTTQND5RA8MKPQ","hitId":"3UDTAB6HH6LRO17U79I9TKUGSHV90J","url":"https://gershmanlab.com/experiments/alicia/teaching/experiment/?hitId=3UDTAB6HH6LRO17U79I9TKUGSHV90J&workerId=A3TBG0S2IEBVHU&assignmentId=3COPXFW7XCYGFYSZJTTQND5RA8MKPQ&a=7XOC9&tp_a=7XOC9&b=3COPXFW7XCYGFYSZJTTQND5RA8MKPQ&tp_b=3COPXFW7XCYGFYSZJTTQND5RA8MKPQ&c=365799&tp_c=365799","heads":8,"tails":2,"studentIndex":16,"studentTrueHypers":{"a":1,"b":4},"studentGuess":0.6,"delta":0.20000000000000007,"totalExamples":10,"bonusSoFar":2.55},{"rt":2016,"response":{"heads":"8","tails":"2"},"type":"response","condition":"seqFeedback","trueTheta":0.8,"classrooms":["A","B"],"studentTrueClassroom":"A","exampleSet":"second","trial_type":"survey-html-form","trial_index":137,"time_elapsed":953871,"internal_node_id":"0.0-133.0-0.0","params":{"nStudents":24,"maxFlips":30,"completionMinutes":45,"basePay":8,"maxBonus":9,"perTrialBonus":0.5,"perTrialBonusThreshold":0.05,"exampleCost":0.01},"classroomParams":{"A":{"a":1,"b":4},"B":{"a":4,"b":1},"C":{"a":2,"b":8},"D":{"a":8,"b":2}},"conditions":["nonSeqFull","nonSeqPartial","seqNoFeedback","seqFeedback"],"classroomPairings":[["A","B"],["C","D"]],"coinWeights":[0.2,0.5,0.8],"subjectId":"A3TBG0S2IEBVHU","assignmentId":"3COPXFW7XCYGFYSZJTTQND5RA8MKPQ","hitId":"3UDTAB6HH6LRO17U79I9TKUGSHV90J","url":"https://gershmanlab.com/experiments/alicia/teaching/experiment/?hitId=3UDTAB6HH6LRO17U79I9TKUGSHV90J&workerId=A3TBG0S2IEBVHU&assignmentId=3COPXFW7XCYGFYSZJTTQND5RA8MKPQ&a=7XOC9&tp_a=7XOC9&b=3COPXFW7XCYGFYSZJTTQND5RA8MKPQ&tp_b=3COPXFW7XCYGFYSZJTTQND5RA8MKPQ&c=365799&tp_c=365799","firstResponseHeads":8,"firstResponseTails":2,"secondResponseHeads":8,"secondResponseTails":2,"totalHeads":16,"totalTails":4,"studentIndex":16,"studentTrueHypers":{"a":1,"b":4},"studentGuess":0.68,"delta":0.12,"bonus":0,"bonusSoFar":2.55,"totalExamples":20},{"rt":2696,"response":{"heads":"6","tails":"4"},"type":"response","condition":"seqFeedback","trueTheta":0.5,"classrooms":["A","B"],"studentTrueClassroom":"A","exampleSet":"first","trial_type":"survey-html-form","trial_index":143,"time_elapsed":967569,"internal_node_id":"0.0-139.0-0.0","params":{"nStudents":24,"maxFlips":30,"completionMinutes":45,"basePay":8,"maxBonus":9,"perTrialBonus":0.5,"perTrialBonusThreshold":0.05,"exampleCost":0.01},"classroomParams":{"A":{"a":1,"b":4},"B":{"a":4,"b":1},"C":{"a":2,"b":8},"D":{"a":8,"b":2}},"conditions":["nonSeqFull","nonSeqPartial","seqNoFeedback","seqFeedback"],"classroomPairings":[["A","B"],["C","D"]],"coinWeights":[0.2,0.5,0.8],"subjectId":"A3TBG0S2IEBVHU","assignmentId":"3COPXFW7XCYGFYSZJTTQND5RA8MKPQ","hitId":"3UDTAB6HH6LRO17U79I9TKUGSHV90J","url":"https://gershmanlab.com/experiments/alicia/teaching/experiment/?hitId=3UDTAB6HH6LRO17U79I9TKUGSHV90J&workerId=A3TBG0S2IEBVHU&assignmentId=3COPXFW7XCYGFYSZJTTQND5RA8MKPQ&a=7XOC9&tp_a=7XOC9&b=3COPXFW7XCYGFYSZJTTQND5RA8MKPQ&tp_b=3COPXFW7XCYGFYSZJTTQND5RA8MKPQ&c=365799&tp_c=365799","heads":6,"tails":4,"studentIndex":17,"studentTrueHypers":{"a":1,"b":4},"studentGuess":0.4666666666666667,"delta":0.033333333333333326,"totalExamples":10,"bonusSoFar":2.55},{"rt":3688,"response":{"heads":"6","tails":"4"},"type":"response","condition":"seqFeedback","trueTheta":0.5,"classrooms":["A","B"],"studentTrueClassroom":"A","exampleSet":"second","trial_type":"survey-html-form","trial_index":147,"time_elapsed":980842,"internal_node_id":"0.0-143.0-0.0","params":{"nStudents":24,"maxFlips":30,"completionMinutes":45,"basePay":8,"maxBonus":9,"perTrialBonus":0.5,"perTrialBonusThreshold":0.05,"exampleCost":0.01},"classroomParams":{"A":{"a":1,"b":4},"B":{"a":4,"b":1},"C":{"a":2,"b":8},"D":{"a":8,"b":2}},"conditions":["nonSeqFull","nonSeqPartial","seqNoFeedback","seqFeedback"],"classroomPairings":[["A","B"],["C","D"]],"coinWeights":[0.2,0.5,0.8],"subjectId":"A3TBG0S2IEBVHU","assignmentId":"3COPXFW7XCYGFYSZJTTQND5RA8MKPQ","hitId":"3UDTAB6HH6LRO17U79I9TKUGSHV90J","url":"https://gershmanlab.com/experiments/alicia/teaching/experiment/?hitId=3UDTAB6HH6LRO17U79I9TKUGSHV90J&workerId=A3TBG0S2IEBVHU&assignmentId=3COPXFW7XCYGFYSZJTTQND5RA8MKPQ&a=7XOC9&tp_a=7XOC9&b=3COPXFW7XCYGFYSZJTTQND5RA8MKPQ&tp_b=3COPXFW7XCYGFYSZJTTQND5RA8MKPQ&c=365799&tp_c=365799","firstResponseHeads":6,"firstResponseTails":4,"secondResponseHeads":6,"secondResponseTails":4,"totalHeads":12,"totalTails":8,"studentIndex":17,"studentTrueHypers":{"a":1,"b":4},"studentGuess":0.52,"delta":0.020000000000000018,"bonus":0.3,"bonusSoFar":2.85,"totalExamples":20},{"rt":2568,"response":{"heads":"9","tails":"1"},"type":"response","condition":"nonSeqFull","trueTheta":0.8,"classrooms":["C","D"],"studentTrueClassroom":"C","exampleSet":"first","trial_type":"survey-html-form","trial_index":153,"time_elapsed":994692,"internal_node_id":"0.0-149.0-0.0","params":{"nStudents":24,"maxFlips":30,"completionMinutes":45,"basePay":8,"maxBonus":9,"perTrialBonus":0.5,"perTrialBonusThreshold":0.05,"exampleCost":0.01},"classroomParams":{"A":{"a":1,"b":4},"B":{"a":4,"b":1},"C":{"a":2,"b":8},"D":{"a":8,"b":2}},"conditions":["nonSeqFull","nonSeqPartial","seqNoFeedback","seqFeedback"],"classroomPairings":[["A","B"],["C","D"]],"coinWeights":[0.2,0.5,0.8],"subjectId":"A3TBG0S2IEBVHU","assignmentId":"3COPXFW7XCYGFYSZJTTQND5RA8MKPQ","hitId":"3UDTAB6HH6LRO17U79I9TKUGSHV90J","url":"https://gershmanlab.com/experiments/alicia/teaching/experiment/?hitId=3UDTAB6HH6LRO17U79I9TKUGSHV90J&workerId=A3TBG0S2IEBVHU&assignmentId=3COPXFW7XCYGFYSZJTTQND5RA8MKPQ&a=7XOC9&tp_a=7XOC9&b=3COPXFW7XCYGFYSZJTTQND5RA8MKPQ&tp_b=3COPXFW7XCYGFYSZJTTQND5RA8MKPQ&c=365799&tp_c=365799","heads":9,"tails":1,"studentIndex":18,"studentTrueHypers":{"a":2,"b":8},"studentGuess":0.55,"delta":0.25,"totalExamples":10,"bonus":0,"bonusSoFar":2.85},{"rt":2104,"response":{"heads":"2","tails":"8"},"type":"response","condition":"seqNoFeedback","trueTheta":0.2,"classrooms":["C","D"],"studentTrueClassroom":"D","exampleSet":"first","trial_type":"survey-html-form","trial_index":159,"time_elapsed":1006293,"internal_node_id":"0.0-155.0-0.0","params":{"nStudents":24,"maxFlips":30,"completionMinutes":45,"basePay":8,"maxBonus":9,"perTrialBonus":0.5,"perTrialBonusThreshold":0.05,"exampleCost":0.01},"classroomParams":{"A":{"a":1,"b":4},"B":{"a":4,"b":1},"C":{"a":2,"b":8},"D":{"a":8,"b":2}},"conditions":["nonSeqFull","nonSeqPartial","seqNoFeedback","seqFeedback"],"classroomPairings":[["A","B"],["C","D"]],"coinWeights":[0.2,0.5,0.8],"subjectId":"A3TBG0S2IEBVHU","assignmentId":"3COPXFW7XCYGFYSZJTTQND5RA8MKPQ","hitId":"3UDTAB6HH6LRO17U79I9TKUGSHV90J","url":"https://gershmanlab.com/experiments/alicia/teaching/experiment/?hitId=3UDTAB6HH6LRO17U79I9TKUGSHV90J&workerId=A3TBG0S2IEBVHU&assignmentId=3COPXFW7XCYGFYSZJTTQND5RA8MKPQ&a=7XOC9&tp_a=7XOC9&b=3COPXFW7XCYGFYSZJTTQND5RA8MKPQ&tp_b=3COPXFW7XCYGFYSZJTTQND5RA8MKPQ&c=365799&tp_c=365799","heads":2,"tails":8,"studentIndex":19,"studentTrueHypers":{"a":8,"b":2},"studentGuess":0.5,"delta":0.3,"totalExamples":10,"bonusSoFar":2.85},{"rt":5127,"response":{"heads":"1","tails":"9"},"type":"response","condition":"seqNoFeedback","trueTheta":0.2,"classrooms":["C","D"],"studentTrueClassroom":"D","exampleSet":"second","trial_type":"survey-html-form","trial_index":162,"time_elapsed":1018447,"internal_node_id":"0.0-158.0-0.0","params":{"nStudents":24,"maxFlips":30,"completionMinutes":45,"basePay":8,"maxBonus":9,"perTrialBonus":0.5,"perTrialBonusThreshold":0.05,"exampleCost":0.01},"classroomParams":{"A":{"a":1,"b":4},"B":{"a":4,"b":1},"C":{"a":2,"b":8},"D":{"a":8,"b":2}},"conditions":["nonSeqFull","nonSeqPartial","seqNoFeedback","seqFeedback"],"classroomPairings":[["A","B"],["C","D"]],"coinWeights":[0.2,0.5,0.8],"subjectId":"A3TBG0S2IEBVHU","assignmentId":"3COPXFW7XCYGFYSZJTTQND5RA8MKPQ","hitId":"3UDTAB6HH6LRO17U79I9TKUGSHV90J","url":"https://gershmanlab.com/experiments/alicia/teaching/experiment/?hitId=3UDTAB6HH6LRO17U79I9TKUGSHV90J&workerId=A3TBG0S2IEBVHU&assignmentId=3COPXFW7XCYGFYSZJTTQND5RA8MKPQ&a=7XOC9&tp_a=7XOC9&b=3COPXFW7XCYGFYSZJTTQND5RA8MKPQ&tp_b=3COPXFW7XCYGFYSZJTTQND5RA8MKPQ&c=365799&tp_c=365799","firstResponseHeads":2,"firstResponseTails":8,"secondResponseHeads":1,"secondResponseTails":9,"totalHeads":3,"totalTails":17,"studentIndex":19,"studentTrueHypers":{"a":8,"b":2},"studentGuess":0.36666666666666664,"delta":0.16666666666666663,"bonus":0,"bonusSoFar":2.85,"totalExamples":20},{"rt":7224,"response":{"heads":"4","tails":"6"},"type":"response","condition":"nonSeqPartial","trueTheta":0.5,"classrooms":["C","D"],"studentTrueClassroom":"C","exampleSet":"first","trial_type":"survey-html-form","trial_index":168,"time_elapsed":1037553,"internal_node_id":"0.0-164.0-0.0","params":{"nStudents":24,"maxFlips":30,"completionMinutes":45,"basePay":8,"maxBonus":9,"perTrialBonus":0.5,"perTrialBonusThreshold":0.05,"exampleCost":0.01},"classroomParams":{"A":{"a":1,"b":4},"B":{"a":4,"b":1},"C":{"a":2,"b":8},"D":{"a":8,"b":2}},"conditions":["nonSeqFull","nonSeqPartial","seqNoFeedback","seqFeedback"],"classroomPairings":[["A","B"],["C","D"]],"coinWeights":[0.2,0.5,0.8],"subjectId":"A3TBG0S2IEBVHU","assignmentId":"3COPXFW7XCYGFYSZJTTQND5RA8MKPQ","hitId":"3UDTAB6HH6LRO17U79I9TKUGSHV90J","url":"https://gershmanlab.com/experiments/alicia/teaching/experiment/?hitId=3UDTAB6HH6LRO17U79I9TKUGSHV90J&workerId=A3TBG0S2IEBVHU&assignmentId=3COPXFW7XCYGFYSZJTTQND5RA8MKPQ&a=7XOC9&tp_a=7XOC9&b=3COPXFW7XCYGFYSZJTTQND5RA8MKPQ&tp_b=3COPXFW7XCYGFYSZJTTQND5RA8MKPQ&c=365799&tp_c=365799","heads":4,"tails":6,"studentIndex":20,"studentTrueHypers":{"a":2,"b":8},"studentGuess":0.3,"delta":0.2,"totalExamples":10,"bonus":0,"bonusSoFar":2.85},{"rt":2040,"response":{"heads":"2","tails":"8"},"type":"response","condition":"nonSeqFull","trueTheta":0.2,"classrooms":["C","D"],"studentTrueClassroom":"D","exampleSet":"first","trial_type":"survey-html-form","trial_index":174,"time_elapsed":1050027,"internal_node_id":"0.0-170.0-0.0","params":{"nStudents":24,"maxFlips":30,"completionMinutes":45,"basePay":8,"maxBonus":9,"perTrialBonus":0.5,"perTrialBonusThreshold":0.05,"exampleCost":0.01},"classroomParams":{"A":{"a":1,"b":4},"B":{"a":4,"b":1},"C":{"a":2,"b":8},"D":{"a":8,"b":2}},"conditions":["nonSeqFull","nonSeqPartial","seqNoFeedback","seqFeedback"],"classroomPairings":[["A","B"],["C","D"]],"coinWeights":[0.2,0.5,0.8],"subjectId":"A3TBG0S2IEBVHU","assignmentId":"3COPXFW7XCYGFYSZJTTQND5RA8MKPQ","hitId":"3UDTAB6HH6LRO17U79I9TKUGSHV90J","url":"https://gershmanlab.com/experiments/alicia/teaching/experiment/?hitId=3UDTAB6HH6LRO17U79I9TKUGSHV90J&workerId=A3TBG0S2IEBVHU&assignmentId=3COPXFW7XCYGFYSZJTTQND5RA8MKPQ&a=7XOC9&tp_a=7XOC9&b=3COPXFW7XCYGFYSZJTTQND5RA8MKPQ&tp_b=3COPXFW7XCYGFYSZJTTQND5RA8MKPQ&c=365799&tp_c=365799","heads":2,"tails":8,"studentIndex":21,"studentTrueHypers":{"a":8,"b":2},"studentGuess":0.5,"delta":0.3,"totalExamples":10,"bonus":0,"bonusSoFar":2.85},{"rt":4200,"response":{"heads":"3","tails":"7"},"type":"response","condition":"seqFeedback","trueTheta":0.2,"classrooms":["A","B"],"studentTrueClassroom":"B","exampleSet":"first","trial_type":"survey-html-form","trial_index":180,"time_elapsed":1066460,"internal_node_id":"0.0-176.0-0.0","params":{"nStudents":24,"maxFlips":30,"completionMinutes":45,"basePay":8,"maxBonus":9,"perTrialBonus":0.5,"perTrialBonusThreshold":0.05,"exampleCost":0.01},"classroomParams":{"A":{"a":1,"b":4},"B":{"a":4,"b":1},"C":{"a":2,"b":8},"D":{"a":8,"b":2}},"conditions":["nonSeqFull","nonSeqPartial","seqNoFeedback","seqFeedback"],"classroomPairings":[["A","B"],["C","D"]],"coinWeights":[0.2,0.5,0.8],"subjectId":"A3TBG0S2IEBVHU","assignmentId":"3COPXFW7XCYGFYSZJTTQND5RA8MKPQ","hitId":"3UDTAB6HH6LRO17U79I9TKUGSHV90J","url":"https://gershmanlab.com/experiments/alicia/teaching/experiment/?hitId=3UDTAB6HH6LRO17U79I9TKUGSHV90J&workerId=A3TBG0S2IEBVHU&assignmentId=3COPXFW7XCYGFYSZJTTQND5RA8MKPQ&a=7XOC9&tp_a=7XOC9&b=3COPXFW7XCYGFYSZJTTQND5RA8MKPQ&tp_b=3COPXFW7XCYGFYSZJTTQND5RA8MKPQ&c=365799&tp_c=365799","heads":3,"tails":7,"studentIndex":22,"studentTrueHypers":{"a":4,"b":1},"studentGuess":0.4666666666666667,"delta":0.26666666666666666,"totalExamples":10,"bonusSoFar":2.85},{"rt":10921,"response":{"heads":"1","tails":"9"},"type":"response","condition":"seqFeedback","trueTheta":0.2,"classrooms":["A","B"],"studentTrueClassroom":"B","exampleSet":"second","trial_type":"survey-html-form","trial_index":184,"time_elapsed":1086374,"internal_node_id":"0.0-180.0-0.0","params":{"nStudents":24,"maxFlips":30,"completionMinutes":45,"basePay":8,"maxBonus":9,"perTrialBonus":0.5,"perTrialBonusThreshold":0.05,"exampleCost":0.01},"classroomParams":{"A":{"a":1,"b":4},"B":{"a":4,"b":1},"C":{"a":2,"b":8},"D":{"a":8,"b":2}},"conditions":["nonSeqFull","nonSeqPartial","seqNoFeedback","seqFeedback"],"classroomPairings":[["A","B"],["C","D"]],"coinWeights":[0.2,0.5,0.8],"subjectId":"A3TBG0S2IEBVHU","assignmentId":"3COPXFW7XCYGFYSZJTTQND5RA8MKPQ","hitId":"3UDTAB6HH6LRO17U79I9TKUGSHV90J","url":"https://gershmanlab.com/experiments/alicia/teaching/experiment/?hitId=3UDTAB6HH6LRO17U79I9TKUGSHV90J&workerId=A3TBG0S2IEBVHU&assignmentId=3COPXFW7XCYGFYSZJTTQND5RA8MKPQ&a=7XOC9&tp_a=7XOC9&b=3COPXFW7XCYGFYSZJTTQND5RA8MKPQ&tp_b=3COPXFW7XCYGFYSZJTTQND5RA8MKPQ&c=365799&tp_c=365799","firstResponseHeads":3,"firstResponseTails":7,"secondResponseHeads":1,"secondResponseTails":9,"totalHeads":4,"totalTails":16,"studentIndex":22,"studentTrueHypers":{"a":4,"b":1},"studentGuess":0.32,"delta":0.12,"bonus":0,"bonusSoFar":2.85,"totalExamples":20},{"rt":18298,"response":{"heads":"3","tails":"7"},"type":"response","condition":"nonSeqFull","trueTheta":0.5,"classrooms":["C","D"],"studentTrueClassroom":"D","exampleSet":"first","trial_type":"survey-html-form","trial_index":190,"time_elapsed":1115481,"internal_node_id":"0.0-186.0-0.0","params":{"nStudents":24,"maxFlips":30,"completionMinutes":45,"basePay":8,"maxBonus":9,"perTrialBonus":0.5,"perTrialBonusThreshold":0.05,"exampleCost":0.01},"classroomParams":{"A":{"a":1,"b":4},"B":{"a":4,"b":1},"C":{"a":2,"b":8},"D":{"a":8,"b":2}},"conditions":["nonSeqFull","nonSeqPartial","seqNoFeedback","seqFeedback"],"classroomPairings":[["A","B"],["C","D"]],"coinWeights":[0.2,0.5,0.8],"subjectId":"A3TBG0S2IEBVHU","assignmentId":"3COPXFW7XCYGFYSZJTTQND5RA8MKPQ","hitId":"3UDTAB6HH6LRO17U79I9TKUGSHV90J","url":"https://gershmanlab.com/experiments/alicia/teaching/experiment/?hitId=3UDTAB6HH6LRO17U79I9TKUGSHV90J&workerId=A3TBG0S2IEBVHU&assignmentId=3COPXFW7XCYGFYSZJTTQND5RA8MKPQ&a=7XOC9&tp_a=7XOC9&b=3COPXFW7XCYGFYSZJTTQND5RA8MKPQ&tp_b=3COPXFW7XCYGFYSZJTTQND5RA8MKPQ&c=365799&tp_c=365799","heads":3,"tails":7,"studentIndex":23,"studentTrueHypers":{"a":8,"b":2},"studentGuess":0.55,"delta":0.050000000000000044,"totalExamples":10,"bonus":0,"bonusSoFar":2.85},{"rt":4713,"response":{"gender":"male","age":"40","understood":"yes","comments":""},"type":"response","trial_type":"survey-html-form","trial_index":194,"time_elapsed":1127971,"internal_node_id":"0.0-191.0","params":{"nStudents":24,"maxFlips":30,"completionMinutes":45,"basePay":8,"maxBonus":9,"perTrialBonus":0.5,"perTrialBonusThreshold":0.05,"exampleCost":0.01},"classroomParams":{"A":{"a":1,"b":4},"B":{"a":4,"b":1},"C":{"a":2,"b":8},"D":{"a":8,"b":2}},"conditions":["nonSeqFull","nonSeqPartial","seqNoFeedback","seqFeedback"],"classroomPairings":[["A","B"],["C","D"]],"coinWeights":[0.2,0.5,0.8],"subjectId":"A3TBG0S2IEBVHU","assignmentId":"3COPXFW7XCYGFYSZJTTQND5RA8MKPQ","hitId":"3UDTAB6HH6LRO17U79I9TKUGSHV90J","url":"https://gershmanlab.com/experiments/alicia/teaching/experiment/?hitId=3UDTAB6HH6LRO17U79I9TKUGSHV90J&workerId=A3TBG0S2IEBVHU&assignmentId=3COPXFW7XCYGFYSZJTTQND5RA8MKPQ&a=7XOC9&tp_a=7XOC9&b=3COPXFW7XCYGFYSZJTTQND5RA8MKPQ&tp_b=3COPXFW7XCYGFYSZJTTQND5RA8MKPQ&c=365799&tp_c=365799","totalBonus":2.85}]