[{"rt":41552,"response":{"heads":"1","tails":"4"},"type":"response","condition":"seqNoFeedback","trueTheta":0.2,"classrooms":["A","B"],"studentTrueClassroom":"A","exampleSet":"first","trial_type":"survey-html-form","trial_index":10,"time_elapsed":336755,"internal_node_id":"0.0-6.0-0.0","params":{"nStudents":24,"maxFlips":30,"completionMinutes":45,"basePay":8,"maxBonus":9,"perTrialBonus":0.5,"perTrialBonusThreshold":0.05,"exampleCost":0.01},"classroomParams":{"A":{"a":1,"b":4},"B":{"a":4,"b":1},"C":{"a":2,"b":8},"D":{"a":8,"b":2}},"conditions":["nonSeqFull","nonSeqPartial","seqNoFeedback","seqFeedback"],"classroomPairings":[["A","B"],["C","D"]],"coinWeights":[0.2,0.5,0.8],"subjectId":"A3UQ5DF8VVD975","assignmentId":"3Y9N9SS8LZX1U3H2TEAW6X70L3XD3U","hitId":"3AQN9REUTF20OMGWRXYK787QVFOYDP","url":"https://gershmanlab.com/experiments/alicia/teaching/experiment/?hitId=3AQN9REUTF20OMGWRXYK787QVFOYDP&workerId=A3UQ5DF8VVD975&assignmentId=3Y9N9SS8LZX1U3H2TEAW6X70L3XD3U&a=899Y9&tp_a=899Y9&b=3Y9N9SS8LZX1U3H2TEAW6X70L3XD3U&tp_b=3Y9N9SS8LZX1U3H2TEAW6X70L3XD3U&c=365799&tp_c=365799","heads":1,"tails":4,"studentIndex":0,"studentTrueHypers":{"a":1,"b":4},"studentGuess":0.2,"delta":0,"totalExamples":5,"bonusSoFar":0},{"rt":18943,"response":{"heads":"2","tails":"8"},"type":"response","condition":"seqNoFeedback","trueTheta":0.2,"classrooms":["A","B"],"studentTrueClassroom":"A","exampleSet":"second","trial_type":"survey-html-form","trial_index":13,"time_elapsed":362220,"internal_node_id":"0.0-9.0-0.0","params":{"nStudents":24,"maxFlips":30,"completionMinutes":45,"basePay":8,"maxBonus":9,"perTrialBonus":0.5,"perTrialBonusThreshold":0.05,"exampleCost":0.01},"classroomParams":{"A":{"a":1,"b":4},"B":{"a":4,"b":1},"C":{"a":2,"b":8},"D":{"a":8,"b":2}},"conditions":["nonSeqFull","nonSeqPartial","seqNoFeedback","seqFeedback"],"classroomPairings":[["A","B"],["C","D"]],"coinWeights":[0.2,0.5,0.8],"subjectId":"A3UQ5DF8VVD975","assignmentId":"3Y9N9SS8LZX1U3H2TEAW6X70L3XD3U","hitId":"3AQN9REUTF20OMGWRXYK787QVFOYDP","url":"https://gershmanlab.com/experiments/alicia/teaching/experiment/?hitId=3AQN9REUTF20OMGWRXYK787QVFOYDP&workerId=A3UQ5DF8VVD975&assignmentId=3Y9N9SS8LZX1U3H2TEAW6X70L3XD3U&a=899Y9&tp_a=899Y9&b=3Y9N9SS8LZX1U3H2TEAW6X70L3XD3U&tp_b=3Y9N9SS8LZX1U3H2TEAW6X70L3XD3U&c=365799&tp_c=365799","firstResponseHeads":1,"firstResponseTails":4,"secondResponseHeads":2,"secondResponseTails":8,"totalHeads":3,"totalTails":12,"studentIndex":0,"studentTrueHypers":{"a":1,"b":4},"studentGuess":0.2,"delta":0,"bonus":0.35,"bonusSoFar":0.35,"totalExamples":15},{"rt":22244,"response":{"heads":"5","tails":"5"},"type":"response","condition":"seqNoFeedback","trueTheta":0.5,"classrooms":["C","D"],"studentTrueClassroom":"C","exampleSet":"first","trial_type":"survey-html-form","trial_index":19,"time_elapsed":412749,"internal_node_id":"0.0-15.0-0.0","params":{"nStudents":24,"maxFlips":30,"completionMinutes":45,"basePay":8,"maxBonus":9,"perTrialBonus":0.5,"perTrialBonusThreshold":0.05,"exampleCost":0.01},"classroomParams":{"A":{"a":1,"b":4},"B":{"a":4,"b":1},"C":{"a":2,"b":8},"D":{"a":8,"b":2}},"conditions":["nonSeqFull","nonSeqPartial","seqNoFeedback","seqFeedback"],"classroomPairings":[["A","B"],["C","D"]],"coinWeights":[0.2,0.5,0.8],"subjectId":"A3UQ5DF8VVD975","assignmentId":"3Y9N9SS8LZX1U3H2TEAW6X70L3XD3U","hitId":"3AQN9REUTF20OMGWRXYK787QVFOYDP","url":"https://gershmanlab.com/experiments/alicia/teaching/experiment/?hitId=3AQN9REUTF20OMGWRXYK787QVFOYDP&workerId=A3UQ5DF8VVD975&assignmentId=3Y9N9SS8LZX1U3H2TEAW6X70L3XD3U&a=899Y9&tp_a=899Y9&b=3Y9N9SS8LZX1U3H2TEAW6X70L3XD3U&tp_b=3Y9N9SS8LZX1U3H2TEAW6X70L3XD3U&c=365799&tp_c=365799","heads":5,"tails":5,"studentIndex":1,"studentTrueHypers":{"a":2,"b":8},"studentGuess":0.35,"delta":0.15000000000000002,"totalExamples":10,"bonusSoFar":0.35},{"rt":8996,"response":{"heads":"2","tails":"2"},"type":"response","condition":"seqNoFeedback","trueTheta":0.5,"classrooms":["C","D"],"studentTrueClassroom":"C","exampleSet":"second","trial_type":"survey-html-form","trial_index":22,"time_elapsed":429019,"internal_node_id":"0.0-18.0-0.0","params":{"nStudents":24,"maxFlips":30,"completionMinutes":45,"basePay":8,"maxBonus":9,"perTrialBonus":0.5,"perTrialBonusThreshold":0.05,"exampleCost":0.01},"classroomParams":{"A":{"a":1,"b":4},"B":{"a":4,"b":1},"C":{"a":2,"b":8},"D":{"a":8,"b":2}},"conditions":["nonSeqFull","nonSeqPartial","seqNoFeedback","seqFeedback"],"classroomPairings":[["A","B"],["C","D"]],"coinWeights":[0.2,0.5,0.8],"subjectId":"A3UQ5DF8VVD975","assignmentId":"3Y9N9SS8LZX1U3H2TEAW6X70L3XD3U","hitId":"3AQN9REUTF20OMGWRXYK787QVFOYDP","url":"https://gershmanlab.com/experiments/alicia/teaching/experiment/?hitId=3AQN9REUTF20OMGWRXYK787QVFOYDP&workerId=A3UQ5DF8VVD975&assignmentId=3Y9N9SS8LZX1U3H2TEAW6X70L3XD3U&a=899Y9&tp_a=899Y9&b=3Y9N9SS8LZX1U3H2TEAW6X70L3XD3U&tp_b=3Y9N9SS8LZX1U3H2TEAW6X70L3XD3U&c=365799&tp_c=365799","firstResponseHeads":5,"firstResponseTails":5,"secondResponseHeads":2,"secondResponseTails":2,"totalHeads":7,"totalTails":7,"studentIndex":1,"studentTrueHypers":{"a":2,"b":8},"studentGuess":0.375,"delta":0.125,"bonus":0,"bonusSoFar":0.35,"totalExamples":14},{"rt":18624,"response":{"heads":"5","tails":"5"},"type":"response","condition":"seqFeedback","trueTheta":0.5,"classrooms":["C","D"],"studentTrueClassroom":"C","exampleSet":"first","trial_type":"survey-html-form","trial_index":28,"time_elapsed":478107,"internal_node_id":"0.0-24.0-0.0","params":{"nStudents":24,"maxFlips":30,"completionMinutes":45,"basePay":8,"maxBonus":9,"perTrialBonus":0.5,"perTrialBonusThreshold":0.05,"exampleCost":0.01},"classroomParams":{"A":{"a":1,"b":4},"B":{"a":4,"b":1},"C":{"a":2,"b":8},"D":{"a":8,"b":2}},"conditions":["nonSeqFull","nonSeqPartial","seqNoFeedback","seqFeedback"],"classroomPairings":[["A","B"],["C","D"]],"coinWeights":[0.2,0.5,0.8],"subjectId":"A3UQ5DF8VVD975","assignmentId":"3Y9N9SS8LZX1U3H2TEAW6X70L3XD3U","hitId":"3AQN9REUTF20OMGWRXYK787QVFOYDP","url":"https://gershmanlab.com/experiments/alicia/teaching/experiment/?hitId=3AQN9REUTF20OMGWRXYK787QVFOYDP&workerId=A3UQ5DF8VVD975&assignmentId=3Y9N9SS8LZX1U3H2TEAW6X70L3XD3U&a=899Y9&tp_a=899Y9&b=3Y9N9SS8LZX1U3H2TEAW6X70L3XD3U&tp_b=3Y9N9SS8LZX1U3H2TEAW6X70L3XD3U&c=365799&tp_c=365799","heads":5,"tails":5,"studentIndex":2,"studentTrueHypers":{"a":2,"b":8},"studentGuess":0.35,"delta":0.15000000000000002,"totalExamples":10,"bonusSoFar":0.35},{"rt":13068,"response":{"heads":"6","tails":"4"},"type":"response","condition":"seqFeedback","trueTheta":0.5,"classrooms":["C","D"],"studentTrueClassroom":"C","exampleSet":"second","trial_type":"survey-html-form","trial_index":32,"time_elapsed":510396,"internal_node_id":"0.0-28.0-0.0","params":{"nStudents":24,"maxFlips":30,"completionMinutes":45,"basePay":8,"maxBonus":9,"perTrialBonus":0.5,"perTrialBonusThreshold":0.05,"exampleCost":0.01},"classroomParams":{"A":{"a":1,"b":4},"B":{"a":4,"b":1},"C":{"a":2,"b":8},"D":{"a":8,"b":2}},"conditions":["nonSeqFull","nonSeqPartial","seqNoFeedback","seqFeedback"],"classroomPairings":[["A","B"],["C","D"]],"coinWeights":[0.2,0.5,0.8],"subjectId":"A3UQ5DF8VVD975","assignmentId":"3Y9N9SS8LZX1U3H2TEAW6X70L3XD3U","hitId":"3AQN9REUTF20OMGWRXYK787QVFOYDP","url":"https://gershmanlab.com/experiments/alicia/teaching/experiment/?hitId=3AQN9REUTF20OMGWRXYK787QVFOYDP&workerId=A3UQ5DF8VVD975&assignmentId=3Y9N9SS8LZX1U3H2TEAW6X70L3XD3U&a=899Y9&tp_a=899Y9&b=3Y9N9SS8LZX1U3H2TEAW6X70L3XD3U&tp_b=3Y9N9SS8LZX1U3H2TEAW6X70L3XD3U&c=365799&tp_c=365799","firstResponseHeads":5,"firstResponseTails":5,"secondResponseHeads":6,"secondResponseTails":4,"totalHeads":11,"totalTails":9,"studentIndex":2,"studentTrueHypers":{"a":2,"b":8},"studentGuess":0.43333333333333335,"delta":0.06666666666666665,"bonus":0,"bonusSoFar":0.35,"totalExamples":20},{"rt":17851,"response":{"heads":"5","tails":"5"},"type":"response","condition":"nonSeqPartial","trueTheta":0.5,"classrooms":["A","B"],"studentTrueClassroom":"A","exampleSet":"first","trial_type":"survey-html-form","trial_index":38,"time_elapsed":548713,"internal_node_id":"0.0-34.0-0.0","params":{"nStudents":24,"maxFlips":30,"completionMinutes":45,"basePay":8,"maxBonus":9,"perTrialBonus":0.5,"perTrialBonusThreshold":0.05,"exampleCost":0.01},"classroomParams":{"A":{"a":1,"b":4},"B":{"a":4,"b":1},"C":{"a":2,"b":8},"D":{"a":8,"b":2}},"conditions":["nonSeqFull","nonSeqPartial","seqNoFeedback","seqFeedback"],"classroomPairings":[["A","B"],["C","D"]],"coinWeights":[0.2,0.5,0.8],"subjectId":"A3UQ5DF8VVD975","assignmentId":"3Y9N9SS8LZX1U3H2TEAW6X70L3XD3U","hitId":"3AQN9REUTF20OMGWRXYK787QVFOYDP","url":"https://gershmanlab.com/experiments/alicia/teaching/experiment/?hitId=3AQN9REUTF20OMGWRXYK787QVFOYDP&workerId=A3UQ5DF8VVD975&assignmentId=3Y9N9SS8LZX1U3H2TEAW6X70L3XD3U&a=899Y9&tp_a=899Y9&b=3Y9N9SS8LZX1U3H2TEAW6X70L3XD3U&tp_b=3Y9N9SS8LZX1U3H2TEAW6X70L3XD3U&c=365799&tp_c=365799","heads":5,"tails":5,"studentIndex":3,"studentTrueHypers":{"a":1,"b":4},"studentGuess":0.4,"delta":0.09999999999999998,"totalExamples":10,"bonus":0,"bonusSoFar":0.35},{"rt":12427,"response":{"heads":"1","tails":"4"},"type":"response","condition":"nonSeqFull","trueTheta":0.2,"classrooms":["C","D"],"studentTrueClassroom":"C","exampleSet":"first","trial_type":"survey-html-form","trial_index":44,"time_elapsed":577291,"internal_node_id":"0.0-40.0-0.0","params":{"nStudents":24,"maxFlips":30,"completionMinutes":45,"basePay":8,"maxBonus":9,"perTrialBonus":0.5,"perTrialBonusThreshold":0.05,"exampleCost":0.01},"classroomParams":{"A":{"a":1,"b":4},"B":{"a":4,"b":1},"C":{"a":2,"b":8},"D":{"a":8,"b":2}},"conditions":["nonSeqFull","nonSeqPartial","seqNoFeedback","seqFeedback"],"classroomPairings":[["A","B"],["C","D"]],"coinWeights":[0.2,0.5,0.8],"subjectId":"A3UQ5DF8VVD975","assignmentId":"3Y9N9SS8LZX1U3H2TEAW6X70L3XD3U","hitId":"3AQN9REUTF20OMGWRXYK787QVFOYDP","url":"https://gershmanlab.com/experiments/alicia/teaching/experiment/?hitId=3AQN9REUTF20OMGWRXYK787QVFOYDP&workerId=A3UQ5DF8VVD975&assignmentId=3Y9N9SS8LZX1U3H2TEAW6X70L3XD3U&a=899Y9&tp_a=899Y9&b=3Y9N9SS8LZX1U3H2TEAW6X70L3XD3U&tp_b=3Y9N9SS8LZX1U3H2TEAW6X70L3XD3U&c=365799&tp_c=365799","heads":1,"tails":4,"studentIndex":4,"studentTrueHypers":{"a":2,"b":8},"studentGuess":0.2,"delta":0,"totalExamples":5,"bonus":0.45,"bonusSoFar":0.8},{"rt":13766,"response":{"heads":"4","tails":"1"},"type":"response","condition":"seqFeedback","trueTheta":0.8,"classrooms":["A","B"],"studentTrueClassroom":"A","exampleSet":"first","trial_type":"survey-html-form","trial_index":50,"time_elapsed":623039,"internal_node_id":"0.0-46.0-0.0","params":{"nStudents":24,"maxFlips":30,"completionMinutes":45,"basePay":8,"maxBonus":9,"perTrialBonus":0.5,"perTrialBonusThreshold":0.05,"exampleCost":0.01},"classroomParams":{"A":{"a":1,"b":4},"B":{"a":4,"b":1},"C":{"a":2,"b":8},"D":{"a":8,"b":2}},"conditions":["nonSeqFull","nonSeqPartial","seqNoFeedback","seqFeedback"],"classroomPairings":[["A","B"],["C","D"]],"coinWeights":[0.2,0.5,0.8],"subjectId":"A3UQ5DF8VVD975","assignmentId":"3Y9N9SS8LZX1U3H2TEAW6X70L3XD3U","hitId":"3AQN9REUTF20OMGWRXYK787QVFOYDP","url":"https://gershmanlab.com/experiments/alicia/teaching/experiment/?hitId=3AQN9REUTF20OMGWRXYK787QVFOYDP&workerId=A3UQ5DF8VVD975&assignmentId=3Y9N9SS8LZX1U3H2TEAW6X70L3XD3U&a=899Y9&tp_a=899Y9&b=3Y9N9SS8LZX1U3H2TEAW6X70L3XD3U&tp_b=3Y9N9SS8LZX1U3H2TEAW6X70L3XD3U&c=365799&tp_c=365799","heads":4,"tails":1,"studentIndex":5,"studentTrueHypers":{"a":1,"b":4},"studentGuess":0.5,"delta":0.30000000000000004,"totalExamples":5,"bonusSoFar":0.8},{"rt":10611,"response":{"heads":"9","tails":"1"},"type":"response","condition":"seqFeedback","trueTheta":0.8,"classrooms":["A","B"],"studentTrueClassroom":"A","exampleSet":"second","trial_type":"survey-html-form","trial_index":54,"time_elapsed":648716,"internal_node_id":"0.0-50.0-0.0","params":{"nStudents":24,"maxFlips":30,"completionMinutes":45,"basePay":8,"maxBonus":9,"perTrialBonus":0.5,"perTrialBonusThreshold":0.05,"exampleCost":0.01},"classroomParams":{"A":{"a":1,"b":4},"B":{"a":4,"b":1},"C":{"a":2,"b":8},"D":{"a":8,"b":2}},"conditions":["nonSeqFull","nonSeqPartial","seqNoFeedback","seqFeedback"],"classroomPairings":[["A","B"],["C","D"]],"coinWeights":[0.2,0.5,0.8],"subjectId":"A3UQ5DF8VVD975","assignmentId":"3Y9N9SS8LZX1U3H2TEAW6X70L3XD3U","hitId":"3AQN9REUTF20OMGWRXYK787QVFOYDP","url":"https://gershmanlab.com/experiments/alicia/teaching/experiment/?hitId=3AQN9REUTF20OMGWRXYK787QVFOYDP&workerId=A3UQ5DF8VVD975&assignmentId=3Y9N9SS8LZX1U3H2TEAW6X70L3XD3U&a=899Y9&tp_a=899Y9&b=3Y9N9SS8LZX1U3H2TEAW6X70L3XD3U&tp_b=3Y9N9SS8LZX1U3H2TEAW6X70L3XD3U&c=365799&tp_c=365799","firstResponseHeads":4,"firstResponseTails":1,"secondResponseHeads":9,"secondResponseTails":1,"totalHeads":13,"totalTails":2,"studentIndex":5,"studentTrueHypers":{"a":1,"b":4},"studentGuess":0.7,"delta":0.10000000000000009,"bonus":0,"bonusSoFar":0.8,"totalExamples":15},{"rt":13415,"response":{"heads":"19","tails":"1"},"type":"response","condition":"nonSeqFull","trueTheta":0.8,"classrooms":["A","B"],"studentTrueClassroom":"A","exampleSet":"first","trial_type":"survey-html-form","trial_index":60,"time_elapsed":683697,"internal_node_id":"0.0-56.0-0.0","params":{"nStudents":24,"maxFlips":30,"completionMinutes":45,"basePay":8,"maxBonus":9,"perTrialBonus":0.5,"perTrialBonusThreshold":0.05,"exampleCost":0.01},"classroomParams":{"A":{"a":1,"b":4},"B":{"a":4,"b":1},"C":{"a":2,"b":8},"D":{"a":8,"b":2}},"conditions":["nonSeqFull","nonSeqPartial","seqNoFeedback","seqFeedback"],"classroomPairings":[["A","B"],["C","D"]],"coinWeights":[0.2,0.5,0.8],"subjectId":"A3UQ5DF8VVD975","assignmentId":"3Y9N9SS8LZX1U3H2TEAW6X70L3XD3U","hitId":"3AQN9REUTF20OMGWRXYK787QVFOYDP","url":"https://gershmanlab.com/experiments/alicia/teaching/experiment/?hitId=3AQN9REUTF20OMGWRXYK787QVFOYDP&workerId=A3UQ5DF8VVD975&assignmentId=3Y9N9SS8LZX1U3H2TEAW6X70L3XD3U&a=899Y9&tp_a=899Y9&b=3Y9N9SS8LZX1U3H2TEAW6X70L3XD3U&tp_b=3Y9N9SS8LZX1U3H2TEAW6X70L3XD3U&c=365799&tp_c=365799","heads":19,"tails":1,"studentIndex":6,"studentTrueHypers":{"a":1,"b":4},"studentGuess":0.8,"delta":0,"totalExamples":20,"bonus":0.3,"bonusSoFar":1.1},{"rt":10502,"response":{"heads":"1","tails":"4"},"type":"response","condition":"nonSeqFull","trueTheta":0.2,"classrooms":["A","B"],"studentTrueClassroom":"A","exampleSet":"first","trial_type":"survey-html-form","trial_index":66,"time_elapsed":713234,"internal_node_id":"0.0-62.0-0.0","params":{"nStudents":24,"maxFlips":30,"completionMinutes":45,"basePay":8,"maxBonus":9,"perTrialBonus":0.5,"perTrialBonusThreshold":0.05,"exampleCost":0.01},"classroomParams":{"A":{"a":1,"b":4},"B":{"a":4,"b":1},"C":{"a":2,"b":8},"D":{"a":8,"b":2}},"conditions":["nonSeqFull","nonSeqPartial","seqNoFeedback","seqFeedback"],"classroomPairings":[["A","B"],["C","D"]],"coinWeights":[0.2,0.5,0.8],"subjectId":"A3UQ5DF8VVD975","assignmentId":"3Y9N9SS8LZX1U3H2TEAW6X70L3XD3U","hitId":"3AQN9REUTF20OMGWRXYK787QVFOYDP","url":"https://gershmanlab.com/experiments/alicia/teaching/experiment/?hitId=3AQN9REUTF20OMGWRXYK787QVFOYDP&workerId=A3UQ5DF8VVD975&assignmentId=3Y9N9SS8LZX1U3H2TEAW6X70L3XD3U&a=899Y9&tp_a=899Y9&b=3Y9N9SS8LZX1U3H2TEAW6X70L3XD3U&tp_b=3Y9N9SS8LZX1U3H2TEAW6X70L3XD3U&c=365799&tp_c=365799","heads":1,"tails":4,"studentIndex":7,"studentTrueHypers":{"a":1,"b":4},"studentGuess":0.2,"delta":0,"totalExamples":5,"bonus":0.45,"bonusSoFar":1.55},{"rt":18017,"response":{"heads":"5","tails":"5"},"type":"response","condition":"seqFeedback","trueTheta":0.5,"classrooms":["A","B"],"studentTrueClassroom":"B","exampleSet":"first","trial_type":"survey-html-form","trial_index":72,"time_elapsed":748593,"internal_node_id":"0.0-68.0-0.0","params":{"nStudents":24,"maxFlips":30,"completionMinutes":45,"basePay":8,"maxBonus":9,"perTrialBonus":0.5,"perTrialBonusThreshold":0.05,"exampleCost":0.01},"classroomParams":{"A":{"a":1,"b":4},"B":{"a":4,"b":1},"C":{"a":2,"b":8},"D":{"a":8,"b":2}},"conditions":["nonSeqFull","nonSeqPartial","seqNoFeedback","seqFeedback"],"classroomPairings":[["A","B"],["C","D"]],"coinWeights":[0.2,0.5,0.8],"subjectId":"A3UQ5DF8VVD975","assignmentId":"3Y9N9SS8LZX1U3H2TEAW6X70L3XD3U","hitId":"3AQN9REUTF20OMGWRXYK787QVFOYDP","url":"https://gershmanlab.com/experiments/alicia/teaching/experiment/?hitId=3AQN9REUTF20OMGWRXYK787QVFOYDP&workerId=A3UQ5DF8VVD975&assignmentId=3Y9N9SS8LZX1U3H2TEAW6X70L3XD3U&a=899Y9&tp_a=899Y9&b=3Y9N9SS8LZX1U3H2TEAW6X70L3XD3U&tp_b=3Y9N9SS8LZX1U3H2TEAW6X70L3XD3U&c=365799&tp_c=365799","heads":5,"tails":5,"studentIndex":8,"studentTrueHypers":{"a":4,"b":1},"studentGuess":0.6,"delta":0.09999999999999998,"totalExamples":10,"bonusSoFar":1.55},{"rt":17906,"response":{"heads":"4","tails":"6"},"type":"response","condition":"seqFeedback","trueTheta":0.5,"classrooms":["A","B"],"studentTrueClassroom":"B","exampleSet":"second","trial_type":"survey-html-form","trial_index":76,"time_elapsed":779450,"internal_node_id":"0.0-72.0-0.0","params":{"nStudents":24,"maxFlips":30,"completionMinutes":45,"basePay":8,"maxBonus":9,"perTrialBonus":0.5,"perTrialBonusThreshold":0.05,"exampleCost":0.01},"classroomParams":{"A":{"a":1,"b":4},"B":{"a":4,"b":1},"C":{"a":2,"b":8},"D":{"a":8,"b":2}},"conditions":["nonSeqFull","nonSeqPartial","seqNoFeedback","seqFeedback"],"classroomPairings":[["A","B"],["C","D"]],"coinWeights":[0.2,0.5,0.8],"subjectId":"A3UQ5DF8VVD975","assignmentId":"3Y9N9SS8LZX1U3H2TEAW6X70L3XD3U","hitId":"3AQN9REUTF20OMGWRXYK787QVFOYDP","url":"https://gershmanlab.com/experiments/alicia/teaching/experiment/?hitId=3AQN9REUTF20OMGWRXYK787QVFOYDP&workerId=A3UQ5DF8VVD975&assignmentId=3Y9N9SS8LZX1U3H2TEAW6X70L3XD3U&a=899Y9&tp_a=899Y9&b=3Y9N9SS8LZX1U3H2TEAW6X70L3XD3U&tp_b=3Y9N9SS8LZX1U3H2TEAW6X70L3XD3U&c=365799&tp_c=365799","firstResponseHeads":5,"firstResponseTails":5,"secondResponseHeads":4,"secondResponseTails":6,"totalHeads":9,"totalTails":11,"studentIndex":8,"studentTrueHypers":{"a":4,"b":1},"studentGuess":0.52,"delta":0.020000000000000018,"bonus":0.3,"bonusSoFar":1.85,"totalExamples":20},{"rt":20445,"response":{"heads":"1","tails":"9"},"type":"response","condition":"nonSeqPartial","trueTheta":0.2,"classrooms":["C","D"],"studentTrueClassroom":"D","exampleSet":"first","trial_type":"survey-html-form","trial_index":82,"time_elapsed":821820,"internal_node_id":"0.0-78.0-0.0","params":{"nStudents":24,"maxFlips":30,"completionMinutes":45,"basePay":8,"maxBonus":9,"perTrialBonus":0.5,"perTrialBonusThreshold":0.05,"exampleCost":0.01},"classroomParams":{"A":{"a":1,"b":4},"B":{"a":4,"b":1},"C":{"a":2,"b":8},"D":{"a":8,"b":2}},"conditions":["nonSeqFull","nonSeqPartial","seqNoFeedback","seqFeedback"],"classroomPairings":[["A","B"],["C","D"]],"coinWeights":[0.2,0.5,0.8],"subjectId":"A3UQ5DF8VVD975","assignmentId":"3Y9N9SS8LZX1U3H2TEAW6X70L3XD3U","hitId":"3AQN9REUTF20OMGWRXYK787QVFOYDP","url":"https://gershmanlab.com/experiments/alicia/teaching/experiment/?hitId=3AQN9REUTF20OMGWRXYK787QVFOYDP&workerId=A3UQ5DF8VVD975&assignmentId=3Y9N9SS8LZX1U3H2TEAW6X70L3XD3U&a=899Y9&tp_a=899Y9&b=3Y9N9SS8LZX1U3H2TEAW6X70L3XD3U&tp_b=3Y9N9SS8LZX1U3H2TEAW6X70L3XD3U&c=365799&tp_c=365799","heads":1,"tails":9,"studentIndex":9,"studentTrueHypers":{"a":8,"b":2},"studentGuess":0.45,"delta":0.25,"totalExamples":10,"bonus":0,"bonusSoFar":1.85},{"rt":12752,"response":{"heads":"8","tails":"2"},"type":"response","condition":"seqNoFeedback","trueTheta":0.8,"classrooms":["C","D"],"studentTrueClassroom":"D","exampleSet":"first","trial_type":"survey-html-form","trial_index":88,"time_elapsed":849187,"internal_node_id":"0.0-84.0-0.0","params":{"nStudents":24,"maxFlips":30,"completionMinutes":45,"basePay":8,"maxBonus":9,"perTrialBonus":0.5,"perTrialBonusThreshold":0.05,"exampleCost":0.01},"classroomParams":{"A":{"a":1,"b":4},"B":{"a":4,"b":1},"C":{"a":2,"b":8},"D":{"a":8,"b":2}},"conditions":["nonSeqFull","nonSeqPartial","seqNoFeedback","seqFeedback"],"classroomPairings":[["A","B"],["C","D"]],"coinWeights":[0.2,0.5,0.8],"subjectId":"A3UQ5DF8VVD975","assignmentId":"3Y9N9SS8LZX1U3H2TEAW6X70L3XD3U","hitId":"3AQN9REUTF20OMGWRXYK787QVFOYDP","url":"https://gershmanlab.com/experiments/alicia/teaching/experiment/?hitId=3AQN9REUTF20OMGWRXYK787QVFOYDP&workerId=A3UQ5DF8VVD975&assignmentId=3Y9N9SS8LZX1U3H2TEAW6X70L3XD3U&a=899Y9&tp_a=899Y9&b=3Y9N9SS8LZX1U3H2TEAW6X70L3XD3U&tp_b=3Y9N9SS8LZX1U3H2TEAW6X70L3XD3U&c=365799&tp_c=365799","heads":8,"tails":2,"studentIndex":10,"studentTrueHypers":{"a":8,"b":2},"studentGuess":0.8,"delta":0,"totalExamples":10,"bonusSoFar":1.85},{"rt":13433,"response":{"heads":"9","tails":"1"},"type":"response","condition":"seqNoFeedback","trueTheta":0.8,"classrooms":["C","D"],"studentTrueClassroom":"D","exampleSet":"second","trial_type":"survey-html-form","trial_index":91,"time_elapsed":869396,"internal_node_id":"0.0-87.0-0.0","params":{"nStudents":24,"maxFlips":30,"completionMinutes":45,"basePay":8,"maxBonus":9,"perTrialBonus":0.5,"perTrialBonusThreshold":0.05,"exampleCost":0.01},"classroomParams":{"A":{"a":1,"b":4},"B":{"a":4,"b":1},"C":{"a":2,"b":8},"D":{"a":8,"b":2}},"conditions":["nonSeqFull","nonSeqPartial","seqNoFeedback","seqFeedback"],"classroomPairings":[["A","B"],["C","D"]],"coinWeights":[0.2,0.5,0.8],"subjectId":"A3UQ5DF8VVD975","assignmentId":"3Y9N9SS8LZX1U3H2TEAW6X70L3XD3U","hitId":"3AQN9REUTF20OMGWRXYK787QVFOYDP","url":"https://gershmanlab.com/experiments/alicia/teaching/experiment/?hitId=3AQN9REUTF20OMGWRXYK787QVFOYDP&workerId=A3UQ5DF8VVD975&assignmentId=3Y9N9SS8LZX1U3H2TEAW6X70L3XD3U&a=899Y9&tp_a=899Y9&b=3Y9N9SS8LZX1U3H2TEAW6X70L3XD3U&tp_b=3Y9N9SS8LZX1U3H2TEAW6X70L3XD3U&c=365799&tp_c=365799","firstResponseHeads":8,"firstResponseTails":2,"secondResponseHeads":9,"secondResponseTails":1,"totalHeads":17,"totalTails":3,"studentIndex":10,"studentTrueHypers":{"a":8,"b":2},"studentGuess":0.8333333333333334,"delta":0.033333333333333326,"bonus":0.3,"bonusSoFar":2.15,"totalExamples":20},{"rt":11767,"response":{"heads":"8","tails":"2"},"type":"response","condition":"nonSeqFull","trueTheta":0.8,"classrooms":["C","D"],"studentTrueClassroom":"D","exampleSet":"first","trial_type":"survey-html-form","trial_index":97,"time_elapsed":903344,"internal_node_id":"0.0-93.0-0.0","params":{"nStudents":24,"maxFlips":30,"completionMinutes":45,"basePay":8,"maxBonus":9,"perTrialBonus":0.5,"perTrialBonusThreshold":0.05,"exampleCost":0.01},"classroomParams":{"A":{"a":1,"b":4},"B":{"a":4,"b":1},"C":{"a":2,"b":8},"D":{"a":8,"b":2}},"conditions":["nonSeqFull","nonSeqPartial","seqNoFeedback","seqFeedback"],"classroomPairings":[["A","B"],["C","D"]],"coinWeights":[0.2,0.5,0.8],"subjectId":"A3UQ5DF8VVD975","assignmentId":"3Y9N9SS8LZX1U3H2TEAW6X70L3XD3U","hitId":"3AQN9REUTF20OMGWRXYK787QVFOYDP","url":"https://gershmanlab.com/experiments/alicia/teaching/experiment/?hitId=3AQN9REUTF20OMGWRXYK787QVFOYDP&workerId=A3UQ5DF8VVD975&assignmentId=3Y9N9SS8LZX1U3H2TEAW6X70L3XD3U&a=899Y9&tp_a=899Y9&b=3Y9N9SS8LZX1U3H2TEAW6X70L3XD3U&tp_b=3Y9N9SS8LZX1U3H2TEAW6X70L3XD3U&c=365799&tp_c=365799","heads":8,"tails":2,"studentIndex":11,"studentTrueHypers":{"a":8,"b":2},"studentGuess":0.8,"delta":0,"totalExamples":10,"bonus":0.4,"bonusSoFar":2.55},{"rt":18594,"response":{"heads":"4","tails":"1"},"type":"response","condition":"seqFeedback","trueTheta":0.8,"classrooms":["C","D"],"studentTrueClassroom":"C","exampleSet":"first","trial_type":"survey-html-form","trial_index":103,"time_elapsed":944206,"internal_node_id":"0.0-99.0-0.0","params":{"nStudents":24,"maxFlips":30,"completionMinutes":45,"basePay":8,"maxBonus":9,"perTrialBonus":0.5,"perTrialBonusThreshold":0.05,"exampleCost":0.01},"classroomParams":{"A":{"a":1,"b":4},"B":{"a":4,"b":1},"C":{"a":2,"b":8},"D":{"a":8,"b":2}},"conditions":["nonSeqFull","nonSeqPartial","seqNoFeedback","seqFeedback"],"classroomPairings":[["A","B"],["C","D"]],"coinWeights":[0.2,0.5,0.8],"subjectId":"A3UQ5DF8VVD975","assignmentId":"3Y9N9SS8LZX1U3H2TEAW6X70L3XD3U","hitId":"3AQN9REUTF20OMGWRXYK787QVFOYDP","url":"https://gershmanlab.com/experiments/alicia/teaching/experiment/?hitId=3AQN9REUTF20OMGWRXYK787QVFOYDP&workerId=A3UQ5DF8VVD975&assignmentId=3Y9N9SS8LZX1U3H2TEAW6X70L3XD3U&a=899Y9&tp_a=899Y9&b=3Y9N9SS8LZX1U3H2TEAW6X70L3XD3U&tp_b=3Y9N9SS8LZX1U3H2TEAW6X70L3XD3U&c=365799&tp_c=365799","heads":4,"tails":1,"studentIndex":12,"studentTrueHypers":{"a":2,"b":8},"studentGuess":0.4,"delta":0.4,"totalExamples":5,"bonusSoFar":2.55},{"rt":17470,"response":{"heads":"24","tails":"1"},"type":"response","condition":"seqFeedback","trueTheta":0.8,"classrooms":["C","D"],"studentTrueClassroom":"C","exampleSet":"second","trial_type":"survey-html-form","trial_index":107,"time_elapsed":975923,"internal_node_id":"0.0-103.0-0.0","params":{"nStudents":24,"maxFlips":30,"completionMinutes":45,"basePay":8,"maxBonus":9,"perTrialBonus":0.5,"perTrialBonusThreshold":0.05,"exampleCost":0.01},"classroomParams":{"A":{"a":1,"b":4},"B":{"a":4,"b":1},"C":{"a":2,"b":8},"D":{"a":8,"b":2}},"conditions":["nonSeqFull","nonSeqPartial","seqNoFeedback","seqFeedback"],"classroomPairings":[["A","B"],["C","D"]],"coinWeights":[0.2,0.5,0.8],"subjectId":"A3UQ5DF8VVD975","assignmentId":"3Y9N9SS8LZX1U3H2TEAW6X70L3XD3U","hitId":"3AQN9REUTF20OMGWRXYK787QVFOYDP","url":"https://gershmanlab.com/experiments/alicia/teaching/experiment/?hitId=3AQN9REUTF20OMGWRXYK787QVFOYDP&workerId=A3UQ5DF8VVD975&assignmentId=3Y9N9SS8LZX1U3H2TEAW6X70L3XD3U&a=899Y9&tp_a=899Y9&b=3Y9N9SS8LZX1U3H2TEAW6X70L3XD3U&tp_b=3Y9N9SS8LZX1U3H2TEAW6X70L3XD3U&c=365799&tp_c=365799","firstResponseHeads":4,"firstResponseTails":1,"secondResponseHeads":24,"secondResponseTails":1,"totalHeads":28,"totalTails":2,"studentIndex":12,"studentTrueHypers":{"a":2,"b":8},"studentGuess":0.75,"delta":0.050000000000000044,"bonus":0,"bonusSoFar":2.55,"totalExamples":30},{"rt":26111,"response":{"heads":"7","tails":"3"},"type":"response","condition":"nonSeqPartial","trueTheta":0.5,"classrooms":["C","D"],"studentTrueClassroom":"D","exampleSet":"first","trial_type":"survey-html-form","trial_index":113,"time_elapsed":1021815,"internal_node_id":"0.0-109.0-0.0","params":{"nStudents":24,"maxFlips":30,"completionMinutes":45,"basePay":8,"maxBonus":9,"perTrialBonus":0.5,"perTrialBonusThreshold":0.05,"exampleCost":0.01},"classroomParams":{"A":{"a":1,"b":4},"B":{"a":4,"b":1},"C":{"a":2,"b":8},"D":{"a":8,"b":2}},"conditions":["nonSeqFull","nonSeqPartial","seqNoFeedback","seqFeedback"],"classroomPairings":[["A","B"],["C","D"]],"coinWeights":[0.2,0.5,0.8],"subjectId":"A3UQ5DF8VVD975","assignmentId":"3Y9N9SS8LZX1U3H2TEAW6X70L3XD3U","hitId":"3AQN9REUTF20OMGWRXYK787QVFOYDP","url":"https://gershmanlab.com/experiments/alicia/teaching/experiment/?hitId=3AQN9REUTF20OMGWRXYK787QVFOYDP&workerId=A3UQ5DF8VVD975&assignmentId=3Y9N9SS8LZX1U3H2TEAW6X70L3XD3U&a=899Y9&tp_a=899Y9&b=3Y9N9SS8LZX1U3H2TEAW6X70L3XD3U&tp_b=3Y9N9SS8LZX1U3H2TEAW6X70L3XD3U&c=365799&tp_c=365799","heads":7,"tails":3,"studentIndex":13,"studentTrueHypers":{"a":8,"b":2},"studentGuess":0.75,"delta":0.25,"totalExamples":10,"bonus":0,"bonusSoFar":2.55},{"rt":17367,"response":{"heads":"1","tails":"4"},"type":"response","condition":"nonSeqFull","trueTheta":0.5,"classrooms":["A","B"],"studentTrueClassroom":"B","exampleSet":"first","trial_type":"survey-html-form","trial_index":119,"time_elapsed":1058173,"internal_node_id":"0.0-115.0-0.0","params":{"nStudents":24,"maxFlips":30,"completionMinutes":45,"basePay":8,"maxBonus":9,"perTrialBonus":0.5,"perTrialBonusThreshold":0.05,"exampleCost":0.01},"classroomParams":{"A":{"a":1,"b":4},"B":{"a":4,"b":1},"C":{"a":2,"b":8},"D":{"a":8,"b":2}},"conditions":["nonSeqFull","nonSeqPartial","seqNoFeedback","seqFeedback"],"classroomPairings":[["A","B"],["C","D"]],"coinWeights":[0.2,0.5,0.8],"subjectId":"A3UQ5DF8VVD975","assignmentId":"3Y9N9SS8LZX1U3H2TEAW6X70L3XD3U","hitId":"3AQN9REUTF20OMGWRXYK787QVFOYDP","url":"https://gershmanlab.com/experiments/alicia/teaching/experiment/?hitId=3AQN9REUTF20OMGWRXYK787QVFOYDP&workerId=A3UQ5DF8VVD975&assignmentId=3Y9N9SS8LZX1U3H2TEAW6X70L3XD3U&a=899Y9&tp_a=899Y9&b=3Y9N9SS8LZX1U3H2TEAW6X70L3XD3U&tp_b=3Y9N9SS8LZX1U3H2TEAW6X70L3XD3U&c=365799&tp_c=365799","heads":1,"tails":4,"studentIndex":14,"studentTrueHypers":{"a":4,"b":1},"studentGuess":0.5,"delta":0,"totalExamples":5,"bonus":0.45,"bonusSoFar":3},{"rt":26565,"response":{"heads":"1","tails":"29"},"type":"response","condition":"nonSeqPartial","trueTheta":0.2,"classrooms":["A","B"],"studentTrueClassroom":"A","exampleSet":"first","trial_type":"survey-html-form","trial_index":125,"time_elapsed":1106273,"internal_node_id":"0.0-121.0-0.0","params":{"nStudents":24,"maxFlips":30,"completionMinutes":45,"basePay":8,"maxBonus":9,"perTrialBonus":0.5,"perTrialBonusThreshold":0.05,"exampleCost":0.01},"classroomParams":{"A":{"a":1,"b":4},"B":{"a":4,"b":1},"C":{"a":2,"b":8},"D":{"a":8,"b":2}},"conditions":["nonSeqFull","nonSeqPartial","seqNoFeedback","seqFeedback"],"classroomPairings":[["A","B"],["C","D"]],"coinWeights":[0.2,0.5,0.8],"subjectId":"A3UQ5DF8VVD975","assignmentId":"3Y9N9SS8LZX1U3H2TEAW6X70L3XD3U","hitId":"3AQN9REUTF20OMGWRXYK787QVFOYDP","url":"https://gershmanlab.com/experiments/alicia/teaching/experiment/?hitId=3AQN9REUTF20OMGWRXYK787QVFOYDP&workerId=A3UQ5DF8VVD975&assignmentId=3Y9N9SS8LZX1U3H2TEAW6X70L3XD3U&a=899Y9&tp_a=899Y9&b=3Y9N9SS8LZX1U3H2TEAW6X70L3XD3U&tp_b=3Y9N9SS8LZX1U3H2TEAW6X70L3XD3U&c=365799&tp_c=365799","heads":1,"tails":29,"studentIndex":15,"studentTrueHypers":{"a":1,"b":4},"studentGuess":0.05714285714285714,"delta":0.14285714285714288,"totalExamples":30,"bonus":0,"bonusSoFar":3},{"rt":13547,"response":{"heads":"4","tails":"1"},"type":"response","condition":"seqNoFeedback","trueTheta":0.8,"classrooms":["A","B"],"studentTrueClassroom":"B","exampleSet":"first","trial_type":"survey-html-form","trial_index":131,"time_elapsed":1140943,"internal_node_id":"0.0-127.0-0.0","params":{"nStudents":24,"maxFlips":30,"completionMinutes":45,"basePay":8,"maxBonus":9,"perTrialBonus":0.5,"perTrialBonusThreshold":0.05,"exampleCost":0.01},"classroomParams":{"A":{"a":1,"b":4},"B":{"a":4,"b":1},"C":{"a":2,"b":8},"D":{"a":8,"b":2}},"conditions":["nonSeqFull","nonSeqPartial","seqNoFeedback","seqFeedback"],"classroomPairings":[["A","B"],["C","D"]],"coinWeights":[0.2,0.5,0.8],"subjectId":"A3UQ5DF8VVD975","assignmentId":"3Y9N9SS8LZX1U3H2TEAW6X70L3XD3U","hitId":"3AQN9REUTF20OMGWRXYK787QVFOYDP","url":"https://gershmanlab.com/experiments/alicia/teaching/experiment/?hitId=3AQN9REUTF20OMGWRXYK787QVFOYDP&workerId=A3UQ5DF8VVD975&assignmentId=3Y9N9SS8LZX1U3H2TEAW6X70L3XD3U&a=899Y9&tp_a=899Y9&b=3Y9N9SS8LZX1U3H2TEAW6X70L3XD3U&tp_b=3Y9N9SS8LZX1U3H2TEAW6X70L3XD3U&c=365799&tp_c=365799","heads":4,"tails":1,"studentIndex":16,"studentTrueHypers":{"a":4,"b":1},"studentGuess":0.8,"delta":0,"totalExamples":5,"bonusSoFar":3},{"rt":16696,"response":{"heads":"9","tails":"1"},"type":"response","condition":"seqNoFeedback","trueTheta":0.8,"classrooms":["A","B"],"studentTrueClassroom":"B","exampleSet":"second","trial_type":"survey-html-form","trial_index":134,"time_elapsed":1163662,"internal_node_id":"0.0-130.0-0.0","params":{"nStudents":24,"maxFlips":30,"completionMinutes":45,"basePay":8,"maxBonus":9,"perTrialBonus":0.5,"perTrialBonusThreshold":0.05,"exampleCost":0.01},"classroomParams":{"A":{"a":1,"b":4},"B":{"a":4,"b":1},"C":{"a":2,"b":8},"D":{"a":8,"b":2}},"conditions":["nonSeqFull","nonSeqPartial","seqNoFeedback","seqFeedback"],"classroomPairings":[["A","B"],["C","D"]],"coinWeights":[0.2,0.5,0.8],"subjectId":"A3UQ5DF8VVD975","assignmentId":"3Y9N9SS8LZX1U3H2TEAW6X70L3XD3U","hitId":"3AQN9REUTF20OMGWRXYK787QVFOYDP","url":"https://gershmanlab.com/experiments/alicia/teaching/experiment/?hitId=3AQN9REUTF20OMGWRXYK787QVFOYDP&workerId=A3UQ5DF8VVD975&assignmentId=3Y9N9SS8LZX1U3H2TEAW6X70L3XD3U&a=899Y9&tp_a=899Y9&b=3Y9N9SS8LZX1U3H2TEAW6X70L3XD3U&tp_b=3Y9N9SS8LZX1U3H2TEAW6X70L3XD3U&c=365799&tp_c=365799","firstResponseHeads":4,"firstResponseTails":1,"secondResponseHeads":9,"secondResponseTails":1,"totalHeads":13,"totalTails":2,"studentIndex":16,"studentTrueHypers":{"a":4,"b":1},"studentGuess":0.85,"delta":0.04999999999999993,"bonus":0.35,"bonusSoFar":3.35,"totalExamples":15},{"rt":30321,"response":{"heads":"9","tails":"1"},"type":"response","condition":"nonSeqPartial","trueTheta":0.8,"classrooms":["A","B"],"studentTrueClassroom":"B","exampleSet":"first","trial_type":"survey-html-form","trial_index":140,"time_elapsed":1217792,"internal_node_id":"0.0-136.0-0.0","params":{"nStudents":24,"maxFlips":30,"completionMinutes":45,"basePay":8,"maxBonus":9,"perTrialBonus":0.5,"perTrialBonusThreshold":0.05,"exampleCost":0.01},"classroomParams":{"A":{"a":1,"b":4},"B":{"a":4,"b":1},"C":{"a":2,"b":8},"D":{"a":8,"b":2}},"conditions":["nonSeqFull","nonSeqPartial","seqNoFeedback","seqFeedback"],"classroomPairings":[["A","B"],["C","D"]],"coinWeights":[0.2,0.5,0.8],"subjectId":"A3UQ5DF8VVD975","assignmentId":"3Y9N9SS8LZX1U3H2TEAW6X70L3XD3U","hitId":"3AQN9REUTF20OMGWRXYK787QVFOYDP","url":"https://gershmanlab.com/experiments/alicia/teaching/experiment/?hitId=3AQN9REUTF20OMGWRXYK787QVFOYDP&workerId=A3UQ5DF8VVD975&assignmentId=3Y9N9SS8LZX1U3H2TEAW6X70L3XD3U&a=899Y9&tp_a=899Y9&b=3Y9N9SS8LZX1U3H2TEAW6X70L3XD3U&tp_b=3Y9N9SS8LZX1U3H2TEAW6X70L3XD3U&c=365799&tp_c=365799","heads":9,"tails":1,"studentIndex":17,"studentTrueHypers":{"a":4,"b":1},"studentGuess":0.8666666666666667,"delta":0.06666666666666665,"totalExamples":10,"bonus":0,"bonusSoFar":3.35},{"rt":19969,"response":{"heads":"1","tails":"4"},"type":"response","condition":"seqNoFeedback","trueTheta":0.2,"classrooms":["C","D"],"studentTrueClassroom":"D","exampleSet":"first","trial_type":"survey-html-form","trial_index":146,"time_elapsed":1254796,"internal_node_id":"0.0-142.0-0.0","params":{"nStudents":24,"maxFlips":30,"completionMinutes":45,"basePay":8,"maxBonus":9,"perTrialBonus":0.5,"perTrialBonusThreshold":0.05,"exampleCost":0.01},"classroomParams":{"A":{"a":1,"b":4},"B":{"a":4,"b":1},"C":{"a":2,"b":8},"D":{"a":8,"b":2}},"conditions":["nonSeqFull","nonSeqPartial","seqNoFeedback","seqFeedback"],"classroomPairings":[["A","B"],["C","D"]],"coinWeights":[0.2,0.5,0.8],"subjectId":"A3UQ5DF8VVD975","assignmentId":"3Y9N9SS8LZX1U3H2TEAW6X70L3XD3U","hitId":"3AQN9REUTF20OMGWRXYK787QVFOYDP","url":"https://gershmanlab.com/experiments/alicia/teaching/experiment/?hitId=3AQN9REUTF20OMGWRXYK787QVFOYDP&workerId=A3UQ5DF8VVD975&assignmentId=3Y9N9SS8LZX1U3H2TEAW6X70L3XD3U&a=899Y9&tp_a=899Y9&b=3Y9N9SS8LZX1U3H2TEAW6X70L3XD3U&tp_b=3Y9N9SS8LZX1U3H2TEAW6X70L3XD3U&c=365799&tp_c=365799","heads":1,"tails":4,"studentIndex":18,"studentTrueHypers":{"a":8,"b":2},"studentGuess":0.6,"delta":0.39999999999999997,"totalExamples":5,"bonusSoFar":3.35},{"rt":9358,"response":{"heads":"1","tails":"4"},"type":"response","condition":"seqNoFeedback","trueTheta":0.2,"classrooms":["C","D"],"studentTrueClassroom":"D","exampleSet":"second","trial_type":"survey-html-form","trial_index":149,"time_elapsed":1271419,"internal_node_id":"0.0-145.0-0.0","params":{"nStudents":24,"maxFlips":30,"completionMinutes":45,"basePay":8,"maxBonus":9,"perTrialBonus":0.5,"perTrialBonusThreshold":0.05,"exampleCost":0.01},"classroomParams":{"A":{"a":1,"b":4},"B":{"a":4,"b":1},"C":{"a":2,"b":8},"D":{"a":8,"b":2}},"conditions":["nonSeqFull","nonSeqPartial","seqNoFeedback","seqFeedback"],"classroomPairings":[["A","B"],["C","D"]],"coinWeights":[0.2,0.5,0.8],"subjectId":"A3UQ5DF8VVD975","assignmentId":"3Y9N9SS8LZX1U3H2TEAW6X70L3XD3U","hitId":"3AQN9REUTF20OMGWRXYK787QVFOYDP","url":"https://gershmanlab.com/experiments/alicia/teaching/experiment/?hitId=3AQN9REUTF20OMGWRXYK787QVFOYDP&workerId=A3UQ5DF8VVD975&assignmentId=3Y9N9SS8LZX1U3H2TEAW6X70L3XD3U&a=899Y9&tp_a=899Y9&b=3Y9N9SS8LZX1U3H2TEAW6X70L3XD3U&tp_b=3Y9N9SS8LZX1U3H2TEAW6X70L3XD3U&c=365799&tp_c=365799","firstResponseHeads":1,"firstResponseTails":4,"secondResponseHeads":1,"secondResponseTails":4,"totalHeads":2,"totalTails":8,"studentIndex":18,"studentTrueHypers":{"a":8,"b":2},"studentGuess":0.5,"delta":0.3,"bonus":0,"bonusSoFar":3.35,"totalExamples":10},{"rt":20192,"response":{"heads":"2","tails":"8"},"type":"response","condition":"nonSeqFull","trueTheta":0.5,"classrooms":["C","D"],"studentTrueClassroom":"D","exampleSet":"first","trial_type":"survey-html-form","trial_index":155,"time_elapsed":1306450,"internal_node_id":"0.0-151.0-0.0","params":{"nStudents":24,"maxFlips":30,"completionMinutes":45,"basePay":8,"maxBonus":9,"perTrialBonus":0.5,"perTrialBonusThreshold":0.05,"exampleCost":0.01},"classroomParams":{"A":{"a":1,"b":4},"B":{"a":4,"b":1},"C":{"a":2,"b":8},"D":{"a":8,"b":2}},"conditions":["nonSeqFull","nonSeqPartial","seqNoFeedback","seqFeedback"],"classroomPairings":[["A","B"],["C","D"]],"coinWeights":[0.2,0.5,0.8],"subjectId":"A3UQ5DF8VVD975","assignmentId":"3Y9N9SS8LZX1U3H2TEAW6X70L3XD3U","hitId":"3AQN9REUTF20OMGWRXYK787QVFOYDP","url":"https://gershmanlab.com/experiments/alicia/teaching/experiment/?hitId=3AQN9REUTF20OMGWRXYK787QVFOYDP&workerId=A3UQ5DF8VVD975&assignmentId=3Y9N9SS8LZX1U3H2TEAW6X70L3XD3U&a=899Y9&tp_a=899Y9&b=3Y9N9SS8LZX1U3H2TEAW6X70L3XD3U&tp_b=3Y9N9SS8LZX1U3H2TEAW6X70L3XD3U&c=365799&tp_c=365799","heads":2,"tails":8,"studentIndex":19,"studentTrueHypers":{"a":8,"b":2},"studentGuess":0.5,"delta":0,"totalExamples":10,"bonus":0.4,"bonusSoFar":3.75},{"rt":15534,"response":{"heads":"8","tails":"2"},"type":"response","condition":"nonSeqPartial","trueTheta":0.8,"classrooms":["C","D"],"studentTrueClassroom":"C","exampleSet":"first","trial_type":"survey-html-form","trial_index":161,"time_elapsed":1340003,"internal_node_id":"0.0-157.0-0.0","params":{"nStudents":24,"maxFlips":30,"completionMinutes":45,"basePay":8,"maxBonus":9,"perTrialBonus":0.5,"perTrialBonusThreshold":0.05,"exampleCost":0.01},"classroomParams":{"A":{"a":1,"b":4},"B":{"a":4,"b":1},"C":{"a":2,"b":8},"D":{"a":8,"b":2}},"conditions":["nonSeqFull","nonSeqPartial","seqNoFeedback","seqFeedback"],"classroomPairings":[["A","B"],["C","D"]],"coinWeights":[0.2,0.5,0.8],"subjectId":"A3UQ5DF8VVD975","assignmentId":"3Y9N9SS8LZX1U3H2TEAW6X70L3XD3U","hitId":"3AQN9REUTF20OMGWRXYK787QVFOYDP","url":"https://gershmanlab.com/experiments/alicia/teaching/experiment/?hitId=3AQN9REUTF20OMGWRXYK787QVFOYDP&workerId=A3UQ5DF8VVD975&assignmentId=3Y9N9SS8LZX1U3H2TEAW6X70L3XD3U&a=899Y9&tp_a=899Y9&b=3Y9N9SS8LZX1U3H2TEAW6X70L3XD3U&tp_b=3Y9N9SS8LZX1U3H2TEAW6X70L3XD3U&c=365799&tp_c=365799","heads":8,"tails":2,"studentIndex":20,"studentTrueHypers":{"a":2,"b":8},"studentGuess":0.5,"delta":0.30000000000000004,"totalExamples":10,"bonus":0,"bonusSoFar":3.75},{"rt":10777,"response":{"heads":"1","tails":"4"},"type":"response","condition":"seqFeedback","trueTheta":0.2,"classrooms":["C","D"],"studentTrueClassroom":"D","exampleSet":"first","trial_type":"survey-html-form","trial_index":167,"time_elapsed":1368063,"internal_node_id":"0.0-163.0-0.0","params":{"nStudents":24,"maxFlips":30,"completionMinutes":45,"basePay":8,"maxBonus":9,"perTrialBonus":0.5,"perTrialBonusThreshold":0.05,"exampleCost":0.01},"classroomParams":{"A":{"a":1,"b":4},"B":{"a":4,"b":1},"C":{"a":2,"b":8},"D":{"a":8,"b":2}},"conditions":["nonSeqFull","nonSeqPartial","seqNoFeedback","seqFeedback"],"classroomPairings":[["A","B"],["C","D"]],"coinWeights":[0.2,0.5,0.8],"subjectId":"A3UQ5DF8VVD975","assignmentId":"3Y9N9SS8LZX1U3H2TEAW6X70L3XD3U","hitId":"3AQN9REUTF20OMGWRXYK787QVFOYDP","url":"https://gershmanlab.com/experiments/alicia/teaching/experiment/?hitId=3AQN9REUTF20OMGWRXYK787QVFOYDP&workerId=A3UQ5DF8VVD975&assignmentId=3Y9N9SS8LZX1U3H2TEAW6X70L3XD3U&a=899Y9&tp_a=899Y9&b=3Y9N9SS8LZX1U3H2TEAW6X70L3XD3U&tp_b=3Y9N9SS8LZX1U3H2TEAW6X70L3XD3U&c=365799&tp_c=365799","heads":1,"tails":4,"studentIndex":21,"studentTrueHypers":{"a":8,"b":2},"studentGuess":0.6,"delta":0.39999999999999997,"totalExamples":5,"bonusSoFar":3.75},{"rt":48883,"response":{"heads":"1","tails":"19"},"type":"response","condition":"seqFeedback","trueTheta":0.2,"classrooms":["C","D"],"studentTrueClassroom":"D","exampleSet":"second","trial_type":"survey-html-form","trial_index":171,"time_elapsed":1437163,"internal_node_id":"0.0-167.0-0.0","params":{"nStudents":24,"maxFlips":30,"completionMinutes":45,"basePay":8,"maxBonus":9,"perTrialBonus":0.5,"perTrialBonusThreshold":0.05,"exampleCost":0.01},"classroomParams":{"A":{"a":1,"b":4},"B":{"a":4,"b":1},"C":{"a":2,"b":8},"D":{"a":8,"b":2}},"conditions":["nonSeqFull","nonSeqPartial","seqNoFeedback","seqFeedback"],"classroomPairings":[["A","B"],["C","D"]],"coinWeights":[0.2,0.5,0.8],"subjectId":"A3UQ5DF8VVD975","assignmentId":"3Y9N9SS8LZX1U3H2TEAW6X70L3XD3U","hitId":"3AQN9REUTF20OMGWRXYK787QVFOYDP","url":"https://gershmanlab.com/experiments/alicia/teaching/experiment/?hitId=3AQN9REUTF20OMGWRXYK787QVFOYDP&workerId=A3UQ5DF8VVD975&assignmentId=3Y9N9SS8LZX1U3H2TEAW6X70L3XD3U&a=899Y9&tp_a=899Y9&b=3Y9N9SS8LZX1U3H2TEAW6X70L3XD3U&tp_b=3Y9N9SS8LZX1U3H2TEAW6X70L3XD3U&c=365799&tp_c=365799","firstResponseHeads":1,"firstResponseTails":4,"secondResponseHeads":1,"secondResponseTails":19,"totalHeads":2,"totalTails":23,"studentIndex":21,"studentTrueHypers":{"a":8,"b":2},"studentGuess":0.2857142857142857,"delta":0.08571428571428569,"bonus":0,"bonusSoFar":3.75,"totalExamples":25},{"rt":9034,"response":{"heads":"1","tails":"4"},"type":"response","condition":"seqFeedback","trueTheta":0.2,"classrooms":["A","B"],"studentTrueClassroom":"A","exampleSet":"first","trial_type":"survey-html-form","trial_index":177,"time_elapsed":1463484,"internal_node_id":"0.0-173.0-0.0","params":{"nStudents":24,"maxFlips":30,"completionMinutes":45,"basePay":8,"maxBonus":9,"perTrialBonus":0.5,"perTrialBonusThreshold":0.05,"exampleCost":0.01},"classroomParams":{"A":{"a":1,"b":4},"B":{"a":4,"b":1},"C":{"a":2,"b":8},"D":{"a":8,"b":2}},"conditions":["nonSeqFull","nonSeqPartial","seqNoFeedback","seqFeedback"],"classroomPairings":[["A","B"],["C","D"]],"coinWeights":[0.2,0.5,0.8],"subjectId":"A3UQ5DF8VVD975","assignmentId":"3Y9N9SS8LZX1U3H2TEAW6X70L3XD3U","hitId":"3AQN9REUTF20OMGWRXYK787QVFOYDP","url":"https://gershmanlab.com/experiments/alicia/teaching/experiment/?hitId=3AQN9REUTF20OMGWRXYK787QVFOYDP&workerId=A3UQ5DF8VVD975&assignmentId=3Y9N9SS8LZX1U3H2TEAW6X70L3XD3U&a=899Y9&tp_a=899Y9&b=3Y9N9SS8LZX1U3H2TEAW6X70L3XD3U&tp_b=3Y9N9SS8LZX1U3H2TEAW6X70L3XD3U&c=365799&tp_c=365799","heads":1,"tails":4,"studentIndex":22,"studentTrueHypers":{"a":1,"b":4},"studentGuess":0.2,"delta":0,"totalExamples":5,"bonusSoFar":3.75},{"rt":7687,"response":{"heads":"1","tails":"4"},"type":"response","condition":"seqFeedback","trueTheta":0.2,"classrooms":["A","B"],"studentTrueClassroom":"A","exampleSet":"second","trial_type":"survey-html-form","trial_index":181,"time_elapsed":1481255,"internal_node_id":"0.0-177.0-0.0","params":{"nStudents":24,"maxFlips":30,"completionMinutes":45,"basePay":8,"maxBonus":9,"perTrialBonus":0.5,"perTrialBonusThreshold":0.05,"exampleCost":0.01},"classroomParams":{"A":{"a":1,"b":4},"B":{"a":4,"b":1},"C":{"a":2,"b":8},"D":{"a":8,"b":2}},"conditions":["nonSeqFull","nonSeqPartial","seqNoFeedback","seqFeedback"],"classroomPairings":[["A","B"],["C","D"]],"coinWeights":[0.2,0.5,0.8],"subjectId":"A3UQ5DF8VVD975","assignmentId":"3Y9N9SS8LZX1U3H2TEAW6X70L3XD3U","hitId":"3AQN9REUTF20OMGWRXYK787QVFOYDP","url":"https://gershmanlab.com/experiments/alicia/teaching/experiment/?hitId=3AQN9REUTF20OMGWRXYK787QVFOYDP&workerId=A3UQ5DF8VVD975&assignmentId=3Y9N9SS8LZX1U3H2TEAW6X70L3XD3U&a=899Y9&tp_a=899Y9&b=3Y9N9SS8LZX1U3H2TEAW6X70L3XD3U&tp_b=3Y9N9SS8LZX1U3H2TEAW6X70L3XD3U&c=365799&tp_c=365799","firstResponseHeads":1,"firstResponseTails":4,"secondResponseHeads":1,"secondResponseTails":4,"totalHeads":2,"totalTails":8,"studentIndex":22,"studentTrueHypers":{"a":1,"b":4},"studentGuess":0.2,"delta":0,"bonus":0.4,"bonusSoFar":4.15,"totalExamples":10},{"rt":14767,"response":{"heads":"5","tails":"5"},"type":"response","condition":"seqNoFeedback","trueTheta":0.5,"classrooms":["A","B"],"studentTrueClassroom":"B","exampleSet":"first","trial_type":"survey-html-form","trial_index":187,"time_elapsed":1513200,"internal_node_id":"0.0-183.0-0.0","params":{"nStudents":24,"maxFlips":30,"completionMinutes":45,"basePay":8,"maxBonus":9,"perTrialBonus":0.5,"perTrialBonusThreshold":0.05,"exampleCost":0.01},"classroomParams":{"A":{"a":1,"b":4},"B":{"a":4,"b":1},"C":{"a":2,"b":8},"D":{"a":8,"b":2}},"conditions":["nonSeqFull","nonSeqPartial","seqNoFeedback","seqFeedback"],"classroomPairings":[["A","B"],["C","D"]],"coinWeights":[0.2,0.5,0.8],"subjectId":"A3UQ5DF8VVD975","assignmentId":"3Y9N9SS8LZX1U3H2TEAW6X70L3XD3U","hitId":"3AQN9REUTF20OMGWRXYK787QVFOYDP","url":"https://gershmanlab.com/experiments/alicia/teaching/experiment/?hitId=3AQN9REUTF20OMGWRXYK787QVFOYDP&workerId=A3UQ5DF8VVD975&assignmentId=3Y9N9SS8LZX1U3H2TEAW6X70L3XD3U&a=899Y9&tp_a=899Y9&b=3Y9N9SS8LZX1U3H2TEAW6X70L3XD3U&tp_b=3Y9N9SS8LZX1U3H2TEAW6X70L3XD3U&c=365799&tp_c=365799","heads":5,"tails":5,"studentIndex":23,"studentTrueHypers":{"a":4,"b":1},"studentGuess":0.6,"delta":0.09999999999999998,"totalExamples":10,"bonusSoFar":4.15},{"rt":40670,"response":{"heads":"15","tails":"5"},"type":"response","condition":"seqNoFeedback","trueTheta":0.5,"classrooms":["A","B"],"studentTrueClassroom":"B","exampleSet":"second","trial_type":"survey-html-form","trial_index":190,"time_elapsed":1560644,"internal_node_id":"0.0-186.0-0.0","params":{"nStudents":24,"maxFlips":30,"completionMinutes":45,"basePay":8,"maxBonus":9,"perTrialBonus":0.5,"perTrialBonusThreshold":0.05,"exampleCost":0.01},"classroomParams":{"A":{"a":1,"b":4},"B":{"a":4,"b":1},"C":{"a":2,"b":8},"D":{"a":8,"b":2}},"conditions":["nonSeqFull","nonSeqPartial","seqNoFeedback","seqFeedback"],"classroomPairings":[["A","B"],["C","D"]],"coinWeights":[0.2,0.5,0.8],"subjectId":"A3UQ5DF8VVD975","assignmentId":"3Y9N9SS8LZX1U3H2TEAW6X70L3XD3U","hitId":"3AQN9REUTF20OMGWRXYK787QVFOYDP","url":"https://gershmanlab.com/experiments/alicia/teaching/experiment/?hitId=3AQN9REUTF20OMGWRXYK787QVFOYDP&workerId=A3UQ5DF8VVD975&assignmentId=3Y9N9SS8LZX1U3H2TEAW6X70L3XD3U&a=899Y9&tp_a=899Y9&b=3Y9N9SS8LZX1U3H2TEAW6X70L3XD3U&tp_b=3Y9N9SS8LZX1U3H2TEAW6X70L3XD3U&c=365799&tp_c=365799","firstResponseHeads":5,"firstResponseTails":5,"secondResponseHeads":15,"secondResponseTails":5,"totalHeads":20,"totalTails":10,"studentIndex":23,"studentTrueHypers":{"a":4,"b":1},"studentGuess":0.6857142857142857,"delta":0.18571428571428572,"bonus":0,"bonusSoFar":4.15,"totalExamples":30},{"rt":44389,"response":{"gender":"male","age":"43","understood":"yes","comments":"with three sets of examples, I could have done much better."},"type":"response","trial_type":"survey-html-form","trial_index":194,"time_elapsed":1614123,"internal_node_id":"0.0-191.0","params":{"nStudents":24,"maxFlips":30,"completionMinutes":45,"basePay":8,"maxBonus":9,"perTrialBonus":0.5,"perTrialBonusThreshold":0.05,"exampleCost":0.01},"classroomParams":{"A":{"a":1,"b":4},"B":{"a":4,"b":1},"C":{"a":2,"b":8},"D":{"a":8,"b":2}},"conditions":["nonSeqFull","nonSeqPartial","seqNoFeedback","seqFeedback"],"classroomPairings":[["A","B"],["C","D"]],"coinWeights":[0.2,0.5,0.8],"subjectId":"A3UQ5DF8VVD975","assignmentId":"3Y9N9SS8LZX1U3H2TEAW6X70L3XD3U","hitId":"3AQN9REUTF20OMGWRXYK787QVFOYDP","url":"https://gershmanlab.com/experiments/alicia/teaching/experiment/?hitId=3AQN9REUTF20OMGWRXYK787QVFOYDP&workerId=A3UQ5DF8VVD975&assignmentId=3Y9N9SS8LZX1U3H2TEAW6X70L3XD3U&a=899Y9&tp_a=899Y9&b=3Y9N9SS8LZX1U3H2TEAW6X70L3XD3U&tp_b=3Y9N9SS8LZX1U3H2TEAW6X70L3XD3U&c=365799&tp_c=365799","totalBonus":4.15}]