[{"rt":38259,"response":{"heads":"10","tails":"0"},"type":"response","condition":"nonSeqPartial","trueTheta":0.8,"classrooms":["C","D"],"studentTrueClassroom":"D","exampleSet":"first","trial_type":"survey-html-form","trial_index":7,"time_elapsed":313339,"internal_node_id":"0.0-6.0-0.0","params":{"nStudents":24,"maxFlips":30,"completionMinutes":45,"basePay":8,"maxBonus":9,"perTrialBonus":0.5,"perTrialBonusThreshold":0.05,"exampleCost":0.01},"classroomParams":{"A":{"a":1,"b":4},"B":{"a":4,"b":1},"C":{"a":2,"b":8},"D":{"a":8,"b":2}},"conditions":["nonSeqFull","nonSeqPartial","seqNoFeedback","seqFeedback"],"classroomPairings":[["A","B"],["C","D"]],"coinWeights":[0.2,0.5,0.8],"subjectId":"A58GP5CIF6DJ5","assignmentId":"3X4JMASXCNVCYEKLWV1799LTF5H0BT","hitId":"34KYK9TV2RUAD363EVFPUWVPB97SBP","url":"https://gershmanlab.com/experiments/alicia/teaching/experiment/?hitId=34KYK9TV2RUAD363EVFPUWVPB97SBP&workerId=A58GP5CIF6DJ5&assignmentId=3X4JMASXCNVCYEKLWV1799LTF5H0BT&a=XM4X7&tp_a=XM4X7&b=3X4JMASXCNVCYEKLWV1799LTF5H0BT&tp_b=3X4JMASXCNVCYEKLWV1799LTF5H0BT&c=365717&tp_c=365717","heads":10,"tails":0,"studentIndex":0,"studentTrueHypers":{"a":8,"b":2},"studentGuess":0.9,"delta":0.09999999999999998,"totalExamples":10,"bonus":0,"bonusSoFar":0},{"rt":24929,"response":{"heads":"5","tails":"5"},"type":"response","condition":"seqFeedback","trueTheta":0.5,"classrooms":["C","D"],"studentTrueClassroom":"D","exampleSet":"first","trial_type":"survey-html-form","trial_index":13,"time_elapsed":385437,"internal_node_id":"0.0-12.0-0.0","params":{"nStudents":24,"maxFlips":30,"completionMinutes":45,"basePay":8,"maxBonus":9,"perTrialBonus":0.5,"perTrialBonusThreshold":0.05,"exampleCost":0.01},"classroomParams":{"A":{"a":1,"b":4},"B":{"a":4,"b":1},"C":{"a":2,"b":8},"D":{"a":8,"b":2}},"conditions":["nonSeqFull","nonSeqPartial","seqNoFeedback","seqFeedback"],"classroomPairings":[["A","B"],["C","D"]],"coinWeights":[0.2,0.5,0.8],"subjectId":"A58GP5CIF6DJ5","assignmentId":"3X4JMASXCNVCYEKLWV1799LTF5H0BT","hitId":"34KYK9TV2RUAD363EVFPUWVPB97SBP","url":"https://gershmanlab.com/experiments/alicia/teaching/experiment/?hitId=34KYK9TV2RUAD363EVFPUWVPB97SBP&workerId=A58GP5CIF6DJ5&assignmentId=3X4JMASXCNVCYEKLWV1799LTF5H0BT&a=XM4X7&tp_a=XM4X7&b=3X4JMASXCNVCYEKLWV1799LTF5H0BT&tp_b=3X4JMASXCNVCYEKLWV1799LTF5H0BT&c=365717&tp_c=365717","heads":5,"tails":5,"studentIndex":1,"studentTrueHypers":{"a":8,"b":2},"studentGuess":0.65,"delta":0.15000000000000002,"totalExamples":10,"bonusSoFar":0},{"rt":15028,"response":{"heads":"10","tails":"5"},"type":"response","condition":"seqFeedback","trueTheta":0.5,"classrooms":["C","D"],"studentTrueClassroom":"D","exampleSet":"second","trial_type":"survey-html-form","trial_index":17,"time_elapsed":412050,"internal_node_id":"0.0-16.0-0.0","params":{"nStudents":24,"maxFlips":30,"completionMinutes":45,"basePay":8,"maxBonus":9,"perTrialBonus":0.5,"perTrialBonusThreshold":0.05,"exampleCost":0.01},"classroomParams":{"A":{"a":1,"b":4},"B":{"a":4,"b":1},"C":{"a":2,"b":8},"D":{"a":8,"b":2}},"conditions":["nonSeqFull","nonSeqPartial","seqNoFeedback","seqFeedback"],"classroomPairings":[["A","B"],["C","D"]],"coinWeights":[0.2,0.5,0.8],"subjectId":"A58GP5CIF6DJ5","assignmentId":"3X4JMASXCNVCYEKLWV1799LTF5H0BT","hitId":"34KYK9TV2RUAD363EVFPUWVPB97SBP","url":"https://gershmanlab.com/experiments/alicia/teaching/experiment/?hitId=34KYK9TV2RUAD363EVFPUWVPB97SBP&workerId=A58GP5CIF6DJ5&assignmentId=3X4JMASXCNVCYEKLWV1799LTF5H0BT&a=XM4X7&tp_a=XM4X7&b=3X4JMASXCNVCYEKLWV1799LTF5H0BT&tp_b=3X4JMASXCNVCYEKLWV1799LTF5H0BT&c=365717&tp_c=365717","firstResponseHeads":5,"firstResponseTails":5,"secondResponseHeads":10,"secondResponseTails":5,"totalHeads":15,"totalTails":10,"studentIndex":1,"studentTrueHypers":{"a":8,"b":2},"studentGuess":0.6571428571428571,"delta":0.15714285714285714,"bonus":0,"bonusSoFar":0,"totalExamples":25},{"rt":6403,"response":{"heads":"20","tails":"10"},"type":"response","condition":"seqFeedback","trueTheta":0.8,"classrooms":["C","D"],"studentTrueClassroom":"D","exampleSet":"first","trial_type":"survey-html-form","trial_index":23,"time_elapsed":435412,"internal_node_id":"0.0-22.0-0.0","params":{"nStudents":24,"maxFlips":30,"completionMinutes":45,"basePay":8,"maxBonus":9,"perTrialBonus":0.5,"perTrialBonusThreshold":0.05,"exampleCost":0.01},"classroomParams":{"A":{"a":1,"b":4},"B":{"a":4,"b":1},"C":{"a":2,"b":8},"D":{"a":8,"b":2}},"conditions":["nonSeqFull","nonSeqPartial","seqNoFeedback","seqFeedback"],"classroomPairings":[["A","B"],["C","D"]],"coinWeights":[0.2,0.5,0.8],"subjectId":"A58GP5CIF6DJ5","assignmentId":"3X4JMASXCNVCYEKLWV1799LTF5H0BT","hitId":"34KYK9TV2RUAD363EVFPUWVPB97SBP","url":"https://gershmanlab.com/experiments/alicia/teaching/experiment/?hitId=34KYK9TV2RUAD363EVFPUWVPB97SBP&workerId=A58GP5CIF6DJ5&assignmentId=3X4JMASXCNVCYEKLWV1799LTF5H0BT&a=XM4X7&tp_a=XM4X7&b=3X4JMASXCNVCYEKLWV1799LTF5H0BT&tp_b=3X4JMASXCNVCYEKLWV1799LTF5H0BT&c=365717&tp_c=365717","heads":20,"tails":10,"studentIndex":2,"studentTrueHypers":{"a":8,"b":2},"studentGuess":0.7,"delta":0.10000000000000009,"totalExamples":30,"bonusSoFar":0},{"rt":18316,"response":{"heads":"30","tails":"30"},"type":"response","condition":"seqFeedback","trueTheta":0.8,"classrooms":["C","D"],"studentTrueClassroom":"D","exampleSet":"second","trial_type":"survey-html-form","trial_index":27,"time_elapsed":465051,"internal_node_id":"0.0-26.0-0.0","params":{"nStudents":24,"maxFlips":30,"completionMinutes":45,"basePay":8,"maxBonus":9,"perTrialBonus":0.5,"perTrialBonusThreshold":0.05,"exampleCost":0.01},"classroomParams":{"A":{"a":1,"b":4},"B":{"a":4,"b":1},"C":{"a":2,"b":8},"D":{"a":8,"b":2}},"conditions":["nonSeqFull","nonSeqPartial","seqNoFeedback","seqFeedback"],"classroomPairings":[["A","B"],["C","D"]],"coinWeights":[0.2,0.5,0.8],"subjectId":"A58GP5CIF6DJ5","assignmentId":"3X4JMASXCNVCYEKLWV1799LTF5H0BT","hitId":"34KYK9TV2RUAD363EVFPUWVPB97SBP","url":"https://gershmanlab.com/experiments/alicia/teaching/experiment/?hitId=34KYK9TV2RUAD363EVFPUWVPB97SBP&workerId=A58GP5CIF6DJ5&assignmentId=3X4JMASXCNVCYEKLWV1799LTF5H0BT&a=XM4X7&tp_a=XM4X7&b=3X4JMASXCNVCYEKLWV1799LTF5H0BT&tp_b=3X4JMASXCNVCYEKLWV1799LTF5H0BT&c=365717&tp_c=365717","firstResponseHeads":20,"firstResponseTails":10,"secondResponseHeads":30,"secondResponseTails":30,"totalHeads":50,"totalTails":40,"studentIndex":2,"studentTrueHypers":{"a":8,"b":2},"studentGuess":0.58,"delta":0.22000000000000008,"bonus":0,"bonusSoFar":0,"totalExamples":90},{"rt":8694,"response":{"heads":"15","tails":"15"},"type":"response","condition":"seqFeedback","trueTheta":0.8,"classrooms":["C","D"],"studentTrueClassroom":"D","exampleSet":"second","trial_type":"survey-html-form","trial_index":28,"time_elapsed":473746,"internal_node_id":"0.0-26.1-0.1","params":{"nStudents":24,"maxFlips":30,"completionMinutes":45,"basePay":8,"maxBonus":9,"perTrialBonus":0.5,"perTrialBonusThreshold":0.05,"exampleCost":0.01},"classroomParams":{"A":{"a":1,"b":4},"B":{"a":4,"b":1},"C":{"a":2,"b":8},"D":{"a":8,"b":2}},"conditions":["nonSeqFull","nonSeqPartial","seqNoFeedback","seqFeedback"],"classroomPairings":[["A","B"],["C","D"]],"coinWeights":[0.2,0.5,0.8],"subjectId":"A58GP5CIF6DJ5","assignmentId":"3X4JMASXCNVCYEKLWV1799LTF5H0BT","hitId":"34KYK9TV2RUAD363EVFPUWVPB97SBP","url":"https://gershmanlab.com/experiments/alicia/teaching/experiment/?hitId=34KYK9TV2RUAD363EVFPUWVPB97SBP&workerId=A58GP5CIF6DJ5&assignmentId=3X4JMASXCNVCYEKLWV1799LTF5H0BT&a=XM4X7&tp_a=XM4X7&b=3X4JMASXCNVCYEKLWV1799LTF5H0BT&tp_b=3X4JMASXCNVCYEKLWV1799LTF5H0BT&c=365717&tp_c=365717","firstResponseHeads":20,"firstResponseTails":10,"secondResponseHeads":15,"secondResponseTails":15,"totalHeads":35,"totalTails":25,"studentIndex":2,"studentTrueHypers":{"a":8,"b":2},"studentGuess":0.6142857142857143,"delta":0.18571428571428572,"bonus":0,"bonusSoFar":0,"totalExamples":60},{"rt":5715,"response":{"heads":"6","tails":"10"},"type":"response","condition":"nonSeqFull","trueTheta":0.2,"classrooms":["C","D"],"studentTrueClassroom":"C","exampleSet":"first","trial_type":"survey-html-form","trial_index":34,"time_elapsed":494538,"internal_node_id":"0.0-32.0-0.0","params":{"nStudents":24,"maxFlips":30,"completionMinutes":45,"basePay":8,"maxBonus":9,"perTrialBonus":0.5,"perTrialBonusThreshold":0.05,"exampleCost":0.01},"classroomParams":{"A":{"a":1,"b":4},"B":{"a":4,"b":1},"C":{"a":2,"b":8},"D":{"a":8,"b":2}},"conditions":["nonSeqFull","nonSeqPartial","seqNoFeedback","seqFeedback"],"classroomPairings":[["A","B"],["C","D"]],"coinWeights":[0.2,0.5,0.8],"subjectId":"A58GP5CIF6DJ5","assignmentId":"3X4JMASXCNVCYEKLWV1799LTF5H0BT","hitId":"34KYK9TV2RUAD363EVFPUWVPB97SBP","url":"https://gershmanlab.com/experiments/alicia/teaching/experiment/?hitId=34KYK9TV2RUAD363EVFPUWVPB97SBP&workerId=A58GP5CIF6DJ5&assignmentId=3X4JMASXCNVCYEKLWV1799LTF5H0BT&a=XM4X7&tp_a=XM4X7&b=3X4JMASXCNVCYEKLWV1799LTF5H0BT&tp_b=3X4JMASXCNVCYEKLWV1799LTF5H0BT&c=365717&tp_c=365717","heads":6,"tails":10,"studentIndex":3,"studentTrueHypers":{"a":2,"b":8},"studentGuess":0.3076923076923077,"delta":0.1076923076923077,"totalExamples":16,"bonus":0,"bonusSoFar":0},{"rt":7619,"response":{"heads":"15","tails":"15"},"type":"response","condition":"nonSeqPartial","trueTheta":0.2,"classrooms":["C","D"],"studentTrueClassroom":"C","exampleSet":"first","trial_type":"survey-html-form","trial_index":40,"time_elapsed":517988,"internal_node_id":"0.0-38.0-0.0","params":{"nStudents":24,"maxFlips":30,"completionMinutes":45,"basePay":8,"maxBonus":9,"perTrialBonus":0.5,"perTrialBonusThreshold":0.05,"exampleCost":0.01},"classroomParams":{"A":{"a":1,"b":4},"B":{"a":4,"b":1},"C":{"a":2,"b":8},"D":{"a":8,"b":2}},"conditions":["nonSeqFull","nonSeqPartial","seqNoFeedback","seqFeedback"],"classroomPairings":[["A","B"],["C","D"]],"coinWeights":[0.2,0.5,0.8],"subjectId":"A58GP5CIF6DJ5","assignmentId":"3X4JMASXCNVCYEKLWV1799LTF5H0BT","hitId":"34KYK9TV2RUAD363EVFPUWVPB97SBP","url":"https://gershmanlab.com/experiments/alicia/teaching/experiment/?hitId=34KYK9TV2RUAD363EVFPUWVPB97SBP&workerId=A58GP5CIF6DJ5&assignmentId=3X4JMASXCNVCYEKLWV1799LTF5H0BT&a=XM4X7&tp_a=XM4X7&b=3X4JMASXCNVCYEKLWV1799LTF5H0BT&tp_b=3X4JMASXCNVCYEKLWV1799LTF5H0BT&c=365717&tp_c=365717","heads":15,"tails":15,"studentIndex":4,"studentTrueHypers":{"a":2,"b":8},"studentGuess":0.425,"delta":0.22499999999999998,"totalExamples":30,"bonus":0,"bonusSoFar":0},{"rt":11243,"response":{"heads":"5","tails":"5"},"type":"response","condition":"seqFeedback","trueTheta":0.5,"classrooms":["A","B"],"studentTrueClassroom":"B","exampleSet":"first","trial_type":"survey-html-form","trial_index":46,"time_elapsed":548379,"internal_node_id":"0.0-44.0-0.0","params":{"nStudents":24,"maxFlips":30,"completionMinutes":45,"basePay":8,"maxBonus":9,"perTrialBonus":0.5,"perTrialBonusThreshold":0.05,"exampleCost":0.01},"classroomParams":{"A":{"a":1,"b":4},"B":{"a":4,"b":1},"C":{"a":2,"b":8},"D":{"a":8,"b":2}},"conditions":["nonSeqFull","nonSeqPartial","seqNoFeedback","seqFeedback"],"classroomPairings":[["A","B"],["C","D"]],"coinWeights":[0.2,0.5,0.8],"subjectId":"A58GP5CIF6DJ5","assignmentId":"3X4JMASXCNVCYEKLWV1799LTF5H0BT","hitId":"34KYK9TV2RUAD363EVFPUWVPB97SBP","url":"https://gershmanlab.com/experiments/alicia/teaching/experiment/?hitId=34KYK9TV2RUAD363EVFPUWVPB97SBP&workerId=A58GP5CIF6DJ5&assignmentId=3X4JMASXCNVCYEKLWV1799LTF5H0BT&a=XM4X7&tp_a=XM4X7&b=3X4JMASXCNVCYEKLWV1799LTF5H0BT&tp_b=3X4JMASXCNVCYEKLWV1799LTF5H0BT&c=365717&tp_c=365717","heads":5,"tails":5,"studentIndex":5,"studentTrueHypers":{"a":4,"b":1},"studentGuess":0.6,"delta":0.09999999999999998,"totalExamples":10,"bonusSoFar":0},{"rt":11242,"response":{"heads":"15","tails":"10"},"type":"response","condition":"seqFeedback","trueTheta":0.5,"classrooms":["A","B"],"studentTrueClassroom":"B","exampleSet":"second","trial_type":"survey-html-form","trial_index":50,"time_elapsed":569959,"internal_node_id":"0.0-48.0-0.0","params":{"nStudents":24,"maxFlips":30,"completionMinutes":45,"basePay":8,"maxBonus":9,"perTrialBonus":0.5,"perTrialBonusThreshold":0.05,"exampleCost":0.01},"classroomParams":{"A":{"a":1,"b":4},"B":{"a":4,"b":1},"C":{"a":2,"b":8},"D":{"a":8,"b":2}},"conditions":["nonSeqFull","nonSeqPartial","seqNoFeedback","seqFeedback"],"classroomPairings":[["A","B"],["C","D"]],"coinWeights":[0.2,0.5,0.8],"subjectId":"A58GP5CIF6DJ5","assignmentId":"3X4JMASXCNVCYEKLWV1799LTF5H0BT","hitId":"34KYK9TV2RUAD363EVFPUWVPB97SBP","url":"https://gershmanlab.com/experiments/alicia/teaching/experiment/?hitId=34KYK9TV2RUAD363EVFPUWVPB97SBP&workerId=A58GP5CIF6DJ5&assignmentId=3X4JMASXCNVCYEKLWV1799LTF5H0BT&a=XM4X7&tp_a=XM4X7&b=3X4JMASXCNVCYEKLWV1799LTF5H0BT&tp_b=3X4JMASXCNVCYEKLWV1799LTF5H0BT&c=365717&tp_c=365717","firstResponseHeads":5,"firstResponseTails":5,"secondResponseHeads":15,"secondResponseTails":10,"totalHeads":20,"totalTails":15,"studentIndex":5,"studentTrueHypers":{"a":4,"b":1},"studentGuess":0.6,"delta":0.09999999999999998,"bonus":0,"bonusSoFar":0,"totalExamples":35},{"rt":19647,"response":{"heads":"30","tails":"0"},"type":"response","condition":"nonSeqPartial","trueTheta":0.8,"classrooms":["A","B"],"studentTrueClassroom":"B","exampleSet":"first","trial_type":"survey-html-form","trial_index":56,"time_elapsed":602514,"internal_node_id":"0.0-54.0-0.0","params":{"nStudents":24,"maxFlips":30,"completionMinutes":45,"basePay":8,"maxBonus":9,"perTrialBonus":0.5,"perTrialBonusThreshold":0.05,"exampleCost":0.01},"classroomParams":{"A":{"a":1,"b":4},"B":{"a":4,"b":1},"C":{"a":2,"b":8},"D":{"a":8,"b":2}},"conditions":["nonSeqFull","nonSeqPartial","seqNoFeedback","seqFeedback"],"classroomPairings":[["A","B"],["C","D"]],"coinWeights":[0.2,0.5,0.8],"subjectId":"A58GP5CIF6DJ5","assignmentId":"3X4JMASXCNVCYEKLWV1799LTF5H0BT","hitId":"34KYK9TV2RUAD363EVFPUWVPB97SBP","url":"https://gershmanlab.com/experiments/alicia/teaching/experiment/?hitId=34KYK9TV2RUAD363EVFPUWVPB97SBP&workerId=A58GP5CIF6DJ5&assignmentId=3X4JMASXCNVCYEKLWV1799LTF5H0BT&a=XM4X7&tp_a=XM4X7&b=3X4JMASXCNVCYEKLWV1799LTF5H0BT&tp_b=3X4JMASXCNVCYEKLWV1799LTF5H0BT&c=365717&tp_c=365717","heads":30,"tails":0,"studentIndex":6,"studentTrueHypers":{"a":4,"b":1},"studentGuess":0.9714285714285714,"delta":0.17142857142857137,"totalExamples":30,"bonus":0,"bonusSoFar":0},{"rt":8142,"response":{"heads":"15","tails":"10"},"type":"response","condition":"seqFeedback","trueTheta":0.2,"classrooms":["A","B"],"studentTrueClassroom":"B","exampleSet":"first","trial_type":"survey-html-form","trial_index":62,"time_elapsed":623648,"internal_node_id":"0.0-60.0-0.0","params":{"nStudents":24,"maxFlips":30,"completionMinutes":45,"basePay":8,"maxBonus":9,"perTrialBonus":0.5,"perTrialBonusThreshold":0.05,"exampleCost":0.01},"classroomParams":{"A":{"a":1,"b":4},"B":{"a":4,"b":1},"C":{"a":2,"b":8},"D":{"a":8,"b":2}},"conditions":["nonSeqFull","nonSeqPartial","seqNoFeedback","seqFeedback"],"classroomPairings":[["A","B"],["C","D"]],"coinWeights":[0.2,0.5,0.8],"subjectId":"A58GP5CIF6DJ5","assignmentId":"3X4JMASXCNVCYEKLWV1799LTF5H0BT","hitId":"34KYK9TV2RUAD363EVFPUWVPB97SBP","url":"https://gershmanlab.com/experiments/alicia/teaching/experiment/?hitId=34KYK9TV2RUAD363EVFPUWVPB97SBP&workerId=A58GP5CIF6DJ5&assignmentId=3X4JMASXCNVCYEKLWV1799LTF5H0BT&a=XM4X7&tp_a=XM4X7&b=3X4JMASXCNVCYEKLWV1799LTF5H0BT&tp_b=3X4JMASXCNVCYEKLWV1799LTF5H0BT&c=365717&tp_c=365717","heads":15,"tails":10,"studentIndex":7,"studentTrueHypers":{"a":4,"b":1},"studentGuess":0.6333333333333333,"delta":0.4333333333333333,"totalExamples":25,"bonusSoFar":0},{"rt":9333,"response":{"heads":"0","tails":"30"},"type":"response","condition":"seqFeedback","trueTheta":0.2,"classrooms":["A","B"],"studentTrueClassroom":"B","exampleSet":"second","trial_type":"survey-html-form","trial_index":66,"time_elapsed":641168,"internal_node_id":"0.0-64.0-0.0","params":{"nStudents":24,"maxFlips":30,"completionMinutes":45,"basePay":8,"maxBonus":9,"perTrialBonus":0.5,"perTrialBonusThreshold":0.05,"exampleCost":0.01},"classroomParams":{"A":{"a":1,"b":4},"B":{"a":4,"b":1},"C":{"a":2,"b":8},"D":{"a":8,"b":2}},"conditions":["nonSeqFull","nonSeqPartial","seqNoFeedback","seqFeedback"],"classroomPairings":[["A","B"],["C","D"]],"coinWeights":[0.2,0.5,0.8],"subjectId":"A58GP5CIF6DJ5","assignmentId":"3X4JMASXCNVCYEKLWV1799LTF5H0BT","hitId":"34KYK9TV2RUAD363EVFPUWVPB97SBP","url":"https://gershmanlab.com/experiments/alicia/teaching/experiment/?hitId=34KYK9TV2RUAD363EVFPUWVPB97SBP&workerId=A58GP5CIF6DJ5&assignmentId=3X4JMASXCNVCYEKLWV1799LTF5H0BT&a=XM4X7&tp_a=XM4X7&b=3X4JMASXCNVCYEKLWV1799LTF5H0BT&tp_b=3X4JMASXCNVCYEKLWV1799LTF5H0BT&c=365717&tp_c=365717","firstResponseHeads":15,"firstResponseTails":10,"secondResponseHeads":0,"secondResponseTails":30,"totalHeads":15,"totalTails":40,"studentIndex":7,"studentTrueHypers":{"a":4,"b":1},"studentGuess":0.31666666666666665,"delta":0.11666666666666664,"bonus":0,"bonusSoFar":0,"totalExamples":55},{"rt":6894,"response":{"heads":"15","tails":"15"},"type":"response","condition":"nonSeqPartial","trueTheta":0.5,"classrooms":["C","D"],"studentTrueClassroom":"D","exampleSet":"first","trial_type":"survey-html-form","trial_index":72,"time_elapsed":662172,"internal_node_id":"0.0-70.0-0.0","params":{"nStudents":24,"maxFlips":30,"completionMinutes":45,"basePay":8,"maxBonus":9,"perTrialBonus":0.5,"perTrialBonusThreshold":0.05,"exampleCost":0.01},"classroomParams":{"A":{"a":1,"b":4},"B":{"a":4,"b":1},"C":{"a":2,"b":8},"D":{"a":8,"b":2}},"conditions":["nonSeqFull","nonSeqPartial","seqNoFeedback","seqFeedback"],"classroomPairings":[["A","B"],["C","D"]],"coinWeights":[0.2,0.5,0.8],"subjectId":"A58GP5CIF6DJ5","assignmentId":"3X4JMASXCNVCYEKLWV1799LTF5H0BT","hitId":"34KYK9TV2RUAD363EVFPUWVPB97SBP","url":"https://gershmanlab.com/experiments/alicia/teaching/experiment/?hitId=34KYK9TV2RUAD363EVFPUWVPB97SBP&workerId=A58GP5CIF6DJ5&assignmentId=3X4JMASXCNVCYEKLWV1799LTF5H0BT&a=XM4X7&tp_a=XM4X7&b=3X4JMASXCNVCYEKLWV1799LTF5H0BT&tp_b=3X4JMASXCNVCYEKLWV1799LTF5H0BT&c=365717&tp_c=365717","heads":15,"tails":15,"studentIndex":8,"studentTrueHypers":{"a":8,"b":2},"studentGuess":0.575,"delta":0.07499999999999996,"totalExamples":30,"bonus":0,"bonusSoFar":0},{"rt":10757,"response":{"heads":"4","tails":"26"},"type":"response","condition":"nonSeqFull","trueTheta":0.5,"classrooms":["A","B"],"studentTrueClassroom":"B","exampleSet":"first","trial_type":"survey-html-form","trial_index":78,"time_elapsed":685432,"internal_node_id":"0.0-76.0-0.0","params":{"nStudents":24,"maxFlips":30,"completionMinutes":45,"basePay":8,"maxBonus":9,"perTrialBonus":0.5,"perTrialBonusThreshold":0.05,"exampleCost":0.01},"classroomParams":{"A":{"a":1,"b":4},"B":{"a":4,"b":1},"C":{"a":2,"b":8},"D":{"a":8,"b":2}},"conditions":["nonSeqFull","nonSeqPartial","seqNoFeedback","seqFeedback"],"classroomPairings":[["A","B"],["C","D"]],"coinWeights":[0.2,0.5,0.8],"subjectId":"A58GP5CIF6DJ5","assignmentId":"3X4JMASXCNVCYEKLWV1799LTF5H0BT","hitId":"34KYK9TV2RUAD363EVFPUWVPB97SBP","url":"https://gershmanlab.com/experiments/alicia/teaching/experiment/?hitId=34KYK9TV2RUAD363EVFPUWVPB97SBP&workerId=A58GP5CIF6DJ5&assignmentId=3X4JMASXCNVCYEKLWV1799LTF5H0BT&a=XM4X7&tp_a=XM4X7&b=3X4JMASXCNVCYEKLWV1799LTF5H0BT&tp_b=3X4JMASXCNVCYEKLWV1799LTF5H0BT&c=365717&tp_c=365717","heads":4,"tails":26,"studentIndex":9,"studentTrueHypers":{"a":4,"b":1},"studentGuess":0.22857142857142856,"delta":0.27142857142857146,"totalExamples":30,"bonus":0,"bonusSoFar":0},{"rt":8307,"response":{"heads":"20","tails":"10"},"type":"response","condition":"seqFeedback","trueTheta":0.2,"classrooms":["C","D"],"studentTrueClassroom":"C","exampleSet":"first","trial_type":"survey-html-form","trial_index":84,"time_elapsed":705448,"internal_node_id":"0.0-82.0-0.0","params":{"nStudents":24,"maxFlips":30,"completionMinutes":45,"basePay":8,"maxBonus":9,"perTrialBonus":0.5,"perTrialBonusThreshold":0.05,"exampleCost":0.01},"classroomParams":{"A":{"a":1,"b":4},"B":{"a":4,"b":1},"C":{"a":2,"b":8},"D":{"a":8,"b":2}},"conditions":["nonSeqFull","nonSeqPartial","seqNoFeedback","seqFeedback"],"classroomPairings":[["A","B"],["C","D"]],"coinWeights":[0.2,0.5,0.8],"subjectId":"A58GP5CIF6DJ5","assignmentId":"3X4JMASXCNVCYEKLWV1799LTF5H0BT","hitId":"34KYK9TV2RUAD363EVFPUWVPB97SBP","url":"https://gershmanlab.com/experiments/alicia/teaching/experiment/?hitId=34KYK9TV2RUAD363EVFPUWVPB97SBP&workerId=A58GP5CIF6DJ5&assignmentId=3X4JMASXCNVCYEKLWV1799LTF5H0BT&a=XM4X7&tp_a=XM4X7&b=3X4JMASXCNVCYEKLWV1799LTF5H0BT&tp_b=3X4JMASXCNVCYEKLWV1799LTF5H0BT&c=365717&tp_c=365717","heads":20,"tails":10,"studentIndex":10,"studentTrueHypers":{"a":2,"b":8},"studentGuess":0.55,"delta":0.35000000000000003,"totalExamples":30,"bonusSoFar":0},{"rt":14220,"response":{"heads":"12","tails":"18"},"type":"response","condition":"seqFeedback","trueTheta":0.2,"classrooms":["C","D"],"studentTrueClassroom":"C","exampleSet":"second","trial_type":"survey-html-form","trial_index":88,"time_elapsed":728904,"internal_node_id":"0.0-86.0-0.0","params":{"nStudents":24,"maxFlips":30,"completionMinutes":45,"basePay":8,"maxBonus":9,"perTrialBonus":0.5,"perTrialBonusThreshold":0.05,"exampleCost":0.01},"classroomParams":{"A":{"a":1,"b":4},"B":{"a":4,"b":1},"C":{"a":2,"b":8},"D":{"a":8,"b":2}},"conditions":["nonSeqFull","nonSeqPartial","seqNoFeedback","seqFeedback"],"classroomPairings":[["A","B"],["C","D"]],"coinWeights":[0.2,0.5,0.8],"subjectId":"A58GP5CIF6DJ5","assignmentId":"3X4JMASXCNVCYEKLWV1799LTF5H0BT","hitId":"34KYK9TV2RUAD363EVFPUWVPB97SBP","url":"https://gershmanlab.com/experiments/alicia/teaching/experiment/?hitId=34KYK9TV2RUAD363EVFPUWVPB97SBP&workerId=A58GP5CIF6DJ5&assignmentId=3X4JMASXCNVCYEKLWV1799LTF5H0BT&a=XM4X7&tp_a=XM4X7&b=3X4JMASXCNVCYEKLWV1799LTF5H0BT&tp_b=3X4JMASXCNVCYEKLWV1799LTF5H0BT&c=365717&tp_c=365717","firstResponseHeads":20,"firstResponseTails":10,"secondResponseHeads":12,"secondResponseTails":18,"totalHeads":32,"totalTails":28,"studentIndex":10,"studentTrueHypers":{"a":2,"b":8},"studentGuess":0.4857142857142857,"delta":0.2857142857142857,"bonus":0,"bonusSoFar":0,"totalExamples":60},{"rt":14055,"response":{"heads":"10","tails":"20"},"type":"response","condition":"nonSeqFull","trueTheta":0.2,"classrooms":["A","B"],"studentTrueClassroom":"B","exampleSet":"first","trial_type":"survey-html-form","trial_index":94,"time_elapsed":757243,"internal_node_id":"0.0-92.0-0.0","params":{"nStudents":24,"maxFlips":30,"completionMinutes":45,"basePay":8,"maxBonus":9,"perTrialBonus":0.5,"perTrialBonusThreshold":0.05,"exampleCost":0.01},"classroomParams":{"A":{"a":1,"b":4},"B":{"a":4,"b":1},"C":{"a":2,"b":8},"D":{"a":8,"b":2}},"conditions":["nonSeqFull","nonSeqPartial","seqNoFeedback","seqFeedback"],"classroomPairings":[["A","B"],["C","D"]],"coinWeights":[0.2,0.5,0.8],"subjectId":"A58GP5CIF6DJ5","assignmentId":"3X4JMASXCNVCYEKLWV1799LTF5H0BT","hitId":"34KYK9TV2RUAD363EVFPUWVPB97SBP","url":"https://gershmanlab.com/experiments/alicia/teaching/experiment/?hitId=34KYK9TV2RUAD363EVFPUWVPB97SBP&workerId=A58GP5CIF6DJ5&assignmentId=3X4JMASXCNVCYEKLWV1799LTF5H0BT&a=XM4X7&tp_a=XM4X7&b=3X4JMASXCNVCYEKLWV1799LTF5H0BT&tp_b=3X4JMASXCNVCYEKLWV1799LTF5H0BT&c=365717&tp_c=365717","heads":10,"tails":20,"studentIndex":11,"studentTrueHypers":{"a":4,"b":1},"studentGuess":0.4,"delta":0.2,"totalExamples":30,"bonus":0,"bonusSoFar":0},{"rt":7645,"response":{"heads":"6","tails":"14"},"type":"response","condition":"nonSeqFull","trueTheta":0.8,"classrooms":["C","D"],"studentTrueClassroom":"C","exampleSet":"first","trial_type":"survey-html-form","trial_index":100,"time_elapsed":777339,"internal_node_id":"0.0-98.0-0.0","params":{"nStudents":24,"maxFlips":30,"completionMinutes":45,"basePay":8,"maxBonus":9,"perTrialBonus":0.5,"perTrialBonusThreshold":0.05,"exampleCost":0.01},"classroomParams":{"A":{"a":1,"b":4},"B":{"a":4,"b":1},"C":{"a":2,"b":8},"D":{"a":8,"b":2}},"conditions":["nonSeqFull","nonSeqPartial","seqNoFeedback","seqFeedback"],"classroomPairings":[["A","B"],["C","D"]],"coinWeights":[0.2,0.5,0.8],"subjectId":"A58GP5CIF6DJ5","assignmentId":"3X4JMASXCNVCYEKLWV1799LTF5H0BT","hitId":"34KYK9TV2RUAD363EVFPUWVPB97SBP","url":"https://gershmanlab.com/experiments/alicia/teaching/experiment/?hitId=34KYK9TV2RUAD363EVFPUWVPB97SBP&workerId=A58GP5CIF6DJ5&assignmentId=3X4JMASXCNVCYEKLWV1799LTF5H0BT&a=XM4X7&tp_a=XM4X7&b=3X4JMASXCNVCYEKLWV1799LTF5H0BT&tp_b=3X4JMASXCNVCYEKLWV1799LTF5H0BT&c=365717&tp_c=365717","heads":6,"tails":14,"studentIndex":12,"studentTrueHypers":{"a":2,"b":8},"studentGuess":0.26666666666666666,"delta":0.5333333333333334,"totalExamples":20,"bonus":0,"bonusSoFar":0},{"rt":10015,"response":{"heads":"10","tails":"20"},"type":"response","condition":"nonSeqPartial","trueTheta":0.2,"classrooms":["A","B"],"studentTrueClassroom":"A","exampleSet":"first","trial_type":"survey-html-form","trial_index":106,"time_elapsed":799940,"internal_node_id":"0.0-104.0-0.0","params":{"nStudents":24,"maxFlips":30,"completionMinutes":45,"basePay":8,"maxBonus":9,"perTrialBonus":0.5,"perTrialBonusThreshold":0.05,"exampleCost":0.01},"classroomParams":{"A":{"a":1,"b":4},"B":{"a":4,"b":1},"C":{"a":2,"b":8},"D":{"a":8,"b":2}},"conditions":["nonSeqFull","nonSeqPartial","seqNoFeedback","seqFeedback"],"classroomPairings":[["A","B"],["C","D"]],"coinWeights":[0.2,0.5,0.8],"subjectId":"A58GP5CIF6DJ5","assignmentId":"3X4JMASXCNVCYEKLWV1799LTF5H0BT","hitId":"34KYK9TV2RUAD363EVFPUWVPB97SBP","url":"https://gershmanlab.com/experiments/alicia/teaching/experiment/?hitId=34KYK9TV2RUAD363EVFPUWVPB97SBP&workerId=A58GP5CIF6DJ5&assignmentId=3X4JMASXCNVCYEKLWV1799LTF5H0BT&a=XM4X7&tp_a=XM4X7&b=3X4JMASXCNVCYEKLWV1799LTF5H0BT&tp_b=3X4JMASXCNVCYEKLWV1799LTF5H0BT&c=365717&tp_c=365717","heads":10,"tails":20,"studentIndex":13,"studentTrueHypers":{"a":1,"b":4},"studentGuess":0.3142857142857143,"delta":0.11428571428571427,"totalExamples":30,"bonus":0,"bonusSoFar":0},{"rt":9273,"response":{"heads":"18","tails":"12"},"type":"response","condition":"seqNoFeedback","trueTheta":0.2,"classrooms":["C","D"],"studentTrueClassroom":"C","exampleSet":"first","trial_type":"survey-html-form","trial_index":112,"time_elapsed":823966,"internal_node_id":"0.0-110.0-0.0","params":{"nStudents":24,"maxFlips":30,"completionMinutes":45,"basePay":8,"maxBonus":9,"perTrialBonus":0.5,"perTrialBonusThreshold":0.05,"exampleCost":0.01},"classroomParams":{"A":{"a":1,"b":4},"B":{"a":4,"b":1},"C":{"a":2,"b":8},"D":{"a":8,"b":2}},"conditions":["nonSeqFull","nonSeqPartial","seqNoFeedback","seqFeedback"],"classroomPairings":[["A","B"],["C","D"]],"coinWeights":[0.2,0.5,0.8],"subjectId":"A58GP5CIF6DJ5","assignmentId":"3X4JMASXCNVCYEKLWV1799LTF5H0BT","hitId":"34KYK9TV2RUAD363EVFPUWVPB97SBP","url":"https://gershmanlab.com/experiments/alicia/teaching/experiment/?hitId=34KYK9TV2RUAD363EVFPUWVPB97SBP&workerId=A58GP5CIF6DJ5&assignmentId=3X4JMASXCNVCYEKLWV1799LTF5H0BT&a=XM4X7&tp_a=XM4X7&b=3X4JMASXCNVCYEKLWV1799LTF5H0BT&tp_b=3X4JMASXCNVCYEKLWV1799LTF5H0BT&c=365717&tp_c=365717","heads":18,"tails":12,"studentIndex":14,"studentTrueHypers":{"a":2,"b":8},"studentGuess":0.5,"delta":0.3,"totalExamples":30,"bonusSoFar":0},{"rt":7327,"response":{"heads":"0","tails":"30"},"type":"response","condition":"seqNoFeedback","trueTheta":0.2,"classrooms":["C","D"],"studentTrueClassroom":"C","exampleSet":"second","trial_type":"survey-html-form","trial_index":115,"time_elapsed":838572,"internal_node_id":"0.0-113.0-0.0","params":{"nStudents":24,"maxFlips":30,"completionMinutes":45,"basePay":8,"maxBonus":9,"perTrialBonus":0.5,"perTrialBonusThreshold":0.05,"exampleCost":0.01},"classroomParams":{"A":{"a":1,"b":4},"B":{"a":4,"b":1},"C":{"a":2,"b":8},"D":{"a":8,"b":2}},"conditions":["nonSeqFull","nonSeqPartial","seqNoFeedback","seqFeedback"],"classroomPairings":[["A","B"],["C","D"]],"coinWeights":[0.2,0.5,0.8],"subjectId":"A58GP5CIF6DJ5","assignmentId":"3X4JMASXCNVCYEKLWV1799LTF5H0BT","hitId":"34KYK9TV2RUAD363EVFPUWVPB97SBP","url":"https://gershmanlab.com/experiments/alicia/teaching/experiment/?hitId=34KYK9TV2RUAD363EVFPUWVPB97SBP&workerId=A58GP5CIF6DJ5&assignmentId=3X4JMASXCNVCYEKLWV1799LTF5H0BT&a=XM4X7&tp_a=XM4X7&b=3X4JMASXCNVCYEKLWV1799LTF5H0BT&tp_b=3X4JMASXCNVCYEKLWV1799LTF5H0BT&c=365717&tp_c=365717","firstResponseHeads":18,"firstResponseTails":12,"secondResponseHeads":0,"secondResponseTails":30,"totalHeads":18,"totalTails":42,"studentIndex":14,"studentTrueHypers":{"a":2,"b":8},"studentGuess":0.2857142857142857,"delta":0.08571428571428569,"bonus":0,"bonusSoFar":0,"totalExamples":60},{"rt":4265,"response":{"heads":"30","tails":"0"},"type":"response","condition":"seqNoFeedback","trueTheta":0.8,"classrooms":["A","B"],"studentTrueClassroom":"A","exampleSet":"first","trial_type":"survey-html-form","trial_index":121,"time_elapsed":854086,"internal_node_id":"0.0-119.0-0.0","params":{"nStudents":24,"maxFlips":30,"completionMinutes":45,"basePay":8,"maxBonus":9,"perTrialBonus":0.5,"perTrialBonusThreshold":0.05,"exampleCost":0.01},"classroomParams":{"A":{"a":1,"b":4},"B":{"a":4,"b":1},"C":{"a":2,"b":8},"D":{"a":8,"b":2}},"conditions":["nonSeqFull","nonSeqPartial","seqNoFeedback","seqFeedback"],"classroomPairings":[["A","B"],["C","D"]],"coinWeights":[0.2,0.5,0.8],"subjectId":"A58GP5CIF6DJ5","assignmentId":"3X4JMASXCNVCYEKLWV1799LTF5H0BT","hitId":"34KYK9TV2RUAD363EVFPUWVPB97SBP","url":"https://gershmanlab.com/experiments/alicia/teaching/experiment/?hitId=34KYK9TV2RUAD363EVFPUWVPB97SBP&workerId=A58GP5CIF6DJ5&assignmentId=3X4JMASXCNVCYEKLWV1799LTF5H0BT&a=XM4X7&tp_a=XM4X7&b=3X4JMASXCNVCYEKLWV1799LTF5H0BT&tp_b=3X4JMASXCNVCYEKLWV1799LTF5H0BT&c=365717&tp_c=365717","heads":30,"tails":0,"studentIndex":15,"studentTrueHypers":{"a":1,"b":4},"studentGuess":0.8857142857142857,"delta":0.08571428571428563,"totalExamples":30,"bonusSoFar":0},{"rt":6200,"response":{"heads":"30","tails":"0"},"type":"response","condition":"seqNoFeedback","trueTheta":0.8,"classrooms":["A","B"],"studentTrueClassroom":"A","exampleSet":"second","trial_type":"survey-html-form","trial_index":124,"time_elapsed":868308,"internal_node_id":"0.0-122.0-0.0","params":{"nStudents":24,"maxFlips":30,"completionMinutes":45,"basePay":8,"maxBonus":9,"perTrialBonus":0.5,"perTrialBonusThreshold":0.05,"exampleCost":0.01},"classroomParams":{"A":{"a":1,"b":4},"B":{"a":4,"b":1},"C":{"a":2,"b":8},"D":{"a":8,"b":2}},"conditions":["nonSeqFull","nonSeqPartial","seqNoFeedback","seqFeedback"],"classroomPairings":[["A","B"],["C","D"]],"coinWeights":[0.2,0.5,0.8],"subjectId":"A58GP5CIF6DJ5","assignmentId":"3X4JMASXCNVCYEKLWV1799LTF5H0BT","hitId":"34KYK9TV2RUAD363EVFPUWVPB97SBP","url":"https://gershmanlab.com/experiments/alicia/teaching/experiment/?hitId=34KYK9TV2RUAD363EVFPUWVPB97SBP&workerId=A58GP5CIF6DJ5&assignmentId=3X4JMASXCNVCYEKLWV1799LTF5H0BT&a=XM4X7&tp_a=XM4X7&b=3X4JMASXCNVCYEKLWV1799LTF5H0BT&tp_b=3X4JMASXCNVCYEKLWV1799LTF5H0BT&c=365717&tp_c=365717","firstResponseHeads":30,"firstResponseTails":0,"secondResponseHeads":30,"secondResponseTails":0,"totalHeads":60,"totalTails":0,"studentIndex":15,"studentTrueHypers":{"a":1,"b":4},"studentGuess":0.9384615384615385,"delta":0.1384615384615384,"bonus":0,"bonusSoFar":0,"totalExamples":60},{"rt":6113,"response":{"heads":"12","tails":"8"},"type":"response","condition":"nonSeqFull","trueTheta":0.8,"classrooms":["A","B"],"studentTrueClassroom":"B","exampleSet":"first","trial_type":"survey-html-form","trial_index":130,"time_elapsed":886556,"internal_node_id":"0.0-128.0-0.0","params":{"nStudents":24,"maxFlips":30,"completionMinutes":45,"basePay":8,"maxBonus":9,"perTrialBonus":0.5,"perTrialBonusThreshold":0.05,"exampleCost":0.01},"classroomParams":{"A":{"a":1,"b":4},"B":{"a":4,"b":1},"C":{"a":2,"b":8},"D":{"a":8,"b":2}},"conditions":["nonSeqFull","nonSeqPartial","seqNoFeedback","seqFeedback"],"classroomPairings":[["A","B"],["C","D"]],"coinWeights":[0.2,0.5,0.8],"subjectId":"A58GP5CIF6DJ5","assignmentId":"3X4JMASXCNVCYEKLWV1799LTF5H0BT","hitId":"34KYK9TV2RUAD363EVFPUWVPB97SBP","url":"https://gershmanlab.com/experiments/alicia/teaching/experiment/?hitId=34KYK9TV2RUAD363EVFPUWVPB97SBP&workerId=A58GP5CIF6DJ5&assignmentId=3X4JMASXCNVCYEKLWV1799LTF5H0BT&a=XM4X7&tp_a=XM4X7&b=3X4JMASXCNVCYEKLWV1799LTF5H0BT&tp_b=3X4JMASXCNVCYEKLWV1799LTF5H0BT&c=365717&tp_c=365717","heads":12,"tails":8,"studentIndex":16,"studentTrueHypers":{"a":4,"b":1},"studentGuess":0.64,"delta":0.16000000000000003,"totalExamples":20,"bonus":0,"bonusSoFar":0},{"rt":5615,"response":{"heads":"30","tails":"0"},"type":"response","condition":"seqFeedback","trueTheta":0.8,"classrooms":["A","B"],"studentTrueClassroom":"B","exampleSet":"first","trial_type":"survey-html-form","trial_index":136,"time_elapsed":905202,"internal_node_id":"0.0-134.0-0.0","params":{"nStudents":24,"maxFlips":30,"completionMinutes":45,"basePay":8,"maxBonus":9,"perTrialBonus":0.5,"perTrialBonusThreshold":0.05,"exampleCost":0.01},"classroomParams":{"A":{"a":1,"b":4},"B":{"a":4,"b":1},"C":{"a":2,"b":8},"D":{"a":8,"b":2}},"conditions":["nonSeqFull","nonSeqPartial","seqNoFeedback","seqFeedback"],"classroomPairings":[["A","B"],["C","D"]],"coinWeights":[0.2,0.5,0.8],"subjectId":"A58GP5CIF6DJ5","assignmentId":"3X4JMASXCNVCYEKLWV1799LTF5H0BT","hitId":"34KYK9TV2RUAD363EVFPUWVPB97SBP","url":"https://gershmanlab.com/experiments/alicia/teaching/experiment/?hitId=34KYK9TV2RUAD363EVFPUWVPB97SBP&workerId=A58GP5CIF6DJ5&assignmentId=3X4JMASXCNVCYEKLWV1799LTF5H0BT&a=XM4X7&tp_a=XM4X7&b=3X4JMASXCNVCYEKLWV1799LTF5H0BT&tp_b=3X4JMASXCNVCYEKLWV1799LTF5H0BT&c=365717&tp_c=365717","heads":30,"tails":0,"studentIndex":17,"studentTrueHypers":{"a":4,"b":1},"studentGuess":0.9714285714285714,"delta":0.17142857142857137,"totalExamples":30,"bonusSoFar":0},{"rt":8939,"response":{"heads":"15","tails":"15"},"type":"response","condition":"seqFeedback","trueTheta":0.8,"classrooms":["A","B"],"studentTrueClassroom":"B","exampleSet":"second","trial_type":"survey-html-form","trial_index":140,"time_elapsed":923102,"internal_node_id":"0.0-138.0-0.0","params":{"nStudents":24,"maxFlips":30,"completionMinutes":45,"basePay":8,"maxBonus":9,"perTrialBonus":0.5,"perTrialBonusThreshold":0.05,"exampleCost":0.01},"classroomParams":{"A":{"a":1,"b":4},"B":{"a":4,"b":1},"C":{"a":2,"b":8},"D":{"a":8,"b":2}},"conditions":["nonSeqFull","nonSeqPartial","seqNoFeedback","seqFeedback"],"classroomPairings":[["A","B"],["C","D"]],"coinWeights":[0.2,0.5,0.8],"subjectId":"A58GP5CIF6DJ5","assignmentId":"3X4JMASXCNVCYEKLWV1799LTF5H0BT","hitId":"34KYK9TV2RUAD363EVFPUWVPB97SBP","url":"https://gershmanlab.com/experiments/alicia/teaching/experiment/?hitId=34KYK9TV2RUAD363EVFPUWVPB97SBP&workerId=A58GP5CIF6DJ5&assignmentId=3X4JMASXCNVCYEKLWV1799LTF5H0BT&a=XM4X7&tp_a=XM4X7&b=3X4JMASXCNVCYEKLWV1799LTF5H0BT&tp_b=3X4JMASXCNVCYEKLWV1799LTF5H0BT&c=365717&tp_c=365717","firstResponseHeads":30,"firstResponseTails":0,"secondResponseHeads":15,"secondResponseTails":15,"totalHeads":45,"totalTails":15,"studentIndex":17,"studentTrueHypers":{"a":4,"b":1},"studentGuess":0.7538461538461538,"delta":0.04615384615384621,"bonus":0,"bonusSoFar":0,"totalExamples":60},{"rt":6579,"response":{"heads":"15","tails":"15"},"type":"response","condition":"nonSeqFull","trueTheta":0.5,"classrooms":["C","D"],"studentTrueClassroom":"D","exampleSet":"first","trial_type":"survey-html-form","trial_index":146,"time_elapsed":943788,"internal_node_id":"0.0-144.0-0.0","params":{"nStudents":24,"maxFlips":30,"completionMinutes":45,"basePay":8,"maxBonus":9,"perTrialBonus":0.5,"perTrialBonusThreshold":0.05,"exampleCost":0.01},"classroomParams":{"A":{"a":1,"b":4},"B":{"a":4,"b":1},"C":{"a":2,"b":8},"D":{"a":8,"b":2}},"conditions":["nonSeqFull","nonSeqPartial","seqNoFeedback","seqFeedback"],"classroomPairings":[["A","B"],["C","D"]],"coinWeights":[0.2,0.5,0.8],"subjectId":"A58GP5CIF6DJ5","assignmentId":"3X4JMASXCNVCYEKLWV1799LTF5H0BT","hitId":"34KYK9TV2RUAD363EVFPUWVPB97SBP","url":"https://gershmanlab.com/experiments/alicia/teaching/experiment/?hitId=34KYK9TV2RUAD363EVFPUWVPB97SBP&workerId=A58GP5CIF6DJ5&assignmentId=3X4JMASXCNVCYEKLWV1799LTF5H0BT&a=XM4X7&tp_a=XM4X7&b=3X4JMASXCNVCYEKLWV1799LTF5H0BT&tp_b=3X4JMASXCNVCYEKLWV1799LTF5H0BT&c=365717&tp_c=365717","heads":15,"tails":15,"studentIndex":18,"studentTrueHypers":{"a":8,"b":2},"studentGuess":0.575,"delta":0.07499999999999996,"totalExamples":30,"bonus":0,"bonusSoFar":0},{"rt":6119,"response":{"heads":"15","tails":"15"},"type":"response","condition":"seqNoFeedback","trueTheta":0.5,"classrooms":["A","B"],"studentTrueClassroom":"A","exampleSet":"first","trial_type":"survey-html-form","trial_index":152,"time_elapsed":962816,"internal_node_id":"0.0-150.0-0.0","params":{"nStudents":24,"maxFlips":30,"completionMinutes":45,"basePay":8,"maxBonus":9,"perTrialBonus":0.5,"perTrialBonusThreshold":0.05,"exampleCost":0.01},"classroomParams":{"A":{"a":1,"b":4},"B":{"a":4,"b":1},"C":{"a":2,"b":8},"D":{"a":8,"b":2}},"conditions":["nonSeqFull","nonSeqPartial","seqNoFeedback","seqFeedback"],"classroomPairings":[["A","B"],["C","D"]],"coinWeights":[0.2,0.5,0.8],"subjectId":"A58GP5CIF6DJ5","assignmentId":"3X4JMASXCNVCYEKLWV1799LTF5H0BT","hitId":"34KYK9TV2RUAD363EVFPUWVPB97SBP","url":"https://gershmanlab.com/experiments/alicia/teaching/experiment/?hitId=34KYK9TV2RUAD363EVFPUWVPB97SBP&workerId=A58GP5CIF6DJ5&assignmentId=3X4JMASXCNVCYEKLWV1799LTF5H0BT&a=XM4X7&tp_a=XM4X7&b=3X4JMASXCNVCYEKLWV1799LTF5H0BT&tp_b=3X4JMASXCNVCYEKLWV1799LTF5H0BT&c=365717&tp_c=365717","heads":15,"tails":15,"studentIndex":19,"studentTrueHypers":{"a":1,"b":4},"studentGuess":0.45714285714285713,"delta":0.04285714285714287,"totalExamples":30,"bonusSoFar":0},{"rt":9278,"response":{"heads":"15","tails":"15"},"type":"response","condition":"seqNoFeedback","trueTheta":0.5,"classrooms":["A","B"],"studentTrueClassroom":"A","exampleSet":"second","trial_type":"survey-html-form","trial_index":155,"time_elapsed":978863,"internal_node_id":"0.0-153.0-0.0","params":{"nStudents":24,"maxFlips":30,"completionMinutes":45,"basePay":8,"maxBonus":9,"perTrialBonus":0.5,"perTrialBonusThreshold":0.05,"exampleCost":0.01},"classroomParams":{"A":{"a":1,"b":4},"B":{"a":4,"b":1},"C":{"a":2,"b":8},"D":{"a":8,"b":2}},"conditions":["nonSeqFull","nonSeqPartial","seqNoFeedback","seqFeedback"],"classroomPairings":[["A","B"],["C","D"]],"coinWeights":[0.2,0.5,0.8],"subjectId":"A58GP5CIF6DJ5","assignmentId":"3X4JMASXCNVCYEKLWV1799LTF5H0BT","hitId":"34KYK9TV2RUAD363EVFPUWVPB97SBP","url":"https://gershmanlab.com/experiments/alicia/teaching/experiment/?hitId=34KYK9TV2RUAD363EVFPUWVPB97SBP&workerId=A58GP5CIF6DJ5&assignmentId=3X4JMASXCNVCYEKLWV1799LTF5H0BT&a=XM4X7&tp_a=XM4X7&b=3X4JMASXCNVCYEKLWV1799LTF5H0BT&tp_b=3X4JMASXCNVCYEKLWV1799LTF5H0BT&c=365717&tp_c=365717","firstResponseHeads":15,"firstResponseTails":15,"secondResponseHeads":15,"secondResponseTails":15,"totalHeads":30,"totalTails":30,"studentIndex":19,"studentTrueHypers":{"a":1,"b":4},"studentGuess":0.47692307692307695,"delta":0.02307692307692305,"bonus":0,"bonusSoFar":0,"totalExamples":60},{"rt":1597,"response":{"heads":"0","tails":"0"},"type":"response","condition":"seqNoFeedback","trueTheta":0.2,"classrooms":["A","B"],"studentTrueClassroom":"B","exampleSet":"first","trial_type":"survey-html-form","trial_index":161,"time_elapsed":995848,"internal_node_id":"0.0-159.0-0.0","params":{"nStudents":24,"maxFlips":30,"completionMinutes":45,"basePay":8,"maxBonus":9,"perTrialBonus":0.5,"perTrialBonusThreshold":0.05,"exampleCost":0.01},"classroomParams":{"A":{"a":1,"b":4},"B":{"a":4,"b":1},"C":{"a":2,"b":8},"D":{"a":8,"b":2}},"conditions":["nonSeqFull","nonSeqPartial","seqNoFeedback","seqFeedback"],"classroomPairings":[["A","B"],["C","D"]],"coinWeights":[0.2,0.5,0.8],"subjectId":"A58GP5CIF6DJ5","assignmentId":"3X4JMASXCNVCYEKLWV1799LTF5H0BT","hitId":"34KYK9TV2RUAD363EVFPUWVPB97SBP","url":"https://gershmanlab.com/experiments/alicia/teaching/experiment/?hitId=34KYK9TV2RUAD363EVFPUWVPB97SBP&workerId=A58GP5CIF6DJ5&assignmentId=3X4JMASXCNVCYEKLWV1799LTF5H0BT&a=XM4X7&tp_a=XM4X7&b=3X4JMASXCNVCYEKLWV1799LTF5H0BT&tp_b=3X4JMASXCNVCYEKLWV1799LTF5H0BT&c=365717&tp_c=365717","heads":0,"tails":0,"studentIndex":20,"studentTrueHypers":{"a":4,"b":1},"studentGuess":0.8,"delta":0.6000000000000001,"totalExamples":0,"bonusSoFar":0},{"rt":4672,"response":{"heads":"0","tails":"0"},"type":"response","condition":"seqNoFeedback","trueTheta":0.2,"classrooms":["A","B"],"studentTrueClassroom":"B","exampleSet":"first","trial_type":"survey-html-form","trial_index":162,"time_elapsed":1000522,"internal_node_id":"0.0-159.1-0.1","params":{"nStudents":24,"maxFlips":30,"completionMinutes":45,"basePay":8,"maxBonus":9,"perTrialBonus":0.5,"perTrialBonusThreshold":0.05,"exampleCost":0.01},"classroomParams":{"A":{"a":1,"b":4},"B":{"a":4,"b":1},"C":{"a":2,"b":8},"D":{"a":8,"b":2}},"conditions":["nonSeqFull","nonSeqPartial","seqNoFeedback","seqFeedback"],"classroomPairings":[["A","B"],["C","D"]],"coinWeights":[0.2,0.5,0.8],"subjectId":"A58GP5CIF6DJ5","assignmentId":"3X4JMASXCNVCYEKLWV1799LTF5H0BT","hitId":"34KYK9TV2RUAD363EVFPUWVPB97SBP","url":"https://gershmanlab.com/experiments/alicia/teaching/experiment/?hitId=34KYK9TV2RUAD363EVFPUWVPB97SBP&workerId=A58GP5CIF6DJ5&assignmentId=3X4JMASXCNVCYEKLWV1799LTF5H0BT&a=XM4X7&tp_a=XM4X7&b=3X4JMASXCNVCYEKLWV1799LTF5H0BT&tp_b=3X4JMASXCNVCYEKLWV1799LTF5H0BT&c=365717&tp_c=365717","heads":0,"tails":0,"studentIndex":20,"studentTrueHypers":{"a":4,"b":1},"studentGuess":0.8,"delta":0.6000000000000001,"totalExamples":0,"bonusSoFar":0},{"rt":7526,"response":{"heads":"1","tails":"1"},"type":"response","condition":"seqNoFeedback","trueTheta":0.2,"classrooms":["A","B"],"studentTrueClassroom":"B","exampleSet":"first","trial_type":"survey-html-form","trial_index":163,"time_elapsed":1008050,"internal_node_id":"0.0-159.2-0.2","params":{"nStudents":24,"maxFlips":30,"completionMinutes":45,"basePay":8,"maxBonus":9,"perTrialBonus":0.5,"perTrialBonusThreshold":0.05,"exampleCost":0.01},"classroomParams":{"A":{"a":1,"b":4},"B":{"a":4,"b":1},"C":{"a":2,"b":8},"D":{"a":8,"b":2}},"conditions":["nonSeqFull","nonSeqPartial","seqNoFeedback","seqFeedback"],"classroomPairings":[["A","B"],["C","D"]],"coinWeights":[0.2,0.5,0.8],"subjectId":"A58GP5CIF6DJ5","assignmentId":"3X4JMASXCNVCYEKLWV1799LTF5H0BT","hitId":"34KYK9TV2RUAD363EVFPUWVPB97SBP","url":"https://gershmanlab.com/experiments/alicia/teaching/experiment/?hitId=34KYK9TV2RUAD363EVFPUWVPB97SBP&workerId=A58GP5CIF6DJ5&assignmentId=3X4JMASXCNVCYEKLWV1799LTF5H0BT&a=XM4X7&tp_a=XM4X7&b=3X4JMASXCNVCYEKLWV1799LTF5H0BT&tp_b=3X4JMASXCNVCYEKLWV1799LTF5H0BT&c=365717&tp_c=365717","heads":1,"tails":1,"studentIndex":20,"studentTrueHypers":{"a":4,"b":1},"studentGuess":0.7142857142857143,"delta":0.5142857142857142,"totalExamples":2,"bonusSoFar":0},{"rt":7931,"response":{"heads":"7","tails":"13"},"type":"response","condition":"seqNoFeedback","trueTheta":0.2,"classrooms":["A","B"],"studentTrueClassroom":"B","exampleSet":"second","trial_type":"survey-html-form","trial_index":166,"time_elapsed":1021997,"internal_node_id":"0.0-162.0-0.0","params":{"nStudents":24,"maxFlips":30,"completionMinutes":45,"basePay":8,"maxBonus":9,"perTrialBonus":0.5,"perTrialBonusThreshold":0.05,"exampleCost":0.01},"classroomParams":{"A":{"a":1,"b":4},"B":{"a":4,"b":1},"C":{"a":2,"b":8},"D":{"a":8,"b":2}},"conditions":["nonSeqFull","nonSeqPartial","seqNoFeedback","seqFeedback"],"classroomPairings":[["A","B"],["C","D"]],"coinWeights":[0.2,0.5,0.8],"subjectId":"A58GP5CIF6DJ5","assignmentId":"3X4JMASXCNVCYEKLWV1799LTF5H0BT","hitId":"34KYK9TV2RUAD363EVFPUWVPB97SBP","url":"https://gershmanlab.com/experiments/alicia/teaching/experiment/?hitId=34KYK9TV2RUAD363EVFPUWVPB97SBP&workerId=A58GP5CIF6DJ5&assignmentId=3X4JMASXCNVCYEKLWV1799LTF5H0BT&a=XM4X7&tp_a=XM4X7&b=3X4JMASXCNVCYEKLWV1799LTF5H0BT&tp_b=3X4JMASXCNVCYEKLWV1799LTF5H0BT&c=365717&tp_c=365717","firstResponseHeads":0,"firstResponseTails":0,"secondResponseHeads":7,"secondResponseTails":13,"totalHeads":7,"totalTails":13,"studentIndex":20,"studentTrueHypers":{"a":4,"b":1},"studentGuess":0.44,"delta":0.24,"bonus":0,"bonusSoFar":0,"totalExamples":20},{"rt":8523,"response":{"heads":"15","tails":"15"},"type":"response","condition":"nonSeqPartial","trueTheta":0.5,"classrooms":["A","B"],"studentTrueClassroom":"B","exampleSet":"first","trial_type":"survey-html-form","trial_index":172,"time_elapsed":1042357,"internal_node_id":"0.0-168.0-0.0","params":{"nStudents":24,"maxFlips":30,"completionMinutes":45,"basePay":8,"maxBonus":9,"perTrialBonus":0.5,"perTrialBonusThreshold":0.05,"exampleCost":0.01},"classroomParams":{"A":{"a":1,"b":4},"B":{"a":4,"b":1},"C":{"a":2,"b":8},"D":{"a":8,"b":2}},"conditions":["nonSeqFull","nonSeqPartial","seqNoFeedback","seqFeedback"],"classroomPairings":[["A","B"],["C","D"]],"coinWeights":[0.2,0.5,0.8],"subjectId":"A58GP5CIF6DJ5","assignmentId":"3X4JMASXCNVCYEKLWV1799LTF5H0BT","hitId":"34KYK9TV2RUAD363EVFPUWVPB97SBP","url":"https://gershmanlab.com/experiments/alicia/teaching/experiment/?hitId=34KYK9TV2RUAD363EVFPUWVPB97SBP&workerId=A58GP5CIF6DJ5&assignmentId=3X4JMASXCNVCYEKLWV1799LTF5H0BT&a=XM4X7&tp_a=XM4X7&b=3X4JMASXCNVCYEKLWV1799LTF5H0BT&tp_b=3X4JMASXCNVCYEKLWV1799LTF5H0BT&c=365717&tp_c=365717","heads":15,"tails":15,"studentIndex":21,"studentTrueHypers":{"a":4,"b":1},"studentGuess":0.5428571428571428,"delta":0.042857142857142816,"totalExamples":30,"bonus":0.2,"bonusSoFar":0.2},{"rt":5907,"response":{"heads":"15","tails":"15"},"type":"response","condition":"seqNoFeedback","trueTheta":0.5,"classrooms":["C","D"],"studentTrueClassroom":"D","exampleSet":"first","trial_type":"survey-html-form","trial_index":178,"time_elapsed":1063705,"internal_node_id":"0.0-174.0-0.0","params":{"nStudents":24,"maxFlips":30,"completionMinutes":45,"basePay":8,"maxBonus":9,"perTrialBonus":0.5,"perTrialBonusThreshold":0.05,"exampleCost":0.01},"classroomParams":{"A":{"a":1,"b":4},"B":{"a":4,"b":1},"C":{"a":2,"b":8},"D":{"a":8,"b":2}},"conditions":["nonSeqFull","nonSeqPartial","seqNoFeedback","seqFeedback"],"classroomPairings":[["A","B"],["C","D"]],"coinWeights":[0.2,0.5,0.8],"subjectId":"A58GP5CIF6DJ5","assignmentId":"3X4JMASXCNVCYEKLWV1799LTF5H0BT","hitId":"34KYK9TV2RUAD363EVFPUWVPB97SBP","url":"https://gershmanlab.com/experiments/alicia/teaching/experiment/?hitId=34KYK9TV2RUAD363EVFPUWVPB97SBP&workerId=A58GP5CIF6DJ5&assignmentId=3X4JMASXCNVCYEKLWV1799LTF5H0BT&a=XM4X7&tp_a=XM4X7&b=3X4JMASXCNVCYEKLWV1799LTF5H0BT&tp_b=3X4JMASXCNVCYEKLWV1799LTF5H0BT&c=365717&tp_c=365717","heads":15,"tails":15,"studentIndex":22,"studentTrueHypers":{"a":8,"b":2},"studentGuess":0.575,"delta":0.07499999999999996,"totalExamples":30,"bonusSoFar":0.2},{"rt":10447,"response":{"heads":"15","tails":"15"},"type":"response","condition":"seqNoFeedback","trueTheta":0.5,"classrooms":["C","D"],"studentTrueClassroom":"D","exampleSet":"second","trial_type":"survey-html-form","trial_index":181,"time_elapsed":1079923,"internal_node_id":"0.0-177.0-0.0","params":{"nStudents":24,"maxFlips":30,"completionMinutes":45,"basePay":8,"maxBonus":9,"perTrialBonus":0.5,"perTrialBonusThreshold":0.05,"exampleCost":0.01},"classroomParams":{"A":{"a":1,"b":4},"B":{"a":4,"b":1},"C":{"a":2,"b":8},"D":{"a":8,"b":2}},"conditions":["nonSeqFull","nonSeqPartial","seqNoFeedback","seqFeedback"],"classroomPairings":[["A","B"],["C","D"]],"coinWeights":[0.2,0.5,0.8],"subjectId":"A58GP5CIF6DJ5","assignmentId":"3X4JMASXCNVCYEKLWV1799LTF5H0BT","hitId":"34KYK9TV2RUAD363EVFPUWVPB97SBP","url":"https://gershmanlab.com/experiments/alicia/teaching/experiment/?hitId=34KYK9TV2RUAD363EVFPUWVPB97SBP&workerId=A58GP5CIF6DJ5&assignmentId=3X4JMASXCNVCYEKLWV1799LTF5H0BT&a=XM4X7&tp_a=XM4X7&b=3X4JMASXCNVCYEKLWV1799LTF5H0BT&tp_b=3X4JMASXCNVCYEKLWV1799LTF5H0BT&c=365717&tp_c=365717","firstResponseHeads":15,"firstResponseTails":15,"secondResponseHeads":15,"secondResponseTails":15,"totalHeads":30,"totalTails":30,"studentIndex":22,"studentTrueHypers":{"a":8,"b":2},"studentGuess":0.5428571428571428,"delta":0.042857142857142816,"bonus":0,"bonusSoFar":0.2,"totalExamples":60},{"rt":8617,"response":{"heads":"8","tails":"2"},"type":"response","condition":"seqNoFeedback","trueTheta":0.8,"classrooms":["C","D"],"studentTrueClassroom":"C","exampleSet":"first","trial_type":"survey-html-form","trial_index":187,"time_elapsed":1103469,"internal_node_id":"0.0-183.0-0.0","params":{"nStudents":24,"maxFlips":30,"completionMinutes":45,"basePay":8,"maxBonus":9,"perTrialBonus":0.5,"perTrialBonusThreshold":0.05,"exampleCost":0.01},"classroomParams":{"A":{"a":1,"b":4},"B":{"a":4,"b":1},"C":{"a":2,"b":8},"D":{"a":8,"b":2}},"conditions":["nonSeqFull","nonSeqPartial","seqNoFeedback","seqFeedback"],"classroomPairings":[["A","B"],["C","D"]],"coinWeights":[0.2,0.5,0.8],"subjectId":"A58GP5CIF6DJ5","assignmentId":"3X4JMASXCNVCYEKLWV1799LTF5H0BT","hitId":"34KYK9TV2RUAD363EVFPUWVPB97SBP","url":"https://gershmanlab.com/experiments/alicia/teaching/experiment/?hitId=34KYK9TV2RUAD363EVFPUWVPB97SBP&workerId=A58GP5CIF6DJ5&assignmentId=3X4JMASXCNVCYEKLWV1799LTF5H0BT&a=XM4X7&tp_a=XM4X7&b=3X4JMASXCNVCYEKLWV1799LTF5H0BT&tp_b=3X4JMASXCNVCYEKLWV1799LTF5H0BT&c=365717&tp_c=365717","heads":8,"tails":2,"studentIndex":23,"studentTrueHypers":{"a":2,"b":8},"studentGuess":0.5,"delta":0.30000000000000004,"totalExamples":10,"bonusSoFar":0.2},{"rt":9839,"response":{"heads":"8","tails":"1"},"type":"response","condition":"seqNoFeedback","trueTheta":0.8,"classrooms":["C","D"],"studentTrueClassroom":"C","exampleSet":"second","trial_type":"survey-html-form","trial_index":190,"time_elapsed":1121085,"internal_node_id":"0.0-186.0-0.0","params":{"nStudents":24,"maxFlips":30,"completionMinutes":45,"basePay":8,"maxBonus":9,"perTrialBonus":0.5,"perTrialBonusThreshold":0.05,"exampleCost":0.01},"classroomParams":{"A":{"a":1,"b":4},"B":{"a":4,"b":1},"C":{"a":2,"b":8},"D":{"a":8,"b":2}},"conditions":["nonSeqFull","nonSeqPartial","seqNoFeedback","seqFeedback"],"classroomPairings":[["A","B"],["C","D"]],"coinWeights":[0.2,0.5,0.8],"subjectId":"A58GP5CIF6DJ5","assignmentId":"3X4JMASXCNVCYEKLWV1799LTF5H0BT","hitId":"34KYK9TV2RUAD363EVFPUWVPB97SBP","url":"https://gershmanlab.com/experiments/alicia/teaching/experiment/?hitId=34KYK9TV2RUAD363EVFPUWVPB97SBP&workerId=A58GP5CIF6DJ5&assignmentId=3X4JMASXCNVCYEKLWV1799LTF5H0BT&a=XM4X7&tp_a=XM4X7&b=3X4JMASXCNVCYEKLWV1799LTF5H0BT&tp_b=3X4JMASXCNVCYEKLWV1799LTF5H0BT&c=365717&tp_c=365717","firstResponseHeads":8,"firstResponseTails":2,"secondResponseHeads":8,"secondResponseTails":1,"totalHeads":16,"totalTails":3,"studentIndex":23,"studentTrueHypers":{"a":2,"b":8},"studentGuess":0.6206896551724138,"delta":0.17931034482758623,"bonus":0,"bonusSoFar":0.2,"totalExamples":19},{"rt":38510,"response":{"gender":"female","age":"44","understood":"no","comments":"i was confused as to how to give examples "},"type":"response","trial_type":"survey-html-form","trial_index":194,"time_elapsed":1169979,"internal_node_id":"0.0-191.0","params":{"nStudents":24,"maxFlips":30,"completionMinutes":45,"basePay":8,"maxBonus":9,"perTrialBonus":0.5,"perTrialBonusThreshold":0.05,"exampleCost":0.01},"classroomParams":{"A":{"a":1,"b":4},"B":{"a":4,"b":1},"C":{"a":2,"b":8},"D":{"a":8,"b":2}},"conditions":["nonSeqFull","nonSeqPartial","seqNoFeedback","seqFeedback"],"classroomPairings":[["A","B"],["C","D"]],"coinWeights":[0.2,0.5,0.8],"subjectId":"A58GP5CIF6DJ5","assignmentId":"3X4JMASXCNVCYEKLWV1799LTF5H0BT","hitId":"34KYK9TV2RUAD363EVFPUWVPB97SBP","url":"https://gershmanlab.com/experiments/alicia/teaching/experiment/?hitId=34KYK9TV2RUAD363EVFPUWVPB97SBP&workerId=A58GP5CIF6DJ5&assignmentId=3X4JMASXCNVCYEKLWV1799LTF5H0BT&a=XM4X7&tp_a=XM4X7&b=3X4JMASXCNVCYEKLWV1799LTF5H0BT&tp_b=3X4JMASXCNVCYEKLWV1799LTF5H0BT&c=365717&tp_c=365717","totalBonus":0.2}]