[{"rt":58819,"response":{"heads":"3","tails":"3"},"type":"response","condition":"seqNoFeedback","trueTheta":0.8,"classrooms":["A","B"],"studentTrueClassroom":"A","exampleSet":"first","trial_type":"survey-html-form","trial_index":19,"time_elapsed":1294408,"internal_node_id":"0.0-6.0-0.0","params":{"nStudents":24,"maxFlips":30,"completionMinutes":45,"basePay":8,"maxBonus":9,"perTrialBonus":0.5,"perTrialBonusThreshold":0.05,"exampleCost":0.01},"classroomParams":{"A":{"a":1,"b":4},"B":{"a":4,"b":1},"C":{"a":2,"b":8},"D":{"a":8,"b":2}},"conditions":["nonSeqFull","nonSeqPartial","seqNoFeedback","seqFeedback"],"classroomPairings":[["A","B"],["C","D"]],"coinWeights":[0.2,0.5,0.8],"subjectId":"ABW8U1U74P8MI","assignmentId":"3X0H8UUIT2A4NQ280OGN6T4XKYHSWN","hitId":"3ZG552ORAMQWHINBPXRJ4QCSG7OV2V","url":"https://gershmanlab.com/experiments/alicia/teaching/experiment/?hitId=3ZG552ORAMQWHINBPXRJ4QCSG7OV2V&workerId=ABW8U1U74P8MI&assignmentId=3X0H8UUIT2A4NQ280OGN6T4XKYHSWN&a=I80X7&tp_a=I80X7&b=3X0H8UUIT2A4NQ280OGN6T4XKYHSWN&tp_b=3X0H8UUIT2A4NQ280OGN6T4XKYHSWN&c=365717&tp_c=365717","heads":3,"tails":3,"studentIndex":0,"studentTrueHypers":{"a":1,"b":4},"studentGuess":0.36363636363636365,"delta":0.4363636363636364,"totalExamples":6,"bonusSoFar":0},{"rt":18863,"response":{"heads":"3","tails":"3"},"type":"response","condition":"seqNoFeedback","trueTheta":0.8,"classrooms":["A","B"],"studentTrueClassroom":"A","exampleSet":"second","trial_type":"survey-html-form","trial_index":22,"time_elapsed":1319298,"internal_node_id":"0.0-9.0-0.0","params":{"nStudents":24,"maxFlips":30,"completionMinutes":45,"basePay":8,"maxBonus":9,"perTrialBonus":0.5,"perTrialBonusThreshold":0.05,"exampleCost":0.01},"classroomParams":{"A":{"a":1,"b":4},"B":{"a":4,"b":1},"C":{"a":2,"b":8},"D":{"a":8,"b":2}},"conditions":["nonSeqFull","nonSeqPartial","seqNoFeedback","seqFeedback"],"classroomPairings":[["A","B"],["C","D"]],"coinWeights":[0.2,0.5,0.8],"subjectId":"ABW8U1U74P8MI","assignmentId":"3X0H8UUIT2A4NQ280OGN6T4XKYHSWN","hitId":"3ZG552ORAMQWHINBPXRJ4QCSG7OV2V","url":"https://gershmanlab.com/experiments/alicia/teaching/experiment/?hitId=3ZG552ORAMQWHINBPXRJ4QCSG7OV2V&workerId=ABW8U1U74P8MI&assignmentId=3X0H8UUIT2A4NQ280OGN6T4XKYHSWN&a=I80X7&tp_a=I80X7&b=3X0H8UUIT2A4NQ280OGN6T4XKYHSWN&tp_b=3X0H8UUIT2A4NQ280OGN6T4XKYHSWN&c=365717&tp_c=365717","firstResponseHeads":3,"firstResponseTails":3,"secondResponseHeads":3,"secondResponseTails":3,"totalHeads":6,"totalTails":6,"studentIndex":0,"studentTrueHypers":{"a":1,"b":4},"studentGuess":0.4117647058823529,"delta":0.3882352941176471,"bonus":0,"bonusSoFar":0,"totalExamples":12},{"rt":8611,"response":{"heads":"0","tails":"0"},"type":"response","condition":"seqNoFeedback","trueTheta":0.5,"classrooms":["A","B"],"studentTrueClassroom":"B","exampleSet":"first","trial_type":"survey-html-form","trial_index":28,"time_elapsed":1351909,"internal_node_id":"0.0-15.0-0.0","params":{"nStudents":24,"maxFlips":30,"completionMinutes":45,"basePay":8,"maxBonus":9,"perTrialBonus":0.5,"perTrialBonusThreshold":0.05,"exampleCost":0.01},"classroomParams":{"A":{"a":1,"b":4},"B":{"a":4,"b":1},"C":{"a":2,"b":8},"D":{"a":8,"b":2}},"conditions":["nonSeqFull","nonSeqPartial","seqNoFeedback","seqFeedback"],"classroomPairings":[["A","B"],["C","D"]],"coinWeights":[0.2,0.5,0.8],"subjectId":"ABW8U1U74P8MI","assignmentId":"3X0H8UUIT2A4NQ280OGN6T4XKYHSWN","hitId":"3ZG552ORAMQWHINBPXRJ4QCSG7OV2V","url":"https://gershmanlab.com/experiments/alicia/teaching/experiment/?hitId=3ZG552ORAMQWHINBPXRJ4QCSG7OV2V&workerId=ABW8U1U74P8MI&assignmentId=3X0H8UUIT2A4NQ280OGN6T4XKYHSWN&a=I80X7&tp_a=I80X7&b=3X0H8UUIT2A4NQ280OGN6T4XKYHSWN&tp_b=3X0H8UUIT2A4NQ280OGN6T4XKYHSWN&c=365717&tp_c=365717","heads":0,"tails":0,"studentIndex":1,"studentTrueHypers":{"a":4,"b":1},"studentGuess":0.8,"delta":0.30000000000000004,"totalExamples":0,"bonusSoFar":0},{"rt":8966,"response":{"heads":"4","tails":"0"},"type":"response","condition":"seqNoFeedback","trueTheta":0.5,"classrooms":["A","B"],"studentTrueClassroom":"B","exampleSet":"first","trial_type":"survey-html-form","trial_index":29,"time_elapsed":1360878,"internal_node_id":"0.0-15.1-0.1","params":{"nStudents":24,"maxFlips":30,"completionMinutes":45,"basePay":8,"maxBonus":9,"perTrialBonus":0.5,"perTrialBonusThreshold":0.05,"exampleCost":0.01},"classroomParams":{"A":{"a":1,"b":4},"B":{"a":4,"b":1},"C":{"a":2,"b":8},"D":{"a":8,"b":2}},"conditions":["nonSeqFull","nonSeqPartial","seqNoFeedback","seqFeedback"],"classroomPairings":[["A","B"],["C","D"]],"coinWeights":[0.2,0.5,0.8],"subjectId":"ABW8U1U74P8MI","assignmentId":"3X0H8UUIT2A4NQ280OGN6T4XKYHSWN","hitId":"3ZG552ORAMQWHINBPXRJ4QCSG7OV2V","url":"https://gershmanlab.com/experiments/alicia/teaching/experiment/?hitId=3ZG552ORAMQWHINBPXRJ4QCSG7OV2V&workerId=ABW8U1U74P8MI&assignmentId=3X0H8UUIT2A4NQ280OGN6T4XKYHSWN&a=I80X7&tp_a=I80X7&b=3X0H8UUIT2A4NQ280OGN6T4XKYHSWN&tp_b=3X0H8UUIT2A4NQ280OGN6T4XKYHSWN&c=365717&tp_c=365717","heads":4,"tails":0,"studentIndex":1,"studentTrueHypers":{"a":4,"b":1},"studentGuess":0.8888888888888888,"delta":0.38888888888888884,"totalExamples":4,"bonusSoFar":0},{"rt":5064,"response":{"heads":"0","tails":"4"},"type":"response","condition":"seqNoFeedback","trueTheta":0.5,"classrooms":["A","B"],"studentTrueClassroom":"B","exampleSet":"second","trial_type":"survey-html-form","trial_index":32,"time_elapsed":1372967,"internal_node_id":"0.0-18.0-0.0","params":{"nStudents":24,"maxFlips":30,"completionMinutes":45,"basePay":8,"maxBonus":9,"perTrialBonus":0.5,"perTrialBonusThreshold":0.05,"exampleCost":0.01},"classroomParams":{"A":{"a":1,"b":4},"B":{"a":4,"b":1},"C":{"a":2,"b":8},"D":{"a":8,"b":2}},"conditions":["nonSeqFull","nonSeqPartial","seqNoFeedback","seqFeedback"],"classroomPairings":[["A","B"],["C","D"]],"coinWeights":[0.2,0.5,0.8],"subjectId":"ABW8U1U74P8MI","assignmentId":"3X0H8UUIT2A4NQ280OGN6T4XKYHSWN","hitId":"3ZG552ORAMQWHINBPXRJ4QCSG7OV2V","url":"https://gershmanlab.com/experiments/alicia/teaching/experiment/?hitId=3ZG552ORAMQWHINBPXRJ4QCSG7OV2V&workerId=ABW8U1U74P8MI&assignmentId=3X0H8UUIT2A4NQ280OGN6T4XKYHSWN&a=I80X7&tp_a=I80X7&b=3X0H8UUIT2A4NQ280OGN6T4XKYHSWN&tp_b=3X0H8UUIT2A4NQ280OGN6T4XKYHSWN&c=365717&tp_c=365717","firstResponseHeads":0,"firstResponseTails":0,"secondResponseHeads":0,"secondResponseTails":4,"totalHeads":0,"totalTails":4,"studentIndex":1,"studentTrueHypers":{"a":4,"b":1},"studentGuess":0.4444444444444444,"delta":0.05555555555555558,"bonus":0,"bonusSoFar":0,"totalExamples":4},{"rt":17021,"response":{"heads":"0","tails":"5"},"type":"response","condition":"nonSeqFull","trueTheta":0.5,"classrooms":["A","B"],"studentTrueClassroom":"A","exampleSet":"first","trial_type":"survey-html-form","trial_index":38,"time_elapsed":1413289,"internal_node_id":"0.0-24.0-0.0","params":{"nStudents":24,"maxFlips":30,"completionMinutes":45,"basePay":8,"maxBonus":9,"perTrialBonus":0.5,"perTrialBonusThreshold":0.05,"exampleCost":0.01},"classroomParams":{"A":{"a":1,"b":4},"B":{"a":4,"b":1},"C":{"a":2,"b":8},"D":{"a":8,"b":2}},"conditions":["nonSeqFull","nonSeqPartial","seqNoFeedback","seqFeedback"],"classroomPairings":[["A","B"],["C","D"]],"coinWeights":[0.2,0.5,0.8],"subjectId":"ABW8U1U74P8MI","assignmentId":"3X0H8UUIT2A4NQ280OGN6T4XKYHSWN","hitId":"3ZG552ORAMQWHINBPXRJ4QCSG7OV2V","url":"https://gershmanlab.com/experiments/alicia/teaching/experiment/?hitId=3ZG552ORAMQWHINBPXRJ4QCSG7OV2V&workerId=ABW8U1U74P8MI&assignmentId=3X0H8UUIT2A4NQ280OGN6T4XKYHSWN&a=I80X7&tp_a=I80X7&b=3X0H8UUIT2A4NQ280OGN6T4XKYHSWN&tp_b=3X0H8UUIT2A4NQ280OGN6T4XKYHSWN&c=365717&tp_c=365717","heads":0,"tails":5,"studentIndex":2,"studentTrueHypers":{"a":1,"b":4},"studentGuess":0.1,"delta":0.4,"totalExamples":5,"bonus":0,"bonusSoFar":0},{"rt":9820,"response":{"heads":"10","tails":"0"},"type":"response","condition":"seqFeedback","trueTheta":0.8,"classrooms":["C","D"],"studentTrueClassroom":"D","exampleSet":"first","trial_type":"survey-html-form","trial_index":44,"time_elapsed":1442395,"internal_node_id":"0.0-30.0-0.0","params":{"nStudents":24,"maxFlips":30,"completionMinutes":45,"basePay":8,"maxBonus":9,"perTrialBonus":0.5,"perTrialBonusThreshold":0.05,"exampleCost":0.01},"classroomParams":{"A":{"a":1,"b":4},"B":{"a":4,"b":1},"C":{"a":2,"b":8},"D":{"a":8,"b":2}},"conditions":["nonSeqFull","nonSeqPartial","seqNoFeedback","seqFeedback"],"classroomPairings":[["A","B"],["C","D"]],"coinWeights":[0.2,0.5,0.8],"subjectId":"ABW8U1U74P8MI","assignmentId":"3X0H8UUIT2A4NQ280OGN6T4XKYHSWN","hitId":"3ZG552ORAMQWHINBPXRJ4QCSG7OV2V","url":"https://gershmanlab.com/experiments/alicia/teaching/experiment/?hitId=3ZG552ORAMQWHINBPXRJ4QCSG7OV2V&workerId=ABW8U1U74P8MI&assignmentId=3X0H8UUIT2A4NQ280OGN6T4XKYHSWN&a=I80X7&tp_a=I80X7&b=3X0H8UUIT2A4NQ280OGN6T4XKYHSWN&tp_b=3X0H8UUIT2A4NQ280OGN6T4XKYHSWN&c=365717&tp_c=365717","heads":10,"tails":0,"studentIndex":3,"studentTrueHypers":{"a":8,"b":2},"studentGuess":0.9,"delta":0.09999999999999998,"totalExamples":10,"bonusSoFar":0},{"rt":13113,"response":{"heads":"8","tails":"4"},"type":"response","condition":"seqFeedback","trueTheta":0.8,"classrooms":["C","D"],"studentTrueClassroom":"D","exampleSet":"second","trial_type":"survey-html-form","trial_index":48,"time_elapsed":1476247,"internal_node_id":"0.0-34.0-0.0","params":{"nStudents":24,"maxFlips":30,"completionMinutes":45,"basePay":8,"maxBonus":9,"perTrialBonus":0.5,"perTrialBonusThreshold":0.05,"exampleCost":0.01},"classroomParams":{"A":{"a":1,"b":4},"B":{"a":4,"b":1},"C":{"a":2,"b":8},"D":{"a":8,"b":2}},"conditions":["nonSeqFull","nonSeqPartial","seqNoFeedback","seqFeedback"],"classroomPairings":[["A","B"],["C","D"]],"coinWeights":[0.2,0.5,0.8],"subjectId":"ABW8U1U74P8MI","assignmentId":"3X0H8UUIT2A4NQ280OGN6T4XKYHSWN","hitId":"3ZG552ORAMQWHINBPXRJ4QCSG7OV2V","url":"https://gershmanlab.com/experiments/alicia/teaching/experiment/?hitId=3ZG552ORAMQWHINBPXRJ4QCSG7OV2V&workerId=ABW8U1U74P8MI&assignmentId=3X0H8UUIT2A4NQ280OGN6T4XKYHSWN&a=I80X7&tp_a=I80X7&b=3X0H8UUIT2A4NQ280OGN6T4XKYHSWN&tp_b=3X0H8UUIT2A4NQ280OGN6T4XKYHSWN&c=365717&tp_c=365717","firstResponseHeads":10,"firstResponseTails":0,"secondResponseHeads":8,"secondResponseTails":4,"totalHeads":18,"totalTails":4,"studentIndex":3,"studentTrueHypers":{"a":8,"b":2},"studentGuess":0.8125,"delta":0.012499999999999956,"bonus":0.28,"bonusSoFar":0.28,"totalExamples":22},{"rt":13226,"response":{"heads":"5","tails":"0"},"type":"response","condition":"nonSeqFull","trueTheta":0.8,"classrooms":["A","B"],"studentTrueClassroom":"B","exampleSet":"first","trial_type":"survey-html-form","trial_index":54,"time_elapsed":1505543,"internal_node_id":"0.0-40.0-0.0","params":{"nStudents":24,"maxFlips":30,"completionMinutes":45,"basePay":8,"maxBonus":9,"perTrialBonus":0.5,"perTrialBonusThreshold":0.05,"exampleCost":0.01},"classroomParams":{"A":{"a":1,"b":4},"B":{"a":4,"b":1},"C":{"a":2,"b":8},"D":{"a":8,"b":2}},"conditions":["nonSeqFull","nonSeqPartial","seqNoFeedback","seqFeedback"],"classroomPairings":[["A","B"],["C","D"]],"coinWeights":[0.2,0.5,0.8],"subjectId":"ABW8U1U74P8MI","assignmentId":"3X0H8UUIT2A4NQ280OGN6T4XKYHSWN","hitId":"3ZG552ORAMQWHINBPXRJ4QCSG7OV2V","url":"https://gershmanlab.com/experiments/alicia/teaching/experiment/?hitId=3ZG552ORAMQWHINBPXRJ4QCSG7OV2V&workerId=ABW8U1U74P8MI&assignmentId=3X0H8UUIT2A4NQ280OGN6T4XKYHSWN&a=I80X7&tp_a=I80X7&b=3X0H8UUIT2A4NQ280OGN6T4XKYHSWN&tp_b=3X0H8UUIT2A4NQ280OGN6T4XKYHSWN&c=365717&tp_c=365717","heads":5,"tails":0,"studentIndex":4,"studentTrueHypers":{"a":4,"b":1},"studentGuess":0.9,"delta":0.09999999999999998,"totalExamples":5,"bonus":0,"bonusSoFar":0.28},{"rt":7597,"response":{"heads":"5","tails":"5"},"type":"response","condition":"seqFeedback","trueTheta":0.5,"classrooms":["C","D"],"studentTrueClassroom":"C","exampleSet":"first","trial_type":"survey-html-form","trial_index":60,"time_elapsed":1532307,"internal_node_id":"0.0-46.0-0.0","params":{"nStudents":24,"maxFlips":30,"completionMinutes":45,"basePay":8,"maxBonus":9,"perTrialBonus":0.5,"perTrialBonusThreshold":0.05,"exampleCost":0.01},"classroomParams":{"A":{"a":1,"b":4},"B":{"a":4,"b":1},"C":{"a":2,"b":8},"D":{"a":8,"b":2}},"conditions":["nonSeqFull","nonSeqPartial","seqNoFeedback","seqFeedback"],"classroomPairings":[["A","B"],["C","D"]],"coinWeights":[0.2,0.5,0.8],"subjectId":"ABW8U1U74P8MI","assignmentId":"3X0H8UUIT2A4NQ280OGN6T4XKYHSWN","hitId":"3ZG552ORAMQWHINBPXRJ4QCSG7OV2V","url":"https://gershmanlab.com/experiments/alicia/teaching/experiment/?hitId=3ZG552ORAMQWHINBPXRJ4QCSG7OV2V&workerId=ABW8U1U74P8MI&assignmentId=3X0H8UUIT2A4NQ280OGN6T4XKYHSWN&a=I80X7&tp_a=I80X7&b=3X0H8UUIT2A4NQ280OGN6T4XKYHSWN&tp_b=3X0H8UUIT2A4NQ280OGN6T4XKYHSWN&c=365717&tp_c=365717","heads":5,"tails":5,"studentIndex":5,"studentTrueHypers":{"a":2,"b":8},"studentGuess":0.35,"delta":0.15000000000000002,"totalExamples":10,"bonusSoFar":0.28},{"rt":20540,"response":{"heads":"8","tails":"0"},"type":"response","condition":"seqFeedback","trueTheta":0.5,"classrooms":["C","D"],"studentTrueClassroom":"C","exampleSet":"second","trial_type":"survey-html-form","trial_index":64,"time_elapsed":1564013,"internal_node_id":"0.0-50.0-0.0","params":{"nStudents":24,"maxFlips":30,"completionMinutes":45,"basePay":8,"maxBonus":9,"perTrialBonus":0.5,"perTrialBonusThreshold":0.05,"exampleCost":0.01},"classroomParams":{"A":{"a":1,"b":4},"B":{"a":4,"b":1},"C":{"a":2,"b":8},"D":{"a":8,"b":2}},"conditions":["nonSeqFull","nonSeqPartial","seqNoFeedback","seqFeedback"],"classroomPairings":[["A","B"],["C","D"]],"coinWeights":[0.2,0.5,0.8],"subjectId":"ABW8U1U74P8MI","assignmentId":"3X0H8UUIT2A4NQ280OGN6T4XKYHSWN","hitId":"3ZG552ORAMQWHINBPXRJ4QCSG7OV2V","url":"https://gershmanlab.com/experiments/alicia/teaching/experiment/?hitId=3ZG552ORAMQWHINBPXRJ4QCSG7OV2V&workerId=ABW8U1U74P8MI&assignmentId=3X0H8UUIT2A4NQ280OGN6T4XKYHSWN&a=I80X7&tp_a=I80X7&b=3X0H8UUIT2A4NQ280OGN6T4XKYHSWN&tp_b=3X0H8UUIT2A4NQ280OGN6T4XKYHSWN&c=365717&tp_c=365717","firstResponseHeads":5,"firstResponseTails":5,"secondResponseHeads":8,"secondResponseTails":0,"totalHeads":13,"totalTails":5,"studentIndex":5,"studentTrueHypers":{"a":2,"b":8},"studentGuess":0.5357142857142857,"delta":0.0357142857142857,"bonus":0.32,"bonusSoFar":0.6,"totalExamples":18},{"rt":12160,"response":{"heads":"7","tails":"0"},"type":"response","condition":"nonSeqFull","trueTheta":0.5,"classrooms":["C","D"],"studentTrueClassroom":"C","exampleSet":"first","trial_type":"survey-html-form","trial_index":70,"time_elapsed":1591693,"internal_node_id":"0.0-56.0-0.0","params":{"nStudents":24,"maxFlips":30,"completionMinutes":45,"basePay":8,"maxBonus":9,"perTrialBonus":0.5,"perTrialBonusThreshold":0.05,"exampleCost":0.01},"classroomParams":{"A":{"a":1,"b":4},"B":{"a":4,"b":1},"C":{"a":2,"b":8},"D":{"a":8,"b":2}},"conditions":["nonSeqFull","nonSeqPartial","seqNoFeedback","seqFeedback"],"classroomPairings":[["A","B"],["C","D"]],"coinWeights":[0.2,0.5,0.8],"subjectId":"ABW8U1U74P8MI","assignmentId":"3X0H8UUIT2A4NQ280OGN6T4XKYHSWN","hitId":"3ZG552ORAMQWHINBPXRJ4QCSG7OV2V","url":"https://gershmanlab.com/experiments/alicia/teaching/experiment/?hitId=3ZG552ORAMQWHINBPXRJ4QCSG7OV2V&workerId=ABW8U1U74P8MI&assignmentId=3X0H8UUIT2A4NQ280OGN6T4XKYHSWN&a=I80X7&tp_a=I80X7&b=3X0H8UUIT2A4NQ280OGN6T4XKYHSWN&tp_b=3X0H8UUIT2A4NQ280OGN6T4XKYHSWN&c=365717&tp_c=365717","heads":7,"tails":0,"studentIndex":6,"studentTrueHypers":{"a":2,"b":8},"studentGuess":0.5294117647058824,"delta":0.02941176470588236,"totalExamples":7,"bonus":0.43,"bonusSoFar":1.03},{"rt":14925,"response":{"heads":"8","tails":"8"},"type":"response","condition":"nonSeqPartial","trueTheta":0.8,"classrooms":["A","B"],"studentTrueClassroom":"A","exampleSet":"first","trial_type":"survey-html-form","trial_index":76,"time_elapsed":1621745,"internal_node_id":"0.0-62.0-0.0","params":{"nStudents":24,"maxFlips":30,"completionMinutes":45,"basePay":8,"maxBonus":9,"perTrialBonus":0.5,"perTrialBonusThreshold":0.05,"exampleCost":0.01},"classroomParams":{"A":{"a":1,"b":4},"B":{"a":4,"b":1},"C":{"a":2,"b":8},"D":{"a":8,"b":2}},"conditions":["nonSeqFull","nonSeqPartial","seqNoFeedback","seqFeedback"],"classroomPairings":[["A","B"],["C","D"]],"coinWeights":[0.2,0.5,0.8],"subjectId":"ABW8U1U74P8MI","assignmentId":"3X0H8UUIT2A4NQ280OGN6T4XKYHSWN","hitId":"3ZG552ORAMQWHINBPXRJ4QCSG7OV2V","url":"https://gershmanlab.com/experiments/alicia/teaching/experiment/?hitId=3ZG552ORAMQWHINBPXRJ4QCSG7OV2V&workerId=ABW8U1U74P8MI&assignmentId=3X0H8UUIT2A4NQ280OGN6T4XKYHSWN&a=I80X7&tp_a=I80X7&b=3X0H8UUIT2A4NQ280OGN6T4XKYHSWN&tp_b=3X0H8UUIT2A4NQ280OGN6T4XKYHSWN&c=365717&tp_c=365717","heads":8,"tails":8,"studentIndex":7,"studentTrueHypers":{"a":1,"b":4},"studentGuess":0.42857142857142855,"delta":0.3714285714285715,"totalExamples":16,"bonus":0,"bonusSoFar":1.03},{"rt":10864,"response":{"heads":"8","tails":"0"},"type":"response","condition":"seqNoFeedback","trueTheta":0.8,"classrooms":["C","D"],"studentTrueClassroom":"C","exampleSet":"first","trial_type":"survey-html-form","trial_index":82,"time_elapsed":1646877,"internal_node_id":"0.0-68.0-0.0","params":{"nStudents":24,"maxFlips":30,"completionMinutes":45,"basePay":8,"maxBonus":9,"perTrialBonus":0.5,"perTrialBonusThreshold":0.05,"exampleCost":0.01},"classroomParams":{"A":{"a":1,"b":4},"B":{"a":4,"b":1},"C":{"a":2,"b":8},"D":{"a":8,"b":2}},"conditions":["nonSeqFull","nonSeqPartial","seqNoFeedback","seqFeedback"],"classroomPairings":[["A","B"],["C","D"]],"coinWeights":[0.2,0.5,0.8],"subjectId":"ABW8U1U74P8MI","assignmentId":"3X0H8UUIT2A4NQ280OGN6T4XKYHSWN","hitId":"3ZG552ORAMQWHINBPXRJ4QCSG7OV2V","url":"https://gershmanlab.com/experiments/alicia/teaching/experiment/?hitId=3ZG552ORAMQWHINBPXRJ4QCSG7OV2V&workerId=ABW8U1U74P8MI&assignmentId=3X0H8UUIT2A4NQ280OGN6T4XKYHSWN&a=I80X7&tp_a=I80X7&b=3X0H8UUIT2A4NQ280OGN6T4XKYHSWN&tp_b=3X0H8UUIT2A4NQ280OGN6T4XKYHSWN&c=365717&tp_c=365717","heads":8,"tails":0,"studentIndex":8,"studentTrueHypers":{"a":2,"b":8},"studentGuess":0.5555555555555556,"delta":0.24444444444444446,"totalExamples":8,"bonusSoFar":1.03},{"rt":11840,"response":{"heads":"8","tails":"0"},"type":"response","condition":"seqNoFeedback","trueTheta":0.8,"classrooms":["C","D"],"studentTrueClassroom":"C","exampleSet":"second","trial_type":"survey-html-form","trial_index":85,"time_elapsed":1665999,"internal_node_id":"0.0-71.0-0.0","params":{"nStudents":24,"maxFlips":30,"completionMinutes":45,"basePay":8,"maxBonus":9,"perTrialBonus":0.5,"perTrialBonusThreshold":0.05,"exampleCost":0.01},"classroomParams":{"A":{"a":1,"b":4},"B":{"a":4,"b":1},"C":{"a":2,"b":8},"D":{"a":8,"b":2}},"conditions":["nonSeqFull","nonSeqPartial","seqNoFeedback","seqFeedback"],"classroomPairings":[["A","B"],["C","D"]],"coinWeights":[0.2,0.5,0.8],"subjectId":"ABW8U1U74P8MI","assignmentId":"3X0H8UUIT2A4NQ280OGN6T4XKYHSWN","hitId":"3ZG552ORAMQWHINBPXRJ4QCSG7OV2V","url":"https://gershmanlab.com/experiments/alicia/teaching/experiment/?hitId=3ZG552ORAMQWHINBPXRJ4QCSG7OV2V&workerId=ABW8U1U74P8MI&assignmentId=3X0H8UUIT2A4NQ280OGN6T4XKYHSWN&a=I80X7&tp_a=I80X7&b=3X0H8UUIT2A4NQ280OGN6T4XKYHSWN&tp_b=3X0H8UUIT2A4NQ280OGN6T4XKYHSWN&c=365717&tp_c=365717","firstResponseHeads":8,"firstResponseTails":0,"secondResponseHeads":8,"secondResponseTails":0,"totalHeads":16,"totalTails":0,"studentIndex":8,"studentTrueHypers":{"a":2,"b":8},"studentGuess":0.6923076923076923,"delta":0.10769230769230775,"bonus":0,"bonusSoFar":1.03,"totalExamples":16},{"rt":8269,"response":{"heads":"5","tails":"5"},"type":"response","condition":"seqFeedback","trueTheta":0.5,"classrooms":["A","B"],"studentTrueClassroom":"B","exampleSet":"first","trial_type":"survey-html-form","trial_index":91,"time_elapsed":1690446,"internal_node_id":"0.0-77.0-0.0","params":{"nStudents":24,"maxFlips":30,"completionMinutes":45,"basePay":8,"maxBonus":9,"perTrialBonus":0.5,"perTrialBonusThreshold":0.05,"exampleCost":0.01},"classroomParams":{"A":{"a":1,"b":4},"B":{"a":4,"b":1},"C":{"a":2,"b":8},"D":{"a":8,"b":2}},"conditions":["nonSeqFull","nonSeqPartial","seqNoFeedback","seqFeedback"],"classroomPairings":[["A","B"],["C","D"]],"coinWeights":[0.2,0.5,0.8],"subjectId":"ABW8U1U74P8MI","assignmentId":"3X0H8UUIT2A4NQ280OGN6T4XKYHSWN","hitId":"3ZG552ORAMQWHINBPXRJ4QCSG7OV2V","url":"https://gershmanlab.com/experiments/alicia/teaching/experiment/?hitId=3ZG552ORAMQWHINBPXRJ4QCSG7OV2V&workerId=ABW8U1U74P8MI&assignmentId=3X0H8UUIT2A4NQ280OGN6T4XKYHSWN&a=I80X7&tp_a=I80X7&b=3X0H8UUIT2A4NQ280OGN6T4XKYHSWN&tp_b=3X0H8UUIT2A4NQ280OGN6T4XKYHSWN&c=365717&tp_c=365717","heads":5,"tails":5,"studentIndex":9,"studentTrueHypers":{"a":4,"b":1},"studentGuess":0.6,"delta":0.09999999999999998,"totalExamples":10,"bonusSoFar":1.03},{"rt":10441,"response":{"heads":"0","tails":"5"},"type":"response","condition":"seqFeedback","trueTheta":0.5,"classrooms":["A","B"],"studentTrueClassroom":"B","exampleSet":"second","trial_type":"survey-html-form","trial_index":95,"time_elapsed":1711042,"internal_node_id":"0.0-81.0-0.0","params":{"nStudents":24,"maxFlips":30,"completionMinutes":45,"basePay":8,"maxBonus":9,"perTrialBonus":0.5,"perTrialBonusThreshold":0.05,"exampleCost":0.01},"classroomParams":{"A":{"a":1,"b":4},"B":{"a":4,"b":1},"C":{"a":2,"b":8},"D":{"a":8,"b":2}},"conditions":["nonSeqFull","nonSeqPartial","seqNoFeedback","seqFeedback"],"classroomPairings":[["A","B"],["C","D"]],"coinWeights":[0.2,0.5,0.8],"subjectId":"ABW8U1U74P8MI","assignmentId":"3X0H8UUIT2A4NQ280OGN6T4XKYHSWN","hitId":"3ZG552ORAMQWHINBPXRJ4QCSG7OV2V","url":"https://gershmanlab.com/experiments/alicia/teaching/experiment/?hitId=3ZG552ORAMQWHINBPXRJ4QCSG7OV2V&workerId=ABW8U1U74P8MI&assignmentId=3X0H8UUIT2A4NQ280OGN6T4XKYHSWN&a=I80X7&tp_a=I80X7&b=3X0H8UUIT2A4NQ280OGN6T4XKYHSWN&tp_b=3X0H8UUIT2A4NQ280OGN6T4XKYHSWN&c=365717&tp_c=365717","firstResponseHeads":5,"firstResponseTails":5,"secondResponseHeads":0,"secondResponseTails":5,"totalHeads":5,"totalTails":10,"studentIndex":9,"studentTrueHypers":{"a":4,"b":1},"studentGuess":0.45,"delta":0.04999999999999999,"bonus":0.35,"bonusSoFar":1.38,"totalExamples":15},{"rt":10505,"response":{"heads":"0","tails":"6"},"type":"response","condition":"seqFeedback","trueTheta":0.2,"classrooms":["C","D"],"studentTrueClassroom":"D","exampleSet":"first","trial_type":"survey-html-form","trial_index":101,"time_elapsed":1740812,"internal_node_id":"0.0-87.0-0.0","params":{"nStudents":24,"maxFlips":30,"completionMinutes":45,"basePay":8,"maxBonus":9,"perTrialBonus":0.5,"perTrialBonusThreshold":0.05,"exampleCost":0.01},"classroomParams":{"A":{"a":1,"b":4},"B":{"a":4,"b":1},"C":{"a":2,"b":8},"D":{"a":8,"b":2}},"conditions":["nonSeqFull","nonSeqPartial","seqNoFeedback","seqFeedback"],"classroomPairings":[["A","B"],["C","D"]],"coinWeights":[0.2,0.5,0.8],"subjectId":"ABW8U1U74P8MI","assignmentId":"3X0H8UUIT2A4NQ280OGN6T4XKYHSWN","hitId":"3ZG552ORAMQWHINBPXRJ4QCSG7OV2V","url":"https://gershmanlab.com/experiments/alicia/teaching/experiment/?hitId=3ZG552ORAMQWHINBPXRJ4QCSG7OV2V&workerId=ABW8U1U74P8MI&assignmentId=3X0H8UUIT2A4NQ280OGN6T4XKYHSWN&a=I80X7&tp_a=I80X7&b=3X0H8UUIT2A4NQ280OGN6T4XKYHSWN&tp_b=3X0H8UUIT2A4NQ280OGN6T4XKYHSWN&c=365717&tp_c=365717","heads":0,"tails":6,"studentIndex":10,"studentTrueHypers":{"a":8,"b":2},"studentGuess":0.5,"delta":0.3,"totalExamples":6,"bonusSoFar":1.38},{"rt":9498,"response":{"heads":"0","tails":"8"},"type":"response","condition":"seqFeedback","trueTheta":0.2,"classrooms":["C","D"],"studentTrueClassroom":"D","exampleSet":"second","trial_type":"survey-html-form","trial_index":105,"time_elapsed":1762954,"internal_node_id":"0.0-91.0-0.0","params":{"nStudents":24,"maxFlips":30,"completionMinutes":45,"basePay":8,"maxBonus":9,"perTrialBonus":0.5,"perTrialBonusThreshold":0.05,"exampleCost":0.01},"classroomParams":{"A":{"a":1,"b":4},"B":{"a":4,"b":1},"C":{"a":2,"b":8},"D":{"a":8,"b":2}},"conditions":["nonSeqFull","nonSeqPartial","seqNoFeedback","seqFeedback"],"classroomPairings":[["A","B"],["C","D"]],"coinWeights":[0.2,0.5,0.8],"subjectId":"ABW8U1U74P8MI","assignmentId":"3X0H8UUIT2A4NQ280OGN6T4XKYHSWN","hitId":"3ZG552ORAMQWHINBPXRJ4QCSG7OV2V","url":"https://gershmanlab.com/experiments/alicia/teaching/experiment/?hitId=3ZG552ORAMQWHINBPXRJ4QCSG7OV2V&workerId=ABW8U1U74P8MI&assignmentId=3X0H8UUIT2A4NQ280OGN6T4XKYHSWN&a=I80X7&tp_a=I80X7&b=3X0H8UUIT2A4NQ280OGN6T4XKYHSWN&tp_b=3X0H8UUIT2A4NQ280OGN6T4XKYHSWN&c=365717&tp_c=365717","firstResponseHeads":0,"firstResponseTails":6,"secondResponseHeads":0,"secondResponseTails":8,"totalHeads":0,"totalTails":14,"studentIndex":10,"studentTrueHypers":{"a":8,"b":2},"studentGuess":0.3333333333333333,"delta":0.1333333333333333,"bonus":0,"bonusSoFar":1.38,"totalExamples":14},{"rt":6187,"response":{"heads":"0","tails":"10"},"type":"response","condition":"nonSeqPartial","trueTheta":0.2,"classrooms":["A","B"],"studentTrueClassroom":"B","exampleSet":"first","trial_type":"survey-html-form","trial_index":111,"time_elapsed":1788252,"internal_node_id":"0.0-97.0-0.0","params":{"nStudents":24,"maxFlips":30,"completionMinutes":45,"basePay":8,"maxBonus":9,"perTrialBonus":0.5,"perTrialBonusThreshold":0.05,"exampleCost":0.01},"classroomParams":{"A":{"a":1,"b":4},"B":{"a":4,"b":1},"C":{"a":2,"b":8},"D":{"a":8,"b":2}},"conditions":["nonSeqFull","nonSeqPartial","seqNoFeedback","seqFeedback"],"classroomPairings":[["A","B"],["C","D"]],"coinWeights":[0.2,0.5,0.8],"subjectId":"ABW8U1U74P8MI","assignmentId":"3X0H8UUIT2A4NQ280OGN6T4XKYHSWN","hitId":"3ZG552ORAMQWHINBPXRJ4QCSG7OV2V","url":"https://gershmanlab.com/experiments/alicia/teaching/experiment/?hitId=3ZG552ORAMQWHINBPXRJ4QCSG7OV2V&workerId=ABW8U1U74P8MI&assignmentId=3X0H8UUIT2A4NQ280OGN6T4XKYHSWN&a=I80X7&tp_a=I80X7&b=3X0H8UUIT2A4NQ280OGN6T4XKYHSWN&tp_b=3X0H8UUIT2A4NQ280OGN6T4XKYHSWN&c=365717&tp_c=365717","heads":0,"tails":10,"studentIndex":11,"studentTrueHypers":{"a":4,"b":1},"studentGuess":0.26666666666666666,"delta":0.06666666666666665,"totalExamples":10,"bonus":0,"bonusSoFar":1.38},{"rt":5808,"response":{"heads":"0","tails":"15"},"type":"response","condition":"nonSeqFull","trueTheta":0.2,"classrooms":["A","B"],"studentTrueClassroom":"B","exampleSet":"first","trial_type":"survey-html-form","trial_index":117,"time_elapsed":1807823,"internal_node_id":"0.0-103.0-0.0","params":{"nStudents":24,"maxFlips":30,"completionMinutes":45,"basePay":8,"maxBonus":9,"perTrialBonus":0.5,"perTrialBonusThreshold":0.05,"exampleCost":0.01},"classroomParams":{"A":{"a":1,"b":4},"B":{"a":4,"b":1},"C":{"a":2,"b":8},"D":{"a":8,"b":2}},"conditions":["nonSeqFull","nonSeqPartial","seqNoFeedback","seqFeedback"],"classroomPairings":[["A","B"],["C","D"]],"coinWeights":[0.2,0.5,0.8],"subjectId":"ABW8U1U74P8MI","assignmentId":"3X0H8UUIT2A4NQ280OGN6T4XKYHSWN","hitId":"3ZG552ORAMQWHINBPXRJ4QCSG7OV2V","url":"https://gershmanlab.com/experiments/alicia/teaching/experiment/?hitId=3ZG552ORAMQWHINBPXRJ4QCSG7OV2V&workerId=ABW8U1U74P8MI&assignmentId=3X0H8UUIT2A4NQ280OGN6T4XKYHSWN&a=I80X7&tp_a=I80X7&b=3X0H8UUIT2A4NQ280OGN6T4XKYHSWN&tp_b=3X0H8UUIT2A4NQ280OGN6T4XKYHSWN&c=365717&tp_c=365717","heads":0,"tails":15,"studentIndex":12,"studentTrueHypers":{"a":4,"b":1},"studentGuess":0.2,"delta":0,"totalExamples":15,"bonus":0.35,"bonusSoFar":1.73},{"rt":5259,"response":{"heads":"0","tails":"15"},"type":"response","condition":"seqNoFeedback","trueTheta":0.2,"classrooms":["A","B"],"studentTrueClassroom":"B","exampleSet":"first","trial_type":"survey-html-form","trial_index":123,"time_elapsed":1828669,"internal_node_id":"0.0-109.0-0.0","params":{"nStudents":24,"maxFlips":30,"completionMinutes":45,"basePay":8,"maxBonus":9,"perTrialBonus":0.5,"perTrialBonusThreshold":0.05,"exampleCost":0.01},"classroomParams":{"A":{"a":1,"b":4},"B":{"a":4,"b":1},"C":{"a":2,"b":8},"D":{"a":8,"b":2}},"conditions":["nonSeqFull","nonSeqPartial","seqNoFeedback","seqFeedback"],"classroomPairings":[["A","B"],["C","D"]],"coinWeights":[0.2,0.5,0.8],"subjectId":"ABW8U1U74P8MI","assignmentId":"3X0H8UUIT2A4NQ280OGN6T4XKYHSWN","hitId":"3ZG552ORAMQWHINBPXRJ4QCSG7OV2V","url":"https://gershmanlab.com/experiments/alicia/teaching/experiment/?hitId=3ZG552ORAMQWHINBPXRJ4QCSG7OV2V&workerId=ABW8U1U74P8MI&assignmentId=3X0H8UUIT2A4NQ280OGN6T4XKYHSWN&a=I80X7&tp_a=I80X7&b=3X0H8UUIT2A4NQ280OGN6T4XKYHSWN&tp_b=3X0H8UUIT2A4NQ280OGN6T4XKYHSWN&c=365717&tp_c=365717","heads":0,"tails":15,"studentIndex":13,"studentTrueHypers":{"a":4,"b":1},"studentGuess":0.2,"delta":0,"totalExamples":15,"bonusSoFar":1.73},{"rt":13268,"response":{"heads":"0","tails":"15"},"type":"response","condition":"seqNoFeedback","trueTheta":0.2,"classrooms":["A","B"],"studentTrueClassroom":"B","exampleSet":"second","trial_type":"survey-html-form","trial_index":126,"time_elapsed":1849210,"internal_node_id":"0.0-112.0-0.0","params":{"nStudents":24,"maxFlips":30,"completionMinutes":45,"basePay":8,"maxBonus":9,"perTrialBonus":0.5,"perTrialBonusThreshold":0.05,"exampleCost":0.01},"classroomParams":{"A":{"a":1,"b":4},"B":{"a":4,"b":1},"C":{"a":2,"b":8},"D":{"a":8,"b":2}},"conditions":["nonSeqFull","nonSeqPartial","seqNoFeedback","seqFeedback"],"classroomPairings":[["A","B"],["C","D"]],"coinWeights":[0.2,0.5,0.8],"subjectId":"ABW8U1U74P8MI","assignmentId":"3X0H8UUIT2A4NQ280OGN6T4XKYHSWN","hitId":"3ZG552ORAMQWHINBPXRJ4QCSG7OV2V","url":"https://gershmanlab.com/experiments/alicia/teaching/experiment/?hitId=3ZG552ORAMQWHINBPXRJ4QCSG7OV2V&workerId=ABW8U1U74P8MI&assignmentId=3X0H8UUIT2A4NQ280OGN6T4XKYHSWN&a=I80X7&tp_a=I80X7&b=3X0H8UUIT2A4NQ280OGN6T4XKYHSWN&tp_b=3X0H8UUIT2A4NQ280OGN6T4XKYHSWN&c=365717&tp_c=365717","firstResponseHeads":0,"firstResponseTails":15,"secondResponseHeads":0,"secondResponseTails":15,"totalHeads":0,"totalTails":30,"studentIndex":13,"studentTrueHypers":{"a":4,"b":1},"studentGuess":0.11428571428571428,"delta":0.08571428571428573,"bonus":0,"bonusSoFar":1.73,"totalExamples":30},{"rt":9873,"response":{"heads":"0","tails":"15"},"type":"response","condition":"seqNoFeedback","trueTheta":0.2,"classrooms":["C","D"],"studentTrueClassroom":"C","exampleSet":"first","trial_type":"survey-html-form","trial_index":132,"time_elapsed":1871250,"internal_node_id":"0.0-118.0-0.0","params":{"nStudents":24,"maxFlips":30,"completionMinutes":45,"basePay":8,"maxBonus":9,"perTrialBonus":0.5,"perTrialBonusThreshold":0.05,"exampleCost":0.01},"classroomParams":{"A":{"a":1,"b":4},"B":{"a":4,"b":1},"C":{"a":2,"b":8},"D":{"a":8,"b":2}},"conditions":["nonSeqFull","nonSeqPartial","seqNoFeedback","seqFeedback"],"classroomPairings":[["A","B"],["C","D"]],"coinWeights":[0.2,0.5,0.8],"subjectId":"ABW8U1U74P8MI","assignmentId":"3X0H8UUIT2A4NQ280OGN6T4XKYHSWN","hitId":"3ZG552ORAMQWHINBPXRJ4QCSG7OV2V","url":"https://gershmanlab.com/experiments/alicia/teaching/experiment/?hitId=3ZG552ORAMQWHINBPXRJ4QCSG7OV2V&workerId=ABW8U1U74P8MI&assignmentId=3X0H8UUIT2A4NQ280OGN6T4XKYHSWN&a=I80X7&tp_a=I80X7&b=3X0H8UUIT2A4NQ280OGN6T4XKYHSWN&tp_b=3X0H8UUIT2A4NQ280OGN6T4XKYHSWN&c=365717&tp_c=365717","heads":0,"tails":15,"studentIndex":14,"studentTrueHypers":{"a":2,"b":8},"studentGuess":0.08,"delta":0.12000000000000001,"totalExamples":15,"bonusSoFar":1.73},{"rt":6014,"response":{"heads":"0","tails":"10"},"type":"response","condition":"seqNoFeedback","trueTheta":0.2,"classrooms":["C","D"],"studentTrueClassroom":"C","exampleSet":"second","trial_type":"survey-html-form","trial_index":135,"time_elapsed":1884538,"internal_node_id":"0.0-121.0-0.0","params":{"nStudents":24,"maxFlips":30,"completionMinutes":45,"basePay":8,"maxBonus":9,"perTrialBonus":0.5,"perTrialBonusThreshold":0.05,"exampleCost":0.01},"classroomParams":{"A":{"a":1,"b":4},"B":{"a":4,"b":1},"C":{"a":2,"b":8},"D":{"a":8,"b":2}},"conditions":["nonSeqFull","nonSeqPartial","seqNoFeedback","seqFeedback"],"classroomPairings":[["A","B"],["C","D"]],"coinWeights":[0.2,0.5,0.8],"subjectId":"ABW8U1U74P8MI","assignmentId":"3X0H8UUIT2A4NQ280OGN6T4XKYHSWN","hitId":"3ZG552ORAMQWHINBPXRJ4QCSG7OV2V","url":"https://gershmanlab.com/experiments/alicia/teaching/experiment/?hitId=3ZG552ORAMQWHINBPXRJ4QCSG7OV2V&workerId=ABW8U1U74P8MI&assignmentId=3X0H8UUIT2A4NQ280OGN6T4XKYHSWN&a=I80X7&tp_a=I80X7&b=3X0H8UUIT2A4NQ280OGN6T4XKYHSWN&tp_b=3X0H8UUIT2A4NQ280OGN6T4XKYHSWN&c=365717&tp_c=365717","firstResponseHeads":0,"firstResponseTails":15,"secondResponseHeads":0,"secondResponseTails":10,"totalHeads":0,"totalTails":25,"studentIndex":14,"studentTrueHypers":{"a":2,"b":8},"studentGuess":0.05714285714285714,"delta":0.14285714285714288,"bonus":0,"bonusSoFar":1.73,"totalExamples":25},{"rt":8570,"response":{"heads":"5","tails":"10"},"type":"response","condition":"nonSeqPartial","trueTheta":0.2,"classrooms":["C","D"],"studentTrueClassroom":"C","exampleSet":"first","trial_type":"survey-html-form","trial_index":141,"time_elapsed":1905610,"internal_node_id":"0.0-127.0-0.0","params":{"nStudents":24,"maxFlips":30,"completionMinutes":45,"basePay":8,"maxBonus":9,"perTrialBonus":0.5,"perTrialBonusThreshold":0.05,"exampleCost":0.01},"classroomParams":{"A":{"a":1,"b":4},"B":{"a":4,"b":1},"C":{"a":2,"b":8},"D":{"a":8,"b":2}},"conditions":["nonSeqFull","nonSeqPartial","seqNoFeedback","seqFeedback"],"classroomPairings":[["A","B"],["C","D"]],"coinWeights":[0.2,0.5,0.8],"subjectId":"ABW8U1U74P8MI","assignmentId":"3X0H8UUIT2A4NQ280OGN6T4XKYHSWN","hitId":"3ZG552ORAMQWHINBPXRJ4QCSG7OV2V","url":"https://gershmanlab.com/experiments/alicia/teaching/experiment/?hitId=3ZG552ORAMQWHINBPXRJ4QCSG7OV2V&workerId=ABW8U1U74P8MI&assignmentId=3X0H8UUIT2A4NQ280OGN6T4XKYHSWN&a=I80X7&tp_a=I80X7&b=3X0H8UUIT2A4NQ280OGN6T4XKYHSWN&tp_b=3X0H8UUIT2A4NQ280OGN6T4XKYHSWN&c=365717&tp_c=365717","heads":5,"tails":10,"studentIndex":15,"studentTrueHypers":{"a":2,"b":8},"studentGuess":0.28,"delta":0.08000000000000002,"totalExamples":15,"bonus":0,"bonusSoFar":1.73},{"rt":4472,"response":{"heads":"10","tails":"0"},"type":"response","condition":"nonSeqPartial","trueTheta":0.8,"classrooms":["C","D"],"studentTrueClassroom":"C","exampleSet":"first","trial_type":"survey-html-form","trial_index":147,"time_elapsed":1923831,"internal_node_id":"0.0-133.0-0.0","params":{"nStudents":24,"maxFlips":30,"completionMinutes":45,"basePay":8,"maxBonus":9,"perTrialBonus":0.5,"perTrialBonusThreshold":0.05,"exampleCost":0.01},"classroomParams":{"A":{"a":1,"b":4},"B":{"a":4,"b":1},"C":{"a":2,"b":8},"D":{"a":8,"b":2}},"conditions":["nonSeqFull","nonSeqPartial","seqNoFeedback","seqFeedback"],"classroomPairings":[["A","B"],["C","D"]],"coinWeights":[0.2,0.5,0.8],"subjectId":"ABW8U1U74P8MI","assignmentId":"3X0H8UUIT2A4NQ280OGN6T4XKYHSWN","hitId":"3ZG552ORAMQWHINBPXRJ4QCSG7OV2V","url":"https://gershmanlab.com/experiments/alicia/teaching/experiment/?hitId=3ZG552ORAMQWHINBPXRJ4QCSG7OV2V&workerId=ABW8U1U74P8MI&assignmentId=3X0H8UUIT2A4NQ280OGN6T4XKYHSWN&a=I80X7&tp_a=I80X7&b=3X0H8UUIT2A4NQ280OGN6T4XKYHSWN&tp_b=3X0H8UUIT2A4NQ280OGN6T4XKYHSWN&c=365717&tp_c=365717","heads":10,"tails":0,"studentIndex":16,"studentTrueHypers":{"a":2,"b":8},"studentGuess":0.6,"delta":0.20000000000000007,"totalExamples":10,"bonus":0,"bonusSoFar":1.73},{"rt":9695,"response":{"heads":"5","tails":"5"},"type":"response","condition":"nonSeqPartial","trueTheta":0.5,"classrooms":["C","D"],"studentTrueClassroom":"D","exampleSet":"first","trial_type":"survey-html-form","trial_index":153,"time_elapsed":1946214,"internal_node_id":"0.0-139.0-0.0","params":{"nStudents":24,"maxFlips":30,"completionMinutes":45,"basePay":8,"maxBonus":9,"perTrialBonus":0.5,"perTrialBonusThreshold":0.05,"exampleCost":0.01},"classroomParams":{"A":{"a":1,"b":4},"B":{"a":4,"b":1},"C":{"a":2,"b":8},"D":{"a":8,"b":2}},"conditions":["nonSeqFull","nonSeqPartial","seqNoFeedback","seqFeedback"],"classroomPairings":[["A","B"],["C","D"]],"coinWeights":[0.2,0.5,0.8],"subjectId":"ABW8U1U74P8MI","assignmentId":"3X0H8UUIT2A4NQ280OGN6T4XKYHSWN","hitId":"3ZG552ORAMQWHINBPXRJ4QCSG7OV2V","url":"https://gershmanlab.com/experiments/alicia/teaching/experiment/?hitId=3ZG552ORAMQWHINBPXRJ4QCSG7OV2V&workerId=ABW8U1U74P8MI&assignmentId=3X0H8UUIT2A4NQ280OGN6T4XKYHSWN&a=I80X7&tp_a=I80X7&b=3X0H8UUIT2A4NQ280OGN6T4XKYHSWN&tp_b=3X0H8UUIT2A4NQ280OGN6T4XKYHSWN&c=365717&tp_c=365717","heads":5,"tails":5,"studentIndex":17,"studentTrueHypers":{"a":8,"b":2},"studentGuess":0.65,"delta":0.15000000000000002,"totalExamples":10,"bonus":0,"bonusSoFar":1.73},{"rt":7667,"response":{"heads":"0","tails":"5"},"type":"response","condition":"nonSeqFull","trueTheta":0.8,"classrooms":["C","D"],"studentTrueClassroom":"C","exampleSet":"first","trial_type":"survey-html-form","trial_index":159,"time_elapsed":1970297,"internal_node_id":"0.0-145.0-0.0","params":{"nStudents":24,"maxFlips":30,"completionMinutes":45,"basePay":8,"maxBonus":9,"perTrialBonus":0.5,"perTrialBonusThreshold":0.05,"exampleCost":0.01},"classroomParams":{"A":{"a":1,"b":4},"B":{"a":4,"b":1},"C":{"a":2,"b":8},"D":{"a":8,"b":2}},"conditions":["nonSeqFull","nonSeqPartial","seqNoFeedback","seqFeedback"],"classroomPairings":[["A","B"],["C","D"]],"coinWeights":[0.2,0.5,0.8],"subjectId":"ABW8U1U74P8MI","assignmentId":"3X0H8UUIT2A4NQ280OGN6T4XKYHSWN","hitId":"3ZG552ORAMQWHINBPXRJ4QCSG7OV2V","url":"https://gershmanlab.com/experiments/alicia/teaching/experiment/?hitId=3ZG552ORAMQWHINBPXRJ4QCSG7OV2V&workerId=ABW8U1U74P8MI&assignmentId=3X0H8UUIT2A4NQ280OGN6T4XKYHSWN&a=I80X7&tp_a=I80X7&b=3X0H8UUIT2A4NQ280OGN6T4XKYHSWN&tp_b=3X0H8UUIT2A4NQ280OGN6T4XKYHSWN&c=365717&tp_c=365717","heads":0,"tails":5,"studentIndex":18,"studentTrueHypers":{"a":2,"b":8},"studentGuess":0.13333333333333333,"delta":0.6666666666666667,"totalExamples":5,"bonus":0,"bonusSoFar":1.73},{"rt":11751,"response":{"heads":"6","tails":"1"},"type":"response","condition":"seqFeedback","trueTheta":0.8,"classrooms":["A","B"],"studentTrueClassroom":"B","exampleSet":"first","trial_type":"survey-html-form","trial_index":165,"time_elapsed":2007318,"internal_node_id":"0.0-151.0-0.0","params":{"nStudents":24,"maxFlips":30,"completionMinutes":45,"basePay":8,"maxBonus":9,"perTrialBonus":0.5,"perTrialBonusThreshold":0.05,"exampleCost":0.01},"classroomParams":{"A":{"a":1,"b":4},"B":{"a":4,"b":1},"C":{"a":2,"b":8},"D":{"a":8,"b":2}},"conditions":["nonSeqFull","nonSeqPartial","seqNoFeedback","seqFeedback"],"classroomPairings":[["A","B"],["C","D"]],"coinWeights":[0.2,0.5,0.8],"subjectId":"ABW8U1U74P8MI","assignmentId":"3X0H8UUIT2A4NQ280OGN6T4XKYHSWN","hitId":"3ZG552ORAMQWHINBPXRJ4QCSG7OV2V","url":"https://gershmanlab.com/experiments/alicia/teaching/experiment/?hitId=3ZG552ORAMQWHINBPXRJ4QCSG7OV2V&workerId=ABW8U1U74P8MI&assignmentId=3X0H8UUIT2A4NQ280OGN6T4XKYHSWN&a=I80X7&tp_a=I80X7&b=3X0H8UUIT2A4NQ280OGN6T4XKYHSWN&tp_b=3X0H8UUIT2A4NQ280OGN6T4XKYHSWN&c=365717&tp_c=365717","heads":6,"tails":1,"studentIndex":19,"studentTrueHypers":{"a":4,"b":1},"studentGuess":0.8333333333333334,"delta":0.033333333333333326,"totalExamples":7,"bonusSoFar":1.73},{"rt":9206,"response":{"heads":"0","tails":"0"},"type":"response","condition":"seqFeedback","trueTheta":0.8,"classrooms":["A","B"],"studentTrueClassroom":"B","exampleSet":"second","trial_type":"survey-html-form","trial_index":169,"time_elapsed":2030418,"internal_node_id":"0.0-155.0-0.0","params":{"nStudents":24,"maxFlips":30,"completionMinutes":45,"basePay":8,"maxBonus":9,"perTrialBonus":0.5,"perTrialBonusThreshold":0.05,"exampleCost":0.01},"classroomParams":{"A":{"a":1,"b":4},"B":{"a":4,"b":1},"C":{"a":2,"b":8},"D":{"a":8,"b":2}},"conditions":["nonSeqFull","nonSeqPartial","seqNoFeedback","seqFeedback"],"classroomPairings":[["A","B"],["C","D"]],"coinWeights":[0.2,0.5,0.8],"subjectId":"ABW8U1U74P8MI","assignmentId":"3X0H8UUIT2A4NQ280OGN6T4XKYHSWN","hitId":"3ZG552ORAMQWHINBPXRJ4QCSG7OV2V","url":"https://gershmanlab.com/experiments/alicia/teaching/experiment/?hitId=3ZG552ORAMQWHINBPXRJ4QCSG7OV2V&workerId=ABW8U1U74P8MI&assignmentId=3X0H8UUIT2A4NQ280OGN6T4XKYHSWN&a=I80X7&tp_a=I80X7&b=3X0H8UUIT2A4NQ280OGN6T4XKYHSWN&tp_b=3X0H8UUIT2A4NQ280OGN6T4XKYHSWN&c=365717&tp_c=365717","firstResponseHeads":6,"firstResponseTails":1,"secondResponseHeads":0,"secondResponseTails":0,"totalHeads":6,"totalTails":1,"studentIndex":19,"studentTrueHypers":{"a":4,"b":1},"studentGuess":0.8333333333333334,"delta":0.033333333333333326,"bonus":0.43,"bonusSoFar":2.16,"totalExamples":7},{"rt":10845,"response":{"heads":"1","tails":"1"},"type":"response","condition":"seqFeedback","trueTheta":0.8,"classrooms":["A","B"],"studentTrueClassroom":"B","exampleSet":"second","trial_type":"survey-html-form","trial_index":170,"time_elapsed":2041265,"internal_node_id":"0.0-155.1-0.1","params":{"nStudents":24,"maxFlips":30,"completionMinutes":45,"basePay":8,"maxBonus":9,"perTrialBonus":0.5,"perTrialBonusThreshold":0.05,"exampleCost":0.01},"classroomParams":{"A":{"a":1,"b":4},"B":{"a":4,"b":1},"C":{"a":2,"b":8},"D":{"a":8,"b":2}},"conditions":["nonSeqFull","nonSeqPartial","seqNoFeedback","seqFeedback"],"classroomPairings":[["A","B"],["C","D"]],"coinWeights":[0.2,0.5,0.8],"subjectId":"ABW8U1U74P8MI","assignmentId":"3X0H8UUIT2A4NQ280OGN6T4XKYHSWN","hitId":"3ZG552ORAMQWHINBPXRJ4QCSG7OV2V","url":"https://gershmanlab.com/experiments/alicia/teaching/experiment/?hitId=3ZG552ORAMQWHINBPXRJ4QCSG7OV2V&workerId=ABW8U1U74P8MI&assignmentId=3X0H8UUIT2A4NQ280OGN6T4XKYHSWN&a=I80X7&tp_a=I80X7&b=3X0H8UUIT2A4NQ280OGN6T4XKYHSWN&tp_b=3X0H8UUIT2A4NQ280OGN6T4XKYHSWN&c=365717&tp_c=365717","firstResponseHeads":6,"firstResponseTails":1,"secondResponseHeads":1,"secondResponseTails":1,"totalHeads":7,"totalTails":2,"studentIndex":19,"studentTrueHypers":{"a":4,"b":1},"studentGuess":0.7857142857142857,"delta":0.014285714285714346,"bonus":0.41,"bonusSoFar":2.57,"totalExamples":9},{"rt":12037,"response":{"heads":"8","tails":"8"},"type":"response","condition":"nonSeqPartial","trueTheta":0.5,"classrooms":["A","B"],"studentTrueClassroom":"A","exampleSet":"first","trial_type":"survey-html-form","trial_index":176,"time_elapsed":2070723,"internal_node_id":"0.0-161.0-0.0","params":{"nStudents":24,"maxFlips":30,"completionMinutes":45,"basePay":8,"maxBonus":9,"perTrialBonus":0.5,"perTrialBonusThreshold":0.05,"exampleCost":0.01},"classroomParams":{"A":{"a":1,"b":4},"B":{"a":4,"b":1},"C":{"a":2,"b":8},"D":{"a":8,"b":2}},"conditions":["nonSeqFull","nonSeqPartial","seqNoFeedback","seqFeedback"],"classroomPairings":[["A","B"],["C","D"]],"coinWeights":[0.2,0.5,0.8],"subjectId":"ABW8U1U74P8MI","assignmentId":"3X0H8UUIT2A4NQ280OGN6T4XKYHSWN","hitId":"3ZG552ORAMQWHINBPXRJ4QCSG7OV2V","url":"https://gershmanlab.com/experiments/alicia/teaching/experiment/?hitId=3ZG552ORAMQWHINBPXRJ4QCSG7OV2V&workerId=ABW8U1U74P8MI&assignmentId=3X0H8UUIT2A4NQ280OGN6T4XKYHSWN&a=I80X7&tp_a=I80X7&b=3X0H8UUIT2A4NQ280OGN6T4XKYHSWN&tp_b=3X0H8UUIT2A4NQ280OGN6T4XKYHSWN&c=365717&tp_c=365717","heads":8,"tails":8,"studentIndex":20,"studentTrueHypers":{"a":1,"b":4},"studentGuess":0.42857142857142855,"delta":0.07142857142857145,"totalExamples":16,"bonus":0,"bonusSoFar":2.57},{"rt":14252,"response":{"heads":"0","tails":"10"},"type":"response","condition":"nonSeqFull","trueTheta":0.2,"classrooms":["C","D"],"studentTrueClassroom":"D","exampleSet":"first","trial_type":"survey-html-form","trial_index":182,"time_elapsed":2095951,"internal_node_id":"0.0-167.0-0.0","params":{"nStudents":24,"maxFlips":30,"completionMinutes":45,"basePay":8,"maxBonus":9,"perTrialBonus":0.5,"perTrialBonusThreshold":0.05,"exampleCost":0.01},"classroomParams":{"A":{"a":1,"b":4},"B":{"a":4,"b":1},"C":{"a":2,"b":8},"D":{"a":8,"b":2}},"conditions":["nonSeqFull","nonSeqPartial","seqNoFeedback","seqFeedback"],"classroomPairings":[["A","B"],["C","D"]],"coinWeights":[0.2,0.5,0.8],"subjectId":"ABW8U1U74P8MI","assignmentId":"3X0H8UUIT2A4NQ280OGN6T4XKYHSWN","hitId":"3ZG552ORAMQWHINBPXRJ4QCSG7OV2V","url":"https://gershmanlab.com/experiments/alicia/teaching/experiment/?hitId=3ZG552ORAMQWHINBPXRJ4QCSG7OV2V&workerId=ABW8U1U74P8MI&assignmentId=3X0H8UUIT2A4NQ280OGN6T4XKYHSWN&a=I80X7&tp_a=I80X7&b=3X0H8UUIT2A4NQ280OGN6T4XKYHSWN&tp_b=3X0H8UUIT2A4NQ280OGN6T4XKYHSWN&c=365717&tp_c=365717","heads":0,"tails":10,"studentIndex":21,"studentTrueHypers":{"a":8,"b":2},"studentGuess":0.4,"delta":0.2,"totalExamples":10,"bonus":0,"bonusSoFar":2.57},{"rt":10994,"response":{"heads":"6","tails":"0"},"type":"response","condition":"seqNoFeedback","trueTheta":0.5,"classrooms":["C","D"],"studentTrueClassroom":"C","exampleSet":"first","trial_type":"survey-html-form","trial_index":188,"time_elapsed":2122898,"internal_node_id":"0.0-173.0-0.0","params":{"nStudents":24,"maxFlips":30,"completionMinutes":45,"basePay":8,"maxBonus":9,"perTrialBonus":0.5,"perTrialBonusThreshold":0.05,"exampleCost":0.01},"classroomParams":{"A":{"a":1,"b":4},"B":{"a":4,"b":1},"C":{"a":2,"b":8},"D":{"a":8,"b":2}},"conditions":["nonSeqFull","nonSeqPartial","seqNoFeedback","seqFeedback"],"classroomPairings":[["A","B"],["C","D"]],"coinWeights":[0.2,0.5,0.8],"subjectId":"ABW8U1U74P8MI","assignmentId":"3X0H8UUIT2A4NQ280OGN6T4XKYHSWN","hitId":"3ZG552ORAMQWHINBPXRJ4QCSG7OV2V","url":"https://gershmanlab.com/experiments/alicia/teaching/experiment/?hitId=3ZG552ORAMQWHINBPXRJ4QCSG7OV2V&workerId=ABW8U1U74P8MI&assignmentId=3X0H8UUIT2A4NQ280OGN6T4XKYHSWN&a=I80X7&tp_a=I80X7&b=3X0H8UUIT2A4NQ280OGN6T4XKYHSWN&tp_b=3X0H8UUIT2A4NQ280OGN6T4XKYHSWN&c=365717&tp_c=365717","heads":6,"tails":0,"studentIndex":22,"studentTrueHypers":{"a":2,"b":8},"studentGuess":0.5,"delta":0,"totalExamples":6,"bonusSoFar":2.57},{"rt":16458,"response":{"heads":"0","tails":"6"},"type":"response","condition":"seqNoFeedback","trueTheta":0.5,"classrooms":["C","D"],"studentTrueClassroom":"C","exampleSet":"second","trial_type":"survey-html-form","trial_index":191,"time_elapsed":2146636,"internal_node_id":"0.0-176.0-0.0","params":{"nStudents":24,"maxFlips":30,"completionMinutes":45,"basePay":8,"maxBonus":9,"perTrialBonus":0.5,"perTrialBonusThreshold":0.05,"exampleCost":0.01},"classroomParams":{"A":{"a":1,"b":4},"B":{"a":4,"b":1},"C":{"a":2,"b":8},"D":{"a":8,"b":2}},"conditions":["nonSeqFull","nonSeqPartial","seqNoFeedback","seqFeedback"],"classroomPairings":[["A","B"],["C","D"]],"coinWeights":[0.2,0.5,0.8],"subjectId":"ABW8U1U74P8MI","assignmentId":"3X0H8UUIT2A4NQ280OGN6T4XKYHSWN","hitId":"3ZG552ORAMQWHINBPXRJ4QCSG7OV2V","url":"https://gershmanlab.com/experiments/alicia/teaching/experiment/?hitId=3ZG552ORAMQWHINBPXRJ4QCSG7OV2V&workerId=ABW8U1U74P8MI&assignmentId=3X0H8UUIT2A4NQ280OGN6T4XKYHSWN&a=I80X7&tp_a=I80X7&b=3X0H8UUIT2A4NQ280OGN6T4XKYHSWN&tp_b=3X0H8UUIT2A4NQ280OGN6T4XKYHSWN&c=365717&tp_c=365717","firstResponseHeads":6,"firstResponseTails":0,"secondResponseHeads":0,"secondResponseTails":6,"totalHeads":6,"totalTails":6,"studentIndex":22,"studentTrueHypers":{"a":2,"b":8},"studentGuess":0.36363636363636365,"delta":0.13636363636363635,"bonus":0,"bonusSoFar":2.57,"totalExamples":12},{"rt":9928,"response":{"heads":"0","tails":"5"},"type":"response","condition":"seqFeedback","trueTheta":0.2,"classrooms":["A","B"],"studentTrueClassroom":"A","exampleSet":"first","trial_type":"survey-html-form","trial_index":197,"time_elapsed":2179084,"internal_node_id":"0.0-182.0-0.0","params":{"nStudents":24,"maxFlips":30,"completionMinutes":45,"basePay":8,"maxBonus":9,"perTrialBonus":0.5,"perTrialBonusThreshold":0.05,"exampleCost":0.01},"classroomParams":{"A":{"a":1,"b":4},"B":{"a":4,"b":1},"C":{"a":2,"b":8},"D":{"a":8,"b":2}},"conditions":["nonSeqFull","nonSeqPartial","seqNoFeedback","seqFeedback"],"classroomPairings":[["A","B"],["C","D"]],"coinWeights":[0.2,0.5,0.8],"subjectId":"ABW8U1U74P8MI","assignmentId":"3X0H8UUIT2A4NQ280OGN6T4XKYHSWN","hitId":"3ZG552ORAMQWHINBPXRJ4QCSG7OV2V","url":"https://gershmanlab.com/experiments/alicia/teaching/experiment/?hitId=3ZG552ORAMQWHINBPXRJ4QCSG7OV2V&workerId=ABW8U1U74P8MI&assignmentId=3X0H8UUIT2A4NQ280OGN6T4XKYHSWN&a=I80X7&tp_a=I80X7&b=3X0H8UUIT2A4NQ280OGN6T4XKYHSWN&tp_b=3X0H8UUIT2A4NQ280OGN6T4XKYHSWN&c=365717&tp_c=365717","heads":0,"tails":5,"studentIndex":23,"studentTrueHypers":{"a":1,"b":4},"studentGuess":0.1,"delta":0.1,"totalExamples":5,"bonusSoFar":2.57},{"rt":5886,"response":{"heads":"5","tails":"0"},"type":"response","condition":"seqFeedback","trueTheta":0.2,"classrooms":["A","B"],"studentTrueClassroom":"A","exampleSet":"second","trial_type":"survey-html-form","trial_index":201,"time_elapsed":2196547,"internal_node_id":"0.0-186.0-0.0","params":{"nStudents":24,"maxFlips":30,"completionMinutes":45,"basePay":8,"maxBonus":9,"perTrialBonus":0.5,"perTrialBonusThreshold":0.05,"exampleCost":0.01},"classroomParams":{"A":{"a":1,"b":4},"B":{"a":4,"b":1},"C":{"a":2,"b":8},"D":{"a":8,"b":2}},"conditions":["nonSeqFull","nonSeqPartial","seqNoFeedback","seqFeedback"],"classroomPairings":[["A","B"],["C","D"]],"coinWeights":[0.2,0.5,0.8],"subjectId":"ABW8U1U74P8MI","assignmentId":"3X0H8UUIT2A4NQ280OGN6T4XKYHSWN","hitId":"3ZG552ORAMQWHINBPXRJ4QCSG7OV2V","url":"https://gershmanlab.com/experiments/alicia/teaching/experiment/?hitId=3ZG552ORAMQWHINBPXRJ4QCSG7OV2V&workerId=ABW8U1U74P8MI&assignmentId=3X0H8UUIT2A4NQ280OGN6T4XKYHSWN&a=I80X7&tp_a=I80X7&b=3X0H8UUIT2A4NQ280OGN6T4XKYHSWN&tp_b=3X0H8UUIT2A4NQ280OGN6T4XKYHSWN&c=365717&tp_c=365717","firstResponseHeads":0,"firstResponseTails":5,"secondResponseHeads":5,"secondResponseTails":0,"totalHeads":5,"totalTails":5,"studentIndex":23,"studentTrueHypers":{"a":1,"b":4},"studentGuess":0.4,"delta":0.2,"bonus":0,"bonusSoFar":2.57,"totalExamples":10},{"rt":11585,"response":{"gender":"male","age":"28","understood":"yes","comments":"None"},"type":"response","trial_type":"survey-html-form","trial_index":205,"time_elapsed":2216937,"internal_node_id":"0.0-191.0","params":{"nStudents":24,"maxFlips":30,"completionMinutes":45,"basePay":8,"maxBonus":9,"perTrialBonus":0.5,"perTrialBonusThreshold":0.05,"exampleCost":0.01},"classroomParams":{"A":{"a":1,"b":4},"B":{"a":4,"b":1},"C":{"a":2,"b":8},"D":{"a":8,"b":2}},"conditions":["nonSeqFull","nonSeqPartial","seqNoFeedback","seqFeedback"],"classroomPairings":[["A","B"],["C","D"]],"coinWeights":[0.2,0.5,0.8],"subjectId":"ABW8U1U74P8MI","assignmentId":"3X0H8UUIT2A4NQ280OGN6T4XKYHSWN","hitId":"3ZG552ORAMQWHINBPXRJ4QCSG7OV2V","url":"https://gershmanlab.com/experiments/alicia/teaching/experiment/?hitId=3ZG552ORAMQWHINBPXRJ4QCSG7OV2V&workerId=ABW8U1U74P8MI&assignmentId=3X0H8UUIT2A4NQ280OGN6T4XKYHSWN&a=I80X7&tp_a=I80X7&b=3X0H8UUIT2A4NQ280OGN6T4XKYHSWN&tp_b=3X0H8UUIT2A4NQ280OGN6T4XKYHSWN&c=365717&tp_c=365717","totalBonus":2.57}]