[{"rt":63154,"response":{"heads":"0","tails":"4"},"type":"response","condition":"seqFeedback","trueTheta":0.2,"classrooms":["A","B"],"studentTrueClassroom":"B","exampleSet":"first","trial_type":"survey-html-form","trial_index":88,"time_elapsed":2128762,"internal_node_id":"0.0-6.0-0.0","params":{"nStudents":24,"maxFlips":30,"completionMinutes":45,"basePay":8,"maxBonus":9,"perTrialBonus":0.5,"perTrialBonusThreshold":0.05,"exampleCost":0.01},"classroomParams":{"A":{"a":1,"b":4},"B":{"a":4,"b":1},"C":{"a":2,"b":8},"D":{"a":8,"b":2}},"conditions":["nonSeqFull","nonSeqPartial","seqNoFeedback","seqFeedback"],"classroomPairings":[["A","B"],["C","D"]],"coinWeights":[0.2,0.5,0.8],"subjectId":"ACKG8OU1KHKO2","assignmentId":"30H4UDGLT34B5MS245662QXVZDHMPX","hitId":"3UDTAB6HH6LRO17U79I9TKUGSHV90J","url":"https://gershmanlab.com/experiments/alicia/teaching/experiment/?hitId=3UDTAB6HH6LRO17U79I9TKUGSHV90J&workerId=ACKG8OU1KHKO2&assignmentId=30H4UDGLT34B5MS245662QXVZDHMPX&a=LUH09&tp_a=LUH09&b=30H4UDGLT34B5MS245662QXVZDHMPX&tp_b=30H4UDGLT34B5MS245662QXVZDHMPX&c=365799&tp_c=365799","heads":0,"tails":4,"studentIndex":0,"studentTrueHypers":{"a":4,"b":1},"studentGuess":0.4444444444444444,"delta":0.2444444444444444,"totalExamples":4,"bonusSoFar":0},{"rt":5345,"response":{"heads":"0","tails":"4"},"type":"response","condition":"seqFeedback","trueTheta":0.2,"classrooms":["A","B"],"studentTrueClassroom":"B","exampleSet":"second","trial_type":"survey-html-form","trial_index":92,"time_elapsed":2143968,"internal_node_id":"0.0-10.0-0.0","params":{"nStudents":24,"maxFlips":30,"completionMinutes":45,"basePay":8,"maxBonus":9,"perTrialBonus":0.5,"perTrialBonusThreshold":0.05,"exampleCost":0.01},"classroomParams":{"A":{"a":1,"b":4},"B":{"a":4,"b":1},"C":{"a":2,"b":8},"D":{"a":8,"b":2}},"conditions":["nonSeqFull","nonSeqPartial","seqNoFeedback","seqFeedback"],"classroomPairings":[["A","B"],["C","D"]],"coinWeights":[0.2,0.5,0.8],"subjectId":"ACKG8OU1KHKO2","assignmentId":"30H4UDGLT34B5MS245662QXVZDHMPX","hitId":"3UDTAB6HH6LRO17U79I9TKUGSHV90J","url":"https://gershmanlab.com/experiments/alicia/teaching/experiment/?hitId=3UDTAB6HH6LRO17U79I9TKUGSHV90J&workerId=ACKG8OU1KHKO2&assignmentId=30H4UDGLT34B5MS245662QXVZDHMPX&a=LUH09&tp_a=LUH09&b=30H4UDGLT34B5MS245662QXVZDHMPX&tp_b=30H4UDGLT34B5MS245662QXVZDHMPX&c=365799&tp_c=365799","firstResponseHeads":0,"firstResponseTails":4,"secondResponseHeads":0,"secondResponseTails":4,"totalHeads":0,"totalTails":8,"studentIndex":0,"studentTrueHypers":{"a":4,"b":1},"studentGuess":0.3076923076923077,"delta":0.1076923076923077,"bonus":0,"bonusSoFar":0,"totalExamples":8},{"rt":7135,"response":{"heads":"1","tails":"0"},"type":"response","condition":"seqNoFeedback","trueTheta":0.2,"classrooms":["C","D"],"studentTrueClassroom":"D","exampleSet":"first","trial_type":"survey-html-form","trial_index":98,"time_elapsed":2168389,"internal_node_id":"0.0-16.0-0.0","params":{"nStudents":24,"maxFlips":30,"completionMinutes":45,"basePay":8,"maxBonus":9,"perTrialBonus":0.5,"perTrialBonusThreshold":0.05,"exampleCost":0.01},"classroomParams":{"A":{"a":1,"b":4},"B":{"a":4,"b":1},"C":{"a":2,"b":8},"D":{"a":8,"b":2}},"conditions":["nonSeqFull","nonSeqPartial","seqNoFeedback","seqFeedback"],"classroomPairings":[["A","B"],["C","D"]],"coinWeights":[0.2,0.5,0.8],"subjectId":"ACKG8OU1KHKO2","assignmentId":"30H4UDGLT34B5MS245662QXVZDHMPX","hitId":"3UDTAB6HH6LRO17U79I9TKUGSHV90J","url":"https://gershmanlab.com/experiments/alicia/teaching/experiment/?hitId=3UDTAB6HH6LRO17U79I9TKUGSHV90J&workerId=ACKG8OU1KHKO2&assignmentId=30H4UDGLT34B5MS245662QXVZDHMPX&a=LUH09&tp_a=LUH09&b=30H4UDGLT34B5MS245662QXVZDHMPX&tp_b=30H4UDGLT34B5MS245662QXVZDHMPX&c=365799&tp_c=365799","heads":1,"tails":0,"studentIndex":1,"studentTrueHypers":{"a":8,"b":2},"studentGuess":0.8181818181818182,"delta":0.6181818181818182,"totalExamples":1,"bonusSoFar":0},{"rt":6542,"response":{"heads":"0","tails":"1"},"type":"response","condition":"seqNoFeedback","trueTheta":0.2,"classrooms":["C","D"],"studentTrueClassroom":"D","exampleSet":"second","trial_type":"survey-html-form","trial_index":101,"time_elapsed":2180186,"internal_node_id":"0.0-19.0-0.0","params":{"nStudents":24,"maxFlips":30,"completionMinutes":45,"basePay":8,"maxBonus":9,"perTrialBonus":0.5,"perTrialBonusThreshold":0.05,"exampleCost":0.01},"classroomParams":{"A":{"a":1,"b":4},"B":{"a":4,"b":1},"C":{"a":2,"b":8},"D":{"a":8,"b":2}},"conditions":["nonSeqFull","nonSeqPartial","seqNoFeedback","seqFeedback"],"classroomPairings":[["A","B"],["C","D"]],"coinWeights":[0.2,0.5,0.8],"subjectId":"ACKG8OU1KHKO2","assignmentId":"30H4UDGLT34B5MS245662QXVZDHMPX","hitId":"3UDTAB6HH6LRO17U79I9TKUGSHV90J","url":"https://gershmanlab.com/experiments/alicia/teaching/experiment/?hitId=3UDTAB6HH6LRO17U79I9TKUGSHV90J&workerId=ACKG8OU1KHKO2&assignmentId=30H4UDGLT34B5MS245662QXVZDHMPX&a=LUH09&tp_a=LUH09&b=30H4UDGLT34B5MS245662QXVZDHMPX&tp_b=30H4UDGLT34B5MS245662QXVZDHMPX&c=365799&tp_c=365799","firstResponseHeads":1,"firstResponseTails":0,"secondResponseHeads":0,"secondResponseTails":1,"totalHeads":1,"totalTails":1,"studentIndex":1,"studentTrueHypers":{"a":8,"b":2},"studentGuess":0.75,"delta":0.55,"bonus":0,"bonusSoFar":0,"totalExamples":2},{"rt":9492,"response":{"heads":"0","tails":"10"},"type":"response","condition":"nonSeqFull","trueTheta":0.5,"classrooms":["C","D"],"studentTrueClassroom":"C","exampleSet":"first","trial_type":"survey-html-form","trial_index":107,"time_elapsed":2206398,"internal_node_id":"0.0-25.0-0.0","params":{"nStudents":24,"maxFlips":30,"completionMinutes":45,"basePay":8,"maxBonus":9,"perTrialBonus":0.5,"perTrialBonusThreshold":0.05,"exampleCost":0.01},"classroomParams":{"A":{"a":1,"b":4},"B":{"a":4,"b":1},"C":{"a":2,"b":8},"D":{"a":8,"b":2}},"conditions":["nonSeqFull","nonSeqPartial","seqNoFeedback","seqFeedback"],"classroomPairings":[["A","B"],["C","D"]],"coinWeights":[0.2,0.5,0.8],"subjectId":"ACKG8OU1KHKO2","assignmentId":"30H4UDGLT34B5MS245662QXVZDHMPX","hitId":"3UDTAB6HH6LRO17U79I9TKUGSHV90J","url":"https://gershmanlab.com/experiments/alicia/teaching/experiment/?hitId=3UDTAB6HH6LRO17U79I9TKUGSHV90J&workerId=ACKG8OU1KHKO2&assignmentId=30H4UDGLT34B5MS245662QXVZDHMPX&a=LUH09&tp_a=LUH09&b=30H4UDGLT34B5MS245662QXVZDHMPX&tp_b=30H4UDGLT34B5MS245662QXVZDHMPX&c=365799&tp_c=365799","heads":0,"tails":10,"studentIndex":2,"studentTrueHypers":{"a":2,"b":8},"studentGuess":0.1,"delta":0.4,"totalExamples":10,"bonus":0,"bonusSoFar":0},{"rt":5547,"response":{"heads":"8","tails":"0"},"type":"response","condition":"nonSeqPartial","trueTheta":0.8,"classrooms":["A","B"],"studentTrueClassroom":"A","exampleSet":"first","trial_type":"survey-html-form","trial_index":113,"time_elapsed":2224554,"internal_node_id":"0.0-31.0-0.0","params":{"nStudents":24,"maxFlips":30,"completionMinutes":45,"basePay":8,"maxBonus":9,"perTrialBonus":0.5,"perTrialBonusThreshold":0.05,"exampleCost":0.01},"classroomParams":{"A":{"a":1,"b":4},"B":{"a":4,"b":1},"C":{"a":2,"b":8},"D":{"a":8,"b":2}},"conditions":["nonSeqFull","nonSeqPartial","seqNoFeedback","seqFeedback"],"classroomPairings":[["A","B"],["C","D"]],"coinWeights":[0.2,0.5,0.8],"subjectId":"ACKG8OU1KHKO2","assignmentId":"30H4UDGLT34B5MS245662QXVZDHMPX","hitId":"3UDTAB6HH6LRO17U79I9TKUGSHV90J","url":"https://gershmanlab.com/experiments/alicia/teaching/experiment/?hitId=3UDTAB6HH6LRO17U79I9TKUGSHV90J&workerId=ACKG8OU1KHKO2&assignmentId=30H4UDGLT34B5MS245662QXVZDHMPX&a=LUH09&tp_a=LUH09&b=30H4UDGLT34B5MS245662QXVZDHMPX&tp_b=30H4UDGLT34B5MS245662QXVZDHMPX&c=365799&tp_c=365799","heads":8,"tails":0,"studentIndex":3,"studentTrueHypers":{"a":1,"b":4},"studentGuess":0.6923076923076923,"delta":0.10769230769230775,"totalExamples":8,"bonus":0,"bonusSoFar":0},{"rt":10760,"response":{"heads":"0","tails":"30"},"type":"response","condition":"nonSeqFull","trueTheta":0.5,"classrooms":["A","B"],"studentTrueClassroom":"A","exampleSet":"first","trial_type":"survey-html-form","trial_index":119,"time_elapsed":2248163,"internal_node_id":"0.0-37.0-0.0","params":{"nStudents":24,"maxFlips":30,"completionMinutes":45,"basePay":8,"maxBonus":9,"perTrialBonus":0.5,"perTrialBonusThreshold":0.05,"exampleCost":0.01},"classroomParams":{"A":{"a":1,"b":4},"B":{"a":4,"b":1},"C":{"a":2,"b":8},"D":{"a":8,"b":2}},"conditions":["nonSeqFull","nonSeqPartial","seqNoFeedback","seqFeedback"],"classroomPairings":[["A","B"],["C","D"]],"coinWeights":[0.2,0.5,0.8],"subjectId":"ACKG8OU1KHKO2","assignmentId":"30H4UDGLT34B5MS245662QXVZDHMPX","hitId":"3UDTAB6HH6LRO17U79I9TKUGSHV90J","url":"https://gershmanlab.com/experiments/alicia/teaching/experiment/?hitId=3UDTAB6HH6LRO17U79I9TKUGSHV90J&workerId=ACKG8OU1KHKO2&assignmentId=30H4UDGLT34B5MS245662QXVZDHMPX&a=LUH09&tp_a=LUH09&b=30H4UDGLT34B5MS245662QXVZDHMPX&tp_b=30H4UDGLT34B5MS245662QXVZDHMPX&c=365799&tp_c=365799","heads":0,"tails":30,"studentIndex":4,"studentTrueHypers":{"a":1,"b":4},"studentGuess":0.02857142857142857,"delta":0.4714285714285714,"totalExamples":30,"bonus":0,"bonusSoFar":0},{"rt":6124,"response":{"heads":"15","tails":"0"},"type":"response","condition":"seqNoFeedback","trueTheta":0.8,"classrooms":["C","D"],"studentTrueClassroom":"D","exampleSet":"first","trial_type":"survey-html-form","trial_index":125,"time_elapsed":2265879,"internal_node_id":"0.0-43.0-0.0","params":{"nStudents":24,"maxFlips":30,"completionMinutes":45,"basePay":8,"maxBonus":9,"perTrialBonus":0.5,"perTrialBonusThreshold":0.05,"exampleCost":0.01},"classroomParams":{"A":{"a":1,"b":4},"B":{"a":4,"b":1},"C":{"a":2,"b":8},"D":{"a":8,"b":2}},"conditions":["nonSeqFull","nonSeqPartial","seqNoFeedback","seqFeedback"],"classroomPairings":[["A","B"],["C","D"]],"coinWeights":[0.2,0.5,0.8],"subjectId":"ACKG8OU1KHKO2","assignmentId":"30H4UDGLT34B5MS245662QXVZDHMPX","hitId":"3UDTAB6HH6LRO17U79I9TKUGSHV90J","url":"https://gershmanlab.com/experiments/alicia/teaching/experiment/?hitId=3UDTAB6HH6LRO17U79I9TKUGSHV90J&workerId=ACKG8OU1KHKO2&assignmentId=30H4UDGLT34B5MS245662QXVZDHMPX&a=LUH09&tp_a=LUH09&b=30H4UDGLT34B5MS245662QXVZDHMPX&tp_b=30H4UDGLT34B5MS245662QXVZDHMPX&c=365799&tp_c=365799","heads":15,"tails":0,"studentIndex":5,"studentTrueHypers":{"a":8,"b":2},"studentGuess":0.92,"delta":0.12,"totalExamples":15,"bonusSoFar":0},{"rt":2459,"response":{"heads":"15","tails":"0"},"type":"response","condition":"seqNoFeedback","trueTheta":0.8,"classrooms":["C","D"],"studentTrueClassroom":"D","exampleSet":"second","trial_type":"survey-html-form","trial_index":128,"time_elapsed":2275847,"internal_node_id":"0.0-46.0-0.0","params":{"nStudents":24,"maxFlips":30,"completionMinutes":45,"basePay":8,"maxBonus":9,"perTrialBonus":0.5,"perTrialBonusThreshold":0.05,"exampleCost":0.01},"classroomParams":{"A":{"a":1,"b":4},"B":{"a":4,"b":1},"C":{"a":2,"b":8},"D":{"a":8,"b":2}},"conditions":["nonSeqFull","nonSeqPartial","seqNoFeedback","seqFeedback"],"classroomPairings":[["A","B"],["C","D"]],"coinWeights":[0.2,0.5,0.8],"subjectId":"ACKG8OU1KHKO2","assignmentId":"30H4UDGLT34B5MS245662QXVZDHMPX","hitId":"3UDTAB6HH6LRO17U79I9TKUGSHV90J","url":"https://gershmanlab.com/experiments/alicia/teaching/experiment/?hitId=3UDTAB6HH6LRO17U79I9TKUGSHV90J&workerId=ACKG8OU1KHKO2&assignmentId=30H4UDGLT34B5MS245662QXVZDHMPX&a=LUH09&tp_a=LUH09&b=30H4UDGLT34B5MS245662QXVZDHMPX&tp_b=30H4UDGLT34B5MS245662QXVZDHMPX&c=365799&tp_c=365799","firstResponseHeads":15,"firstResponseTails":0,"secondResponseHeads":15,"secondResponseTails":0,"totalHeads":30,"totalTails":0,"studentIndex":5,"studentTrueHypers":{"a":8,"b":2},"studentGuess":0.95,"delta":0.1499999999999999,"bonus":0,"bonusSoFar":0,"totalExamples":30},{"rt":8269,"response":{"heads":"15","tails":"15"},"type":"response","condition":"seqFeedback","trueTheta":0.2,"classrooms":["C","D"],"studentTrueClassroom":"C","exampleSet":"first","trial_type":"survey-html-form","trial_index":134,"time_elapsed":2295756,"internal_node_id":"0.0-52.0-0.0","params":{"nStudents":24,"maxFlips":30,"completionMinutes":45,"basePay":8,"maxBonus":9,"perTrialBonus":0.5,"perTrialBonusThreshold":0.05,"exampleCost":0.01},"classroomParams":{"A":{"a":1,"b":4},"B":{"a":4,"b":1},"C":{"a":2,"b":8},"D":{"a":8,"b":2}},"conditions":["nonSeqFull","nonSeqPartial","seqNoFeedback","seqFeedback"],"classroomPairings":[["A","B"],["C","D"]],"coinWeights":[0.2,0.5,0.8],"subjectId":"ACKG8OU1KHKO2","assignmentId":"30H4UDGLT34B5MS245662QXVZDHMPX","hitId":"3UDTAB6HH6LRO17U79I9TKUGSHV90J","url":"https://gershmanlab.com/experiments/alicia/teaching/experiment/?hitId=3UDTAB6HH6LRO17U79I9TKUGSHV90J&workerId=ACKG8OU1KHKO2&assignmentId=30H4UDGLT34B5MS245662QXVZDHMPX&a=LUH09&tp_a=LUH09&b=30H4UDGLT34B5MS245662QXVZDHMPX&tp_b=30H4UDGLT34B5MS245662QXVZDHMPX&c=365799&tp_c=365799","heads":15,"tails":15,"studentIndex":6,"studentTrueHypers":{"a":2,"b":8},"studentGuess":0.425,"delta":0.22499999999999998,"totalExamples":30,"bonusSoFar":0},{"rt":9202,"response":{"heads":"15","tails":"15"},"type":"response","condition":"seqFeedback","trueTheta":0.2,"classrooms":["C","D"],"studentTrueClassroom":"C","exampleSet":"second","trial_type":"survey-html-form","trial_index":138,"time_elapsed":2316828,"internal_node_id":"0.0-56.0-0.0","params":{"nStudents":24,"maxFlips":30,"completionMinutes":45,"basePay":8,"maxBonus":9,"perTrialBonus":0.5,"perTrialBonusThreshold":0.05,"exampleCost":0.01},"classroomParams":{"A":{"a":1,"b":4},"B":{"a":4,"b":1},"C":{"a":2,"b":8},"D":{"a":8,"b":2}},"conditions":["nonSeqFull","nonSeqPartial","seqNoFeedback","seqFeedback"],"classroomPairings":[["A","B"],["C","D"]],"coinWeights":[0.2,0.5,0.8],"subjectId":"ACKG8OU1KHKO2","assignmentId":"30H4UDGLT34B5MS245662QXVZDHMPX","hitId":"3UDTAB6HH6LRO17U79I9TKUGSHV90J","url":"https://gershmanlab.com/experiments/alicia/teaching/experiment/?hitId=3UDTAB6HH6LRO17U79I9TKUGSHV90J&workerId=ACKG8OU1KHKO2&assignmentId=30H4UDGLT34B5MS245662QXVZDHMPX&a=LUH09&tp_a=LUH09&b=30H4UDGLT34B5MS245662QXVZDHMPX&tp_b=30H4UDGLT34B5MS245662QXVZDHMPX&c=365799&tp_c=365799","firstResponseHeads":15,"firstResponseTails":15,"secondResponseHeads":15,"secondResponseTails":15,"totalHeads":30,"totalTails":30,"studentIndex":6,"studentTrueHypers":{"a":2,"b":8},"studentGuess":0.45714285714285713,"delta":0.2571428571428571,"bonus":0,"bonusSoFar":0,"totalExamples":60},{"rt":4004,"response":{"heads":"0","tails":"22"},"type":"response","condition":"nonSeqFull","trueTheta":0.2,"classrooms":["C","D"],"studentTrueClassroom":"C","exampleSet":"first","trial_type":"survey-html-form","trial_index":144,"time_elapsed":2331601,"internal_node_id":"0.0-62.0-0.0","params":{"nStudents":24,"maxFlips":30,"completionMinutes":45,"basePay":8,"maxBonus":9,"perTrialBonus":0.5,"perTrialBonusThreshold":0.05,"exampleCost":0.01},"classroomParams":{"A":{"a":1,"b":4},"B":{"a":4,"b":1},"C":{"a":2,"b":8},"D":{"a":8,"b":2}},"conditions":["nonSeqFull","nonSeqPartial","seqNoFeedback","seqFeedback"],"classroomPairings":[["A","B"],["C","D"]],"coinWeights":[0.2,0.5,0.8],"subjectId":"ACKG8OU1KHKO2","assignmentId":"30H4UDGLT34B5MS245662QXVZDHMPX","hitId":"3UDTAB6HH6LRO17U79I9TKUGSHV90J","url":"https://gershmanlab.com/experiments/alicia/teaching/experiment/?hitId=3UDTAB6HH6LRO17U79I9TKUGSHV90J&workerId=ACKG8OU1KHKO2&assignmentId=30H4UDGLT34B5MS245662QXVZDHMPX&a=LUH09&tp_a=LUH09&b=30H4UDGLT34B5MS245662QXVZDHMPX&tp_b=30H4UDGLT34B5MS245662QXVZDHMPX&c=365799&tp_c=365799","heads":0,"tails":22,"studentIndex":7,"studentTrueHypers":{"a":2,"b":8},"studentGuess":0.0625,"delta":0.1375,"totalExamples":22,"bonus":0,"bonusSoFar":0},{"rt":7486,"response":{"heads":"30","tails":"0"},"type":"response","condition":"seqFeedback","trueTheta":0.8,"classrooms":["C","D"],"studentTrueClassroom":"C","exampleSet":"first","trial_type":"survey-html-form","trial_index":150,"time_elapsed":2357351,"internal_node_id":"0.0-68.0-0.0","params":{"nStudents":24,"maxFlips":30,"completionMinutes":45,"basePay":8,"maxBonus":9,"perTrialBonus":0.5,"perTrialBonusThreshold":0.05,"exampleCost":0.01},"classroomParams":{"A":{"a":1,"b":4},"B":{"a":4,"b":1},"C":{"a":2,"b":8},"D":{"a":8,"b":2}},"conditions":["nonSeqFull","nonSeqPartial","seqNoFeedback","seqFeedback"],"classroomPairings":[["A","B"],["C","D"]],"coinWeights":[0.2,0.5,0.8],"subjectId":"ACKG8OU1KHKO2","assignmentId":"30H4UDGLT34B5MS245662QXVZDHMPX","hitId":"3UDTAB6HH6LRO17U79I9TKUGSHV90J","url":"https://gershmanlab.com/experiments/alicia/teaching/experiment/?hitId=3UDTAB6HH6LRO17U79I9TKUGSHV90J&workerId=ACKG8OU1KHKO2&assignmentId=30H4UDGLT34B5MS245662QXVZDHMPX&a=LUH09&tp_a=LUH09&b=30H4UDGLT34B5MS245662QXVZDHMPX&tp_b=30H4UDGLT34B5MS245662QXVZDHMPX&c=365799&tp_c=365799","heads":30,"tails":0,"studentIndex":8,"studentTrueHypers":{"a":2,"b":8},"studentGuess":0.8,"delta":0,"totalExamples":30,"bonusSoFar":0},{"rt":3691,"response":{"heads":"30","tails":"0"},"type":"response","condition":"seqFeedback","trueTheta":0.8,"classrooms":["C","D"],"studentTrueClassroom":"C","exampleSet":"second","trial_type":"survey-html-form","trial_index":154,"time_elapsed":2367476,"internal_node_id":"0.0-72.0-0.0","params":{"nStudents":24,"maxFlips":30,"completionMinutes":45,"basePay":8,"maxBonus":9,"perTrialBonus":0.5,"perTrialBonusThreshold":0.05,"exampleCost":0.01},"classroomParams":{"A":{"a":1,"b":4},"B":{"a":4,"b":1},"C":{"a":2,"b":8},"D":{"a":8,"b":2}},"conditions":["nonSeqFull","nonSeqPartial","seqNoFeedback","seqFeedback"],"classroomPairings":[["A","B"],["C","D"]],"coinWeights":[0.2,0.5,0.8],"subjectId":"ACKG8OU1KHKO2","assignmentId":"30H4UDGLT34B5MS245662QXVZDHMPX","hitId":"3UDTAB6HH6LRO17U79I9TKUGSHV90J","url":"https://gershmanlab.com/experiments/alicia/teaching/experiment/?hitId=3UDTAB6HH6LRO17U79I9TKUGSHV90J&workerId=ACKG8OU1KHKO2&assignmentId=30H4UDGLT34B5MS245662QXVZDHMPX&a=LUH09&tp_a=LUH09&b=30H4UDGLT34B5MS245662QXVZDHMPX&tp_b=30H4UDGLT34B5MS245662QXVZDHMPX&c=365799&tp_c=365799","firstResponseHeads":30,"firstResponseTails":0,"secondResponseHeads":30,"secondResponseTails":0,"totalHeads":60,"totalTails":0,"studentIndex":8,"studentTrueHypers":{"a":2,"b":8},"studentGuess":0.8857142857142857,"delta":0.08571428571428563,"bonus":0,"bonusSoFar":0,"totalExamples":60},{"rt":2743,"response":{"heads":"20","tails":"0"},"type":"response","condition":"seqFeedback","trueTheta":0.8,"classrooms":["A","B"],"studentTrueClassroom":"A","exampleSet":"first","trial_type":"survey-html-form","trial_index":160,"time_elapsed":2386778,"internal_node_id":"0.0-78.0-0.0","params":{"nStudents":24,"maxFlips":30,"completionMinutes":45,"basePay":8,"maxBonus":9,"perTrialBonus":0.5,"perTrialBonusThreshold":0.05,"exampleCost":0.01},"classroomParams":{"A":{"a":1,"b":4},"B":{"a":4,"b":1},"C":{"a":2,"b":8},"D":{"a":8,"b":2}},"conditions":["nonSeqFull","nonSeqPartial","seqNoFeedback","seqFeedback"],"classroomPairings":[["A","B"],["C","D"]],"coinWeights":[0.2,0.5,0.8],"subjectId":"ACKG8OU1KHKO2","assignmentId":"30H4UDGLT34B5MS245662QXVZDHMPX","hitId":"3UDTAB6HH6LRO17U79I9TKUGSHV90J","url":"https://gershmanlab.com/experiments/alicia/teaching/experiment/?hitId=3UDTAB6HH6LRO17U79I9TKUGSHV90J&workerId=ACKG8OU1KHKO2&assignmentId=30H4UDGLT34B5MS245662QXVZDHMPX&a=LUH09&tp_a=LUH09&b=30H4UDGLT34B5MS245662QXVZDHMPX&tp_b=30H4UDGLT34B5MS245662QXVZDHMPX&c=365799&tp_c=365799","heads":20,"tails":0,"studentIndex":9,"studentTrueHypers":{"a":1,"b":4},"studentGuess":0.84,"delta":0.039999999999999925,"totalExamples":20,"bonusSoFar":0},{"rt":2275,"response":{"heads":"20","tails":"0"},"type":"response","condition":"seqFeedback","trueTheta":0.8,"classrooms":["A","B"],"studentTrueClassroom":"A","exampleSet":"second","trial_type":"survey-html-form","trial_index":164,"time_elapsed":2397811,"internal_node_id":"0.0-82.0-0.0","params":{"nStudents":24,"maxFlips":30,"completionMinutes":45,"basePay":8,"maxBonus":9,"perTrialBonus":0.5,"perTrialBonusThreshold":0.05,"exampleCost":0.01},"classroomParams":{"A":{"a":1,"b":4},"B":{"a":4,"b":1},"C":{"a":2,"b":8},"D":{"a":8,"b":2}},"conditions":["nonSeqFull","nonSeqPartial","seqNoFeedback","seqFeedback"],"classroomPairings":[["A","B"],["C","D"]],"coinWeights":[0.2,0.5,0.8],"subjectId":"ACKG8OU1KHKO2","assignmentId":"30H4UDGLT34B5MS245662QXVZDHMPX","hitId":"3UDTAB6HH6LRO17U79I9TKUGSHV90J","url":"https://gershmanlab.com/experiments/alicia/teaching/experiment/?hitId=3UDTAB6HH6LRO17U79I9TKUGSHV90J&workerId=ACKG8OU1KHKO2&assignmentId=30H4UDGLT34B5MS245662QXVZDHMPX&a=LUH09&tp_a=LUH09&b=30H4UDGLT34B5MS245662QXVZDHMPX&tp_b=30H4UDGLT34B5MS245662QXVZDHMPX&c=365799&tp_c=365799","firstResponseHeads":20,"firstResponseTails":0,"secondResponseHeads":20,"secondResponseTails":0,"totalHeads":40,"totalTails":0,"studentIndex":9,"studentTrueHypers":{"a":1,"b":4},"studentGuess":0.9111111111111111,"delta":0.11111111111111105,"bonus":0,"bonusSoFar":0,"totalExamples":40},{"rt":12950,"response":{"heads":"0","tails":"5"},"type":"response","condition":"nonSeqPartial","trueTheta":0.2,"classrooms":["A","B"],"studentTrueClassroom":"A","exampleSet":"first","trial_type":"survey-html-form","trial_index":170,"time_elapsed":2424356,"internal_node_id":"0.0-88.0-0.0","params":{"nStudents":24,"maxFlips":30,"completionMinutes":45,"basePay":8,"maxBonus":9,"perTrialBonus":0.5,"perTrialBonusThreshold":0.05,"exampleCost":0.01},"classroomParams":{"A":{"a":1,"b":4},"B":{"a":4,"b":1},"C":{"a":2,"b":8},"D":{"a":8,"b":2}},"conditions":["nonSeqFull","nonSeqPartial","seqNoFeedback","seqFeedback"],"classroomPairings":[["A","B"],["C","D"]],"coinWeights":[0.2,0.5,0.8],"subjectId":"ACKG8OU1KHKO2","assignmentId":"30H4UDGLT34B5MS245662QXVZDHMPX","hitId":"3UDTAB6HH6LRO17U79I9TKUGSHV90J","url":"https://gershmanlab.com/experiments/alicia/teaching/experiment/?hitId=3UDTAB6HH6LRO17U79I9TKUGSHV90J&workerId=ACKG8OU1KHKO2&assignmentId=30H4UDGLT34B5MS245662QXVZDHMPX&a=LUH09&tp_a=LUH09&b=30H4UDGLT34B5MS245662QXVZDHMPX&tp_b=30H4UDGLT34B5MS245662QXVZDHMPX&c=365799&tp_c=365799","heads":0,"tails":5,"studentIndex":10,"studentTrueHypers":{"a":1,"b":4},"studentGuess":0.1,"delta":0.1,"totalExamples":5,"bonus":0,"bonusSoFar":0},{"rt":7015,"response":{"heads":"0","tails":"22"},"type":"response","condition":"seqNoFeedback","trueTheta":0.2,"classrooms":["A","B"],"studentTrueClassroom":"B","exampleSet":"first","trial_type":"survey-html-form","trial_index":176,"time_elapsed":2442987,"internal_node_id":"0.0-94.0-0.0","params":{"nStudents":24,"maxFlips":30,"completionMinutes":45,"basePay":8,"maxBonus":9,"perTrialBonus":0.5,"perTrialBonusThreshold":0.05,"exampleCost":0.01},"classroomParams":{"A":{"a":1,"b":4},"B":{"a":4,"b":1},"C":{"a":2,"b":8},"D":{"a":8,"b":2}},"conditions":["nonSeqFull","nonSeqPartial","seqNoFeedback","seqFeedback"],"classroomPairings":[["A","B"],["C","D"]],"coinWeights":[0.2,0.5,0.8],"subjectId":"ACKG8OU1KHKO2","assignmentId":"30H4UDGLT34B5MS245662QXVZDHMPX","hitId":"3UDTAB6HH6LRO17U79I9TKUGSHV90J","url":"https://gershmanlab.com/experiments/alicia/teaching/experiment/?hitId=3UDTAB6HH6LRO17U79I9TKUGSHV90J&workerId=ACKG8OU1KHKO2&assignmentId=30H4UDGLT34B5MS245662QXVZDHMPX&a=LUH09&tp_a=LUH09&b=30H4UDGLT34B5MS245662QXVZDHMPX&tp_b=30H4UDGLT34B5MS245662QXVZDHMPX&c=365799&tp_c=365799","heads":0,"tails":22,"studentIndex":11,"studentTrueHypers":{"a":4,"b":1},"studentGuess":0.14814814814814814,"delta":0.05185185185185187,"totalExamples":22,"bonusSoFar":0},{"rt":4760,"response":{"heads":"0","tails":"22"},"type":"response","condition":"seqNoFeedback","trueTheta":0.2,"classrooms":["A","B"],"studentTrueClassroom":"B","exampleSet":"second","trial_type":"survey-html-form","trial_index":179,"time_elapsed":2455254,"internal_node_id":"0.0-97.0-0.0","params":{"nStudents":24,"maxFlips":30,"completionMinutes":45,"basePay":8,"maxBonus":9,"perTrialBonus":0.5,"perTrialBonusThreshold":0.05,"exampleCost":0.01},"classroomParams":{"A":{"a":1,"b":4},"B":{"a":4,"b":1},"C":{"a":2,"b":8},"D":{"a":8,"b":2}},"conditions":["nonSeqFull","nonSeqPartial","seqNoFeedback","seqFeedback"],"classroomPairings":[["A","B"],["C","D"]],"coinWeights":[0.2,0.5,0.8],"subjectId":"ACKG8OU1KHKO2","assignmentId":"30H4UDGLT34B5MS245662QXVZDHMPX","hitId":"3UDTAB6HH6LRO17U79I9TKUGSHV90J","url":"https://gershmanlab.com/experiments/alicia/teaching/experiment/?hitId=3UDTAB6HH6LRO17U79I9TKUGSHV90J&workerId=ACKG8OU1KHKO2&assignmentId=30H4UDGLT34B5MS245662QXVZDHMPX&a=LUH09&tp_a=LUH09&b=30H4UDGLT34B5MS245662QXVZDHMPX&tp_b=30H4UDGLT34B5MS245662QXVZDHMPX&c=365799&tp_c=365799","firstResponseHeads":0,"firstResponseTails":22,"secondResponseHeads":0,"secondResponseTails":22,"totalHeads":0,"totalTails":44,"studentIndex":11,"studentTrueHypers":{"a":4,"b":1},"studentGuess":0.08163265306122448,"delta":0.11836734693877553,"bonus":0,"bonusSoFar":0,"totalExamples":44},{"rt":4752,"response":{"heads":"15","tails":"0"},"type":"response","condition":"seqFeedback","trueTheta":0.5,"classrooms":["C","D"],"studentTrueClassroom":"D","exampleSet":"first","trial_type":"survey-html-form","trial_index":185,"time_elapsed":2470238,"internal_node_id":"0.0-103.0-0.0","params":{"nStudents":24,"maxFlips":30,"completionMinutes":45,"basePay":8,"maxBonus":9,"perTrialBonus":0.5,"perTrialBonusThreshold":0.05,"exampleCost":0.01},"classroomParams":{"A":{"a":1,"b":4},"B":{"a":4,"b":1},"C":{"a":2,"b":8},"D":{"a":8,"b":2}},"conditions":["nonSeqFull","nonSeqPartial","seqNoFeedback","seqFeedback"],"classroomPairings":[["A","B"],["C","D"]],"coinWeights":[0.2,0.5,0.8],"subjectId":"ACKG8OU1KHKO2","assignmentId":"30H4UDGLT34B5MS245662QXVZDHMPX","hitId":"3UDTAB6HH6LRO17U79I9TKUGSHV90J","url":"https://gershmanlab.com/experiments/alicia/teaching/experiment/?hitId=3UDTAB6HH6LRO17U79I9TKUGSHV90J&workerId=ACKG8OU1KHKO2&assignmentId=30H4UDGLT34B5MS245662QXVZDHMPX&a=LUH09&tp_a=LUH09&b=30H4UDGLT34B5MS245662QXVZDHMPX&tp_b=30H4UDGLT34B5MS245662QXVZDHMPX&c=365799&tp_c=365799","heads":15,"tails":0,"studentIndex":12,"studentTrueHypers":{"a":8,"b":2},"studentGuess":0.92,"delta":0.42000000000000004,"totalExamples":15,"bonusSoFar":0},{"rt":5017,"response":{"heads":"30","tails":"0"},"type":"response","condition":"seqFeedback","trueTheta":0.5,"classrooms":["C","D"],"studentTrueClassroom":"D","exampleSet":"second","trial_type":"survey-html-form","trial_index":189,"time_elapsed":2483271,"internal_node_id":"0.0-107.0-0.0","params":{"nStudents":24,"maxFlips":30,"completionMinutes":45,"basePay":8,"maxBonus":9,"perTrialBonus":0.5,"perTrialBonusThreshold":0.05,"exampleCost":0.01},"classroomParams":{"A":{"a":1,"b":4},"B":{"a":4,"b":1},"C":{"a":2,"b":8},"D":{"a":8,"b":2}},"conditions":["nonSeqFull","nonSeqPartial","seqNoFeedback","seqFeedback"],"classroomPairings":[["A","B"],["C","D"]],"coinWeights":[0.2,0.5,0.8],"subjectId":"ACKG8OU1KHKO2","assignmentId":"30H4UDGLT34B5MS245662QXVZDHMPX","hitId":"3UDTAB6HH6LRO17U79I9TKUGSHV90J","url":"https://gershmanlab.com/experiments/alicia/teaching/experiment/?hitId=3UDTAB6HH6LRO17U79I9TKUGSHV90J&workerId=ACKG8OU1KHKO2&assignmentId=30H4UDGLT34B5MS245662QXVZDHMPX&a=LUH09&tp_a=LUH09&b=30H4UDGLT34B5MS245662QXVZDHMPX&tp_b=30H4UDGLT34B5MS245662QXVZDHMPX&c=365799&tp_c=365799","firstResponseHeads":15,"firstResponseTails":0,"secondResponseHeads":30,"secondResponseTails":0,"totalHeads":45,"totalTails":0,"studentIndex":12,"studentTrueHypers":{"a":8,"b":2},"studentGuess":0.9636363636363636,"delta":0.4636363636363636,"bonus":0,"bonusSoFar":0,"totalExamples":45},{"rt":8123,"response":{"heads":"0","tails":"0"},"type":"response","condition":"nonSeqFull","trueTheta":0.8,"classrooms":["A","B"],"studentTrueClassroom":"B","exampleSet":"first","trial_type":"survey-html-form","trial_index":195,"time_elapsed":2504265,"internal_node_id":"0.0-113.0-0.0","params":{"nStudents":24,"maxFlips":30,"completionMinutes":45,"basePay":8,"maxBonus":9,"perTrialBonus":0.5,"perTrialBonusThreshold":0.05,"exampleCost":0.01},"classroomParams":{"A":{"a":1,"b":4},"B":{"a":4,"b":1},"C":{"a":2,"b":8},"D":{"a":8,"b":2}},"conditions":["nonSeqFull","nonSeqPartial","seqNoFeedback","seqFeedback"],"classroomPairings":[["A","B"],["C","D"]],"coinWeights":[0.2,0.5,0.8],"subjectId":"ACKG8OU1KHKO2","assignmentId":"30H4UDGLT34B5MS245662QXVZDHMPX","hitId":"3UDTAB6HH6LRO17U79I9TKUGSHV90J","url":"https://gershmanlab.com/experiments/alicia/teaching/experiment/?hitId=3UDTAB6HH6LRO17U79I9TKUGSHV90J&workerId=ACKG8OU1KHKO2&assignmentId=30H4UDGLT34B5MS245662QXVZDHMPX&a=LUH09&tp_a=LUH09&b=30H4UDGLT34B5MS245662QXVZDHMPX&tp_b=30H4UDGLT34B5MS245662QXVZDHMPX&c=365799&tp_c=365799","heads":0,"tails":0,"studentIndex":13,"studentTrueHypers":{"a":4,"b":1},"studentGuess":0.8,"delta":0,"totalExamples":0,"bonus":0.5,"bonusSoFar":0.5},{"rt":11803,"response":{"heads":"20","tails":"10"},"type":"response","condition":"nonSeqFull","trueTheta":0.8,"classrooms":["A","B"],"studentTrueClassroom":"B","exampleSet":"first","trial_type":"survey-html-form","trial_index":196,"time_elapsed":2516069,"internal_node_id":"0.0-113.1-0.1","params":{"nStudents":24,"maxFlips":30,"completionMinutes":45,"basePay":8,"maxBonus":9,"perTrialBonus":0.5,"perTrialBonusThreshold":0.05,"exampleCost":0.01},"classroomParams":{"A":{"a":1,"b":4},"B":{"a":4,"b":1},"C":{"a":2,"b":8},"D":{"a":8,"b":2}},"conditions":["nonSeqFull","nonSeqPartial","seqNoFeedback","seqFeedback"],"classroomPairings":[["A","B"],["C","D"]],"coinWeights":[0.2,0.5,0.8],"subjectId":"ACKG8OU1KHKO2","assignmentId":"30H4UDGLT34B5MS245662QXVZDHMPX","hitId":"3UDTAB6HH6LRO17U79I9TKUGSHV90J","url":"https://gershmanlab.com/experiments/alicia/teaching/experiment/?hitId=3UDTAB6HH6LRO17U79I9TKUGSHV90J&workerId=ACKG8OU1KHKO2&assignmentId=30H4UDGLT34B5MS245662QXVZDHMPX&a=LUH09&tp_a=LUH09&b=30H4UDGLT34B5MS245662QXVZDHMPX&tp_b=30H4UDGLT34B5MS245662QXVZDHMPX&c=365799&tp_c=365799","heads":20,"tails":10,"studentIndex":13,"studentTrueHypers":{"a":4,"b":1},"studentGuess":0.6857142857142857,"delta":0.11428571428571432,"totalExamples":30,"bonus":0,"bonusSoFar":0.5},{"rt":5715,"response":{"heads":"20","tails":"10"},"type":"response","condition":"seqFeedback","trueTheta":0.5,"classrooms":["A","B"],"studentTrueClassroom":"B","exampleSet":"first","trial_type":"survey-html-form","trial_index":202,"time_elapsed":2534412,"internal_node_id":"0.0-119.0-0.0","params":{"nStudents":24,"maxFlips":30,"completionMinutes":45,"basePay":8,"maxBonus":9,"perTrialBonus":0.5,"perTrialBonusThreshold":0.05,"exampleCost":0.01},"classroomParams":{"A":{"a":1,"b":4},"B":{"a":4,"b":1},"C":{"a":2,"b":8},"D":{"a":8,"b":2}},"conditions":["nonSeqFull","nonSeqPartial","seqNoFeedback","seqFeedback"],"classroomPairings":[["A","B"],["C","D"]],"coinWeights":[0.2,0.5,0.8],"subjectId":"ACKG8OU1KHKO2","assignmentId":"30H4UDGLT34B5MS245662QXVZDHMPX","hitId":"3UDTAB6HH6LRO17U79I9TKUGSHV90J","url":"https://gershmanlab.com/experiments/alicia/teaching/experiment/?hitId=3UDTAB6HH6LRO17U79I9TKUGSHV90J&workerId=ACKG8OU1KHKO2&assignmentId=30H4UDGLT34B5MS245662QXVZDHMPX&a=LUH09&tp_a=LUH09&b=30H4UDGLT34B5MS245662QXVZDHMPX&tp_b=30H4UDGLT34B5MS245662QXVZDHMPX&c=365799&tp_c=365799","heads":20,"tails":10,"studentIndex":14,"studentTrueHypers":{"a":4,"b":1},"studentGuess":0.6857142857142857,"delta":0.18571428571428572,"totalExamples":30,"bonusSoFar":0.5},{"rt":3020,"response":{"heads":"20","tails":"10"},"type":"response","condition":"seqFeedback","trueTheta":0.5,"classrooms":["A","B"],"studentTrueClassroom":"B","exampleSet":"second","trial_type":"survey-html-form","trial_index":206,"time_elapsed":2545568,"internal_node_id":"0.0-123.0-0.0","params":{"nStudents":24,"maxFlips":30,"completionMinutes":45,"basePay":8,"maxBonus":9,"perTrialBonus":0.5,"perTrialBonusThreshold":0.05,"exampleCost":0.01},"classroomParams":{"A":{"a":1,"b":4},"B":{"a":4,"b":1},"C":{"a":2,"b":8},"D":{"a":8,"b":2}},"conditions":["nonSeqFull","nonSeqPartial","seqNoFeedback","seqFeedback"],"classroomPairings":[["A","B"],["C","D"]],"coinWeights":[0.2,0.5,0.8],"subjectId":"ACKG8OU1KHKO2","assignmentId":"30H4UDGLT34B5MS245662QXVZDHMPX","hitId":"3UDTAB6HH6LRO17U79I9TKUGSHV90J","url":"https://gershmanlab.com/experiments/alicia/teaching/experiment/?hitId=3UDTAB6HH6LRO17U79I9TKUGSHV90J&workerId=ACKG8OU1KHKO2&assignmentId=30H4UDGLT34B5MS245662QXVZDHMPX&a=LUH09&tp_a=LUH09&b=30H4UDGLT34B5MS245662QXVZDHMPX&tp_b=30H4UDGLT34B5MS245662QXVZDHMPX&c=365799&tp_c=365799","firstResponseHeads":20,"firstResponseTails":10,"secondResponseHeads":20,"secondResponseTails":10,"totalHeads":40,"totalTails":20,"studentIndex":14,"studentTrueHypers":{"a":4,"b":1},"studentGuess":0.676923076923077,"delta":0.17692307692307696,"bonus":0,"bonusSoFar":0.5,"totalExamples":60},{"rt":2701,"response":{"heads":"20","tails":"10"},"type":"response","condition":"nonSeqPartial","trueTheta":0.5,"classrooms":["A","B"],"studentTrueClassroom":"B","exampleSet":"first","trial_type":"survey-html-form","trial_index":212,"time_elapsed":2558605,"internal_node_id":"0.0-129.0-0.0","params":{"nStudents":24,"maxFlips":30,"completionMinutes":45,"basePay":8,"maxBonus":9,"perTrialBonus":0.5,"perTrialBonusThreshold":0.05,"exampleCost":0.01},"classroomParams":{"A":{"a":1,"b":4},"B":{"a":4,"b":1},"C":{"a":2,"b":8},"D":{"a":8,"b":2}},"conditions":["nonSeqFull","nonSeqPartial","seqNoFeedback","seqFeedback"],"classroomPairings":[["A","B"],["C","D"]],"coinWeights":[0.2,0.5,0.8],"subjectId":"ACKG8OU1KHKO2","assignmentId":"30H4UDGLT34B5MS245662QXVZDHMPX","hitId":"3UDTAB6HH6LRO17U79I9TKUGSHV90J","url":"https://gershmanlab.com/experiments/alicia/teaching/experiment/?hitId=3UDTAB6HH6LRO17U79I9TKUGSHV90J&workerId=ACKG8OU1KHKO2&assignmentId=30H4UDGLT34B5MS245662QXVZDHMPX&a=LUH09&tp_a=LUH09&b=30H4UDGLT34B5MS245662QXVZDHMPX&tp_b=30H4UDGLT34B5MS245662QXVZDHMPX&c=365799&tp_c=365799","heads":20,"tails":10,"studentIndex":15,"studentTrueHypers":{"a":4,"b":1},"studentGuess":0.6857142857142857,"delta":0.18571428571428572,"totalExamples":30,"bonus":0,"bonusSoFar":0.5},{"rt":5713,"response":{"heads":"10","tails":"20"},"type":"response","condition":"seqNoFeedback","trueTheta":0.5,"classrooms":["A","B"],"studentTrueClassroom":"A","exampleSet":"first","trial_type":"survey-html-form","trial_index":218,"time_elapsed":2575601,"internal_node_id":"0.0-135.0-0.0","params":{"nStudents":24,"maxFlips":30,"completionMinutes":45,"basePay":8,"maxBonus":9,"perTrialBonus":0.5,"perTrialBonusThreshold":0.05,"exampleCost":0.01},"classroomParams":{"A":{"a":1,"b":4},"B":{"a":4,"b":1},"C":{"a":2,"b":8},"D":{"a":8,"b":2}},"conditions":["nonSeqFull","nonSeqPartial","seqNoFeedback","seqFeedback"],"classroomPairings":[["A","B"],["C","D"]],"coinWeights":[0.2,0.5,0.8],"subjectId":"ACKG8OU1KHKO2","assignmentId":"30H4UDGLT34B5MS245662QXVZDHMPX","hitId":"3UDTAB6HH6LRO17U79I9TKUGSHV90J","url":"https://gershmanlab.com/experiments/alicia/teaching/experiment/?hitId=3UDTAB6HH6LRO17U79I9TKUGSHV90J&workerId=ACKG8OU1KHKO2&assignmentId=30H4UDGLT34B5MS245662QXVZDHMPX&a=LUH09&tp_a=LUH09&b=30H4UDGLT34B5MS245662QXVZDHMPX&tp_b=30H4UDGLT34B5MS245662QXVZDHMPX&c=365799&tp_c=365799","heads":10,"tails":20,"studentIndex":16,"studentTrueHypers":{"a":1,"b":4},"studentGuess":0.3142857142857143,"delta":0.18571428571428572,"totalExamples":30,"bonusSoFar":0.5},{"rt":4367,"response":{"heads":"10","tails":"20"},"type":"response","condition":"seqNoFeedback","trueTheta":0.5,"classrooms":["A","B"],"studentTrueClassroom":"A","exampleSet":"second","trial_type":"survey-html-form","trial_index":221,"time_elapsed":2585978,"internal_node_id":"0.0-138.0-0.0","params":{"nStudents":24,"maxFlips":30,"completionMinutes":45,"basePay":8,"maxBonus":9,"perTrialBonus":0.5,"perTrialBonusThreshold":0.05,"exampleCost":0.01},"classroomParams":{"A":{"a":1,"b":4},"B":{"a":4,"b":1},"C":{"a":2,"b":8},"D":{"a":8,"b":2}},"conditions":["nonSeqFull","nonSeqPartial","seqNoFeedback","seqFeedback"],"classroomPairings":[["A","B"],["C","D"]],"coinWeights":[0.2,0.5,0.8],"subjectId":"ACKG8OU1KHKO2","assignmentId":"30H4UDGLT34B5MS245662QXVZDHMPX","hitId":"3UDTAB6HH6LRO17U79I9TKUGSHV90J","url":"https://gershmanlab.com/experiments/alicia/teaching/experiment/?hitId=3UDTAB6HH6LRO17U79I9TKUGSHV90J&workerId=ACKG8OU1KHKO2&assignmentId=30H4UDGLT34B5MS245662QXVZDHMPX&a=LUH09&tp_a=LUH09&b=30H4UDGLT34B5MS245662QXVZDHMPX&tp_b=30H4UDGLT34B5MS245662QXVZDHMPX&c=365799&tp_c=365799","firstResponseHeads":10,"firstResponseTails":20,"secondResponseHeads":10,"secondResponseTails":20,"totalHeads":20,"totalTails":40,"studentIndex":16,"studentTrueHypers":{"a":1,"b":4},"studentGuess":0.3230769230769231,"delta":0.1769230769230769,"bonus":0,"bonusSoFar":0.5,"totalExamples":60},{"rt":2980,"response":{"heads":"20","tails":"10"},"type":"response","condition":"seqNoFeedback","trueTheta":0.8,"classrooms":["A","B"],"studentTrueClassroom":"A","exampleSet":"first","trial_type":"survey-html-form","trial_index":227,"time_elapsed":2598883,"internal_node_id":"0.0-144.0-0.0","params":{"nStudents":24,"maxFlips":30,"completionMinutes":45,"basePay":8,"maxBonus":9,"perTrialBonus":0.5,"perTrialBonusThreshold":0.05,"exampleCost":0.01},"classroomParams":{"A":{"a":1,"b":4},"B":{"a":4,"b":1},"C":{"a":2,"b":8},"D":{"a":8,"b":2}},"conditions":["nonSeqFull","nonSeqPartial","seqNoFeedback","seqFeedback"],"classroomPairings":[["A","B"],["C","D"]],"coinWeights":[0.2,0.5,0.8],"subjectId":"ACKG8OU1KHKO2","assignmentId":"30H4UDGLT34B5MS245662QXVZDHMPX","hitId":"3UDTAB6HH6LRO17U79I9TKUGSHV90J","url":"https://gershmanlab.com/experiments/alicia/teaching/experiment/?hitId=3UDTAB6HH6LRO17U79I9TKUGSHV90J&workerId=ACKG8OU1KHKO2&assignmentId=30H4UDGLT34B5MS245662QXVZDHMPX&a=LUH09&tp_a=LUH09&b=30H4UDGLT34B5MS245662QXVZDHMPX&tp_b=30H4UDGLT34B5MS245662QXVZDHMPX&c=365799&tp_c=365799","heads":20,"tails":10,"studentIndex":17,"studentTrueHypers":{"a":1,"b":4},"studentGuess":0.6,"delta":0.20000000000000007,"totalExamples":30,"bonusSoFar":0.5},{"rt":7885,"response":{"heads":"20","tails":"10"},"type":"response","condition":"seqNoFeedback","trueTheta":0.8,"classrooms":["A","B"],"studentTrueClassroom":"A","exampleSet":"second","trial_type":"survey-html-form","trial_index":230,"time_elapsed":2613771,"internal_node_id":"0.0-147.0-0.0","params":{"nStudents":24,"maxFlips":30,"completionMinutes":45,"basePay":8,"maxBonus":9,"perTrialBonus":0.5,"perTrialBonusThreshold":0.05,"exampleCost":0.01},"classroomParams":{"A":{"a":1,"b":4},"B":{"a":4,"b":1},"C":{"a":2,"b":8},"D":{"a":8,"b":2}},"conditions":["nonSeqFull","nonSeqPartial","seqNoFeedback","seqFeedback"],"classroomPairings":[["A","B"],["C","D"]],"coinWeights":[0.2,0.5,0.8],"subjectId":"ACKG8OU1KHKO2","assignmentId":"30H4UDGLT34B5MS245662QXVZDHMPX","hitId":"3UDTAB6HH6LRO17U79I9TKUGSHV90J","url":"https://gershmanlab.com/experiments/alicia/teaching/experiment/?hitId=3UDTAB6HH6LRO17U79I9TKUGSHV90J&workerId=ACKG8OU1KHKO2&assignmentId=30H4UDGLT34B5MS245662QXVZDHMPX&a=LUH09&tp_a=LUH09&b=30H4UDGLT34B5MS245662QXVZDHMPX&tp_b=30H4UDGLT34B5MS245662QXVZDHMPX&c=365799&tp_c=365799","firstResponseHeads":20,"firstResponseTails":10,"secondResponseHeads":20,"secondResponseTails":10,"totalHeads":40,"totalTails":20,"studentIndex":17,"studentTrueHypers":{"a":1,"b":4},"studentGuess":0.6307692307692307,"delta":0.1692307692307693,"bonus":0,"bonusSoFar":0.5,"totalExamples":60},{"rt":5834,"response":{"heads":"10","tails":"20"},"type":"response","condition":"nonSeqPartial","trueTheta":0.2,"classrooms":["C","D"],"studentTrueClassroom":"D","exampleSet":"first","trial_type":"survey-html-form","trial_index":236,"time_elapsed":2635797,"internal_node_id":"0.0-153.0-0.0","params":{"nStudents":24,"maxFlips":30,"completionMinutes":45,"basePay":8,"maxBonus":9,"perTrialBonus":0.5,"perTrialBonusThreshold":0.05,"exampleCost":0.01},"classroomParams":{"A":{"a":1,"b":4},"B":{"a":4,"b":1},"C":{"a":2,"b":8},"D":{"a":8,"b":2}},"conditions":["nonSeqFull","nonSeqPartial","seqNoFeedback","seqFeedback"],"classroomPairings":[["A","B"],["C","D"]],"coinWeights":[0.2,0.5,0.8],"subjectId":"ACKG8OU1KHKO2","assignmentId":"30H4UDGLT34B5MS245662QXVZDHMPX","hitId":"3UDTAB6HH6LRO17U79I9TKUGSHV90J","url":"https://gershmanlab.com/experiments/alicia/teaching/experiment/?hitId=3UDTAB6HH6LRO17U79I9TKUGSHV90J&workerId=ACKG8OU1KHKO2&assignmentId=30H4UDGLT34B5MS245662QXVZDHMPX&a=LUH09&tp_a=LUH09&b=30H4UDGLT34B5MS245662QXVZDHMPX&tp_b=30H4UDGLT34B5MS245662QXVZDHMPX&c=365799&tp_c=365799","heads":10,"tails":20,"studentIndex":18,"studentTrueHypers":{"a":8,"b":2},"studentGuess":0.45,"delta":0.25,"totalExamples":30,"bonus":0,"bonusSoFar":0.5},{"rt":5897,"response":{"heads":"20","tails":"10"},"type":"response","condition":"nonSeqPartial","trueTheta":0.8,"classrooms":["C","D"],"studentTrueClassroom":"D","exampleSet":"first","trial_type":"survey-html-form","trial_index":242,"time_elapsed":2653131,"internal_node_id":"0.0-159.0-0.0","params":{"nStudents":24,"maxFlips":30,"completionMinutes":45,"basePay":8,"maxBonus":9,"perTrialBonus":0.5,"perTrialBonusThreshold":0.05,"exampleCost":0.01},"classroomParams":{"A":{"a":1,"b":4},"B":{"a":4,"b":1},"C":{"a":2,"b":8},"D":{"a":8,"b":2}},"conditions":["nonSeqFull","nonSeqPartial","seqNoFeedback","seqFeedback"],"classroomPairings":[["A","B"],["C","D"]],"coinWeights":[0.2,0.5,0.8],"subjectId":"ACKG8OU1KHKO2","assignmentId":"30H4UDGLT34B5MS245662QXVZDHMPX","hitId":"3UDTAB6HH6LRO17U79I9TKUGSHV90J","url":"https://gershmanlab.com/experiments/alicia/teaching/experiment/?hitId=3UDTAB6HH6LRO17U79I9TKUGSHV90J&workerId=ACKG8OU1KHKO2&assignmentId=30H4UDGLT34B5MS245662QXVZDHMPX&a=LUH09&tp_a=LUH09&b=30H4UDGLT34B5MS245662QXVZDHMPX&tp_b=30H4UDGLT34B5MS245662QXVZDHMPX&c=365799&tp_c=365799","heads":20,"tails":10,"studentIndex":19,"studentTrueHypers":{"a":8,"b":2},"studentGuess":0.7,"delta":0.10000000000000009,"totalExamples":30,"bonus":0,"bonusSoFar":0.5},{"rt":4388,"response":{"heads":"20","tails":"10"},"type":"response","condition":"seqNoFeedback","trueTheta":0.5,"classrooms":["C","D"],"studentTrueClassroom":"D","exampleSet":"first","trial_type":"survey-html-form","trial_index":248,"time_elapsed":2680378,"internal_node_id":"0.0-165.0-0.0","params":{"nStudents":24,"maxFlips":30,"completionMinutes":45,"basePay":8,"maxBonus":9,"perTrialBonus":0.5,"perTrialBonusThreshold":0.05,"exampleCost":0.01},"classroomParams":{"A":{"a":1,"b":4},"B":{"a":4,"b":1},"C":{"a":2,"b":8},"D":{"a":8,"b":2}},"conditions":["nonSeqFull","nonSeqPartial","seqNoFeedback","seqFeedback"],"classroomPairings":[["A","B"],["C","D"]],"coinWeights":[0.2,0.5,0.8],"subjectId":"ACKG8OU1KHKO2","assignmentId":"30H4UDGLT34B5MS245662QXVZDHMPX","hitId":"3UDTAB6HH6LRO17U79I9TKUGSHV90J","url":"https://gershmanlab.com/experiments/alicia/teaching/experiment/?hitId=3UDTAB6HH6LRO17U79I9TKUGSHV90J&workerId=ACKG8OU1KHKO2&assignmentId=30H4UDGLT34B5MS245662QXVZDHMPX&a=LUH09&tp_a=LUH09&b=30H4UDGLT34B5MS245662QXVZDHMPX&tp_b=30H4UDGLT34B5MS245662QXVZDHMPX&c=365799&tp_c=365799","heads":20,"tails":10,"studentIndex":20,"studentTrueHypers":{"a":8,"b":2},"studentGuess":0.7,"delta":0.19999999999999996,"totalExamples":30,"bonusSoFar":0.5},{"rt":4914,"response":{"heads":"20","tails":"10"},"type":"response","condition":"seqNoFeedback","trueTheta":0.5,"classrooms":["C","D"],"studentTrueClassroom":"D","exampleSet":"second","trial_type":"survey-html-form","trial_index":251,"time_elapsed":2691545,"internal_node_id":"0.0-168.0-0.0","params":{"nStudents":24,"maxFlips":30,"completionMinutes":45,"basePay":8,"maxBonus":9,"perTrialBonus":0.5,"perTrialBonusThreshold":0.05,"exampleCost":0.01},"classroomParams":{"A":{"a":1,"b":4},"B":{"a":4,"b":1},"C":{"a":2,"b":8},"D":{"a":8,"b":2}},"conditions":["nonSeqFull","nonSeqPartial","seqNoFeedback","seqFeedback"],"classroomPairings":[["A","B"],["C","D"]],"coinWeights":[0.2,0.5,0.8],"subjectId":"ACKG8OU1KHKO2","assignmentId":"30H4UDGLT34B5MS245662QXVZDHMPX","hitId":"3UDTAB6HH6LRO17U79I9TKUGSHV90J","url":"https://gershmanlab.com/experiments/alicia/teaching/experiment/?hitId=3UDTAB6HH6LRO17U79I9TKUGSHV90J&workerId=ACKG8OU1KHKO2&assignmentId=30H4UDGLT34B5MS245662QXVZDHMPX&a=LUH09&tp_a=LUH09&b=30H4UDGLT34B5MS245662QXVZDHMPX&tp_b=30H4UDGLT34B5MS245662QXVZDHMPX&c=365799&tp_c=365799","firstResponseHeads":20,"firstResponseTails":10,"secondResponseHeads":20,"secondResponseTails":10,"totalHeads":40,"totalTails":20,"studentIndex":20,"studentTrueHypers":{"a":8,"b":2},"studentGuess":0.6857142857142857,"delta":0.18571428571428572,"bonus":0,"bonusSoFar":0.5,"totalExamples":60},{"rt":7584,"response":{"heads":"5","tails":"25"},"type":"response","condition":"nonSeqFull","trueTheta":0.2,"classrooms":["A","B"],"studentTrueClassroom":"A","exampleSet":"first","trial_type":"survey-html-form","trial_index":257,"time_elapsed":2709140,"internal_node_id":"0.0-174.0-0.0","params":{"nStudents":24,"maxFlips":30,"completionMinutes":45,"basePay":8,"maxBonus":9,"perTrialBonus":0.5,"perTrialBonusThreshold":0.05,"exampleCost":0.01},"classroomParams":{"A":{"a":1,"b":4},"B":{"a":4,"b":1},"C":{"a":2,"b":8},"D":{"a":8,"b":2}},"conditions":["nonSeqFull","nonSeqPartial","seqNoFeedback","seqFeedback"],"classroomPairings":[["A","B"],["C","D"]],"coinWeights":[0.2,0.5,0.8],"subjectId":"ACKG8OU1KHKO2","assignmentId":"30H4UDGLT34B5MS245662QXVZDHMPX","hitId":"3UDTAB6HH6LRO17U79I9TKUGSHV90J","url":"https://gershmanlab.com/experiments/alicia/teaching/experiment/?hitId=3UDTAB6HH6LRO17U79I9TKUGSHV90J&workerId=ACKG8OU1KHKO2&assignmentId=30H4UDGLT34B5MS245662QXVZDHMPX&a=LUH09&tp_a=LUH09&b=30H4UDGLT34B5MS245662QXVZDHMPX&tp_b=30H4UDGLT34B5MS245662QXVZDHMPX&c=365799&tp_c=365799","heads":5,"tails":25,"studentIndex":21,"studentTrueHypers":{"a":1,"b":4},"studentGuess":0.17142857142857143,"delta":0.02857142857142858,"totalExamples":30,"bonus":0.2,"bonusSoFar":0.7},{"rt":5457,"response":{"heads":"25","tails":"5"},"type":"response","condition":"nonSeqFull","trueTheta":0.8,"classrooms":["C","D"],"studentTrueClassroom":"C","exampleSet":"first","trial_type":"survey-html-form","trial_index":263,"time_elapsed":2730866,"internal_node_id":"0.0-180.0-0.0","params":{"nStudents":24,"maxFlips":30,"completionMinutes":45,"basePay":8,"maxBonus":9,"perTrialBonus":0.5,"perTrialBonusThreshold":0.05,"exampleCost":0.01},"classroomParams":{"A":{"a":1,"b":4},"B":{"a":4,"b":1},"C":{"a":2,"b":8},"D":{"a":8,"b":2}},"conditions":["nonSeqFull","nonSeqPartial","seqNoFeedback","seqFeedback"],"classroomPairings":[["A","B"],["C","D"]],"coinWeights":[0.2,0.5,0.8],"subjectId":"ACKG8OU1KHKO2","assignmentId":"30H4UDGLT34B5MS245662QXVZDHMPX","hitId":"3UDTAB6HH6LRO17U79I9TKUGSHV90J","url":"https://gershmanlab.com/experiments/alicia/teaching/experiment/?hitId=3UDTAB6HH6LRO17U79I9TKUGSHV90J&workerId=ACKG8OU1KHKO2&assignmentId=30H4UDGLT34B5MS245662QXVZDHMPX&a=LUH09&tp_a=LUH09&b=30H4UDGLT34B5MS245662QXVZDHMPX&tp_b=30H4UDGLT34B5MS245662QXVZDHMPX&c=365799&tp_c=365799","heads":25,"tails":5,"studentIndex":22,"studentTrueHypers":{"a":2,"b":8},"studentGuess":0.675,"delta":0.125,"totalExamples":30,"bonus":0,"bonusSoFar":0.7},{"rt":5357,"response":{"heads":"28","tails":"2"},"type":"response","condition":"nonSeqPartial","trueTheta":0.5,"classrooms":["C","D"],"studentTrueClassroom":"D","exampleSet":"first","trial_type":"survey-html-form","trial_index":269,"time_elapsed":2747750,"internal_node_id":"0.0-186.0-0.0","params":{"nStudents":24,"maxFlips":30,"completionMinutes":45,"basePay":8,"maxBonus":9,"perTrialBonus":0.5,"perTrialBonusThreshold":0.05,"exampleCost":0.01},"classroomParams":{"A":{"a":1,"b":4},"B":{"a":4,"b":1},"C":{"a":2,"b":8},"D":{"a":8,"b":2}},"conditions":["nonSeqFull","nonSeqPartial","seqNoFeedback","seqFeedback"],"classroomPairings":[["A","B"],["C","D"]],"coinWeights":[0.2,0.5,0.8],"subjectId":"ACKG8OU1KHKO2","assignmentId":"30H4UDGLT34B5MS245662QXVZDHMPX","hitId":"3UDTAB6HH6LRO17U79I9TKUGSHV90J","url":"https://gershmanlab.com/experiments/alicia/teaching/experiment/?hitId=3UDTAB6HH6LRO17U79I9TKUGSHV90J&workerId=ACKG8OU1KHKO2&assignmentId=30H4UDGLT34B5MS245662QXVZDHMPX&a=LUH09&tp_a=LUH09&b=30H4UDGLT34B5MS245662QXVZDHMPX&tp_b=30H4UDGLT34B5MS245662QXVZDHMPX&c=365799&tp_c=365799","heads":28,"tails":2,"studentIndex":23,"studentTrueHypers":{"a":8,"b":2},"studentGuess":0.9,"delta":0.4,"totalExamples":30,"bonus":0,"bonusSoFar":0.7},{"rt":6773,"response":{"gender":"male","age":"28","understood":"yes","comments":""},"type":"response","trial_type":"survey-html-form","trial_index":273,"time_elapsed":2762471,"internal_node_id":"0.0-191.0","params":{"nStudents":24,"maxFlips":30,"completionMinutes":45,"basePay":8,"maxBonus":9,"perTrialBonus":0.5,"perTrialBonusThreshold":0.05,"exampleCost":0.01},"classroomParams":{"A":{"a":1,"b":4},"B":{"a":4,"b":1},"C":{"a":2,"b":8},"D":{"a":8,"b":2}},"conditions":["nonSeqFull","nonSeqPartial","seqNoFeedback","seqFeedback"],"classroomPairings":[["A","B"],["C","D"]],"coinWeights":[0.2,0.5,0.8],"subjectId":"ACKG8OU1KHKO2","assignmentId":"30H4UDGLT34B5MS245662QXVZDHMPX","hitId":"3UDTAB6HH6LRO17U79I9TKUGSHV90J","url":"https://gershmanlab.com/experiments/alicia/teaching/experiment/?hitId=3UDTAB6HH6LRO17U79I9TKUGSHV90J&workerId=ACKG8OU1KHKO2&assignmentId=30H4UDGLT34B5MS245662QXVZDHMPX&a=LUH09&tp_a=LUH09&b=30H4UDGLT34B5MS245662QXVZDHMPX&tp_b=30H4UDGLT34B5MS245662QXVZDHMPX&c=365799&tp_c=365799","totalBonus":0.7}]