[{"rt":29329,"response":{"heads":"15","tails":"15"},"type":"response","condition":"seqNoFeedback","trueTheta":0.5,"classrooms":["A","B"],"studentTrueClassroom":"B","exampleSet":"first","trial_type":"survey-html-form","trial_index":10,"time_elapsed":928099,"internal_node_id":"0.0-6.0-0.0","params":{"nStudents":24,"maxFlips":30,"completionMinutes":45,"basePay":8,"maxBonus":9,"perTrialBonus":0.5,"perTrialBonusThreshold":0.05,"exampleCost":0.01},"classroomParams":{"A":{"a":1,"b":4},"B":{"a":4,"b":1},"C":{"a":2,"b":8},"D":{"a":8,"b":2}},"conditions":["nonSeqFull","nonSeqPartial","seqNoFeedback","seqFeedback"],"classroomPairings":[["A","B"],["C","D"]],"coinWeights":[0.2,0.5,0.8],"subjectId":"AFU00NU09CFXE","assignmentId":"3NGI5ARFTURE9X6DBJN8IY9S12N1P5","hitId":"363A7XIFV48LMLIF2CKYA8VQSVQAVR","url":"https://gershmanlab.com/experiments/alicia/teaching/experiment/?hitId=363A7XIFV48LMLIF2CKYA8VQSVQAVR&workerId=AFU00NU09CFXE&assignmentId=3NGI5ARFTURE9X6DBJN8IY9S12N1P5&a=F5GN9&tp_a=F5GN9&b=3NGI5ARFTURE9X6DBJN8IY9S12N1P5&tp_b=3NGI5ARFTURE9X6DBJN8IY9S12N1P5&c=365799&tp_c=365799","heads":15,"tails":15,"studentIndex":0,"studentTrueHypers":{"a":4,"b":1},"studentGuess":0.5428571428571428,"delta":0.042857142857142816,"totalExamples":30,"bonusSoFar":0},{"rt":32052,"response":{"heads":"15","tails":"15"},"type":"response","condition":"seqNoFeedback","trueTheta":0.5,"classrooms":["A","B"],"studentTrueClassroom":"B","exampleSet":"second","trial_type":"survey-html-form","trial_index":13,"time_elapsed":965405,"internal_node_id":"0.0-9.0-0.0","params":{"nStudents":24,"maxFlips":30,"completionMinutes":45,"basePay":8,"maxBonus":9,"perTrialBonus":0.5,"perTrialBonusThreshold":0.05,"exampleCost":0.01},"classroomParams":{"A":{"a":1,"b":4},"B":{"a":4,"b":1},"C":{"a":2,"b":8},"D":{"a":8,"b":2}},"conditions":["nonSeqFull","nonSeqPartial","seqNoFeedback","seqFeedback"],"classroomPairings":[["A","B"],["C","D"]],"coinWeights":[0.2,0.5,0.8],"subjectId":"AFU00NU09CFXE","assignmentId":"3NGI5ARFTURE9X6DBJN8IY9S12N1P5","hitId":"363A7XIFV48LMLIF2CKYA8VQSVQAVR","url":"https://gershmanlab.com/experiments/alicia/teaching/experiment/?hitId=363A7XIFV48LMLIF2CKYA8VQSVQAVR&workerId=AFU00NU09CFXE&assignmentId=3NGI5ARFTURE9X6DBJN8IY9S12N1P5&a=F5GN9&tp_a=F5GN9&b=3NGI5ARFTURE9X6DBJN8IY9S12N1P5&tp_b=3NGI5ARFTURE9X6DBJN8IY9S12N1P5&c=365799&tp_c=365799","firstResponseHeads":15,"firstResponseTails":15,"secondResponseHeads":15,"secondResponseTails":15,"totalHeads":30,"totalTails":30,"studentIndex":0,"studentTrueHypers":{"a":4,"b":1},"studentGuess":0.5230769230769231,"delta":0.023076923076923106,"bonus":0,"bonusSoFar":0,"totalExamples":60},{"rt":13625,"response":{"heads":"20","tails":"10"},"type":"response","condition":"seqNoFeedback","trueTheta":0.2,"classrooms":["C","D"],"studentTrueClassroom":"D","exampleSet":"first","trial_type":"survey-html-form","trial_index":19,"time_elapsed":1001553,"internal_node_id":"0.0-15.0-0.0","params":{"nStudents":24,"maxFlips":30,"completionMinutes":45,"basePay":8,"maxBonus":9,"perTrialBonus":0.5,"perTrialBonusThreshold":0.05,"exampleCost":0.01},"classroomParams":{"A":{"a":1,"b":4},"B":{"a":4,"b":1},"C":{"a":2,"b":8},"D":{"a":8,"b":2}},"conditions":["nonSeqFull","nonSeqPartial","seqNoFeedback","seqFeedback"],"classroomPairings":[["A","B"],["C","D"]],"coinWeights":[0.2,0.5,0.8],"subjectId":"AFU00NU09CFXE","assignmentId":"3NGI5ARFTURE9X6DBJN8IY9S12N1P5","hitId":"363A7XIFV48LMLIF2CKYA8VQSVQAVR","url":"https://gershmanlab.com/experiments/alicia/teaching/experiment/?hitId=363A7XIFV48LMLIF2CKYA8VQSVQAVR&workerId=AFU00NU09CFXE&assignmentId=3NGI5ARFTURE9X6DBJN8IY9S12N1P5&a=F5GN9&tp_a=F5GN9&b=3NGI5ARFTURE9X6DBJN8IY9S12N1P5&tp_b=3NGI5ARFTURE9X6DBJN8IY9S12N1P5&c=365799&tp_c=365799","heads":20,"tails":10,"studentIndex":1,"studentTrueHypers":{"a":8,"b":2},"studentGuess":0.7,"delta":0.49999999999999994,"totalExamples":30,"bonusSoFar":0},{"rt":12739,"response":{"heads":"8","tails":"22"},"type":"response","condition":"seqNoFeedback","trueTheta":0.2,"classrooms":["C","D"],"studentTrueClassroom":"D","exampleSet":"second","trial_type":"survey-html-form","trial_index":22,"time_elapsed":1020317,"internal_node_id":"0.0-18.0-0.0","params":{"nStudents":24,"maxFlips":30,"completionMinutes":45,"basePay":8,"maxBonus":9,"perTrialBonus":0.5,"perTrialBonusThreshold":0.05,"exampleCost":0.01},"classroomParams":{"A":{"a":1,"b":4},"B":{"a":4,"b":1},"C":{"a":2,"b":8},"D":{"a":8,"b":2}},"conditions":["nonSeqFull","nonSeqPartial","seqNoFeedback","seqFeedback"],"classroomPairings":[["A","B"],["C","D"]],"coinWeights":[0.2,0.5,0.8],"subjectId":"AFU00NU09CFXE","assignmentId":"3NGI5ARFTURE9X6DBJN8IY9S12N1P5","hitId":"363A7XIFV48LMLIF2CKYA8VQSVQAVR","url":"https://gershmanlab.com/experiments/alicia/teaching/experiment/?hitId=363A7XIFV48LMLIF2CKYA8VQSVQAVR&workerId=AFU00NU09CFXE&assignmentId=3NGI5ARFTURE9X6DBJN8IY9S12N1P5&a=F5GN9&tp_a=F5GN9&b=3NGI5ARFTURE9X6DBJN8IY9S12N1P5&tp_b=3NGI5ARFTURE9X6DBJN8IY9S12N1P5&c=365799&tp_c=365799","firstResponseHeads":20,"firstResponseTails":10,"secondResponseHeads":8,"secondResponseTails":22,"totalHeads":28,"totalTails":32,"studentIndex":1,"studentTrueHypers":{"a":8,"b":2},"studentGuess":0.5142857142857142,"delta":0.3142857142857142,"bonus":0,"bonusSoFar":0,"totalExamples":60},{"rt":16832,"response":{"heads":"22","tails":"8"},"type":"response","condition":"seqNoFeedback","trueTheta":0.8,"classrooms":["C","D"],"studentTrueClassroom":"D","exampleSet":"first","trial_type":"survey-html-form","trial_index":28,"time_elapsed":1076930,"internal_node_id":"0.0-24.0-0.0","params":{"nStudents":24,"maxFlips":30,"completionMinutes":45,"basePay":8,"maxBonus":9,"perTrialBonus":0.5,"perTrialBonusThreshold":0.05,"exampleCost":0.01},"classroomParams":{"A":{"a":1,"b":4},"B":{"a":4,"b":1},"C":{"a":2,"b":8},"D":{"a":8,"b":2}},"conditions":["nonSeqFull","nonSeqPartial","seqNoFeedback","seqFeedback"],"classroomPairings":[["A","B"],["C","D"]],"coinWeights":[0.2,0.5,0.8],"subjectId":"AFU00NU09CFXE","assignmentId":"3NGI5ARFTURE9X6DBJN8IY9S12N1P5","hitId":"363A7XIFV48LMLIF2CKYA8VQSVQAVR","url":"https://gershmanlab.com/experiments/alicia/teaching/experiment/?hitId=363A7XIFV48LMLIF2CKYA8VQSVQAVR&workerId=AFU00NU09CFXE&assignmentId=3NGI5ARFTURE9X6DBJN8IY9S12N1P5&a=F5GN9&tp_a=F5GN9&b=3NGI5ARFTURE9X6DBJN8IY9S12N1P5&tp_b=3NGI5ARFTURE9X6DBJN8IY9S12N1P5&c=365799&tp_c=365799","heads":22,"tails":8,"studentIndex":2,"studentTrueHypers":{"a":8,"b":2},"studentGuess":0.75,"delta":0.050000000000000044,"totalExamples":30,"bonusSoFar":0},{"rt":11217,"response":{"heads":"24","tails":"6"},"type":"response","condition":"seqNoFeedback","trueTheta":0.8,"classrooms":["C","D"],"studentTrueClassroom":"D","exampleSet":"second","trial_type":"survey-html-form","trial_index":31,"time_elapsed":1094912,"internal_node_id":"0.0-27.0-0.0","params":{"nStudents":24,"maxFlips":30,"completionMinutes":45,"basePay":8,"maxBonus":9,"perTrialBonus":0.5,"perTrialBonusThreshold":0.05,"exampleCost":0.01},"classroomParams":{"A":{"a":1,"b":4},"B":{"a":4,"b":1},"C":{"a":2,"b":8},"D":{"a":8,"b":2}},"conditions":["nonSeqFull","nonSeqPartial","seqNoFeedback","seqFeedback"],"classroomPairings":[["A","B"],["C","D"]],"coinWeights":[0.2,0.5,0.8],"subjectId":"AFU00NU09CFXE","assignmentId":"3NGI5ARFTURE9X6DBJN8IY9S12N1P5","hitId":"363A7XIFV48LMLIF2CKYA8VQSVQAVR","url":"https://gershmanlab.com/experiments/alicia/teaching/experiment/?hitId=363A7XIFV48LMLIF2CKYA8VQSVQAVR&workerId=AFU00NU09CFXE&assignmentId=3NGI5ARFTURE9X6DBJN8IY9S12N1P5&a=F5GN9&tp_a=F5GN9&b=3NGI5ARFTURE9X6DBJN8IY9S12N1P5&tp_b=3NGI5ARFTURE9X6DBJN8IY9S12N1P5&c=365799&tp_c=365799","firstResponseHeads":22,"firstResponseTails":8,"secondResponseHeads":24,"secondResponseTails":6,"totalHeads":46,"totalTails":14,"studentIndex":2,"studentTrueHypers":{"a":8,"b":2},"studentGuess":0.7714285714285715,"delta":0.02857142857142858,"bonus":0,"bonusSoFar":0,"totalExamples":60},{"rt":210950,"response":{"heads":"25","tails":"05"},"type":"response","condition":"nonSeqPartial","trueTheta":0.2,"classrooms":["A","B"],"studentTrueClassroom":"A","exampleSet":"first","trial_type":"survey-html-form","trial_index":37,"time_elapsed":1339629,"internal_node_id":"0.0-33.0-0.0","params":{"nStudents":24,"maxFlips":30,"completionMinutes":45,"basePay":8,"maxBonus":9,"perTrialBonus":0.5,"perTrialBonusThreshold":0.05,"exampleCost":0.01},"classroomParams":{"A":{"a":1,"b":4},"B":{"a":4,"b":1},"C":{"a":2,"b":8},"D":{"a":8,"b":2}},"conditions":["nonSeqFull","nonSeqPartial","seqNoFeedback","seqFeedback"],"classroomPairings":[["A","B"],["C","D"]],"coinWeights":[0.2,0.5,0.8],"subjectId":"AFU00NU09CFXE","assignmentId":"3NGI5ARFTURE9X6DBJN8IY9S12N1P5","hitId":"363A7XIFV48LMLIF2CKYA8VQSVQAVR","url":"https://gershmanlab.com/experiments/alicia/teaching/experiment/?hitId=363A7XIFV48LMLIF2CKYA8VQSVQAVR&workerId=AFU00NU09CFXE&assignmentId=3NGI5ARFTURE9X6DBJN8IY9S12N1P5&a=F5GN9&tp_a=F5GN9&b=3NGI5ARFTURE9X6DBJN8IY9S12N1P5&tp_b=3NGI5ARFTURE9X6DBJN8IY9S12N1P5&c=365799&tp_c=365799","heads":25,"tails":5,"studentIndex":3,"studentTrueHypers":{"a":1,"b":4},"studentGuess":0.7428571428571429,"delta":0.5428571428571429,"totalExamples":30,"bonus":0,"bonusSoFar":0},{"rt":24183,"response":{"heads":"25","tails":"5"},"type":"response","condition":"nonSeqFull","trueTheta":0.5,"classrooms":["A","B"],"studentTrueClassroom":"A","exampleSet":"first","trial_type":"survey-html-form","trial_index":43,"time_elapsed":1379254,"internal_node_id":"0.0-39.0-0.0","params":{"nStudents":24,"maxFlips":30,"completionMinutes":45,"basePay":8,"maxBonus":9,"perTrialBonus":0.5,"perTrialBonusThreshold":0.05,"exampleCost":0.01},"classroomParams":{"A":{"a":1,"b":4},"B":{"a":4,"b":1},"C":{"a":2,"b":8},"D":{"a":8,"b":2}},"conditions":["nonSeqFull","nonSeqPartial","seqNoFeedback","seqFeedback"],"classroomPairings":[["A","B"],["C","D"]],"coinWeights":[0.2,0.5,0.8],"subjectId":"AFU00NU09CFXE","assignmentId":"3NGI5ARFTURE9X6DBJN8IY9S12N1P5","hitId":"363A7XIFV48LMLIF2CKYA8VQSVQAVR","url":"https://gershmanlab.com/experiments/alicia/teaching/experiment/?hitId=363A7XIFV48LMLIF2CKYA8VQSVQAVR&workerId=AFU00NU09CFXE&assignmentId=3NGI5ARFTURE9X6DBJN8IY9S12N1P5&a=F5GN9&tp_a=F5GN9&b=3NGI5ARFTURE9X6DBJN8IY9S12N1P5&tp_b=3NGI5ARFTURE9X6DBJN8IY9S12N1P5&c=365799&tp_c=365799","heads":25,"tails":5,"studentIndex":4,"studentTrueHypers":{"a":1,"b":4},"studentGuess":0.7428571428571429,"delta":0.24285714285714288,"totalExamples":30,"bonus":0,"bonusSoFar":0},{"rt":19383,"response":{"heads":"12","tails":"18"},"type":"response","condition":"seqFeedback","trueTheta":0.2,"classrooms":["A","B"],"studentTrueClassroom":"A","exampleSet":"first","trial_type":"survey-html-form","trial_index":49,"time_elapsed":1420543,"internal_node_id":"0.0-45.0-0.0","params":{"nStudents":24,"maxFlips":30,"completionMinutes":45,"basePay":8,"maxBonus":9,"perTrialBonus":0.5,"perTrialBonusThreshold":0.05,"exampleCost":0.01},"classroomParams":{"A":{"a":1,"b":4},"B":{"a":4,"b":1},"C":{"a":2,"b":8},"D":{"a":8,"b":2}},"conditions":["nonSeqFull","nonSeqPartial","seqNoFeedback","seqFeedback"],"classroomPairings":[["A","B"],["C","D"]],"coinWeights":[0.2,0.5,0.8],"subjectId":"AFU00NU09CFXE","assignmentId":"3NGI5ARFTURE9X6DBJN8IY9S12N1P5","hitId":"363A7XIFV48LMLIF2CKYA8VQSVQAVR","url":"https://gershmanlab.com/experiments/alicia/teaching/experiment/?hitId=363A7XIFV48LMLIF2CKYA8VQSVQAVR&workerId=AFU00NU09CFXE&assignmentId=3NGI5ARFTURE9X6DBJN8IY9S12N1P5&a=F5GN9&tp_a=F5GN9&b=3NGI5ARFTURE9X6DBJN8IY9S12N1P5&tp_b=3NGI5ARFTURE9X6DBJN8IY9S12N1P5&c=365799&tp_c=365799","heads":12,"tails":18,"studentIndex":5,"studentTrueHypers":{"a":1,"b":4},"studentGuess":0.37142857142857144,"delta":0.17142857142857143,"totalExamples":30,"bonusSoFar":0},{"rt":8960,"response":{"heads":"26","tails":"4"},"type":"response","condition":"seqFeedback","trueTheta":0.2,"classrooms":["A","B"],"studentTrueClassroom":"A","exampleSet":"second","trial_type":"survey-html-form","trial_index":53,"time_elapsed":1446598,"internal_node_id":"0.0-49.0-0.0","params":{"nStudents":24,"maxFlips":30,"completionMinutes":45,"basePay":8,"maxBonus":9,"perTrialBonus":0.5,"perTrialBonusThreshold":0.05,"exampleCost":0.01},"classroomParams":{"A":{"a":1,"b":4},"B":{"a":4,"b":1},"C":{"a":2,"b":8},"D":{"a":8,"b":2}},"conditions":["nonSeqFull","nonSeqPartial","seqNoFeedback","seqFeedback"],"classroomPairings":[["A","B"],["C","D"]],"coinWeights":[0.2,0.5,0.8],"subjectId":"AFU00NU09CFXE","assignmentId":"3NGI5ARFTURE9X6DBJN8IY9S12N1P5","hitId":"363A7XIFV48LMLIF2CKYA8VQSVQAVR","url":"https://gershmanlab.com/experiments/alicia/teaching/experiment/?hitId=363A7XIFV48LMLIF2CKYA8VQSVQAVR&workerId=AFU00NU09CFXE&assignmentId=3NGI5ARFTURE9X6DBJN8IY9S12N1P5&a=F5GN9&tp_a=F5GN9&b=3NGI5ARFTURE9X6DBJN8IY9S12N1P5&tp_b=3NGI5ARFTURE9X6DBJN8IY9S12N1P5&c=365799&tp_c=365799","firstResponseHeads":12,"firstResponseTails":18,"secondResponseHeads":26,"secondResponseTails":4,"totalHeads":38,"totalTails":22,"studentIndex":5,"studentTrueHypers":{"a":1,"b":4},"studentGuess":0.6,"delta":0.39999999999999997,"bonus":0,"bonusSoFar":0,"totalExamples":60},{"rt":10694,"response":{"heads":"28","tails":"2"},"type":"response","condition":"nonSeqPartial","trueTheta":0.2,"classrooms":["C","D"],"studentTrueClassroom":"C","exampleSet":"first","trial_type":"survey-html-form","trial_index":59,"time_elapsed":1526810,"internal_node_id":"0.0-55.0-0.0","params":{"nStudents":24,"maxFlips":30,"completionMinutes":45,"basePay":8,"maxBonus":9,"perTrialBonus":0.5,"perTrialBonusThreshold":0.05,"exampleCost":0.01},"classroomParams":{"A":{"a":1,"b":4},"B":{"a":4,"b":1},"C":{"a":2,"b":8},"D":{"a":8,"b":2}},"conditions":["nonSeqFull","nonSeqPartial","seqNoFeedback","seqFeedback"],"classroomPairings":[["A","B"],["C","D"]],"coinWeights":[0.2,0.5,0.8],"subjectId":"AFU00NU09CFXE","assignmentId":"3NGI5ARFTURE9X6DBJN8IY9S12N1P5","hitId":"363A7XIFV48LMLIF2CKYA8VQSVQAVR","url":"https://gershmanlab.com/experiments/alicia/teaching/experiment/?hitId=363A7XIFV48LMLIF2CKYA8VQSVQAVR&workerId=AFU00NU09CFXE&assignmentId=3NGI5ARFTURE9X6DBJN8IY9S12N1P5&a=F5GN9&tp_a=F5GN9&b=3NGI5ARFTURE9X6DBJN8IY9S12N1P5&tp_b=3NGI5ARFTURE9X6DBJN8IY9S12N1P5&c=365799&tp_c=365799","heads":28,"tails":2,"studentIndex":6,"studentTrueHypers":{"a":2,"b":8},"studentGuess":0.75,"delta":0.55,"totalExamples":30,"bonus":0,"bonusSoFar":0},{"rt":9045,"response":{"heads":"28","tails":"2"},"type":"response","condition":"nonSeqPartial","trueTheta":0.8,"classrooms":["C","D"],"studentTrueClassroom":"C","exampleSet":"first","trial_type":"survey-html-form","trial_index":65,"time_elapsed":1548509,"internal_node_id":"0.0-61.0-0.0","params":{"nStudents":24,"maxFlips":30,"completionMinutes":45,"basePay":8,"maxBonus":9,"perTrialBonus":0.5,"perTrialBonusThreshold":0.05,"exampleCost":0.01},"classroomParams":{"A":{"a":1,"b":4},"B":{"a":4,"b":1},"C":{"a":2,"b":8},"D":{"a":8,"b":2}},"conditions":["nonSeqFull","nonSeqPartial","seqNoFeedback","seqFeedback"],"classroomPairings":[["A","B"],["C","D"]],"coinWeights":[0.2,0.5,0.8],"subjectId":"AFU00NU09CFXE","assignmentId":"3NGI5ARFTURE9X6DBJN8IY9S12N1P5","hitId":"363A7XIFV48LMLIF2CKYA8VQSVQAVR","url":"https://gershmanlab.com/experiments/alicia/teaching/experiment/?hitId=363A7XIFV48LMLIF2CKYA8VQSVQAVR&workerId=AFU00NU09CFXE&assignmentId=3NGI5ARFTURE9X6DBJN8IY9S12N1P5&a=F5GN9&tp_a=F5GN9&b=3NGI5ARFTURE9X6DBJN8IY9S12N1P5&tp_b=3NGI5ARFTURE9X6DBJN8IY9S12N1P5&c=365799&tp_c=365799","heads":28,"tails":2,"studentIndex":7,"studentTrueHypers":{"a":2,"b":8},"studentGuess":0.75,"delta":0.050000000000000044,"totalExamples":30,"bonus":0,"bonusSoFar":0},{"rt":175070,"response":{"heads":"1","tails":"4"},"type":"response","condition":"seqFeedback","trueTheta":0.2,"classrooms":["C","D"],"studentTrueClassroom":"D","exampleSet":"first","trial_type":"survey-html-form","trial_index":71,"time_elapsed":1776933,"internal_node_id":"0.0-67.0-0.0","params":{"nStudents":24,"maxFlips":30,"completionMinutes":45,"basePay":8,"maxBonus":9,"perTrialBonus":0.5,"perTrialBonusThreshold":0.05,"exampleCost":0.01},"classroomParams":{"A":{"a":1,"b":4},"B":{"a":4,"b":1},"C":{"a":2,"b":8},"D":{"a":8,"b":2}},"conditions":["nonSeqFull","nonSeqPartial","seqNoFeedback","seqFeedback"],"classroomPairings":[["A","B"],["C","D"]],"coinWeights":[0.2,0.5,0.8],"subjectId":"AFU00NU09CFXE","assignmentId":"3NGI5ARFTURE9X6DBJN8IY9S12N1P5","hitId":"363A7XIFV48LMLIF2CKYA8VQSVQAVR","url":"https://gershmanlab.com/experiments/alicia/teaching/experiment/?hitId=363A7XIFV48LMLIF2CKYA8VQSVQAVR&workerId=AFU00NU09CFXE&assignmentId=3NGI5ARFTURE9X6DBJN8IY9S12N1P5&a=F5GN9&tp_a=F5GN9&b=3NGI5ARFTURE9X6DBJN8IY9S12N1P5&tp_b=3NGI5ARFTURE9X6DBJN8IY9S12N1P5&c=365799&tp_c=365799","heads":1,"tails":4,"studentIndex":8,"studentTrueHypers":{"a":8,"b":2},"studentGuess":0.6,"delta":0.39999999999999997,"totalExamples":5,"bonusSoFar":0},{"rt":36097,"response":{"heads":"3","tails":"6"},"type":"response","condition":"seqFeedback","trueTheta":0.2,"classrooms":["C","D"],"studentTrueClassroom":"D","exampleSet":"second","trial_type":"survey-html-form","trial_index":75,"time_elapsed":1825975,"internal_node_id":"0.0-71.0-0.0","params":{"nStudents":24,"maxFlips":30,"completionMinutes":45,"basePay":8,"maxBonus":9,"perTrialBonus":0.5,"perTrialBonusThreshold":0.05,"exampleCost":0.01},"classroomParams":{"A":{"a":1,"b":4},"B":{"a":4,"b":1},"C":{"a":2,"b":8},"D":{"a":8,"b":2}},"conditions":["nonSeqFull","nonSeqPartial","seqNoFeedback","seqFeedback"],"classroomPairings":[["A","B"],["C","D"]],"coinWeights":[0.2,0.5,0.8],"subjectId":"AFU00NU09CFXE","assignmentId":"3NGI5ARFTURE9X6DBJN8IY9S12N1P5","hitId":"363A7XIFV48LMLIF2CKYA8VQSVQAVR","url":"https://gershmanlab.com/experiments/alicia/teaching/experiment/?hitId=363A7XIFV48LMLIF2CKYA8VQSVQAVR&workerId=AFU00NU09CFXE&assignmentId=3NGI5ARFTURE9X6DBJN8IY9S12N1P5&a=F5GN9&tp_a=F5GN9&b=3NGI5ARFTURE9X6DBJN8IY9S12N1P5&tp_b=3NGI5ARFTURE9X6DBJN8IY9S12N1P5&c=365799&tp_c=365799","firstResponseHeads":1,"firstResponseTails":4,"secondResponseHeads":3,"secondResponseTails":6,"totalHeads":4,"totalTails":10,"studentIndex":8,"studentTrueHypers":{"a":8,"b":2},"studentGuess":0.5,"delta":0.3,"bonus":0,"bonusSoFar":0,"totalExamples":14},{"rt":8775,"response":{"heads":"2","tails":"6"},"type":"response","condition":"nonSeqPartial","trueTheta":0.5,"classrooms":["A","B"],"studentTrueClassroom":"B","exampleSet":"first","trial_type":"survey-html-form","trial_index":81,"time_elapsed":1880996,"internal_node_id":"0.0-77.0-0.0","params":{"nStudents":24,"maxFlips":30,"completionMinutes":45,"basePay":8,"maxBonus":9,"perTrialBonus":0.5,"perTrialBonusThreshold":0.05,"exampleCost":0.01},"classroomParams":{"A":{"a":1,"b":4},"B":{"a":4,"b":1},"C":{"a":2,"b":8},"D":{"a":8,"b":2}},"conditions":["nonSeqFull","nonSeqPartial","seqNoFeedback","seqFeedback"],"classroomPairings":[["A","B"],["C","D"]],"coinWeights":[0.2,0.5,0.8],"subjectId":"AFU00NU09CFXE","assignmentId":"3NGI5ARFTURE9X6DBJN8IY9S12N1P5","hitId":"363A7XIFV48LMLIF2CKYA8VQSVQAVR","url":"https://gershmanlab.com/experiments/alicia/teaching/experiment/?hitId=363A7XIFV48LMLIF2CKYA8VQSVQAVR&workerId=AFU00NU09CFXE&assignmentId=3NGI5ARFTURE9X6DBJN8IY9S12N1P5&a=F5GN9&tp_a=F5GN9&b=3NGI5ARFTURE9X6DBJN8IY9S12N1P5&tp_b=3NGI5ARFTURE9X6DBJN8IY9S12N1P5&c=365799&tp_c=365799","heads":2,"tails":6,"studentIndex":9,"studentTrueHypers":{"a":4,"b":1},"studentGuess":0.46153846153846156,"delta":0.038461538461538436,"totalExamples":8,"bonus":0.42,"bonusSoFar":0.42},{"rt":17902,"response":{"heads":"6","tails":"12"},"type":"response","condition":"seqFeedback","trueTheta":0.5,"classrooms":["C","D"],"studentTrueClassroom":"C","exampleSet":"first","trial_type":"survey-html-form","trial_index":87,"time_elapsed":1913831,"internal_node_id":"0.0-83.0-0.0","params":{"nStudents":24,"maxFlips":30,"completionMinutes":45,"basePay":8,"maxBonus":9,"perTrialBonus":0.5,"perTrialBonusThreshold":0.05,"exampleCost":0.01},"classroomParams":{"A":{"a":1,"b":4},"B":{"a":4,"b":1},"C":{"a":2,"b":8},"D":{"a":8,"b":2}},"conditions":["nonSeqFull","nonSeqPartial","seqNoFeedback","seqFeedback"],"classroomPairings":[["A","B"],["C","D"]],"coinWeights":[0.2,0.5,0.8],"subjectId":"AFU00NU09CFXE","assignmentId":"3NGI5ARFTURE9X6DBJN8IY9S12N1P5","hitId":"363A7XIFV48LMLIF2CKYA8VQSVQAVR","url":"https://gershmanlab.com/experiments/alicia/teaching/experiment/?hitId=363A7XIFV48LMLIF2CKYA8VQSVQAVR&workerId=AFU00NU09CFXE&assignmentId=3NGI5ARFTURE9X6DBJN8IY9S12N1P5&a=F5GN9&tp_a=F5GN9&b=3NGI5ARFTURE9X6DBJN8IY9S12N1P5&tp_b=3NGI5ARFTURE9X6DBJN8IY9S12N1P5&c=365799&tp_c=365799","heads":6,"tails":12,"studentIndex":10,"studentTrueHypers":{"a":2,"b":8},"studentGuess":0.2857142857142857,"delta":0.2142857142857143,"totalExamples":18,"bonusSoFar":0.42},{"rt":10035,"response":{"heads":"18","tails":"4"},"type":"response","condition":"seqFeedback","trueTheta":0.5,"classrooms":["C","D"],"studentTrueClassroom":"C","exampleSet":"second","trial_type":"survey-html-form","trial_index":91,"time_elapsed":1934781,"internal_node_id":"0.0-87.0-0.0","params":{"nStudents":24,"maxFlips":30,"completionMinutes":45,"basePay":8,"maxBonus":9,"perTrialBonus":0.5,"perTrialBonusThreshold":0.05,"exampleCost":0.01},"classroomParams":{"A":{"a":1,"b":4},"B":{"a":4,"b":1},"C":{"a":2,"b":8},"D":{"a":8,"b":2}},"conditions":["nonSeqFull","nonSeqPartial","seqNoFeedback","seqFeedback"],"classroomPairings":[["A","B"],["C","D"]],"coinWeights":[0.2,0.5,0.8],"subjectId":"AFU00NU09CFXE","assignmentId":"3NGI5ARFTURE9X6DBJN8IY9S12N1P5","hitId":"363A7XIFV48LMLIF2CKYA8VQSVQAVR","url":"https://gershmanlab.com/experiments/alicia/teaching/experiment/?hitId=363A7XIFV48LMLIF2CKYA8VQSVQAVR&workerId=AFU00NU09CFXE&assignmentId=3NGI5ARFTURE9X6DBJN8IY9S12N1P5&a=F5GN9&tp_a=F5GN9&b=3NGI5ARFTURE9X6DBJN8IY9S12N1P5&tp_b=3NGI5ARFTURE9X6DBJN8IY9S12N1P5&c=365799&tp_c=365799","firstResponseHeads":6,"firstResponseTails":12,"secondResponseHeads":18,"secondResponseTails":4,"totalHeads":24,"totalTails":16,"studentIndex":10,"studentTrueHypers":{"a":2,"b":8},"studentGuess":0.52,"delta":0.020000000000000018,"bonus":0.1,"bonusSoFar":0.52,"totalExamples":40},{"rt":10352,"response":{"heads":"16","tails":"2"},"type":"response","condition":"seqNoFeedback","trueTheta":0.8,"classrooms":["A","B"],"studentTrueClassroom":"B","exampleSet":"first","trial_type":"survey-html-form","trial_index":97,"time_elapsed":1961404,"internal_node_id":"0.0-93.0-0.0","params":{"nStudents":24,"maxFlips":30,"completionMinutes":45,"basePay":8,"maxBonus":9,"perTrialBonus":0.5,"perTrialBonusThreshold":0.05,"exampleCost":0.01},"classroomParams":{"A":{"a":1,"b":4},"B":{"a":4,"b":1},"C":{"a":2,"b":8},"D":{"a":8,"b":2}},"conditions":["nonSeqFull","nonSeqPartial","seqNoFeedback","seqFeedback"],"classroomPairings":[["A","B"],["C","D"]],"coinWeights":[0.2,0.5,0.8],"subjectId":"AFU00NU09CFXE","assignmentId":"3NGI5ARFTURE9X6DBJN8IY9S12N1P5","hitId":"363A7XIFV48LMLIF2CKYA8VQSVQAVR","url":"https://gershmanlab.com/experiments/alicia/teaching/experiment/?hitId=363A7XIFV48LMLIF2CKYA8VQSVQAVR&workerId=AFU00NU09CFXE&assignmentId=3NGI5ARFTURE9X6DBJN8IY9S12N1P5&a=F5GN9&tp_a=F5GN9&b=3NGI5ARFTURE9X6DBJN8IY9S12N1P5&tp_b=3NGI5ARFTURE9X6DBJN8IY9S12N1P5&c=365799&tp_c=365799","heads":16,"tails":2,"studentIndex":11,"studentTrueHypers":{"a":4,"b":1},"studentGuess":0.8695652173913043,"delta":0.06956521739130428,"totalExamples":18,"bonusSoFar":0.52},{"rt":13019,"response":{"heads":"18","tails":"2"},"type":"response","condition":"seqNoFeedback","trueTheta":0.8,"classrooms":["A","B"],"studentTrueClassroom":"B","exampleSet":"second","trial_type":"survey-html-form","trial_index":100,"time_elapsed":1979951,"internal_node_id":"0.0-96.0-0.0","params":{"nStudents":24,"maxFlips":30,"completionMinutes":45,"basePay":8,"maxBonus":9,"perTrialBonus":0.5,"perTrialBonusThreshold":0.05,"exampleCost":0.01},"classroomParams":{"A":{"a":1,"b":4},"B":{"a":4,"b":1},"C":{"a":2,"b":8},"D":{"a":8,"b":2}},"conditions":["nonSeqFull","nonSeqPartial","seqNoFeedback","seqFeedback"],"classroomPairings":[["A","B"],["C","D"]],"coinWeights":[0.2,0.5,0.8],"subjectId":"AFU00NU09CFXE","assignmentId":"3NGI5ARFTURE9X6DBJN8IY9S12N1P5","hitId":"363A7XIFV48LMLIF2CKYA8VQSVQAVR","url":"https://gershmanlab.com/experiments/alicia/teaching/experiment/?hitId=363A7XIFV48LMLIF2CKYA8VQSVQAVR&workerId=AFU00NU09CFXE&assignmentId=3NGI5ARFTURE9X6DBJN8IY9S12N1P5&a=F5GN9&tp_a=F5GN9&b=3NGI5ARFTURE9X6DBJN8IY9S12N1P5&tp_b=3NGI5ARFTURE9X6DBJN8IY9S12N1P5&c=365799&tp_c=365799","firstResponseHeads":16,"firstResponseTails":2,"secondResponseHeads":18,"secondResponseTails":2,"totalHeads":34,"totalTails":4,"studentIndex":11,"studentTrueHypers":{"a":4,"b":1},"studentGuess":0.8837209302325582,"delta":0.08372093023255811,"bonus":0,"bonusSoFar":0.52,"totalExamples":38},{"rt":6458,"response":{"heads":"22","tails":"2"},"type":"response","condition":"seqFeedback","trueTheta":0.5,"classrooms":["A","B"],"studentTrueClassroom":"A","exampleSet":"first","trial_type":"survey-html-form","trial_index":106,"time_elapsed":2001433,"internal_node_id":"0.0-102.0-0.0","params":{"nStudents":24,"maxFlips":30,"completionMinutes":45,"basePay":8,"maxBonus":9,"perTrialBonus":0.5,"perTrialBonusThreshold":0.05,"exampleCost":0.01},"classroomParams":{"A":{"a":1,"b":4},"B":{"a":4,"b":1},"C":{"a":2,"b":8},"D":{"a":8,"b":2}},"conditions":["nonSeqFull","nonSeqPartial","seqNoFeedback","seqFeedback"],"classroomPairings":[["A","B"],["C","D"]],"coinWeights":[0.2,0.5,0.8],"subjectId":"AFU00NU09CFXE","assignmentId":"3NGI5ARFTURE9X6DBJN8IY9S12N1P5","hitId":"363A7XIFV48LMLIF2CKYA8VQSVQAVR","url":"https://gershmanlab.com/experiments/alicia/teaching/experiment/?hitId=363A7XIFV48LMLIF2CKYA8VQSVQAVR&workerId=AFU00NU09CFXE&assignmentId=3NGI5ARFTURE9X6DBJN8IY9S12N1P5&a=F5GN9&tp_a=F5GN9&b=3NGI5ARFTURE9X6DBJN8IY9S12N1P5&tp_b=3NGI5ARFTURE9X6DBJN8IY9S12N1P5&c=365799&tp_c=365799","heads":22,"tails":2,"studentIndex":12,"studentTrueHypers":{"a":1,"b":4},"studentGuess":0.7931034482758621,"delta":0.2931034482758621,"totalExamples":24,"bonusSoFar":0.52},{"rt":8791,"response":{"heads":"17","tails":"3"},"type":"response","condition":"seqFeedback","trueTheta":0.5,"classrooms":["A","B"],"studentTrueClassroom":"A","exampleSet":"second","trial_type":"survey-html-form","trial_index":110,"time_elapsed":2035027,"internal_node_id":"0.0-106.0-0.0","params":{"nStudents":24,"maxFlips":30,"completionMinutes":45,"basePay":8,"maxBonus":9,"perTrialBonus":0.5,"perTrialBonusThreshold":0.05,"exampleCost":0.01},"classroomParams":{"A":{"a":1,"b":4},"B":{"a":4,"b":1},"C":{"a":2,"b":8},"D":{"a":8,"b":2}},"conditions":["nonSeqFull","nonSeqPartial","seqNoFeedback","seqFeedback"],"classroomPairings":[["A","B"],["C","D"]],"coinWeights":[0.2,0.5,0.8],"subjectId":"AFU00NU09CFXE","assignmentId":"3NGI5ARFTURE9X6DBJN8IY9S12N1P5","hitId":"363A7XIFV48LMLIF2CKYA8VQSVQAVR","url":"https://gershmanlab.com/experiments/alicia/teaching/experiment/?hitId=363A7XIFV48LMLIF2CKYA8VQSVQAVR&workerId=AFU00NU09CFXE&assignmentId=3NGI5ARFTURE9X6DBJN8IY9S12N1P5&a=F5GN9&tp_a=F5GN9&b=3NGI5ARFTURE9X6DBJN8IY9S12N1P5&tp_b=3NGI5ARFTURE9X6DBJN8IY9S12N1P5&c=365799&tp_c=365799","firstResponseHeads":22,"firstResponseTails":2,"secondResponseHeads":17,"secondResponseTails":3,"totalHeads":39,"totalTails":5,"studentIndex":12,"studentTrueHypers":{"a":1,"b":4},"studentGuess":0.8163265306122449,"delta":0.3163265306122449,"bonus":0,"bonusSoFar":0.52,"totalExamples":44},{"rt":11054,"response":{"heads":"26","tails":"4"},"type":"response","condition":"nonSeqFull","trueTheta":0.8,"classrooms":["C","D"],"studentTrueClassroom":"C","exampleSet":"first","trial_type":"survey-html-form","trial_index":116,"time_elapsed":2056510,"internal_node_id":"0.0-112.0-0.0","params":{"nStudents":24,"maxFlips":30,"completionMinutes":45,"basePay":8,"maxBonus":9,"perTrialBonus":0.5,"perTrialBonusThreshold":0.05,"exampleCost":0.01},"classroomParams":{"A":{"a":1,"b":4},"B":{"a":4,"b":1},"C":{"a":2,"b":8},"D":{"a":8,"b":2}},"conditions":["nonSeqFull","nonSeqPartial","seqNoFeedback","seqFeedback"],"classroomPairings":[["A","B"],["C","D"]],"coinWeights":[0.2,0.5,0.8],"subjectId":"AFU00NU09CFXE","assignmentId":"3NGI5ARFTURE9X6DBJN8IY9S12N1P5","hitId":"363A7XIFV48LMLIF2CKYA8VQSVQAVR","url":"https://gershmanlab.com/experiments/alicia/teaching/experiment/?hitId=363A7XIFV48LMLIF2CKYA8VQSVQAVR&workerId=AFU00NU09CFXE&assignmentId=3NGI5ARFTURE9X6DBJN8IY9S12N1P5&a=F5GN9&tp_a=F5GN9&b=3NGI5ARFTURE9X6DBJN8IY9S12N1P5&tp_b=3NGI5ARFTURE9X6DBJN8IY9S12N1P5&c=365799&tp_c=365799","heads":26,"tails":4,"studentIndex":13,"studentTrueHypers":{"a":2,"b":8},"studentGuess":0.7,"delta":0.10000000000000009,"totalExamples":30,"bonus":0,"bonusSoFar":0.52},{"rt":10809,"response":{"heads":"26","tails":"4"},"type":"response","condition":"nonSeqFull","trueTheta":0.2,"classrooms":["C","D"],"studentTrueClassroom":"C","exampleSet":"first","trial_type":"survey-html-form","trial_index":122,"time_elapsed":2082503,"internal_node_id":"0.0-118.0-0.0","params":{"nStudents":24,"maxFlips":30,"completionMinutes":45,"basePay":8,"maxBonus":9,"perTrialBonus":0.5,"perTrialBonusThreshold":0.05,"exampleCost":0.01},"classroomParams":{"A":{"a":1,"b":4},"B":{"a":4,"b":1},"C":{"a":2,"b":8},"D":{"a":8,"b":2}},"conditions":["nonSeqFull","nonSeqPartial","seqNoFeedback","seqFeedback"],"classroomPairings":[["A","B"],["C","D"]],"coinWeights":[0.2,0.5,0.8],"subjectId":"AFU00NU09CFXE","assignmentId":"3NGI5ARFTURE9X6DBJN8IY9S12N1P5","hitId":"363A7XIFV48LMLIF2CKYA8VQSVQAVR","url":"https://gershmanlab.com/experiments/alicia/teaching/experiment/?hitId=363A7XIFV48LMLIF2CKYA8VQSVQAVR&workerId=AFU00NU09CFXE&assignmentId=3NGI5ARFTURE9X6DBJN8IY9S12N1P5&a=F5GN9&tp_a=F5GN9&b=3NGI5ARFTURE9X6DBJN8IY9S12N1P5&tp_b=3NGI5ARFTURE9X6DBJN8IY9S12N1P5&c=365799&tp_c=365799","heads":26,"tails":4,"studentIndex":14,"studentTrueHypers":{"a":2,"b":8},"studentGuess":0.7,"delta":0.49999999999999994,"totalExamples":30,"bonus":0,"bonusSoFar":0.52},{"rt":11046,"response":{"heads":"18","tails":"2"},"type":"response","condition":"nonSeqPartial","trueTheta":0.5,"classrooms":["C","D"],"studentTrueClassroom":"D","exampleSet":"first","trial_type":"survey-html-form","trial_index":128,"time_elapsed":2106867,"internal_node_id":"0.0-124.0-0.0","params":{"nStudents":24,"maxFlips":30,"completionMinutes":45,"basePay":8,"maxBonus":9,"perTrialBonus":0.5,"perTrialBonusThreshold":0.05,"exampleCost":0.01},"classroomParams":{"A":{"a":1,"b":4},"B":{"a":4,"b":1},"C":{"a":2,"b":8},"D":{"a":8,"b":2}},"conditions":["nonSeqFull","nonSeqPartial","seqNoFeedback","seqFeedback"],"classroomPairings":[["A","B"],["C","D"]],"coinWeights":[0.2,0.5,0.8],"subjectId":"AFU00NU09CFXE","assignmentId":"3NGI5ARFTURE9X6DBJN8IY9S12N1P5","hitId":"363A7XIFV48LMLIF2CKYA8VQSVQAVR","url":"https://gershmanlab.com/experiments/alicia/teaching/experiment/?hitId=363A7XIFV48LMLIF2CKYA8VQSVQAVR&workerId=AFU00NU09CFXE&assignmentId=3NGI5ARFTURE9X6DBJN8IY9S12N1P5&a=F5GN9&tp_a=F5GN9&b=3NGI5ARFTURE9X6DBJN8IY9S12N1P5&tp_b=3NGI5ARFTURE9X6DBJN8IY9S12N1P5&c=365799&tp_c=365799","heads":18,"tails":2,"studentIndex":15,"studentTrueHypers":{"a":8,"b":2},"studentGuess":0.8666666666666667,"delta":0.3666666666666667,"totalExamples":20,"bonus":0,"bonusSoFar":0.52},{"rt":7957,"response":{"heads":"10","tails":"2"},"type":"response","condition":"seqFeedback","trueTheta":0.8,"classrooms":["A","B"],"studentTrueClassroom":"B","exampleSet":"first","trial_type":"survey-html-form","trial_index":134,"time_elapsed":2130377,"internal_node_id":"0.0-130.0-0.0","params":{"nStudents":24,"maxFlips":30,"completionMinutes":45,"basePay":8,"maxBonus":9,"perTrialBonus":0.5,"perTrialBonusThreshold":0.05,"exampleCost":0.01},"classroomParams":{"A":{"a":1,"b":4},"B":{"a":4,"b":1},"C":{"a":2,"b":8},"D":{"a":8,"b":2}},"conditions":["nonSeqFull","nonSeqPartial","seqNoFeedback","seqFeedback"],"classroomPairings":[["A","B"],["C","D"]],"coinWeights":[0.2,0.5,0.8],"subjectId":"AFU00NU09CFXE","assignmentId":"3NGI5ARFTURE9X6DBJN8IY9S12N1P5","hitId":"363A7XIFV48LMLIF2CKYA8VQSVQAVR","url":"https://gershmanlab.com/experiments/alicia/teaching/experiment/?hitId=363A7XIFV48LMLIF2CKYA8VQSVQAVR&workerId=AFU00NU09CFXE&assignmentId=3NGI5ARFTURE9X6DBJN8IY9S12N1P5&a=F5GN9&tp_a=F5GN9&b=3NGI5ARFTURE9X6DBJN8IY9S12N1P5&tp_b=3NGI5ARFTURE9X6DBJN8IY9S12N1P5&c=365799&tp_c=365799","heads":10,"tails":2,"studentIndex":16,"studentTrueHypers":{"a":4,"b":1},"studentGuess":0.8235294117647058,"delta":0.0235294117647058,"totalExamples":12,"bonusSoFar":0.52},{"rt":6784,"response":{"heads":"9","tails":"2"},"type":"response","condition":"seqFeedback","trueTheta":0.8,"classrooms":["A","B"],"studentTrueClassroom":"B","exampleSet":"second","trial_type":"survey-html-form","trial_index":138,"time_elapsed":2146504,"internal_node_id":"0.0-134.0-0.0","params":{"nStudents":24,"maxFlips":30,"completionMinutes":45,"basePay":8,"maxBonus":9,"perTrialBonus":0.5,"perTrialBonusThreshold":0.05,"exampleCost":0.01},"classroomParams":{"A":{"a":1,"b":4},"B":{"a":4,"b":1},"C":{"a":2,"b":8},"D":{"a":8,"b":2}},"conditions":["nonSeqFull","nonSeqPartial","seqNoFeedback","seqFeedback"],"classroomPairings":[["A","B"],["C","D"]],"coinWeights":[0.2,0.5,0.8],"subjectId":"AFU00NU09CFXE","assignmentId":"3NGI5ARFTURE9X6DBJN8IY9S12N1P5","hitId":"363A7XIFV48LMLIF2CKYA8VQSVQAVR","url":"https://gershmanlab.com/experiments/alicia/teaching/experiment/?hitId=363A7XIFV48LMLIF2CKYA8VQSVQAVR&workerId=AFU00NU09CFXE&assignmentId=3NGI5ARFTURE9X6DBJN8IY9S12N1P5&a=F5GN9&tp_a=F5GN9&b=3NGI5ARFTURE9X6DBJN8IY9S12N1P5&tp_b=3NGI5ARFTURE9X6DBJN8IY9S12N1P5&c=365799&tp_c=365799","firstResponseHeads":10,"firstResponseTails":2,"secondResponseHeads":9,"secondResponseTails":2,"totalHeads":19,"totalTails":4,"studentIndex":16,"studentTrueHypers":{"a":4,"b":1},"studentGuess":0.8214285714285714,"delta":0.021428571428571352,"bonus":0.27,"bonusSoFar":0.79,"totalExamples":23},{"rt":16712,"response":{"heads":"18","tails":"2"},"type":"response","condition":"nonSeqFull","trueTheta":0.2,"classrooms":["A","B"],"studentTrueClassroom":"B","exampleSet":"first","trial_type":"survey-html-form","trial_index":144,"time_elapsed":2177021,"internal_node_id":"0.0-140.0-0.0","params":{"nStudents":24,"maxFlips":30,"completionMinutes":45,"basePay":8,"maxBonus":9,"perTrialBonus":0.5,"perTrialBonusThreshold":0.05,"exampleCost":0.01},"classroomParams":{"A":{"a":1,"b":4},"B":{"a":4,"b":1},"C":{"a":2,"b":8},"D":{"a":8,"b":2}},"conditions":["nonSeqFull","nonSeqPartial","seqNoFeedback","seqFeedback"],"classroomPairings":[["A","B"],["C","D"]],"coinWeights":[0.2,0.5,0.8],"subjectId":"AFU00NU09CFXE","assignmentId":"3NGI5ARFTURE9X6DBJN8IY9S12N1P5","hitId":"363A7XIFV48LMLIF2CKYA8VQSVQAVR","url":"https://gershmanlab.com/experiments/alicia/teaching/experiment/?hitId=363A7XIFV48LMLIF2CKYA8VQSVQAVR&workerId=AFU00NU09CFXE&assignmentId=3NGI5ARFTURE9X6DBJN8IY9S12N1P5&a=F5GN9&tp_a=F5GN9&b=3NGI5ARFTURE9X6DBJN8IY9S12N1P5&tp_b=3NGI5ARFTURE9X6DBJN8IY9S12N1P5&c=365799&tp_c=365799","heads":18,"tails":2,"studentIndex":17,"studentTrueHypers":{"a":4,"b":1},"studentGuess":0.88,"delta":0.6799999999999999,"totalExamples":20,"bonus":0,"bonusSoFar":0.79},{"rt":7612,"response":{"heads":"12","tails":"1"},"type":"response","condition":"seqNoFeedback","trueTheta":0.2,"classrooms":["A","B"],"studentTrueClassroom":"A","exampleSet":"first","trial_type":"survey-html-form","trial_index":150,"time_elapsed":2199044,"internal_node_id":"0.0-146.0-0.0","params":{"nStudents":24,"maxFlips":30,"completionMinutes":45,"basePay":8,"maxBonus":9,"perTrialBonus":0.5,"perTrialBonusThreshold":0.05,"exampleCost":0.01},"classroomParams":{"A":{"a":1,"b":4},"B":{"a":4,"b":1},"C":{"a":2,"b":8},"D":{"a":8,"b":2}},"conditions":["nonSeqFull","nonSeqPartial","seqNoFeedback","seqFeedback"],"classroomPairings":[["A","B"],["C","D"]],"coinWeights":[0.2,0.5,0.8],"subjectId":"AFU00NU09CFXE","assignmentId":"3NGI5ARFTURE9X6DBJN8IY9S12N1P5","hitId":"363A7XIFV48LMLIF2CKYA8VQSVQAVR","url":"https://gershmanlab.com/experiments/alicia/teaching/experiment/?hitId=363A7XIFV48LMLIF2CKYA8VQSVQAVR&workerId=AFU00NU09CFXE&assignmentId=3NGI5ARFTURE9X6DBJN8IY9S12N1P5&a=F5GN9&tp_a=F5GN9&b=3NGI5ARFTURE9X6DBJN8IY9S12N1P5&tp_b=3NGI5ARFTURE9X6DBJN8IY9S12N1P5&c=365799&tp_c=365799","heads":12,"tails":1,"studentIndex":18,"studentTrueHypers":{"a":1,"b":4},"studentGuess":0.7222222222222222,"delta":0.5222222222222221,"totalExamples":13,"bonusSoFar":0.79},{"rt":14717,"response":{"heads":"14","tails":"2"},"type":"response","condition":"seqNoFeedback","trueTheta":0.2,"classrooms":["A","B"],"studentTrueClassroom":"A","exampleSet":"second","trial_type":"survey-html-form","trial_index":153,"time_elapsed":2220784,"internal_node_id":"0.0-149.0-0.0","params":{"nStudents":24,"maxFlips":30,"completionMinutes":45,"basePay":8,"maxBonus":9,"perTrialBonus":0.5,"perTrialBonusThreshold":0.05,"exampleCost":0.01},"classroomParams":{"A":{"a":1,"b":4},"B":{"a":4,"b":1},"C":{"a":2,"b":8},"D":{"a":8,"b":2}},"conditions":["nonSeqFull","nonSeqPartial","seqNoFeedback","seqFeedback"],"classroomPairings":[["A","B"],["C","D"]],"coinWeights":[0.2,0.5,0.8],"subjectId":"AFU00NU09CFXE","assignmentId":"3NGI5ARFTURE9X6DBJN8IY9S12N1P5","hitId":"363A7XIFV48LMLIF2CKYA8VQSVQAVR","url":"https://gershmanlab.com/experiments/alicia/teaching/experiment/?hitId=363A7XIFV48LMLIF2CKYA8VQSVQAVR&workerId=AFU00NU09CFXE&assignmentId=3NGI5ARFTURE9X6DBJN8IY9S12N1P5&a=F5GN9&tp_a=F5GN9&b=3NGI5ARFTURE9X6DBJN8IY9S12N1P5&tp_b=3NGI5ARFTURE9X6DBJN8IY9S12N1P5&c=365799&tp_c=365799","firstResponseHeads":12,"firstResponseTails":1,"secondResponseHeads":14,"secondResponseTails":2,"totalHeads":26,"totalTails":3,"studentIndex":18,"studentTrueHypers":{"a":1,"b":4},"studentGuess":0.7941176470588235,"delta":0.5941176470588234,"bonus":0,"bonusSoFar":0.79,"totalExamples":29},{"rt":6193,"response":{"heads":"08","tails":"2"},"type":"response","condition":"nonSeqPartial","trueTheta":0.8,"classrooms":["A","B"],"studentTrueClassroom":"B","exampleSet":"first","trial_type":"survey-html-form","trial_index":159,"time_elapsed":2243919,"internal_node_id":"0.0-155.0-0.0","params":{"nStudents":24,"maxFlips":30,"completionMinutes":45,"basePay":8,"maxBonus":9,"perTrialBonus":0.5,"perTrialBonusThreshold":0.05,"exampleCost":0.01},"classroomParams":{"A":{"a":1,"b":4},"B":{"a":4,"b":1},"C":{"a":2,"b":8},"D":{"a":8,"b":2}},"conditions":["nonSeqFull","nonSeqPartial","seqNoFeedback","seqFeedback"],"classroomPairings":[["A","B"],["C","D"]],"coinWeights":[0.2,0.5,0.8],"subjectId":"AFU00NU09CFXE","assignmentId":"3NGI5ARFTURE9X6DBJN8IY9S12N1P5","hitId":"363A7XIFV48LMLIF2CKYA8VQSVQAVR","url":"https://gershmanlab.com/experiments/alicia/teaching/experiment/?hitId=363A7XIFV48LMLIF2CKYA8VQSVQAVR&workerId=AFU00NU09CFXE&assignmentId=3NGI5ARFTURE9X6DBJN8IY9S12N1P5&a=F5GN9&tp_a=F5GN9&b=3NGI5ARFTURE9X6DBJN8IY9S12N1P5&tp_b=3NGI5ARFTURE9X6DBJN8IY9S12N1P5&c=365799&tp_c=365799","heads":8,"tails":2,"studentIndex":19,"studentTrueHypers":{"a":4,"b":1},"studentGuess":0.8,"delta":0,"totalExamples":10,"bonus":0.4,"bonusSoFar":1.19},{"rt":13971,"response":{"heads":"12","tails":"2"},"type":"response","condition":"nonSeqFull","trueTheta":0.8,"classrooms":["A","B"],"studentTrueClassroom":"A","exampleSet":"first","trial_type":"survey-html-form","trial_index":165,"time_elapsed":2272257,"internal_node_id":"0.0-161.0-0.0","params":{"nStudents":24,"maxFlips":30,"completionMinutes":45,"basePay":8,"maxBonus":9,"perTrialBonus":0.5,"perTrialBonusThreshold":0.05,"exampleCost":0.01},"classroomParams":{"A":{"a":1,"b":4},"B":{"a":4,"b":1},"C":{"a":2,"b":8},"D":{"a":8,"b":2}},"conditions":["nonSeqFull","nonSeqPartial","seqNoFeedback","seqFeedback"],"classroomPairings":[["A","B"],["C","D"]],"coinWeights":[0.2,0.5,0.8],"subjectId":"AFU00NU09CFXE","assignmentId":"3NGI5ARFTURE9X6DBJN8IY9S12N1P5","hitId":"363A7XIFV48LMLIF2CKYA8VQSVQAVR","url":"https://gershmanlab.com/experiments/alicia/teaching/experiment/?hitId=363A7XIFV48LMLIF2CKYA8VQSVQAVR&workerId=AFU00NU09CFXE&assignmentId=3NGI5ARFTURE9X6DBJN8IY9S12N1P5&a=F5GN9&tp_a=F5GN9&b=3NGI5ARFTURE9X6DBJN8IY9S12N1P5&tp_b=3NGI5ARFTURE9X6DBJN8IY9S12N1P5&c=365799&tp_c=365799","heads":12,"tails":2,"studentIndex":20,"studentTrueHypers":{"a":1,"b":4},"studentGuess":0.6842105263157895,"delta":0.11578947368421055,"totalExamples":14,"bonus":0,"bonusSoFar":1.19},{"rt":11189,"response":{"heads":"10","tails":"5"},"type":"response","condition":"nonSeqFull","trueTheta":0.5,"classrooms":["C","D"],"studentTrueClassroom":"D","exampleSet":"first","trial_type":"survey-html-form","trial_index":171,"time_elapsed":2295707,"internal_node_id":"0.0-167.0-0.0","params":{"nStudents":24,"maxFlips":30,"completionMinutes":45,"basePay":8,"maxBonus":9,"perTrialBonus":0.5,"perTrialBonusThreshold":0.05,"exampleCost":0.01},"classroomParams":{"A":{"a":1,"b":4},"B":{"a":4,"b":1},"C":{"a":2,"b":8},"D":{"a":8,"b":2}},"conditions":["nonSeqFull","nonSeqPartial","seqNoFeedback","seqFeedback"],"classroomPairings":[["A","B"],["C","D"]],"coinWeights":[0.2,0.5,0.8],"subjectId":"AFU00NU09CFXE","assignmentId":"3NGI5ARFTURE9X6DBJN8IY9S12N1P5","hitId":"363A7XIFV48LMLIF2CKYA8VQSVQAVR","url":"https://gershmanlab.com/experiments/alicia/teaching/experiment/?hitId=363A7XIFV48LMLIF2CKYA8VQSVQAVR&workerId=AFU00NU09CFXE&assignmentId=3NGI5ARFTURE9X6DBJN8IY9S12N1P5&a=F5GN9&tp_a=F5GN9&b=3NGI5ARFTURE9X6DBJN8IY9S12N1P5&tp_b=3NGI5ARFTURE9X6DBJN8IY9S12N1P5&c=365799&tp_c=365799","heads":10,"tails":5,"studentIndex":21,"studentTrueHypers":{"a":8,"b":2},"studentGuess":0.72,"delta":0.21999999999999997,"totalExamples":15,"bonus":0,"bonusSoFar":1.19},{"rt":8744,"response":{"heads":"12","tails":"2"},"type":"response","condition":"seqFeedback","trueTheta":0.8,"classrooms":["C","D"],"studentTrueClassroom":"D","exampleSet":"first","trial_type":"survey-html-form","trial_index":177,"time_elapsed":2317033,"internal_node_id":"0.0-173.0-0.0","params":{"nStudents":24,"maxFlips":30,"completionMinutes":45,"basePay":8,"maxBonus":9,"perTrialBonus":0.5,"perTrialBonusThreshold":0.05,"exampleCost":0.01},"classroomParams":{"A":{"a":1,"b":4},"B":{"a":4,"b":1},"C":{"a":2,"b":8},"D":{"a":8,"b":2}},"conditions":["nonSeqFull","nonSeqPartial","seqNoFeedback","seqFeedback"],"classroomPairings":[["A","B"],["C","D"]],"coinWeights":[0.2,0.5,0.8],"subjectId":"AFU00NU09CFXE","assignmentId":"3NGI5ARFTURE9X6DBJN8IY9S12N1P5","hitId":"363A7XIFV48LMLIF2CKYA8VQSVQAVR","url":"https://gershmanlab.com/experiments/alicia/teaching/experiment/?hitId=363A7XIFV48LMLIF2CKYA8VQSVQAVR&workerId=AFU00NU09CFXE&assignmentId=3NGI5ARFTURE9X6DBJN8IY9S12N1P5&a=F5GN9&tp_a=F5GN9&b=3NGI5ARFTURE9X6DBJN8IY9S12N1P5&tp_b=3NGI5ARFTURE9X6DBJN8IY9S12N1P5&c=365799&tp_c=365799","heads":12,"tails":2,"studentIndex":22,"studentTrueHypers":{"a":8,"b":2},"studentGuess":0.8333333333333334,"delta":0.033333333333333326,"totalExamples":14,"bonusSoFar":1.19},{"rt":6041,"response":{"heads":"11","tails":"2"},"type":"response","condition":"seqFeedback","trueTheta":0.8,"classrooms":["C","D"],"studentTrueClassroom":"D","exampleSet":"second","trial_type":"survey-html-form","trial_index":181,"time_elapsed":2333343,"internal_node_id":"0.0-177.0-0.0","params":{"nStudents":24,"maxFlips":30,"completionMinutes":45,"basePay":8,"maxBonus":9,"perTrialBonus":0.5,"perTrialBonusThreshold":0.05,"exampleCost":0.01},"classroomParams":{"A":{"a":1,"b":4},"B":{"a":4,"b":1},"C":{"a":2,"b":8},"D":{"a":8,"b":2}},"conditions":["nonSeqFull","nonSeqPartial","seqNoFeedback","seqFeedback"],"classroomPairings":[["A","B"],["C","D"]],"coinWeights":[0.2,0.5,0.8],"subjectId":"AFU00NU09CFXE","assignmentId":"3NGI5ARFTURE9X6DBJN8IY9S12N1P5","hitId":"363A7XIFV48LMLIF2CKYA8VQSVQAVR","url":"https://gershmanlab.com/experiments/alicia/teaching/experiment/?hitId=363A7XIFV48LMLIF2CKYA8VQSVQAVR&workerId=AFU00NU09CFXE&assignmentId=3NGI5ARFTURE9X6DBJN8IY9S12N1P5&a=F5GN9&tp_a=F5GN9&b=3NGI5ARFTURE9X6DBJN8IY9S12N1P5&tp_b=3NGI5ARFTURE9X6DBJN8IY9S12N1P5&c=365799&tp_c=365799","firstResponseHeads":12,"firstResponseTails":2,"secondResponseHeads":11,"secondResponseTails":2,"totalHeads":23,"totalTails":4,"studentIndex":22,"studentTrueHypers":{"a":8,"b":2},"studentGuess":0.8378378378378378,"delta":0.037837837837837784,"bonus":0.23,"bonusSoFar":1.42,"totalExamples":27},{"rt":11411,"response":{"heads":"8","tails":"3"},"type":"response","condition":"seqNoFeedback","trueTheta":0.5,"classrooms":["C","D"],"studentTrueClassroom":"C","exampleSet":"first","trial_type":"survey-html-form","trial_index":187,"time_elapsed":2361529,"internal_node_id":"0.0-183.0-0.0","params":{"nStudents":24,"maxFlips":30,"completionMinutes":45,"basePay":8,"maxBonus":9,"perTrialBonus":0.5,"perTrialBonusThreshold":0.05,"exampleCost":0.01},"classroomParams":{"A":{"a":1,"b":4},"B":{"a":4,"b":1},"C":{"a":2,"b":8},"D":{"a":8,"b":2}},"conditions":["nonSeqFull","nonSeqPartial","seqNoFeedback","seqFeedback"],"classroomPairings":[["A","B"],["C","D"]],"coinWeights":[0.2,0.5,0.8],"subjectId":"AFU00NU09CFXE","assignmentId":"3NGI5ARFTURE9X6DBJN8IY9S12N1P5","hitId":"363A7XIFV48LMLIF2CKYA8VQSVQAVR","url":"https://gershmanlab.com/experiments/alicia/teaching/experiment/?hitId=363A7XIFV48LMLIF2CKYA8VQSVQAVR&workerId=AFU00NU09CFXE&assignmentId=3NGI5ARFTURE9X6DBJN8IY9S12N1P5&a=F5GN9&tp_a=F5GN9&b=3NGI5ARFTURE9X6DBJN8IY9S12N1P5&tp_b=3NGI5ARFTURE9X6DBJN8IY9S12N1P5&c=365799&tp_c=365799","heads":8,"tails":3,"studentIndex":23,"studentTrueHypers":{"a":2,"b":8},"studentGuess":0.47619047619047616,"delta":0.023809523809523836,"totalExamples":11,"bonusSoFar":1.42},{"rt":13316,"response":{"heads":"14","tails":"4"},"type":"response","condition":"seqNoFeedback","trueTheta":0.5,"classrooms":["C","D"],"studentTrueClassroom":"C","exampleSet":"second","trial_type":"survey-html-form","trial_index":190,"time_elapsed":2382859,"internal_node_id":"0.0-186.0-0.0","params":{"nStudents":24,"maxFlips":30,"completionMinutes":45,"basePay":8,"maxBonus":9,"perTrialBonus":0.5,"perTrialBonusThreshold":0.05,"exampleCost":0.01},"classroomParams":{"A":{"a":1,"b":4},"B":{"a":4,"b":1},"C":{"a":2,"b":8},"D":{"a":8,"b":2}},"conditions":["nonSeqFull","nonSeqPartial","seqNoFeedback","seqFeedback"],"classroomPairings":[["A","B"],["C","D"]],"coinWeights":[0.2,0.5,0.8],"subjectId":"AFU00NU09CFXE","assignmentId":"3NGI5ARFTURE9X6DBJN8IY9S12N1P5","hitId":"363A7XIFV48LMLIF2CKYA8VQSVQAVR","url":"https://gershmanlab.com/experiments/alicia/teaching/experiment/?hitId=363A7XIFV48LMLIF2CKYA8VQSVQAVR&workerId=AFU00NU09CFXE&assignmentId=3NGI5ARFTURE9X6DBJN8IY9S12N1P5&a=F5GN9&tp_a=F5GN9&b=3NGI5ARFTURE9X6DBJN8IY9S12N1P5&tp_b=3NGI5ARFTURE9X6DBJN8IY9S12N1P5&c=365799&tp_c=365799","firstResponseHeads":8,"firstResponseTails":3,"secondResponseHeads":14,"secondResponseTails":4,"totalHeads":22,"totalTails":7,"studentIndex":23,"studentTrueHypers":{"a":2,"b":8},"studentGuess":0.6153846153846154,"delta":0.11538461538461542,"bonus":0,"bonusSoFar":1.42,"totalExamples":29},{"rt":63530,"response":{"gender":"female","age":"48","understood":"yes","comments":"I thought I understood the instructions completely. However, actual examples would have been helpful. I had no idea how to figure out how to do the math to figure out what ratios to give the students. This was an incredibly frustrating survey for me. I really tried, but ended up doing horribly. "},"type":"response","trial_type":"survey-html-form","trial_index":194,"time_elapsed":2454406,"internal_node_id":"0.0-191.0","params":{"nStudents":24,"maxFlips":30,"completionMinutes":45,"basePay":8,"maxBonus":9,"perTrialBonus":0.5,"perTrialBonusThreshold":0.05,"exampleCost":0.01},"classroomParams":{"A":{"a":1,"b":4},"B":{"a":4,"b":1},"C":{"a":2,"b":8},"D":{"a":8,"b":2}},"conditions":["nonSeqFull","nonSeqPartial","seqNoFeedback","seqFeedback"],"classroomPairings":[["A","B"],["C","D"]],"coinWeights":[0.2,0.5,0.8],"subjectId":"AFU00NU09CFXE","assignmentId":"3NGI5ARFTURE9X6DBJN8IY9S12N1P5","hitId":"363A7XIFV48LMLIF2CKYA8VQSVQAVR","url":"https://gershmanlab.com/experiments/alicia/teaching/experiment/?hitId=363A7XIFV48LMLIF2CKYA8VQSVQAVR&workerId=AFU00NU09CFXE&assignmentId=3NGI5ARFTURE9X6DBJN8IY9S12N1P5&a=F5GN9&tp_a=F5GN9&b=3NGI5ARFTURE9X6DBJN8IY9S12N1P5&tp_b=3NGI5ARFTURE9X6DBJN8IY9S12N1P5&c=365799&tp_c=365799","totalBonus":1.42}]