[{"rt":43784,"response":{"heads":"1","tails":"1"},"type":"response","condition":"nonSeqPartial","trueTheta":0.5,"classrooms":["A","B"],"studentTrueClassroom":"B","exampleSet":"first","trial_type":"survey-html-form","trial_index":7,"time_elapsed":956816,"internal_node_id":"0.0-6.0-0.0","params":{"nStudents":24,"maxFlips":30,"completionMinutes":45,"basePay":8,"maxBonus":9,"perTrialBonus":0.5,"perTrialBonusThreshold":0.05,"exampleCost":0.01},"classroomParams":{"A":{"a":1,"b":4},"B":{"a":4,"b":1},"C":{"a":2,"b":8},"D":{"a":8,"b":2}},"conditions":["nonSeqFull","nonSeqPartial","seqNoFeedback","seqFeedback"],"classroomPairings":[["A","B"],["C","D"]],"coinWeights":[0.2,0.5,0.8],"subjectId":"AGILQEFEPEK7N","assignmentId":"33L7PJKHCHKUCPJ5RL572IXX4AT8TE","hitId":"34KYK9TV2RUAD363EVFPUWVPB97SBP","url":"https://gershmanlab.com/experiments/alicia/teaching/experiment/?hitId=34KYK9TV2RUAD363EVFPUWVPB97SBP&workerId=AGILQEFEPEK7N&assignmentId=33L7PJKHCHKUCPJ5RL572IXX4AT8TE&a=HPL37&tp_a=HPL37&b=33L7PJKHCHKUCPJ5RL572IXX4AT8TE&tp_b=33L7PJKHCHKUCPJ5RL572IXX4AT8TE&c=365717&tp_c=365717","heads":1,"tails":1,"studentIndex":0,"studentTrueHypers":{"a":4,"b":1},"studentGuess":0.7142857142857143,"delta":0.2142857142857143,"totalExamples":2,"bonus":0,"bonusSoFar":0},{"rt":25844,"response":{"heads":"2","tails":"8"},"type":"response","condition":"seqNoFeedback","trueTheta":0.2,"classrooms":["C","D"],"studentTrueClassroom":"D","exampleSet":"first","trial_type":"survey-html-form","trial_index":13,"time_elapsed":1010668,"internal_node_id":"0.0-12.0-0.0","params":{"nStudents":24,"maxFlips":30,"completionMinutes":45,"basePay":8,"maxBonus":9,"perTrialBonus":0.5,"perTrialBonusThreshold":0.05,"exampleCost":0.01},"classroomParams":{"A":{"a":1,"b":4},"B":{"a":4,"b":1},"C":{"a":2,"b":8},"D":{"a":8,"b":2}},"conditions":["nonSeqFull","nonSeqPartial","seqNoFeedback","seqFeedback"],"classroomPairings":[["A","B"],["C","D"]],"coinWeights":[0.2,0.5,0.8],"subjectId":"AGILQEFEPEK7N","assignmentId":"33L7PJKHCHKUCPJ5RL572IXX4AT8TE","hitId":"34KYK9TV2RUAD363EVFPUWVPB97SBP","url":"https://gershmanlab.com/experiments/alicia/teaching/experiment/?hitId=34KYK9TV2RUAD363EVFPUWVPB97SBP&workerId=AGILQEFEPEK7N&assignmentId=33L7PJKHCHKUCPJ5RL572IXX4AT8TE&a=HPL37&tp_a=HPL37&b=33L7PJKHCHKUCPJ5RL572IXX4AT8TE&tp_b=33L7PJKHCHKUCPJ5RL572IXX4AT8TE&c=365717&tp_c=365717","heads":2,"tails":8,"studentIndex":1,"studentTrueHypers":{"a":8,"b":2},"studentGuess":0.5,"delta":0.3,"totalExamples":10,"bonusSoFar":0},{"rt":19892,"response":{"heads":"2","tails":"8"},"type":"response","condition":"seqNoFeedback","trueTheta":0.2,"classrooms":["C","D"],"studentTrueClassroom":"D","exampleSet":"second","trial_type":"survey-html-form","trial_index":16,"time_elapsed":1036326,"internal_node_id":"0.0-15.0-0.0","params":{"nStudents":24,"maxFlips":30,"completionMinutes":45,"basePay":8,"maxBonus":9,"perTrialBonus":0.5,"perTrialBonusThreshold":0.05,"exampleCost":0.01},"classroomParams":{"A":{"a":1,"b":4},"B":{"a":4,"b":1},"C":{"a":2,"b":8},"D":{"a":8,"b":2}},"conditions":["nonSeqFull","nonSeqPartial","seqNoFeedback","seqFeedback"],"classroomPairings":[["A","B"],["C","D"]],"coinWeights":[0.2,0.5,0.8],"subjectId":"AGILQEFEPEK7N","assignmentId":"33L7PJKHCHKUCPJ5RL572IXX4AT8TE","hitId":"34KYK9TV2RUAD363EVFPUWVPB97SBP","url":"https://gershmanlab.com/experiments/alicia/teaching/experiment/?hitId=34KYK9TV2RUAD363EVFPUWVPB97SBP&workerId=AGILQEFEPEK7N&assignmentId=33L7PJKHCHKUCPJ5RL572IXX4AT8TE&a=HPL37&tp_a=HPL37&b=33L7PJKHCHKUCPJ5RL572IXX4AT8TE&tp_b=33L7PJKHCHKUCPJ5RL572IXX4AT8TE&c=365717&tp_c=365717","firstResponseHeads":2,"firstResponseTails":8,"secondResponseHeads":2,"secondResponseTails":8,"totalHeads":4,"totalTails":16,"studentIndex":1,"studentTrueHypers":{"a":8,"b":2},"studentGuess":0.4,"delta":0.2,"bonus":0,"bonusSoFar":0,"totalExamples":20},{"rt":18620,"response":{"heads":"8","tails":"2"},"type":"response","condition":"nonSeqPartial","trueTheta":0.8,"classrooms":["C","D"],"studentTrueClassroom":"D","exampleSet":"first","trial_type":"survey-html-form","trial_index":22,"time_elapsed":1081243,"internal_node_id":"0.0-21.0-0.0","params":{"nStudents":24,"maxFlips":30,"completionMinutes":45,"basePay":8,"maxBonus":9,"perTrialBonus":0.5,"perTrialBonusThreshold":0.05,"exampleCost":0.01},"classroomParams":{"A":{"a":1,"b":4},"B":{"a":4,"b":1},"C":{"a":2,"b":8},"D":{"a":8,"b":2}},"conditions":["nonSeqFull","nonSeqPartial","seqNoFeedback","seqFeedback"],"classroomPairings":[["A","B"],["C","D"]],"coinWeights":[0.2,0.5,0.8],"subjectId":"AGILQEFEPEK7N","assignmentId":"33L7PJKHCHKUCPJ5RL572IXX4AT8TE","hitId":"34KYK9TV2RUAD363EVFPUWVPB97SBP","url":"https://gershmanlab.com/experiments/alicia/teaching/experiment/?hitId=34KYK9TV2RUAD363EVFPUWVPB97SBP&workerId=AGILQEFEPEK7N&assignmentId=33L7PJKHCHKUCPJ5RL572IXX4AT8TE&a=HPL37&tp_a=HPL37&b=33L7PJKHCHKUCPJ5RL572IXX4AT8TE&tp_b=33L7PJKHCHKUCPJ5RL572IXX4AT8TE&c=365717&tp_c=365717","heads":8,"tails":2,"studentIndex":2,"studentTrueHypers":{"a":8,"b":2},"studentGuess":0.8,"delta":0,"totalExamples":10,"bonus":0.4,"bonusSoFar":0.4},{"rt":11136,"response":{"heads":"2","tails":"8"},"type":"response","condition":"nonSeqFull","trueTheta":0.2,"classrooms":["A","B"],"studentTrueClassroom":"B","exampleSet":"first","trial_type":"survey-html-form","trial_index":28,"time_elapsed":1122231,"internal_node_id":"0.0-27.0-0.0","params":{"nStudents":24,"maxFlips":30,"completionMinutes":45,"basePay":8,"maxBonus":9,"perTrialBonus":0.5,"perTrialBonusThreshold":0.05,"exampleCost":0.01},"classroomParams":{"A":{"a":1,"b":4},"B":{"a":4,"b":1},"C":{"a":2,"b":8},"D":{"a":8,"b":2}},"conditions":["nonSeqFull","nonSeqPartial","seqNoFeedback","seqFeedback"],"classroomPairings":[["A","B"],["C","D"]],"coinWeights":[0.2,0.5,0.8],"subjectId":"AGILQEFEPEK7N","assignmentId":"33L7PJKHCHKUCPJ5RL572IXX4AT8TE","hitId":"34KYK9TV2RUAD363EVFPUWVPB97SBP","url":"https://gershmanlab.com/experiments/alicia/teaching/experiment/?hitId=34KYK9TV2RUAD363EVFPUWVPB97SBP&workerId=AGILQEFEPEK7N&assignmentId=33L7PJKHCHKUCPJ5RL572IXX4AT8TE&a=HPL37&tp_a=HPL37&b=33L7PJKHCHKUCPJ5RL572IXX4AT8TE&tp_b=33L7PJKHCHKUCPJ5RL572IXX4AT8TE&c=365717&tp_c=365717","heads":2,"tails":8,"studentIndex":3,"studentTrueHypers":{"a":4,"b":1},"studentGuess":0.4,"delta":0.2,"totalExamples":10,"bonus":0,"bonusSoFar":0.4},{"rt":17482,"response":{"heads":"4","tails":"1"},"type":"response","condition":"nonSeqFull","trueTheta":0.5,"classrooms":["A","B"],"studentTrueClassroom":"A","exampleSet":"first","trial_type":"survey-html-form","trial_index":34,"time_elapsed":1155667,"internal_node_id":"0.0-33.0-0.0","params":{"nStudents":24,"maxFlips":30,"completionMinutes":45,"basePay":8,"maxBonus":9,"perTrialBonus":0.5,"perTrialBonusThreshold":0.05,"exampleCost":0.01},"classroomParams":{"A":{"a":1,"b":4},"B":{"a":4,"b":1},"C":{"a":2,"b":8},"D":{"a":8,"b":2}},"conditions":["nonSeqFull","nonSeqPartial","seqNoFeedback","seqFeedback"],"classroomPairings":[["A","B"],["C","D"]],"coinWeights":[0.2,0.5,0.8],"subjectId":"AGILQEFEPEK7N","assignmentId":"33L7PJKHCHKUCPJ5RL572IXX4AT8TE","hitId":"34KYK9TV2RUAD363EVFPUWVPB97SBP","url":"https://gershmanlab.com/experiments/alicia/teaching/experiment/?hitId=34KYK9TV2RUAD363EVFPUWVPB97SBP&workerId=AGILQEFEPEK7N&assignmentId=33L7PJKHCHKUCPJ5RL572IXX4AT8TE&a=HPL37&tp_a=HPL37&b=33L7PJKHCHKUCPJ5RL572IXX4AT8TE&tp_b=33L7PJKHCHKUCPJ5RL572IXX4AT8TE&c=365717&tp_c=365717","heads":4,"tails":1,"studentIndex":4,"studentTrueHypers":{"a":1,"b":4},"studentGuess":0.5,"delta":0,"totalExamples":5,"bonus":0.45,"bonusSoFar":0.85},{"rt":16837,"response":{"heads":"2","tails":"1"},"type":"response","condition":"nonSeqFull","trueTheta":0.8,"classrooms":["A","B"],"studentTrueClassroom":"B","exampleSet":"first","trial_type":"survey-html-form","trial_index":40,"time_elapsed":1186394,"internal_node_id":"0.0-39.0-0.0","params":{"nStudents":24,"maxFlips":30,"completionMinutes":45,"basePay":8,"maxBonus":9,"perTrialBonus":0.5,"perTrialBonusThreshold":0.05,"exampleCost":0.01},"classroomParams":{"A":{"a":1,"b":4},"B":{"a":4,"b":1},"C":{"a":2,"b":8},"D":{"a":8,"b":2}},"conditions":["nonSeqFull","nonSeqPartial","seqNoFeedback","seqFeedback"],"classroomPairings":[["A","B"],["C","D"]],"coinWeights":[0.2,0.5,0.8],"subjectId":"AGILQEFEPEK7N","assignmentId":"33L7PJKHCHKUCPJ5RL572IXX4AT8TE","hitId":"34KYK9TV2RUAD363EVFPUWVPB97SBP","url":"https://gershmanlab.com/experiments/alicia/teaching/experiment/?hitId=34KYK9TV2RUAD363EVFPUWVPB97SBP&workerId=AGILQEFEPEK7N&assignmentId=33L7PJKHCHKUCPJ5RL572IXX4AT8TE&a=HPL37&tp_a=HPL37&b=33L7PJKHCHKUCPJ5RL572IXX4AT8TE&tp_b=33L7PJKHCHKUCPJ5RL572IXX4AT8TE&c=365717&tp_c=365717","heads":2,"tails":1,"studentIndex":5,"studentTrueHypers":{"a":4,"b":1},"studentGuess":0.75,"delta":0.050000000000000044,"totalExamples":3,"bonus":0,"bonusSoFar":0.85},{"rt":25867,"response":{"heads":"3","tails":"3"},"type":"response","condition":"seqFeedback","trueTheta":0.5,"classrooms":["C","D"],"studentTrueClassroom":"C","exampleSet":"first","trial_type":"survey-html-form","trial_index":46,"time_elapsed":1234277,"internal_node_id":"0.0-45.0-0.0","params":{"nStudents":24,"maxFlips":30,"completionMinutes":45,"basePay":8,"maxBonus":9,"perTrialBonus":0.5,"perTrialBonusThreshold":0.05,"exampleCost":0.01},"classroomParams":{"A":{"a":1,"b":4},"B":{"a":4,"b":1},"C":{"a":2,"b":8},"D":{"a":8,"b":2}},"conditions":["nonSeqFull","nonSeqPartial","seqNoFeedback","seqFeedback"],"classroomPairings":[["A","B"],["C","D"]],"coinWeights":[0.2,0.5,0.8],"subjectId":"AGILQEFEPEK7N","assignmentId":"33L7PJKHCHKUCPJ5RL572IXX4AT8TE","hitId":"34KYK9TV2RUAD363EVFPUWVPB97SBP","url":"https://gershmanlab.com/experiments/alicia/teaching/experiment/?hitId=34KYK9TV2RUAD363EVFPUWVPB97SBP&workerId=AGILQEFEPEK7N&assignmentId=33L7PJKHCHKUCPJ5RL572IXX4AT8TE&a=HPL37&tp_a=HPL37&b=33L7PJKHCHKUCPJ5RL572IXX4AT8TE&tp_b=33L7PJKHCHKUCPJ5RL572IXX4AT8TE&c=365717&tp_c=365717","heads":3,"tails":3,"studentIndex":6,"studentTrueHypers":{"a":2,"b":8},"studentGuess":0.3125,"delta":0.1875,"totalExamples":6,"bonusSoFar":0.85},{"rt":11509,"response":{"heads":"6","tails":"3"},"type":"response","condition":"seqFeedback","trueTheta":0.5,"classrooms":["C","D"],"studentTrueClassroom":"C","exampleSet":"second","trial_type":"survey-html-form","trial_index":50,"time_elapsed":1261530,"internal_node_id":"0.0-49.0-0.0","params":{"nStudents":24,"maxFlips":30,"completionMinutes":45,"basePay":8,"maxBonus":9,"perTrialBonus":0.5,"perTrialBonusThreshold":0.05,"exampleCost":0.01},"classroomParams":{"A":{"a":1,"b":4},"B":{"a":4,"b":1},"C":{"a":2,"b":8},"D":{"a":8,"b":2}},"conditions":["nonSeqFull","nonSeqPartial","seqNoFeedback","seqFeedback"],"classroomPairings":[["A","B"],["C","D"]],"coinWeights":[0.2,0.5,0.8],"subjectId":"AGILQEFEPEK7N","assignmentId":"33L7PJKHCHKUCPJ5RL572IXX4AT8TE","hitId":"34KYK9TV2RUAD363EVFPUWVPB97SBP","url":"https://gershmanlab.com/experiments/alicia/teaching/experiment/?hitId=34KYK9TV2RUAD363EVFPUWVPB97SBP&workerId=AGILQEFEPEK7N&assignmentId=33L7PJKHCHKUCPJ5RL572IXX4AT8TE&a=HPL37&tp_a=HPL37&b=33L7PJKHCHKUCPJ5RL572IXX4AT8TE&tp_b=33L7PJKHCHKUCPJ5RL572IXX4AT8TE&c=365717&tp_c=365717","firstResponseHeads":3,"firstResponseTails":3,"secondResponseHeads":6,"secondResponseTails":3,"totalHeads":9,"totalTails":6,"studentIndex":6,"studentTrueHypers":{"a":2,"b":8},"studentGuess":0.44,"delta":0.06,"bonus":0,"bonusSoFar":0.85,"totalExamples":15},{"rt":17017,"response":{"heads":"2","tails":"12"},"type":"response","condition":"nonSeqPartial","trueTheta":0.2,"classrooms":["C","D"],"studentTrueClassroom":"D","exampleSet":"first","trial_type":"survey-html-form","trial_index":56,"time_elapsed":1299999,"internal_node_id":"0.0-55.0-0.0","params":{"nStudents":24,"maxFlips":30,"completionMinutes":45,"basePay":8,"maxBonus":9,"perTrialBonus":0.5,"perTrialBonusThreshold":0.05,"exampleCost":0.01},"classroomParams":{"A":{"a":1,"b":4},"B":{"a":4,"b":1},"C":{"a":2,"b":8},"D":{"a":8,"b":2}},"conditions":["nonSeqFull","nonSeqPartial","seqNoFeedback","seqFeedback"],"classroomPairings":[["A","B"],["C","D"]],"coinWeights":[0.2,0.5,0.8],"subjectId":"AGILQEFEPEK7N","assignmentId":"33L7PJKHCHKUCPJ5RL572IXX4AT8TE","hitId":"34KYK9TV2RUAD363EVFPUWVPB97SBP","url":"https://gershmanlab.com/experiments/alicia/teaching/experiment/?hitId=34KYK9TV2RUAD363EVFPUWVPB97SBP&workerId=AGILQEFEPEK7N&assignmentId=33L7PJKHCHKUCPJ5RL572IXX4AT8TE&a=HPL37&tp_a=HPL37&b=33L7PJKHCHKUCPJ5RL572IXX4AT8TE&tp_b=33L7PJKHCHKUCPJ5RL572IXX4AT8TE&c=365717&tp_c=365717","heads":2,"tails":12,"studentIndex":7,"studentTrueHypers":{"a":8,"b":2},"studentGuess":0.4166666666666667,"delta":0.21666666666666667,"totalExamples":14,"bonus":0,"bonusSoFar":0.85},{"rt":10768,"response":{"heads":"15","tails":"2"},"type":"response","condition":"seqFeedback","trueTheta":0.8,"classrooms":["A","B"],"studentTrueClassroom":"B","exampleSet":"first","trial_type":"survey-html-form","trial_index":62,"time_elapsed":1324231,"internal_node_id":"0.0-61.0-0.0","params":{"nStudents":24,"maxFlips":30,"completionMinutes":45,"basePay":8,"maxBonus":9,"perTrialBonus":0.5,"perTrialBonusThreshold":0.05,"exampleCost":0.01},"classroomParams":{"A":{"a":1,"b":4},"B":{"a":4,"b":1},"C":{"a":2,"b":8},"D":{"a":8,"b":2}},"conditions":["nonSeqFull","nonSeqPartial","seqNoFeedback","seqFeedback"],"classroomPairings":[["A","B"],["C","D"]],"coinWeights":[0.2,0.5,0.8],"subjectId":"AGILQEFEPEK7N","assignmentId":"33L7PJKHCHKUCPJ5RL572IXX4AT8TE","hitId":"34KYK9TV2RUAD363EVFPUWVPB97SBP","url":"https://gershmanlab.com/experiments/alicia/teaching/experiment/?hitId=34KYK9TV2RUAD363EVFPUWVPB97SBP&workerId=AGILQEFEPEK7N&assignmentId=33L7PJKHCHKUCPJ5RL572IXX4AT8TE&a=HPL37&tp_a=HPL37&b=33L7PJKHCHKUCPJ5RL572IXX4AT8TE&tp_b=33L7PJKHCHKUCPJ5RL572IXX4AT8TE&c=365717&tp_c=365717","heads":15,"tails":2,"studentIndex":8,"studentTrueHypers":{"a":4,"b":1},"studentGuess":0.8636363636363636,"delta":0.0636363636363636,"totalExamples":17,"bonusSoFar":0.85},{"rt":10690,"response":{"heads":"15","tails":"1"},"type":"response","condition":"seqFeedback","trueTheta":0.8,"classrooms":["A","B"],"studentTrueClassroom":"B","exampleSet":"second","trial_type":"survey-html-form","trial_index":66,"time_elapsed":1344991,"internal_node_id":"0.0-65.0-0.0","params":{"nStudents":24,"maxFlips":30,"completionMinutes":45,"basePay":8,"maxBonus":9,"perTrialBonus":0.5,"perTrialBonusThreshold":0.05,"exampleCost":0.01},"classroomParams":{"A":{"a":1,"b":4},"B":{"a":4,"b":1},"C":{"a":2,"b":8},"D":{"a":8,"b":2}},"conditions":["nonSeqFull","nonSeqPartial","seqNoFeedback","seqFeedback"],"classroomPairings":[["A","B"],["C","D"]],"coinWeights":[0.2,0.5,0.8],"subjectId":"AGILQEFEPEK7N","assignmentId":"33L7PJKHCHKUCPJ5RL572IXX4AT8TE","hitId":"34KYK9TV2RUAD363EVFPUWVPB97SBP","url":"https://gershmanlab.com/experiments/alicia/teaching/experiment/?hitId=34KYK9TV2RUAD363EVFPUWVPB97SBP&workerId=AGILQEFEPEK7N&assignmentId=33L7PJKHCHKUCPJ5RL572IXX4AT8TE&a=HPL37&tp_a=HPL37&b=33L7PJKHCHKUCPJ5RL572IXX4AT8TE&tp_b=33L7PJKHCHKUCPJ5RL572IXX4AT8TE&c=365717&tp_c=365717","firstResponseHeads":15,"firstResponseTails":2,"secondResponseHeads":15,"secondResponseTails":1,"totalHeads":30,"totalTails":3,"studentIndex":8,"studentTrueHypers":{"a":4,"b":1},"studentGuess":0.8947368421052632,"delta":0.09473684210526312,"bonus":0,"bonusSoFar":0.85,"totalExamples":33},{"rt":8977,"response":{"heads":"15","tails":"1"},"type":"response","condition":"nonSeqPartial","trueTheta":0.8,"classrooms":["A","B"],"studentTrueClassroom":"A","exampleSet":"first","trial_type":"survey-html-form","trial_index":72,"time_elapsed":1375599,"internal_node_id":"0.0-71.0-0.0","params":{"nStudents":24,"maxFlips":30,"completionMinutes":45,"basePay":8,"maxBonus":9,"perTrialBonus":0.5,"perTrialBonusThreshold":0.05,"exampleCost":0.01},"classroomParams":{"A":{"a":1,"b":4},"B":{"a":4,"b":1},"C":{"a":2,"b":8},"D":{"a":8,"b":2}},"conditions":["nonSeqFull","nonSeqPartial","seqNoFeedback","seqFeedback"],"classroomPairings":[["A","B"],["C","D"]],"coinWeights":[0.2,0.5,0.8],"subjectId":"AGILQEFEPEK7N","assignmentId":"33L7PJKHCHKUCPJ5RL572IXX4AT8TE","hitId":"34KYK9TV2RUAD363EVFPUWVPB97SBP","url":"https://gershmanlab.com/experiments/alicia/teaching/experiment/?hitId=34KYK9TV2RUAD363EVFPUWVPB97SBP&workerId=AGILQEFEPEK7N&assignmentId=33L7PJKHCHKUCPJ5RL572IXX4AT8TE&a=HPL37&tp_a=HPL37&b=33L7PJKHCHKUCPJ5RL572IXX4AT8TE&tp_b=33L7PJKHCHKUCPJ5RL572IXX4AT8TE&c=365717&tp_c=365717","heads":15,"tails":1,"studentIndex":9,"studentTrueHypers":{"a":1,"b":4},"studentGuess":0.7619047619047619,"delta":0.03809523809523818,"totalExamples":16,"bonus":0.34,"bonusSoFar":1.19},{"rt":7042,"response":{"heads":"15","tails":"1"},"type":"response","condition":"nonSeqFull","trueTheta":0.8,"classrooms":["C","D"],"studentTrueClassroom":"C","exampleSet":"first","trial_type":"survey-html-form","trial_index":78,"time_elapsed":1399823,"internal_node_id":"0.0-77.0-0.0","params":{"nStudents":24,"maxFlips":30,"completionMinutes":45,"basePay":8,"maxBonus":9,"perTrialBonus":0.5,"perTrialBonusThreshold":0.05,"exampleCost":0.01},"classroomParams":{"A":{"a":1,"b":4},"B":{"a":4,"b":1},"C":{"a":2,"b":8},"D":{"a":8,"b":2}},"conditions":["nonSeqFull","nonSeqPartial","seqNoFeedback","seqFeedback"],"classroomPairings":[["A","B"],["C","D"]],"coinWeights":[0.2,0.5,0.8],"subjectId":"AGILQEFEPEK7N","assignmentId":"33L7PJKHCHKUCPJ5RL572IXX4AT8TE","hitId":"34KYK9TV2RUAD363EVFPUWVPB97SBP","url":"https://gershmanlab.com/experiments/alicia/teaching/experiment/?hitId=34KYK9TV2RUAD363EVFPUWVPB97SBP&workerId=AGILQEFEPEK7N&assignmentId=33L7PJKHCHKUCPJ5RL572IXX4AT8TE&a=HPL37&tp_a=HPL37&b=33L7PJKHCHKUCPJ5RL572IXX4AT8TE&tp_b=33L7PJKHCHKUCPJ5RL572IXX4AT8TE&c=365717&tp_c=365717","heads":15,"tails":1,"studentIndex":10,"studentTrueHypers":{"a":2,"b":8},"studentGuess":0.6538461538461539,"delta":0.1461538461538462,"totalExamples":16,"bonus":0,"bonusSoFar":1.19},{"rt":10762,"response":{"heads":"10","tails":"10"},"type":"response","condition":"seqFeedback","trueTheta":0.5,"classrooms":["A","B"],"studentTrueClassroom":"A","exampleSet":"first","trial_type":"survey-html-form","trial_index":84,"time_elapsed":1423435,"internal_node_id":"0.0-83.0-0.0","params":{"nStudents":24,"maxFlips":30,"completionMinutes":45,"basePay":8,"maxBonus":9,"perTrialBonus":0.5,"perTrialBonusThreshold":0.05,"exampleCost":0.01},"classroomParams":{"A":{"a":1,"b":4},"B":{"a":4,"b":1},"C":{"a":2,"b":8},"D":{"a":8,"b":2}},"conditions":["nonSeqFull","nonSeqPartial","seqNoFeedback","seqFeedback"],"classroomPairings":[["A","B"],["C","D"]],"coinWeights":[0.2,0.5,0.8],"subjectId":"AGILQEFEPEK7N","assignmentId":"33L7PJKHCHKUCPJ5RL572IXX4AT8TE","hitId":"34KYK9TV2RUAD363EVFPUWVPB97SBP","url":"https://gershmanlab.com/experiments/alicia/teaching/experiment/?hitId=34KYK9TV2RUAD363EVFPUWVPB97SBP&workerId=AGILQEFEPEK7N&assignmentId=33L7PJKHCHKUCPJ5RL572IXX4AT8TE&a=HPL37&tp_a=HPL37&b=33L7PJKHCHKUCPJ5RL572IXX4AT8TE&tp_b=33L7PJKHCHKUCPJ5RL572IXX4AT8TE&c=365717&tp_c=365717","heads":10,"tails":10,"studentIndex":11,"studentTrueHypers":{"a":1,"b":4},"studentGuess":0.44,"delta":0.06,"totalExamples":20,"bonusSoFar":1.19},{"rt":8740,"response":{"heads":"15","tails":"10"},"type":"response","condition":"seqFeedback","trueTheta":0.5,"classrooms":["A","B"],"studentTrueClassroom":"A","exampleSet":"second","trial_type":"survey-html-form","trial_index":88,"time_elapsed":1441772,"internal_node_id":"0.0-87.0-0.0","params":{"nStudents":24,"maxFlips":30,"completionMinutes":45,"basePay":8,"maxBonus":9,"perTrialBonus":0.5,"perTrialBonusThreshold":0.05,"exampleCost":0.01},"classroomParams":{"A":{"a":1,"b":4},"B":{"a":4,"b":1},"C":{"a":2,"b":8},"D":{"a":8,"b":2}},"conditions":["nonSeqFull","nonSeqPartial","seqNoFeedback","seqFeedback"],"classroomPairings":[["A","B"],["C","D"]],"coinWeights":[0.2,0.5,0.8],"subjectId":"AGILQEFEPEK7N","assignmentId":"33L7PJKHCHKUCPJ5RL572IXX4AT8TE","hitId":"34KYK9TV2RUAD363EVFPUWVPB97SBP","url":"https://gershmanlab.com/experiments/alicia/teaching/experiment/?hitId=34KYK9TV2RUAD363EVFPUWVPB97SBP&workerId=AGILQEFEPEK7N&assignmentId=33L7PJKHCHKUCPJ5RL572IXX4AT8TE&a=HPL37&tp_a=HPL37&b=33L7PJKHCHKUCPJ5RL572IXX4AT8TE&tp_b=33L7PJKHCHKUCPJ5RL572IXX4AT8TE&c=365717&tp_c=365717","firstResponseHeads":10,"firstResponseTails":10,"secondResponseHeads":15,"secondResponseTails":10,"totalHeads":25,"totalTails":20,"studentIndex":11,"studentTrueHypers":{"a":1,"b":4},"studentGuess":0.52,"delta":0.020000000000000018,"bonus":0.05,"bonusSoFar":1.24,"totalExamples":45},{"rt":14902,"response":{"heads":"1","tails":"16"},"type":"response","condition":"nonSeqFull","trueTheta":0.2,"classrooms":["C","D"],"studentTrueClassroom":"C","exampleSet":"first","trial_type":"survey-html-form","trial_index":94,"time_elapsed":1470574,"internal_node_id":"0.0-93.0-0.0","params":{"nStudents":24,"maxFlips":30,"completionMinutes":45,"basePay":8,"maxBonus":9,"perTrialBonus":0.5,"perTrialBonusThreshold":0.05,"exampleCost":0.01},"classroomParams":{"A":{"a":1,"b":4},"B":{"a":4,"b":1},"C":{"a":2,"b":8},"D":{"a":8,"b":2}},"conditions":["nonSeqFull","nonSeqPartial","seqNoFeedback","seqFeedback"],"classroomPairings":[["A","B"],["C","D"]],"coinWeights":[0.2,0.5,0.8],"subjectId":"AGILQEFEPEK7N","assignmentId":"33L7PJKHCHKUCPJ5RL572IXX4AT8TE","hitId":"34KYK9TV2RUAD363EVFPUWVPB97SBP","url":"https://gershmanlab.com/experiments/alicia/teaching/experiment/?hitId=34KYK9TV2RUAD363EVFPUWVPB97SBP&workerId=AGILQEFEPEK7N&assignmentId=33L7PJKHCHKUCPJ5RL572IXX4AT8TE&a=HPL37&tp_a=HPL37&b=33L7PJKHCHKUCPJ5RL572IXX4AT8TE&tp_b=33L7PJKHCHKUCPJ5RL572IXX4AT8TE&c=365717&tp_c=365717","heads":1,"tails":16,"studentIndex":12,"studentTrueHypers":{"a":2,"b":8},"studentGuess":0.1111111111111111,"delta":0.0888888888888889,"totalExamples":17,"bonus":0,"bonusSoFar":1.24},{"rt":11533,"response":{"heads":"20","tails":"3"},"type":"response","condition":"seqNoFeedback","trueTheta":0.8,"classrooms":["A","B"],"studentTrueClassroom":"B","exampleSet":"first","trial_type":"survey-html-form","trial_index":100,"time_elapsed":1495667,"internal_node_id":"0.0-99.0-0.0","params":{"nStudents":24,"maxFlips":30,"completionMinutes":45,"basePay":8,"maxBonus":9,"perTrialBonus":0.5,"perTrialBonusThreshold":0.05,"exampleCost":0.01},"classroomParams":{"A":{"a":1,"b":4},"B":{"a":4,"b":1},"C":{"a":2,"b":8},"D":{"a":8,"b":2}},"conditions":["nonSeqFull","nonSeqPartial","seqNoFeedback","seqFeedback"],"classroomPairings":[["A","B"],["C","D"]],"coinWeights":[0.2,0.5,0.8],"subjectId":"AGILQEFEPEK7N","assignmentId":"33L7PJKHCHKUCPJ5RL572IXX4AT8TE","hitId":"34KYK9TV2RUAD363EVFPUWVPB97SBP","url":"https://gershmanlab.com/experiments/alicia/teaching/experiment/?hitId=34KYK9TV2RUAD363EVFPUWVPB97SBP&workerId=AGILQEFEPEK7N&assignmentId=33L7PJKHCHKUCPJ5RL572IXX4AT8TE&a=HPL37&tp_a=HPL37&b=33L7PJKHCHKUCPJ5RL572IXX4AT8TE&tp_b=33L7PJKHCHKUCPJ5RL572IXX4AT8TE&c=365717&tp_c=365717","heads":20,"tails":3,"studentIndex":13,"studentTrueHypers":{"a":4,"b":1},"studentGuess":0.8571428571428571,"delta":0.05714285714285705,"totalExamples":23,"bonusSoFar":1.24},{"rt":14639,"response":{"heads":"20","tails":"3"},"type":"response","condition":"seqNoFeedback","trueTheta":0.8,"classrooms":["A","B"],"studentTrueClassroom":"B","exampleSet":"second","trial_type":"survey-html-form","trial_index":103,"time_elapsed":1516082,"internal_node_id":"0.0-102.0-0.0","params":{"nStudents":24,"maxFlips":30,"completionMinutes":45,"basePay":8,"maxBonus":9,"perTrialBonus":0.5,"perTrialBonusThreshold":0.05,"exampleCost":0.01},"classroomParams":{"A":{"a":1,"b":4},"B":{"a":4,"b":1},"C":{"a":2,"b":8},"D":{"a":8,"b":2}},"conditions":["nonSeqFull","nonSeqPartial","seqNoFeedback","seqFeedback"],"classroomPairings":[["A","B"],["C","D"]],"coinWeights":[0.2,0.5,0.8],"subjectId":"AGILQEFEPEK7N","assignmentId":"33L7PJKHCHKUCPJ5RL572IXX4AT8TE","hitId":"34KYK9TV2RUAD363EVFPUWVPB97SBP","url":"https://gershmanlab.com/experiments/alicia/teaching/experiment/?hitId=34KYK9TV2RUAD363EVFPUWVPB97SBP&workerId=AGILQEFEPEK7N&assignmentId=33L7PJKHCHKUCPJ5RL572IXX4AT8TE&a=HPL37&tp_a=HPL37&b=33L7PJKHCHKUCPJ5RL572IXX4AT8TE&tp_b=33L7PJKHCHKUCPJ5RL572IXX4AT8TE&c=365717&tp_c=365717","firstResponseHeads":20,"firstResponseTails":3,"secondResponseHeads":20,"secondResponseTails":3,"totalHeads":40,"totalTails":6,"studentIndex":13,"studentTrueHypers":{"a":4,"b":1},"studentGuess":0.8627450980392157,"delta":0.06274509803921569,"bonus":0,"bonusSoFar":1.24,"totalExamples":46},{"rt":16976,"response":{"heads":"1","tails":"26"},"type":"response","condition":"nonSeqPartial","trueTheta":0.2,"classrooms":["A","B"],"studentTrueClassroom":"B","exampleSet":"first","trial_type":"survey-html-form","trial_index":109,"time_elapsed":1551063,"internal_node_id":"0.0-108.0-0.0","params":{"nStudents":24,"maxFlips":30,"completionMinutes":45,"basePay":8,"maxBonus":9,"perTrialBonus":0.5,"perTrialBonusThreshold":0.05,"exampleCost":0.01},"classroomParams":{"A":{"a":1,"b":4},"B":{"a":4,"b":1},"C":{"a":2,"b":8},"D":{"a":8,"b":2}},"conditions":["nonSeqFull","nonSeqPartial","seqNoFeedback","seqFeedback"],"classroomPairings":[["A","B"],["C","D"]],"coinWeights":[0.2,0.5,0.8],"subjectId":"AGILQEFEPEK7N","assignmentId":"33L7PJKHCHKUCPJ5RL572IXX4AT8TE","hitId":"34KYK9TV2RUAD363EVFPUWVPB97SBP","url":"https://gershmanlab.com/experiments/alicia/teaching/experiment/?hitId=34KYK9TV2RUAD363EVFPUWVPB97SBP&workerId=AGILQEFEPEK7N&assignmentId=33L7PJKHCHKUCPJ5RL572IXX4AT8TE&a=HPL37&tp_a=HPL37&b=33L7PJKHCHKUCPJ5RL572IXX4AT8TE&tp_b=33L7PJKHCHKUCPJ5RL572IXX4AT8TE&c=365717&tp_c=365717","heads":1,"tails":26,"studentIndex":14,"studentTrueHypers":{"a":4,"b":1},"studentGuess":0.15625,"delta":0.04375000000000001,"totalExamples":27,"bonus":0.23,"bonusSoFar":1.47},{"rt":23684,"response":{"heads":"8","tails":"18"},"type":"response","condition":"nonSeqFull","trueTheta":0.5,"classrooms":["C","D"],"studentTrueClassroom":"C","exampleSet":"first","trial_type":"survey-html-form","trial_index":115,"time_elapsed":1588878,"internal_node_id":"0.0-114.0-0.0","params":{"nStudents":24,"maxFlips":30,"completionMinutes":45,"basePay":8,"maxBonus":9,"perTrialBonus":0.5,"perTrialBonusThreshold":0.05,"exampleCost":0.01},"classroomParams":{"A":{"a":1,"b":4},"B":{"a":4,"b":1},"C":{"a":2,"b":8},"D":{"a":8,"b":2}},"conditions":["nonSeqFull","nonSeqPartial","seqNoFeedback","seqFeedback"],"classroomPairings":[["A","B"],["C","D"]],"coinWeights":[0.2,0.5,0.8],"subjectId":"AGILQEFEPEK7N","assignmentId":"33L7PJKHCHKUCPJ5RL572IXX4AT8TE","hitId":"34KYK9TV2RUAD363EVFPUWVPB97SBP","url":"https://gershmanlab.com/experiments/alicia/teaching/experiment/?hitId=34KYK9TV2RUAD363EVFPUWVPB97SBP&workerId=AGILQEFEPEK7N&assignmentId=33L7PJKHCHKUCPJ5RL572IXX4AT8TE&a=HPL37&tp_a=HPL37&b=33L7PJKHCHKUCPJ5RL572IXX4AT8TE&tp_b=33L7PJKHCHKUCPJ5RL572IXX4AT8TE&c=365717&tp_c=365717","heads":8,"tails":18,"studentIndex":15,"studentTrueHypers":{"a":2,"b":8},"studentGuess":0.2777777777777778,"delta":0.2222222222222222,"totalExamples":26,"bonus":0,"bonusSoFar":1.47},{"rt":11197,"response":{"heads":"26","tails":"4"},"type":"response","condition":"seqNoFeedback","trueTheta":0.8,"classrooms":["C","D"],"studentTrueClassroom":"C","exampleSet":"first","trial_type":"survey-html-form","trial_index":121,"time_elapsed":1709849,"internal_node_id":"0.0-120.0-0.0","params":{"nStudents":24,"maxFlips":30,"completionMinutes":45,"basePay":8,"maxBonus":9,"perTrialBonus":0.5,"perTrialBonusThreshold":0.05,"exampleCost":0.01},"classroomParams":{"A":{"a":1,"b":4},"B":{"a":4,"b":1},"C":{"a":2,"b":8},"D":{"a":8,"b":2}},"conditions":["nonSeqFull","nonSeqPartial","seqNoFeedback","seqFeedback"],"classroomPairings":[["A","B"],["C","D"]],"coinWeights":[0.2,0.5,0.8],"subjectId":"AGILQEFEPEK7N","assignmentId":"33L7PJKHCHKUCPJ5RL572IXX4AT8TE","hitId":"34KYK9TV2RUAD363EVFPUWVPB97SBP","url":"https://gershmanlab.com/experiments/alicia/teaching/experiment/?hitId=34KYK9TV2RUAD363EVFPUWVPB97SBP&workerId=AGILQEFEPEK7N&assignmentId=33L7PJKHCHKUCPJ5RL572IXX4AT8TE&a=HPL37&tp_a=HPL37&b=33L7PJKHCHKUCPJ5RL572IXX4AT8TE&tp_b=33L7PJKHCHKUCPJ5RL572IXX4AT8TE&c=365717&tp_c=365717","heads":26,"tails":4,"studentIndex":16,"studentTrueHypers":{"a":2,"b":8},"studentGuess":0.7,"delta":0.10000000000000009,"totalExamples":30,"bonusSoFar":1.47},{"rt":7385,"response":{"heads":"26","tails":"4"},"type":"response","condition":"seqNoFeedback","trueTheta":0.8,"classrooms":["C","D"],"studentTrueClassroom":"C","exampleSet":"second","trial_type":"survey-html-form","trial_index":124,"time_elapsed":1722741,"internal_node_id":"0.0-123.0-0.0","params":{"nStudents":24,"maxFlips":30,"completionMinutes":45,"basePay":8,"maxBonus":9,"perTrialBonus":0.5,"perTrialBonusThreshold":0.05,"exampleCost":0.01},"classroomParams":{"A":{"a":1,"b":4},"B":{"a":4,"b":1},"C":{"a":2,"b":8},"D":{"a":8,"b":2}},"conditions":["nonSeqFull","nonSeqPartial","seqNoFeedback","seqFeedback"],"classroomPairings":[["A","B"],["C","D"]],"coinWeights":[0.2,0.5,0.8],"subjectId":"AGILQEFEPEK7N","assignmentId":"33L7PJKHCHKUCPJ5RL572IXX4AT8TE","hitId":"34KYK9TV2RUAD363EVFPUWVPB97SBP","url":"https://gershmanlab.com/experiments/alicia/teaching/experiment/?hitId=34KYK9TV2RUAD363EVFPUWVPB97SBP&workerId=AGILQEFEPEK7N&assignmentId=33L7PJKHCHKUCPJ5RL572IXX4AT8TE&a=HPL37&tp_a=HPL37&b=33L7PJKHCHKUCPJ5RL572IXX4AT8TE&tp_b=33L7PJKHCHKUCPJ5RL572IXX4AT8TE&c=365717&tp_c=365717","firstResponseHeads":26,"firstResponseTails":4,"secondResponseHeads":26,"secondResponseTails":4,"totalHeads":52,"totalTails":8,"studentIndex":16,"studentTrueHypers":{"a":2,"b":8},"studentGuess":0.7714285714285715,"delta":0.02857142857142858,"bonus":0,"bonusSoFar":1.47,"totalExamples":60},{"rt":15562,"response":{"heads":"1","tails":"14"},"type":"response","condition":"seqFeedback","trueTheta":0.2,"classrooms":["C","D"],"studentTrueClassroom":"C","exampleSet":"first","trial_type":"survey-html-form","trial_index":130,"time_elapsed":1754616,"internal_node_id":"0.0-129.0-0.0","params":{"nStudents":24,"maxFlips":30,"completionMinutes":45,"basePay":8,"maxBonus":9,"perTrialBonus":0.5,"perTrialBonusThreshold":0.05,"exampleCost":0.01},"classroomParams":{"A":{"a":1,"b":4},"B":{"a":4,"b":1},"C":{"a":2,"b":8},"D":{"a":8,"b":2}},"conditions":["nonSeqFull","nonSeqPartial","seqNoFeedback","seqFeedback"],"classroomPairings":[["A","B"],["C","D"]],"coinWeights":[0.2,0.5,0.8],"subjectId":"AGILQEFEPEK7N","assignmentId":"33L7PJKHCHKUCPJ5RL572IXX4AT8TE","hitId":"34KYK9TV2RUAD363EVFPUWVPB97SBP","url":"https://gershmanlab.com/experiments/alicia/teaching/experiment/?hitId=34KYK9TV2RUAD363EVFPUWVPB97SBP&workerId=AGILQEFEPEK7N&assignmentId=33L7PJKHCHKUCPJ5RL572IXX4AT8TE&a=HPL37&tp_a=HPL37&b=33L7PJKHCHKUCPJ5RL572IXX4AT8TE&tp_b=33L7PJKHCHKUCPJ5RL572IXX4AT8TE&c=365717&tp_c=365717","heads":1,"tails":14,"studentIndex":17,"studentTrueHypers":{"a":2,"b":8},"studentGuess":0.12,"delta":0.08000000000000002,"totalExamples":15,"bonusSoFar":1.47},{"rt":7940,"response":{"heads":"3","tails":"12"},"type":"response","condition":"seqFeedback","trueTheta":0.2,"classrooms":["C","D"],"studentTrueClassroom":"C","exampleSet":"second","trial_type":"survey-html-form","trial_index":134,"time_elapsed":1771882,"internal_node_id":"0.0-133.0-0.0","params":{"nStudents":24,"maxFlips":30,"completionMinutes":45,"basePay":8,"maxBonus":9,"perTrialBonus":0.5,"perTrialBonusThreshold":0.05,"exampleCost":0.01},"classroomParams":{"A":{"a":1,"b":4},"B":{"a":4,"b":1},"C":{"a":2,"b":8},"D":{"a":8,"b":2}},"conditions":["nonSeqFull","nonSeqPartial","seqNoFeedback","seqFeedback"],"classroomPairings":[["A","B"],["C","D"]],"coinWeights":[0.2,0.5,0.8],"subjectId":"AGILQEFEPEK7N","assignmentId":"33L7PJKHCHKUCPJ5RL572IXX4AT8TE","hitId":"34KYK9TV2RUAD363EVFPUWVPB97SBP","url":"https://gershmanlab.com/experiments/alicia/teaching/experiment/?hitId=34KYK9TV2RUAD363EVFPUWVPB97SBP&workerId=AGILQEFEPEK7N&assignmentId=33L7PJKHCHKUCPJ5RL572IXX4AT8TE&a=HPL37&tp_a=HPL37&b=33L7PJKHCHKUCPJ5RL572IXX4AT8TE&tp_b=33L7PJKHCHKUCPJ5RL572IXX4AT8TE&c=365717&tp_c=365717","firstResponseHeads":1,"firstResponseTails":14,"secondResponseHeads":3,"secondResponseTails":12,"totalHeads":4,"totalTails":26,"studentIndex":17,"studentTrueHypers":{"a":2,"b":8},"studentGuess":0.15,"delta":0.05000000000000002,"bonus":0,"bonusSoFar":1.47,"totalExamples":30},{"rt":12142,"response":{"heads":"1","tails":"14"},"type":"response","condition":"seqFeedback","trueTheta":0.2,"classrooms":["A","B"],"studentTrueClassroom":"B","exampleSet":"first","trial_type":"survey-html-form","trial_index":140,"time_elapsed":1799781,"internal_node_id":"0.0-139.0-0.0","params":{"nStudents":24,"maxFlips":30,"completionMinutes":45,"basePay":8,"maxBonus":9,"perTrialBonus":0.5,"perTrialBonusThreshold":0.05,"exampleCost":0.01},"classroomParams":{"A":{"a":1,"b":4},"B":{"a":4,"b":1},"C":{"a":2,"b":8},"D":{"a":8,"b":2}},"conditions":["nonSeqFull","nonSeqPartial","seqNoFeedback","seqFeedback"],"classroomPairings":[["A","B"],["C","D"]],"coinWeights":[0.2,0.5,0.8],"subjectId":"AGILQEFEPEK7N","assignmentId":"33L7PJKHCHKUCPJ5RL572IXX4AT8TE","hitId":"34KYK9TV2RUAD363EVFPUWVPB97SBP","url":"https://gershmanlab.com/experiments/alicia/teaching/experiment/?hitId=34KYK9TV2RUAD363EVFPUWVPB97SBP&workerId=AGILQEFEPEK7N&assignmentId=33L7PJKHCHKUCPJ5RL572IXX4AT8TE&a=HPL37&tp_a=HPL37&b=33L7PJKHCHKUCPJ5RL572IXX4AT8TE&tp_b=33L7PJKHCHKUCPJ5RL572IXX4AT8TE&c=365717&tp_c=365717","heads":1,"tails":14,"studentIndex":18,"studentTrueHypers":{"a":4,"b":1},"studentGuess":0.25,"delta":0.04999999999999999,"totalExamples":15,"bonusSoFar":1.47},{"rt":7595,"response":{"heads":"1","tails":"12"},"type":"response","condition":"seqFeedback","trueTheta":0.2,"classrooms":["A","B"],"studentTrueClassroom":"B","exampleSet":"second","trial_type":"survey-html-form","trial_index":144,"time_elapsed":1816116,"internal_node_id":"0.0-143.0-0.0","params":{"nStudents":24,"maxFlips":30,"completionMinutes":45,"basePay":8,"maxBonus":9,"perTrialBonus":0.5,"perTrialBonusThreshold":0.05,"exampleCost":0.01},"classroomParams":{"A":{"a":1,"b":4},"B":{"a":4,"b":1},"C":{"a":2,"b":8},"D":{"a":8,"b":2}},"conditions":["nonSeqFull","nonSeqPartial","seqNoFeedback","seqFeedback"],"classroomPairings":[["A","B"],["C","D"]],"coinWeights":[0.2,0.5,0.8],"subjectId":"AGILQEFEPEK7N","assignmentId":"33L7PJKHCHKUCPJ5RL572IXX4AT8TE","hitId":"34KYK9TV2RUAD363EVFPUWVPB97SBP","url":"https://gershmanlab.com/experiments/alicia/teaching/experiment/?hitId=34KYK9TV2RUAD363EVFPUWVPB97SBP&workerId=AGILQEFEPEK7N&assignmentId=33L7PJKHCHKUCPJ5RL572IXX4AT8TE&a=HPL37&tp_a=HPL37&b=33L7PJKHCHKUCPJ5RL572IXX4AT8TE&tp_b=33L7PJKHCHKUCPJ5RL572IXX4AT8TE&c=365717&tp_c=365717","firstResponseHeads":1,"firstResponseTails":14,"secondResponseHeads":1,"secondResponseTails":12,"totalHeads":2,"totalTails":26,"studentIndex":18,"studentTrueHypers":{"a":4,"b":1},"studentGuess":0.18181818181818182,"delta":0.018181818181818188,"bonus":0.22,"bonusSoFar":1.69,"totalExamples":28},{"rt":15307,"response":{"heads":"10","tails":"10"},"type":"response","condition":"seqNoFeedback","trueTheta":0.5,"classrooms":["A","B"],"studentTrueClassroom":"B","exampleSet":"first","trial_type":"survey-html-form","trial_index":150,"time_elapsed":1844467,"internal_node_id":"0.0-149.0-0.0","params":{"nStudents":24,"maxFlips":30,"completionMinutes":45,"basePay":8,"maxBonus":9,"perTrialBonus":0.5,"perTrialBonusThreshold":0.05,"exampleCost":0.01},"classroomParams":{"A":{"a":1,"b":4},"B":{"a":4,"b":1},"C":{"a":2,"b":8},"D":{"a":8,"b":2}},"conditions":["nonSeqFull","nonSeqPartial","seqNoFeedback","seqFeedback"],"classroomPairings":[["A","B"],["C","D"]],"coinWeights":[0.2,0.5,0.8],"subjectId":"AGILQEFEPEK7N","assignmentId":"33L7PJKHCHKUCPJ5RL572IXX4AT8TE","hitId":"34KYK9TV2RUAD363EVFPUWVPB97SBP","url":"https://gershmanlab.com/experiments/alicia/teaching/experiment/?hitId=34KYK9TV2RUAD363EVFPUWVPB97SBP&workerId=AGILQEFEPEK7N&assignmentId=33L7PJKHCHKUCPJ5RL572IXX4AT8TE&a=HPL37&tp_a=HPL37&b=33L7PJKHCHKUCPJ5RL572IXX4AT8TE&tp_b=33L7PJKHCHKUCPJ5RL572IXX4AT8TE&c=365717&tp_c=365717","heads":10,"tails":10,"studentIndex":19,"studentTrueHypers":{"a":4,"b":1},"studentGuess":0.56,"delta":0.06000000000000005,"totalExamples":20,"bonusSoFar":1.69},{"rt":8250,"response":{"heads":"10","tails":"10"},"type":"response","condition":"seqNoFeedback","trueTheta":0.5,"classrooms":["A","B"],"studentTrueClassroom":"B","exampleSet":"second","trial_type":"survey-html-form","trial_index":153,"time_elapsed":1859985,"internal_node_id":"0.0-152.0-0.0","params":{"nStudents":24,"maxFlips":30,"completionMinutes":45,"basePay":8,"maxBonus":9,"perTrialBonus":0.5,"perTrialBonusThreshold":0.05,"exampleCost":0.01},"classroomParams":{"A":{"a":1,"b":4},"B":{"a":4,"b":1},"C":{"a":2,"b":8},"D":{"a":8,"b":2}},"conditions":["nonSeqFull","nonSeqPartial","seqNoFeedback","seqFeedback"],"classroomPairings":[["A","B"],["C","D"]],"coinWeights":[0.2,0.5,0.8],"subjectId":"AGILQEFEPEK7N","assignmentId":"33L7PJKHCHKUCPJ5RL572IXX4AT8TE","hitId":"34KYK9TV2RUAD363EVFPUWVPB97SBP","url":"https://gershmanlab.com/experiments/alicia/teaching/experiment/?hitId=34KYK9TV2RUAD363EVFPUWVPB97SBP&workerId=AGILQEFEPEK7N&assignmentId=33L7PJKHCHKUCPJ5RL572IXX4AT8TE&a=HPL37&tp_a=HPL37&b=33L7PJKHCHKUCPJ5RL572IXX4AT8TE&tp_b=33L7PJKHCHKUCPJ5RL572IXX4AT8TE&c=365717&tp_c=365717","firstResponseHeads":10,"firstResponseTails":10,"secondResponseHeads":10,"secondResponseTails":10,"totalHeads":20,"totalTails":20,"studentIndex":19,"studentTrueHypers":{"a":4,"b":1},"studentGuess":0.5333333333333333,"delta":0.033333333333333326,"bonus":0.1,"bonusSoFar":1.79,"totalExamples":40},{"rt":11597,"response":{"heads":"25","tails":"5"},"type":"response","condition":"seqFeedback","trueTheta":0.8,"classrooms":["C","D"],"studentTrueClassroom":"D","exampleSet":"first","trial_type":"survey-html-form","trial_index":159,"time_elapsed":1885344,"internal_node_id":"0.0-158.0-0.0","params":{"nStudents":24,"maxFlips":30,"completionMinutes":45,"basePay":8,"maxBonus":9,"perTrialBonus":0.5,"perTrialBonusThreshold":0.05,"exampleCost":0.01},"classroomParams":{"A":{"a":1,"b":4},"B":{"a":4,"b":1},"C":{"a":2,"b":8},"D":{"a":8,"b":2}},"conditions":["nonSeqFull","nonSeqPartial","seqNoFeedback","seqFeedback"],"classroomPairings":[["A","B"],["C","D"]],"coinWeights":[0.2,0.5,0.8],"subjectId":"AGILQEFEPEK7N","assignmentId":"33L7PJKHCHKUCPJ5RL572IXX4AT8TE","hitId":"34KYK9TV2RUAD363EVFPUWVPB97SBP","url":"https://gershmanlab.com/experiments/alicia/teaching/experiment/?hitId=34KYK9TV2RUAD363EVFPUWVPB97SBP&workerId=AGILQEFEPEK7N&assignmentId=33L7PJKHCHKUCPJ5RL572IXX4AT8TE&a=HPL37&tp_a=HPL37&b=33L7PJKHCHKUCPJ5RL572IXX4AT8TE&tp_b=33L7PJKHCHKUCPJ5RL572IXX4AT8TE&c=365717&tp_c=365717","heads":25,"tails":5,"studentIndex":20,"studentTrueHypers":{"a":8,"b":2},"studentGuess":0.825,"delta":0.02499999999999991,"totalExamples":30,"bonusSoFar":1.79},{"rt":9104,"response":{"heads":"24","tails":"4"},"type":"response","condition":"seqFeedback","trueTheta":0.8,"classrooms":["C","D"],"studentTrueClassroom":"D","exampleSet":"second","trial_type":"survey-html-form","trial_index":163,"time_elapsed":1903590,"internal_node_id":"0.0-162.0-0.0","params":{"nStudents":24,"maxFlips":30,"completionMinutes":45,"basePay":8,"maxBonus":9,"perTrialBonus":0.5,"perTrialBonusThreshold":0.05,"exampleCost":0.01},"classroomParams":{"A":{"a":1,"b":4},"B":{"a":4,"b":1},"C":{"a":2,"b":8},"D":{"a":8,"b":2}},"conditions":["nonSeqFull","nonSeqPartial","seqNoFeedback","seqFeedback"],"classroomPairings":[["A","B"],["C","D"]],"coinWeights":[0.2,0.5,0.8],"subjectId":"AGILQEFEPEK7N","assignmentId":"33L7PJKHCHKUCPJ5RL572IXX4AT8TE","hitId":"34KYK9TV2RUAD363EVFPUWVPB97SBP","url":"https://gershmanlab.com/experiments/alicia/teaching/experiment/?hitId=34KYK9TV2RUAD363EVFPUWVPB97SBP&workerId=AGILQEFEPEK7N&assignmentId=33L7PJKHCHKUCPJ5RL572IXX4AT8TE&a=HPL37&tp_a=HPL37&b=33L7PJKHCHKUCPJ5RL572IXX4AT8TE&tp_b=33L7PJKHCHKUCPJ5RL572IXX4AT8TE&c=365717&tp_c=365717","firstResponseHeads":25,"firstResponseTails":5,"secondResponseHeads":24,"secondResponseTails":4,"totalHeads":49,"totalTails":9,"studentIndex":20,"studentTrueHypers":{"a":8,"b":2},"studentGuess":0.8382352941176471,"delta":0.038235294117647034,"bonus":0,"bonusSoFar":1.79,"totalExamples":58},{"rt":7328,"response":{"heads":"1","tails":"20"},"type":"response","condition":"seqNoFeedback","trueTheta":0.2,"classrooms":["A","B"],"studentTrueClassroom":"A","exampleSet":"first","trial_type":"survey-html-form","trial_index":169,"time_elapsed":1927958,"internal_node_id":"0.0-168.0-0.0","params":{"nStudents":24,"maxFlips":30,"completionMinutes":45,"basePay":8,"maxBonus":9,"perTrialBonus":0.5,"perTrialBonusThreshold":0.05,"exampleCost":0.01},"classroomParams":{"A":{"a":1,"b":4},"B":{"a":4,"b":1},"C":{"a":2,"b":8},"D":{"a":8,"b":2}},"conditions":["nonSeqFull","nonSeqPartial","seqNoFeedback","seqFeedback"],"classroomPairings":[["A","B"],["C","D"]],"coinWeights":[0.2,0.5,0.8],"subjectId":"AGILQEFEPEK7N","assignmentId":"33L7PJKHCHKUCPJ5RL572IXX4AT8TE","hitId":"34KYK9TV2RUAD363EVFPUWVPB97SBP","url":"https://gershmanlab.com/experiments/alicia/teaching/experiment/?hitId=34KYK9TV2RUAD363EVFPUWVPB97SBP&workerId=AGILQEFEPEK7N&assignmentId=33L7PJKHCHKUCPJ5RL572IXX4AT8TE&a=HPL37&tp_a=HPL37&b=33L7PJKHCHKUCPJ5RL572IXX4AT8TE&tp_b=33L7PJKHCHKUCPJ5RL572IXX4AT8TE&c=365717&tp_c=365717","heads":1,"tails":20,"studentIndex":21,"studentTrueHypers":{"a":1,"b":4},"studentGuess":0.07692307692307693,"delta":0.12307692307692308,"totalExamples":21,"bonusSoFar":1.79},{"rt":7694,"response":{"heads":"1","tails":"20"},"type":"response","condition":"seqNoFeedback","trueTheta":0.2,"classrooms":["A","B"],"studentTrueClassroom":"A","exampleSet":"second","trial_type":"survey-html-form","trial_index":172,"time_elapsed":1942921,"internal_node_id":"0.0-171.0-0.0","params":{"nStudents":24,"maxFlips":30,"completionMinutes":45,"basePay":8,"maxBonus":9,"perTrialBonus":0.5,"perTrialBonusThreshold":0.05,"exampleCost":0.01},"classroomParams":{"A":{"a":1,"b":4},"B":{"a":4,"b":1},"C":{"a":2,"b":8},"D":{"a":8,"b":2}},"conditions":["nonSeqFull","nonSeqPartial","seqNoFeedback","seqFeedback"],"classroomPairings":[["A","B"],["C","D"]],"coinWeights":[0.2,0.5,0.8],"subjectId":"AGILQEFEPEK7N","assignmentId":"33L7PJKHCHKUCPJ5RL572IXX4AT8TE","hitId":"34KYK9TV2RUAD363EVFPUWVPB97SBP","url":"https://gershmanlab.com/experiments/alicia/teaching/experiment/?hitId=34KYK9TV2RUAD363EVFPUWVPB97SBP&workerId=AGILQEFEPEK7N&assignmentId=33L7PJKHCHKUCPJ5RL572IXX4AT8TE&a=HPL37&tp_a=HPL37&b=33L7PJKHCHKUCPJ5RL572IXX4AT8TE&tp_b=33L7PJKHCHKUCPJ5RL572IXX4AT8TE&c=365717&tp_c=365717","firstResponseHeads":1,"firstResponseTails":20,"secondResponseHeads":1,"secondResponseTails":20,"totalHeads":2,"totalTails":40,"studentIndex":21,"studentTrueHypers":{"a":1,"b":4},"studentGuess":0.06382978723404255,"delta":0.13617021276595748,"bonus":0,"bonusSoFar":1.79,"totalExamples":42},{"rt":7883,"response":{"heads":"15","tails":"15"},"type":"response","condition":"nonSeqPartial","trueTheta":0.5,"classrooms":["C","D"],"studentTrueClassroom":"D","exampleSet":"first","trial_type":"survey-html-form","trial_index":178,"time_elapsed":1964259,"internal_node_id":"0.0-177.0-0.0","params":{"nStudents":24,"maxFlips":30,"completionMinutes":45,"basePay":8,"maxBonus":9,"perTrialBonus":0.5,"perTrialBonusThreshold":0.05,"exampleCost":0.01},"classroomParams":{"A":{"a":1,"b":4},"B":{"a":4,"b":1},"C":{"a":2,"b":8},"D":{"a":8,"b":2}},"conditions":["nonSeqFull","nonSeqPartial","seqNoFeedback","seqFeedback"],"classroomPairings":[["A","B"],["C","D"]],"coinWeights":[0.2,0.5,0.8],"subjectId":"AGILQEFEPEK7N","assignmentId":"33L7PJKHCHKUCPJ5RL572IXX4AT8TE","hitId":"34KYK9TV2RUAD363EVFPUWVPB97SBP","url":"https://gershmanlab.com/experiments/alicia/teaching/experiment/?hitId=34KYK9TV2RUAD363EVFPUWVPB97SBP&workerId=AGILQEFEPEK7N&assignmentId=33L7PJKHCHKUCPJ5RL572IXX4AT8TE&a=HPL37&tp_a=HPL37&b=33L7PJKHCHKUCPJ5RL572IXX4AT8TE&tp_b=33L7PJKHCHKUCPJ5RL572IXX4AT8TE&c=365717&tp_c=365717","heads":15,"tails":15,"studentIndex":22,"studentTrueHypers":{"a":8,"b":2},"studentGuess":0.575,"delta":0.07499999999999996,"totalExamples":30,"bonus":0,"bonusSoFar":1.79},{"rt":6275,"response":{"heads":"10","tails":"10"},"type":"response","condition":"seqNoFeedback","trueTheta":0.5,"classrooms":["C","D"],"studentTrueClassroom":"D","exampleSet":"first","trial_type":"survey-html-form","trial_index":184,"time_elapsed":1985235,"internal_node_id":"0.0-183.0-0.0","params":{"nStudents":24,"maxFlips":30,"completionMinutes":45,"basePay":8,"maxBonus":9,"perTrialBonus":0.5,"perTrialBonusThreshold":0.05,"exampleCost":0.01},"classroomParams":{"A":{"a":1,"b":4},"B":{"a":4,"b":1},"C":{"a":2,"b":8},"D":{"a":8,"b":2}},"conditions":["nonSeqFull","nonSeqPartial","seqNoFeedback","seqFeedback"],"classroomPairings":[["A","B"],["C","D"]],"coinWeights":[0.2,0.5,0.8],"subjectId":"AGILQEFEPEK7N","assignmentId":"33L7PJKHCHKUCPJ5RL572IXX4AT8TE","hitId":"34KYK9TV2RUAD363EVFPUWVPB97SBP","url":"https://gershmanlab.com/experiments/alicia/teaching/experiment/?hitId=34KYK9TV2RUAD363EVFPUWVPB97SBP&workerId=AGILQEFEPEK7N&assignmentId=33L7PJKHCHKUCPJ5RL572IXX4AT8TE&a=HPL37&tp_a=HPL37&b=33L7PJKHCHKUCPJ5RL572IXX4AT8TE&tp_b=33L7PJKHCHKUCPJ5RL572IXX4AT8TE&c=365717&tp_c=365717","heads":10,"tails":10,"studentIndex":23,"studentTrueHypers":{"a":8,"b":2},"studentGuess":0.6,"delta":0.09999999999999998,"totalExamples":20,"bonusSoFar":1.79},{"rt":32742,"response":{"heads":"10","tails":"13"},"type":"response","condition":"seqNoFeedback","trueTheta":0.5,"classrooms":["C","D"],"studentTrueClassroom":"D","exampleSet":"second","trial_type":"survey-html-form","trial_index":187,"time_elapsed":2024500,"internal_node_id":"0.0-186.0-0.0","params":{"nStudents":24,"maxFlips":30,"completionMinutes":45,"basePay":8,"maxBonus":9,"perTrialBonus":0.5,"perTrialBonusThreshold":0.05,"exampleCost":0.01},"classroomParams":{"A":{"a":1,"b":4},"B":{"a":4,"b":1},"C":{"a":2,"b":8},"D":{"a":8,"b":2}},"conditions":["nonSeqFull","nonSeqPartial","seqNoFeedback","seqFeedback"],"classroomPairings":[["A","B"],["C","D"]],"coinWeights":[0.2,0.5,0.8],"subjectId":"AGILQEFEPEK7N","assignmentId":"33L7PJKHCHKUCPJ5RL572IXX4AT8TE","hitId":"34KYK9TV2RUAD363EVFPUWVPB97SBP","url":"https://gershmanlab.com/experiments/alicia/teaching/experiment/?hitId=34KYK9TV2RUAD363EVFPUWVPB97SBP&workerId=AGILQEFEPEK7N&assignmentId=33L7PJKHCHKUCPJ5RL572IXX4AT8TE&a=HPL37&tp_a=HPL37&b=33L7PJKHCHKUCPJ5RL572IXX4AT8TE&tp_b=33L7PJKHCHKUCPJ5RL572IXX4AT8TE&c=365717&tp_c=365717","firstResponseHeads":10,"firstResponseTails":10,"secondResponseHeads":10,"secondResponseTails":13,"totalHeads":20,"totalTails":23,"studentIndex":23,"studentTrueHypers":{"a":8,"b":2},"studentGuess":0.5283018867924528,"delta":0.028301886792452824,"bonus":0.07,"bonusSoFar":1.86,"totalExamples":43},{"rt":15436,"response":{"gender":"male","age":"32","understood":"yes","comments":""},"type":"response","trial_type":"survey-html-form","trial_index":191,"time_elapsed":2050375,"internal_node_id":"0.0-191.0","params":{"nStudents":24,"maxFlips":30,"completionMinutes":45,"basePay":8,"maxBonus":9,"perTrialBonus":0.5,"perTrialBonusThreshold":0.05,"exampleCost":0.01},"classroomParams":{"A":{"a":1,"b":4},"B":{"a":4,"b":1},"C":{"a":2,"b":8},"D":{"a":8,"b":2}},"conditions":["nonSeqFull","nonSeqPartial","seqNoFeedback","seqFeedback"],"classroomPairings":[["A","B"],["C","D"]],"coinWeights":[0.2,0.5,0.8],"subjectId":"AGILQEFEPEK7N","assignmentId":"33L7PJKHCHKUCPJ5RL572IXX4AT8TE","hitId":"34KYK9TV2RUAD363EVFPUWVPB97SBP","url":"https://gershmanlab.com/experiments/alicia/teaching/experiment/?hitId=34KYK9TV2RUAD363EVFPUWVPB97SBP&workerId=AGILQEFEPEK7N&assignmentId=33L7PJKHCHKUCPJ5RL572IXX4AT8TE&a=HPL37&tp_a=HPL37&b=33L7PJKHCHKUCPJ5RL572IXX4AT8TE&tp_b=33L7PJKHCHKUCPJ5RL572IXX4AT8TE&c=365717&tp_c=365717","totalBonus":1.86}]