[{"rt":9313,"response":{"heads":"2","tails":"8"},"type":"response","condition":"nonSeqFull","trueTheta":0.2,"classrooms":["C","D"],"studentTrueClassroom":"C","exampleSet":"first","trial_type":"survey-html-form","trial_index":7,"time_elapsed":115617,"internal_node_id":"0.0-6.0-0.0","params":{"nStudents":24,"maxFlips":30,"completionMinutes":45,"basePay":8,"maxBonus":9,"perTrialBonus":0.5,"perTrialBonusThreshold":0.05,"exampleCost":0.01},"classroomParams":{"A":{"a":1,"b":4},"B":{"a":4,"b":1},"C":{"a":2,"b":8},"D":{"a":8,"b":2}},"conditions":["nonSeqFull","nonSeqPartial","seqNoFeedback","seqFeedback"],"classroomPairings":[["A","B"],["C","D"]],"coinWeights":[0.2,0.5,0.8],"subjectId":"AGWWUXDX6CI38","assignmentId":"31IBVUNM9TLI4WXH4UBSDS24O06FV4","hitId":"3NI0WFPPI9246I5W92FX9A3E2GN605","url":"https://gershmanlab.com/experiments/alicia/teaching/experiment/?hitId=3NI0WFPPI9246I5W92FX9A3E2GN605&workerId=AGWWUXDX6CI38&assignmentId=31IBVUNM9TLI4WXH4UBSDS24O06FV4&a=MVI19&tp_a=MVI19&b=31IBVUNM9TLI4WXH4UBSDS24O06FV4&tp_b=31IBVUNM9TLI4WXH4UBSDS24O06FV4&c=365799&tp_c=365799","heads":2,"tails":8,"studentIndex":0,"studentTrueHypers":{"a":2,"b":8},"studentGuess":0.2,"delta":0,"totalExamples":10,"bonus":0.4,"bonusSoFar":0.4},{"rt":6289,"response":{"heads":"8","tails":"2"},"type":"response","condition":"seqFeedback","trueTheta":0.8,"classrooms":["A","B"],"studentTrueClassroom":"A","exampleSet":"first","trial_type":"survey-html-form","trial_index":13,"time_elapsed":139628,"internal_node_id":"0.0-12.0-0.0","params":{"nStudents":24,"maxFlips":30,"completionMinutes":45,"basePay":8,"maxBonus":9,"perTrialBonus":0.5,"perTrialBonusThreshold":0.05,"exampleCost":0.01},"classroomParams":{"A":{"a":1,"b":4},"B":{"a":4,"b":1},"C":{"a":2,"b":8},"D":{"a":8,"b":2}},"conditions":["nonSeqFull","nonSeqPartial","seqNoFeedback","seqFeedback"],"classroomPairings":[["A","B"],["C","D"]],"coinWeights":[0.2,0.5,0.8],"subjectId":"AGWWUXDX6CI38","assignmentId":"31IBVUNM9TLI4WXH4UBSDS24O06FV4","hitId":"3NI0WFPPI9246I5W92FX9A3E2GN605","url":"https://gershmanlab.com/experiments/alicia/teaching/experiment/?hitId=3NI0WFPPI9246I5W92FX9A3E2GN605&workerId=AGWWUXDX6CI38&assignmentId=31IBVUNM9TLI4WXH4UBSDS24O06FV4&a=MVI19&tp_a=MVI19&b=31IBVUNM9TLI4WXH4UBSDS24O06FV4&tp_b=31IBVUNM9TLI4WXH4UBSDS24O06FV4&c=365799&tp_c=365799","heads":8,"tails":2,"studentIndex":1,"studentTrueHypers":{"a":1,"b":4},"studentGuess":0.6,"delta":0.20000000000000007,"totalExamples":10,"bonusSoFar":0.4},{"rt":8708,"response":{"heads":"8","tails":"2"},"type":"response","condition":"seqFeedback","trueTheta":0.8,"classrooms":["A","B"],"studentTrueClassroom":"A","exampleSet":"second","trial_type":"survey-html-form","trial_index":17,"time_elapsed":158926,"internal_node_id":"0.0-16.0-0.0","params":{"nStudents":24,"maxFlips":30,"completionMinutes":45,"basePay":8,"maxBonus":9,"perTrialBonus":0.5,"perTrialBonusThreshold":0.05,"exampleCost":0.01},"classroomParams":{"A":{"a":1,"b":4},"B":{"a":4,"b":1},"C":{"a":2,"b":8},"D":{"a":8,"b":2}},"conditions":["nonSeqFull","nonSeqPartial","seqNoFeedback","seqFeedback"],"classroomPairings":[["A","B"],["C","D"]],"coinWeights":[0.2,0.5,0.8],"subjectId":"AGWWUXDX6CI38","assignmentId":"31IBVUNM9TLI4WXH4UBSDS24O06FV4","hitId":"3NI0WFPPI9246I5W92FX9A3E2GN605","url":"https://gershmanlab.com/experiments/alicia/teaching/experiment/?hitId=3NI0WFPPI9246I5W92FX9A3E2GN605&workerId=AGWWUXDX6CI38&assignmentId=31IBVUNM9TLI4WXH4UBSDS24O06FV4&a=MVI19&tp_a=MVI19&b=31IBVUNM9TLI4WXH4UBSDS24O06FV4&tp_b=31IBVUNM9TLI4WXH4UBSDS24O06FV4&c=365799&tp_c=365799","firstResponseHeads":8,"firstResponseTails":2,"secondResponseHeads":8,"secondResponseTails":2,"totalHeads":16,"totalTails":4,"studentIndex":1,"studentTrueHypers":{"a":1,"b":4},"studentGuess":0.68,"delta":0.12,"bonus":0,"bonusSoFar":0.4,"totalExamples":20},{"rt":9374,"response":{"heads":"8","tails":"2"},"type":"response","condition":"nonSeqPartial","trueTheta":0.8,"classrooms":["C","D"],"studentTrueClassroom":"D","exampleSet":"first","trial_type":"survey-html-form","trial_index":23,"time_elapsed":183220,"internal_node_id":"0.0-22.0-0.0","params":{"nStudents":24,"maxFlips":30,"completionMinutes":45,"basePay":8,"maxBonus":9,"perTrialBonus":0.5,"perTrialBonusThreshold":0.05,"exampleCost":0.01},"classroomParams":{"A":{"a":1,"b":4},"B":{"a":4,"b":1},"C":{"a":2,"b":8},"D":{"a":8,"b":2}},"conditions":["nonSeqFull","nonSeqPartial","seqNoFeedback","seqFeedback"],"classroomPairings":[["A","B"],["C","D"]],"coinWeights":[0.2,0.5,0.8],"subjectId":"AGWWUXDX6CI38","assignmentId":"31IBVUNM9TLI4WXH4UBSDS24O06FV4","hitId":"3NI0WFPPI9246I5W92FX9A3E2GN605","url":"https://gershmanlab.com/experiments/alicia/teaching/experiment/?hitId=3NI0WFPPI9246I5W92FX9A3E2GN605&workerId=AGWWUXDX6CI38&assignmentId=31IBVUNM9TLI4WXH4UBSDS24O06FV4&a=MVI19&tp_a=MVI19&b=31IBVUNM9TLI4WXH4UBSDS24O06FV4&tp_b=31IBVUNM9TLI4WXH4UBSDS24O06FV4&c=365799&tp_c=365799","heads":8,"tails":2,"studentIndex":2,"studentTrueHypers":{"a":8,"b":2},"studentGuess":0.8,"delta":0,"totalExamples":10,"bonus":0.4,"bonusSoFar":0.8},{"rt":5130,"response":{"heads":"8","tails":"2"},"type":"response","condition":"nonSeqFull","trueTheta":0.8,"classrooms":["C","D"],"studentTrueClassroom":"D","exampleSet":"first","trial_type":"survey-html-form","trial_index":29,"time_elapsed":199102,"internal_node_id":"0.0-28.0-0.0","params":{"nStudents":24,"maxFlips":30,"completionMinutes":45,"basePay":8,"maxBonus":9,"perTrialBonus":0.5,"perTrialBonusThreshold":0.05,"exampleCost":0.01},"classroomParams":{"A":{"a":1,"b":4},"B":{"a":4,"b":1},"C":{"a":2,"b":8},"D":{"a":8,"b":2}},"conditions":["nonSeqFull","nonSeqPartial","seqNoFeedback","seqFeedback"],"classroomPairings":[["A","B"],["C","D"]],"coinWeights":[0.2,0.5,0.8],"subjectId":"AGWWUXDX6CI38","assignmentId":"31IBVUNM9TLI4WXH4UBSDS24O06FV4","hitId":"3NI0WFPPI9246I5W92FX9A3E2GN605","url":"https://gershmanlab.com/experiments/alicia/teaching/experiment/?hitId=3NI0WFPPI9246I5W92FX9A3E2GN605&workerId=AGWWUXDX6CI38&assignmentId=31IBVUNM9TLI4WXH4UBSDS24O06FV4&a=MVI19&tp_a=MVI19&b=31IBVUNM9TLI4WXH4UBSDS24O06FV4&tp_b=31IBVUNM9TLI4WXH4UBSDS24O06FV4&c=365799&tp_c=365799","heads":8,"tails":2,"studentIndex":3,"studentTrueHypers":{"a":8,"b":2},"studentGuess":0.8,"delta":0,"totalExamples":10,"bonus":0.4,"bonusSoFar":1.2},{"rt":4867,"response":{"heads":"2","tails":"8"},"type":"response","condition":"nonSeqFull","trueTheta":0.2,"classrooms":["A","B"],"studentTrueClassroom":"B","exampleSet":"first","trial_type":"survey-html-form","trial_index":35,"time_elapsed":215802,"internal_node_id":"0.0-34.0-0.0","params":{"nStudents":24,"maxFlips":30,"completionMinutes":45,"basePay":8,"maxBonus":9,"perTrialBonus":0.5,"perTrialBonusThreshold":0.05,"exampleCost":0.01},"classroomParams":{"A":{"a":1,"b":4},"B":{"a":4,"b":1},"C":{"a":2,"b":8},"D":{"a":8,"b":2}},"conditions":["nonSeqFull","nonSeqPartial","seqNoFeedback","seqFeedback"],"classroomPairings":[["A","B"],["C","D"]],"coinWeights":[0.2,0.5,0.8],"subjectId":"AGWWUXDX6CI38","assignmentId":"31IBVUNM9TLI4WXH4UBSDS24O06FV4","hitId":"3NI0WFPPI9246I5W92FX9A3E2GN605","url":"https://gershmanlab.com/experiments/alicia/teaching/experiment/?hitId=3NI0WFPPI9246I5W92FX9A3E2GN605&workerId=AGWWUXDX6CI38&assignmentId=31IBVUNM9TLI4WXH4UBSDS24O06FV4&a=MVI19&tp_a=MVI19&b=31IBVUNM9TLI4WXH4UBSDS24O06FV4&tp_b=31IBVUNM9TLI4WXH4UBSDS24O06FV4&c=365799&tp_c=365799","heads":2,"tails":8,"studentIndex":4,"studentTrueHypers":{"a":4,"b":1},"studentGuess":0.4,"delta":0.2,"totalExamples":10,"bonus":0,"bonusSoFar":1.2},{"rt":3598,"response":{"heads":"5","tails":"5"},"type":"response","condition":"seqNoFeedback","trueTheta":0.5,"classrooms":["A","B"],"studentTrueClassroom":"A","exampleSet":"first","trial_type":"survey-html-form","trial_index":41,"time_elapsed":231805,"internal_node_id":"0.0-40.0-0.0","params":{"nStudents":24,"maxFlips":30,"completionMinutes":45,"basePay":8,"maxBonus":9,"perTrialBonus":0.5,"perTrialBonusThreshold":0.05,"exampleCost":0.01},"classroomParams":{"A":{"a":1,"b":4},"B":{"a":4,"b":1},"C":{"a":2,"b":8},"D":{"a":8,"b":2}},"conditions":["nonSeqFull","nonSeqPartial","seqNoFeedback","seqFeedback"],"classroomPairings":[["A","B"],["C","D"]],"coinWeights":[0.2,0.5,0.8],"subjectId":"AGWWUXDX6CI38","assignmentId":"31IBVUNM9TLI4WXH4UBSDS24O06FV4","hitId":"3NI0WFPPI9246I5W92FX9A3E2GN605","url":"https://gershmanlab.com/experiments/alicia/teaching/experiment/?hitId=3NI0WFPPI9246I5W92FX9A3E2GN605&workerId=AGWWUXDX6CI38&assignmentId=31IBVUNM9TLI4WXH4UBSDS24O06FV4&a=MVI19&tp_a=MVI19&b=31IBVUNM9TLI4WXH4UBSDS24O06FV4&tp_b=31IBVUNM9TLI4WXH4UBSDS24O06FV4&c=365799&tp_c=365799","heads":5,"tails":5,"studentIndex":5,"studentTrueHypers":{"a":1,"b":4},"studentGuess":0.4,"delta":0.09999999999999998,"totalExamples":10,"bonusSoFar":1.2},{"rt":4411,"response":{"heads":"5","tails":"5"},"type":"response","condition":"seqNoFeedback","trueTheta":0.5,"classrooms":["A","B"],"studentTrueClassroom":"A","exampleSet":"second","trial_type":"survey-html-form","trial_index":44,"time_elapsed":243471,"internal_node_id":"0.0-43.0-0.0","params":{"nStudents":24,"maxFlips":30,"completionMinutes":45,"basePay":8,"maxBonus":9,"perTrialBonus":0.5,"perTrialBonusThreshold":0.05,"exampleCost":0.01},"classroomParams":{"A":{"a":1,"b":4},"B":{"a":4,"b":1},"C":{"a":2,"b":8},"D":{"a":8,"b":2}},"conditions":["nonSeqFull","nonSeqPartial","seqNoFeedback","seqFeedback"],"classroomPairings":[["A","B"],["C","D"]],"coinWeights":[0.2,0.5,0.8],"subjectId":"AGWWUXDX6CI38","assignmentId":"31IBVUNM9TLI4WXH4UBSDS24O06FV4","hitId":"3NI0WFPPI9246I5W92FX9A3E2GN605","url":"https://gershmanlab.com/experiments/alicia/teaching/experiment/?hitId=3NI0WFPPI9246I5W92FX9A3E2GN605&workerId=AGWWUXDX6CI38&assignmentId=31IBVUNM9TLI4WXH4UBSDS24O06FV4&a=MVI19&tp_a=MVI19&b=31IBVUNM9TLI4WXH4UBSDS24O06FV4&tp_b=31IBVUNM9TLI4WXH4UBSDS24O06FV4&c=365799&tp_c=365799","firstResponseHeads":5,"firstResponseTails":5,"secondResponseHeads":5,"secondResponseTails":5,"totalHeads":10,"totalTails":10,"studentIndex":5,"studentTrueHypers":{"a":1,"b":4},"studentGuess":0.44,"delta":0.06,"bonus":0,"bonusSoFar":1.2,"totalExamples":20},{"rt":4097,"response":{"heads":"8","tails":"2"},"type":"response","condition":"nonSeqFull","trueTheta":0.8,"classrooms":["A","B"],"studentTrueClassroom":"A","exampleSet":"first","trial_type":"survey-html-form","trial_index":50,"time_elapsed":260350,"internal_node_id":"0.0-49.0-0.0","params":{"nStudents":24,"maxFlips":30,"completionMinutes":45,"basePay":8,"maxBonus":9,"perTrialBonus":0.5,"perTrialBonusThreshold":0.05,"exampleCost":0.01},"classroomParams":{"A":{"a":1,"b":4},"B":{"a":4,"b":1},"C":{"a":2,"b":8},"D":{"a":8,"b":2}},"conditions":["nonSeqFull","nonSeqPartial","seqNoFeedback","seqFeedback"],"classroomPairings":[["A","B"],["C","D"]],"coinWeights":[0.2,0.5,0.8],"subjectId":"AGWWUXDX6CI38","assignmentId":"31IBVUNM9TLI4WXH4UBSDS24O06FV4","hitId":"3NI0WFPPI9246I5W92FX9A3E2GN605","url":"https://gershmanlab.com/experiments/alicia/teaching/experiment/?hitId=3NI0WFPPI9246I5W92FX9A3E2GN605&workerId=AGWWUXDX6CI38&assignmentId=31IBVUNM9TLI4WXH4UBSDS24O06FV4&a=MVI19&tp_a=MVI19&b=31IBVUNM9TLI4WXH4UBSDS24O06FV4&tp_b=31IBVUNM9TLI4WXH4UBSDS24O06FV4&c=365799&tp_c=365799","heads":8,"tails":2,"studentIndex":6,"studentTrueHypers":{"a":1,"b":4},"studentGuess":0.6,"delta":0.20000000000000007,"totalExamples":10,"bonus":0,"bonusSoFar":1.2},{"rt":6614,"response":{"heads":"5","tails":"5"},"type":"response","condition":"seqNoFeedback","trueTheta":0.5,"classrooms":["C","D"],"studentTrueClassroom":"C","exampleSet":"first","trial_type":"survey-html-form","trial_index":56,"time_elapsed":277508,"internal_node_id":"0.0-55.0-0.0","params":{"nStudents":24,"maxFlips":30,"completionMinutes":45,"basePay":8,"maxBonus":9,"perTrialBonus":0.5,"perTrialBonusThreshold":0.05,"exampleCost":0.01},"classroomParams":{"A":{"a":1,"b":4},"B":{"a":4,"b":1},"C":{"a":2,"b":8},"D":{"a":8,"b":2}},"conditions":["nonSeqFull","nonSeqPartial","seqNoFeedback","seqFeedback"],"classroomPairings":[["A","B"],["C","D"]],"coinWeights":[0.2,0.5,0.8],"subjectId":"AGWWUXDX6CI38","assignmentId":"31IBVUNM9TLI4WXH4UBSDS24O06FV4","hitId":"3NI0WFPPI9246I5W92FX9A3E2GN605","url":"https://gershmanlab.com/experiments/alicia/teaching/experiment/?hitId=3NI0WFPPI9246I5W92FX9A3E2GN605&workerId=AGWWUXDX6CI38&assignmentId=31IBVUNM9TLI4WXH4UBSDS24O06FV4&a=MVI19&tp_a=MVI19&b=31IBVUNM9TLI4WXH4UBSDS24O06FV4&tp_b=31IBVUNM9TLI4WXH4UBSDS24O06FV4&c=365799&tp_c=365799","heads":5,"tails":5,"studentIndex":7,"studentTrueHypers":{"a":2,"b":8},"studentGuess":0.35,"delta":0.15000000000000002,"totalExamples":10,"bonusSoFar":1.2},{"rt":4729,"response":{"heads":"5","tails":"5"},"type":"response","condition":"seqNoFeedback","trueTheta":0.5,"classrooms":["C","D"],"studentTrueClassroom":"C","exampleSet":"second","trial_type":"survey-html-form","trial_index":59,"time_elapsed":288745,"internal_node_id":"0.0-58.0-0.0","params":{"nStudents":24,"maxFlips":30,"completionMinutes":45,"basePay":8,"maxBonus":9,"perTrialBonus":0.5,"perTrialBonusThreshold":0.05,"exampleCost":0.01},"classroomParams":{"A":{"a":1,"b":4},"B":{"a":4,"b":1},"C":{"a":2,"b":8},"D":{"a":8,"b":2}},"conditions":["nonSeqFull","nonSeqPartial","seqNoFeedback","seqFeedback"],"classroomPairings":[["A","B"],["C","D"]],"coinWeights":[0.2,0.5,0.8],"subjectId":"AGWWUXDX6CI38","assignmentId":"31IBVUNM9TLI4WXH4UBSDS24O06FV4","hitId":"3NI0WFPPI9246I5W92FX9A3E2GN605","url":"https://gershmanlab.com/experiments/alicia/teaching/experiment/?hitId=3NI0WFPPI9246I5W92FX9A3E2GN605&workerId=AGWWUXDX6CI38&assignmentId=31IBVUNM9TLI4WXH4UBSDS24O06FV4&a=MVI19&tp_a=MVI19&b=31IBVUNM9TLI4WXH4UBSDS24O06FV4&tp_b=31IBVUNM9TLI4WXH4UBSDS24O06FV4&c=365799&tp_c=365799","firstResponseHeads":5,"firstResponseTails":5,"secondResponseHeads":5,"secondResponseTails":5,"totalHeads":10,"totalTails":10,"studentIndex":7,"studentTrueHypers":{"a":2,"b":8},"studentGuess":0.4,"delta":0.09999999999999998,"bonus":0,"bonusSoFar":1.2,"totalExamples":20},{"rt":4585,"response":{"heads":"8","tails":"2"},"type":"response","condition":"seqNoFeedback","trueTheta":0.8,"classrooms":["A","B"],"studentTrueClassroom":"B","exampleSet":"first","trial_type":"survey-html-form","trial_index":65,"time_elapsed":303983,"internal_node_id":"0.0-64.0-0.0","params":{"nStudents":24,"maxFlips":30,"completionMinutes":45,"basePay":8,"maxBonus":9,"perTrialBonus":0.5,"perTrialBonusThreshold":0.05,"exampleCost":0.01},"classroomParams":{"A":{"a":1,"b":4},"B":{"a":4,"b":1},"C":{"a":2,"b":8},"D":{"a":8,"b":2}},"conditions":["nonSeqFull","nonSeqPartial","seqNoFeedback","seqFeedback"],"classroomPairings":[["A","B"],["C","D"]],"coinWeights":[0.2,0.5,0.8],"subjectId":"AGWWUXDX6CI38","assignmentId":"31IBVUNM9TLI4WXH4UBSDS24O06FV4","hitId":"3NI0WFPPI9246I5W92FX9A3E2GN605","url":"https://gershmanlab.com/experiments/alicia/teaching/experiment/?hitId=3NI0WFPPI9246I5W92FX9A3E2GN605&workerId=AGWWUXDX6CI38&assignmentId=31IBVUNM9TLI4WXH4UBSDS24O06FV4&a=MVI19&tp_a=MVI19&b=31IBVUNM9TLI4WXH4UBSDS24O06FV4&tp_b=31IBVUNM9TLI4WXH4UBSDS24O06FV4&c=365799&tp_c=365799","heads":8,"tails":2,"studentIndex":8,"studentTrueHypers":{"a":4,"b":1},"studentGuess":0.8,"delta":0,"totalExamples":10,"bonusSoFar":1.2},{"rt":4340,"response":{"heads":"8","tails":"2"},"type":"response","condition":"seqNoFeedback","trueTheta":0.8,"classrooms":["A","B"],"studentTrueClassroom":"B","exampleSet":"second","trial_type":"survey-html-form","trial_index":68,"time_elapsed":315079,"internal_node_id":"0.0-67.0-0.0","params":{"nStudents":24,"maxFlips":30,"completionMinutes":45,"basePay":8,"maxBonus":9,"perTrialBonus":0.5,"perTrialBonusThreshold":0.05,"exampleCost":0.01},"classroomParams":{"A":{"a":1,"b":4},"B":{"a":4,"b":1},"C":{"a":2,"b":8},"D":{"a":8,"b":2}},"conditions":["nonSeqFull","nonSeqPartial","seqNoFeedback","seqFeedback"],"classroomPairings":[["A","B"],["C","D"]],"coinWeights":[0.2,0.5,0.8],"subjectId":"AGWWUXDX6CI38","assignmentId":"31IBVUNM9TLI4WXH4UBSDS24O06FV4","hitId":"3NI0WFPPI9246I5W92FX9A3E2GN605","url":"https://gershmanlab.com/experiments/alicia/teaching/experiment/?hitId=3NI0WFPPI9246I5W92FX9A3E2GN605&workerId=AGWWUXDX6CI38&assignmentId=31IBVUNM9TLI4WXH4UBSDS24O06FV4&a=MVI19&tp_a=MVI19&b=31IBVUNM9TLI4WXH4UBSDS24O06FV4&tp_b=31IBVUNM9TLI4WXH4UBSDS24O06FV4&c=365799&tp_c=365799","firstResponseHeads":8,"firstResponseTails":2,"secondResponseHeads":8,"secondResponseTails":2,"totalHeads":16,"totalTails":4,"studentIndex":8,"studentTrueHypers":{"a":4,"b":1},"studentGuess":0.8,"delta":0,"bonus":0.3,"bonusSoFar":1.5,"totalExamples":20},{"rt":4284,"response":{"heads":"2","tails":"8"},"type":"response","condition":"nonSeqPartial","trueTheta":0.2,"classrooms":["C","D"],"studentTrueClassroom":"D","exampleSet":"first","trial_type":"survey-html-form","trial_index":74,"time_elapsed":331371,"internal_node_id":"0.0-73.0-0.0","params":{"nStudents":24,"maxFlips":30,"completionMinutes":45,"basePay":8,"maxBonus":9,"perTrialBonus":0.5,"perTrialBonusThreshold":0.05,"exampleCost":0.01},"classroomParams":{"A":{"a":1,"b":4},"B":{"a":4,"b":1},"C":{"a":2,"b":8},"D":{"a":8,"b":2}},"conditions":["nonSeqFull","nonSeqPartial","seqNoFeedback","seqFeedback"],"classroomPairings":[["A","B"],["C","D"]],"coinWeights":[0.2,0.5,0.8],"subjectId":"AGWWUXDX6CI38","assignmentId":"31IBVUNM9TLI4WXH4UBSDS24O06FV4","hitId":"3NI0WFPPI9246I5W92FX9A3E2GN605","url":"https://gershmanlab.com/experiments/alicia/teaching/experiment/?hitId=3NI0WFPPI9246I5W92FX9A3E2GN605&workerId=AGWWUXDX6CI38&assignmentId=31IBVUNM9TLI4WXH4UBSDS24O06FV4&a=MVI19&tp_a=MVI19&b=31IBVUNM9TLI4WXH4UBSDS24O06FV4&tp_b=31IBVUNM9TLI4WXH4UBSDS24O06FV4&c=365799&tp_c=365799","heads":2,"tails":8,"studentIndex":9,"studentTrueHypers":{"a":8,"b":2},"studentGuess":0.5,"delta":0.3,"totalExamples":10,"bonus":0,"bonusSoFar":1.5},{"rt":5692,"response":{"heads":"5","tails":"5"},"type":"response","condition":"nonSeqPartial","trueTheta":0.5,"classrooms":["C","D"],"studentTrueClassroom":"C","exampleSet":"first","trial_type":"survey-html-form","trial_index":80,"time_elapsed":347212,"internal_node_id":"0.0-79.0-0.0","params":{"nStudents":24,"maxFlips":30,"completionMinutes":45,"basePay":8,"maxBonus":9,"perTrialBonus":0.5,"perTrialBonusThreshold":0.05,"exampleCost":0.01},"classroomParams":{"A":{"a":1,"b":4},"B":{"a":4,"b":1},"C":{"a":2,"b":8},"D":{"a":8,"b":2}},"conditions":["nonSeqFull","nonSeqPartial","seqNoFeedback","seqFeedback"],"classroomPairings":[["A","B"],["C","D"]],"coinWeights":[0.2,0.5,0.8],"subjectId":"AGWWUXDX6CI38","assignmentId":"31IBVUNM9TLI4WXH4UBSDS24O06FV4","hitId":"3NI0WFPPI9246I5W92FX9A3E2GN605","url":"https://gershmanlab.com/experiments/alicia/teaching/experiment/?hitId=3NI0WFPPI9246I5W92FX9A3E2GN605&workerId=AGWWUXDX6CI38&assignmentId=31IBVUNM9TLI4WXH4UBSDS24O06FV4&a=MVI19&tp_a=MVI19&b=31IBVUNM9TLI4WXH4UBSDS24O06FV4&tp_b=31IBVUNM9TLI4WXH4UBSDS24O06FV4&c=365799&tp_c=365799","heads":5,"tails":5,"studentIndex":10,"studentTrueHypers":{"a":2,"b":8},"studentGuess":0.35,"delta":0.15000000000000002,"totalExamples":10,"bonus":0,"bonusSoFar":1.5},{"rt":4329,"response":{"heads":"5","tails":"4"},"type":"response","condition":"nonSeqFull","trueTheta":0.5,"classrooms":["A","B"],"studentTrueClassroom":"A","exampleSet":"first","trial_type":"survey-html-form","trial_index":86,"time_elapsed":362532,"internal_node_id":"0.0-85.0-0.0","params":{"nStudents":24,"maxFlips":30,"completionMinutes":45,"basePay":8,"maxBonus":9,"perTrialBonus":0.5,"perTrialBonusThreshold":0.05,"exampleCost":0.01},"classroomParams":{"A":{"a":1,"b":4},"B":{"a":4,"b":1},"C":{"a":2,"b":8},"D":{"a":8,"b":2}},"conditions":["nonSeqFull","nonSeqPartial","seqNoFeedback","seqFeedback"],"classroomPairings":[["A","B"],["C","D"]],"coinWeights":[0.2,0.5,0.8],"subjectId":"AGWWUXDX6CI38","assignmentId":"31IBVUNM9TLI4WXH4UBSDS24O06FV4","hitId":"3NI0WFPPI9246I5W92FX9A3E2GN605","url":"https://gershmanlab.com/experiments/alicia/teaching/experiment/?hitId=3NI0WFPPI9246I5W92FX9A3E2GN605&workerId=AGWWUXDX6CI38&assignmentId=31IBVUNM9TLI4WXH4UBSDS24O06FV4&a=MVI19&tp_a=MVI19&b=31IBVUNM9TLI4WXH4UBSDS24O06FV4&tp_b=31IBVUNM9TLI4WXH4UBSDS24O06FV4&c=365799&tp_c=365799","heads":5,"tails":4,"studentIndex":11,"studentTrueHypers":{"a":1,"b":4},"studentGuess":0.42857142857142855,"delta":0.07142857142857145,"totalExamples":9,"bonus":0,"bonusSoFar":1.5},{"rt":3571,"response":{"heads":"2","tails":"8"},"type":"response","condition":"nonSeqPartial","trueTheta":0.2,"classrooms":["A","B"],"studentTrueClassroom":"A","exampleSet":"first","trial_type":"survey-html-form","trial_index":92,"time_elapsed":377138,"internal_node_id":"0.0-91.0-0.0","params":{"nStudents":24,"maxFlips":30,"completionMinutes":45,"basePay":8,"maxBonus":9,"perTrialBonus":0.5,"perTrialBonusThreshold":0.05,"exampleCost":0.01},"classroomParams":{"A":{"a":1,"b":4},"B":{"a":4,"b":1},"C":{"a":2,"b":8},"D":{"a":8,"b":2}},"conditions":["nonSeqFull","nonSeqPartial","seqNoFeedback","seqFeedback"],"classroomPairings":[["A","B"],["C","D"]],"coinWeights":[0.2,0.5,0.8],"subjectId":"AGWWUXDX6CI38","assignmentId":"31IBVUNM9TLI4WXH4UBSDS24O06FV4","hitId":"3NI0WFPPI9246I5W92FX9A3E2GN605","url":"https://gershmanlab.com/experiments/alicia/teaching/experiment/?hitId=3NI0WFPPI9246I5W92FX9A3E2GN605&workerId=AGWWUXDX6CI38&assignmentId=31IBVUNM9TLI4WXH4UBSDS24O06FV4&a=MVI19&tp_a=MVI19&b=31IBVUNM9TLI4WXH4UBSDS24O06FV4&tp_b=31IBVUNM9TLI4WXH4UBSDS24O06FV4&c=365799&tp_c=365799","heads":2,"tails":8,"studentIndex":12,"studentTrueHypers":{"a":1,"b":4},"studentGuess":0.2,"delta":0,"totalExamples":10,"bonus":0.4,"bonusSoFar":1.9},{"rt":3728,"response":{"heads":"8","tails":"2"},"type":"response","condition":"nonSeqPartial","trueTheta":0.8,"classrooms":["A","B"],"studentTrueClassroom":"B","exampleSet":"first","trial_type":"survey-html-form","trial_index":98,"time_elapsed":392836,"internal_node_id":"0.0-97.0-0.0","params":{"nStudents":24,"maxFlips":30,"completionMinutes":45,"basePay":8,"maxBonus":9,"perTrialBonus":0.5,"perTrialBonusThreshold":0.05,"exampleCost":0.01},"classroomParams":{"A":{"a":1,"b":4},"B":{"a":4,"b":1},"C":{"a":2,"b":8},"D":{"a":8,"b":2}},"conditions":["nonSeqFull","nonSeqPartial","seqNoFeedback","seqFeedback"],"classroomPairings":[["A","B"],["C","D"]],"coinWeights":[0.2,0.5,0.8],"subjectId":"AGWWUXDX6CI38","assignmentId":"31IBVUNM9TLI4WXH4UBSDS24O06FV4","hitId":"3NI0WFPPI9246I5W92FX9A3E2GN605","url":"https://gershmanlab.com/experiments/alicia/teaching/experiment/?hitId=3NI0WFPPI9246I5W92FX9A3E2GN605&workerId=AGWWUXDX6CI38&assignmentId=31IBVUNM9TLI4WXH4UBSDS24O06FV4&a=MVI19&tp_a=MVI19&b=31IBVUNM9TLI4WXH4UBSDS24O06FV4&tp_b=31IBVUNM9TLI4WXH4UBSDS24O06FV4&c=365799&tp_c=365799","heads":8,"tails":2,"studentIndex":13,"studentTrueHypers":{"a":4,"b":1},"studentGuess":0.8,"delta":0,"totalExamples":10,"bonus":0.4,"bonusSoFar":2.3},{"rt":3247,"response":{"heads":"8","tails":"2"},"type":"response","condition":"seqFeedback","trueTheta":0.8,"classrooms":["C","D"],"studentTrueClassroom":"C","exampleSet":"first","trial_type":"survey-html-form","trial_index":104,"time_elapsed":408395,"internal_node_id":"0.0-103.0-0.0","params":{"nStudents":24,"maxFlips":30,"completionMinutes":45,"basePay":8,"maxBonus":9,"perTrialBonus":0.5,"perTrialBonusThreshold":0.05,"exampleCost":0.01},"classroomParams":{"A":{"a":1,"b":4},"B":{"a":4,"b":1},"C":{"a":2,"b":8},"D":{"a":8,"b":2}},"conditions":["nonSeqFull","nonSeqPartial","seqNoFeedback","seqFeedback"],"classroomPairings":[["A","B"],["C","D"]],"coinWeights":[0.2,0.5,0.8],"subjectId":"AGWWUXDX6CI38","assignmentId":"31IBVUNM9TLI4WXH4UBSDS24O06FV4","hitId":"3NI0WFPPI9246I5W92FX9A3E2GN605","url":"https://gershmanlab.com/experiments/alicia/teaching/experiment/?hitId=3NI0WFPPI9246I5W92FX9A3E2GN605&workerId=AGWWUXDX6CI38&assignmentId=31IBVUNM9TLI4WXH4UBSDS24O06FV4&a=MVI19&tp_a=MVI19&b=31IBVUNM9TLI4WXH4UBSDS24O06FV4&tp_b=31IBVUNM9TLI4WXH4UBSDS24O06FV4&c=365799&tp_c=365799","heads":8,"tails":2,"studentIndex":14,"studentTrueHypers":{"a":2,"b":8},"studentGuess":0.5,"delta":0.30000000000000004,"totalExamples":10,"bonusSoFar":2.3},{"rt":4075,"response":{"heads":"8","tails":"2"},"type":"response","condition":"seqFeedback","trueTheta":0.8,"classrooms":["C","D"],"studentTrueClassroom":"C","exampleSet":"second","trial_type":"survey-html-form","trial_index":108,"time_elapsed":421237,"internal_node_id":"0.0-107.0-0.0","params":{"nStudents":24,"maxFlips":30,"completionMinutes":45,"basePay":8,"maxBonus":9,"perTrialBonus":0.5,"perTrialBonusThreshold":0.05,"exampleCost":0.01},"classroomParams":{"A":{"a":1,"b":4},"B":{"a":4,"b":1},"C":{"a":2,"b":8},"D":{"a":8,"b":2}},"conditions":["nonSeqFull","nonSeqPartial","seqNoFeedback","seqFeedback"],"classroomPairings":[["A","B"],["C","D"]],"coinWeights":[0.2,0.5,0.8],"subjectId":"AGWWUXDX6CI38","assignmentId":"31IBVUNM9TLI4WXH4UBSDS24O06FV4","hitId":"3NI0WFPPI9246I5W92FX9A3E2GN605","url":"https://gershmanlab.com/experiments/alicia/teaching/experiment/?hitId=3NI0WFPPI9246I5W92FX9A3E2GN605&workerId=AGWWUXDX6CI38&assignmentId=31IBVUNM9TLI4WXH4UBSDS24O06FV4&a=MVI19&tp_a=MVI19&b=31IBVUNM9TLI4WXH4UBSDS24O06FV4&tp_b=31IBVUNM9TLI4WXH4UBSDS24O06FV4&c=365799&tp_c=365799","firstResponseHeads":8,"firstResponseTails":2,"secondResponseHeads":8,"secondResponseTails":2,"totalHeads":16,"totalTails":4,"studentIndex":14,"studentTrueHypers":{"a":2,"b":8},"studentGuess":0.6,"delta":0.20000000000000007,"bonus":0,"bonusSoFar":2.3,"totalExamples":20},{"rt":3359,"response":{"heads":"2","tails":"8"},"type":"response","condition":"seqFeedback","trueTheta":0.2,"classrooms":["C","D"],"studentTrueClassroom":"C","exampleSet":"first","trial_type":"survey-html-form","trial_index":114,"time_elapsed":435317,"internal_node_id":"0.0-113.0-0.0","params":{"nStudents":24,"maxFlips":30,"completionMinutes":45,"basePay":8,"maxBonus":9,"perTrialBonus":0.5,"perTrialBonusThreshold":0.05,"exampleCost":0.01},"classroomParams":{"A":{"a":1,"b":4},"B":{"a":4,"b":1},"C":{"a":2,"b":8},"D":{"a":8,"b":2}},"conditions":["nonSeqFull","nonSeqPartial","seqNoFeedback","seqFeedback"],"classroomPairings":[["A","B"],["C","D"]],"coinWeights":[0.2,0.5,0.8],"subjectId":"AGWWUXDX6CI38","assignmentId":"31IBVUNM9TLI4WXH4UBSDS24O06FV4","hitId":"3NI0WFPPI9246I5W92FX9A3E2GN605","url":"https://gershmanlab.com/experiments/alicia/teaching/experiment/?hitId=3NI0WFPPI9246I5W92FX9A3E2GN605&workerId=AGWWUXDX6CI38&assignmentId=31IBVUNM9TLI4WXH4UBSDS24O06FV4&a=MVI19&tp_a=MVI19&b=31IBVUNM9TLI4WXH4UBSDS24O06FV4&tp_b=31IBVUNM9TLI4WXH4UBSDS24O06FV4&c=365799&tp_c=365799","heads":2,"tails":8,"studentIndex":15,"studentTrueHypers":{"a":2,"b":8},"studentGuess":0.2,"delta":0,"totalExamples":10,"bonusSoFar":2.3},{"rt":4154,"response":{"heads":"2","tails":"8"},"type":"response","condition":"seqFeedback","trueTheta":0.2,"classrooms":["C","D"],"studentTrueClassroom":"C","exampleSet":"second","trial_type":"survey-html-form","trial_index":118,"time_elapsed":446631,"internal_node_id":"0.0-117.0-0.0","params":{"nStudents":24,"maxFlips":30,"completionMinutes":45,"basePay":8,"maxBonus":9,"perTrialBonus":0.5,"perTrialBonusThreshold":0.05,"exampleCost":0.01},"classroomParams":{"A":{"a":1,"b":4},"B":{"a":4,"b":1},"C":{"a":2,"b":8},"D":{"a":8,"b":2}},"conditions":["nonSeqFull","nonSeqPartial","seqNoFeedback","seqFeedback"],"classroomPairings":[["A","B"],["C","D"]],"coinWeights":[0.2,0.5,0.8],"subjectId":"AGWWUXDX6CI38","assignmentId":"31IBVUNM9TLI4WXH4UBSDS24O06FV4","hitId":"3NI0WFPPI9246I5W92FX9A3E2GN605","url":"https://gershmanlab.com/experiments/alicia/teaching/experiment/?hitId=3NI0WFPPI9246I5W92FX9A3E2GN605&workerId=AGWWUXDX6CI38&assignmentId=31IBVUNM9TLI4WXH4UBSDS24O06FV4&a=MVI19&tp_a=MVI19&b=31IBVUNM9TLI4WXH4UBSDS24O06FV4&tp_b=31IBVUNM9TLI4WXH4UBSDS24O06FV4&c=365799&tp_c=365799","firstResponseHeads":2,"firstResponseTails":8,"secondResponseHeads":2,"secondResponseTails":8,"totalHeads":4,"totalTails":16,"studentIndex":15,"studentTrueHypers":{"a":2,"b":8},"studentGuess":0.2,"delta":0,"bonus":0.3,"bonusSoFar":2.6,"totalExamples":20},{"rt":3631,"response":{"heads":"2","tails":"8"},"type":"response","condition":"seqNoFeedback","trueTheta":0.2,"classrooms":["C","D"],"studentTrueClassroom":"C","exampleSet":"first","trial_type":"survey-html-form","trial_index":124,"time_elapsed":460353,"internal_node_id":"0.0-123.0-0.0","params":{"nStudents":24,"maxFlips":30,"completionMinutes":45,"basePay":8,"maxBonus":9,"perTrialBonus":0.5,"perTrialBonusThreshold":0.05,"exampleCost":0.01},"classroomParams":{"A":{"a":1,"b":4},"B":{"a":4,"b":1},"C":{"a":2,"b":8},"D":{"a":8,"b":2}},"conditions":["nonSeqFull","nonSeqPartial","seqNoFeedback","seqFeedback"],"classroomPairings":[["A","B"],["C","D"]],"coinWeights":[0.2,0.5,0.8],"subjectId":"AGWWUXDX6CI38","assignmentId":"31IBVUNM9TLI4WXH4UBSDS24O06FV4","hitId":"3NI0WFPPI9246I5W92FX9A3E2GN605","url":"https://gershmanlab.com/experiments/alicia/teaching/experiment/?hitId=3NI0WFPPI9246I5W92FX9A3E2GN605&workerId=AGWWUXDX6CI38&assignmentId=31IBVUNM9TLI4WXH4UBSDS24O06FV4&a=MVI19&tp_a=MVI19&b=31IBVUNM9TLI4WXH4UBSDS24O06FV4&tp_b=31IBVUNM9TLI4WXH4UBSDS24O06FV4&c=365799&tp_c=365799","heads":2,"tails":8,"studentIndex":16,"studentTrueHypers":{"a":2,"b":8},"studentGuess":0.2,"delta":0,"totalExamples":10,"bonusSoFar":2.6},{"rt":4010,"response":{"heads":"2","tails":"8"},"type":"response","condition":"seqNoFeedback","trueTheta":0.2,"classrooms":["C","D"],"studentTrueClassroom":"C","exampleSet":"second","trial_type":"survey-html-form","trial_index":127,"time_elapsed":471368,"internal_node_id":"0.0-126.0-0.0","params":{"nStudents":24,"maxFlips":30,"completionMinutes":45,"basePay":8,"maxBonus":9,"perTrialBonus":0.5,"perTrialBonusThreshold":0.05,"exampleCost":0.01},"classroomParams":{"A":{"a":1,"b":4},"B":{"a":4,"b":1},"C":{"a":2,"b":8},"D":{"a":8,"b":2}},"conditions":["nonSeqFull","nonSeqPartial","seqNoFeedback","seqFeedback"],"classroomPairings":[["A","B"],["C","D"]],"coinWeights":[0.2,0.5,0.8],"subjectId":"AGWWUXDX6CI38","assignmentId":"31IBVUNM9TLI4WXH4UBSDS24O06FV4","hitId":"3NI0WFPPI9246I5W92FX9A3E2GN605","url":"https://gershmanlab.com/experiments/alicia/teaching/experiment/?hitId=3NI0WFPPI9246I5W92FX9A3E2GN605&workerId=AGWWUXDX6CI38&assignmentId=31IBVUNM9TLI4WXH4UBSDS24O06FV4&a=MVI19&tp_a=MVI19&b=31IBVUNM9TLI4WXH4UBSDS24O06FV4&tp_b=31IBVUNM9TLI4WXH4UBSDS24O06FV4&c=365799&tp_c=365799","firstResponseHeads":2,"firstResponseTails":8,"secondResponseHeads":2,"secondResponseTails":8,"totalHeads":4,"totalTails":16,"studentIndex":16,"studentTrueHypers":{"a":2,"b":8},"studentGuess":0.2,"delta":0,"bonus":0.3,"bonusSoFar":2.9,"totalExamples":20},{"rt":3576,"response":{"heads":"2","tails":"8"},"type":"response","condition":"seqFeedback","trueTheta":0.2,"classrooms":["A","B"],"studentTrueClassroom":"A","exampleSet":"first","trial_type":"survey-html-form","trial_index":133,"time_elapsed":485146,"internal_node_id":"0.0-132.0-0.0","params":{"nStudents":24,"maxFlips":30,"completionMinutes":45,"basePay":8,"maxBonus":9,"perTrialBonus":0.5,"perTrialBonusThreshold":0.05,"exampleCost":0.01},"classroomParams":{"A":{"a":1,"b":4},"B":{"a":4,"b":1},"C":{"a":2,"b":8},"D":{"a":8,"b":2}},"conditions":["nonSeqFull","nonSeqPartial","seqNoFeedback","seqFeedback"],"classroomPairings":[["A","B"],["C","D"]],"coinWeights":[0.2,0.5,0.8],"subjectId":"AGWWUXDX6CI38","assignmentId":"31IBVUNM9TLI4WXH4UBSDS24O06FV4","hitId":"3NI0WFPPI9246I5W92FX9A3E2GN605","url":"https://gershmanlab.com/experiments/alicia/teaching/experiment/?hitId=3NI0WFPPI9246I5W92FX9A3E2GN605&workerId=AGWWUXDX6CI38&assignmentId=31IBVUNM9TLI4WXH4UBSDS24O06FV4&a=MVI19&tp_a=MVI19&b=31IBVUNM9TLI4WXH4UBSDS24O06FV4&tp_b=31IBVUNM9TLI4WXH4UBSDS24O06FV4&c=365799&tp_c=365799","heads":2,"tails":8,"studentIndex":17,"studentTrueHypers":{"a":1,"b":4},"studentGuess":0.2,"delta":0,"totalExamples":10,"bonusSoFar":2.9},{"rt":3941,"response":{"heads":"2","tails":"8"},"type":"response","condition":"seqFeedback","trueTheta":0.2,"classrooms":["A","B"],"studentTrueClassroom":"A","exampleSet":"second","trial_type":"survey-html-form","trial_index":137,"time_elapsed":496625,"internal_node_id":"0.0-136.0-0.0","params":{"nStudents":24,"maxFlips":30,"completionMinutes":45,"basePay":8,"maxBonus":9,"perTrialBonus":0.5,"perTrialBonusThreshold":0.05,"exampleCost":0.01},"classroomParams":{"A":{"a":1,"b":4},"B":{"a":4,"b":1},"C":{"a":2,"b":8},"D":{"a":8,"b":2}},"conditions":["nonSeqFull","nonSeqPartial","seqNoFeedback","seqFeedback"],"classroomPairings":[["A","B"],["C","D"]],"coinWeights":[0.2,0.5,0.8],"subjectId":"AGWWUXDX6CI38","assignmentId":"31IBVUNM9TLI4WXH4UBSDS24O06FV4","hitId":"3NI0WFPPI9246I5W92FX9A3E2GN605","url":"https://gershmanlab.com/experiments/alicia/teaching/experiment/?hitId=3NI0WFPPI9246I5W92FX9A3E2GN605&workerId=AGWWUXDX6CI38&assignmentId=31IBVUNM9TLI4WXH4UBSDS24O06FV4&a=MVI19&tp_a=MVI19&b=31IBVUNM9TLI4WXH4UBSDS24O06FV4&tp_b=31IBVUNM9TLI4WXH4UBSDS24O06FV4&c=365799&tp_c=365799","firstResponseHeads":2,"firstResponseTails":8,"secondResponseHeads":2,"secondResponseTails":8,"totalHeads":4,"totalTails":16,"studentIndex":17,"studentTrueHypers":{"a":1,"b":4},"studentGuess":0.2,"delta":0,"bonus":0.3,"bonusSoFar":3.2,"totalExamples":20},{"rt":3263,"response":{"heads":"5","tails":"5"},"type":"response","condition":"nonSeqFull","trueTheta":0.5,"classrooms":["C","D"],"studentTrueClassroom":"C","exampleSet":"first","trial_type":"survey-html-form","trial_index":143,"time_elapsed":512952,"internal_node_id":"0.0-142.0-0.0","params":{"nStudents":24,"maxFlips":30,"completionMinutes":45,"basePay":8,"maxBonus":9,"perTrialBonus":0.5,"perTrialBonusThreshold":0.05,"exampleCost":0.01},"classroomParams":{"A":{"a":1,"b":4},"B":{"a":4,"b":1},"C":{"a":2,"b":8},"D":{"a":8,"b":2}},"conditions":["nonSeqFull","nonSeqPartial","seqNoFeedback","seqFeedback"],"classroomPairings":[["A","B"],["C","D"]],"coinWeights":[0.2,0.5,0.8],"subjectId":"AGWWUXDX6CI38","assignmentId":"31IBVUNM9TLI4WXH4UBSDS24O06FV4","hitId":"3NI0WFPPI9246I5W92FX9A3E2GN605","url":"https://gershmanlab.com/experiments/alicia/teaching/experiment/?hitId=3NI0WFPPI9246I5W92FX9A3E2GN605&workerId=AGWWUXDX6CI38&assignmentId=31IBVUNM9TLI4WXH4UBSDS24O06FV4&a=MVI19&tp_a=MVI19&b=31IBVUNM9TLI4WXH4UBSDS24O06FV4&tp_b=31IBVUNM9TLI4WXH4UBSDS24O06FV4&c=365799&tp_c=365799","heads":5,"tails":5,"studentIndex":18,"studentTrueHypers":{"a":2,"b":8},"studentGuess":0.35,"delta":0.15000000000000002,"totalExamples":10,"bonus":0,"bonusSoFar":3.2},{"rt":3415,"response":{"heads":"5","tails":"5"},"type":"response","condition":"seqFeedback","trueTheta":0.5,"classrooms":["C","D"],"studentTrueClassroom":"D","exampleSet":"first","trial_type":"survey-html-form","trial_index":149,"time_elapsed":525812,"internal_node_id":"0.0-148.0-0.0","params":{"nStudents":24,"maxFlips":30,"completionMinutes":45,"basePay":8,"maxBonus":9,"perTrialBonus":0.5,"perTrialBonusThreshold":0.05,"exampleCost":0.01},"classroomParams":{"A":{"a":1,"b":4},"B":{"a":4,"b":1},"C":{"a":2,"b":8},"D":{"a":8,"b":2}},"conditions":["nonSeqFull","nonSeqPartial","seqNoFeedback","seqFeedback"],"classroomPairings":[["A","B"],["C","D"]],"coinWeights":[0.2,0.5,0.8],"subjectId":"AGWWUXDX6CI38","assignmentId":"31IBVUNM9TLI4WXH4UBSDS24O06FV4","hitId":"3NI0WFPPI9246I5W92FX9A3E2GN605","url":"https://gershmanlab.com/experiments/alicia/teaching/experiment/?hitId=3NI0WFPPI9246I5W92FX9A3E2GN605&workerId=AGWWUXDX6CI38&assignmentId=31IBVUNM9TLI4WXH4UBSDS24O06FV4&a=MVI19&tp_a=MVI19&b=31IBVUNM9TLI4WXH4UBSDS24O06FV4&tp_b=31IBVUNM9TLI4WXH4UBSDS24O06FV4&c=365799&tp_c=365799","heads":5,"tails":5,"studentIndex":19,"studentTrueHypers":{"a":8,"b":2},"studentGuess":0.65,"delta":0.15000000000000002,"totalExamples":10,"bonusSoFar":3.2},{"rt":4330,"response":{"heads":"5","tails":"4"},"type":"response","condition":"seqFeedback","trueTheta":0.5,"classrooms":["C","D"],"studentTrueClassroom":"D","exampleSet":"second","trial_type":"survey-html-form","trial_index":153,"time_elapsed":537206,"internal_node_id":"0.0-152.0-0.0","params":{"nStudents":24,"maxFlips":30,"completionMinutes":45,"basePay":8,"maxBonus":9,"perTrialBonus":0.5,"perTrialBonusThreshold":0.05,"exampleCost":0.01},"classroomParams":{"A":{"a":1,"b":4},"B":{"a":4,"b":1},"C":{"a":2,"b":8},"D":{"a":8,"b":2}},"conditions":["nonSeqFull","nonSeqPartial","seqNoFeedback","seqFeedback"],"classroomPairings":[["A","B"],["C","D"]],"coinWeights":[0.2,0.5,0.8],"subjectId":"AGWWUXDX6CI38","assignmentId":"31IBVUNM9TLI4WXH4UBSDS24O06FV4","hitId":"3NI0WFPPI9246I5W92FX9A3E2GN605","url":"https://gershmanlab.com/experiments/alicia/teaching/experiment/?hitId=3NI0WFPPI9246I5W92FX9A3E2GN605&workerId=AGWWUXDX6CI38&assignmentId=31IBVUNM9TLI4WXH4UBSDS24O06FV4&a=MVI19&tp_a=MVI19&b=31IBVUNM9TLI4WXH4UBSDS24O06FV4&tp_b=31IBVUNM9TLI4WXH4UBSDS24O06FV4&c=365799&tp_c=365799","firstResponseHeads":5,"firstResponseTails":5,"secondResponseHeads":5,"secondResponseTails":4,"totalHeads":10,"totalTails":9,"studentIndex":19,"studentTrueHypers":{"a":8,"b":2},"studentGuess":0.6206896551724138,"delta":0.12068965517241381,"bonus":0,"bonusSoFar":3.2,"totalExamples":19},{"rt":3919,"response":{"heads":"5","tails":"4"},"type":"response","condition":"seqFeedback","trueTheta":0.5,"classrooms":["A","B"],"studentTrueClassroom":"B","exampleSet":"first","trial_type":"survey-html-form","trial_index":159,"time_elapsed":552735,"internal_node_id":"0.0-158.0-0.0","params":{"nStudents":24,"maxFlips":30,"completionMinutes":45,"basePay":8,"maxBonus":9,"perTrialBonus":0.5,"perTrialBonusThreshold":0.05,"exampleCost":0.01},"classroomParams":{"A":{"a":1,"b":4},"B":{"a":4,"b":1},"C":{"a":2,"b":8},"D":{"a":8,"b":2}},"conditions":["nonSeqFull","nonSeqPartial","seqNoFeedback","seqFeedback"],"classroomPairings":[["A","B"],["C","D"]],"coinWeights":[0.2,0.5,0.8],"subjectId":"AGWWUXDX6CI38","assignmentId":"31IBVUNM9TLI4WXH4UBSDS24O06FV4","hitId":"3NI0WFPPI9246I5W92FX9A3E2GN605","url":"https://gershmanlab.com/experiments/alicia/teaching/experiment/?hitId=3NI0WFPPI9246I5W92FX9A3E2GN605&workerId=AGWWUXDX6CI38&assignmentId=31IBVUNM9TLI4WXH4UBSDS24O06FV4&a=MVI19&tp_a=MVI19&b=31IBVUNM9TLI4WXH4UBSDS24O06FV4&tp_b=31IBVUNM9TLI4WXH4UBSDS24O06FV4&c=365799&tp_c=365799","heads":5,"tails":4,"studentIndex":20,"studentTrueHypers":{"a":4,"b":1},"studentGuess":0.6428571428571429,"delta":0.1428571428571429,"totalExamples":9,"bonusSoFar":3.2},{"rt":4215,"response":{"heads":"5","tails":"5"},"type":"response","condition":"seqFeedback","trueTheta":0.5,"classrooms":["A","B"],"studentTrueClassroom":"B","exampleSet":"second","trial_type":"survey-html-form","trial_index":163,"time_elapsed":565421,"internal_node_id":"0.0-162.0-0.0","params":{"nStudents":24,"maxFlips":30,"completionMinutes":45,"basePay":8,"maxBonus":9,"perTrialBonus":0.5,"perTrialBonusThreshold":0.05,"exampleCost":0.01},"classroomParams":{"A":{"a":1,"b":4},"B":{"a":4,"b":1},"C":{"a":2,"b":8},"D":{"a":8,"b":2}},"conditions":["nonSeqFull","nonSeqPartial","seqNoFeedback","seqFeedback"],"classroomPairings":[["A","B"],["C","D"]],"coinWeights":[0.2,0.5,0.8],"subjectId":"AGWWUXDX6CI38","assignmentId":"31IBVUNM9TLI4WXH4UBSDS24O06FV4","hitId":"3NI0WFPPI9246I5W92FX9A3E2GN605","url":"https://gershmanlab.com/experiments/alicia/teaching/experiment/?hitId=3NI0WFPPI9246I5W92FX9A3E2GN605&workerId=AGWWUXDX6CI38&assignmentId=31IBVUNM9TLI4WXH4UBSDS24O06FV4&a=MVI19&tp_a=MVI19&b=31IBVUNM9TLI4WXH4UBSDS24O06FV4&tp_b=31IBVUNM9TLI4WXH4UBSDS24O06FV4&c=365799&tp_c=365799","firstResponseHeads":5,"firstResponseTails":4,"secondResponseHeads":5,"secondResponseTails":5,"totalHeads":10,"totalTails":9,"studentIndex":20,"studentTrueHypers":{"a":4,"b":1},"studentGuess":0.5833333333333334,"delta":0.08333333333333337,"bonus":0,"bonusSoFar":3.2,"totalExamples":19},{"rt":3572,"response":{"heads":"2","tails":"8"},"type":"response","condition":"seqNoFeedback","trueTheta":0.2,"classrooms":["A","B"],"studentTrueClassroom":"B","exampleSet":"first","trial_type":"survey-html-form","trial_index":169,"time_elapsed":579065,"internal_node_id":"0.0-168.0-0.0","params":{"nStudents":24,"maxFlips":30,"completionMinutes":45,"basePay":8,"maxBonus":9,"perTrialBonus":0.5,"perTrialBonusThreshold":0.05,"exampleCost":0.01},"classroomParams":{"A":{"a":1,"b":4},"B":{"a":4,"b":1},"C":{"a":2,"b":8},"D":{"a":8,"b":2}},"conditions":["nonSeqFull","nonSeqPartial","seqNoFeedback","seqFeedback"],"classroomPairings":[["A","B"],["C","D"]],"coinWeights":[0.2,0.5,0.8],"subjectId":"AGWWUXDX6CI38","assignmentId":"31IBVUNM9TLI4WXH4UBSDS24O06FV4","hitId":"3NI0WFPPI9246I5W92FX9A3E2GN605","url":"https://gershmanlab.com/experiments/alicia/teaching/experiment/?hitId=3NI0WFPPI9246I5W92FX9A3E2GN605&workerId=AGWWUXDX6CI38&assignmentId=31IBVUNM9TLI4WXH4UBSDS24O06FV4&a=MVI19&tp_a=MVI19&b=31IBVUNM9TLI4WXH4UBSDS24O06FV4&tp_b=31IBVUNM9TLI4WXH4UBSDS24O06FV4&c=365799&tp_c=365799","heads":2,"tails":8,"studentIndex":21,"studentTrueHypers":{"a":4,"b":1},"studentGuess":0.4,"delta":0.2,"totalExamples":10,"bonusSoFar":3.2},{"rt":3803,"response":{"heads":"2","tails":"8"},"type":"response","condition":"seqNoFeedback","trueTheta":0.2,"classrooms":["A","B"],"studentTrueClassroom":"B","exampleSet":"second","trial_type":"survey-html-form","trial_index":172,"time_elapsed":589875,"internal_node_id":"0.0-171.0-0.0","params":{"nStudents":24,"maxFlips":30,"completionMinutes":45,"basePay":8,"maxBonus":9,"perTrialBonus":0.5,"perTrialBonusThreshold":0.05,"exampleCost":0.01},"classroomParams":{"A":{"a":1,"b":4},"B":{"a":4,"b":1},"C":{"a":2,"b":8},"D":{"a":8,"b":2}},"conditions":["nonSeqFull","nonSeqPartial","seqNoFeedback","seqFeedback"],"classroomPairings":[["A","B"],["C","D"]],"coinWeights":[0.2,0.5,0.8],"subjectId":"AGWWUXDX6CI38","assignmentId":"31IBVUNM9TLI4WXH4UBSDS24O06FV4","hitId":"3NI0WFPPI9246I5W92FX9A3E2GN605","url":"https://gershmanlab.com/experiments/alicia/teaching/experiment/?hitId=3NI0WFPPI9246I5W92FX9A3E2GN605&workerId=AGWWUXDX6CI38&assignmentId=31IBVUNM9TLI4WXH4UBSDS24O06FV4&a=MVI19&tp_a=MVI19&b=31IBVUNM9TLI4WXH4UBSDS24O06FV4&tp_b=31IBVUNM9TLI4WXH4UBSDS24O06FV4&c=365799&tp_c=365799","firstResponseHeads":2,"firstResponseTails":8,"secondResponseHeads":2,"secondResponseTails":8,"totalHeads":4,"totalTails":16,"studentIndex":21,"studentTrueHypers":{"a":4,"b":1},"studentGuess":0.32,"delta":0.12,"bonus":0,"bonusSoFar":3.2,"totalExamples":20},{"rt":3661,"response":{"heads":"8","tails":"2"},"type":"response","condition":"seqNoFeedback","trueTheta":0.8,"classrooms":["C","D"],"studentTrueClassroom":"D","exampleSet":"first","trial_type":"survey-html-form","trial_index":178,"time_elapsed":604116,"internal_node_id":"0.0-177.0-0.0","params":{"nStudents":24,"maxFlips":30,"completionMinutes":45,"basePay":8,"maxBonus":9,"perTrialBonus":0.5,"perTrialBonusThreshold":0.05,"exampleCost":0.01},"classroomParams":{"A":{"a":1,"b":4},"B":{"a":4,"b":1},"C":{"a":2,"b":8},"D":{"a":8,"b":2}},"conditions":["nonSeqFull","nonSeqPartial","seqNoFeedback","seqFeedback"],"classroomPairings":[["A","B"],["C","D"]],"coinWeights":[0.2,0.5,0.8],"subjectId":"AGWWUXDX6CI38","assignmentId":"31IBVUNM9TLI4WXH4UBSDS24O06FV4","hitId":"3NI0WFPPI9246I5W92FX9A3E2GN605","url":"https://gershmanlab.com/experiments/alicia/teaching/experiment/?hitId=3NI0WFPPI9246I5W92FX9A3E2GN605&workerId=AGWWUXDX6CI38&assignmentId=31IBVUNM9TLI4WXH4UBSDS24O06FV4&a=MVI19&tp_a=MVI19&b=31IBVUNM9TLI4WXH4UBSDS24O06FV4&tp_b=31IBVUNM9TLI4WXH4UBSDS24O06FV4&c=365799&tp_c=365799","heads":8,"tails":2,"studentIndex":22,"studentTrueHypers":{"a":8,"b":2},"studentGuess":0.8,"delta":0,"totalExamples":10,"bonusSoFar":3.2},{"rt":4798,"response":{"heads":"8","tails":"2"},"type":"response","condition":"seqNoFeedback","trueTheta":0.8,"classrooms":["C","D"],"studentTrueClassroom":"D","exampleSet":"second","trial_type":"survey-html-form","trial_index":181,"time_elapsed":616172,"internal_node_id":"0.0-180.0-0.0","params":{"nStudents":24,"maxFlips":30,"completionMinutes":45,"basePay":8,"maxBonus":9,"perTrialBonus":0.5,"perTrialBonusThreshold":0.05,"exampleCost":0.01},"classroomParams":{"A":{"a":1,"b":4},"B":{"a":4,"b":1},"C":{"a":2,"b":8},"D":{"a":8,"b":2}},"conditions":["nonSeqFull","nonSeqPartial","seqNoFeedback","seqFeedback"],"classroomPairings":[["A","B"],["C","D"]],"coinWeights":[0.2,0.5,0.8],"subjectId":"AGWWUXDX6CI38","assignmentId":"31IBVUNM9TLI4WXH4UBSDS24O06FV4","hitId":"3NI0WFPPI9246I5W92FX9A3E2GN605","url":"https://gershmanlab.com/experiments/alicia/teaching/experiment/?hitId=3NI0WFPPI9246I5W92FX9A3E2GN605&workerId=AGWWUXDX6CI38&assignmentId=31IBVUNM9TLI4WXH4UBSDS24O06FV4&a=MVI19&tp_a=MVI19&b=31IBVUNM9TLI4WXH4UBSDS24O06FV4&tp_b=31IBVUNM9TLI4WXH4UBSDS24O06FV4&c=365799&tp_c=365799","firstResponseHeads":8,"firstResponseTails":2,"secondResponseHeads":8,"secondResponseTails":2,"totalHeads":16,"totalTails":4,"studentIndex":22,"studentTrueHypers":{"a":8,"b":2},"studentGuess":0.8,"delta":0,"bonus":0.3,"bonusSoFar":3.5,"totalExamples":20},{"rt":5709,"response":{"heads":"5","tails":"5"},"type":"response","condition":"nonSeqPartial","trueTheta":0.5,"classrooms":["A","B"],"studentTrueClassroom":"B","exampleSet":"first","trial_type":"survey-html-form","trial_index":187,"time_elapsed":632759,"internal_node_id":"0.0-186.0-0.0","params":{"nStudents":24,"maxFlips":30,"completionMinutes":45,"basePay":8,"maxBonus":9,"perTrialBonus":0.5,"perTrialBonusThreshold":0.05,"exampleCost":0.01},"classroomParams":{"A":{"a":1,"b":4},"B":{"a":4,"b":1},"C":{"a":2,"b":8},"D":{"a":8,"b":2}},"conditions":["nonSeqFull","nonSeqPartial","seqNoFeedback","seqFeedback"],"classroomPairings":[["A","B"],["C","D"]],"coinWeights":[0.2,0.5,0.8],"subjectId":"AGWWUXDX6CI38","assignmentId":"31IBVUNM9TLI4WXH4UBSDS24O06FV4","hitId":"3NI0WFPPI9246I5W92FX9A3E2GN605","url":"https://gershmanlab.com/experiments/alicia/teaching/experiment/?hitId=3NI0WFPPI9246I5W92FX9A3E2GN605&workerId=AGWWUXDX6CI38&assignmentId=31IBVUNM9TLI4WXH4UBSDS24O06FV4&a=MVI19&tp_a=MVI19&b=31IBVUNM9TLI4WXH4UBSDS24O06FV4&tp_b=31IBVUNM9TLI4WXH4UBSDS24O06FV4&c=365799&tp_c=365799","heads":5,"tails":5,"studentIndex":23,"studentTrueHypers":{"a":4,"b":1},"studentGuess":0.6,"delta":0.09999999999999998,"totalExamples":10,"bonus":0,"bonusSoFar":3.5},{"rt":7837,"response":{"gender":"female","age":"24","understood":"yes","comments":""},"type":"response","trial_type":"survey-html-form","trial_index":191,"time_elapsed":649269,"internal_node_id":"0.0-191.0","params":{"nStudents":24,"maxFlips":30,"completionMinutes":45,"basePay":8,"maxBonus":9,"perTrialBonus":0.5,"perTrialBonusThreshold":0.05,"exampleCost":0.01},"classroomParams":{"A":{"a":1,"b":4},"B":{"a":4,"b":1},"C":{"a":2,"b":8},"D":{"a":8,"b":2}},"conditions":["nonSeqFull","nonSeqPartial","seqNoFeedback","seqFeedback"],"classroomPairings":[["A","B"],["C","D"]],"coinWeights":[0.2,0.5,0.8],"subjectId":"AGWWUXDX6CI38","assignmentId":"31IBVUNM9TLI4WXH4UBSDS24O06FV4","hitId":"3NI0WFPPI9246I5W92FX9A3E2GN605","url":"https://gershmanlab.com/experiments/alicia/teaching/experiment/?hitId=3NI0WFPPI9246I5W92FX9A3E2GN605&workerId=AGWWUXDX6CI38&assignmentId=31IBVUNM9TLI4WXH4UBSDS24O06FV4&a=MVI19&tp_a=MVI19&b=31IBVUNM9TLI4WXH4UBSDS24O06FV4&tp_b=31IBVUNM9TLI4WXH4UBSDS24O06FV4&c=365799&tp_c=365799","totalBonus":3.5}]