[{"rt":41058,"response":{"heads":"4","tails":"1"},"type":"response","condition":"seqFeedback","trueTheta":0.8,"classrooms":["A","B"],"studentTrueClassroom":"B","exampleSet":"first","trial_type":"survey-html-form","trial_index":16,"time_elapsed":631962,"internal_node_id":"0.0-6.0-0.0","params":{"nStudents":24,"maxFlips":30,"completionMinutes":45,"basePay":8,"maxBonus":9,"perTrialBonus":0.5,"perTrialBonusThreshold":0.05,"exampleCost":0.01},"classroomParams":{"A":{"a":1,"b":4},"B":{"a":4,"b":1},"C":{"a":2,"b":8},"D":{"a":8,"b":2}},"conditions":["nonSeqFull","nonSeqPartial","seqNoFeedback","seqFeedback"],"classroomPairings":[["A","B"],["C","D"]],"coinWeights":[0.2,0.5,0.8],"subjectId":"AHYTT3T8W9Y9Y","assignmentId":"3I02618YA1SUIUXBD7XST0EPCZKPUS","hitId":"3J94SKDEKIB2MY6CGVTNWB9X0ALD5P","url":"https://gershmanlab.com/experiments/alicia/teaching/experiment/?hitId=3J94SKDEKIB2MY6CGVTNWB9X0ALD5P&workerId=AHYTT3T8W9Y9Y&assignmentId=3I02618YA1SUIUXBD7XST0EPCZKPUS&a=Y60I9&tp_a=Y60I9&b=3I02618YA1SUIUXBD7XST0EPCZKPUS&tp_b=3I02618YA1SUIUXBD7XST0EPCZKPUS&c=365799&tp_c=365799","heads":4,"tails":1,"studentIndex":0,"studentTrueHypers":{"a":4,"b":1},"studentGuess":0.8,"delta":0,"totalExamples":5,"bonusSoFar":0},{"rt":32127,"response":{"heads":"6","tails":"1"},"type":"response","condition":"seqFeedback","trueTheta":0.8,"classrooms":["A","B"],"studentTrueClassroom":"B","exampleSet":"second","trial_type":"survey-html-form","trial_index":20,"time_elapsed":680321,"internal_node_id":"0.0-10.0-0.0","params":{"nStudents":24,"maxFlips":30,"completionMinutes":45,"basePay":8,"maxBonus":9,"perTrialBonus":0.5,"perTrialBonusThreshold":0.05,"exampleCost":0.01},"classroomParams":{"A":{"a":1,"b":4},"B":{"a":4,"b":1},"C":{"a":2,"b":8},"D":{"a":8,"b":2}},"conditions":["nonSeqFull","nonSeqPartial","seqNoFeedback","seqFeedback"],"classroomPairings":[["A","B"],["C","D"]],"coinWeights":[0.2,0.5,0.8],"subjectId":"AHYTT3T8W9Y9Y","assignmentId":"3I02618YA1SUIUXBD7XST0EPCZKPUS","hitId":"3J94SKDEKIB2MY6CGVTNWB9X0ALD5P","url":"https://gershmanlab.com/experiments/alicia/teaching/experiment/?hitId=3J94SKDEKIB2MY6CGVTNWB9X0ALD5P&workerId=AHYTT3T8W9Y9Y&assignmentId=3I02618YA1SUIUXBD7XST0EPCZKPUS&a=Y60I9&tp_a=Y60I9&b=3I02618YA1SUIUXBD7XST0EPCZKPUS&tp_b=3I02618YA1SUIUXBD7XST0EPCZKPUS&c=365799&tp_c=365799","firstResponseHeads":4,"firstResponseTails":1,"secondResponseHeads":6,"secondResponseTails":1,"totalHeads":10,"totalTails":2,"studentIndex":0,"studentTrueHypers":{"a":4,"b":1},"studentGuess":0.8235294117647058,"delta":0.0235294117647058,"bonus":0.38,"bonusSoFar":0.38,"totalExamples":12},{"rt":15555,"response":{"heads":"1","tails":"4"},"type":"response","condition":"seqNoFeedback","trueTheta":0.2,"classrooms":["A","B"],"studentTrueClassroom":"A","exampleSet":"first","trial_type":"survey-html-form","trial_index":26,"time_elapsed":716142,"internal_node_id":"0.0-16.0-0.0","params":{"nStudents":24,"maxFlips":30,"completionMinutes":45,"basePay":8,"maxBonus":9,"perTrialBonus":0.5,"perTrialBonusThreshold":0.05,"exampleCost":0.01},"classroomParams":{"A":{"a":1,"b":4},"B":{"a":4,"b":1},"C":{"a":2,"b":8},"D":{"a":8,"b":2}},"conditions":["nonSeqFull","nonSeqPartial","seqNoFeedback","seqFeedback"],"classroomPairings":[["A","B"],["C","D"]],"coinWeights":[0.2,0.5,0.8],"subjectId":"AHYTT3T8W9Y9Y","assignmentId":"3I02618YA1SUIUXBD7XST0EPCZKPUS","hitId":"3J94SKDEKIB2MY6CGVTNWB9X0ALD5P","url":"https://gershmanlab.com/experiments/alicia/teaching/experiment/?hitId=3J94SKDEKIB2MY6CGVTNWB9X0ALD5P&workerId=AHYTT3T8W9Y9Y&assignmentId=3I02618YA1SUIUXBD7XST0EPCZKPUS&a=Y60I9&tp_a=Y60I9&b=3I02618YA1SUIUXBD7XST0EPCZKPUS&tp_b=3I02618YA1SUIUXBD7XST0EPCZKPUS&c=365799&tp_c=365799","heads":1,"tails":4,"studentIndex":1,"studentTrueHypers":{"a":1,"b":4},"studentGuess":0.2,"delta":0,"totalExamples":5,"bonusSoFar":0.38},{"rt":14722,"response":{"heads":"2","tails":"6"},"type":"response","condition":"seqNoFeedback","trueTheta":0.2,"classrooms":["A","B"],"studentTrueClassroom":"A","exampleSet":"second","trial_type":"survey-html-form","trial_index":29,"time_elapsed":736873,"internal_node_id":"0.0-19.0-0.0","params":{"nStudents":24,"maxFlips":30,"completionMinutes":45,"basePay":8,"maxBonus":9,"perTrialBonus":0.5,"perTrialBonusThreshold":0.05,"exampleCost":0.01},"classroomParams":{"A":{"a":1,"b":4},"B":{"a":4,"b":1},"C":{"a":2,"b":8},"D":{"a":8,"b":2}},"conditions":["nonSeqFull","nonSeqPartial","seqNoFeedback","seqFeedback"],"classroomPairings":[["A","B"],["C","D"]],"coinWeights":[0.2,0.5,0.8],"subjectId":"AHYTT3T8W9Y9Y","assignmentId":"3I02618YA1SUIUXBD7XST0EPCZKPUS","hitId":"3J94SKDEKIB2MY6CGVTNWB9X0ALD5P","url":"https://gershmanlab.com/experiments/alicia/teaching/experiment/?hitId=3J94SKDEKIB2MY6CGVTNWB9X0ALD5P&workerId=AHYTT3T8W9Y9Y&assignmentId=3I02618YA1SUIUXBD7XST0EPCZKPUS&a=Y60I9&tp_a=Y60I9&b=3I02618YA1SUIUXBD7XST0EPCZKPUS&tp_b=3I02618YA1SUIUXBD7XST0EPCZKPUS&c=365799&tp_c=365799","firstResponseHeads":1,"firstResponseTails":4,"secondResponseHeads":2,"secondResponseTails":6,"totalHeads":3,"totalTails":10,"studentIndex":1,"studentTrueHypers":{"a":1,"b":4},"studentGuess":0.2222222222222222,"delta":0.0222222222222222,"bonus":0.37,"bonusSoFar":0.75,"totalExamples":13},{"rt":16921,"response":{"heads":"2","tails":"8"},"type":"response","condition":"seqNoFeedback","trueTheta":0.2,"classrooms":["C","D"],"studentTrueClassroom":"C","exampleSet":"first","trial_type":"survey-html-form","trial_index":35,"time_elapsed":773173,"internal_node_id":"0.0-25.0-0.0","params":{"nStudents":24,"maxFlips":30,"completionMinutes":45,"basePay":8,"maxBonus":9,"perTrialBonus":0.5,"perTrialBonusThreshold":0.05,"exampleCost":0.01},"classroomParams":{"A":{"a":1,"b":4},"B":{"a":4,"b":1},"C":{"a":2,"b":8},"D":{"a":8,"b":2}},"conditions":["nonSeqFull","nonSeqPartial","seqNoFeedback","seqFeedback"],"classroomPairings":[["A","B"],["C","D"]],"coinWeights":[0.2,0.5,0.8],"subjectId":"AHYTT3T8W9Y9Y","assignmentId":"3I02618YA1SUIUXBD7XST0EPCZKPUS","hitId":"3J94SKDEKIB2MY6CGVTNWB9X0ALD5P","url":"https://gershmanlab.com/experiments/alicia/teaching/experiment/?hitId=3J94SKDEKIB2MY6CGVTNWB9X0ALD5P&workerId=AHYTT3T8W9Y9Y&assignmentId=3I02618YA1SUIUXBD7XST0EPCZKPUS&a=Y60I9&tp_a=Y60I9&b=3I02618YA1SUIUXBD7XST0EPCZKPUS&tp_b=3I02618YA1SUIUXBD7XST0EPCZKPUS&c=365799&tp_c=365799","heads":2,"tails":8,"studentIndex":2,"studentTrueHypers":{"a":2,"b":8},"studentGuess":0.2,"delta":0,"totalExamples":10,"bonusSoFar":0.75},{"rt":35501,"response":{"heads":"2","tails":"6"},"type":"response","condition":"seqNoFeedback","trueTheta":0.2,"classrooms":["C","D"],"studentTrueClassroom":"C","exampleSet":"second","trial_type":"survey-html-form","trial_index":38,"time_elapsed":814931,"internal_node_id":"0.0-28.0-0.0","params":{"nStudents":24,"maxFlips":30,"completionMinutes":45,"basePay":8,"maxBonus":9,"perTrialBonus":0.5,"perTrialBonusThreshold":0.05,"exampleCost":0.01},"classroomParams":{"A":{"a":1,"b":4},"B":{"a":4,"b":1},"C":{"a":2,"b":8},"D":{"a":8,"b":2}},"conditions":["nonSeqFull","nonSeqPartial","seqNoFeedback","seqFeedback"],"classroomPairings":[["A","B"],["C","D"]],"coinWeights":[0.2,0.5,0.8],"subjectId":"AHYTT3T8W9Y9Y","assignmentId":"3I02618YA1SUIUXBD7XST0EPCZKPUS","hitId":"3J94SKDEKIB2MY6CGVTNWB9X0ALD5P","url":"https://gershmanlab.com/experiments/alicia/teaching/experiment/?hitId=3J94SKDEKIB2MY6CGVTNWB9X0ALD5P&workerId=AHYTT3T8W9Y9Y&assignmentId=3I02618YA1SUIUXBD7XST0EPCZKPUS&a=Y60I9&tp_a=Y60I9&b=3I02618YA1SUIUXBD7XST0EPCZKPUS&tp_b=3I02618YA1SUIUXBD7XST0EPCZKPUS&c=365799&tp_c=365799","firstResponseHeads":2,"firstResponseTails":8,"secondResponseHeads":2,"secondResponseTails":6,"totalHeads":4,"totalTails":14,"studentIndex":2,"studentTrueHypers":{"a":2,"b":8},"studentGuess":0.21428571428571427,"delta":0.014285714285714263,"bonus":0.32,"bonusSoFar":1.07,"totalExamples":18},{"rt":17321,"response":{"heads":"4","tails":"4"},"type":"response","condition":"nonSeqPartial","trueTheta":0.5,"classrooms":["A","B"],"studentTrueClassroom":"B","exampleSet":"first","trial_type":"survey-html-form","trial_index":44,"time_elapsed":851144,"internal_node_id":"0.0-34.0-0.0","params":{"nStudents":24,"maxFlips":30,"completionMinutes":45,"basePay":8,"maxBonus":9,"perTrialBonus":0.5,"perTrialBonusThreshold":0.05,"exampleCost":0.01},"classroomParams":{"A":{"a":1,"b":4},"B":{"a":4,"b":1},"C":{"a":2,"b":8},"D":{"a":8,"b":2}},"conditions":["nonSeqFull","nonSeqPartial","seqNoFeedback","seqFeedback"],"classroomPairings":[["A","B"],["C","D"]],"coinWeights":[0.2,0.5,0.8],"subjectId":"AHYTT3T8W9Y9Y","assignmentId":"3I02618YA1SUIUXBD7XST0EPCZKPUS","hitId":"3J94SKDEKIB2MY6CGVTNWB9X0ALD5P","url":"https://gershmanlab.com/experiments/alicia/teaching/experiment/?hitId=3J94SKDEKIB2MY6CGVTNWB9X0ALD5P&workerId=AHYTT3T8W9Y9Y&assignmentId=3I02618YA1SUIUXBD7XST0EPCZKPUS&a=Y60I9&tp_a=Y60I9&b=3I02618YA1SUIUXBD7XST0EPCZKPUS&tp_b=3I02618YA1SUIUXBD7XST0EPCZKPUS&c=365799&tp_c=365799","heads":4,"tails":4,"studentIndex":3,"studentTrueHypers":{"a":4,"b":1},"studentGuess":0.6153846153846154,"delta":0.11538461538461542,"totalExamples":8,"bonus":0,"bonusSoFar":1.07},{"rt":22362,"response":{"heads":"1","tails":"4"},"type":"response","condition":"seqFeedback","trueTheta":0.2,"classrooms":["A","B"],"studentTrueClassroom":"B","exampleSet":"first","trial_type":"survey-html-form","trial_index":50,"time_elapsed":895947,"internal_node_id":"0.0-40.0-0.0","params":{"nStudents":24,"maxFlips":30,"completionMinutes":45,"basePay":8,"maxBonus":9,"perTrialBonus":0.5,"perTrialBonusThreshold":0.05,"exampleCost":0.01},"classroomParams":{"A":{"a":1,"b":4},"B":{"a":4,"b":1},"C":{"a":2,"b":8},"D":{"a":8,"b":2}},"conditions":["nonSeqFull","nonSeqPartial","seqNoFeedback","seqFeedback"],"classroomPairings":[["A","B"],["C","D"]],"coinWeights":[0.2,0.5,0.8],"subjectId":"AHYTT3T8W9Y9Y","assignmentId":"3I02618YA1SUIUXBD7XST0EPCZKPUS","hitId":"3J94SKDEKIB2MY6CGVTNWB9X0ALD5P","url":"https://gershmanlab.com/experiments/alicia/teaching/experiment/?hitId=3J94SKDEKIB2MY6CGVTNWB9X0ALD5P&workerId=AHYTT3T8W9Y9Y&assignmentId=3I02618YA1SUIUXBD7XST0EPCZKPUS&a=Y60I9&tp_a=Y60I9&b=3I02618YA1SUIUXBD7XST0EPCZKPUS&tp_b=3I02618YA1SUIUXBD7XST0EPCZKPUS&c=365799&tp_c=365799","heads":1,"tails":4,"studentIndex":4,"studentTrueHypers":{"a":4,"b":1},"studentGuess":0.5,"delta":0.3,"totalExamples":5,"bonusSoFar":1.07},{"rt":9527,"response":{"heads":"1","tails":"8"},"type":"response","condition":"seqFeedback","trueTheta":0.2,"classrooms":["A","B"],"studentTrueClassroom":"B","exampleSet":"second","trial_type":"survey-html-form","trial_index":54,"time_elapsed":916086,"internal_node_id":"0.0-44.0-0.0","params":{"nStudents":24,"maxFlips":30,"completionMinutes":45,"basePay":8,"maxBonus":9,"perTrialBonus":0.5,"perTrialBonusThreshold":0.05,"exampleCost":0.01},"classroomParams":{"A":{"a":1,"b":4},"B":{"a":4,"b":1},"C":{"a":2,"b":8},"D":{"a":8,"b":2}},"conditions":["nonSeqFull","nonSeqPartial","seqNoFeedback","seqFeedback"],"classroomPairings":[["A","B"],["C","D"]],"coinWeights":[0.2,0.5,0.8],"subjectId":"AHYTT3T8W9Y9Y","assignmentId":"3I02618YA1SUIUXBD7XST0EPCZKPUS","hitId":"3J94SKDEKIB2MY6CGVTNWB9X0ALD5P","url":"https://gershmanlab.com/experiments/alicia/teaching/experiment/?hitId=3J94SKDEKIB2MY6CGVTNWB9X0ALD5P&workerId=AHYTT3T8W9Y9Y&assignmentId=3I02618YA1SUIUXBD7XST0EPCZKPUS&a=Y60I9&tp_a=Y60I9&b=3I02618YA1SUIUXBD7XST0EPCZKPUS&tp_b=3I02618YA1SUIUXBD7XST0EPCZKPUS&c=365799&tp_c=365799","firstResponseHeads":1,"firstResponseTails":4,"secondResponseHeads":1,"secondResponseTails":8,"totalHeads":2,"totalTails":12,"studentIndex":4,"studentTrueHypers":{"a":4,"b":1},"studentGuess":0.3157894736842105,"delta":0.1157894736842105,"bonus":0,"bonusSoFar":1.07,"totalExamples":14},{"rt":9450,"response":{"heads":"4","tails":"1"},"type":"response","condition":"nonSeqPartial","trueTheta":0.8,"classrooms":["A","B"],"studentTrueClassroom":"B","exampleSet":"first","trial_type":"survey-html-form","trial_index":60,"time_elapsed":947043,"internal_node_id":"0.0-50.0-0.0","params":{"nStudents":24,"maxFlips":30,"completionMinutes":45,"basePay":8,"maxBonus":9,"perTrialBonus":0.5,"perTrialBonusThreshold":0.05,"exampleCost":0.01},"classroomParams":{"A":{"a":1,"b":4},"B":{"a":4,"b":1},"C":{"a":2,"b":8},"D":{"a":8,"b":2}},"conditions":["nonSeqFull","nonSeqPartial","seqNoFeedback","seqFeedback"],"classroomPairings":[["A","B"],["C","D"]],"coinWeights":[0.2,0.5,0.8],"subjectId":"AHYTT3T8W9Y9Y","assignmentId":"3I02618YA1SUIUXBD7XST0EPCZKPUS","hitId":"3J94SKDEKIB2MY6CGVTNWB9X0ALD5P","url":"https://gershmanlab.com/experiments/alicia/teaching/experiment/?hitId=3J94SKDEKIB2MY6CGVTNWB9X0ALD5P&workerId=AHYTT3T8W9Y9Y&assignmentId=3I02618YA1SUIUXBD7XST0EPCZKPUS&a=Y60I9&tp_a=Y60I9&b=3I02618YA1SUIUXBD7XST0EPCZKPUS&tp_b=3I02618YA1SUIUXBD7XST0EPCZKPUS&c=365799&tp_c=365799","heads":4,"tails":1,"studentIndex":5,"studentTrueHypers":{"a":4,"b":1},"studentGuess":0.8,"delta":0,"totalExamples":5,"bonus":0.45,"bonusSoFar":1.52},{"rt":18473,"response":{"heads":"7","tails":"1"},"type":"response","condition":"nonSeqFull","trueTheta":0.8,"classrooms":["A","B"],"studentTrueClassroom":"A","exampleSet":"first","trial_type":"survey-html-form","trial_index":66,"time_elapsed":980782,"internal_node_id":"0.0-56.0-0.0","params":{"nStudents":24,"maxFlips":30,"completionMinutes":45,"basePay":8,"maxBonus":9,"perTrialBonus":0.5,"perTrialBonusThreshold":0.05,"exampleCost":0.01},"classroomParams":{"A":{"a":1,"b":4},"B":{"a":4,"b":1},"C":{"a":2,"b":8},"D":{"a":8,"b":2}},"conditions":["nonSeqFull","nonSeqPartial","seqNoFeedback","seqFeedback"],"classroomPairings":[["A","B"],["C","D"]],"coinWeights":[0.2,0.5,0.8],"subjectId":"AHYTT3T8W9Y9Y","assignmentId":"3I02618YA1SUIUXBD7XST0EPCZKPUS","hitId":"3J94SKDEKIB2MY6CGVTNWB9X0ALD5P","url":"https://gershmanlab.com/experiments/alicia/teaching/experiment/?hitId=3J94SKDEKIB2MY6CGVTNWB9X0ALD5P&workerId=AHYTT3T8W9Y9Y&assignmentId=3I02618YA1SUIUXBD7XST0EPCZKPUS&a=Y60I9&tp_a=Y60I9&b=3I02618YA1SUIUXBD7XST0EPCZKPUS&tp_b=3I02618YA1SUIUXBD7XST0EPCZKPUS&c=365799&tp_c=365799","heads":7,"tails":1,"studentIndex":6,"studentTrueHypers":{"a":1,"b":4},"studentGuess":0.6153846153846154,"delta":0.18461538461538463,"totalExamples":8,"bonus":0,"bonusSoFar":1.52},{"rt":11073,"response":{"heads":"5","tails":"5"},"type":"response","condition":"seqFeedback","trueTheta":0.5,"classrooms":["A","B"],"studentTrueClassroom":"A","exampleSet":"first","trial_type":"survey-html-form","trial_index":72,"time_elapsed":1007226,"internal_node_id":"0.0-62.0-0.0","params":{"nStudents":24,"maxFlips":30,"completionMinutes":45,"basePay":8,"maxBonus":9,"perTrialBonus":0.5,"perTrialBonusThreshold":0.05,"exampleCost":0.01},"classroomParams":{"A":{"a":1,"b":4},"B":{"a":4,"b":1},"C":{"a":2,"b":8},"D":{"a":8,"b":2}},"conditions":["nonSeqFull","nonSeqPartial","seqNoFeedback","seqFeedback"],"classroomPairings":[["A","B"],["C","D"]],"coinWeights":[0.2,0.5,0.8],"subjectId":"AHYTT3T8W9Y9Y","assignmentId":"3I02618YA1SUIUXBD7XST0EPCZKPUS","hitId":"3J94SKDEKIB2MY6CGVTNWB9X0ALD5P","url":"https://gershmanlab.com/experiments/alicia/teaching/experiment/?hitId=3J94SKDEKIB2MY6CGVTNWB9X0ALD5P&workerId=AHYTT3T8W9Y9Y&assignmentId=3I02618YA1SUIUXBD7XST0EPCZKPUS&a=Y60I9&tp_a=Y60I9&b=3I02618YA1SUIUXBD7XST0EPCZKPUS&tp_b=3I02618YA1SUIUXBD7XST0EPCZKPUS&c=365799&tp_c=365799","heads":5,"tails":5,"studentIndex":7,"studentTrueHypers":{"a":1,"b":4},"studentGuess":0.4,"delta":0.09999999999999998,"totalExamples":10,"bonusSoFar":1.52},{"rt":11151,"response":{"heads":"8","tails":"8"},"type":"response","condition":"seqFeedback","trueTheta":0.5,"classrooms":["A","B"],"studentTrueClassroom":"A","exampleSet":"second","trial_type":"survey-html-form","trial_index":76,"time_elapsed":1035645,"internal_node_id":"0.0-66.0-0.0","params":{"nStudents":24,"maxFlips":30,"completionMinutes":45,"basePay":8,"maxBonus":9,"perTrialBonus":0.5,"perTrialBonusThreshold":0.05,"exampleCost":0.01},"classroomParams":{"A":{"a":1,"b":4},"B":{"a":4,"b":1},"C":{"a":2,"b":8},"D":{"a":8,"b":2}},"conditions":["nonSeqFull","nonSeqPartial","seqNoFeedback","seqFeedback"],"classroomPairings":[["A","B"],["C","D"]],"coinWeights":[0.2,0.5,0.8],"subjectId":"AHYTT3T8W9Y9Y","assignmentId":"3I02618YA1SUIUXBD7XST0EPCZKPUS","hitId":"3J94SKDEKIB2MY6CGVTNWB9X0ALD5P","url":"https://gershmanlab.com/experiments/alicia/teaching/experiment/?hitId=3J94SKDEKIB2MY6CGVTNWB9X0ALD5P&workerId=AHYTT3T8W9Y9Y&assignmentId=3I02618YA1SUIUXBD7XST0EPCZKPUS&a=Y60I9&tp_a=Y60I9&b=3I02618YA1SUIUXBD7XST0EPCZKPUS&tp_b=3I02618YA1SUIUXBD7XST0EPCZKPUS&c=365799&tp_c=365799","firstResponseHeads":5,"firstResponseTails":5,"secondResponseHeads":8,"secondResponseTails":8,"totalHeads":13,"totalTails":13,"studentIndex":7,"studentTrueHypers":{"a":1,"b":4},"studentGuess":0.45161290322580644,"delta":0.04838709677419356,"bonus":0.24,"bonusSoFar":1.76,"totalExamples":26},{"rt":10709,"response":{"heads":"1","tails":"4"},"type":"response","condition":"nonSeqFull","trueTheta":0.2,"classrooms":["A","B"],"studentTrueClassroom":"A","exampleSet":"first","trial_type":"survey-html-form","trial_index":82,"time_elapsed":1062696,"internal_node_id":"0.0-72.0-0.0","params":{"nStudents":24,"maxFlips":30,"completionMinutes":45,"basePay":8,"maxBonus":9,"perTrialBonus":0.5,"perTrialBonusThreshold":0.05,"exampleCost":0.01},"classroomParams":{"A":{"a":1,"b":4},"B":{"a":4,"b":1},"C":{"a":2,"b":8},"D":{"a":8,"b":2}},"conditions":["nonSeqFull","nonSeqPartial","seqNoFeedback","seqFeedback"],"classroomPairings":[["A","B"],["C","D"]],"coinWeights":[0.2,0.5,0.8],"subjectId":"AHYTT3T8W9Y9Y","assignmentId":"3I02618YA1SUIUXBD7XST0EPCZKPUS","hitId":"3J94SKDEKIB2MY6CGVTNWB9X0ALD5P","url":"https://gershmanlab.com/experiments/alicia/teaching/experiment/?hitId=3J94SKDEKIB2MY6CGVTNWB9X0ALD5P&workerId=AHYTT3T8W9Y9Y&assignmentId=3I02618YA1SUIUXBD7XST0EPCZKPUS&a=Y60I9&tp_a=Y60I9&b=3I02618YA1SUIUXBD7XST0EPCZKPUS&tp_b=3I02618YA1SUIUXBD7XST0EPCZKPUS&c=365799&tp_c=365799","heads":1,"tails":4,"studentIndex":8,"studentTrueHypers":{"a":1,"b":4},"studentGuess":0.2,"delta":0,"totalExamples":5,"bonus":0.45,"bonusSoFar":2.21},{"rt":28898,"response":{"heads":"2","tails":"8"},"type":"response","condition":"nonSeqFull","trueTheta":0.2,"classrooms":["C","D"],"studentTrueClassroom":"C","exampleSet":"first","trial_type":"survey-html-form","trial_index":88,"time_elapsed":1104525,"internal_node_id":"0.0-78.0-0.0","params":{"nStudents":24,"maxFlips":30,"completionMinutes":45,"basePay":8,"maxBonus":9,"perTrialBonus":0.5,"perTrialBonusThreshold":0.05,"exampleCost":0.01},"classroomParams":{"A":{"a":1,"b":4},"B":{"a":4,"b":1},"C":{"a":2,"b":8},"D":{"a":8,"b":2}},"conditions":["nonSeqFull","nonSeqPartial","seqNoFeedback","seqFeedback"],"classroomPairings":[["A","B"],["C","D"]],"coinWeights":[0.2,0.5,0.8],"subjectId":"AHYTT3T8W9Y9Y","assignmentId":"3I02618YA1SUIUXBD7XST0EPCZKPUS","hitId":"3J94SKDEKIB2MY6CGVTNWB9X0ALD5P","url":"https://gershmanlab.com/experiments/alicia/teaching/experiment/?hitId=3J94SKDEKIB2MY6CGVTNWB9X0ALD5P&workerId=AHYTT3T8W9Y9Y&assignmentId=3I02618YA1SUIUXBD7XST0EPCZKPUS&a=Y60I9&tp_a=Y60I9&b=3I02618YA1SUIUXBD7XST0EPCZKPUS&tp_b=3I02618YA1SUIUXBD7XST0EPCZKPUS&c=365799&tp_c=365799","heads":2,"tails":8,"studentIndex":9,"studentTrueHypers":{"a":2,"b":8},"studentGuess":0.2,"delta":0,"totalExamples":10,"bonus":0.4,"bonusSoFar":2.61},{"rt":15313,"response":{"heads":"8","tails":"8"},"type":"response","condition":"seqNoFeedback","trueTheta":0.5,"classrooms":["C","D"],"studentTrueClassroom":"D","exampleSet":"first","trial_type":"survey-html-form","trial_index":94,"time_elapsed":1134945,"internal_node_id":"0.0-84.0-0.0","params":{"nStudents":24,"maxFlips":30,"completionMinutes":45,"basePay":8,"maxBonus":9,"perTrialBonus":0.5,"perTrialBonusThreshold":0.05,"exampleCost":0.01},"classroomParams":{"A":{"a":1,"b":4},"B":{"a":4,"b":1},"C":{"a":2,"b":8},"D":{"a":8,"b":2}},"conditions":["nonSeqFull","nonSeqPartial","seqNoFeedback","seqFeedback"],"classroomPairings":[["A","B"],["C","D"]],"coinWeights":[0.2,0.5,0.8],"subjectId":"AHYTT3T8W9Y9Y","assignmentId":"3I02618YA1SUIUXBD7XST0EPCZKPUS","hitId":"3J94SKDEKIB2MY6CGVTNWB9X0ALD5P","url":"https://gershmanlab.com/experiments/alicia/teaching/experiment/?hitId=3J94SKDEKIB2MY6CGVTNWB9X0ALD5P&workerId=AHYTT3T8W9Y9Y&assignmentId=3I02618YA1SUIUXBD7XST0EPCZKPUS&a=Y60I9&tp_a=Y60I9&b=3I02618YA1SUIUXBD7XST0EPCZKPUS&tp_b=3I02618YA1SUIUXBD7XST0EPCZKPUS&c=365799&tp_c=365799","heads":8,"tails":8,"studentIndex":10,"studentTrueHypers":{"a":8,"b":2},"studentGuess":0.6153846153846154,"delta":0.11538461538461542,"totalExamples":16,"bonusSoFar":2.61},{"rt":19951,"response":{"heads":"5","tails":"5"},"type":"response","condition":"seqNoFeedback","trueTheta":0.5,"classrooms":["C","D"],"studentTrueClassroom":"D","exampleSet":"second","trial_type":"survey-html-form","trial_index":97,"time_elapsed":1161901,"internal_node_id":"0.0-87.0-0.0","params":{"nStudents":24,"maxFlips":30,"completionMinutes":45,"basePay":8,"maxBonus":9,"perTrialBonus":0.5,"perTrialBonusThreshold":0.05,"exampleCost":0.01},"classroomParams":{"A":{"a":1,"b":4},"B":{"a":4,"b":1},"C":{"a":2,"b":8},"D":{"a":8,"b":2}},"conditions":["nonSeqFull","nonSeqPartial","seqNoFeedback","seqFeedback"],"classroomPairings":[["A","B"],["C","D"]],"coinWeights":[0.2,0.5,0.8],"subjectId":"AHYTT3T8W9Y9Y","assignmentId":"3I02618YA1SUIUXBD7XST0EPCZKPUS","hitId":"3J94SKDEKIB2MY6CGVTNWB9X0ALD5P","url":"https://gershmanlab.com/experiments/alicia/teaching/experiment/?hitId=3J94SKDEKIB2MY6CGVTNWB9X0ALD5P&workerId=AHYTT3T8W9Y9Y&assignmentId=3I02618YA1SUIUXBD7XST0EPCZKPUS&a=Y60I9&tp_a=Y60I9&b=3I02618YA1SUIUXBD7XST0EPCZKPUS&tp_b=3I02618YA1SUIUXBD7XST0EPCZKPUS&c=365799&tp_c=365799","firstResponseHeads":8,"firstResponseTails":8,"secondResponseHeads":5,"secondResponseTails":5,"totalHeads":13,"totalTails":13,"studentIndex":10,"studentTrueHypers":{"a":8,"b":2},"studentGuess":0.5833333333333334,"delta":0.08333333333333337,"bonus":0,"bonusSoFar":2.61,"totalExamples":26},{"rt":7770,"response":{"heads":"4","tails":"1"},"type":"response","condition":"seqNoFeedback","trueTheta":0.8,"classrooms":["A","B"],"studentTrueClassroom":"B","exampleSet":"first","trial_type":"survey-html-form","trial_index":103,"time_elapsed":1182105,"internal_node_id":"0.0-93.0-0.0","params":{"nStudents":24,"maxFlips":30,"completionMinutes":45,"basePay":8,"maxBonus":9,"perTrialBonus":0.5,"perTrialBonusThreshold":0.05,"exampleCost":0.01},"classroomParams":{"A":{"a":1,"b":4},"B":{"a":4,"b":1},"C":{"a":2,"b":8},"D":{"a":8,"b":2}},"conditions":["nonSeqFull","nonSeqPartial","seqNoFeedback","seqFeedback"],"classroomPairings":[["A","B"],["C","D"]],"coinWeights":[0.2,0.5,0.8],"subjectId":"AHYTT3T8W9Y9Y","assignmentId":"3I02618YA1SUIUXBD7XST0EPCZKPUS","hitId":"3J94SKDEKIB2MY6CGVTNWB9X0ALD5P","url":"https://gershmanlab.com/experiments/alicia/teaching/experiment/?hitId=3J94SKDEKIB2MY6CGVTNWB9X0ALD5P&workerId=AHYTT3T8W9Y9Y&assignmentId=3I02618YA1SUIUXBD7XST0EPCZKPUS&a=Y60I9&tp_a=Y60I9&b=3I02618YA1SUIUXBD7XST0EPCZKPUS&tp_b=3I02618YA1SUIUXBD7XST0EPCZKPUS&c=365799&tp_c=365799","heads":4,"tails":1,"studentIndex":11,"studentTrueHypers":{"a":4,"b":1},"studentGuess":0.8,"delta":0,"totalExamples":5,"bonusSoFar":2.61},{"rt":11381,"response":{"heads":"6","tails":"1"},"type":"response","condition":"seqNoFeedback","trueTheta":0.8,"classrooms":["A","B"],"studentTrueClassroom":"B","exampleSet":"second","trial_type":"survey-html-form","trial_index":106,"time_elapsed":1199741,"internal_node_id":"0.0-96.0-0.0","params":{"nStudents":24,"maxFlips":30,"completionMinutes":45,"basePay":8,"maxBonus":9,"perTrialBonus":0.5,"perTrialBonusThreshold":0.05,"exampleCost":0.01},"classroomParams":{"A":{"a":1,"b":4},"B":{"a":4,"b":1},"C":{"a":2,"b":8},"D":{"a":8,"b":2}},"conditions":["nonSeqFull","nonSeqPartial","seqNoFeedback","seqFeedback"],"classroomPairings":[["A","B"],["C","D"]],"coinWeights":[0.2,0.5,0.8],"subjectId":"AHYTT3T8W9Y9Y","assignmentId":"3I02618YA1SUIUXBD7XST0EPCZKPUS","hitId":"3J94SKDEKIB2MY6CGVTNWB9X0ALD5P","url":"https://gershmanlab.com/experiments/alicia/teaching/experiment/?hitId=3J94SKDEKIB2MY6CGVTNWB9X0ALD5P&workerId=AHYTT3T8W9Y9Y&assignmentId=3I02618YA1SUIUXBD7XST0EPCZKPUS&a=Y60I9&tp_a=Y60I9&b=3I02618YA1SUIUXBD7XST0EPCZKPUS&tp_b=3I02618YA1SUIUXBD7XST0EPCZKPUS&c=365799&tp_c=365799","firstResponseHeads":4,"firstResponseTails":1,"secondResponseHeads":6,"secondResponseTails":1,"totalHeads":10,"totalTails":2,"studentIndex":11,"studentTrueHypers":{"a":4,"b":1},"studentGuess":0.8235294117647058,"delta":0.0235294117647058,"bonus":0.38,"bonusSoFar":2.99,"totalExamples":12},{"rt":9576,"response":{"heads":"8","tails":"8"},"type":"response","condition":"nonSeqFull","trueTheta":0.5,"classrooms":["C","D"],"studentTrueClassroom":"C","exampleSet":"first","trial_type":"survey-html-form","trial_index":112,"time_elapsed":1224856,"internal_node_id":"0.0-102.0-0.0","params":{"nStudents":24,"maxFlips":30,"completionMinutes":45,"basePay":8,"maxBonus":9,"perTrialBonus":0.5,"perTrialBonusThreshold":0.05,"exampleCost":0.01},"classroomParams":{"A":{"a":1,"b":4},"B":{"a":4,"b":1},"C":{"a":2,"b":8},"D":{"a":8,"b":2}},"conditions":["nonSeqFull","nonSeqPartial","seqNoFeedback","seqFeedback"],"classroomPairings":[["A","B"],["C","D"]],"coinWeights":[0.2,0.5,0.8],"subjectId":"AHYTT3T8W9Y9Y","assignmentId":"3I02618YA1SUIUXBD7XST0EPCZKPUS","hitId":"3J94SKDEKIB2MY6CGVTNWB9X0ALD5P","url":"https://gershmanlab.com/experiments/alicia/teaching/experiment/?hitId=3J94SKDEKIB2MY6CGVTNWB9X0ALD5P&workerId=AHYTT3T8W9Y9Y&assignmentId=3I02618YA1SUIUXBD7XST0EPCZKPUS&a=Y60I9&tp_a=Y60I9&b=3I02618YA1SUIUXBD7XST0EPCZKPUS&tp_b=3I02618YA1SUIUXBD7XST0EPCZKPUS&c=365799&tp_c=365799","heads":8,"tails":8,"studentIndex":12,"studentTrueHypers":{"a":2,"b":8},"studentGuess":0.38461538461538464,"delta":0.11538461538461536,"totalExamples":16,"bonus":0,"bonusSoFar":2.99},{"rt":11663,"response":{"heads":"5","tails":"5"},"type":"response","condition":"nonSeqPartial","trueTheta":0.5,"classrooms":["C","D"],"studentTrueClassroom":"D","exampleSet":"first","trial_type":"survey-html-form","trial_index":118,"time_elapsed":1249923,"internal_node_id":"0.0-108.0-0.0","params":{"nStudents":24,"maxFlips":30,"completionMinutes":45,"basePay":8,"maxBonus":9,"perTrialBonus":0.5,"perTrialBonusThreshold":0.05,"exampleCost":0.01},"classroomParams":{"A":{"a":1,"b":4},"B":{"a":4,"b":1},"C":{"a":2,"b":8},"D":{"a":8,"b":2}},"conditions":["nonSeqFull","nonSeqPartial","seqNoFeedback","seqFeedback"],"classroomPairings":[["A","B"],["C","D"]],"coinWeights":[0.2,0.5,0.8],"subjectId":"AHYTT3T8W9Y9Y","assignmentId":"3I02618YA1SUIUXBD7XST0EPCZKPUS","hitId":"3J94SKDEKIB2MY6CGVTNWB9X0ALD5P","url":"https://gershmanlab.com/experiments/alicia/teaching/experiment/?hitId=3J94SKDEKIB2MY6CGVTNWB9X0ALD5P&workerId=AHYTT3T8W9Y9Y&assignmentId=3I02618YA1SUIUXBD7XST0EPCZKPUS&a=Y60I9&tp_a=Y60I9&b=3I02618YA1SUIUXBD7XST0EPCZKPUS&tp_b=3I02618YA1SUIUXBD7XST0EPCZKPUS&c=365799&tp_c=365799","heads":5,"tails":5,"studentIndex":13,"studentTrueHypers":{"a":8,"b":2},"studentGuess":0.65,"delta":0.15000000000000002,"totalExamples":10,"bonus":0,"bonusSoFar":2.99},{"rt":7184,"response":{"heads":"8","tails":"2"},"type":"response","condition":"seqNoFeedback","trueTheta":0.8,"classrooms":["C","D"],"studentTrueClassroom":"C","exampleSet":"first","trial_type":"survey-html-form","trial_index":124,"time_elapsed":1271734,"internal_node_id":"0.0-114.0-0.0","params":{"nStudents":24,"maxFlips":30,"completionMinutes":45,"basePay":8,"maxBonus":9,"perTrialBonus":0.5,"perTrialBonusThreshold":0.05,"exampleCost":0.01},"classroomParams":{"A":{"a":1,"b":4},"B":{"a":4,"b":1},"C":{"a":2,"b":8},"D":{"a":8,"b":2}},"conditions":["nonSeqFull","nonSeqPartial","seqNoFeedback","seqFeedback"],"classroomPairings":[["A","B"],["C","D"]],"coinWeights":[0.2,0.5,0.8],"subjectId":"AHYTT3T8W9Y9Y","assignmentId":"3I02618YA1SUIUXBD7XST0EPCZKPUS","hitId":"3J94SKDEKIB2MY6CGVTNWB9X0ALD5P","url":"https://gershmanlab.com/experiments/alicia/teaching/experiment/?hitId=3J94SKDEKIB2MY6CGVTNWB9X0ALD5P&workerId=AHYTT3T8W9Y9Y&assignmentId=3I02618YA1SUIUXBD7XST0EPCZKPUS&a=Y60I9&tp_a=Y60I9&b=3I02618YA1SUIUXBD7XST0EPCZKPUS&tp_b=3I02618YA1SUIUXBD7XST0EPCZKPUS&c=365799&tp_c=365799","heads":8,"tails":2,"studentIndex":14,"studentTrueHypers":{"a":2,"b":8},"studentGuess":0.5,"delta":0.30000000000000004,"totalExamples":10,"bonusSoFar":2.99},{"rt":7934,"response":{"heads":"10","tails":"2"},"type":"response","condition":"seqNoFeedback","trueTheta":0.8,"classrooms":["C","D"],"studentTrueClassroom":"C","exampleSet":"second","trial_type":"survey-html-form","trial_index":127,"time_elapsed":1285423,"internal_node_id":"0.0-117.0-0.0","params":{"nStudents":24,"maxFlips":30,"completionMinutes":45,"basePay":8,"maxBonus":9,"perTrialBonus":0.5,"perTrialBonusThreshold":0.05,"exampleCost":0.01},"classroomParams":{"A":{"a":1,"b":4},"B":{"a":4,"b":1},"C":{"a":2,"b":8},"D":{"a":8,"b":2}},"conditions":["nonSeqFull","nonSeqPartial","seqNoFeedback","seqFeedback"],"classroomPairings":[["A","B"],["C","D"]],"coinWeights":[0.2,0.5,0.8],"subjectId":"AHYTT3T8W9Y9Y","assignmentId":"3I02618YA1SUIUXBD7XST0EPCZKPUS","hitId":"3J94SKDEKIB2MY6CGVTNWB9X0ALD5P","url":"https://gershmanlab.com/experiments/alicia/teaching/experiment/?hitId=3J94SKDEKIB2MY6CGVTNWB9X0ALD5P&workerId=AHYTT3T8W9Y9Y&assignmentId=3I02618YA1SUIUXBD7XST0EPCZKPUS&a=Y60I9&tp_a=Y60I9&b=3I02618YA1SUIUXBD7XST0EPCZKPUS&tp_b=3I02618YA1SUIUXBD7XST0EPCZKPUS&c=365799&tp_c=365799","firstResponseHeads":8,"firstResponseTails":2,"secondResponseHeads":10,"secondResponseTails":2,"totalHeads":18,"totalTails":4,"studentIndex":14,"studentTrueHypers":{"a":2,"b":8},"studentGuess":0.625,"delta":0.17500000000000004,"bonus":0,"bonusSoFar":2.99,"totalExamples":22},{"rt":9088,"response":{"heads":"1","tails":"4"},"type":"response","condition":"nonSeqPartial","trueTheta":0.2,"classrooms":["A","B"],"studentTrueClassroom":"A","exampleSet":"first","trial_type":"survey-html-form","trial_index":133,"time_elapsed":1308017,"internal_node_id":"0.0-123.0-0.0","params":{"nStudents":24,"maxFlips":30,"completionMinutes":45,"basePay":8,"maxBonus":9,"perTrialBonus":0.5,"perTrialBonusThreshold":0.05,"exampleCost":0.01},"classroomParams":{"A":{"a":1,"b":4},"B":{"a":4,"b":1},"C":{"a":2,"b":8},"D":{"a":8,"b":2}},"conditions":["nonSeqFull","nonSeqPartial","seqNoFeedback","seqFeedback"],"classroomPairings":[["A","B"],["C","D"]],"coinWeights":[0.2,0.5,0.8],"subjectId":"AHYTT3T8W9Y9Y","assignmentId":"3I02618YA1SUIUXBD7XST0EPCZKPUS","hitId":"3J94SKDEKIB2MY6CGVTNWB9X0ALD5P","url":"https://gershmanlab.com/experiments/alicia/teaching/experiment/?hitId=3J94SKDEKIB2MY6CGVTNWB9X0ALD5P&workerId=AHYTT3T8W9Y9Y&assignmentId=3I02618YA1SUIUXBD7XST0EPCZKPUS&a=Y60I9&tp_a=Y60I9&b=3I02618YA1SUIUXBD7XST0EPCZKPUS&tp_b=3I02618YA1SUIUXBD7XST0EPCZKPUS&c=365799&tp_c=365799","heads":1,"tails":4,"studentIndex":15,"studentTrueHypers":{"a":1,"b":4},"studentGuess":0.2,"delta":0,"totalExamples":5,"bonus":0.45,"bonusSoFar":3.44},{"rt":10666,"response":{"heads":"5","tails":"4"},"type":"response","condition":"seqNoFeedback","trueTheta":0.5,"classrooms":["A","B"],"studentTrueClassroom":"B","exampleSet":"first","trial_type":"survey-html-form","trial_index":139,"time_elapsed":1331824,"internal_node_id":"0.0-129.0-0.0","params":{"nStudents":24,"maxFlips":30,"completionMinutes":45,"basePay":8,"maxBonus":9,"perTrialBonus":0.5,"perTrialBonusThreshold":0.05,"exampleCost":0.01},"classroomParams":{"A":{"a":1,"b":4},"B":{"a":4,"b":1},"C":{"a":2,"b":8},"D":{"a":8,"b":2}},"conditions":["nonSeqFull","nonSeqPartial","seqNoFeedback","seqFeedback"],"classroomPairings":[["A","B"],["C","D"]],"coinWeights":[0.2,0.5,0.8],"subjectId":"AHYTT3T8W9Y9Y","assignmentId":"3I02618YA1SUIUXBD7XST0EPCZKPUS","hitId":"3J94SKDEKIB2MY6CGVTNWB9X0ALD5P","url":"https://gershmanlab.com/experiments/alicia/teaching/experiment/?hitId=3J94SKDEKIB2MY6CGVTNWB9X0ALD5P&workerId=AHYTT3T8W9Y9Y&assignmentId=3I02618YA1SUIUXBD7XST0EPCZKPUS&a=Y60I9&tp_a=Y60I9&b=3I02618YA1SUIUXBD7XST0EPCZKPUS&tp_b=3I02618YA1SUIUXBD7XST0EPCZKPUS&c=365799&tp_c=365799","heads":5,"tails":4,"studentIndex":16,"studentTrueHypers":{"a":4,"b":1},"studentGuess":0.6428571428571429,"delta":0.1428571428571429,"totalExamples":9,"bonusSoFar":3.44},{"rt":7388,"response":{"heads":"4","tails":"4"},"type":"response","condition":"seqNoFeedback","trueTheta":0.5,"classrooms":["A","B"],"studentTrueClassroom":"B","exampleSet":"second","trial_type":"survey-html-form","trial_index":142,"time_elapsed":1345717,"internal_node_id":"0.0-132.0-0.0","params":{"nStudents":24,"maxFlips":30,"completionMinutes":45,"basePay":8,"maxBonus":9,"perTrialBonus":0.5,"perTrialBonusThreshold":0.05,"exampleCost":0.01},"classroomParams":{"A":{"a":1,"b":4},"B":{"a":4,"b":1},"C":{"a":2,"b":8},"D":{"a":8,"b":2}},"conditions":["nonSeqFull","nonSeqPartial","seqNoFeedback","seqFeedback"],"classroomPairings":[["A","B"],["C","D"]],"coinWeights":[0.2,0.5,0.8],"subjectId":"AHYTT3T8W9Y9Y","assignmentId":"3I02618YA1SUIUXBD7XST0EPCZKPUS","hitId":"3J94SKDEKIB2MY6CGVTNWB9X0ALD5P","url":"https://gershmanlab.com/experiments/alicia/teaching/experiment/?hitId=3J94SKDEKIB2MY6CGVTNWB9X0ALD5P&workerId=AHYTT3T8W9Y9Y&assignmentId=3I02618YA1SUIUXBD7XST0EPCZKPUS&a=Y60I9&tp_a=Y60I9&b=3I02618YA1SUIUXBD7XST0EPCZKPUS&tp_b=3I02618YA1SUIUXBD7XST0EPCZKPUS&c=365799&tp_c=365799","firstResponseHeads":5,"firstResponseTails":4,"secondResponseHeads":4,"secondResponseTails":4,"totalHeads":9,"totalTails":8,"studentIndex":16,"studentTrueHypers":{"a":4,"b":1},"studentGuess":0.5909090909090909,"delta":0.09090909090909094,"bonus":0,"bonusSoFar":3.44,"totalExamples":17},{"rt":14079,"response":{"heads":"8","tails":"2"},"type":"response","condition":"nonSeqFull","trueTheta":0.8,"classrooms":["C","D"],"studentTrueClassroom":"D","exampleSet":"first","trial_type":"survey-html-form","trial_index":148,"time_elapsed":1385085,"internal_node_id":"0.0-138.0-0.0","params":{"nStudents":24,"maxFlips":30,"completionMinutes":45,"basePay":8,"maxBonus":9,"perTrialBonus":0.5,"perTrialBonusThreshold":0.05,"exampleCost":0.01},"classroomParams":{"A":{"a":1,"b":4},"B":{"a":4,"b":1},"C":{"a":2,"b":8},"D":{"a":8,"b":2}},"conditions":["nonSeqFull","nonSeqPartial","seqNoFeedback","seqFeedback"],"classroomPairings":[["A","B"],["C","D"]],"coinWeights":[0.2,0.5,0.8],"subjectId":"AHYTT3T8W9Y9Y","assignmentId":"3I02618YA1SUIUXBD7XST0EPCZKPUS","hitId":"3J94SKDEKIB2MY6CGVTNWB9X0ALD5P","url":"https://gershmanlab.com/experiments/alicia/teaching/experiment/?hitId=3J94SKDEKIB2MY6CGVTNWB9X0ALD5P&workerId=AHYTT3T8W9Y9Y&assignmentId=3I02618YA1SUIUXBD7XST0EPCZKPUS&a=Y60I9&tp_a=Y60I9&b=3I02618YA1SUIUXBD7XST0EPCZKPUS&tp_b=3I02618YA1SUIUXBD7XST0EPCZKPUS&c=365799&tp_c=365799","heads":8,"tails":2,"studentIndex":17,"studentTrueHypers":{"a":8,"b":2},"studentGuess":0.8,"delta":0,"totalExamples":10,"bonus":0.4,"bonusSoFar":3.84},{"rt":10586,"response":{"heads":"8","tails":"2"},"type":"response","condition":"nonSeqPartial","trueTheta":0.8,"classrooms":["C","D"],"studentTrueClassroom":"D","exampleSet":"first","trial_type":"survey-html-form","trial_index":154,"time_elapsed":1419785,"internal_node_id":"0.0-144.0-0.0","params":{"nStudents":24,"maxFlips":30,"completionMinutes":45,"basePay":8,"maxBonus":9,"perTrialBonus":0.5,"perTrialBonusThreshold":0.05,"exampleCost":0.01},"classroomParams":{"A":{"a":1,"b":4},"B":{"a":4,"b":1},"C":{"a":2,"b":8},"D":{"a":8,"b":2}},"conditions":["nonSeqFull","nonSeqPartial","seqNoFeedback","seqFeedback"],"classroomPairings":[["A","B"],["C","D"]],"coinWeights":[0.2,0.5,0.8],"subjectId":"AHYTT3T8W9Y9Y","assignmentId":"3I02618YA1SUIUXBD7XST0EPCZKPUS","hitId":"3J94SKDEKIB2MY6CGVTNWB9X0ALD5P","url":"https://gershmanlab.com/experiments/alicia/teaching/experiment/?hitId=3J94SKDEKIB2MY6CGVTNWB9X0ALD5P&workerId=AHYTT3T8W9Y9Y&assignmentId=3I02618YA1SUIUXBD7XST0EPCZKPUS&a=Y60I9&tp_a=Y60I9&b=3I02618YA1SUIUXBD7XST0EPCZKPUS&tp_b=3I02618YA1SUIUXBD7XST0EPCZKPUS&c=365799&tp_c=365799","heads":8,"tails":2,"studentIndex":18,"studentTrueHypers":{"a":8,"b":2},"studentGuess":0.8,"delta":0,"totalExamples":10,"bonus":0.4,"bonusSoFar":4.24},{"rt":16738,"response":{"heads":"10","tails":"2"},"type":"response","condition":"seqFeedback","trueTheta":0.2,"classrooms":["C","D"],"studentTrueClassroom":"C","exampleSet":"first","trial_type":"survey-html-form","trial_index":160,"time_elapsed":1455815,"internal_node_id":"0.0-150.0-0.0","params":{"nStudents":24,"maxFlips":30,"completionMinutes":45,"basePay":8,"maxBonus":9,"perTrialBonus":0.5,"perTrialBonusThreshold":0.05,"exampleCost":0.01},"classroomParams":{"A":{"a":1,"b":4},"B":{"a":4,"b":1},"C":{"a":2,"b":8},"D":{"a":8,"b":2}},"conditions":["nonSeqFull","nonSeqPartial","seqNoFeedback","seqFeedback"],"classroomPairings":[["A","B"],["C","D"]],"coinWeights":[0.2,0.5,0.8],"subjectId":"AHYTT3T8W9Y9Y","assignmentId":"3I02618YA1SUIUXBD7XST0EPCZKPUS","hitId":"3J94SKDEKIB2MY6CGVTNWB9X0ALD5P","url":"https://gershmanlab.com/experiments/alicia/teaching/experiment/?hitId=3J94SKDEKIB2MY6CGVTNWB9X0ALD5P&workerId=AHYTT3T8W9Y9Y&assignmentId=3I02618YA1SUIUXBD7XST0EPCZKPUS&a=Y60I9&tp_a=Y60I9&b=3I02618YA1SUIUXBD7XST0EPCZKPUS&tp_b=3I02618YA1SUIUXBD7XST0EPCZKPUS&c=365799&tp_c=365799","heads":10,"tails":2,"studentIndex":19,"studentTrueHypers":{"a":2,"b":8},"studentGuess":0.5454545454545454,"delta":0.3454545454545454,"totalExamples":12,"bonusSoFar":4.24},{"rt":7169,"response":{"heads":"8","tails":"2"},"type":"response","condition":"seqFeedback","trueTheta":0.2,"classrooms":["C","D"],"studentTrueClassroom":"C","exampleSet":"second","trial_type":"survey-html-form","trial_index":164,"time_elapsed":1474300,"internal_node_id":"0.0-154.0-0.0","params":{"nStudents":24,"maxFlips":30,"completionMinutes":45,"basePay":8,"maxBonus":9,"perTrialBonus":0.5,"perTrialBonusThreshold":0.05,"exampleCost":0.01},"classroomParams":{"A":{"a":1,"b":4},"B":{"a":4,"b":1},"C":{"a":2,"b":8},"D":{"a":8,"b":2}},"conditions":["nonSeqFull","nonSeqPartial","seqNoFeedback","seqFeedback"],"classroomPairings":[["A","B"],["C","D"]],"coinWeights":[0.2,0.5,0.8],"subjectId":"AHYTT3T8W9Y9Y","assignmentId":"3I02618YA1SUIUXBD7XST0EPCZKPUS","hitId":"3J94SKDEKIB2MY6CGVTNWB9X0ALD5P","url":"https://gershmanlab.com/experiments/alicia/teaching/experiment/?hitId=3J94SKDEKIB2MY6CGVTNWB9X0ALD5P&workerId=AHYTT3T8W9Y9Y&assignmentId=3I02618YA1SUIUXBD7XST0EPCZKPUS&a=Y60I9&tp_a=Y60I9&b=3I02618YA1SUIUXBD7XST0EPCZKPUS&tp_b=3I02618YA1SUIUXBD7XST0EPCZKPUS&c=365799&tp_c=365799","firstResponseHeads":10,"firstResponseTails":2,"secondResponseHeads":8,"secondResponseTails":2,"totalHeads":18,"totalTails":4,"studentIndex":19,"studentTrueHypers":{"a":2,"b":8},"studentGuess":0.625,"delta":0.425,"bonus":0,"bonusSoFar":4.24,"totalExamples":22},{"rt":30898,"response":{"heads":"10","tails":"4"},"type":"response","condition":"seqFeedback","trueTheta":0.8,"classrooms":["C","D"],"studentTrueClassroom":"C","exampleSet":"first","trial_type":"survey-html-form","trial_index":170,"time_elapsed":1520205,"internal_node_id":"0.0-160.0-0.0","params":{"nStudents":24,"maxFlips":30,"completionMinutes":45,"basePay":8,"maxBonus":9,"perTrialBonus":0.5,"perTrialBonusThreshold":0.05,"exampleCost":0.01},"classroomParams":{"A":{"a":1,"b":4},"B":{"a":4,"b":1},"C":{"a":2,"b":8},"D":{"a":8,"b":2}},"conditions":["nonSeqFull","nonSeqPartial","seqNoFeedback","seqFeedback"],"classroomPairings":[["A","B"],["C","D"]],"coinWeights":[0.2,0.5,0.8],"subjectId":"AHYTT3T8W9Y9Y","assignmentId":"3I02618YA1SUIUXBD7XST0EPCZKPUS","hitId":"3J94SKDEKIB2MY6CGVTNWB9X0ALD5P","url":"https://gershmanlab.com/experiments/alicia/teaching/experiment/?hitId=3J94SKDEKIB2MY6CGVTNWB9X0ALD5P&workerId=AHYTT3T8W9Y9Y&assignmentId=3I02618YA1SUIUXBD7XST0EPCZKPUS&a=Y60I9&tp_a=Y60I9&b=3I02618YA1SUIUXBD7XST0EPCZKPUS&tp_b=3I02618YA1SUIUXBD7XST0EPCZKPUS&c=365799&tp_c=365799","heads":10,"tails":4,"studentIndex":20,"studentTrueHypers":{"a":2,"b":8},"studentGuess":0.5,"delta":0.30000000000000004,"totalExamples":14,"bonusSoFar":4.24},{"rt":8389,"response":{"heads":"8","tails":"2"},"type":"response","condition":"seqFeedback","trueTheta":0.8,"classrooms":["C","D"],"studentTrueClassroom":"C","exampleSet":"second","trial_type":"survey-html-form","trial_index":174,"time_elapsed":1538704,"internal_node_id":"0.0-164.0-0.0","params":{"nStudents":24,"maxFlips":30,"completionMinutes":45,"basePay":8,"maxBonus":9,"perTrialBonus":0.5,"perTrialBonusThreshold":0.05,"exampleCost":0.01},"classroomParams":{"A":{"a":1,"b":4},"B":{"a":4,"b":1},"C":{"a":2,"b":8},"D":{"a":8,"b":2}},"conditions":["nonSeqFull","nonSeqPartial","seqNoFeedback","seqFeedback"],"classroomPairings":[["A","B"],["C","D"]],"coinWeights":[0.2,0.5,0.8],"subjectId":"AHYTT3T8W9Y9Y","assignmentId":"3I02618YA1SUIUXBD7XST0EPCZKPUS","hitId":"3J94SKDEKIB2MY6CGVTNWB9X0ALD5P","url":"https://gershmanlab.com/experiments/alicia/teaching/experiment/?hitId=3J94SKDEKIB2MY6CGVTNWB9X0ALD5P&workerId=AHYTT3T8W9Y9Y&assignmentId=3I02618YA1SUIUXBD7XST0EPCZKPUS&a=Y60I9&tp_a=Y60I9&b=3I02618YA1SUIUXBD7XST0EPCZKPUS&tp_b=3I02618YA1SUIUXBD7XST0EPCZKPUS&c=365799&tp_c=365799","firstResponseHeads":10,"firstResponseTails":4,"secondResponseHeads":8,"secondResponseTails":2,"totalHeads":18,"totalTails":6,"studentIndex":20,"studentTrueHypers":{"a":2,"b":8},"studentGuess":0.5882352941176471,"delta":0.21176470588235297,"bonus":0,"bonusSoFar":4.24,"totalExamples":24},{"rt":7664,"response":{"heads":"10","tails":"2"},"type":"response","condition":"seqFeedback","trueTheta":0.5,"classrooms":["C","D"],"studentTrueClassroom":"C","exampleSet":"first","trial_type":"survey-html-form","trial_index":180,"time_elapsed":1560378,"internal_node_id":"0.0-170.0-0.0","params":{"nStudents":24,"maxFlips":30,"completionMinutes":45,"basePay":8,"maxBonus":9,"perTrialBonus":0.5,"perTrialBonusThreshold":0.05,"exampleCost":0.01},"classroomParams":{"A":{"a":1,"b":4},"B":{"a":4,"b":1},"C":{"a":2,"b":8},"D":{"a":8,"b":2}},"conditions":["nonSeqFull","nonSeqPartial","seqNoFeedback","seqFeedback"],"classroomPairings":[["A","B"],["C","D"]],"coinWeights":[0.2,0.5,0.8],"subjectId":"AHYTT3T8W9Y9Y","assignmentId":"3I02618YA1SUIUXBD7XST0EPCZKPUS","hitId":"3J94SKDEKIB2MY6CGVTNWB9X0ALD5P","url":"https://gershmanlab.com/experiments/alicia/teaching/experiment/?hitId=3J94SKDEKIB2MY6CGVTNWB9X0ALD5P&workerId=AHYTT3T8W9Y9Y&assignmentId=3I02618YA1SUIUXBD7XST0EPCZKPUS&a=Y60I9&tp_a=Y60I9&b=3I02618YA1SUIUXBD7XST0EPCZKPUS&tp_b=3I02618YA1SUIUXBD7XST0EPCZKPUS&c=365799&tp_c=365799","heads":10,"tails":2,"studentIndex":21,"studentTrueHypers":{"a":2,"b":8},"studentGuess":0.5454545454545454,"delta":0.045454545454545414,"totalExamples":12,"bonusSoFar":4.24},{"rt":5692,"response":{"heads":"10","tails":"4"},"type":"response","condition":"seqFeedback","trueTheta":0.5,"classrooms":["C","D"],"studentTrueClassroom":"C","exampleSet":"second","trial_type":"survey-html-form","trial_index":184,"time_elapsed":1575734,"internal_node_id":"0.0-174.0-0.0","params":{"nStudents":24,"maxFlips":30,"completionMinutes":45,"basePay":8,"maxBonus":9,"perTrialBonus":0.5,"perTrialBonusThreshold":0.05,"exampleCost":0.01},"classroomParams":{"A":{"a":1,"b":4},"B":{"a":4,"b":1},"C":{"a":2,"b":8},"D":{"a":8,"b":2}},"conditions":["nonSeqFull","nonSeqPartial","seqNoFeedback","seqFeedback"],"classroomPairings":[["A","B"],["C","D"]],"coinWeights":[0.2,0.5,0.8],"subjectId":"AHYTT3T8W9Y9Y","assignmentId":"3I02618YA1SUIUXBD7XST0EPCZKPUS","hitId":"3J94SKDEKIB2MY6CGVTNWB9X0ALD5P","url":"https://gershmanlab.com/experiments/alicia/teaching/experiment/?hitId=3J94SKDEKIB2MY6CGVTNWB9X0ALD5P&workerId=AHYTT3T8W9Y9Y&assignmentId=3I02618YA1SUIUXBD7XST0EPCZKPUS&a=Y60I9&tp_a=Y60I9&b=3I02618YA1SUIUXBD7XST0EPCZKPUS&tp_b=3I02618YA1SUIUXBD7XST0EPCZKPUS&c=365799&tp_c=365799","firstResponseHeads":10,"firstResponseTails":2,"secondResponseHeads":10,"secondResponseTails":4,"totalHeads":20,"totalTails":6,"studentIndex":21,"studentTrueHypers":{"a":2,"b":8},"studentGuess":0.6111111111111112,"delta":0.11111111111111116,"bonus":0,"bonusSoFar":4.24,"totalExamples":26},{"rt":6420,"response":{"heads":"10","tails":"2"},"type":"response","condition":"nonSeqFull","trueTheta":0.5,"classrooms":["A","B"],"studentTrueClassroom":"A","exampleSet":"first","trial_type":"survey-html-form","trial_index":190,"time_elapsed":1602118,"internal_node_id":"0.0-180.0-0.0","params":{"nStudents":24,"maxFlips":30,"completionMinutes":45,"basePay":8,"maxBonus":9,"perTrialBonus":0.5,"perTrialBonusThreshold":0.05,"exampleCost":0.01},"classroomParams":{"A":{"a":1,"b":4},"B":{"a":4,"b":1},"C":{"a":2,"b":8},"D":{"a":8,"b":2}},"conditions":["nonSeqFull","nonSeqPartial","seqNoFeedback","seqFeedback"],"classroomPairings":[["A","B"],["C","D"]],"coinWeights":[0.2,0.5,0.8],"subjectId":"AHYTT3T8W9Y9Y","assignmentId":"3I02618YA1SUIUXBD7XST0EPCZKPUS","hitId":"3J94SKDEKIB2MY6CGVTNWB9X0ALD5P","url":"https://gershmanlab.com/experiments/alicia/teaching/experiment/?hitId=3J94SKDEKIB2MY6CGVTNWB9X0ALD5P&workerId=AHYTT3T8W9Y9Y&assignmentId=3I02618YA1SUIUXBD7XST0EPCZKPUS&a=Y60I9&tp_a=Y60I9&b=3I02618YA1SUIUXBD7XST0EPCZKPUS&tp_b=3I02618YA1SUIUXBD7XST0EPCZKPUS&c=365799&tp_c=365799","heads":10,"tails":2,"studentIndex":22,"studentTrueHypers":{"a":1,"b":4},"studentGuess":0.6470588235294118,"delta":0.1470588235294118,"totalExamples":12,"bonus":0,"bonusSoFar":4.24},{"rt":15334,"response":{"heads":"2","tails":"8"},"type":"response","condition":"nonSeqPartial","trueTheta":0.2,"classrooms":["C","D"],"studentTrueClassroom":"D","exampleSet":"first","trial_type":"survey-html-form","trial_index":196,"time_elapsed":1629193,"internal_node_id":"0.0-186.0-0.0","params":{"nStudents":24,"maxFlips":30,"completionMinutes":45,"basePay":8,"maxBonus":9,"perTrialBonus":0.5,"perTrialBonusThreshold":0.05,"exampleCost":0.01},"classroomParams":{"A":{"a":1,"b":4},"B":{"a":4,"b":1},"C":{"a":2,"b":8},"D":{"a":8,"b":2}},"conditions":["nonSeqFull","nonSeqPartial","seqNoFeedback","seqFeedback"],"classroomPairings":[["A","B"],["C","D"]],"coinWeights":[0.2,0.5,0.8],"subjectId":"AHYTT3T8W9Y9Y","assignmentId":"3I02618YA1SUIUXBD7XST0EPCZKPUS","hitId":"3J94SKDEKIB2MY6CGVTNWB9X0ALD5P","url":"https://gershmanlab.com/experiments/alicia/teaching/experiment/?hitId=3J94SKDEKIB2MY6CGVTNWB9X0ALD5P&workerId=AHYTT3T8W9Y9Y&assignmentId=3I02618YA1SUIUXBD7XST0EPCZKPUS&a=Y60I9&tp_a=Y60I9&b=3I02618YA1SUIUXBD7XST0EPCZKPUS&tp_b=3I02618YA1SUIUXBD7XST0EPCZKPUS&c=365799&tp_c=365799","heads":2,"tails":8,"studentIndex":23,"studentTrueHypers":{"a":8,"b":2},"studentGuess":0.5,"delta":0.3,"totalExamples":10,"bonus":0,"bonusSoFar":4.24},{"rt":14410,"response":{"gender":"female","age":"39","understood":"yes","comments":""},"type":"response","trial_type":"survey-html-form","trial_index":200,"time_elapsed":1652237,"internal_node_id":"0.0-191.0","params":{"nStudents":24,"maxFlips":30,"completionMinutes":45,"basePay":8,"maxBonus":9,"perTrialBonus":0.5,"perTrialBonusThreshold":0.05,"exampleCost":0.01},"classroomParams":{"A":{"a":1,"b":4},"B":{"a":4,"b":1},"C":{"a":2,"b":8},"D":{"a":8,"b":2}},"conditions":["nonSeqFull","nonSeqPartial","seqNoFeedback","seqFeedback"],"classroomPairings":[["A","B"],["C","D"]],"coinWeights":[0.2,0.5,0.8],"subjectId":"AHYTT3T8W9Y9Y","assignmentId":"3I02618YA1SUIUXBD7XST0EPCZKPUS","hitId":"3J94SKDEKIB2MY6CGVTNWB9X0ALD5P","url":"https://gershmanlab.com/experiments/alicia/teaching/experiment/?hitId=3J94SKDEKIB2MY6CGVTNWB9X0ALD5P&workerId=AHYTT3T8W9Y9Y&assignmentId=3I02618YA1SUIUXBD7XST0EPCZKPUS&a=Y60I9&tp_a=Y60I9&b=3I02618YA1SUIUXBD7XST0EPCZKPUS&tp_b=3I02618YA1SUIUXBD7XST0EPCZKPUS&c=365799&tp_c=365799","totalBonus":4.24}]