[{"rt":30709,"response":{"heads":"1","tails":"4"},"type":"response","condition":"nonSeqPartial","trueTheta":0.2,"classrooms":["C","D"],"studentTrueClassroom":"C","exampleSet":"first","trial_type":"survey-html-form","trial_index":10,"time_elapsed":397326,"internal_node_id":"0.0-6.0-0.0","params":{"nStudents":24,"maxFlips":30,"completionMinutes":45,"basePay":8,"maxBonus":9,"perTrialBonus":0.5,"perTrialBonusThreshold":0.05,"exampleCost":0.01},"classroomParams":{"A":{"a":1,"b":4},"B":{"a":4,"b":1},"C":{"a":2,"b":8},"D":{"a":8,"b":2}},"conditions":["nonSeqFull","nonSeqPartial","seqNoFeedback","seqFeedback"],"classroomPairings":[["A","B"],["C","D"]],"coinWeights":[0.2,0.5,0.8],"subjectId":"AK3H5QRAROFGP","assignmentId":"320DUZ38G88FR1TIYP3RSPRMUT1GJN","hitId":"3NI0WFPPI9246I5W92FX9A3E2GN605","url":"https://gershmanlab.com/experiments/alicia/teaching/experiment/?hitId=3NI0WFPPI9246I5W92FX9A3E2GN605&workerId=AK3H5QRAROFGP&assignmentId=320DUZ38G88FR1TIYP3RSPRMUT1GJN&a=8U029&tp_a=8U029&b=320DUZ38G88FR1TIYP3RSPRMUT1GJN&tp_b=320DUZ38G88FR1TIYP3RSPRMUT1GJN&c=365799&tp_c=365799","heads":1,"tails":4,"studentIndex":0,"studentTrueHypers":{"a":2,"b":8},"studentGuess":0.2,"delta":0,"totalExamples":5,"bonus":0.45,"bonusSoFar":0.45},{"rt":11310,"response":{"heads":"1","tails":"1"},"type":"response","condition":"nonSeqPartial","trueTheta":0.5,"classrooms":["C","D"],"studentTrueClassroom":"D","exampleSet":"first","trial_type":"survey-html-form","trial_index":16,"time_elapsed":431672,"internal_node_id":"0.0-12.0-0.0","params":{"nStudents":24,"maxFlips":30,"completionMinutes":45,"basePay":8,"maxBonus":9,"perTrialBonus":0.5,"perTrialBonusThreshold":0.05,"exampleCost":0.01},"classroomParams":{"A":{"a":1,"b":4},"B":{"a":4,"b":1},"C":{"a":2,"b":8},"D":{"a":8,"b":2}},"conditions":["nonSeqFull","nonSeqPartial","seqNoFeedback","seqFeedback"],"classroomPairings":[["A","B"],["C","D"]],"coinWeights":[0.2,0.5,0.8],"subjectId":"AK3H5QRAROFGP","assignmentId":"320DUZ38G88FR1TIYP3RSPRMUT1GJN","hitId":"3NI0WFPPI9246I5W92FX9A3E2GN605","url":"https://gershmanlab.com/experiments/alicia/teaching/experiment/?hitId=3NI0WFPPI9246I5W92FX9A3E2GN605&workerId=AK3H5QRAROFGP&assignmentId=320DUZ38G88FR1TIYP3RSPRMUT1GJN&a=8U029&tp_a=8U029&b=320DUZ38G88FR1TIYP3RSPRMUT1GJN&tp_b=320DUZ38G88FR1TIYP3RSPRMUT1GJN&c=365799&tp_c=365799","heads":1,"tails":1,"studentIndex":1,"studentTrueHypers":{"a":8,"b":2},"studentGuess":0.75,"delta":0.25,"totalExamples":2,"bonus":0,"bonusSoFar":0.45},{"rt":11772,"response":{"heads":"1","tails":"4"},"type":"response","condition":"seqNoFeedback","trueTheta":0.2,"classrooms":["C","D"],"studentTrueClassroom":"C","exampleSet":"first","trial_type":"survey-html-form","trial_index":22,"time_elapsed":461679,"internal_node_id":"0.0-18.0-0.0","params":{"nStudents":24,"maxFlips":30,"completionMinutes":45,"basePay":8,"maxBonus":9,"perTrialBonus":0.5,"perTrialBonusThreshold":0.05,"exampleCost":0.01},"classroomParams":{"A":{"a":1,"b":4},"B":{"a":4,"b":1},"C":{"a":2,"b":8},"D":{"a":8,"b":2}},"conditions":["nonSeqFull","nonSeqPartial","seqNoFeedback","seqFeedback"],"classroomPairings":[["A","B"],["C","D"]],"coinWeights":[0.2,0.5,0.8],"subjectId":"AK3H5QRAROFGP","assignmentId":"320DUZ38G88FR1TIYP3RSPRMUT1GJN","hitId":"3NI0WFPPI9246I5W92FX9A3E2GN605","url":"https://gershmanlab.com/experiments/alicia/teaching/experiment/?hitId=3NI0WFPPI9246I5W92FX9A3E2GN605&workerId=AK3H5QRAROFGP&assignmentId=320DUZ38G88FR1TIYP3RSPRMUT1GJN&a=8U029&tp_a=8U029&b=320DUZ38G88FR1TIYP3RSPRMUT1GJN&tp_b=320DUZ38G88FR1TIYP3RSPRMUT1GJN&c=365799&tp_c=365799","heads":1,"tails":4,"studentIndex":2,"studentTrueHypers":{"a":2,"b":8},"studentGuess":0.2,"delta":0,"totalExamples":5,"bonusSoFar":0.45},{"rt":11505,"response":{"heads":"1","tails":"4"},"type":"response","condition":"seqNoFeedback","trueTheta":0.2,"classrooms":["C","D"],"studentTrueClassroom":"C","exampleSet":"second","trial_type":"survey-html-form","trial_index":25,"time_elapsed":479198,"internal_node_id":"0.0-21.0-0.0","params":{"nStudents":24,"maxFlips":30,"completionMinutes":45,"basePay":8,"maxBonus":9,"perTrialBonus":0.5,"perTrialBonusThreshold":0.05,"exampleCost":0.01},"classroomParams":{"A":{"a":1,"b":4},"B":{"a":4,"b":1},"C":{"a":2,"b":8},"D":{"a":8,"b":2}},"conditions":["nonSeqFull","nonSeqPartial","seqNoFeedback","seqFeedback"],"classroomPairings":[["A","B"],["C","D"]],"coinWeights":[0.2,0.5,0.8],"subjectId":"AK3H5QRAROFGP","assignmentId":"320DUZ38G88FR1TIYP3RSPRMUT1GJN","hitId":"3NI0WFPPI9246I5W92FX9A3E2GN605","url":"https://gershmanlab.com/experiments/alicia/teaching/experiment/?hitId=3NI0WFPPI9246I5W92FX9A3E2GN605&workerId=AK3H5QRAROFGP&assignmentId=320DUZ38G88FR1TIYP3RSPRMUT1GJN&a=8U029&tp_a=8U029&b=320DUZ38G88FR1TIYP3RSPRMUT1GJN&tp_b=320DUZ38G88FR1TIYP3RSPRMUT1GJN&c=365799&tp_c=365799","firstResponseHeads":1,"firstResponseTails":4,"secondResponseHeads":1,"secondResponseTails":4,"totalHeads":2,"totalTails":8,"studentIndex":2,"studentTrueHypers":{"a":2,"b":8},"studentGuess":0.2,"delta":0,"bonus":0.4,"bonusSoFar":0.85,"totalExamples":10},{"rt":14706,"response":{"heads":"1","tails":"4"},"type":"response","condition":"nonSeqPartial","trueTheta":0.2,"classrooms":["A","B"],"studentTrueClassroom":"B","exampleSet":"first","trial_type":"survey-html-form","trial_index":31,"time_elapsed":509792,"internal_node_id":"0.0-27.0-0.0","params":{"nStudents":24,"maxFlips":30,"completionMinutes":45,"basePay":8,"maxBonus":9,"perTrialBonus":0.5,"perTrialBonusThreshold":0.05,"exampleCost":0.01},"classroomParams":{"A":{"a":1,"b":4},"B":{"a":4,"b":1},"C":{"a":2,"b":8},"D":{"a":8,"b":2}},"conditions":["nonSeqFull","nonSeqPartial","seqNoFeedback","seqFeedback"],"classroomPairings":[["A","B"],["C","D"]],"coinWeights":[0.2,0.5,0.8],"subjectId":"AK3H5QRAROFGP","assignmentId":"320DUZ38G88FR1TIYP3RSPRMUT1GJN","hitId":"3NI0WFPPI9246I5W92FX9A3E2GN605","url":"https://gershmanlab.com/experiments/alicia/teaching/experiment/?hitId=3NI0WFPPI9246I5W92FX9A3E2GN605&workerId=AK3H5QRAROFGP&assignmentId=320DUZ38G88FR1TIYP3RSPRMUT1GJN&a=8U029&tp_a=8U029&b=320DUZ38G88FR1TIYP3RSPRMUT1GJN&tp_b=320DUZ38G88FR1TIYP3RSPRMUT1GJN&c=365799&tp_c=365799","heads":1,"tails":4,"studentIndex":3,"studentTrueHypers":{"a":4,"b":1},"studentGuess":0.5,"delta":0.3,"totalExamples":5,"bonus":0,"bonusSoFar":0.85},{"rt":7180,"response":{"heads":"1","tails":"1"},"type":"response","condition":"seqFeedback","trueTheta":0.5,"classrooms":["A","B"],"studentTrueClassroom":"B","exampleSet":"first","trial_type":"survey-html-form","trial_index":37,"time_elapsed":539221,"internal_node_id":"0.0-33.0-0.0","params":{"nStudents":24,"maxFlips":30,"completionMinutes":45,"basePay":8,"maxBonus":9,"perTrialBonus":0.5,"perTrialBonusThreshold":0.05,"exampleCost":0.01},"classroomParams":{"A":{"a":1,"b":4},"B":{"a":4,"b":1},"C":{"a":2,"b":8},"D":{"a":8,"b":2}},"conditions":["nonSeqFull","nonSeqPartial","seqNoFeedback","seqFeedback"],"classroomPairings":[["A","B"],["C","D"]],"coinWeights":[0.2,0.5,0.8],"subjectId":"AK3H5QRAROFGP","assignmentId":"320DUZ38G88FR1TIYP3RSPRMUT1GJN","hitId":"3NI0WFPPI9246I5W92FX9A3E2GN605","url":"https://gershmanlab.com/experiments/alicia/teaching/experiment/?hitId=3NI0WFPPI9246I5W92FX9A3E2GN605&workerId=AK3H5QRAROFGP&assignmentId=320DUZ38G88FR1TIYP3RSPRMUT1GJN&a=8U029&tp_a=8U029&b=320DUZ38G88FR1TIYP3RSPRMUT1GJN&tp_b=320DUZ38G88FR1TIYP3RSPRMUT1GJN&c=365799&tp_c=365799","heads":1,"tails":1,"studentIndex":4,"studentTrueHypers":{"a":4,"b":1},"studentGuess":0.7142857142857143,"delta":0.2142857142857143,"totalExamples":2,"bonusSoFar":0.85},{"rt":26521,"response":{"heads":"0","tails":"3"},"type":"response","condition":"seqFeedback","trueTheta":0.5,"classrooms":["A","B"],"studentTrueClassroom":"B","exampleSet":"second","trial_type":"survey-html-form","trial_index":41,"time_elapsed":577890,"internal_node_id":"0.0-37.0-0.0","params":{"nStudents":24,"maxFlips":30,"completionMinutes":45,"basePay":8,"maxBonus":9,"perTrialBonus":0.5,"perTrialBonusThreshold":0.05,"exampleCost":0.01},"classroomParams":{"A":{"a":1,"b":4},"B":{"a":4,"b":1},"C":{"a":2,"b":8},"D":{"a":8,"b":2}},"conditions":["nonSeqFull","nonSeqPartial","seqNoFeedback","seqFeedback"],"classroomPairings":[["A","B"],["C","D"]],"coinWeights":[0.2,0.5,0.8],"subjectId":"AK3H5QRAROFGP","assignmentId":"320DUZ38G88FR1TIYP3RSPRMUT1GJN","hitId":"3NI0WFPPI9246I5W92FX9A3E2GN605","url":"https://gershmanlab.com/experiments/alicia/teaching/experiment/?hitId=3NI0WFPPI9246I5W92FX9A3E2GN605&workerId=AK3H5QRAROFGP&assignmentId=320DUZ38G88FR1TIYP3RSPRMUT1GJN&a=8U029&tp_a=8U029&b=320DUZ38G88FR1TIYP3RSPRMUT1GJN&tp_b=320DUZ38G88FR1TIYP3RSPRMUT1GJN&c=365799&tp_c=365799","firstResponseHeads":1,"firstResponseTails":1,"secondResponseHeads":0,"secondResponseTails":3,"totalHeads":1,"totalTails":4,"studentIndex":4,"studentTrueHypers":{"a":4,"b":1},"studentGuess":0.5,"delta":0,"bonus":0.45,"bonusSoFar":1.3,"totalExamples":5},{"rt":8175,"response":{"heads":"1","tails":"4"},"type":"response","condition":"seqFeedback","trueTheta":0.2,"classrooms":["A","B"],"studentTrueClassroom":"B","exampleSet":"first","trial_type":"survey-html-form","trial_index":47,"time_elapsed":602114,"internal_node_id":"0.0-43.0-0.0","params":{"nStudents":24,"maxFlips":30,"completionMinutes":45,"basePay":8,"maxBonus":9,"perTrialBonus":0.5,"perTrialBonusThreshold":0.05,"exampleCost":0.01},"classroomParams":{"A":{"a":1,"b":4},"B":{"a":4,"b":1},"C":{"a":2,"b":8},"D":{"a":8,"b":2}},"conditions":["nonSeqFull","nonSeqPartial","seqNoFeedback","seqFeedback"],"classroomPairings":[["A","B"],["C","D"]],"coinWeights":[0.2,0.5,0.8],"subjectId":"AK3H5QRAROFGP","assignmentId":"320DUZ38G88FR1TIYP3RSPRMUT1GJN","hitId":"3NI0WFPPI9246I5W92FX9A3E2GN605","url":"https://gershmanlab.com/experiments/alicia/teaching/experiment/?hitId=3NI0WFPPI9246I5W92FX9A3E2GN605&workerId=AK3H5QRAROFGP&assignmentId=320DUZ38G88FR1TIYP3RSPRMUT1GJN&a=8U029&tp_a=8U029&b=320DUZ38G88FR1TIYP3RSPRMUT1GJN&tp_b=320DUZ38G88FR1TIYP3RSPRMUT1GJN&c=365799&tp_c=365799","heads":1,"tails":4,"studentIndex":5,"studentTrueHypers":{"a":4,"b":1},"studentGuess":0.5,"delta":0.3,"totalExamples":5,"bonusSoFar":1.3},{"rt":12122,"response":{"heads":"0","tails":"4"},"type":"response","condition":"seqFeedback","trueTheta":0.2,"classrooms":["A","B"],"studentTrueClassroom":"B","exampleSet":"second","trial_type":"survey-html-form","trial_index":51,"time_elapsed":626394,"internal_node_id":"0.0-47.0-0.0","params":{"nStudents":24,"maxFlips":30,"completionMinutes":45,"basePay":8,"maxBonus":9,"perTrialBonus":0.5,"perTrialBonusThreshold":0.05,"exampleCost":0.01},"classroomParams":{"A":{"a":1,"b":4},"B":{"a":4,"b":1},"C":{"a":2,"b":8},"D":{"a":8,"b":2}},"conditions":["nonSeqFull","nonSeqPartial","seqNoFeedback","seqFeedback"],"classroomPairings":[["A","B"],["C","D"]],"coinWeights":[0.2,0.5,0.8],"subjectId":"AK3H5QRAROFGP","assignmentId":"320DUZ38G88FR1TIYP3RSPRMUT1GJN","hitId":"3NI0WFPPI9246I5W92FX9A3E2GN605","url":"https://gershmanlab.com/experiments/alicia/teaching/experiment/?hitId=3NI0WFPPI9246I5W92FX9A3E2GN605&workerId=AK3H5QRAROFGP&assignmentId=320DUZ38G88FR1TIYP3RSPRMUT1GJN&a=8U029&tp_a=8U029&b=320DUZ38G88FR1TIYP3RSPRMUT1GJN&tp_b=320DUZ38G88FR1TIYP3RSPRMUT1GJN&c=365799&tp_c=365799","firstResponseHeads":1,"firstResponseTails":4,"secondResponseHeads":0,"secondResponseTails":4,"totalHeads":1,"totalTails":8,"studentIndex":5,"studentTrueHypers":{"a":4,"b":1},"studentGuess":0.35714285714285715,"delta":0.15714285714285714,"bonus":0,"bonusSoFar":1.3,"totalExamples":9},{"rt":10756,"response":{"heads":"0","tails":"0"},"type":"response","condition":"nonSeqFull","trueTheta":0.8,"classrooms":["C","D"],"studentTrueClassroom":"D","exampleSet":"first","trial_type":"survey-html-form","trial_index":57,"time_elapsed":649355,"internal_node_id":"0.0-53.0-0.0","params":{"nStudents":24,"maxFlips":30,"completionMinutes":45,"basePay":8,"maxBonus":9,"perTrialBonus":0.5,"perTrialBonusThreshold":0.05,"exampleCost":0.01},"classroomParams":{"A":{"a":1,"b":4},"B":{"a":4,"b":1},"C":{"a":2,"b":8},"D":{"a":8,"b":2}},"conditions":["nonSeqFull","nonSeqPartial","seqNoFeedback","seqFeedback"],"classroomPairings":[["A","B"],["C","D"]],"coinWeights":[0.2,0.5,0.8],"subjectId":"AK3H5QRAROFGP","assignmentId":"320DUZ38G88FR1TIYP3RSPRMUT1GJN","hitId":"3NI0WFPPI9246I5W92FX9A3E2GN605","url":"https://gershmanlab.com/experiments/alicia/teaching/experiment/?hitId=3NI0WFPPI9246I5W92FX9A3E2GN605&workerId=AK3H5QRAROFGP&assignmentId=320DUZ38G88FR1TIYP3RSPRMUT1GJN&a=8U029&tp_a=8U029&b=320DUZ38G88FR1TIYP3RSPRMUT1GJN&tp_b=320DUZ38G88FR1TIYP3RSPRMUT1GJN&c=365799&tp_c=365799","heads":0,"tails":0,"studentIndex":6,"studentTrueHypers":{"a":8,"b":2},"studentGuess":0.8,"delta":0,"totalExamples":0,"bonus":0.5,"bonusSoFar":1.8},{"rt":7439,"response":{"heads":"4","tails":"1"},"type":"response","condition":"nonSeqFull","trueTheta":0.8,"classrooms":["C","D"],"studentTrueClassroom":"D","exampleSet":"first","trial_type":"survey-html-form","trial_index":58,"time_elapsed":656796,"internal_node_id":"0.0-53.1-0.1","params":{"nStudents":24,"maxFlips":30,"completionMinutes":45,"basePay":8,"maxBonus":9,"perTrialBonus":0.5,"perTrialBonusThreshold":0.05,"exampleCost":0.01},"classroomParams":{"A":{"a":1,"b":4},"B":{"a":4,"b":1},"C":{"a":2,"b":8},"D":{"a":8,"b":2}},"conditions":["nonSeqFull","nonSeqPartial","seqNoFeedback","seqFeedback"],"classroomPairings":[["A","B"],["C","D"]],"coinWeights":[0.2,0.5,0.8],"subjectId":"AK3H5QRAROFGP","assignmentId":"320DUZ38G88FR1TIYP3RSPRMUT1GJN","hitId":"3NI0WFPPI9246I5W92FX9A3E2GN605","url":"https://gershmanlab.com/experiments/alicia/teaching/experiment/?hitId=3NI0WFPPI9246I5W92FX9A3E2GN605&workerId=AK3H5QRAROFGP&assignmentId=320DUZ38G88FR1TIYP3RSPRMUT1GJN&a=8U029&tp_a=8U029&b=320DUZ38G88FR1TIYP3RSPRMUT1GJN&tp_b=320DUZ38G88FR1TIYP3RSPRMUT1GJN&c=365799&tp_c=365799","heads":4,"tails":1,"studentIndex":6,"studentTrueHypers":{"a":8,"b":2},"studentGuess":0.8,"delta":0,"totalExamples":5,"bonus":0.45,"bonusSoFar":2.25},{"rt":17091,"response":{"heads":"0","tails":"6"},"type":"response","condition":"nonSeqFull","trueTheta":0.5,"classrooms":["C","D"],"studentTrueClassroom":"D","exampleSet":"first","trial_type":"survey-html-form","trial_index":64,"time_elapsed":685371,"internal_node_id":"0.0-59.0-0.0","params":{"nStudents":24,"maxFlips":30,"completionMinutes":45,"basePay":8,"maxBonus":9,"perTrialBonus":0.5,"perTrialBonusThreshold":0.05,"exampleCost":0.01},"classroomParams":{"A":{"a":1,"b":4},"B":{"a":4,"b":1},"C":{"a":2,"b":8},"D":{"a":8,"b":2}},"conditions":["nonSeqFull","nonSeqPartial","seqNoFeedback","seqFeedback"],"classroomPairings":[["A","B"],["C","D"]],"coinWeights":[0.2,0.5,0.8],"subjectId":"AK3H5QRAROFGP","assignmentId":"320DUZ38G88FR1TIYP3RSPRMUT1GJN","hitId":"3NI0WFPPI9246I5W92FX9A3E2GN605","url":"https://gershmanlab.com/experiments/alicia/teaching/experiment/?hitId=3NI0WFPPI9246I5W92FX9A3E2GN605&workerId=AK3H5QRAROFGP&assignmentId=320DUZ38G88FR1TIYP3RSPRMUT1GJN&a=8U029&tp_a=8U029&b=320DUZ38G88FR1TIYP3RSPRMUT1GJN&tp_b=320DUZ38G88FR1TIYP3RSPRMUT1GJN&c=365799&tp_c=365799","heads":0,"tails":6,"studentIndex":7,"studentTrueHypers":{"a":8,"b":2},"studentGuess":0.5,"delta":0,"totalExamples":6,"bonus":0.44,"bonusSoFar":2.69},{"rt":25105,"response":{"heads":"19","tails":"0"},"type":"response","condition":"nonSeqFull","trueTheta":0.8,"classrooms":["A","B"],"studentTrueClassroom":"A","exampleSet":"first","trial_type":"survey-html-form","trial_index":70,"time_elapsed":722767,"internal_node_id":"0.0-65.0-0.0","params":{"nStudents":24,"maxFlips":30,"completionMinutes":45,"basePay":8,"maxBonus":9,"perTrialBonus":0.5,"perTrialBonusThreshold":0.05,"exampleCost":0.01},"classroomParams":{"A":{"a":1,"b":4},"B":{"a":4,"b":1},"C":{"a":2,"b":8},"D":{"a":8,"b":2}},"conditions":["nonSeqFull","nonSeqPartial","seqNoFeedback","seqFeedback"],"classroomPairings":[["A","B"],["C","D"]],"coinWeights":[0.2,0.5,0.8],"subjectId":"AK3H5QRAROFGP","assignmentId":"320DUZ38G88FR1TIYP3RSPRMUT1GJN","hitId":"3NI0WFPPI9246I5W92FX9A3E2GN605","url":"https://gershmanlab.com/experiments/alicia/teaching/experiment/?hitId=3NI0WFPPI9246I5W92FX9A3E2GN605&workerId=AK3H5QRAROFGP&assignmentId=320DUZ38G88FR1TIYP3RSPRMUT1GJN&a=8U029&tp_a=8U029&b=320DUZ38G88FR1TIYP3RSPRMUT1GJN&tp_b=320DUZ38G88FR1TIYP3RSPRMUT1GJN&c=365799&tp_c=365799","heads":19,"tails":0,"studentIndex":8,"studentTrueHypers":{"a":1,"b":4},"studentGuess":0.8333333333333334,"delta":0.033333333333333326,"totalExamples":19,"bonus":0.31,"bonusSoFar":3},{"rt":10936,"response":{"heads":"4","tails":"1"},"type":"response","condition":"nonSeqPartial","trueTheta":0.8,"classrooms":["A","B"],"studentTrueClassroom":"A","exampleSet":"first","trial_type":"survey-html-form","trial_index":76,"time_elapsed":747885,"internal_node_id":"0.0-71.0-0.0","params":{"nStudents":24,"maxFlips":30,"completionMinutes":45,"basePay":8,"maxBonus":9,"perTrialBonus":0.5,"perTrialBonusThreshold":0.05,"exampleCost":0.01},"classroomParams":{"A":{"a":1,"b":4},"B":{"a":4,"b":1},"C":{"a":2,"b":8},"D":{"a":8,"b":2}},"conditions":["nonSeqFull","nonSeqPartial","seqNoFeedback","seqFeedback"],"classroomPairings":[["A","B"],["C","D"]],"coinWeights":[0.2,0.5,0.8],"subjectId":"AK3H5QRAROFGP","assignmentId":"320DUZ38G88FR1TIYP3RSPRMUT1GJN","hitId":"3NI0WFPPI9246I5W92FX9A3E2GN605","url":"https://gershmanlab.com/experiments/alicia/teaching/experiment/?hitId=3NI0WFPPI9246I5W92FX9A3E2GN605&workerId=AK3H5QRAROFGP&assignmentId=320DUZ38G88FR1TIYP3RSPRMUT1GJN&a=8U029&tp_a=8U029&b=320DUZ38G88FR1TIYP3RSPRMUT1GJN&tp_b=320DUZ38G88FR1TIYP3RSPRMUT1GJN&c=365799&tp_c=365799","heads":4,"tails":1,"studentIndex":9,"studentTrueHypers":{"a":1,"b":4},"studentGuess":0.5,"delta":0.30000000000000004,"totalExamples":5,"bonus":0,"bonusSoFar":3},{"rt":22132,"response":{"heads":"1","tails":"1"},"type":"response","condition":"nonSeqPartial","trueTheta":0.5,"classrooms":["A","B"],"studentTrueClassroom":"A","exampleSet":"first","trial_type":"survey-html-form","trial_index":82,"time_elapsed":784063,"internal_node_id":"0.0-77.0-0.0","params":{"nStudents":24,"maxFlips":30,"completionMinutes":45,"basePay":8,"maxBonus":9,"perTrialBonus":0.5,"perTrialBonusThreshold":0.05,"exampleCost":0.01},"classroomParams":{"A":{"a":1,"b":4},"B":{"a":4,"b":1},"C":{"a":2,"b":8},"D":{"a":8,"b":2}},"conditions":["nonSeqFull","nonSeqPartial","seqNoFeedback","seqFeedback"],"classroomPairings":[["A","B"],["C","D"]],"coinWeights":[0.2,0.5,0.8],"subjectId":"AK3H5QRAROFGP","assignmentId":"320DUZ38G88FR1TIYP3RSPRMUT1GJN","hitId":"3NI0WFPPI9246I5W92FX9A3E2GN605","url":"https://gershmanlab.com/experiments/alicia/teaching/experiment/?hitId=3NI0WFPPI9246I5W92FX9A3E2GN605&workerId=AK3H5QRAROFGP&assignmentId=320DUZ38G88FR1TIYP3RSPRMUT1GJN&a=8U029&tp_a=8U029&b=320DUZ38G88FR1TIYP3RSPRMUT1GJN&tp_b=320DUZ38G88FR1TIYP3RSPRMUT1GJN&c=365799&tp_c=365799","heads":1,"tails":1,"studentIndex":10,"studentTrueHypers":{"a":1,"b":4},"studentGuess":0.2857142857142857,"delta":0.2142857142857143,"totalExamples":2,"bonus":0,"bonusSoFar":3},{"rt":9776,"response":{"heads":"1","tails":"4"},"type":"response","condition":"seqNoFeedback","trueTheta":0.2,"classrooms":["A","B"],"studentTrueClassroom":"A","exampleSet":"first","trial_type":"survey-html-form","trial_index":88,"time_elapsed":806618,"internal_node_id":"0.0-83.0-0.0","params":{"nStudents":24,"maxFlips":30,"completionMinutes":45,"basePay":8,"maxBonus":9,"perTrialBonus":0.5,"perTrialBonusThreshold":0.05,"exampleCost":0.01},"classroomParams":{"A":{"a":1,"b":4},"B":{"a":4,"b":1},"C":{"a":2,"b":8},"D":{"a":8,"b":2}},"conditions":["nonSeqFull","nonSeqPartial","seqNoFeedback","seqFeedback"],"classroomPairings":[["A","B"],["C","D"]],"coinWeights":[0.2,0.5,0.8],"subjectId":"AK3H5QRAROFGP","assignmentId":"320DUZ38G88FR1TIYP3RSPRMUT1GJN","hitId":"3NI0WFPPI9246I5W92FX9A3E2GN605","url":"https://gershmanlab.com/experiments/alicia/teaching/experiment/?hitId=3NI0WFPPI9246I5W92FX9A3E2GN605&workerId=AK3H5QRAROFGP&assignmentId=320DUZ38G88FR1TIYP3RSPRMUT1GJN&a=8U029&tp_a=8U029&b=320DUZ38G88FR1TIYP3RSPRMUT1GJN&tp_b=320DUZ38G88FR1TIYP3RSPRMUT1GJN&c=365799&tp_c=365799","heads":1,"tails":4,"studentIndex":11,"studentTrueHypers":{"a":1,"b":4},"studentGuess":0.2,"delta":0,"totalExamples":5,"bonusSoFar":3},{"rt":7763,"response":{"heads":"1","tails":"4"},"type":"response","condition":"seqNoFeedback","trueTheta":0.2,"classrooms":["A","B"],"studentTrueClassroom":"A","exampleSet":"second","trial_type":"survey-html-form","trial_index":91,"time_elapsed":820387,"internal_node_id":"0.0-86.0-0.0","params":{"nStudents":24,"maxFlips":30,"completionMinutes":45,"basePay":8,"maxBonus":9,"perTrialBonus":0.5,"perTrialBonusThreshold":0.05,"exampleCost":0.01},"classroomParams":{"A":{"a":1,"b":4},"B":{"a":4,"b":1},"C":{"a":2,"b":8},"D":{"a":8,"b":2}},"conditions":["nonSeqFull","nonSeqPartial","seqNoFeedback","seqFeedback"],"classroomPairings":[["A","B"],["C","D"]],"coinWeights":[0.2,0.5,0.8],"subjectId":"AK3H5QRAROFGP","assignmentId":"320DUZ38G88FR1TIYP3RSPRMUT1GJN","hitId":"3NI0WFPPI9246I5W92FX9A3E2GN605","url":"https://gershmanlab.com/experiments/alicia/teaching/experiment/?hitId=3NI0WFPPI9246I5W92FX9A3E2GN605&workerId=AK3H5QRAROFGP&assignmentId=320DUZ38G88FR1TIYP3RSPRMUT1GJN&a=8U029&tp_a=8U029&b=320DUZ38G88FR1TIYP3RSPRMUT1GJN&tp_b=320DUZ38G88FR1TIYP3RSPRMUT1GJN&c=365799&tp_c=365799","firstResponseHeads":1,"firstResponseTails":4,"secondResponseHeads":1,"secondResponseTails":4,"totalHeads":2,"totalTails":8,"studentIndex":11,"studentTrueHypers":{"a":1,"b":4},"studentGuess":0.2,"delta":0,"bonus":0.4,"bonusSoFar":3.4,"totalExamples":10},{"rt":14896,"response":{"heads":"1","tails":"4"},"type":"response","condition":"nonSeqFull","trueTheta":0.2,"classrooms":["C","D"],"studentTrueClassroom":"C","exampleSet":"first","trial_type":"survey-html-form","trial_index":97,"time_elapsed":847633,"internal_node_id":"0.0-92.0-0.0","params":{"nStudents":24,"maxFlips":30,"completionMinutes":45,"basePay":8,"maxBonus":9,"perTrialBonus":0.5,"perTrialBonusThreshold":0.05,"exampleCost":0.01},"classroomParams":{"A":{"a":1,"b":4},"B":{"a":4,"b":1},"C":{"a":2,"b":8},"D":{"a":8,"b":2}},"conditions":["nonSeqFull","nonSeqPartial","seqNoFeedback","seqFeedback"],"classroomPairings":[["A","B"],["C","D"]],"coinWeights":[0.2,0.5,0.8],"subjectId":"AK3H5QRAROFGP","assignmentId":"320DUZ38G88FR1TIYP3RSPRMUT1GJN","hitId":"3NI0WFPPI9246I5W92FX9A3E2GN605","url":"https://gershmanlab.com/experiments/alicia/teaching/experiment/?hitId=3NI0WFPPI9246I5W92FX9A3E2GN605&workerId=AK3H5QRAROFGP&assignmentId=320DUZ38G88FR1TIYP3RSPRMUT1GJN&a=8U029&tp_a=8U029&b=320DUZ38G88FR1TIYP3RSPRMUT1GJN&tp_b=320DUZ38G88FR1TIYP3RSPRMUT1GJN&c=365799&tp_c=365799","heads":1,"tails":4,"studentIndex":12,"studentTrueHypers":{"a":2,"b":8},"studentGuess":0.2,"delta":0,"totalExamples":5,"bonus":0.45,"bonusSoFar":3.85},{"rt":12304,"response":{"heads":"1","tails":"1"},"type":"response","condition":"seqFeedback","trueTheta":0.8,"classrooms":["A","B"],"studentTrueClassroom":"A","exampleSet":"first","trial_type":"survey-html-form","trial_index":103,"time_elapsed":872514,"internal_node_id":"0.0-98.0-0.0","params":{"nStudents":24,"maxFlips":30,"completionMinutes":45,"basePay":8,"maxBonus":9,"perTrialBonus":0.5,"perTrialBonusThreshold":0.05,"exampleCost":0.01},"classroomParams":{"A":{"a":1,"b":4},"B":{"a":4,"b":1},"C":{"a":2,"b":8},"D":{"a":8,"b":2}},"conditions":["nonSeqFull","nonSeqPartial","seqNoFeedback","seqFeedback"],"classroomPairings":[["A","B"],["C","D"]],"coinWeights":[0.2,0.5,0.8],"subjectId":"AK3H5QRAROFGP","assignmentId":"320DUZ38G88FR1TIYP3RSPRMUT1GJN","hitId":"3NI0WFPPI9246I5W92FX9A3E2GN605","url":"https://gershmanlab.com/experiments/alicia/teaching/experiment/?hitId=3NI0WFPPI9246I5W92FX9A3E2GN605&workerId=AK3H5QRAROFGP&assignmentId=320DUZ38G88FR1TIYP3RSPRMUT1GJN&a=8U029&tp_a=8U029&b=320DUZ38G88FR1TIYP3RSPRMUT1GJN&tp_b=320DUZ38G88FR1TIYP3RSPRMUT1GJN&c=365799&tp_c=365799","heads":1,"tails":1,"studentIndex":13,"studentTrueHypers":{"a":1,"b":4},"studentGuess":0.2857142857142857,"delta":0.5142857142857143,"totalExamples":2,"bonusSoFar":3.85},{"rt":14255,"response":{"heads":"20","tails":"0"},"type":"response","condition":"seqFeedback","trueTheta":0.8,"classrooms":["A","B"],"studentTrueClassroom":"A","exampleSet":"second","trial_type":"survey-html-form","trial_index":107,"time_elapsed":895660,"internal_node_id":"0.0-102.0-0.0","params":{"nStudents":24,"maxFlips":30,"completionMinutes":45,"basePay":8,"maxBonus":9,"perTrialBonus":0.5,"perTrialBonusThreshold":0.05,"exampleCost":0.01},"classroomParams":{"A":{"a":1,"b":4},"B":{"a":4,"b":1},"C":{"a":2,"b":8},"D":{"a":8,"b":2}},"conditions":["nonSeqFull","nonSeqPartial","seqNoFeedback","seqFeedback"],"classroomPairings":[["A","B"],["C","D"]],"coinWeights":[0.2,0.5,0.8],"subjectId":"AK3H5QRAROFGP","assignmentId":"320DUZ38G88FR1TIYP3RSPRMUT1GJN","hitId":"3NI0WFPPI9246I5W92FX9A3E2GN605","url":"https://gershmanlab.com/experiments/alicia/teaching/experiment/?hitId=3NI0WFPPI9246I5W92FX9A3E2GN605&workerId=AK3H5QRAROFGP&assignmentId=320DUZ38G88FR1TIYP3RSPRMUT1GJN&a=8U029&tp_a=8U029&b=320DUZ38G88FR1TIYP3RSPRMUT1GJN&tp_b=320DUZ38G88FR1TIYP3RSPRMUT1GJN&c=365799&tp_c=365799","firstResponseHeads":1,"firstResponseTails":1,"secondResponseHeads":20,"secondResponseTails":0,"totalHeads":21,"totalTails":1,"studentIndex":13,"studentTrueHypers":{"a":1,"b":4},"studentGuess":0.8148148148148148,"delta":0.014814814814814725,"bonus":0.28,"bonusSoFar":4.13,"totalExamples":22},{"rt":5834,"response":{"heads":"4","tails":"1"},"type":"response","condition":"seqNoFeedback","trueTheta":0.8,"classrooms":["C","D"],"studentTrueClassroom":"D","exampleSet":"first","trial_type":"survey-html-form","trial_index":113,"time_elapsed":915907,"internal_node_id":"0.0-108.0-0.0","params":{"nStudents":24,"maxFlips":30,"completionMinutes":45,"basePay":8,"maxBonus":9,"perTrialBonus":0.5,"perTrialBonusThreshold":0.05,"exampleCost":0.01},"classroomParams":{"A":{"a":1,"b":4},"B":{"a":4,"b":1},"C":{"a":2,"b":8},"D":{"a":8,"b":2}},"conditions":["nonSeqFull","nonSeqPartial","seqNoFeedback","seqFeedback"],"classroomPairings":[["A","B"],["C","D"]],"coinWeights":[0.2,0.5,0.8],"subjectId":"AK3H5QRAROFGP","assignmentId":"320DUZ38G88FR1TIYP3RSPRMUT1GJN","hitId":"3NI0WFPPI9246I5W92FX9A3E2GN605","url":"https://gershmanlab.com/experiments/alicia/teaching/experiment/?hitId=3NI0WFPPI9246I5W92FX9A3E2GN605&workerId=AK3H5QRAROFGP&assignmentId=320DUZ38G88FR1TIYP3RSPRMUT1GJN&a=8U029&tp_a=8U029&b=320DUZ38G88FR1TIYP3RSPRMUT1GJN&tp_b=320DUZ38G88FR1TIYP3RSPRMUT1GJN&c=365799&tp_c=365799","heads":4,"tails":1,"studentIndex":14,"studentTrueHypers":{"a":8,"b":2},"studentGuess":0.8,"delta":0,"totalExamples":5,"bonusSoFar":4.13},{"rt":5226,"response":{"heads":"4","tails":"1"},"type":"response","condition":"seqNoFeedback","trueTheta":0.8,"classrooms":["C","D"],"studentTrueClassroom":"D","exampleSet":"second","trial_type":"survey-html-form","trial_index":116,"time_elapsed":927646,"internal_node_id":"0.0-111.0-0.0","params":{"nStudents":24,"maxFlips":30,"completionMinutes":45,"basePay":8,"maxBonus":9,"perTrialBonus":0.5,"perTrialBonusThreshold":0.05,"exampleCost":0.01},"classroomParams":{"A":{"a":1,"b":4},"B":{"a":4,"b":1},"C":{"a":2,"b":8},"D":{"a":8,"b":2}},"conditions":["nonSeqFull","nonSeqPartial","seqNoFeedback","seqFeedback"],"classroomPairings":[["A","B"],["C","D"]],"coinWeights":[0.2,0.5,0.8],"subjectId":"AK3H5QRAROFGP","assignmentId":"320DUZ38G88FR1TIYP3RSPRMUT1GJN","hitId":"3NI0WFPPI9246I5W92FX9A3E2GN605","url":"https://gershmanlab.com/experiments/alicia/teaching/experiment/?hitId=3NI0WFPPI9246I5W92FX9A3E2GN605&workerId=AK3H5QRAROFGP&assignmentId=320DUZ38G88FR1TIYP3RSPRMUT1GJN&a=8U029&tp_a=8U029&b=320DUZ38G88FR1TIYP3RSPRMUT1GJN&tp_b=320DUZ38G88FR1TIYP3RSPRMUT1GJN&c=365799&tp_c=365799","firstResponseHeads":4,"firstResponseTails":1,"secondResponseHeads":4,"secondResponseTails":1,"totalHeads":8,"totalTails":2,"studentIndex":14,"studentTrueHypers":{"a":8,"b":2},"studentGuess":0.8,"delta":0,"bonus":0.4,"bonusSoFar":4.53,"totalExamples":10},{"rt":12787,"response":{"heads":"5","tails":"5"},"type":"response","condition":"seqFeedback","trueTheta":0.5,"classrooms":["C","D"],"studentTrueClassroom":"C","exampleSet":"first","trial_type":"survey-html-form","trial_index":122,"time_elapsed":952633,"internal_node_id":"0.0-117.0-0.0","params":{"nStudents":24,"maxFlips":30,"completionMinutes":45,"basePay":8,"maxBonus":9,"perTrialBonus":0.5,"perTrialBonusThreshold":0.05,"exampleCost":0.01},"classroomParams":{"A":{"a":1,"b":4},"B":{"a":4,"b":1},"C":{"a":2,"b":8},"D":{"a":8,"b":2}},"conditions":["nonSeqFull","nonSeqPartial","seqNoFeedback","seqFeedback"],"classroomPairings":[["A","B"],["C","D"]],"coinWeights":[0.2,0.5,0.8],"subjectId":"AK3H5QRAROFGP","assignmentId":"320DUZ38G88FR1TIYP3RSPRMUT1GJN","hitId":"3NI0WFPPI9246I5W92FX9A3E2GN605","url":"https://gershmanlab.com/experiments/alicia/teaching/experiment/?hitId=3NI0WFPPI9246I5W92FX9A3E2GN605&workerId=AK3H5QRAROFGP&assignmentId=320DUZ38G88FR1TIYP3RSPRMUT1GJN&a=8U029&tp_a=8U029&b=320DUZ38G88FR1TIYP3RSPRMUT1GJN&tp_b=320DUZ38G88FR1TIYP3RSPRMUT1GJN&c=365799&tp_c=365799","heads":5,"tails":5,"studentIndex":15,"studentTrueHypers":{"a":2,"b":8},"studentGuess":0.35,"delta":0.15000000000000002,"totalExamples":10,"bonusSoFar":4.53},{"rt":13568,"response":{"heads":"6","tails":"0"},"type":"response","condition":"seqFeedback","trueTheta":0.5,"classrooms":["C","D"],"studentTrueClassroom":"C","exampleSet":"second","trial_type":"survey-html-form","trial_index":126,"time_elapsed":976161,"internal_node_id":"0.0-121.0-0.0","params":{"nStudents":24,"maxFlips":30,"completionMinutes":45,"basePay":8,"maxBonus":9,"perTrialBonus":0.5,"perTrialBonusThreshold":0.05,"exampleCost":0.01},"classroomParams":{"A":{"a":1,"b":4},"B":{"a":4,"b":1},"C":{"a":2,"b":8},"D":{"a":8,"b":2}},"conditions":["nonSeqFull","nonSeqPartial","seqNoFeedback","seqFeedback"],"classroomPairings":[["A","B"],["C","D"]],"coinWeights":[0.2,0.5,0.8],"subjectId":"AK3H5QRAROFGP","assignmentId":"320DUZ38G88FR1TIYP3RSPRMUT1GJN","hitId":"3NI0WFPPI9246I5W92FX9A3E2GN605","url":"https://gershmanlab.com/experiments/alicia/teaching/experiment/?hitId=3NI0WFPPI9246I5W92FX9A3E2GN605&workerId=AK3H5QRAROFGP&assignmentId=320DUZ38G88FR1TIYP3RSPRMUT1GJN&a=8U029&tp_a=8U029&b=320DUZ38G88FR1TIYP3RSPRMUT1GJN&tp_b=320DUZ38G88FR1TIYP3RSPRMUT1GJN&c=365799&tp_c=365799","firstResponseHeads":5,"firstResponseTails":5,"secondResponseHeads":6,"secondResponseTails":0,"totalHeads":11,"totalTails":5,"studentIndex":15,"studentTrueHypers":{"a":2,"b":8},"studentGuess":0.5,"delta":0,"bonus":0.34,"bonusSoFar":4.87,"totalExamples":16},{"rt":13715,"response":{"heads":"4","tails":"1"},"type":"response","condition":"seqNoFeedback","trueTheta":0.8,"classrooms":["A","B"],"studentTrueClassroom":"B","exampleSet":"first","trial_type":"survey-html-form","trial_index":132,"time_elapsed":1006707,"internal_node_id":"0.0-127.0-0.0","params":{"nStudents":24,"maxFlips":30,"completionMinutes":45,"basePay":8,"maxBonus":9,"perTrialBonus":0.5,"perTrialBonusThreshold":0.05,"exampleCost":0.01},"classroomParams":{"A":{"a":1,"b":4},"B":{"a":4,"b":1},"C":{"a":2,"b":8},"D":{"a":8,"b":2}},"conditions":["nonSeqFull","nonSeqPartial","seqNoFeedback","seqFeedback"],"classroomPairings":[["A","B"],["C","D"]],"coinWeights":[0.2,0.5,0.8],"subjectId":"AK3H5QRAROFGP","assignmentId":"320DUZ38G88FR1TIYP3RSPRMUT1GJN","hitId":"3NI0WFPPI9246I5W92FX9A3E2GN605","url":"https://gershmanlab.com/experiments/alicia/teaching/experiment/?hitId=3NI0WFPPI9246I5W92FX9A3E2GN605&workerId=AK3H5QRAROFGP&assignmentId=320DUZ38G88FR1TIYP3RSPRMUT1GJN&a=8U029&tp_a=8U029&b=320DUZ38G88FR1TIYP3RSPRMUT1GJN&tp_b=320DUZ38G88FR1TIYP3RSPRMUT1GJN&c=365799&tp_c=365799","heads":4,"tails":1,"studentIndex":16,"studentTrueHypers":{"a":4,"b":1},"studentGuess":0.8,"delta":0,"totalExamples":5,"bonusSoFar":4.87},{"rt":3804,"response":{"heads":"4","tails":"1"},"type":"response","condition":"seqNoFeedback","trueTheta":0.8,"classrooms":["A","B"],"studentTrueClassroom":"B","exampleSet":"second","trial_type":"survey-html-form","trial_index":135,"time_elapsed":1017023,"internal_node_id":"0.0-130.0-0.0","params":{"nStudents":24,"maxFlips":30,"completionMinutes":45,"basePay":8,"maxBonus":9,"perTrialBonus":0.5,"perTrialBonusThreshold":0.05,"exampleCost":0.01},"classroomParams":{"A":{"a":1,"b":4},"B":{"a":4,"b":1},"C":{"a":2,"b":8},"D":{"a":8,"b":2}},"conditions":["nonSeqFull","nonSeqPartial","seqNoFeedback","seqFeedback"],"classroomPairings":[["A","B"],["C","D"]],"coinWeights":[0.2,0.5,0.8],"subjectId":"AK3H5QRAROFGP","assignmentId":"320DUZ38G88FR1TIYP3RSPRMUT1GJN","hitId":"3NI0WFPPI9246I5W92FX9A3E2GN605","url":"https://gershmanlab.com/experiments/alicia/teaching/experiment/?hitId=3NI0WFPPI9246I5W92FX9A3E2GN605&workerId=AK3H5QRAROFGP&assignmentId=320DUZ38G88FR1TIYP3RSPRMUT1GJN&a=8U029&tp_a=8U029&b=320DUZ38G88FR1TIYP3RSPRMUT1GJN&tp_b=320DUZ38G88FR1TIYP3RSPRMUT1GJN&c=365799&tp_c=365799","firstResponseHeads":4,"firstResponseTails":1,"secondResponseHeads":4,"secondResponseTails":1,"totalHeads":8,"totalTails":2,"studentIndex":16,"studentTrueHypers":{"a":4,"b":1},"studentGuess":0.8,"delta":0,"bonus":0.4,"bonusSoFar":5.27,"totalExamples":10},{"rt":4760,"response":{"heads":"4","tails":"1"},"type":"response","condition":"nonSeqPartial","trueTheta":0.8,"classrooms":["C","D"],"studentTrueClassroom":"D","exampleSet":"first","trial_type":"survey-html-form","trial_index":141,"time_elapsed":1033904,"internal_node_id":"0.0-136.0-0.0","params":{"nStudents":24,"maxFlips":30,"completionMinutes":45,"basePay":8,"maxBonus":9,"perTrialBonus":0.5,"perTrialBonusThreshold":0.05,"exampleCost":0.01},"classroomParams":{"A":{"a":1,"b":4},"B":{"a":4,"b":1},"C":{"a":2,"b":8},"D":{"a":8,"b":2}},"conditions":["nonSeqFull","nonSeqPartial","seqNoFeedback","seqFeedback"],"classroomPairings":[["A","B"],["C","D"]],"coinWeights":[0.2,0.5,0.8],"subjectId":"AK3H5QRAROFGP","assignmentId":"320DUZ38G88FR1TIYP3RSPRMUT1GJN","hitId":"3NI0WFPPI9246I5W92FX9A3E2GN605","url":"https://gershmanlab.com/experiments/alicia/teaching/experiment/?hitId=3NI0WFPPI9246I5W92FX9A3E2GN605&workerId=AK3H5QRAROFGP&assignmentId=320DUZ38G88FR1TIYP3RSPRMUT1GJN&a=8U029&tp_a=8U029&b=320DUZ38G88FR1TIYP3RSPRMUT1GJN&tp_b=320DUZ38G88FR1TIYP3RSPRMUT1GJN&c=365799&tp_c=365799","heads":4,"tails":1,"studentIndex":17,"studentTrueHypers":{"a":8,"b":2},"studentGuess":0.8,"delta":0,"totalExamples":5,"bonus":0.45,"bonusSoFar":5.72},{"rt":6525,"response":{"heads":"1","tails":"1"},"type":"response","condition":"seqNoFeedback","trueTheta":0.5,"classrooms":["C","D"],"studentTrueClassroom":"C","exampleSet":"first","trial_type":"survey-html-form","trial_index":147,"time_elapsed":1051683,"internal_node_id":"0.0-142.0-0.0","params":{"nStudents":24,"maxFlips":30,"completionMinutes":45,"basePay":8,"maxBonus":9,"perTrialBonus":0.5,"perTrialBonusThreshold":0.05,"exampleCost":0.01},"classroomParams":{"A":{"a":1,"b":4},"B":{"a":4,"b":1},"C":{"a":2,"b":8},"D":{"a":8,"b":2}},"conditions":["nonSeqFull","nonSeqPartial","seqNoFeedback","seqFeedback"],"classroomPairings":[["A","B"],["C","D"]],"coinWeights":[0.2,0.5,0.8],"subjectId":"AK3H5QRAROFGP","assignmentId":"320DUZ38G88FR1TIYP3RSPRMUT1GJN","hitId":"3NI0WFPPI9246I5W92FX9A3E2GN605","url":"https://gershmanlab.com/experiments/alicia/teaching/experiment/?hitId=3NI0WFPPI9246I5W92FX9A3E2GN605&workerId=AK3H5QRAROFGP&assignmentId=320DUZ38G88FR1TIYP3RSPRMUT1GJN&a=8U029&tp_a=8U029&b=320DUZ38G88FR1TIYP3RSPRMUT1GJN&tp_b=320DUZ38G88FR1TIYP3RSPRMUT1GJN&c=365799&tp_c=365799","heads":1,"tails":1,"studentIndex":18,"studentTrueHypers":{"a":2,"b":8},"studentGuess":0.25,"delta":0.25,"totalExamples":2,"bonusSoFar":5.72},{"rt":5949,"response":{"heads":"7","tails":"0"},"type":"response","condition":"seqNoFeedback","trueTheta":0.5,"classrooms":["C","D"],"studentTrueClassroom":"C","exampleSet":"second","trial_type":"survey-html-form","trial_index":150,"time_elapsed":1062891,"internal_node_id":"0.0-145.0-0.0","params":{"nStudents":24,"maxFlips":30,"completionMinutes":45,"basePay":8,"maxBonus":9,"perTrialBonus":0.5,"perTrialBonusThreshold":0.05,"exampleCost":0.01},"classroomParams":{"A":{"a":1,"b":4},"B":{"a":4,"b":1},"C":{"a":2,"b":8},"D":{"a":8,"b":2}},"conditions":["nonSeqFull","nonSeqPartial","seqNoFeedback","seqFeedback"],"classroomPairings":[["A","B"],["C","D"]],"coinWeights":[0.2,0.5,0.8],"subjectId":"AK3H5QRAROFGP","assignmentId":"320DUZ38G88FR1TIYP3RSPRMUT1GJN","hitId":"3NI0WFPPI9246I5W92FX9A3E2GN605","url":"https://gershmanlab.com/experiments/alicia/teaching/experiment/?hitId=3NI0WFPPI9246I5W92FX9A3E2GN605&workerId=AK3H5QRAROFGP&assignmentId=320DUZ38G88FR1TIYP3RSPRMUT1GJN&a=8U029&tp_a=8U029&b=320DUZ38G88FR1TIYP3RSPRMUT1GJN&tp_b=320DUZ38G88FR1TIYP3RSPRMUT1GJN&c=365799&tp_c=365799","firstResponseHeads":1,"firstResponseTails":1,"secondResponseHeads":7,"secondResponseTails":0,"totalHeads":8,"totalTails":1,"studentIndex":18,"studentTrueHypers":{"a":2,"b":8},"studentGuess":0.5263157894736842,"delta":0.02631578947368418,"bonus":0.41,"bonusSoFar":6.13,"totalExamples":9},{"rt":11304,"response":{"heads":"1","tails":"4"},"type":"response","condition":"seqFeedback","trueTheta":0.2,"classrooms":["C","D"],"studentTrueClassroom":"D","exampleSet":"first","trial_type":"survey-html-form","trial_index":156,"time_elapsed":1089865,"internal_node_id":"0.0-151.0-0.0","params":{"nStudents":24,"maxFlips":30,"completionMinutes":45,"basePay":8,"maxBonus":9,"perTrialBonus":0.5,"perTrialBonusThreshold":0.05,"exampleCost":0.01},"classroomParams":{"A":{"a":1,"b":4},"B":{"a":4,"b":1},"C":{"a":2,"b":8},"D":{"a":8,"b":2}},"conditions":["nonSeqFull","nonSeqPartial","seqNoFeedback","seqFeedback"],"classroomPairings":[["A","B"],["C","D"]],"coinWeights":[0.2,0.5,0.8],"subjectId":"AK3H5QRAROFGP","assignmentId":"320DUZ38G88FR1TIYP3RSPRMUT1GJN","hitId":"3NI0WFPPI9246I5W92FX9A3E2GN605","url":"https://gershmanlab.com/experiments/alicia/teaching/experiment/?hitId=3NI0WFPPI9246I5W92FX9A3E2GN605&workerId=AK3H5QRAROFGP&assignmentId=320DUZ38G88FR1TIYP3RSPRMUT1GJN&a=8U029&tp_a=8U029&b=320DUZ38G88FR1TIYP3RSPRMUT1GJN&tp_b=320DUZ38G88FR1TIYP3RSPRMUT1GJN&c=365799&tp_c=365799","heads":1,"tails":4,"studentIndex":19,"studentTrueHypers":{"a":8,"b":2},"studentGuess":0.6,"delta":0.39999999999999997,"totalExamples":5,"bonusSoFar":6.13},{"rt":19888,"response":{"heads":"0","tails":"30"},"type":"response","condition":"seqFeedback","trueTheta":0.2,"classrooms":["C","D"],"studentTrueClassroom":"D","exampleSet":"second","trial_type":"survey-html-form","trial_index":160,"time_elapsed":1119317,"internal_node_id":"0.0-155.0-0.0","params":{"nStudents":24,"maxFlips":30,"completionMinutes":45,"basePay":8,"maxBonus":9,"perTrialBonus":0.5,"perTrialBonusThreshold":0.05,"exampleCost":0.01},"classroomParams":{"A":{"a":1,"b":4},"B":{"a":4,"b":1},"C":{"a":2,"b":8},"D":{"a":8,"b":2}},"conditions":["nonSeqFull","nonSeqPartial","seqNoFeedback","seqFeedback"],"classroomPairings":[["A","B"],["C","D"]],"coinWeights":[0.2,0.5,0.8],"subjectId":"AK3H5QRAROFGP","assignmentId":"320DUZ38G88FR1TIYP3RSPRMUT1GJN","hitId":"3NI0WFPPI9246I5W92FX9A3E2GN605","url":"https://gershmanlab.com/experiments/alicia/teaching/experiment/?hitId=3NI0WFPPI9246I5W92FX9A3E2GN605&workerId=AK3H5QRAROFGP&assignmentId=320DUZ38G88FR1TIYP3RSPRMUT1GJN&a=8U029&tp_a=8U029&b=320DUZ38G88FR1TIYP3RSPRMUT1GJN&tp_b=320DUZ38G88FR1TIYP3RSPRMUT1GJN&c=365799&tp_c=365799","firstResponseHeads":1,"firstResponseTails":4,"secondResponseHeads":0,"secondResponseTails":30,"totalHeads":1,"totalTails":34,"studentIndex":19,"studentTrueHypers":{"a":8,"b":2},"studentGuess":0.2,"delta":0,"bonus":0.15,"bonusSoFar":6.28,"totalExamples":35},{"rt":6500,"response":{"heads":"1","tails":"4"},"type":"response","condition":"nonSeqFull","trueTheta":0.2,"classrooms":["A","B"],"studentTrueClassroom":"A","exampleSet":"first","trial_type":"survey-html-form","trial_index":166,"time_elapsed":1140228,"internal_node_id":"0.0-161.0-0.0","params":{"nStudents":24,"maxFlips":30,"completionMinutes":45,"basePay":8,"maxBonus":9,"perTrialBonus":0.5,"perTrialBonusThreshold":0.05,"exampleCost":0.01},"classroomParams":{"A":{"a":1,"b":4},"B":{"a":4,"b":1},"C":{"a":2,"b":8},"D":{"a":8,"b":2}},"conditions":["nonSeqFull","nonSeqPartial","seqNoFeedback","seqFeedback"],"classroomPairings":[["A","B"],["C","D"]],"coinWeights":[0.2,0.5,0.8],"subjectId":"AK3H5QRAROFGP","assignmentId":"320DUZ38G88FR1TIYP3RSPRMUT1GJN","hitId":"3NI0WFPPI9246I5W92FX9A3E2GN605","url":"https://gershmanlab.com/experiments/alicia/teaching/experiment/?hitId=3NI0WFPPI9246I5W92FX9A3E2GN605&workerId=AK3H5QRAROFGP&assignmentId=320DUZ38G88FR1TIYP3RSPRMUT1GJN&a=8U029&tp_a=8U029&b=320DUZ38G88FR1TIYP3RSPRMUT1GJN&tp_b=320DUZ38G88FR1TIYP3RSPRMUT1GJN&c=365799&tp_c=365799","heads":1,"tails":4,"studentIndex":20,"studentTrueHypers":{"a":1,"b":4},"studentGuess":0.2,"delta":0,"totalExamples":5,"bonus":0.45,"bonusSoFar":6.73},{"rt":6245,"response":{"heads":"3","tails":"0"},"type":"response","condition":"seqNoFeedback","trueTheta":0.5,"classrooms":["A","B"],"studentTrueClassroom":"B","exampleSet":"first","trial_type":"survey-html-form","trial_index":172,"time_elapsed":1160118,"internal_node_id":"0.0-167.0-0.0","params":{"nStudents":24,"maxFlips":30,"completionMinutes":45,"basePay":8,"maxBonus":9,"perTrialBonus":0.5,"perTrialBonusThreshold":0.05,"exampleCost":0.01},"classroomParams":{"A":{"a":1,"b":4},"B":{"a":4,"b":1},"C":{"a":2,"b":8},"D":{"a":8,"b":2}},"conditions":["nonSeqFull","nonSeqPartial","seqNoFeedback","seqFeedback"],"classroomPairings":[["A","B"],["C","D"]],"coinWeights":[0.2,0.5,0.8],"subjectId":"AK3H5QRAROFGP","assignmentId":"320DUZ38G88FR1TIYP3RSPRMUT1GJN","hitId":"3NI0WFPPI9246I5W92FX9A3E2GN605","url":"https://gershmanlab.com/experiments/alicia/teaching/experiment/?hitId=3NI0WFPPI9246I5W92FX9A3E2GN605&workerId=AK3H5QRAROFGP&assignmentId=320DUZ38G88FR1TIYP3RSPRMUT1GJN&a=8U029&tp_a=8U029&b=320DUZ38G88FR1TIYP3RSPRMUT1GJN&tp_b=320DUZ38G88FR1TIYP3RSPRMUT1GJN&c=365799&tp_c=365799","heads":3,"tails":0,"studentIndex":21,"studentTrueHypers":{"a":4,"b":1},"studentGuess":0.875,"delta":0.375,"totalExamples":3,"bonusSoFar":6.73},{"rt":5635,"response":{"heads":"1","tails":"1"},"type":"response","condition":"seqNoFeedback","trueTheta":0.5,"classrooms":["A","B"],"studentTrueClassroom":"B","exampleSet":"second","trial_type":"survey-html-form","trial_index":175,"time_elapsed":1171770,"internal_node_id":"0.0-170.0-0.0","params":{"nStudents":24,"maxFlips":30,"completionMinutes":45,"basePay":8,"maxBonus":9,"perTrialBonus":0.5,"perTrialBonusThreshold":0.05,"exampleCost":0.01},"classroomParams":{"A":{"a":1,"b":4},"B":{"a":4,"b":1},"C":{"a":2,"b":8},"D":{"a":8,"b":2}},"conditions":["nonSeqFull","nonSeqPartial","seqNoFeedback","seqFeedback"],"classroomPairings":[["A","B"],["C","D"]],"coinWeights":[0.2,0.5,0.8],"subjectId":"AK3H5QRAROFGP","assignmentId":"320DUZ38G88FR1TIYP3RSPRMUT1GJN","hitId":"3NI0WFPPI9246I5W92FX9A3E2GN605","url":"https://gershmanlab.com/experiments/alicia/teaching/experiment/?hitId=3NI0WFPPI9246I5W92FX9A3E2GN605&workerId=AK3H5QRAROFGP&assignmentId=320DUZ38G88FR1TIYP3RSPRMUT1GJN&a=8U029&tp_a=8U029&b=320DUZ38G88FR1TIYP3RSPRMUT1GJN&tp_b=320DUZ38G88FR1TIYP3RSPRMUT1GJN&c=365799&tp_c=365799","firstResponseHeads":3,"firstResponseTails":0,"secondResponseHeads":1,"secondResponseTails":1,"totalHeads":4,"totalTails":1,"studentIndex":21,"studentTrueHypers":{"a":4,"b":1},"studentGuess":0.8,"delta":0.30000000000000004,"bonus":0,"bonusSoFar":6.73,"totalExamples":5},{"rt":5743,"response":{"heads":"3","tails":"0"},"type":"response","condition":"nonSeqFull","trueTheta":0.5,"classrooms":["A","B"],"studentTrueClassroom":"A","exampleSet":"first","trial_type":"survey-html-form","trial_index":181,"time_elapsed":1189330,"internal_node_id":"0.0-176.0-0.0","params":{"nStudents":24,"maxFlips":30,"completionMinutes":45,"basePay":8,"maxBonus":9,"perTrialBonus":0.5,"perTrialBonusThreshold":0.05,"exampleCost":0.01},"classroomParams":{"A":{"a":1,"b":4},"B":{"a":4,"b":1},"C":{"a":2,"b":8},"D":{"a":8,"b":2}},"conditions":["nonSeqFull","nonSeqPartial","seqNoFeedback","seqFeedback"],"classroomPairings":[["A","B"],["C","D"]],"coinWeights":[0.2,0.5,0.8],"subjectId":"AK3H5QRAROFGP","assignmentId":"320DUZ38G88FR1TIYP3RSPRMUT1GJN","hitId":"3NI0WFPPI9246I5W92FX9A3E2GN605","url":"https://gershmanlab.com/experiments/alicia/teaching/experiment/?hitId=3NI0WFPPI9246I5W92FX9A3E2GN605&workerId=AK3H5QRAROFGP&assignmentId=320DUZ38G88FR1TIYP3RSPRMUT1GJN&a=8U029&tp_a=8U029&b=320DUZ38G88FR1TIYP3RSPRMUT1GJN&tp_b=320DUZ38G88FR1TIYP3RSPRMUT1GJN&c=365799&tp_c=365799","heads":3,"tails":0,"studentIndex":22,"studentTrueHypers":{"a":1,"b":4},"studentGuess":0.5,"delta":0,"totalExamples":3,"bonus":0.47,"bonusSoFar":7.2},{"rt":12471,"response":{"heads":"1","tails":"0"},"type":"response","condition":"seqFeedback","trueTheta":0.8,"classrooms":["C","D"],"studentTrueClassroom":"D","exampleSet":"first","trial_type":"survey-html-form","trial_index":187,"time_elapsed":1221849,"internal_node_id":"0.0-182.0-0.0","params":{"nStudents":24,"maxFlips":30,"completionMinutes":45,"basePay":8,"maxBonus":9,"perTrialBonus":0.5,"perTrialBonusThreshold":0.05,"exampleCost":0.01},"classroomParams":{"A":{"a":1,"b":4},"B":{"a":4,"b":1},"C":{"a":2,"b":8},"D":{"a":8,"b":2}},"conditions":["nonSeqFull","nonSeqPartial","seqNoFeedback","seqFeedback"],"classroomPairings":[["A","B"],["C","D"]],"coinWeights":[0.2,0.5,0.8],"subjectId":"AK3H5QRAROFGP","assignmentId":"320DUZ38G88FR1TIYP3RSPRMUT1GJN","hitId":"3NI0WFPPI9246I5W92FX9A3E2GN605","url":"https://gershmanlab.com/experiments/alicia/teaching/experiment/?hitId=3NI0WFPPI9246I5W92FX9A3E2GN605&workerId=AK3H5QRAROFGP&assignmentId=320DUZ38G88FR1TIYP3RSPRMUT1GJN&a=8U029&tp_a=8U029&b=320DUZ38G88FR1TIYP3RSPRMUT1GJN&tp_b=320DUZ38G88FR1TIYP3RSPRMUT1GJN&c=365799&tp_c=365799","heads":1,"tails":0,"studentIndex":23,"studentTrueHypers":{"a":8,"b":2},"studentGuess":0.8181818181818182,"delta":0.018181818181818188,"totalExamples":1,"bonusSoFar":7.2},{"rt":16521,"response":{"heads":"4","tails":"1"},"type":"response","condition":"seqFeedback","trueTheta":0.8,"classrooms":["C","D"],"studentTrueClassroom":"D","exampleSet":"second","trial_type":"survey-html-form","trial_index":191,"time_elapsed":1252441,"internal_node_id":"0.0-186.0-0.0","params":{"nStudents":24,"maxFlips":30,"completionMinutes":45,"basePay":8,"maxBonus":9,"perTrialBonus":0.5,"perTrialBonusThreshold":0.05,"exampleCost":0.01},"classroomParams":{"A":{"a":1,"b":4},"B":{"a":4,"b":1},"C":{"a":2,"b":8},"D":{"a":8,"b":2}},"conditions":["nonSeqFull","nonSeqPartial","seqNoFeedback","seqFeedback"],"classroomPairings":[["A","B"],["C","D"]],"coinWeights":[0.2,0.5,0.8],"subjectId":"AK3H5QRAROFGP","assignmentId":"320DUZ38G88FR1TIYP3RSPRMUT1GJN","hitId":"3NI0WFPPI9246I5W92FX9A3E2GN605","url":"https://gershmanlab.com/experiments/alicia/teaching/experiment/?hitId=3NI0WFPPI9246I5W92FX9A3E2GN605&workerId=AK3H5QRAROFGP&assignmentId=320DUZ38G88FR1TIYP3RSPRMUT1GJN&a=8U029&tp_a=8U029&b=320DUZ38G88FR1TIYP3RSPRMUT1GJN&tp_b=320DUZ38G88FR1TIYP3RSPRMUT1GJN&c=365799&tp_c=365799","firstResponseHeads":1,"firstResponseTails":0,"secondResponseHeads":4,"secondResponseTails":1,"totalHeads":5,"totalTails":1,"studentIndex":23,"studentTrueHypers":{"a":8,"b":2},"studentGuess":0.8125,"delta":0.012499999999999956,"bonus":0.44,"bonusSoFar":7.64,"totalExamples":6},{"rt":5033,"response":{"gender":"male","age":"34","understood":"yes","comments":""},"type":"response","trial_type":"survey-html-form","trial_index":195,"time_elapsed":1271726,"internal_node_id":"0.0-191.0","params":{"nStudents":24,"maxFlips":30,"completionMinutes":45,"basePay":8,"maxBonus":9,"perTrialBonus":0.5,"perTrialBonusThreshold":0.05,"exampleCost":0.01},"classroomParams":{"A":{"a":1,"b":4},"B":{"a":4,"b":1},"C":{"a":2,"b":8},"D":{"a":8,"b":2}},"conditions":["nonSeqFull","nonSeqPartial","seqNoFeedback","seqFeedback"],"classroomPairings":[["A","B"],["C","D"]],"coinWeights":[0.2,0.5,0.8],"subjectId":"AK3H5QRAROFGP","assignmentId":"320DUZ38G88FR1TIYP3RSPRMUT1GJN","hitId":"3NI0WFPPI9246I5W92FX9A3E2GN605","url":"https://gershmanlab.com/experiments/alicia/teaching/experiment/?hitId=3NI0WFPPI9246I5W92FX9A3E2GN605&workerId=AK3H5QRAROFGP&assignmentId=320DUZ38G88FR1TIYP3RSPRMUT1GJN&a=8U029&tp_a=8U029&b=320DUZ38G88FR1TIYP3RSPRMUT1GJN&tp_b=320DUZ38G88FR1TIYP3RSPRMUT1GJN&c=365799&tp_c=365799","totalBonus":7.64}]