[{"rt":38436,"response":{"heads":"2","tails":"2"},"type":"response","condition":"seqNoFeedback","trueTheta":0.5,"classrooms":["C","D"],"studentTrueClassroom":"C","exampleSet":"first","trial_type":"survey-html-form","trial_index":7,"time_elapsed":2962715,"internal_node_id":"0.0-6.0-0.0","params":{"nStudents":24,"maxFlips":30,"completionMinutes":45,"basePay":8,"maxBonus":9,"perTrialBonus":0.5,"perTrialBonusThreshold":0.05,"exampleCost":0.01},"classroomParams":{"A":{"a":1,"b":4},"B":{"a":4,"b":1},"C":{"a":2,"b":8},"D":{"a":8,"b":2}},"conditions":["nonSeqFull","nonSeqPartial","seqNoFeedback","seqFeedback"],"classroomPairings":[["A","B"],["C","D"]],"coinWeights":[0.2,0.5,0.8],"subjectId":"AKSJ3C5O3V9RB","assignmentId":"3KGTPGBS6Y7YQNW5B9MGXN6W1PSU2A","hitId":"3JGHED38EDDK7DFM0KVY7GXU94LY7W","url":"https://gershmanlab.com/experiments/alicia/teaching/experiment/?hitId=3JGHED38EDDK7DFM0KVY7GXU94LY7W&workerId=AKSJ3C5O3V9RB&assignmentId=3KGTPGBS6Y7YQNW5B9MGXN6W1PSU2A&a=SPGK9&tp_a=SPGK9&b=3KGTPGBS6Y7YQNW5B9MGXN6W1PSU2A&tp_b=3KGTPGBS6Y7YQNW5B9MGXN6W1PSU2A&c=365799&tp_c=365799","heads":2,"tails":2,"studentIndex":0,"studentTrueHypers":{"a":2,"b":8},"studentGuess":0.2857142857142857,"delta":0.2142857142857143,"totalExamples":4,"bonusSoFar":0},{"rt":34619,"response":{"heads":"2","tails":"2"},"type":"response","condition":"seqNoFeedback","trueTheta":0.5,"classrooms":["C","D"],"studentTrueClassroom":"C","exampleSet":"second","trial_type":"survey-html-form","trial_index":10,"time_elapsed":3004103,"internal_node_id":"0.0-9.0-0.0","params":{"nStudents":24,"maxFlips":30,"completionMinutes":45,"basePay":8,"maxBonus":9,"perTrialBonus":0.5,"perTrialBonusThreshold":0.05,"exampleCost":0.01},"classroomParams":{"A":{"a":1,"b":4},"B":{"a":4,"b":1},"C":{"a":2,"b":8},"D":{"a":8,"b":2}},"conditions":["nonSeqFull","nonSeqPartial","seqNoFeedback","seqFeedback"],"classroomPairings":[["A","B"],["C","D"]],"coinWeights":[0.2,0.5,0.8],"subjectId":"AKSJ3C5O3V9RB","assignmentId":"3KGTPGBS6Y7YQNW5B9MGXN6W1PSU2A","hitId":"3JGHED38EDDK7DFM0KVY7GXU94LY7W","url":"https://gershmanlab.com/experiments/alicia/teaching/experiment/?hitId=3JGHED38EDDK7DFM0KVY7GXU94LY7W&workerId=AKSJ3C5O3V9RB&assignmentId=3KGTPGBS6Y7YQNW5B9MGXN6W1PSU2A&a=SPGK9&tp_a=SPGK9&b=3KGTPGBS6Y7YQNW5B9MGXN6W1PSU2A&tp_b=3KGTPGBS6Y7YQNW5B9MGXN6W1PSU2A&c=365799&tp_c=365799","firstResponseHeads":2,"firstResponseTails":2,"secondResponseHeads":2,"secondResponseTails":2,"totalHeads":4,"totalTails":4,"studentIndex":0,"studentTrueHypers":{"a":2,"b":8},"studentGuess":0.3333333333333333,"delta":0.16666666666666669,"bonus":0,"bonusSoFar":0,"totalExamples":8},{"rt":43282,"response":{"heads":"6","tails":"0"},"type":"response","condition":"seqNoFeedback","trueTheta":0.8,"classrooms":["C","D"],"studentTrueClassroom":"C","exampleSet":"first","trial_type":"survey-html-form","trial_index":16,"time_elapsed":3067365,"internal_node_id":"0.0-15.0-0.0","params":{"nStudents":24,"maxFlips":30,"completionMinutes":45,"basePay":8,"maxBonus":9,"perTrialBonus":0.5,"perTrialBonusThreshold":0.05,"exampleCost":0.01},"classroomParams":{"A":{"a":1,"b":4},"B":{"a":4,"b":1},"C":{"a":2,"b":8},"D":{"a":8,"b":2}},"conditions":["nonSeqFull","nonSeqPartial","seqNoFeedback","seqFeedback"],"classroomPairings":[["A","B"],["C","D"]],"coinWeights":[0.2,0.5,0.8],"subjectId":"AKSJ3C5O3V9RB","assignmentId":"3KGTPGBS6Y7YQNW5B9MGXN6W1PSU2A","hitId":"3JGHED38EDDK7DFM0KVY7GXU94LY7W","url":"https://gershmanlab.com/experiments/alicia/teaching/experiment/?hitId=3JGHED38EDDK7DFM0KVY7GXU94LY7W&workerId=AKSJ3C5O3V9RB&assignmentId=3KGTPGBS6Y7YQNW5B9MGXN6W1PSU2A&a=SPGK9&tp_a=SPGK9&b=3KGTPGBS6Y7YQNW5B9MGXN6W1PSU2A&tp_b=3KGTPGBS6Y7YQNW5B9MGXN6W1PSU2A&c=365799&tp_c=365799","heads":6,"tails":0,"studentIndex":1,"studentTrueHypers":{"a":2,"b":8},"studentGuess":0.5,"delta":0.30000000000000004,"totalExamples":6,"bonusSoFar":0},{"rt":7663,"response":{"heads":"6","tails":"0"},"type":"response","condition":"seqNoFeedback","trueTheta":0.8,"classrooms":["C","D"],"studentTrueClassroom":"C","exampleSet":"second","trial_type":"survey-html-form","trial_index":19,"time_elapsed":3081046,"internal_node_id":"0.0-18.0-0.0","params":{"nStudents":24,"maxFlips":30,"completionMinutes":45,"basePay":8,"maxBonus":9,"perTrialBonus":0.5,"perTrialBonusThreshold":0.05,"exampleCost":0.01},"classroomParams":{"A":{"a":1,"b":4},"B":{"a":4,"b":1},"C":{"a":2,"b":8},"D":{"a":8,"b":2}},"conditions":["nonSeqFull","nonSeqPartial","seqNoFeedback","seqFeedback"],"classroomPairings":[["A","B"],["C","D"]],"coinWeights":[0.2,0.5,0.8],"subjectId":"AKSJ3C5O3V9RB","assignmentId":"3KGTPGBS6Y7YQNW5B9MGXN6W1PSU2A","hitId":"3JGHED38EDDK7DFM0KVY7GXU94LY7W","url":"https://gershmanlab.com/experiments/alicia/teaching/experiment/?hitId=3JGHED38EDDK7DFM0KVY7GXU94LY7W&workerId=AKSJ3C5O3V9RB&assignmentId=3KGTPGBS6Y7YQNW5B9MGXN6W1PSU2A&a=SPGK9&tp_a=SPGK9&b=3KGTPGBS6Y7YQNW5B9MGXN6W1PSU2A&tp_b=3KGTPGBS6Y7YQNW5B9MGXN6W1PSU2A&c=365799&tp_c=365799","firstResponseHeads":6,"firstResponseTails":0,"secondResponseHeads":6,"secondResponseTails":0,"totalHeads":12,"totalTails":0,"studentIndex":1,"studentTrueHypers":{"a":2,"b":8},"studentGuess":0.6363636363636364,"delta":0.1636363636363637,"bonus":0,"bonusSoFar":0,"totalExamples":12},{"rt":30421,"response":{"heads":"7","tails":"0"},"type":"response","condition":"nonSeqFull","trueTheta":0.5,"classrooms":["C","D"],"studentTrueClassroom":"C","exampleSet":"first","trial_type":"survey-html-form","trial_index":25,"time_elapsed":3127218,"internal_node_id":"0.0-24.0-0.0","params":{"nStudents":24,"maxFlips":30,"completionMinutes":45,"basePay":8,"maxBonus":9,"perTrialBonus":0.5,"perTrialBonusThreshold":0.05,"exampleCost":0.01},"classroomParams":{"A":{"a":1,"b":4},"B":{"a":4,"b":1},"C":{"a":2,"b":8},"D":{"a":8,"b":2}},"conditions":["nonSeqFull","nonSeqPartial","seqNoFeedback","seqFeedback"],"classroomPairings":[["A","B"],["C","D"]],"coinWeights":[0.2,0.5,0.8],"subjectId":"AKSJ3C5O3V9RB","assignmentId":"3KGTPGBS6Y7YQNW5B9MGXN6W1PSU2A","hitId":"3JGHED38EDDK7DFM0KVY7GXU94LY7W","url":"https://gershmanlab.com/experiments/alicia/teaching/experiment/?hitId=3JGHED38EDDK7DFM0KVY7GXU94LY7W&workerId=AKSJ3C5O3V9RB&assignmentId=3KGTPGBS6Y7YQNW5B9MGXN6W1PSU2A&a=SPGK9&tp_a=SPGK9&b=3KGTPGBS6Y7YQNW5B9MGXN6W1PSU2A&tp_b=3KGTPGBS6Y7YQNW5B9MGXN6W1PSU2A&c=365799&tp_c=365799","heads":7,"tails":0,"studentIndex":2,"studentTrueHypers":{"a":2,"b":8},"studentGuess":0.5294117647058824,"delta":0.02941176470588236,"totalExamples":7,"bonus":0.43,"bonusSoFar":0.43},{"rt":36064,"response":{"heads":"8","tails":"0"},"type":"response","condition":"seqFeedback","trueTheta":0.8,"classrooms":["C","D"],"studentTrueClassroom":"C","exampleSet":"first","trial_type":"survey-html-form","trial_index":31,"time_elapsed":3182346,"internal_node_id":"0.0-30.0-0.0","params":{"nStudents":24,"maxFlips":30,"completionMinutes":45,"basePay":8,"maxBonus":9,"perTrialBonus":0.5,"perTrialBonusThreshold":0.05,"exampleCost":0.01},"classroomParams":{"A":{"a":1,"b":4},"B":{"a":4,"b":1},"C":{"a":2,"b":8},"D":{"a":8,"b":2}},"conditions":["nonSeqFull","nonSeqPartial","seqNoFeedback","seqFeedback"],"classroomPairings":[["A","B"],["C","D"]],"coinWeights":[0.2,0.5,0.8],"subjectId":"AKSJ3C5O3V9RB","assignmentId":"3KGTPGBS6Y7YQNW5B9MGXN6W1PSU2A","hitId":"3JGHED38EDDK7DFM0KVY7GXU94LY7W","url":"https://gershmanlab.com/experiments/alicia/teaching/experiment/?hitId=3JGHED38EDDK7DFM0KVY7GXU94LY7W&workerId=AKSJ3C5O3V9RB&assignmentId=3KGTPGBS6Y7YQNW5B9MGXN6W1PSU2A&a=SPGK9&tp_a=SPGK9&b=3KGTPGBS6Y7YQNW5B9MGXN6W1PSU2A&tp_b=3KGTPGBS6Y7YQNW5B9MGXN6W1PSU2A&c=365799&tp_c=365799","heads":8,"tails":0,"studentIndex":3,"studentTrueHypers":{"a":2,"b":8},"studentGuess":0.5555555555555556,"delta":0.24444444444444446,"totalExamples":8,"bonusSoFar":0.43},{"rt":11184,"response":{"heads":"10","tails":"0"},"type":"response","condition":"seqFeedback","trueTheta":0.8,"classrooms":["C","D"],"studentTrueClassroom":"C","exampleSet":"second","trial_type":"survey-html-form","trial_index":35,"time_elapsed":3207685,"internal_node_id":"0.0-34.0-0.0","params":{"nStudents":24,"maxFlips":30,"completionMinutes":45,"basePay":8,"maxBonus":9,"perTrialBonus":0.5,"perTrialBonusThreshold":0.05,"exampleCost":0.01},"classroomParams":{"A":{"a":1,"b":4},"B":{"a":4,"b":1},"C":{"a":2,"b":8},"D":{"a":8,"b":2}},"conditions":["nonSeqFull","nonSeqPartial","seqNoFeedback","seqFeedback"],"classroomPairings":[["A","B"],["C","D"]],"coinWeights":[0.2,0.5,0.8],"subjectId":"AKSJ3C5O3V9RB","assignmentId":"3KGTPGBS6Y7YQNW5B9MGXN6W1PSU2A","hitId":"3JGHED38EDDK7DFM0KVY7GXU94LY7W","url":"https://gershmanlab.com/experiments/alicia/teaching/experiment/?hitId=3JGHED38EDDK7DFM0KVY7GXU94LY7W&workerId=AKSJ3C5O3V9RB&assignmentId=3KGTPGBS6Y7YQNW5B9MGXN6W1PSU2A&a=SPGK9&tp_a=SPGK9&b=3KGTPGBS6Y7YQNW5B9MGXN6W1PSU2A&tp_b=3KGTPGBS6Y7YQNW5B9MGXN6W1PSU2A&c=365799&tp_c=365799","firstResponseHeads":8,"firstResponseTails":0,"secondResponseHeads":10,"secondResponseTails":0,"totalHeads":18,"totalTails":0,"studentIndex":3,"studentTrueHypers":{"a":2,"b":8},"studentGuess":0.7142857142857143,"delta":0.08571428571428574,"bonus":0,"bonusSoFar":0.43,"totalExamples":18},{"rt":17142,"response":{"heads":"8","tails":"0"},"type":"response","condition":"nonSeqFull","trueTheta":0.8,"classrooms":["A","B"],"studentTrueClassroom":"B","exampleSet":"first","trial_type":"survey-html-form","trial_index":41,"time_elapsed":3240634,"internal_node_id":"0.0-40.0-0.0","params":{"nStudents":24,"maxFlips":30,"completionMinutes":45,"basePay":8,"maxBonus":9,"perTrialBonus":0.5,"perTrialBonusThreshold":0.05,"exampleCost":0.01},"classroomParams":{"A":{"a":1,"b":4},"B":{"a":4,"b":1},"C":{"a":2,"b":8},"D":{"a":8,"b":2}},"conditions":["nonSeqFull","nonSeqPartial","seqNoFeedback","seqFeedback"],"classroomPairings":[["A","B"],["C","D"]],"coinWeights":[0.2,0.5,0.8],"subjectId":"AKSJ3C5O3V9RB","assignmentId":"3KGTPGBS6Y7YQNW5B9MGXN6W1PSU2A","hitId":"3JGHED38EDDK7DFM0KVY7GXU94LY7W","url":"https://gershmanlab.com/experiments/alicia/teaching/experiment/?hitId=3JGHED38EDDK7DFM0KVY7GXU94LY7W&workerId=AKSJ3C5O3V9RB&assignmentId=3KGTPGBS6Y7YQNW5B9MGXN6W1PSU2A&a=SPGK9&tp_a=SPGK9&b=3KGTPGBS6Y7YQNW5B9MGXN6W1PSU2A&tp_b=3KGTPGBS6Y7YQNW5B9MGXN6W1PSU2A&c=365799&tp_c=365799","heads":8,"tails":0,"studentIndex":4,"studentTrueHypers":{"a":4,"b":1},"studentGuess":0.9230769230769231,"delta":0.12307692307692308,"totalExamples":8,"bonus":0,"bonusSoFar":0.43},{"rt":15266,"response":{"heads":"0","tails":"11"},"type":"response","condition":"nonSeqFull","trueTheta":0.2,"classrooms":["C","D"],"studentTrueClassroom":"D","exampleSet":"first","trial_type":"survey-html-form","trial_index":47,"time_elapsed":3271130,"internal_node_id":"0.0-46.0-0.0","params":{"nStudents":24,"maxFlips":30,"completionMinutes":45,"basePay":8,"maxBonus":9,"perTrialBonus":0.5,"perTrialBonusThreshold":0.05,"exampleCost":0.01},"classroomParams":{"A":{"a":1,"b":4},"B":{"a":4,"b":1},"C":{"a":2,"b":8},"D":{"a":8,"b":2}},"conditions":["nonSeqFull","nonSeqPartial","seqNoFeedback","seqFeedback"],"classroomPairings":[["A","B"],["C","D"]],"coinWeights":[0.2,0.5,0.8],"subjectId":"AKSJ3C5O3V9RB","assignmentId":"3KGTPGBS6Y7YQNW5B9MGXN6W1PSU2A","hitId":"3JGHED38EDDK7DFM0KVY7GXU94LY7W","url":"https://gershmanlab.com/experiments/alicia/teaching/experiment/?hitId=3JGHED38EDDK7DFM0KVY7GXU94LY7W&workerId=AKSJ3C5O3V9RB&assignmentId=3KGTPGBS6Y7YQNW5B9MGXN6W1PSU2A&a=SPGK9&tp_a=SPGK9&b=3KGTPGBS6Y7YQNW5B9MGXN6W1PSU2A&tp_b=3KGTPGBS6Y7YQNW5B9MGXN6W1PSU2A&c=365799&tp_c=365799","heads":0,"tails":11,"studentIndex":5,"studentTrueHypers":{"a":8,"b":2},"studentGuess":0.38095238095238093,"delta":0.18095238095238092,"totalExamples":11,"bonus":0,"bonusSoFar":0.43},{"rt":19303,"response":{"heads":"5","tails":"5"},"type":"response","condition":"seqFeedback","trueTheta":0.5,"classrooms":["A","B"],"studentTrueClassroom":"A","exampleSet":"first","trial_type":"survey-html-form","trial_index":53,"time_elapsed":3304660,"internal_node_id":"0.0-52.0-0.0","params":{"nStudents":24,"maxFlips":30,"completionMinutes":45,"basePay":8,"maxBonus":9,"perTrialBonus":0.5,"perTrialBonusThreshold":0.05,"exampleCost":0.01},"classroomParams":{"A":{"a":1,"b":4},"B":{"a":4,"b":1},"C":{"a":2,"b":8},"D":{"a":8,"b":2}},"conditions":["nonSeqFull","nonSeqPartial","seqNoFeedback","seqFeedback"],"classroomPairings":[["A","B"],["C","D"]],"coinWeights":[0.2,0.5,0.8],"subjectId":"AKSJ3C5O3V9RB","assignmentId":"3KGTPGBS6Y7YQNW5B9MGXN6W1PSU2A","hitId":"3JGHED38EDDK7DFM0KVY7GXU94LY7W","url":"https://gershmanlab.com/experiments/alicia/teaching/experiment/?hitId=3JGHED38EDDK7DFM0KVY7GXU94LY7W&workerId=AKSJ3C5O3V9RB&assignmentId=3KGTPGBS6Y7YQNW5B9MGXN6W1PSU2A&a=SPGK9&tp_a=SPGK9&b=3KGTPGBS6Y7YQNW5B9MGXN6W1PSU2A&tp_b=3KGTPGBS6Y7YQNW5B9MGXN6W1PSU2A&c=365799&tp_c=365799","heads":5,"tails":5,"studentIndex":6,"studentTrueHypers":{"a":1,"b":4},"studentGuess":0.4,"delta":0.09999999999999998,"totalExamples":10,"bonusSoFar":0.43},{"rt":7851,"response":{"heads":"6","tails":"6"},"type":"response","condition":"seqFeedback","trueTheta":0.5,"classrooms":["A","B"],"studentTrueClassroom":"A","exampleSet":"second","trial_type":"survey-html-form","trial_index":57,"time_elapsed":3321894,"internal_node_id":"0.0-56.0-0.0","params":{"nStudents":24,"maxFlips":30,"completionMinutes":45,"basePay":8,"maxBonus":9,"perTrialBonus":0.5,"perTrialBonusThreshold":0.05,"exampleCost":0.01},"classroomParams":{"A":{"a":1,"b":4},"B":{"a":4,"b":1},"C":{"a":2,"b":8},"D":{"a":8,"b":2}},"conditions":["nonSeqFull","nonSeqPartial","seqNoFeedback","seqFeedback"],"classroomPairings":[["A","B"],["C","D"]],"coinWeights":[0.2,0.5,0.8],"subjectId":"AKSJ3C5O3V9RB","assignmentId":"3KGTPGBS6Y7YQNW5B9MGXN6W1PSU2A","hitId":"3JGHED38EDDK7DFM0KVY7GXU94LY7W","url":"https://gershmanlab.com/experiments/alicia/teaching/experiment/?hitId=3JGHED38EDDK7DFM0KVY7GXU94LY7W&workerId=AKSJ3C5O3V9RB&assignmentId=3KGTPGBS6Y7YQNW5B9MGXN6W1PSU2A&a=SPGK9&tp_a=SPGK9&b=3KGTPGBS6Y7YQNW5B9MGXN6W1PSU2A&tp_b=3KGTPGBS6Y7YQNW5B9MGXN6W1PSU2A&c=365799&tp_c=365799","firstResponseHeads":5,"firstResponseTails":5,"secondResponseHeads":6,"secondResponseTails":6,"totalHeads":11,"totalTails":11,"studentIndex":6,"studentTrueHypers":{"a":1,"b":4},"studentGuess":0.4444444444444444,"delta":0.05555555555555558,"bonus":0,"bonusSoFar":0.43,"totalExamples":22},{"rt":23479,"response":{"heads":"2","tails":"10"},"type":"response","condition":"seqNoFeedback","trueTheta":0.2,"classrooms":["C","D"],"studentTrueClassroom":"D","exampleSet":"first","trial_type":"survey-html-form","trial_index":63,"time_elapsed":3362331,"internal_node_id":"0.0-62.0-0.0","params":{"nStudents":24,"maxFlips":30,"completionMinutes":45,"basePay":8,"maxBonus":9,"perTrialBonus":0.5,"perTrialBonusThreshold":0.05,"exampleCost":0.01},"classroomParams":{"A":{"a":1,"b":4},"B":{"a":4,"b":1},"C":{"a":2,"b":8},"D":{"a":8,"b":2}},"conditions":["nonSeqFull","nonSeqPartial","seqNoFeedback","seqFeedback"],"classroomPairings":[["A","B"],["C","D"]],"coinWeights":[0.2,0.5,0.8],"subjectId":"AKSJ3C5O3V9RB","assignmentId":"3KGTPGBS6Y7YQNW5B9MGXN6W1PSU2A","hitId":"3JGHED38EDDK7DFM0KVY7GXU94LY7W","url":"https://gershmanlab.com/experiments/alicia/teaching/experiment/?hitId=3JGHED38EDDK7DFM0KVY7GXU94LY7W&workerId=AKSJ3C5O3V9RB&assignmentId=3KGTPGBS6Y7YQNW5B9MGXN6W1PSU2A&a=SPGK9&tp_a=SPGK9&b=3KGTPGBS6Y7YQNW5B9MGXN6W1PSU2A&tp_b=3KGTPGBS6Y7YQNW5B9MGXN6W1PSU2A&c=365799&tp_c=365799","heads":2,"tails":10,"studentIndex":7,"studentTrueHypers":{"a":8,"b":2},"studentGuess":0.45454545454545453,"delta":0.2545454545454545,"totalExamples":12,"bonusSoFar":0.43},{"rt":44722,"response":{"heads":"2","tails":"20"},"type":"response","condition":"seqNoFeedback","trueTheta":0.2,"classrooms":["C","D"],"studentTrueClassroom":"D","exampleSet":"second","trial_type":"survey-html-form","trial_index":66,"time_elapsed":3412825,"internal_node_id":"0.0-65.0-0.0","params":{"nStudents":24,"maxFlips":30,"completionMinutes":45,"basePay":8,"maxBonus":9,"perTrialBonus":0.5,"perTrialBonusThreshold":0.05,"exampleCost":0.01},"classroomParams":{"A":{"a":1,"b":4},"B":{"a":4,"b":1},"C":{"a":2,"b":8},"D":{"a":8,"b":2}},"conditions":["nonSeqFull","nonSeqPartial","seqNoFeedback","seqFeedback"],"classroomPairings":[["A","B"],["C","D"]],"coinWeights":[0.2,0.5,0.8],"subjectId":"AKSJ3C5O3V9RB","assignmentId":"3KGTPGBS6Y7YQNW5B9MGXN6W1PSU2A","hitId":"3JGHED38EDDK7DFM0KVY7GXU94LY7W","url":"https://gershmanlab.com/experiments/alicia/teaching/experiment/?hitId=3JGHED38EDDK7DFM0KVY7GXU94LY7W&workerId=AKSJ3C5O3V9RB&assignmentId=3KGTPGBS6Y7YQNW5B9MGXN6W1PSU2A&a=SPGK9&tp_a=SPGK9&b=3KGTPGBS6Y7YQNW5B9MGXN6W1PSU2A&tp_b=3KGTPGBS6Y7YQNW5B9MGXN6W1PSU2A&c=365799&tp_c=365799","firstResponseHeads":2,"firstResponseTails":10,"secondResponseHeads":2,"secondResponseTails":20,"totalHeads":4,"totalTails":30,"studentIndex":7,"studentTrueHypers":{"a":8,"b":2},"studentGuess":0.2727272727272727,"delta":0.0727272727272727,"bonus":0,"bonusSoFar":0.43,"totalExamples":34},{"rt":61713,"response":{"heads":"28","tails":"2"},"type":"response","condition":"seqNoFeedback","trueTheta":0.8,"classrooms":["A","B"],"studentTrueClassroom":"B","exampleSet":"first","trial_type":"survey-html-form","trial_index":72,"time_elapsed":3491994,"internal_node_id":"0.0-71.0-0.0","params":{"nStudents":24,"maxFlips":30,"completionMinutes":45,"basePay":8,"maxBonus":9,"perTrialBonus":0.5,"perTrialBonusThreshold":0.05,"exampleCost":0.01},"classroomParams":{"A":{"a":1,"b":4},"B":{"a":4,"b":1},"C":{"a":2,"b":8},"D":{"a":8,"b":2}},"conditions":["nonSeqFull","nonSeqPartial","seqNoFeedback","seqFeedback"],"classroomPairings":[["A","B"],["C","D"]],"coinWeights":[0.2,0.5,0.8],"subjectId":"AKSJ3C5O3V9RB","assignmentId":"3KGTPGBS6Y7YQNW5B9MGXN6W1PSU2A","hitId":"3JGHED38EDDK7DFM0KVY7GXU94LY7W","url":"https://gershmanlab.com/experiments/alicia/teaching/experiment/?hitId=3JGHED38EDDK7DFM0KVY7GXU94LY7W&workerId=AKSJ3C5O3V9RB&assignmentId=3KGTPGBS6Y7YQNW5B9MGXN6W1PSU2A&a=SPGK9&tp_a=SPGK9&b=3KGTPGBS6Y7YQNW5B9MGXN6W1PSU2A&tp_b=3KGTPGBS6Y7YQNW5B9MGXN6W1PSU2A&c=365799&tp_c=365799","heads":28,"tails":2,"studentIndex":8,"studentTrueHypers":{"a":4,"b":1},"studentGuess":0.9142857142857143,"delta":0.11428571428571421,"totalExamples":30,"bonusSoFar":0.43},{"rt":25789,"response":{"heads":"24","tails":"2"},"type":"response","condition":"seqNoFeedback","trueTheta":0.8,"classrooms":["A","B"],"studentTrueClassroom":"B","exampleSet":"second","trial_type":"survey-html-form","trial_index":75,"time_elapsed":3524313,"internal_node_id":"0.0-74.0-0.0","params":{"nStudents":24,"maxFlips":30,"completionMinutes":45,"basePay":8,"maxBonus":9,"perTrialBonus":0.5,"perTrialBonusThreshold":0.05,"exampleCost":0.01},"classroomParams":{"A":{"a":1,"b":4},"B":{"a":4,"b":1},"C":{"a":2,"b":8},"D":{"a":8,"b":2}},"conditions":["nonSeqFull","nonSeqPartial","seqNoFeedback","seqFeedback"],"classroomPairings":[["A","B"],["C","D"]],"coinWeights":[0.2,0.5,0.8],"subjectId":"AKSJ3C5O3V9RB","assignmentId":"3KGTPGBS6Y7YQNW5B9MGXN6W1PSU2A","hitId":"3JGHED38EDDK7DFM0KVY7GXU94LY7W","url":"https://gershmanlab.com/experiments/alicia/teaching/experiment/?hitId=3JGHED38EDDK7DFM0KVY7GXU94LY7W&workerId=AKSJ3C5O3V9RB&assignmentId=3KGTPGBS6Y7YQNW5B9MGXN6W1PSU2A&a=SPGK9&tp_a=SPGK9&b=3KGTPGBS6Y7YQNW5B9MGXN6W1PSU2A&tp_b=3KGTPGBS6Y7YQNW5B9MGXN6W1PSU2A&c=365799&tp_c=365799","firstResponseHeads":28,"firstResponseTails":2,"secondResponseHeads":24,"secondResponseTails":2,"totalHeads":52,"totalTails":4,"studentIndex":8,"studentTrueHypers":{"a":4,"b":1},"studentGuess":0.9180327868852459,"delta":0.11803278688524588,"bonus":0,"bonusSoFar":0.43,"totalExamples":56},{"rt":24124,"response":{"heads":"15","tails":"15"},"type":"response","condition":"nonSeqPartial","trueTheta":0.5,"classrooms":["A","B"],"studentTrueClassroom":"A","exampleSet":"first","trial_type":"survey-html-form","trial_index":81,"time_elapsed":3567876,"internal_node_id":"0.0-80.0-0.0","params":{"nStudents":24,"maxFlips":30,"completionMinutes":45,"basePay":8,"maxBonus":9,"perTrialBonus":0.5,"perTrialBonusThreshold":0.05,"exampleCost":0.01},"classroomParams":{"A":{"a":1,"b":4},"B":{"a":4,"b":1},"C":{"a":2,"b":8},"D":{"a":8,"b":2}},"conditions":["nonSeqFull","nonSeqPartial","seqNoFeedback","seqFeedback"],"classroomPairings":[["A","B"],["C","D"]],"coinWeights":[0.2,0.5,0.8],"subjectId":"AKSJ3C5O3V9RB","assignmentId":"3KGTPGBS6Y7YQNW5B9MGXN6W1PSU2A","hitId":"3JGHED38EDDK7DFM0KVY7GXU94LY7W","url":"https://gershmanlab.com/experiments/alicia/teaching/experiment/?hitId=3JGHED38EDDK7DFM0KVY7GXU94LY7W&workerId=AKSJ3C5O3V9RB&assignmentId=3KGTPGBS6Y7YQNW5B9MGXN6W1PSU2A&a=SPGK9&tp_a=SPGK9&b=3KGTPGBS6Y7YQNW5B9MGXN6W1PSU2A&tp_b=3KGTPGBS6Y7YQNW5B9MGXN6W1PSU2A&c=365799&tp_c=365799","heads":15,"tails":15,"studentIndex":9,"studentTrueHypers":{"a":1,"b":4},"studentGuess":0.45714285714285713,"delta":0.04285714285714287,"totalExamples":30,"bonus":0.2,"bonusSoFar":0.63},{"rt":130160,"response":{"heads":"24","tails":"3"},"type":"response","condition":"nonSeqPartial","trueTheta":0.8,"classrooms":["A","B"],"studentTrueClassroom":"B","exampleSet":"first","trial_type":"survey-html-form","trial_index":87,"time_elapsed":3713865,"internal_node_id":"0.0-86.0-0.0","params":{"nStudents":24,"maxFlips":30,"completionMinutes":45,"basePay":8,"maxBonus":9,"perTrialBonus":0.5,"perTrialBonusThreshold":0.05,"exampleCost":0.01},"classroomParams":{"A":{"a":1,"b":4},"B":{"a":4,"b":1},"C":{"a":2,"b":8},"D":{"a":8,"b":2}},"conditions":["nonSeqFull","nonSeqPartial","seqNoFeedback","seqFeedback"],"classroomPairings":[["A","B"],["C","D"]],"coinWeights":[0.2,0.5,0.8],"subjectId":"AKSJ3C5O3V9RB","assignmentId":"3KGTPGBS6Y7YQNW5B9MGXN6W1PSU2A","hitId":"3JGHED38EDDK7DFM0KVY7GXU94LY7W","url":"https://gershmanlab.com/experiments/alicia/teaching/experiment/?hitId=3JGHED38EDDK7DFM0KVY7GXU94LY7W&workerId=AKSJ3C5O3V9RB&assignmentId=3KGTPGBS6Y7YQNW5B9MGXN6W1PSU2A&a=SPGK9&tp_a=SPGK9&b=3KGTPGBS6Y7YQNW5B9MGXN6W1PSU2A&tp_b=3KGTPGBS6Y7YQNW5B9MGXN6W1PSU2A&c=365799&tp_c=365799","heads":24,"tails":3,"studentIndex":10,"studentTrueHypers":{"a":4,"b":1},"studentGuess":0.875,"delta":0.07499999999999996,"totalExamples":27,"bonus":0,"bonusSoFar":0.63},{"rt":104586,"response":{"heads":"2","tails":"12"},"type":"response","condition":"nonSeqFull","trueTheta":0.2,"classrooms":["A","B"],"studentTrueClassroom":"A","exampleSet":"first","trial_type":"survey-html-form","trial_index":93,"time_elapsed":3836291,"internal_node_id":"0.0-92.0-0.0","params":{"nStudents":24,"maxFlips":30,"completionMinutes":45,"basePay":8,"maxBonus":9,"perTrialBonus":0.5,"perTrialBonusThreshold":0.05,"exampleCost":0.01},"classroomParams":{"A":{"a":1,"b":4},"B":{"a":4,"b":1},"C":{"a":2,"b":8},"D":{"a":8,"b":2}},"conditions":["nonSeqFull","nonSeqPartial","seqNoFeedback","seqFeedback"],"classroomPairings":[["A","B"],["C","D"]],"coinWeights":[0.2,0.5,0.8],"subjectId":"AKSJ3C5O3V9RB","assignmentId":"3KGTPGBS6Y7YQNW5B9MGXN6W1PSU2A","hitId":"3JGHED38EDDK7DFM0KVY7GXU94LY7W","url":"https://gershmanlab.com/experiments/alicia/teaching/experiment/?hitId=3JGHED38EDDK7DFM0KVY7GXU94LY7W&workerId=AKSJ3C5O3V9RB&assignmentId=3KGTPGBS6Y7YQNW5B9MGXN6W1PSU2A&a=SPGK9&tp_a=SPGK9&b=3KGTPGBS6Y7YQNW5B9MGXN6W1PSU2A&tp_b=3KGTPGBS6Y7YQNW5B9MGXN6W1PSU2A&c=365799&tp_c=365799","heads":2,"tails":12,"studentIndex":11,"studentTrueHypers":{"a":1,"b":4},"studentGuess":0.15789473684210525,"delta":0.04210526315789476,"totalExamples":14,"bonus":0.36,"bonusSoFar":0.99},{"rt":40488,"response":{"heads":"15","tails":"15"},"type":"response","condition":"seqFeedback","trueTheta":0.5,"classrooms":["C","D"],"studentTrueClassroom":"C","exampleSet":"first","trial_type":"survey-html-form","trial_index":99,"time_elapsed":3897128,"internal_node_id":"0.0-98.0-0.0","params":{"nStudents":24,"maxFlips":30,"completionMinutes":45,"basePay":8,"maxBonus":9,"perTrialBonus":0.5,"perTrialBonusThreshold":0.05,"exampleCost":0.01},"classroomParams":{"A":{"a":1,"b":4},"B":{"a":4,"b":1},"C":{"a":2,"b":8},"D":{"a":8,"b":2}},"conditions":["nonSeqFull","nonSeqPartial","seqNoFeedback","seqFeedback"],"classroomPairings":[["A","B"],["C","D"]],"coinWeights":[0.2,0.5,0.8],"subjectId":"AKSJ3C5O3V9RB","assignmentId":"3KGTPGBS6Y7YQNW5B9MGXN6W1PSU2A","hitId":"3JGHED38EDDK7DFM0KVY7GXU94LY7W","url":"https://gershmanlab.com/experiments/alicia/teaching/experiment/?hitId=3JGHED38EDDK7DFM0KVY7GXU94LY7W&workerId=AKSJ3C5O3V9RB&assignmentId=3KGTPGBS6Y7YQNW5B9MGXN6W1PSU2A&a=SPGK9&tp_a=SPGK9&b=3KGTPGBS6Y7YQNW5B9MGXN6W1PSU2A&tp_b=3KGTPGBS6Y7YQNW5B9MGXN6W1PSU2A&c=365799&tp_c=365799","heads":15,"tails":15,"studentIndex":12,"studentTrueHypers":{"a":2,"b":8},"studentGuess":0.425,"delta":0.07500000000000001,"totalExamples":30,"bonusSoFar":0.99},{"rt":17696,"response":{"heads":"15","tails":"15"},"type":"response","condition":"seqFeedback","trueTheta":0.5,"classrooms":["C","D"],"studentTrueClassroom":"C","exampleSet":"second","trial_type":"survey-html-form","trial_index":103,"time_elapsed":3927210,"internal_node_id":"0.0-102.0-0.0","params":{"nStudents":24,"maxFlips":30,"completionMinutes":45,"basePay":8,"maxBonus":9,"perTrialBonus":0.5,"perTrialBonusThreshold":0.05,"exampleCost":0.01},"classroomParams":{"A":{"a":1,"b":4},"B":{"a":4,"b":1},"C":{"a":2,"b":8},"D":{"a":8,"b":2}},"conditions":["nonSeqFull","nonSeqPartial","seqNoFeedback","seqFeedback"],"classroomPairings":[["A","B"],["C","D"]],"coinWeights":[0.2,0.5,0.8],"subjectId":"AKSJ3C5O3V9RB","assignmentId":"3KGTPGBS6Y7YQNW5B9MGXN6W1PSU2A","hitId":"3JGHED38EDDK7DFM0KVY7GXU94LY7W","url":"https://gershmanlab.com/experiments/alicia/teaching/experiment/?hitId=3JGHED38EDDK7DFM0KVY7GXU94LY7W&workerId=AKSJ3C5O3V9RB&assignmentId=3KGTPGBS6Y7YQNW5B9MGXN6W1PSU2A&a=SPGK9&tp_a=SPGK9&b=3KGTPGBS6Y7YQNW5B9MGXN6W1PSU2A&tp_b=3KGTPGBS6Y7YQNW5B9MGXN6W1PSU2A&c=365799&tp_c=365799","firstResponseHeads":15,"firstResponseTails":15,"secondResponseHeads":15,"secondResponseTails":15,"totalHeads":30,"totalTails":30,"studentIndex":12,"studentTrueHypers":{"a":2,"b":8},"studentGuess":0.45714285714285713,"delta":0.04285714285714287,"bonus":0,"bonusSoFar":0.99,"totalExamples":60},{"rt":34353,"response":{"heads":"26","tails":"4"},"type":"response","condition":"nonSeqFull","trueTheta":0.8,"classrooms":["C","D"],"studentTrueClassroom":"C","exampleSet":"first","trial_type":"survey-html-form","trial_index":109,"time_elapsed":3974883,"internal_node_id":"0.0-108.0-0.0","params":{"nStudents":24,"maxFlips":30,"completionMinutes":45,"basePay":8,"maxBonus":9,"perTrialBonus":0.5,"perTrialBonusThreshold":0.05,"exampleCost":0.01},"classroomParams":{"A":{"a":1,"b":4},"B":{"a":4,"b":1},"C":{"a":2,"b":8},"D":{"a":8,"b":2}},"conditions":["nonSeqFull","nonSeqPartial","seqNoFeedback","seqFeedback"],"classroomPairings":[["A","B"],["C","D"]],"coinWeights":[0.2,0.5,0.8],"subjectId":"AKSJ3C5O3V9RB","assignmentId":"3KGTPGBS6Y7YQNW5B9MGXN6W1PSU2A","hitId":"3JGHED38EDDK7DFM0KVY7GXU94LY7W","url":"https://gershmanlab.com/experiments/alicia/teaching/experiment/?hitId=3JGHED38EDDK7DFM0KVY7GXU94LY7W&workerId=AKSJ3C5O3V9RB&assignmentId=3KGTPGBS6Y7YQNW5B9MGXN6W1PSU2A&a=SPGK9&tp_a=SPGK9&b=3KGTPGBS6Y7YQNW5B9MGXN6W1PSU2A&tp_b=3KGTPGBS6Y7YQNW5B9MGXN6W1PSU2A&c=365799&tp_c=365799","heads":26,"tails":4,"studentIndex":13,"studentTrueHypers":{"a":2,"b":8},"studentGuess":0.7,"delta":0.10000000000000009,"totalExamples":30,"bonus":0,"bonusSoFar":0.99},{"rt":64768,"response":{"heads":"10","tails":"4"},"type":"response","condition":"seqFeedback","trueTheta":0.8,"classrooms":["A","B"],"studentTrueClassroom":"A","exampleSet":"first","trial_type":"survey-html-form","trial_index":115,"time_elapsed":4050998,"internal_node_id":"0.0-114.0-0.0","params":{"nStudents":24,"maxFlips":30,"completionMinutes":45,"basePay":8,"maxBonus":9,"perTrialBonus":0.5,"perTrialBonusThreshold":0.05,"exampleCost":0.01},"classroomParams":{"A":{"a":1,"b":4},"B":{"a":4,"b":1},"C":{"a":2,"b":8},"D":{"a":8,"b":2}},"conditions":["nonSeqFull","nonSeqPartial","seqNoFeedback","seqFeedback"],"classroomPairings":[["A","B"],["C","D"]],"coinWeights":[0.2,0.5,0.8],"subjectId":"AKSJ3C5O3V9RB","assignmentId":"3KGTPGBS6Y7YQNW5B9MGXN6W1PSU2A","hitId":"3JGHED38EDDK7DFM0KVY7GXU94LY7W","url":"https://gershmanlab.com/experiments/alicia/teaching/experiment/?hitId=3JGHED38EDDK7DFM0KVY7GXU94LY7W&workerId=AKSJ3C5O3V9RB&assignmentId=3KGTPGBS6Y7YQNW5B9MGXN6W1PSU2A&a=SPGK9&tp_a=SPGK9&b=3KGTPGBS6Y7YQNW5B9MGXN6W1PSU2A&tp_b=3KGTPGBS6Y7YQNW5B9MGXN6W1PSU2A&c=365799&tp_c=365799","heads":10,"tails":4,"studentIndex":14,"studentTrueHypers":{"a":1,"b":4},"studentGuess":0.5789473684210527,"delta":0.2210526315789474,"totalExamples":14,"bonusSoFar":0.99},{"rt":67644,"response":{"heads":"24","tails":"6"},"type":"response","condition":"seqFeedback","trueTheta":0.8,"classrooms":["A","B"],"studentTrueClassroom":"A","exampleSet":"second","trial_type":"survey-html-form","trial_index":119,"time_elapsed":4126877,"internal_node_id":"0.0-118.0-0.0","params":{"nStudents":24,"maxFlips":30,"completionMinutes":45,"basePay":8,"maxBonus":9,"perTrialBonus":0.5,"perTrialBonusThreshold":0.05,"exampleCost":0.01},"classroomParams":{"A":{"a":1,"b":4},"B":{"a":4,"b":1},"C":{"a":2,"b":8},"D":{"a":8,"b":2}},"conditions":["nonSeqFull","nonSeqPartial","seqNoFeedback","seqFeedback"],"classroomPairings":[["A","B"],["C","D"]],"coinWeights":[0.2,0.5,0.8],"subjectId":"AKSJ3C5O3V9RB","assignmentId":"3KGTPGBS6Y7YQNW5B9MGXN6W1PSU2A","hitId":"3JGHED38EDDK7DFM0KVY7GXU94LY7W","url":"https://gershmanlab.com/experiments/alicia/teaching/experiment/?hitId=3JGHED38EDDK7DFM0KVY7GXU94LY7W&workerId=AKSJ3C5O3V9RB&assignmentId=3KGTPGBS6Y7YQNW5B9MGXN6W1PSU2A&a=SPGK9&tp_a=SPGK9&b=3KGTPGBS6Y7YQNW5B9MGXN6W1PSU2A&tp_b=3KGTPGBS6Y7YQNW5B9MGXN6W1PSU2A&c=365799&tp_c=365799","firstResponseHeads":10,"firstResponseTails":4,"secondResponseHeads":24,"secondResponseTails":6,"totalHeads":34,"totalTails":10,"studentIndex":14,"studentTrueHypers":{"a":1,"b":4},"studentGuess":0.7142857142857143,"delta":0.08571428571428574,"bonus":0,"bonusSoFar":0.99,"totalExamples":44},{"rt":52932,"response":{"heads":"5","tails":"8"},"type":"response","condition":"seqNoFeedback","trueTheta":0.2,"classrooms":["A","B"],"studentTrueClassroom":"A","exampleSet":"first","trial_type":"survey-html-form","trial_index":125,"time_elapsed":4196794,"internal_node_id":"0.0-124.0-0.0","params":{"nStudents":24,"maxFlips":30,"completionMinutes":45,"basePay":8,"maxBonus":9,"perTrialBonus":0.5,"perTrialBonusThreshold":0.05,"exampleCost":0.01},"classroomParams":{"A":{"a":1,"b":4},"B":{"a":4,"b":1},"C":{"a":2,"b":8},"D":{"a":8,"b":2}},"conditions":["nonSeqFull","nonSeqPartial","seqNoFeedback","seqFeedback"],"classroomPairings":[["A","B"],["C","D"]],"coinWeights":[0.2,0.5,0.8],"subjectId":"AKSJ3C5O3V9RB","assignmentId":"3KGTPGBS6Y7YQNW5B9MGXN6W1PSU2A","hitId":"3JGHED38EDDK7DFM0KVY7GXU94LY7W","url":"https://gershmanlab.com/experiments/alicia/teaching/experiment/?hitId=3JGHED38EDDK7DFM0KVY7GXU94LY7W&workerId=AKSJ3C5O3V9RB&assignmentId=3KGTPGBS6Y7YQNW5B9MGXN6W1PSU2A&a=SPGK9&tp_a=SPGK9&b=3KGTPGBS6Y7YQNW5B9MGXN6W1PSU2A&tp_b=3KGTPGBS6Y7YQNW5B9MGXN6W1PSU2A&c=365799&tp_c=365799","heads":5,"tails":8,"studentIndex":15,"studentTrueHypers":{"a":1,"b":4},"studentGuess":0.3333333333333333,"delta":0.1333333333333333,"totalExamples":13,"bonusSoFar":0.99},{"rt":10627,"response":{"heads":"5","tails":"7"},"type":"response","condition":"seqNoFeedback","trueTheta":0.2,"classrooms":["A","B"],"studentTrueClassroom":"A","exampleSet":"second","trial_type":"survey-html-form","trial_index":128,"time_elapsed":4213197,"internal_node_id":"0.0-127.0-0.0","params":{"nStudents":24,"maxFlips":30,"completionMinutes":45,"basePay":8,"maxBonus":9,"perTrialBonus":0.5,"perTrialBonusThreshold":0.05,"exampleCost":0.01},"classroomParams":{"A":{"a":1,"b":4},"B":{"a":4,"b":1},"C":{"a":2,"b":8},"D":{"a":8,"b":2}},"conditions":["nonSeqFull","nonSeqPartial","seqNoFeedback","seqFeedback"],"classroomPairings":[["A","B"],["C","D"]],"coinWeights":[0.2,0.5,0.8],"subjectId":"AKSJ3C5O3V9RB","assignmentId":"3KGTPGBS6Y7YQNW5B9MGXN6W1PSU2A","hitId":"3JGHED38EDDK7DFM0KVY7GXU94LY7W","url":"https://gershmanlab.com/experiments/alicia/teaching/experiment/?hitId=3JGHED38EDDK7DFM0KVY7GXU94LY7W&workerId=AKSJ3C5O3V9RB&assignmentId=3KGTPGBS6Y7YQNW5B9MGXN6W1PSU2A&a=SPGK9&tp_a=SPGK9&b=3KGTPGBS6Y7YQNW5B9MGXN6W1PSU2A&tp_b=3KGTPGBS6Y7YQNW5B9MGXN6W1PSU2A&c=365799&tp_c=365799","firstResponseHeads":5,"firstResponseTails":8,"secondResponseHeads":5,"secondResponseTails":7,"totalHeads":10,"totalTails":15,"studentIndex":15,"studentTrueHypers":{"a":1,"b":4},"studentGuess":0.36666666666666664,"delta":0.16666666666666663,"bonus":0,"bonusSoFar":0.99,"totalExamples":25},{"rt":26007,"response":{"heads":"10","tails":"10"},"type":"response","condition":"nonSeqPartial","trueTheta":0.5,"classrooms":["C","D"],"studentTrueClassroom":"C","exampleSet":"first","trial_type":"survey-html-form","trial_index":134,"time_elapsed":4252780,"internal_node_id":"0.0-133.0-0.0","params":{"nStudents":24,"maxFlips":30,"completionMinutes":45,"basePay":8,"maxBonus":9,"perTrialBonus":0.5,"perTrialBonusThreshold":0.05,"exampleCost":0.01},"classroomParams":{"A":{"a":1,"b":4},"B":{"a":4,"b":1},"C":{"a":2,"b":8},"D":{"a":8,"b":2}},"conditions":["nonSeqFull","nonSeqPartial","seqNoFeedback","seqFeedback"],"classroomPairings":[["A","B"],["C","D"]],"coinWeights":[0.2,0.5,0.8],"subjectId":"AKSJ3C5O3V9RB","assignmentId":"3KGTPGBS6Y7YQNW5B9MGXN6W1PSU2A","hitId":"3JGHED38EDDK7DFM0KVY7GXU94LY7W","url":"https://gershmanlab.com/experiments/alicia/teaching/experiment/?hitId=3JGHED38EDDK7DFM0KVY7GXU94LY7W&workerId=AKSJ3C5O3V9RB&assignmentId=3KGTPGBS6Y7YQNW5B9MGXN6W1PSU2A&a=SPGK9&tp_a=SPGK9&b=3KGTPGBS6Y7YQNW5B9MGXN6W1PSU2A&tp_b=3KGTPGBS6Y7YQNW5B9MGXN6W1PSU2A&c=365799&tp_c=365799","heads":10,"tails":10,"studentIndex":16,"studentTrueHypers":{"a":2,"b":8},"studentGuess":0.4,"delta":0.09999999999999998,"totalExamples":20,"bonus":0,"bonusSoFar":0.99},{"rt":32138,"response":{"heads":"8","tails":"20"},"type":"response","condition":"nonSeqPartial","trueTheta":0.2,"classrooms":["C","D"],"studentTrueClassroom":"D","exampleSet":"first","trial_type":"survey-html-form","trial_index":140,"time_elapsed":4298445,"internal_node_id":"0.0-139.0-0.0","params":{"nStudents":24,"maxFlips":30,"completionMinutes":45,"basePay":8,"maxBonus":9,"perTrialBonus":0.5,"perTrialBonusThreshold":0.05,"exampleCost":0.01},"classroomParams":{"A":{"a":1,"b":4},"B":{"a":4,"b":1},"C":{"a":2,"b":8},"D":{"a":8,"b":2}},"conditions":["nonSeqFull","nonSeqPartial","seqNoFeedback","seqFeedback"],"classroomPairings":[["A","B"],["C","D"]],"coinWeights":[0.2,0.5,0.8],"subjectId":"AKSJ3C5O3V9RB","assignmentId":"3KGTPGBS6Y7YQNW5B9MGXN6W1PSU2A","hitId":"3JGHED38EDDK7DFM0KVY7GXU94LY7W","url":"https://gershmanlab.com/experiments/alicia/teaching/experiment/?hitId=3JGHED38EDDK7DFM0KVY7GXU94LY7W&workerId=AKSJ3C5O3V9RB&assignmentId=3KGTPGBS6Y7YQNW5B9MGXN6W1PSU2A&a=SPGK9&tp_a=SPGK9&b=3KGTPGBS6Y7YQNW5B9MGXN6W1PSU2A&tp_b=3KGTPGBS6Y7YQNW5B9MGXN6W1PSU2A&c=365799&tp_c=365799","heads":8,"tails":20,"studentIndex":17,"studentTrueHypers":{"a":8,"b":2},"studentGuess":0.42105263157894735,"delta":0.22105263157894733,"totalExamples":28,"bonus":0,"bonusSoFar":0.99},{"rt":21995,"response":{"heads":"2","tails":"28"},"type":"response","condition":"seqFeedback","trueTheta":0.2,"classrooms":["A","B"],"studentTrueClassroom":"A","exampleSet":"first","trial_type":"survey-html-form","trial_index":146,"time_elapsed":4334165,"internal_node_id":"0.0-145.0-0.0","params":{"nStudents":24,"maxFlips":30,"completionMinutes":45,"basePay":8,"maxBonus":9,"perTrialBonus":0.5,"perTrialBonusThreshold":0.05,"exampleCost":0.01},"classroomParams":{"A":{"a":1,"b":4},"B":{"a":4,"b":1},"C":{"a":2,"b":8},"D":{"a":8,"b":2}},"conditions":["nonSeqFull","nonSeqPartial","seqNoFeedback","seqFeedback"],"classroomPairings":[["A","B"],["C","D"]],"coinWeights":[0.2,0.5,0.8],"subjectId":"AKSJ3C5O3V9RB","assignmentId":"3KGTPGBS6Y7YQNW5B9MGXN6W1PSU2A","hitId":"3JGHED38EDDK7DFM0KVY7GXU94LY7W","url":"https://gershmanlab.com/experiments/alicia/teaching/experiment/?hitId=3JGHED38EDDK7DFM0KVY7GXU94LY7W&workerId=AKSJ3C5O3V9RB&assignmentId=3KGTPGBS6Y7YQNW5B9MGXN6W1PSU2A&a=SPGK9&tp_a=SPGK9&b=3KGTPGBS6Y7YQNW5B9MGXN6W1PSU2A&tp_b=3KGTPGBS6Y7YQNW5B9MGXN6W1PSU2A&c=365799&tp_c=365799","heads":2,"tails":28,"studentIndex":18,"studentTrueHypers":{"a":1,"b":4},"studentGuess":0.08571428571428572,"delta":0.1142857142857143,"totalExamples":30,"bonusSoFar":0.99},{"rt":35638,"response":{"heads":"2","tails":"24"},"type":"response","condition":"seqFeedback","trueTheta":0.2,"classrooms":["A","B"],"studentTrueClassroom":"A","exampleSet":"second","trial_type":"survey-html-form","trial_index":150,"time_elapsed":4378395,"internal_node_id":"0.0-149.0-0.0","params":{"nStudents":24,"maxFlips":30,"completionMinutes":45,"basePay":8,"maxBonus":9,"perTrialBonus":0.5,"perTrialBonusThreshold":0.05,"exampleCost":0.01},"classroomParams":{"A":{"a":1,"b":4},"B":{"a":4,"b":1},"C":{"a":2,"b":8},"D":{"a":8,"b":2}},"conditions":["nonSeqFull","nonSeqPartial","seqNoFeedback","seqFeedback"],"classroomPairings":[["A","B"],["C","D"]],"coinWeights":[0.2,0.5,0.8],"subjectId":"AKSJ3C5O3V9RB","assignmentId":"3KGTPGBS6Y7YQNW5B9MGXN6W1PSU2A","hitId":"3JGHED38EDDK7DFM0KVY7GXU94LY7W","url":"https://gershmanlab.com/experiments/alicia/teaching/experiment/?hitId=3JGHED38EDDK7DFM0KVY7GXU94LY7W&workerId=AKSJ3C5O3V9RB&assignmentId=3KGTPGBS6Y7YQNW5B9MGXN6W1PSU2A&a=SPGK9&tp_a=SPGK9&b=3KGTPGBS6Y7YQNW5B9MGXN6W1PSU2A&tp_b=3KGTPGBS6Y7YQNW5B9MGXN6W1PSU2A&c=365799&tp_c=365799","firstResponseHeads":2,"firstResponseTails":28,"secondResponseHeads":2,"secondResponseTails":24,"totalHeads":4,"totalTails":52,"studentIndex":18,"studentTrueHypers":{"a":1,"b":4},"studentGuess":0.08196721311475409,"delta":0.11803278688524592,"bonus":0,"bonusSoFar":0.99,"totalExamples":56},{"rt":38443,"response":{"heads":"24","tails":"6"},"type":"response","condition":"nonSeqPartial","trueTheta":0.8,"classrooms":["C","D"],"studentTrueClassroom":"D","exampleSet":"first","trial_type":"survey-html-form","trial_index":156,"time_elapsed":4429354,"internal_node_id":"0.0-155.0-0.0","params":{"nStudents":24,"maxFlips":30,"completionMinutes":45,"basePay":8,"maxBonus":9,"perTrialBonus":0.5,"perTrialBonusThreshold":0.05,"exampleCost":0.01},"classroomParams":{"A":{"a":1,"b":4},"B":{"a":4,"b":1},"C":{"a":2,"b":8},"D":{"a":8,"b":2}},"conditions":["nonSeqFull","nonSeqPartial","seqNoFeedback","seqFeedback"],"classroomPairings":[["A","B"],["C","D"]],"coinWeights":[0.2,0.5,0.8],"subjectId":"AKSJ3C5O3V9RB","assignmentId":"3KGTPGBS6Y7YQNW5B9MGXN6W1PSU2A","hitId":"3JGHED38EDDK7DFM0KVY7GXU94LY7W","url":"https://gershmanlab.com/experiments/alicia/teaching/experiment/?hitId=3JGHED38EDDK7DFM0KVY7GXU94LY7W&workerId=AKSJ3C5O3V9RB&assignmentId=3KGTPGBS6Y7YQNW5B9MGXN6W1PSU2A&a=SPGK9&tp_a=SPGK9&b=3KGTPGBS6Y7YQNW5B9MGXN6W1PSU2A&tp_b=3KGTPGBS6Y7YQNW5B9MGXN6W1PSU2A&c=365799&tp_c=365799","heads":24,"tails":6,"studentIndex":19,"studentTrueHypers":{"a":8,"b":2},"studentGuess":0.8,"delta":0,"totalExamples":30,"bonus":0.2,"bonusSoFar":1.19},{"rt":40224,"response":{"heads":"10","tails":"10"},"type":"response","condition":"seqNoFeedback","trueTheta":0.5,"classrooms":["A","B"],"studentTrueClassroom":"B","exampleSet":"first","trial_type":"survey-html-form","trial_index":162,"time_elapsed":4488245,"internal_node_id":"0.0-161.0-0.0","params":{"nStudents":24,"maxFlips":30,"completionMinutes":45,"basePay":8,"maxBonus":9,"perTrialBonus":0.5,"perTrialBonusThreshold":0.05,"exampleCost":0.01},"classroomParams":{"A":{"a":1,"b":4},"B":{"a":4,"b":1},"C":{"a":2,"b":8},"D":{"a":8,"b":2}},"conditions":["nonSeqFull","nonSeqPartial","seqNoFeedback","seqFeedback"],"classroomPairings":[["A","B"],["C","D"]],"coinWeights":[0.2,0.5,0.8],"subjectId":"AKSJ3C5O3V9RB","assignmentId":"3KGTPGBS6Y7YQNW5B9MGXN6W1PSU2A","hitId":"3JGHED38EDDK7DFM0KVY7GXU94LY7W","url":"https://gershmanlab.com/experiments/alicia/teaching/experiment/?hitId=3JGHED38EDDK7DFM0KVY7GXU94LY7W&workerId=AKSJ3C5O3V9RB&assignmentId=3KGTPGBS6Y7YQNW5B9MGXN6W1PSU2A&a=SPGK9&tp_a=SPGK9&b=3KGTPGBS6Y7YQNW5B9MGXN6W1PSU2A&tp_b=3KGTPGBS6Y7YQNW5B9MGXN6W1PSU2A&c=365799&tp_c=365799","heads":10,"tails":10,"studentIndex":20,"studentTrueHypers":{"a":4,"b":1},"studentGuess":0.56,"delta":0.06000000000000005,"totalExamples":20,"bonusSoFar":1.19},{"rt":11412,"response":{"heads":"10","tails":"10"},"type":"response","condition":"seqNoFeedback","trueTheta":0.5,"classrooms":["A","B"],"studentTrueClassroom":"B","exampleSet":"second","trial_type":"survey-html-form","trial_index":165,"time_elapsed":4505919,"internal_node_id":"0.0-164.0-0.0","params":{"nStudents":24,"maxFlips":30,"completionMinutes":45,"basePay":8,"maxBonus":9,"perTrialBonus":0.5,"perTrialBonusThreshold":0.05,"exampleCost":0.01},"classroomParams":{"A":{"a":1,"b":4},"B":{"a":4,"b":1},"C":{"a":2,"b":8},"D":{"a":8,"b":2}},"conditions":["nonSeqFull","nonSeqPartial","seqNoFeedback","seqFeedback"],"classroomPairings":[["A","B"],["C","D"]],"coinWeights":[0.2,0.5,0.8],"subjectId":"AKSJ3C5O3V9RB","assignmentId":"3KGTPGBS6Y7YQNW5B9MGXN6W1PSU2A","hitId":"3JGHED38EDDK7DFM0KVY7GXU94LY7W","url":"https://gershmanlab.com/experiments/alicia/teaching/experiment/?hitId=3JGHED38EDDK7DFM0KVY7GXU94LY7W&workerId=AKSJ3C5O3V9RB&assignmentId=3KGTPGBS6Y7YQNW5B9MGXN6W1PSU2A&a=SPGK9&tp_a=SPGK9&b=3KGTPGBS6Y7YQNW5B9MGXN6W1PSU2A&tp_b=3KGTPGBS6Y7YQNW5B9MGXN6W1PSU2A&c=365799&tp_c=365799","firstResponseHeads":10,"firstResponseTails":10,"secondResponseHeads":10,"secondResponseTails":10,"totalHeads":20,"totalTails":20,"studentIndex":20,"studentTrueHypers":{"a":4,"b":1},"studentGuess":0.5333333333333333,"delta":0.033333333333333326,"bonus":0.1,"bonusSoFar":1.29,"totalExamples":40},{"rt":581262,"response":{"heads":"2","tails":"12"},"type":"response","condition":"seqFeedback","trueTheta":0.2,"classrooms":["C","D"],"studentTrueClassroom":"D","exampleSet":"first","trial_type":"survey-html-form","trial_index":171,"time_elapsed":5103459,"internal_node_id":"0.0-170.0-0.0","params":{"nStudents":24,"maxFlips":30,"completionMinutes":45,"basePay":8,"maxBonus":9,"perTrialBonus":0.5,"perTrialBonusThreshold":0.05,"exampleCost":0.01},"classroomParams":{"A":{"a":1,"b":4},"B":{"a":4,"b":1},"C":{"a":2,"b":8},"D":{"a":8,"b":2}},"conditions":["nonSeqFull","nonSeqPartial","seqNoFeedback","seqFeedback"],"classroomPairings":[["A","B"],["C","D"]],"coinWeights":[0.2,0.5,0.8],"subjectId":"AKSJ3C5O3V9RB","assignmentId":"3KGTPGBS6Y7YQNW5B9MGXN6W1PSU2A","hitId":"3JGHED38EDDK7DFM0KVY7GXU94LY7W","url":"https://gershmanlab.com/experiments/alicia/teaching/experiment/?hitId=3JGHED38EDDK7DFM0KVY7GXU94LY7W&workerId=AKSJ3C5O3V9RB&assignmentId=3KGTPGBS6Y7YQNW5B9MGXN6W1PSU2A&a=SPGK9&tp_a=SPGK9&b=3KGTPGBS6Y7YQNW5B9MGXN6W1PSU2A&tp_b=3KGTPGBS6Y7YQNW5B9MGXN6W1PSU2A&c=365799&tp_c=365799","heads":2,"tails":12,"studentIndex":21,"studentTrueHypers":{"a":8,"b":2},"studentGuess":0.4166666666666667,"delta":0.21666666666666667,"totalExamples":14,"bonusSoFar":1.29},{"rt":21919,"response":{"heads":"1","tails":"10"},"type":"response","condition":"seqFeedback","trueTheta":0.2,"classrooms":["C","D"],"studentTrueClassroom":"D","exampleSet":"second","trial_type":"survey-html-form","trial_index":175,"time_elapsed":5133816,"internal_node_id":"0.0-174.0-0.0","params":{"nStudents":24,"maxFlips":30,"completionMinutes":45,"basePay":8,"maxBonus":9,"perTrialBonus":0.5,"perTrialBonusThreshold":0.05,"exampleCost":0.01},"classroomParams":{"A":{"a":1,"b":4},"B":{"a":4,"b":1},"C":{"a":2,"b":8},"D":{"a":8,"b":2}},"conditions":["nonSeqFull","nonSeqPartial","seqNoFeedback","seqFeedback"],"classroomPairings":[["A","B"],["C","D"]],"coinWeights":[0.2,0.5,0.8],"subjectId":"AKSJ3C5O3V9RB","assignmentId":"3KGTPGBS6Y7YQNW5B9MGXN6W1PSU2A","hitId":"3JGHED38EDDK7DFM0KVY7GXU94LY7W","url":"https://gershmanlab.com/experiments/alicia/teaching/experiment/?hitId=3JGHED38EDDK7DFM0KVY7GXU94LY7W&workerId=AKSJ3C5O3V9RB&assignmentId=3KGTPGBS6Y7YQNW5B9MGXN6W1PSU2A&a=SPGK9&tp_a=SPGK9&b=3KGTPGBS6Y7YQNW5B9MGXN6W1PSU2A&tp_b=3KGTPGBS6Y7YQNW5B9MGXN6W1PSU2A&c=365799&tp_c=365799","firstResponseHeads":2,"firstResponseTails":12,"secondResponseHeads":1,"secondResponseTails":10,"totalHeads":3,"totalTails":22,"studentIndex":21,"studentTrueHypers":{"a":8,"b":2},"studentGuess":0.3142857142857143,"delta":0.11428571428571427,"bonus":0,"bonusSoFar":1.29,"totalExamples":25},{"rt":81528,"response":{"heads":"6","tails":"19"},"type":"response","condition":"nonSeqFull","trueTheta":0.5,"classrooms":["A","B"],"studentTrueClassroom":"B","exampleSet":"first","trial_type":"survey-html-form","trial_index":181,"time_elapsed":5227952,"internal_node_id":"0.0-180.0-0.0","params":{"nStudents":24,"maxFlips":30,"completionMinutes":45,"basePay":8,"maxBonus":9,"perTrialBonus":0.5,"perTrialBonusThreshold":0.05,"exampleCost":0.01},"classroomParams":{"A":{"a":1,"b":4},"B":{"a":4,"b":1},"C":{"a":2,"b":8},"D":{"a":8,"b":2}},"conditions":["nonSeqFull","nonSeqPartial","seqNoFeedback","seqFeedback"],"classroomPairings":[["A","B"],["C","D"]],"coinWeights":[0.2,0.5,0.8],"subjectId":"AKSJ3C5O3V9RB","assignmentId":"3KGTPGBS6Y7YQNW5B9MGXN6W1PSU2A","hitId":"3JGHED38EDDK7DFM0KVY7GXU94LY7W","url":"https://gershmanlab.com/experiments/alicia/teaching/experiment/?hitId=3JGHED38EDDK7DFM0KVY7GXU94LY7W&workerId=AKSJ3C5O3V9RB&assignmentId=3KGTPGBS6Y7YQNW5B9MGXN6W1PSU2A&a=SPGK9&tp_a=SPGK9&b=3KGTPGBS6Y7YQNW5B9MGXN6W1PSU2A&tp_b=3KGTPGBS6Y7YQNW5B9MGXN6W1PSU2A&c=365799&tp_c=365799","heads":6,"tails":19,"studentIndex":22,"studentTrueHypers":{"a":4,"b":1},"studentGuess":0.3333333333333333,"delta":0.16666666666666669,"totalExamples":25,"bonus":0,"bonusSoFar":1.29},{"rt":30240,"response":{"heads":"2","tails":"10"},"type":"response","condition":"nonSeqPartial","trueTheta":0.2,"classrooms":["A","B"],"studentTrueClassroom":"B","exampleSet":"first","trial_type":"survey-html-form","trial_index":187,"time_elapsed":5274757,"internal_node_id":"0.0-186.0-0.0","params":{"nStudents":24,"maxFlips":30,"completionMinutes":45,"basePay":8,"maxBonus":9,"perTrialBonus":0.5,"perTrialBonusThreshold":0.05,"exampleCost":0.01},"classroomParams":{"A":{"a":1,"b":4},"B":{"a":4,"b":1},"C":{"a":2,"b":8},"D":{"a":8,"b":2}},"conditions":["nonSeqFull","nonSeqPartial","seqNoFeedback","seqFeedback"],"classroomPairings":[["A","B"],["C","D"]],"coinWeights":[0.2,0.5,0.8],"subjectId":"AKSJ3C5O3V9RB","assignmentId":"3KGTPGBS6Y7YQNW5B9MGXN6W1PSU2A","hitId":"3JGHED38EDDK7DFM0KVY7GXU94LY7W","url":"https://gershmanlab.com/experiments/alicia/teaching/experiment/?hitId=3JGHED38EDDK7DFM0KVY7GXU94LY7W&workerId=AKSJ3C5O3V9RB&assignmentId=3KGTPGBS6Y7YQNW5B9MGXN6W1PSU2A&a=SPGK9&tp_a=SPGK9&b=3KGTPGBS6Y7YQNW5B9MGXN6W1PSU2A&tp_b=3KGTPGBS6Y7YQNW5B9MGXN6W1PSU2A&c=365799&tp_c=365799","heads":2,"tails":10,"studentIndex":23,"studentTrueHypers":{"a":4,"b":1},"studentGuess":0.35294117647058826,"delta":0.15294117647058825,"totalExamples":12,"bonus":0,"bonusSoFar":1.29},{"rt":7001,"response":{"gender":"female","age":"24","understood":"yes","comments":""},"type":"response","trial_type":"survey-html-form","trial_index":191,"time_elapsed":5290800,"internal_node_id":"0.0-191.0","params":{"nStudents":24,"maxFlips":30,"completionMinutes":45,"basePay":8,"maxBonus":9,"perTrialBonus":0.5,"perTrialBonusThreshold":0.05,"exampleCost":0.01},"classroomParams":{"A":{"a":1,"b":4},"B":{"a":4,"b":1},"C":{"a":2,"b":8},"D":{"a":8,"b":2}},"conditions":["nonSeqFull","nonSeqPartial","seqNoFeedback","seqFeedback"],"classroomPairings":[["A","B"],["C","D"]],"coinWeights":[0.2,0.5,0.8],"subjectId":"AKSJ3C5O3V9RB","assignmentId":"3KGTPGBS6Y7YQNW5B9MGXN6W1PSU2A","hitId":"3JGHED38EDDK7DFM0KVY7GXU94LY7W","url":"https://gershmanlab.com/experiments/alicia/teaching/experiment/?hitId=3JGHED38EDDK7DFM0KVY7GXU94LY7W&workerId=AKSJ3C5O3V9RB&assignmentId=3KGTPGBS6Y7YQNW5B9MGXN6W1PSU2A&a=SPGK9&tp_a=SPGK9&b=3KGTPGBS6Y7YQNW5B9MGXN6W1PSU2A&tp_b=3KGTPGBS6Y7YQNW5B9MGXN6W1PSU2A&c=365799&tp_c=365799","totalBonus":1.29}]