[{"rt":165188,"response":{"heads":"3","tails":"3"},"type":"response","condition":"nonSeqPartial","trueTheta":0.5,"classrooms":["C","D"],"studentTrueClassroom":"C","exampleSet":"first","trial_type":"survey-html-form","trial_index":43,"time_elapsed":2787923,"internal_node_id":"0.0-6.0-0.0","params":{"nStudents":24,"maxFlips":30,"completionMinutes":45,"basePay":8,"maxBonus":9,"perTrialBonus":0.5,"perTrialBonusThreshold":0.05,"exampleCost":0.01},"classroomParams":{"A":{"a":1,"b":4},"B":{"a":4,"b":1},"C":{"a":2,"b":8},"D":{"a":8,"b":2}},"conditions":["nonSeqFull","nonSeqPartial","seqNoFeedback","seqFeedback"],"classroomPairings":[["A","B"],["C","D"]],"coinWeights":[0.2,0.5,0.8],"subjectId":"AKZD89B2WLSX7","assignmentId":"31LVTDXBL8WCBHQWHL9G78IL0QFRLS","hitId":"3Z3R5YC0P3915KVY8X6BNRIWSQNFTT","url":"https://gershmanlab.com/experiments/alicia/teaching/experiment/?hitId=3Z3R5YC0P3915KVY8X6BNRIWSQNFTT&workerId=AKZD89B2WLSX7&assignmentId=31LVTDXBL8WCBHQWHL9G78IL0QFRLS&a=BTL19&tp_a=BTL19&b=31LVTDXBL8WCBHQWHL9G78IL0QFRLS&tp_b=31LVTDXBL8WCBHQWHL9G78IL0QFRLS&c=365799&tp_c=365799","heads":3,"tails":3,"studentIndex":0,"studentTrueHypers":{"a":2,"b":8},"studentGuess":0.3125,"delta":0.1875,"totalExamples":6,"bonus":0,"bonusSoFar":0},{"rt":13616,"response":{"heads":"1","tails":"1"},"type":"response","condition":"seqNoFeedback","trueTheta":0.2,"classrooms":["C","D"],"studentTrueClassroom":"C","exampleSet":"first","trial_type":"survey-html-form","trial_index":49,"time_elapsed":2855265,"internal_node_id":"0.0-12.0-0.0","params":{"nStudents":24,"maxFlips":30,"completionMinutes":45,"basePay":8,"maxBonus":9,"perTrialBonus":0.5,"perTrialBonusThreshold":0.05,"exampleCost":0.01},"classroomParams":{"A":{"a":1,"b":4},"B":{"a":4,"b":1},"C":{"a":2,"b":8},"D":{"a":8,"b":2}},"conditions":["nonSeqFull","nonSeqPartial","seqNoFeedback","seqFeedback"],"classroomPairings":[["A","B"],["C","D"]],"coinWeights":[0.2,0.5,0.8],"subjectId":"AKZD89B2WLSX7","assignmentId":"31LVTDXBL8WCBHQWHL9G78IL0QFRLS","hitId":"3Z3R5YC0P3915KVY8X6BNRIWSQNFTT","url":"https://gershmanlab.com/experiments/alicia/teaching/experiment/?hitId=3Z3R5YC0P3915KVY8X6BNRIWSQNFTT&workerId=AKZD89B2WLSX7&assignmentId=31LVTDXBL8WCBHQWHL9G78IL0QFRLS&a=BTL19&tp_a=BTL19&b=31LVTDXBL8WCBHQWHL9G78IL0QFRLS&tp_b=31LVTDXBL8WCBHQWHL9G78IL0QFRLS&c=365799&tp_c=365799","heads":1,"tails":1,"studentIndex":1,"studentTrueHypers":{"a":2,"b":8},"studentGuess":0.25,"delta":0.04999999999999999,"totalExamples":2,"bonusSoFar":0},{"rt":36489,"response":{"heads":"4","tails":"4"},"type":"response","condition":"seqNoFeedback","trueTheta":0.2,"classrooms":["C","D"],"studentTrueClassroom":"C","exampleSet":"second","trial_type":"survey-html-form","trial_index":52,"time_elapsed":2899035,"internal_node_id":"0.0-15.0-0.0","params":{"nStudents":24,"maxFlips":30,"completionMinutes":45,"basePay":8,"maxBonus":9,"perTrialBonus":0.5,"perTrialBonusThreshold":0.05,"exampleCost":0.01},"classroomParams":{"A":{"a":1,"b":4},"B":{"a":4,"b":1},"C":{"a":2,"b":8},"D":{"a":8,"b":2}},"conditions":["nonSeqFull","nonSeqPartial","seqNoFeedback","seqFeedback"],"classroomPairings":[["A","B"],["C","D"]],"coinWeights":[0.2,0.5,0.8],"subjectId":"AKZD89B2WLSX7","assignmentId":"31LVTDXBL8WCBHQWHL9G78IL0QFRLS","hitId":"3Z3R5YC0P3915KVY8X6BNRIWSQNFTT","url":"https://gershmanlab.com/experiments/alicia/teaching/experiment/?hitId=3Z3R5YC0P3915KVY8X6BNRIWSQNFTT&workerId=AKZD89B2WLSX7&assignmentId=31LVTDXBL8WCBHQWHL9G78IL0QFRLS&a=BTL19&tp_a=BTL19&b=31LVTDXBL8WCBHQWHL9G78IL0QFRLS&tp_b=31LVTDXBL8WCBHQWHL9G78IL0QFRLS&c=365799&tp_c=365799","firstResponseHeads":1,"firstResponseTails":1,"secondResponseHeads":4,"secondResponseTails":4,"totalHeads":5,"totalTails":5,"studentIndex":1,"studentTrueHypers":{"a":2,"b":8},"studentGuess":0.35,"delta":0.14999999999999997,"bonus":0,"bonusSoFar":0,"totalExamples":10},{"rt":20306,"response":{"heads":"4","tails":"1"},"type":"response","condition":"nonSeqFull","trueTheta":0.8,"classrooms":["A","B"],"studentTrueClassroom":"B","exampleSet":"first","trial_type":"survey-html-form","trial_index":58,"time_elapsed":2970402,"internal_node_id":"0.0-21.0-0.0","params":{"nStudents":24,"maxFlips":30,"completionMinutes":45,"basePay":8,"maxBonus":9,"perTrialBonus":0.5,"perTrialBonusThreshold":0.05,"exampleCost":0.01},"classroomParams":{"A":{"a":1,"b":4},"B":{"a":4,"b":1},"C":{"a":2,"b":8},"D":{"a":8,"b":2}},"conditions":["nonSeqFull","nonSeqPartial","seqNoFeedback","seqFeedback"],"classroomPairings":[["A","B"],["C","D"]],"coinWeights":[0.2,0.5,0.8],"subjectId":"AKZD89B2WLSX7","assignmentId":"31LVTDXBL8WCBHQWHL9G78IL0QFRLS","hitId":"3Z3R5YC0P3915KVY8X6BNRIWSQNFTT","url":"https://gershmanlab.com/experiments/alicia/teaching/experiment/?hitId=3Z3R5YC0P3915KVY8X6BNRIWSQNFTT&workerId=AKZD89B2WLSX7&assignmentId=31LVTDXBL8WCBHQWHL9G78IL0QFRLS&a=BTL19&tp_a=BTL19&b=31LVTDXBL8WCBHQWHL9G78IL0QFRLS&tp_b=31LVTDXBL8WCBHQWHL9G78IL0QFRLS&c=365799&tp_c=365799","heads":4,"tails":1,"studentIndex":2,"studentTrueHypers":{"a":4,"b":1},"studentGuess":0.8,"delta":0,"totalExamples":5,"bonus":0.45,"bonusSoFar":0.45},{"rt":21458,"response":{"heads":"10","tails":"10"},"type":"response","condition":"seqNoFeedback","trueTheta":0.5,"classrooms":["C","D"],"studentTrueClassroom":"C","exampleSet":"first","trial_type":"survey-html-form","trial_index":64,"time_elapsed":3027032,"internal_node_id":"0.0-27.0-0.0","params":{"nStudents":24,"maxFlips":30,"completionMinutes":45,"basePay":8,"maxBonus":9,"perTrialBonus":0.5,"perTrialBonusThreshold":0.05,"exampleCost":0.01},"classroomParams":{"A":{"a":1,"b":4},"B":{"a":4,"b":1},"C":{"a":2,"b":8},"D":{"a":8,"b":2}},"conditions":["nonSeqFull","nonSeqPartial","seqNoFeedback","seqFeedback"],"classroomPairings":[["A","B"],["C","D"]],"coinWeights":[0.2,0.5,0.8],"subjectId":"AKZD89B2WLSX7","assignmentId":"31LVTDXBL8WCBHQWHL9G78IL0QFRLS","hitId":"3Z3R5YC0P3915KVY8X6BNRIWSQNFTT","url":"https://gershmanlab.com/experiments/alicia/teaching/experiment/?hitId=3Z3R5YC0P3915KVY8X6BNRIWSQNFTT&workerId=AKZD89B2WLSX7&assignmentId=31LVTDXBL8WCBHQWHL9G78IL0QFRLS&a=BTL19&tp_a=BTL19&b=31LVTDXBL8WCBHQWHL9G78IL0QFRLS&tp_b=31LVTDXBL8WCBHQWHL9G78IL0QFRLS&c=365799&tp_c=365799","heads":10,"tails":10,"studentIndex":3,"studentTrueHypers":{"a":2,"b":8},"studentGuess":0.4,"delta":0.09999999999999998,"totalExamples":20,"bonusSoFar":0.45},{"rt":23130,"response":{"heads":"10","tails":"10"},"type":"response","condition":"seqNoFeedback","trueTheta":0.5,"classrooms":["C","D"],"studentTrueClassroom":"C","exampleSet":"second","trial_type":"survey-html-form","trial_index":67,"time_elapsed":3057178,"internal_node_id":"0.0-30.0-0.0","params":{"nStudents":24,"maxFlips":30,"completionMinutes":45,"basePay":8,"maxBonus":9,"perTrialBonus":0.5,"perTrialBonusThreshold":0.05,"exampleCost":0.01},"classroomParams":{"A":{"a":1,"b":4},"B":{"a":4,"b":1},"C":{"a":2,"b":8},"D":{"a":8,"b":2}},"conditions":["nonSeqFull","nonSeqPartial","seqNoFeedback","seqFeedback"],"classroomPairings":[["A","B"],["C","D"]],"coinWeights":[0.2,0.5,0.8],"subjectId":"AKZD89B2WLSX7","assignmentId":"31LVTDXBL8WCBHQWHL9G78IL0QFRLS","hitId":"3Z3R5YC0P3915KVY8X6BNRIWSQNFTT","url":"https://gershmanlab.com/experiments/alicia/teaching/experiment/?hitId=3Z3R5YC0P3915KVY8X6BNRIWSQNFTT&workerId=AKZD89B2WLSX7&assignmentId=31LVTDXBL8WCBHQWHL9G78IL0QFRLS&a=BTL19&tp_a=BTL19&b=31LVTDXBL8WCBHQWHL9G78IL0QFRLS&tp_b=31LVTDXBL8WCBHQWHL9G78IL0QFRLS&c=365799&tp_c=365799","firstResponseHeads":10,"firstResponseTails":10,"secondResponseHeads":10,"secondResponseTails":10,"totalHeads":20,"totalTails":20,"studentIndex":3,"studentTrueHypers":{"a":2,"b":8},"studentGuess":0.44,"delta":0.06,"bonus":0,"bonusSoFar":0.45,"totalExamples":40},{"rt":63716,"response":{"heads":"4","tails":"1"},"type":"response","condition":"seqFeedback","trueTheta":0.8,"classrooms":["A","B"],"studentTrueClassroom":"B","exampleSet":"first","trial_type":"survey-html-form","trial_index":73,"time_elapsed":3174589,"internal_node_id":"0.0-36.0-0.0","params":{"nStudents":24,"maxFlips":30,"completionMinutes":45,"basePay":8,"maxBonus":9,"perTrialBonus":0.5,"perTrialBonusThreshold":0.05,"exampleCost":0.01},"classroomParams":{"A":{"a":1,"b":4},"B":{"a":4,"b":1},"C":{"a":2,"b":8},"D":{"a":8,"b":2}},"conditions":["nonSeqFull","nonSeqPartial","seqNoFeedback","seqFeedback"],"classroomPairings":[["A","B"],["C","D"]],"coinWeights":[0.2,0.5,0.8],"subjectId":"AKZD89B2WLSX7","assignmentId":"31LVTDXBL8WCBHQWHL9G78IL0QFRLS","hitId":"3Z3R5YC0P3915KVY8X6BNRIWSQNFTT","url":"https://gershmanlab.com/experiments/alicia/teaching/experiment/?hitId=3Z3R5YC0P3915KVY8X6BNRIWSQNFTT&workerId=AKZD89B2WLSX7&assignmentId=31LVTDXBL8WCBHQWHL9G78IL0QFRLS&a=BTL19&tp_a=BTL19&b=31LVTDXBL8WCBHQWHL9G78IL0QFRLS&tp_b=31LVTDXBL8WCBHQWHL9G78IL0QFRLS&c=365799&tp_c=365799","heads":4,"tails":1,"studentIndex":4,"studentTrueHypers":{"a":4,"b":1},"studentGuess":0.8,"delta":0,"totalExamples":5,"bonusSoFar":0.45},{"rt":18133,"response":{"heads":"5","tails":"5"},"type":"response","condition":"seqFeedback","trueTheta":0.8,"classrooms":["A","B"],"studentTrueClassroom":"B","exampleSet":"second","trial_type":"survey-html-form","trial_index":77,"time_elapsed":3211946,"internal_node_id":"0.0-40.0-0.0","params":{"nStudents":24,"maxFlips":30,"completionMinutes":45,"basePay":8,"maxBonus":9,"perTrialBonus":0.5,"perTrialBonusThreshold":0.05,"exampleCost":0.01},"classroomParams":{"A":{"a":1,"b":4},"B":{"a":4,"b":1},"C":{"a":2,"b":8},"D":{"a":8,"b":2}},"conditions":["nonSeqFull","nonSeqPartial","seqNoFeedback","seqFeedback"],"classroomPairings":[["A","B"],["C","D"]],"coinWeights":[0.2,0.5,0.8],"subjectId":"AKZD89B2WLSX7","assignmentId":"31LVTDXBL8WCBHQWHL9G78IL0QFRLS","hitId":"3Z3R5YC0P3915KVY8X6BNRIWSQNFTT","url":"https://gershmanlab.com/experiments/alicia/teaching/experiment/?hitId=3Z3R5YC0P3915KVY8X6BNRIWSQNFTT&workerId=AKZD89B2WLSX7&assignmentId=31LVTDXBL8WCBHQWHL9G78IL0QFRLS&a=BTL19&tp_a=BTL19&b=31LVTDXBL8WCBHQWHL9G78IL0QFRLS&tp_b=31LVTDXBL8WCBHQWHL9G78IL0QFRLS&c=365799&tp_c=365799","firstResponseHeads":4,"firstResponseTails":1,"secondResponseHeads":5,"secondResponseTails":5,"totalHeads":9,"totalTails":6,"studentIndex":4,"studentTrueHypers":{"a":4,"b":1},"studentGuess":0.65,"delta":0.15000000000000002,"bonus":0,"bonusSoFar":0.45,"totalExamples":15},{"rt":55184,"response":{"heads":"5","tails":"5"},"type":"response","condition":"seqFeedback","trueTheta":0.5,"classrooms":["A","B"],"studentTrueClassroom":"A","exampleSet":"first","trial_type":"survey-html-form","trial_index":83,"time_elapsed":3301298,"internal_node_id":"0.0-46.0-0.0","params":{"nStudents":24,"maxFlips":30,"completionMinutes":45,"basePay":8,"maxBonus":9,"perTrialBonus":0.5,"perTrialBonusThreshold":0.05,"exampleCost":0.01},"classroomParams":{"A":{"a":1,"b":4},"B":{"a":4,"b":1},"C":{"a":2,"b":8},"D":{"a":8,"b":2}},"conditions":["nonSeqFull","nonSeqPartial","seqNoFeedback","seqFeedback"],"classroomPairings":[["A","B"],["C","D"]],"coinWeights":[0.2,0.5,0.8],"subjectId":"AKZD89B2WLSX7","assignmentId":"31LVTDXBL8WCBHQWHL9G78IL0QFRLS","hitId":"3Z3R5YC0P3915KVY8X6BNRIWSQNFTT","url":"https://gershmanlab.com/experiments/alicia/teaching/experiment/?hitId=3Z3R5YC0P3915KVY8X6BNRIWSQNFTT&workerId=AKZD89B2WLSX7&assignmentId=31LVTDXBL8WCBHQWHL9G78IL0QFRLS&a=BTL19&tp_a=BTL19&b=31LVTDXBL8WCBHQWHL9G78IL0QFRLS&tp_b=31LVTDXBL8WCBHQWHL9G78IL0QFRLS&c=365799&tp_c=365799","heads":5,"tails":5,"studentIndex":5,"studentTrueHypers":{"a":1,"b":4},"studentGuess":0.4,"delta":0.09999999999999998,"totalExamples":10,"bonusSoFar":0.45},{"rt":28907,"response":{"heads":"5","tails":"5"},"type":"response","condition":"seqFeedback","trueTheta":0.5,"classrooms":["A","B"],"studentTrueClassroom":"A","exampleSet":"second","trial_type":"survey-html-form","trial_index":87,"time_elapsed":3343304,"internal_node_id":"0.0-50.0-0.0","params":{"nStudents":24,"maxFlips":30,"completionMinutes":45,"basePay":8,"maxBonus":9,"perTrialBonus":0.5,"perTrialBonusThreshold":0.05,"exampleCost":0.01},"classroomParams":{"A":{"a":1,"b":4},"B":{"a":4,"b":1},"C":{"a":2,"b":8},"D":{"a":8,"b":2}},"conditions":["nonSeqFull","nonSeqPartial","seqNoFeedback","seqFeedback"],"classroomPairings":[["A","B"],["C","D"]],"coinWeights":[0.2,0.5,0.8],"subjectId":"AKZD89B2WLSX7","assignmentId":"31LVTDXBL8WCBHQWHL9G78IL0QFRLS","hitId":"3Z3R5YC0P3915KVY8X6BNRIWSQNFTT","url":"https://gershmanlab.com/experiments/alicia/teaching/experiment/?hitId=3Z3R5YC0P3915KVY8X6BNRIWSQNFTT&workerId=AKZD89B2WLSX7&assignmentId=31LVTDXBL8WCBHQWHL9G78IL0QFRLS&a=BTL19&tp_a=BTL19&b=31LVTDXBL8WCBHQWHL9G78IL0QFRLS&tp_b=31LVTDXBL8WCBHQWHL9G78IL0QFRLS&c=365799&tp_c=365799","firstResponseHeads":5,"firstResponseTails":5,"secondResponseHeads":5,"secondResponseTails":5,"totalHeads":10,"totalTails":10,"studentIndex":5,"studentTrueHypers":{"a":1,"b":4},"studentGuess":0.44,"delta":0.06,"bonus":0,"bonusSoFar":0.45,"totalExamples":20},{"rt":28488,"response":{"heads":"10","tails":"10"},"type":"response","condition":"nonSeqPartial","trueTheta":0.2,"classrooms":["C","D"],"studentTrueClassroom":"C","exampleSet":"first","trial_type":"survey-html-form","trial_index":93,"time_elapsed":3417301,"internal_node_id":"0.0-56.0-0.0","params":{"nStudents":24,"maxFlips":30,"completionMinutes":45,"basePay":8,"maxBonus":9,"perTrialBonus":0.5,"perTrialBonusThreshold":0.05,"exampleCost":0.01},"classroomParams":{"A":{"a":1,"b":4},"B":{"a":4,"b":1},"C":{"a":2,"b":8},"D":{"a":8,"b":2}},"conditions":["nonSeqFull","nonSeqPartial","seqNoFeedback","seqFeedback"],"classroomPairings":[["A","B"],["C","D"]],"coinWeights":[0.2,0.5,0.8],"subjectId":"AKZD89B2WLSX7","assignmentId":"31LVTDXBL8WCBHQWHL9G78IL0QFRLS","hitId":"3Z3R5YC0P3915KVY8X6BNRIWSQNFTT","url":"https://gershmanlab.com/experiments/alicia/teaching/experiment/?hitId=3Z3R5YC0P3915KVY8X6BNRIWSQNFTT&workerId=AKZD89B2WLSX7&assignmentId=31LVTDXBL8WCBHQWHL9G78IL0QFRLS&a=BTL19&tp_a=BTL19&b=31LVTDXBL8WCBHQWHL9G78IL0QFRLS&tp_b=31LVTDXBL8WCBHQWHL9G78IL0QFRLS&c=365799&tp_c=365799","heads":10,"tails":10,"studentIndex":6,"studentTrueHypers":{"a":2,"b":8},"studentGuess":0.4,"delta":0.2,"totalExamples":20,"bonus":0,"bonusSoFar":0.45},{"rt":36674,"response":{"heads":"2","tails":"8"},"type":"response","condition":"nonSeqFull","trueTheta":0.2,"classrooms":["C","D"],"studentTrueClassroom":"D","exampleSet":"first","trial_type":"survey-html-form","trial_index":99,"time_elapsed":3483358,"internal_node_id":"0.0-62.0-0.0","params":{"nStudents":24,"maxFlips":30,"completionMinutes":45,"basePay":8,"maxBonus":9,"perTrialBonus":0.5,"perTrialBonusThreshold":0.05,"exampleCost":0.01},"classroomParams":{"A":{"a":1,"b":4},"B":{"a":4,"b":1},"C":{"a":2,"b":8},"D":{"a":8,"b":2}},"conditions":["nonSeqFull","nonSeqPartial","seqNoFeedback","seqFeedback"],"classroomPairings":[["A","B"],["C","D"]],"coinWeights":[0.2,0.5,0.8],"subjectId":"AKZD89B2WLSX7","assignmentId":"31LVTDXBL8WCBHQWHL9G78IL0QFRLS","hitId":"3Z3R5YC0P3915KVY8X6BNRIWSQNFTT","url":"https://gershmanlab.com/experiments/alicia/teaching/experiment/?hitId=3Z3R5YC0P3915KVY8X6BNRIWSQNFTT&workerId=AKZD89B2WLSX7&assignmentId=31LVTDXBL8WCBHQWHL9G78IL0QFRLS&a=BTL19&tp_a=BTL19&b=31LVTDXBL8WCBHQWHL9G78IL0QFRLS&tp_b=31LVTDXBL8WCBHQWHL9G78IL0QFRLS&c=365799&tp_c=365799","heads":2,"tails":8,"studentIndex":7,"studentTrueHypers":{"a":8,"b":2},"studentGuess":0.5,"delta":0.3,"totalExamples":10,"bonus":0,"bonusSoFar":0.45},{"rt":23014,"response":{"heads":"2","tails":"2"},"type":"response","condition":"seqFeedback","trueTheta":0.2,"classrooms":["C","D"],"studentTrueClassroom":"D","exampleSet":"first","trial_type":"survey-html-form","trial_index":105,"time_elapsed":3535839,"internal_node_id":"0.0-68.0-0.0","params":{"nStudents":24,"maxFlips":30,"completionMinutes":45,"basePay":8,"maxBonus":9,"perTrialBonus":0.5,"perTrialBonusThreshold":0.05,"exampleCost":0.01},"classroomParams":{"A":{"a":1,"b":4},"B":{"a":4,"b":1},"C":{"a":2,"b":8},"D":{"a":8,"b":2}},"conditions":["nonSeqFull","nonSeqPartial","seqNoFeedback","seqFeedback"],"classroomPairings":[["A","B"],["C","D"]],"coinWeights":[0.2,0.5,0.8],"subjectId":"AKZD89B2WLSX7","assignmentId":"31LVTDXBL8WCBHQWHL9G78IL0QFRLS","hitId":"3Z3R5YC0P3915KVY8X6BNRIWSQNFTT","url":"https://gershmanlab.com/experiments/alicia/teaching/experiment/?hitId=3Z3R5YC0P3915KVY8X6BNRIWSQNFTT&workerId=AKZD89B2WLSX7&assignmentId=31LVTDXBL8WCBHQWHL9G78IL0QFRLS&a=BTL19&tp_a=BTL19&b=31LVTDXBL8WCBHQWHL9G78IL0QFRLS&tp_b=31LVTDXBL8WCBHQWHL9G78IL0QFRLS&c=365799&tp_c=365799","heads":2,"tails":2,"studentIndex":8,"studentTrueHypers":{"a":8,"b":2},"studentGuess":0.7142857142857143,"delta":0.5142857142857142,"totalExamples":4,"bonusSoFar":0.45},{"rt":45503,"response":{"heads":"6","tails":"4"},"type":"response","condition":"seqFeedback","trueTheta":0.2,"classrooms":["C","D"],"studentTrueClassroom":"D","exampleSet":"second","trial_type":"survey-html-form","trial_index":109,"time_elapsed":3596644,"internal_node_id":"0.0-72.0-0.0","params":{"nStudents":24,"maxFlips":30,"completionMinutes":45,"basePay":8,"maxBonus":9,"perTrialBonus":0.5,"perTrialBonusThreshold":0.05,"exampleCost":0.01},"classroomParams":{"A":{"a":1,"b":4},"B":{"a":4,"b":1},"C":{"a":2,"b":8},"D":{"a":8,"b":2}},"conditions":["nonSeqFull","nonSeqPartial","seqNoFeedback","seqFeedback"],"classroomPairings":[["A","B"],["C","D"]],"coinWeights":[0.2,0.5,0.8],"subjectId":"AKZD89B2WLSX7","assignmentId":"31LVTDXBL8WCBHQWHL9G78IL0QFRLS","hitId":"3Z3R5YC0P3915KVY8X6BNRIWSQNFTT","url":"https://gershmanlab.com/experiments/alicia/teaching/experiment/?hitId=3Z3R5YC0P3915KVY8X6BNRIWSQNFTT&workerId=AKZD89B2WLSX7&assignmentId=31LVTDXBL8WCBHQWHL9G78IL0QFRLS&a=BTL19&tp_a=BTL19&b=31LVTDXBL8WCBHQWHL9G78IL0QFRLS&tp_b=31LVTDXBL8WCBHQWHL9G78IL0QFRLS&c=365799&tp_c=365799","firstResponseHeads":2,"firstResponseTails":2,"secondResponseHeads":6,"secondResponseTails":4,"totalHeads":8,"totalTails":6,"studentIndex":8,"studentTrueHypers":{"a":8,"b":2},"studentGuess":0.6666666666666666,"delta":0.4666666666666666,"bonus":0,"bonusSoFar":0.45,"totalExamples":14},{"rt":37154,"response":{"heads":"4","tails":"3"},"type":"response","condition":"seqFeedback","trueTheta":0.2,"classrooms":["A","B"],"studentTrueClassroom":"B","exampleSet":"first","trial_type":"survey-html-form","trial_index":115,"time_elapsed":3700067,"internal_node_id":"0.0-78.0-0.0","params":{"nStudents":24,"maxFlips":30,"completionMinutes":45,"basePay":8,"maxBonus":9,"perTrialBonus":0.5,"perTrialBonusThreshold":0.05,"exampleCost":0.01},"classroomParams":{"A":{"a":1,"b":4},"B":{"a":4,"b":1},"C":{"a":2,"b":8},"D":{"a":8,"b":2}},"conditions":["nonSeqFull","nonSeqPartial","seqNoFeedback","seqFeedback"],"classroomPairings":[["A","B"],["C","D"]],"coinWeights":[0.2,0.5,0.8],"subjectId":"AKZD89B2WLSX7","assignmentId":"31LVTDXBL8WCBHQWHL9G78IL0QFRLS","hitId":"3Z3R5YC0P3915KVY8X6BNRIWSQNFTT","url":"https://gershmanlab.com/experiments/alicia/teaching/experiment/?hitId=3Z3R5YC0P3915KVY8X6BNRIWSQNFTT&workerId=AKZD89B2WLSX7&assignmentId=31LVTDXBL8WCBHQWHL9G78IL0QFRLS&a=BTL19&tp_a=BTL19&b=31LVTDXBL8WCBHQWHL9G78IL0QFRLS&tp_b=31LVTDXBL8WCBHQWHL9G78IL0QFRLS&c=365799&tp_c=365799","heads":4,"tails":3,"studentIndex":9,"studentTrueHypers":{"a":4,"b":1},"studentGuess":0.6666666666666666,"delta":0.4666666666666666,"totalExamples":7,"bonusSoFar":0.45},{"rt":6791,"response":{"heads":"1","tails":"1"},"type":"response","condition":"seqFeedback","trueTheta":0.2,"classrooms":["A","B"],"studentTrueClassroom":"B","exampleSet":"second","trial_type":"survey-html-form","trial_index":119,"time_elapsed":3717858,"internal_node_id":"0.0-82.0-0.0","params":{"nStudents":24,"maxFlips":30,"completionMinutes":45,"basePay":8,"maxBonus":9,"perTrialBonus":0.5,"perTrialBonusThreshold":0.05,"exampleCost":0.01},"classroomParams":{"A":{"a":1,"b":4},"B":{"a":4,"b":1},"C":{"a":2,"b":8},"D":{"a":8,"b":2}},"conditions":["nonSeqFull","nonSeqPartial","seqNoFeedback","seqFeedback"],"classroomPairings":[["A","B"],["C","D"]],"coinWeights":[0.2,0.5,0.8],"subjectId":"AKZD89B2WLSX7","assignmentId":"31LVTDXBL8WCBHQWHL9G78IL0QFRLS","hitId":"3Z3R5YC0P3915KVY8X6BNRIWSQNFTT","url":"https://gershmanlab.com/experiments/alicia/teaching/experiment/?hitId=3Z3R5YC0P3915KVY8X6BNRIWSQNFTT&workerId=AKZD89B2WLSX7&assignmentId=31LVTDXBL8WCBHQWHL9G78IL0QFRLS&a=BTL19&tp_a=BTL19&b=31LVTDXBL8WCBHQWHL9G78IL0QFRLS&tp_b=31LVTDXBL8WCBHQWHL9G78IL0QFRLS&c=365799&tp_c=365799","firstResponseHeads":4,"firstResponseTails":3,"secondResponseHeads":1,"secondResponseTails":1,"totalHeads":5,"totalTails":4,"studentIndex":9,"studentTrueHypers":{"a":4,"b":1},"studentGuess":0.6428571428571429,"delta":0.4428571428571429,"bonus":0,"bonusSoFar":0.45,"totalExamples":9},{"rt":29100,"response":{"heads":"5","tails":"6"},"type":"response","condition":"seqNoFeedback","trueTheta":0.2,"classrooms":["A","B"],"studentTrueClassroom":"A","exampleSet":"first","trial_type":"survey-html-form","trial_index":125,"time_elapsed":3772050,"internal_node_id":"0.0-88.0-0.0","params":{"nStudents":24,"maxFlips":30,"completionMinutes":45,"basePay":8,"maxBonus":9,"perTrialBonus":0.5,"perTrialBonusThreshold":0.05,"exampleCost":0.01},"classroomParams":{"A":{"a":1,"b":4},"B":{"a":4,"b":1},"C":{"a":2,"b":8},"D":{"a":8,"b":2}},"conditions":["nonSeqFull","nonSeqPartial","seqNoFeedback","seqFeedback"],"classroomPairings":[["A","B"],["C","D"]],"coinWeights":[0.2,0.5,0.8],"subjectId":"AKZD89B2WLSX7","assignmentId":"31LVTDXBL8WCBHQWHL9G78IL0QFRLS","hitId":"3Z3R5YC0P3915KVY8X6BNRIWSQNFTT","url":"https://gershmanlab.com/experiments/alicia/teaching/experiment/?hitId=3Z3R5YC0P3915KVY8X6BNRIWSQNFTT&workerId=AKZD89B2WLSX7&assignmentId=31LVTDXBL8WCBHQWHL9G78IL0QFRLS&a=BTL19&tp_a=BTL19&b=31LVTDXBL8WCBHQWHL9G78IL0QFRLS&tp_b=31LVTDXBL8WCBHQWHL9G78IL0QFRLS&c=365799&tp_c=365799","heads":5,"tails":6,"studentIndex":10,"studentTrueHypers":{"a":1,"b":4},"studentGuess":0.375,"delta":0.175,"totalExamples":11,"bonusSoFar":0.45},{"rt":7723,"response":{"heads":"2","tails":"3"},"type":"response","condition":"seqNoFeedback","trueTheta":0.2,"classrooms":["A","B"],"studentTrueClassroom":"A","exampleSet":"second","trial_type":"survey-html-form","trial_index":128,"time_elapsed":3786791,"internal_node_id":"0.0-91.0-0.0","params":{"nStudents":24,"maxFlips":30,"completionMinutes":45,"basePay":8,"maxBonus":9,"perTrialBonus":0.5,"perTrialBonusThreshold":0.05,"exampleCost":0.01},"classroomParams":{"A":{"a":1,"b":4},"B":{"a":4,"b":1},"C":{"a":2,"b":8},"D":{"a":8,"b":2}},"conditions":["nonSeqFull","nonSeqPartial","seqNoFeedback","seqFeedback"],"classroomPairings":[["A","B"],["C","D"]],"coinWeights":[0.2,0.5,0.8],"subjectId":"AKZD89B2WLSX7","assignmentId":"31LVTDXBL8WCBHQWHL9G78IL0QFRLS","hitId":"3Z3R5YC0P3915KVY8X6BNRIWSQNFTT","url":"https://gershmanlab.com/experiments/alicia/teaching/experiment/?hitId=3Z3R5YC0P3915KVY8X6BNRIWSQNFTT&workerId=AKZD89B2WLSX7&assignmentId=31LVTDXBL8WCBHQWHL9G78IL0QFRLS&a=BTL19&tp_a=BTL19&b=31LVTDXBL8WCBHQWHL9G78IL0QFRLS&tp_b=31LVTDXBL8WCBHQWHL9G78IL0QFRLS&c=365799&tp_c=365799","firstResponseHeads":5,"firstResponseTails":6,"secondResponseHeads":2,"secondResponseTails":3,"totalHeads":7,"totalTails":9,"studentIndex":10,"studentTrueHypers":{"a":1,"b":4},"studentGuess":0.38095238095238093,"delta":0.18095238095238092,"bonus":0,"bonusSoFar":0.45,"totalExamples":16},{"rt":6847,"response":{"heads":"5","tails":"5"},"type":"response","condition":"nonSeqPartial","trueTheta":0.8,"classrooms":["A","B"],"studentTrueClassroom":"B","exampleSet":"first","trial_type":"survey-html-form","trial_index":134,"time_elapsed":3827596,"internal_node_id":"0.0-97.0-0.0","params":{"nStudents":24,"maxFlips":30,"completionMinutes":45,"basePay":8,"maxBonus":9,"perTrialBonus":0.5,"perTrialBonusThreshold":0.05,"exampleCost":0.01},"classroomParams":{"A":{"a":1,"b":4},"B":{"a":4,"b":1},"C":{"a":2,"b":8},"D":{"a":8,"b":2}},"conditions":["nonSeqFull","nonSeqPartial","seqNoFeedback","seqFeedback"],"classroomPairings":[["A","B"],["C","D"]],"coinWeights":[0.2,0.5,0.8],"subjectId":"AKZD89B2WLSX7","assignmentId":"31LVTDXBL8WCBHQWHL9G78IL0QFRLS","hitId":"3Z3R5YC0P3915KVY8X6BNRIWSQNFTT","url":"https://gershmanlab.com/experiments/alicia/teaching/experiment/?hitId=3Z3R5YC0P3915KVY8X6BNRIWSQNFTT&workerId=AKZD89B2WLSX7&assignmentId=31LVTDXBL8WCBHQWHL9G78IL0QFRLS&a=BTL19&tp_a=BTL19&b=31LVTDXBL8WCBHQWHL9G78IL0QFRLS&tp_b=31LVTDXBL8WCBHQWHL9G78IL0QFRLS&c=365799&tp_c=365799","heads":5,"tails":5,"studentIndex":11,"studentTrueHypers":{"a":4,"b":1},"studentGuess":0.6,"delta":0.20000000000000007,"totalExamples":10,"bonus":0,"bonusSoFar":0.45},{"rt":7036,"response":{"heads":"5","tails":"5"},"type":"response","condition":"seqFeedback","trueTheta":0.5,"classrooms":["C","D"],"studentTrueClassroom":"C","exampleSet":"first","trial_type":"survey-html-form","trial_index":140,"time_elapsed":3904326,"internal_node_id":"0.0-103.0-0.0","params":{"nStudents":24,"maxFlips":30,"completionMinutes":45,"basePay":8,"maxBonus":9,"perTrialBonus":0.5,"perTrialBonusThreshold":0.05,"exampleCost":0.01},"classroomParams":{"A":{"a":1,"b":4},"B":{"a":4,"b":1},"C":{"a":2,"b":8},"D":{"a":8,"b":2}},"conditions":["nonSeqFull","nonSeqPartial","seqNoFeedback","seqFeedback"],"classroomPairings":[["A","B"],["C","D"]],"coinWeights":[0.2,0.5,0.8],"subjectId":"AKZD89B2WLSX7","assignmentId":"31LVTDXBL8WCBHQWHL9G78IL0QFRLS","hitId":"3Z3R5YC0P3915KVY8X6BNRIWSQNFTT","url":"https://gershmanlab.com/experiments/alicia/teaching/experiment/?hitId=3Z3R5YC0P3915KVY8X6BNRIWSQNFTT&workerId=AKZD89B2WLSX7&assignmentId=31LVTDXBL8WCBHQWHL9G78IL0QFRLS&a=BTL19&tp_a=BTL19&b=31LVTDXBL8WCBHQWHL9G78IL0QFRLS&tp_b=31LVTDXBL8WCBHQWHL9G78IL0QFRLS&c=365799&tp_c=365799","heads":5,"tails":5,"studentIndex":12,"studentTrueHypers":{"a":2,"b":8},"studentGuess":0.35,"delta":0.15000000000000002,"totalExamples":10,"bonusSoFar":0.45},{"rt":10905,"response":{"heads":"6","tails":"6"},"type":"response","condition":"seqFeedback","trueTheta":0.5,"classrooms":["C","D"],"studentTrueClassroom":"C","exampleSet":"second","trial_type":"survey-html-form","trial_index":144,"time_elapsed":3923268,"internal_node_id":"0.0-107.0-0.0","params":{"nStudents":24,"maxFlips":30,"completionMinutes":45,"basePay":8,"maxBonus":9,"perTrialBonus":0.5,"perTrialBonusThreshold":0.05,"exampleCost":0.01},"classroomParams":{"A":{"a":1,"b":4},"B":{"a":4,"b":1},"C":{"a":2,"b":8},"D":{"a":8,"b":2}},"conditions":["nonSeqFull","nonSeqPartial","seqNoFeedback","seqFeedback"],"classroomPairings":[["A","B"],["C","D"]],"coinWeights":[0.2,0.5,0.8],"subjectId":"AKZD89B2WLSX7","assignmentId":"31LVTDXBL8WCBHQWHL9G78IL0QFRLS","hitId":"3Z3R5YC0P3915KVY8X6BNRIWSQNFTT","url":"https://gershmanlab.com/experiments/alicia/teaching/experiment/?hitId=3Z3R5YC0P3915KVY8X6BNRIWSQNFTT&workerId=AKZD89B2WLSX7&assignmentId=31LVTDXBL8WCBHQWHL9G78IL0QFRLS&a=BTL19&tp_a=BTL19&b=31LVTDXBL8WCBHQWHL9G78IL0QFRLS&tp_b=31LVTDXBL8WCBHQWHL9G78IL0QFRLS&c=365799&tp_c=365799","firstResponseHeads":5,"firstResponseTails":5,"secondResponseHeads":6,"secondResponseTails":6,"totalHeads":11,"totalTails":11,"studentIndex":12,"studentTrueHypers":{"a":2,"b":8},"studentGuess":0.40625,"delta":0.09375,"bonus":0,"bonusSoFar":0.45,"totalExamples":22},{"rt":23550,"response":{"heads":"4","tails":"4"},"type":"response","condition":"nonSeqPartial","trueTheta":0.5,"classrooms":["A","B"],"studentTrueClassroom":"B","exampleSet":"first","trial_type":"survey-html-form","trial_index":150,"time_elapsed":3976250,"internal_node_id":"0.0-113.0-0.0","params":{"nStudents":24,"maxFlips":30,"completionMinutes":45,"basePay":8,"maxBonus":9,"perTrialBonus":0.5,"perTrialBonusThreshold":0.05,"exampleCost":0.01},"classroomParams":{"A":{"a":1,"b":4},"B":{"a":4,"b":1},"C":{"a":2,"b":8},"D":{"a":8,"b":2}},"conditions":["nonSeqFull","nonSeqPartial","seqNoFeedback","seqFeedback"],"classroomPairings":[["A","B"],["C","D"]],"coinWeights":[0.2,0.5,0.8],"subjectId":"AKZD89B2WLSX7","assignmentId":"31LVTDXBL8WCBHQWHL9G78IL0QFRLS","hitId":"3Z3R5YC0P3915KVY8X6BNRIWSQNFTT","url":"https://gershmanlab.com/experiments/alicia/teaching/experiment/?hitId=3Z3R5YC0P3915KVY8X6BNRIWSQNFTT&workerId=AKZD89B2WLSX7&assignmentId=31LVTDXBL8WCBHQWHL9G78IL0QFRLS&a=BTL19&tp_a=BTL19&b=31LVTDXBL8WCBHQWHL9G78IL0QFRLS&tp_b=31LVTDXBL8WCBHQWHL9G78IL0QFRLS&c=365799&tp_c=365799","heads":4,"tails":4,"studentIndex":13,"studentTrueHypers":{"a":4,"b":1},"studentGuess":0.6153846153846154,"delta":0.11538461538461542,"totalExamples":8,"bonus":0,"bonusSoFar":0.45},{"rt":25566,"response":{"heads":"8","tails":"2"},"type":"response","condition":"nonSeqFull","trueTheta":0.5,"classrooms":["C","D"],"studentTrueClassroom":"C","exampleSet":"first","trial_type":"survey-html-form","trial_index":156,"time_elapsed":4024983,"internal_node_id":"0.0-119.0-0.0","params":{"nStudents":24,"maxFlips":30,"completionMinutes":45,"basePay":8,"maxBonus":9,"perTrialBonus":0.5,"perTrialBonusThreshold":0.05,"exampleCost":0.01},"classroomParams":{"A":{"a":1,"b":4},"B":{"a":4,"b":1},"C":{"a":2,"b":8},"D":{"a":8,"b":2}},"conditions":["nonSeqFull","nonSeqPartial","seqNoFeedback","seqFeedback"],"classroomPairings":[["A","B"],["C","D"]],"coinWeights":[0.2,0.5,0.8],"subjectId":"AKZD89B2WLSX7","assignmentId":"31LVTDXBL8WCBHQWHL9G78IL0QFRLS","hitId":"3Z3R5YC0P3915KVY8X6BNRIWSQNFTT","url":"https://gershmanlab.com/experiments/alicia/teaching/experiment/?hitId=3Z3R5YC0P3915KVY8X6BNRIWSQNFTT&workerId=AKZD89B2WLSX7&assignmentId=31LVTDXBL8WCBHQWHL9G78IL0QFRLS&a=BTL19&tp_a=BTL19&b=31LVTDXBL8WCBHQWHL9G78IL0QFRLS&tp_b=31LVTDXBL8WCBHQWHL9G78IL0QFRLS&c=365799&tp_c=365799","heads":8,"tails":2,"studentIndex":14,"studentTrueHypers":{"a":2,"b":8},"studentGuess":0.5,"delta":0,"totalExamples":10,"bonus":0.4,"bonusSoFar":0.85},{"rt":23045,"response":{"heads":"8","tails":"8"},"type":"response","condition":"nonSeqPartial","trueTheta":0.8,"classrooms":["C","D"],"studentTrueClassroom":"D","exampleSet":"first","trial_type":"survey-html-form","trial_index":162,"time_elapsed":4095005,"internal_node_id":"0.0-125.0-0.0","params":{"nStudents":24,"maxFlips":30,"completionMinutes":45,"basePay":8,"maxBonus":9,"perTrialBonus":0.5,"perTrialBonusThreshold":0.05,"exampleCost":0.01},"classroomParams":{"A":{"a":1,"b":4},"B":{"a":4,"b":1},"C":{"a":2,"b":8},"D":{"a":8,"b":2}},"conditions":["nonSeqFull","nonSeqPartial","seqNoFeedback","seqFeedback"],"classroomPairings":[["A","B"],["C","D"]],"coinWeights":[0.2,0.5,0.8],"subjectId":"AKZD89B2WLSX7","assignmentId":"31LVTDXBL8WCBHQWHL9G78IL0QFRLS","hitId":"3Z3R5YC0P3915KVY8X6BNRIWSQNFTT","url":"https://gershmanlab.com/experiments/alicia/teaching/experiment/?hitId=3Z3R5YC0P3915KVY8X6BNRIWSQNFTT&workerId=AKZD89B2WLSX7&assignmentId=31LVTDXBL8WCBHQWHL9G78IL0QFRLS&a=BTL19&tp_a=BTL19&b=31LVTDXBL8WCBHQWHL9G78IL0QFRLS&tp_b=31LVTDXBL8WCBHQWHL9G78IL0QFRLS&c=365799&tp_c=365799","heads":8,"tails":8,"studentIndex":15,"studentTrueHypers":{"a":8,"b":2},"studentGuess":0.6153846153846154,"delta":0.18461538461538463,"totalExamples":16,"bonus":0,"bonusSoFar":0.85},{"rt":14826,"response":{"heads":"11","tails":"10"},"type":"response","condition":"nonSeqFull","trueTheta":0.8,"classrooms":["C","D"],"studentTrueClassroom":"C","exampleSet":"first","trial_type":"survey-html-form","trial_index":168,"time_elapsed":4135137,"internal_node_id":"0.0-131.0-0.0","params":{"nStudents":24,"maxFlips":30,"completionMinutes":45,"basePay":8,"maxBonus":9,"perTrialBonus":0.5,"perTrialBonusThreshold":0.05,"exampleCost":0.01},"classroomParams":{"A":{"a":1,"b":4},"B":{"a":4,"b":1},"C":{"a":2,"b":8},"D":{"a":8,"b":2}},"conditions":["nonSeqFull","nonSeqPartial","seqNoFeedback","seqFeedback"],"classroomPairings":[["A","B"],["C","D"]],"coinWeights":[0.2,0.5,0.8],"subjectId":"AKZD89B2WLSX7","assignmentId":"31LVTDXBL8WCBHQWHL9G78IL0QFRLS","hitId":"3Z3R5YC0P3915KVY8X6BNRIWSQNFTT","url":"https://gershmanlab.com/experiments/alicia/teaching/experiment/?hitId=3Z3R5YC0P3915KVY8X6BNRIWSQNFTT&workerId=AKZD89B2WLSX7&assignmentId=31LVTDXBL8WCBHQWHL9G78IL0QFRLS&a=BTL19&tp_a=BTL19&b=31LVTDXBL8WCBHQWHL9G78IL0QFRLS&tp_b=31LVTDXBL8WCBHQWHL9G78IL0QFRLS&c=365799&tp_c=365799","heads":11,"tails":10,"studentIndex":16,"studentTrueHypers":{"a":2,"b":8},"studentGuess":0.41935483870967744,"delta":0.3806451612903226,"totalExamples":21,"bonus":0,"bonusSoFar":0.85},{"rt":5036,"response":{"heads":"1","tails":"1"},"type":"response","condition":"seqFeedback","trueTheta":0.8,"classrooms":["C","D"],"studentTrueClassroom":"C","exampleSet":"first","trial_type":"survey-html-form","trial_index":174,"time_elapsed":4166764,"internal_node_id":"0.0-137.0-0.0","params":{"nStudents":24,"maxFlips":30,"completionMinutes":45,"basePay":8,"maxBonus":9,"perTrialBonus":0.5,"perTrialBonusThreshold":0.05,"exampleCost":0.01},"classroomParams":{"A":{"a":1,"b":4},"B":{"a":4,"b":1},"C":{"a":2,"b":8},"D":{"a":8,"b":2}},"conditions":["nonSeqFull","nonSeqPartial","seqNoFeedback","seqFeedback"],"classroomPairings":[["A","B"],["C","D"]],"coinWeights":[0.2,0.5,0.8],"subjectId":"AKZD89B2WLSX7","assignmentId":"31LVTDXBL8WCBHQWHL9G78IL0QFRLS","hitId":"3Z3R5YC0P3915KVY8X6BNRIWSQNFTT","url":"https://gershmanlab.com/experiments/alicia/teaching/experiment/?hitId=3Z3R5YC0P3915KVY8X6BNRIWSQNFTT&workerId=AKZD89B2WLSX7&assignmentId=31LVTDXBL8WCBHQWHL9G78IL0QFRLS&a=BTL19&tp_a=BTL19&b=31LVTDXBL8WCBHQWHL9G78IL0QFRLS&tp_b=31LVTDXBL8WCBHQWHL9G78IL0QFRLS&c=365799&tp_c=365799","heads":1,"tails":1,"studentIndex":17,"studentTrueHypers":{"a":2,"b":8},"studentGuess":0.25,"delta":0.55,"totalExamples":2,"bonusSoFar":0.85},{"rt":11648,"response":{"heads":"12","tails":"13"},"type":"response","condition":"seqFeedback","trueTheta":0.8,"classrooms":["C","D"],"studentTrueClassroom":"C","exampleSet":"second","trial_type":"survey-html-form","trial_index":178,"time_elapsed":4188756,"internal_node_id":"0.0-141.0-0.0","params":{"nStudents":24,"maxFlips":30,"completionMinutes":45,"basePay":8,"maxBonus":9,"perTrialBonus":0.5,"perTrialBonusThreshold":0.05,"exampleCost":0.01},"classroomParams":{"A":{"a":1,"b":4},"B":{"a":4,"b":1},"C":{"a":2,"b":8},"D":{"a":8,"b":2}},"conditions":["nonSeqFull","nonSeqPartial","seqNoFeedback","seqFeedback"],"classroomPairings":[["A","B"],["C","D"]],"coinWeights":[0.2,0.5,0.8],"subjectId":"AKZD89B2WLSX7","assignmentId":"31LVTDXBL8WCBHQWHL9G78IL0QFRLS","hitId":"3Z3R5YC0P3915KVY8X6BNRIWSQNFTT","url":"https://gershmanlab.com/experiments/alicia/teaching/experiment/?hitId=3Z3R5YC0P3915KVY8X6BNRIWSQNFTT&workerId=AKZD89B2WLSX7&assignmentId=31LVTDXBL8WCBHQWHL9G78IL0QFRLS&a=BTL19&tp_a=BTL19&b=31LVTDXBL8WCBHQWHL9G78IL0QFRLS&tp_b=31LVTDXBL8WCBHQWHL9G78IL0QFRLS&c=365799&tp_c=365799","firstResponseHeads":1,"firstResponseTails":1,"secondResponseHeads":12,"secondResponseTails":13,"totalHeads":13,"totalTails":14,"studentIndex":17,"studentTrueHypers":{"a":2,"b":8},"studentGuess":0.40540540540540543,"delta":0.3945945945945946,"bonus":0,"bonusSoFar":0.85,"totalExamples":27},{"rt":20143,"response":{"heads":"4","tails":"4"},"type":"response","condition":"seqNoFeedback","trueTheta":0.8,"classrooms":["C","D"],"studentTrueClassroom":"D","exampleSet":"first","trial_type":"survey-html-form","trial_index":184,"time_elapsed":4237701,"internal_node_id":"0.0-147.0-0.0","params":{"nStudents":24,"maxFlips":30,"completionMinutes":45,"basePay":8,"maxBonus":9,"perTrialBonus":0.5,"perTrialBonusThreshold":0.05,"exampleCost":0.01},"classroomParams":{"A":{"a":1,"b":4},"B":{"a":4,"b":1},"C":{"a":2,"b":8},"D":{"a":8,"b":2}},"conditions":["nonSeqFull","nonSeqPartial","seqNoFeedback","seqFeedback"],"classroomPairings":[["A","B"],["C","D"]],"coinWeights":[0.2,0.5,0.8],"subjectId":"AKZD89B2WLSX7","assignmentId":"31LVTDXBL8WCBHQWHL9G78IL0QFRLS","hitId":"3Z3R5YC0P3915KVY8X6BNRIWSQNFTT","url":"https://gershmanlab.com/experiments/alicia/teaching/experiment/?hitId=3Z3R5YC0P3915KVY8X6BNRIWSQNFTT&workerId=AKZD89B2WLSX7&assignmentId=31LVTDXBL8WCBHQWHL9G78IL0QFRLS&a=BTL19&tp_a=BTL19&b=31LVTDXBL8WCBHQWHL9G78IL0QFRLS&tp_b=31LVTDXBL8WCBHQWHL9G78IL0QFRLS&c=365799&tp_c=365799","heads":4,"tails":4,"studentIndex":18,"studentTrueHypers":{"a":8,"b":2},"studentGuess":0.6666666666666666,"delta":0.13333333333333341,"totalExamples":8,"bonusSoFar":0.85},{"rt":11825,"response":{"heads":"6","tails":"6"},"type":"response","condition":"seqNoFeedback","trueTheta":0.8,"classrooms":["C","D"],"studentTrueClassroom":"D","exampleSet":"second","trial_type":"survey-html-form","trial_index":187,"time_elapsed":4255302,"internal_node_id":"0.0-150.0-0.0","params":{"nStudents":24,"maxFlips":30,"completionMinutes":45,"basePay":8,"maxBonus":9,"perTrialBonus":0.5,"perTrialBonusThreshold":0.05,"exampleCost":0.01},"classroomParams":{"A":{"a":1,"b":4},"B":{"a":4,"b":1},"C":{"a":2,"b":8},"D":{"a":8,"b":2}},"conditions":["nonSeqFull","nonSeqPartial","seqNoFeedback","seqFeedback"],"classroomPairings":[["A","B"],["C","D"]],"coinWeights":[0.2,0.5,0.8],"subjectId":"AKZD89B2WLSX7","assignmentId":"31LVTDXBL8WCBHQWHL9G78IL0QFRLS","hitId":"3Z3R5YC0P3915KVY8X6BNRIWSQNFTT","url":"https://gershmanlab.com/experiments/alicia/teaching/experiment/?hitId=3Z3R5YC0P3915KVY8X6BNRIWSQNFTT&workerId=AKZD89B2WLSX7&assignmentId=31LVTDXBL8WCBHQWHL9G78IL0QFRLS&a=BTL19&tp_a=BTL19&b=31LVTDXBL8WCBHQWHL9G78IL0QFRLS&tp_b=31LVTDXBL8WCBHQWHL9G78IL0QFRLS&c=365799&tp_c=365799","firstResponseHeads":4,"firstResponseTails":4,"secondResponseHeads":6,"secondResponseTails":6,"totalHeads":10,"totalTails":10,"studentIndex":18,"studentTrueHypers":{"a":8,"b":2},"studentGuess":0.6,"delta":0.20000000000000007,"bonus":0,"bonusSoFar":0.85,"totalExamples":20},{"rt":7554,"response":{"heads":"10","tails":"10"},"type":"response","condition":"nonSeqFull","trueTheta":0.5,"classrooms":["A","B"],"studentTrueClassroom":"B","exampleSet":"first","trial_type":"survey-html-form","trial_index":193,"time_elapsed":4297133,"internal_node_id":"0.0-156.0-0.0","params":{"nStudents":24,"maxFlips":30,"completionMinutes":45,"basePay":8,"maxBonus":9,"perTrialBonus":0.5,"perTrialBonusThreshold":0.05,"exampleCost":0.01},"classroomParams":{"A":{"a":1,"b":4},"B":{"a":4,"b":1},"C":{"a":2,"b":8},"D":{"a":8,"b":2}},"conditions":["nonSeqFull","nonSeqPartial","seqNoFeedback","seqFeedback"],"classroomPairings":[["A","B"],["C","D"]],"coinWeights":[0.2,0.5,0.8],"subjectId":"AKZD89B2WLSX7","assignmentId":"31LVTDXBL8WCBHQWHL9G78IL0QFRLS","hitId":"3Z3R5YC0P3915KVY8X6BNRIWSQNFTT","url":"https://gershmanlab.com/experiments/alicia/teaching/experiment/?hitId=3Z3R5YC0P3915KVY8X6BNRIWSQNFTT&workerId=AKZD89B2WLSX7&assignmentId=31LVTDXBL8WCBHQWHL9G78IL0QFRLS&a=BTL19&tp_a=BTL19&b=31LVTDXBL8WCBHQWHL9G78IL0QFRLS&tp_b=31LVTDXBL8WCBHQWHL9G78IL0QFRLS&c=365799&tp_c=365799","heads":10,"tails":10,"studentIndex":19,"studentTrueHypers":{"a":4,"b":1},"studentGuess":0.56,"delta":0.06000000000000005,"totalExamples":20,"bonus":0,"bonusSoFar":0.85},{"rt":25139,"response":{"heads":"1","tails":"4"},"type":"response","condition":"nonSeqFull","trueTheta":0.2,"classrooms":["A","B"],"studentTrueClassroom":"B","exampleSet":"first","trial_type":"survey-html-form","trial_index":199,"time_elapsed":4352782,"internal_node_id":"0.0-162.0-0.0","params":{"nStudents":24,"maxFlips":30,"completionMinutes":45,"basePay":8,"maxBonus":9,"perTrialBonus":0.5,"perTrialBonusThreshold":0.05,"exampleCost":0.01},"classroomParams":{"A":{"a":1,"b":4},"B":{"a":4,"b":1},"C":{"a":2,"b":8},"D":{"a":8,"b":2}},"conditions":["nonSeqFull","nonSeqPartial","seqNoFeedback","seqFeedback"],"classroomPairings":[["A","B"],["C","D"]],"coinWeights":[0.2,0.5,0.8],"subjectId":"AKZD89B2WLSX7","assignmentId":"31LVTDXBL8WCBHQWHL9G78IL0QFRLS","hitId":"3Z3R5YC0P3915KVY8X6BNRIWSQNFTT","url":"https://gershmanlab.com/experiments/alicia/teaching/experiment/?hitId=3Z3R5YC0P3915KVY8X6BNRIWSQNFTT&workerId=AKZD89B2WLSX7&assignmentId=31LVTDXBL8WCBHQWHL9G78IL0QFRLS&a=BTL19&tp_a=BTL19&b=31LVTDXBL8WCBHQWHL9G78IL0QFRLS&tp_b=31LVTDXBL8WCBHQWHL9G78IL0QFRLS&c=365799&tp_c=365799","heads":1,"tails":4,"studentIndex":20,"studentTrueHypers":{"a":4,"b":1},"studentGuess":0.5,"delta":0.3,"totalExamples":5,"bonus":0,"bonusSoFar":0.85},{"rt":35026,"response":{"heads":"1","tails":"1"},"type":"response","condition":"nonSeqPartial","trueTheta":0.2,"classrooms":["A","B"],"studentTrueClassroom":"B","exampleSet":"first","trial_type":"survey-html-form","trial_index":205,"time_elapsed":4425274,"internal_node_id":"0.0-168.0-0.0","params":{"nStudents":24,"maxFlips":30,"completionMinutes":45,"basePay":8,"maxBonus":9,"perTrialBonus":0.5,"perTrialBonusThreshold":0.05,"exampleCost":0.01},"classroomParams":{"A":{"a":1,"b":4},"B":{"a":4,"b":1},"C":{"a":2,"b":8},"D":{"a":8,"b":2}},"conditions":["nonSeqFull","nonSeqPartial","seqNoFeedback","seqFeedback"],"classroomPairings":[["A","B"],["C","D"]],"coinWeights":[0.2,0.5,0.8],"subjectId":"AKZD89B2WLSX7","assignmentId":"31LVTDXBL8WCBHQWHL9G78IL0QFRLS","hitId":"3Z3R5YC0P3915KVY8X6BNRIWSQNFTT","url":"https://gershmanlab.com/experiments/alicia/teaching/experiment/?hitId=3Z3R5YC0P3915KVY8X6BNRIWSQNFTT&workerId=AKZD89B2WLSX7&assignmentId=31LVTDXBL8WCBHQWHL9G78IL0QFRLS&a=BTL19&tp_a=BTL19&b=31LVTDXBL8WCBHQWHL9G78IL0QFRLS&tp_b=31LVTDXBL8WCBHQWHL9G78IL0QFRLS&c=365799&tp_c=365799","heads":1,"tails":1,"studentIndex":21,"studentTrueHypers":{"a":4,"b":1},"studentGuess":0.7142857142857143,"delta":0.5142857142857142,"totalExamples":2,"bonus":0,"bonusSoFar":0.85},{"rt":10966,"response":{"heads":"5","tails":"5"},"type":"response","condition":"seqNoFeedback","trueTheta":0.5,"classrooms":["A","B"],"studentTrueClassroom":"A","exampleSet":"first","trial_type":"survey-html-form","trial_index":211,"time_elapsed":4468602,"internal_node_id":"0.0-174.0-0.0","params":{"nStudents":24,"maxFlips":30,"completionMinutes":45,"basePay":8,"maxBonus":9,"perTrialBonus":0.5,"perTrialBonusThreshold":0.05,"exampleCost":0.01},"classroomParams":{"A":{"a":1,"b":4},"B":{"a":4,"b":1},"C":{"a":2,"b":8},"D":{"a":8,"b":2}},"conditions":["nonSeqFull","nonSeqPartial","seqNoFeedback","seqFeedback"],"classroomPairings":[["A","B"],["C","D"]],"coinWeights":[0.2,0.5,0.8],"subjectId":"AKZD89B2WLSX7","assignmentId":"31LVTDXBL8WCBHQWHL9G78IL0QFRLS","hitId":"3Z3R5YC0P3915KVY8X6BNRIWSQNFTT","url":"https://gershmanlab.com/experiments/alicia/teaching/experiment/?hitId=3Z3R5YC0P3915KVY8X6BNRIWSQNFTT&workerId=AKZD89B2WLSX7&assignmentId=31LVTDXBL8WCBHQWHL9G78IL0QFRLS&a=BTL19&tp_a=BTL19&b=31LVTDXBL8WCBHQWHL9G78IL0QFRLS&tp_b=31LVTDXBL8WCBHQWHL9G78IL0QFRLS&c=365799&tp_c=365799","heads":5,"tails":5,"studentIndex":22,"studentTrueHypers":{"a":1,"b":4},"studentGuess":0.4,"delta":0.09999999999999998,"totalExamples":10,"bonusSoFar":0.85},{"rt":8404,"response":{"heads":"5","tails":"5"},"type":"response","condition":"seqNoFeedback","trueTheta":0.5,"classrooms":["A","B"],"studentTrueClassroom":"A","exampleSet":"second","trial_type":"survey-html-form","trial_index":214,"time_elapsed":4484524,"internal_node_id":"0.0-177.0-0.0","params":{"nStudents":24,"maxFlips":30,"completionMinutes":45,"basePay":8,"maxBonus":9,"perTrialBonus":0.5,"perTrialBonusThreshold":0.05,"exampleCost":0.01},"classroomParams":{"A":{"a":1,"b":4},"B":{"a":4,"b":1},"C":{"a":2,"b":8},"D":{"a":8,"b":2}},"conditions":["nonSeqFull","nonSeqPartial","seqNoFeedback","seqFeedback"],"classroomPairings":[["A","B"],["C","D"]],"coinWeights":[0.2,0.5,0.8],"subjectId":"AKZD89B2WLSX7","assignmentId":"31LVTDXBL8WCBHQWHL9G78IL0QFRLS","hitId":"3Z3R5YC0P3915KVY8X6BNRIWSQNFTT","url":"https://gershmanlab.com/experiments/alicia/teaching/experiment/?hitId=3Z3R5YC0P3915KVY8X6BNRIWSQNFTT&workerId=AKZD89B2WLSX7&assignmentId=31LVTDXBL8WCBHQWHL9G78IL0QFRLS&a=BTL19&tp_a=BTL19&b=31LVTDXBL8WCBHQWHL9G78IL0QFRLS&tp_b=31LVTDXBL8WCBHQWHL9G78IL0QFRLS&c=365799&tp_c=365799","firstResponseHeads":5,"firstResponseTails":5,"secondResponseHeads":5,"secondResponseTails":5,"totalHeads":10,"totalTails":10,"studentIndex":22,"studentTrueHypers":{"a":1,"b":4},"studentGuess":0.44,"delta":0.06,"bonus":0,"bonusSoFar":0.85,"totalExamples":20},{"rt":32655,"response":{"heads":"10","tails":"6"},"type":"response","condition":"seqNoFeedback","trueTheta":0.8,"classrooms":["A","B"],"studentTrueClassroom":"A","exampleSet":"first","trial_type":"survey-html-form","trial_index":220,"time_elapsed":4539686,"internal_node_id":"0.0-183.0-0.0","params":{"nStudents":24,"maxFlips":30,"completionMinutes":45,"basePay":8,"maxBonus":9,"perTrialBonus":0.5,"perTrialBonusThreshold":0.05,"exampleCost":0.01},"classroomParams":{"A":{"a":1,"b":4},"B":{"a":4,"b":1},"C":{"a":2,"b":8},"D":{"a":8,"b":2}},"conditions":["nonSeqFull","nonSeqPartial","seqNoFeedback","seqFeedback"],"classroomPairings":[["A","B"],["C","D"]],"coinWeights":[0.2,0.5,0.8],"subjectId":"AKZD89B2WLSX7","assignmentId":"31LVTDXBL8WCBHQWHL9G78IL0QFRLS","hitId":"3Z3R5YC0P3915KVY8X6BNRIWSQNFTT","url":"https://gershmanlab.com/experiments/alicia/teaching/experiment/?hitId=3Z3R5YC0P3915KVY8X6BNRIWSQNFTT&workerId=AKZD89B2WLSX7&assignmentId=31LVTDXBL8WCBHQWHL9G78IL0QFRLS&a=BTL19&tp_a=BTL19&b=31LVTDXBL8WCBHQWHL9G78IL0QFRLS&tp_b=31LVTDXBL8WCBHQWHL9G78IL0QFRLS&c=365799&tp_c=365799","heads":10,"tails":6,"studentIndex":23,"studentTrueHypers":{"a":1,"b":4},"studentGuess":0.5238095238095238,"delta":0.2761904761904762,"totalExamples":16,"bonusSoFar":0.85},{"rt":5156,"response":{"heads":"0","tails":"1"},"type":"response","condition":"seqNoFeedback","trueTheta":0.8,"classrooms":["A","B"],"studentTrueClassroom":"A","exampleSet":"second","trial_type":"survey-html-form","trial_index":223,"time_elapsed":4551104,"internal_node_id":"0.0-186.0-0.0","params":{"nStudents":24,"maxFlips":30,"completionMinutes":45,"basePay":8,"maxBonus":9,"perTrialBonus":0.5,"perTrialBonusThreshold":0.05,"exampleCost":0.01},"classroomParams":{"A":{"a":1,"b":4},"B":{"a":4,"b":1},"C":{"a":2,"b":8},"D":{"a":8,"b":2}},"conditions":["nonSeqFull","nonSeqPartial","seqNoFeedback","seqFeedback"],"classroomPairings":[["A","B"],["C","D"]],"coinWeights":[0.2,0.5,0.8],"subjectId":"AKZD89B2WLSX7","assignmentId":"31LVTDXBL8WCBHQWHL9G78IL0QFRLS","hitId":"3Z3R5YC0P3915KVY8X6BNRIWSQNFTT","url":"https://gershmanlab.com/experiments/alicia/teaching/experiment/?hitId=3Z3R5YC0P3915KVY8X6BNRIWSQNFTT&workerId=AKZD89B2WLSX7&assignmentId=31LVTDXBL8WCBHQWHL9G78IL0QFRLS&a=BTL19&tp_a=BTL19&b=31LVTDXBL8WCBHQWHL9G78IL0QFRLS&tp_b=31LVTDXBL8WCBHQWHL9G78IL0QFRLS&c=365799&tp_c=365799","firstResponseHeads":10,"firstResponseTails":6,"secondResponseHeads":0,"secondResponseTails":1,"totalHeads":10,"totalTails":7,"studentIndex":23,"studentTrueHypers":{"a":1,"b":4},"studentGuess":0.5,"delta":0.30000000000000004,"bonus":0,"bonusSoFar":0.85,"totalExamples":17},{"rt":30075,"response":{"gender":"female","age":"52","understood":"yes","comments":"Nope"},"type":"response","trial_type":"survey-html-form","trial_index":227,"time_elapsed":4606928,"internal_node_id":"0.0-191.0","params":{"nStudents":24,"maxFlips":30,"completionMinutes":45,"basePay":8,"maxBonus":9,"perTrialBonus":0.5,"perTrialBonusThreshold":0.05,"exampleCost":0.01},"classroomParams":{"A":{"a":1,"b":4},"B":{"a":4,"b":1},"C":{"a":2,"b":8},"D":{"a":8,"b":2}},"conditions":["nonSeqFull","nonSeqPartial","seqNoFeedback","seqFeedback"],"classroomPairings":[["A","B"],["C","D"]],"coinWeights":[0.2,0.5,0.8],"subjectId":"AKZD89B2WLSX7","assignmentId":"31LVTDXBL8WCBHQWHL9G78IL0QFRLS","hitId":"3Z3R5YC0P3915KVY8X6BNRIWSQNFTT","url":"https://gershmanlab.com/experiments/alicia/teaching/experiment/?hitId=3Z3R5YC0P3915KVY8X6BNRIWSQNFTT&workerId=AKZD89B2WLSX7&assignmentId=31LVTDXBL8WCBHQWHL9G78IL0QFRLS&a=BTL19&tp_a=BTL19&b=31LVTDXBL8WCBHQWHL9G78IL0QFRLS&tp_b=31LVTDXBL8WCBHQWHL9G78IL0QFRLS&c=365799&tp_c=365799","totalBonus":0.85}]