[{"rt":116941,"response":{"heads":"2","tails":"11"},"type":"response","condition":"nonSeqPartial","trueTheta":0.2,"classrooms":["A","B"],"studentTrueClassroom":"A","exampleSet":"first","trial_type":"survey-html-form","trial_index":10,"time_elapsed":521174,"internal_node_id":"0.0-6.0-0.0","params":{"nStudents":24,"maxFlips":30,"completionMinutes":45,"basePay":8,"maxBonus":9,"perTrialBonus":0.5,"perTrialBonusThreshold":0.05,"exampleCost":0.01},"classroomParams":{"A":{"a":1,"b":4},"B":{"a":4,"b":1},"C":{"a":2,"b":8},"D":{"a":8,"b":2}},"conditions":["nonSeqFull","nonSeqPartial","seqNoFeedback","seqFeedback"],"classroomPairings":[["A","B"],["C","D"]],"coinWeights":[0.2,0.5,0.8],"subjectId":"AMLWYWZOMONLB","assignmentId":"3LEP4MGT3HM6XYLF87P2OG5C9WCBDN","hitId":"3SD15I2WD2G0NA4TSPXGB81L5S7630","url":"https://gershmanlab.com/experiments/alicia/teaching/experiment/?hitId=3SD15I2WD2G0NA4TSPXGB81L5S7630&workerId=AMLWYWZOMONLB&assignmentId=3LEP4MGT3HM6XYLF87P2OG5C9WCBDN&a=T4EL9&tp_a=T4EL9&b=3LEP4MGT3HM6XYLF87P2OG5C9WCBDN&tp_b=3LEP4MGT3HM6XYLF87P2OG5C9WCBDN&c=365799&tp_c=365799","heads":2,"tails":11,"studentIndex":0,"studentTrueHypers":{"a":1,"b":4},"studentGuess":0.16666666666666666,"delta":0.033333333333333354,"totalExamples":13,"bonus":0.37,"bonusSoFar":0.37},{"rt":81111,"response":{"heads":"0","tails":"7"},"type":"response","condition":"seqNoFeedback","trueTheta":0.5,"classrooms":["A","B"],"studentTrueClassroom":"A","exampleSet":"first","trial_type":"survey-html-form","trial_index":16,"time_elapsed":627887,"internal_node_id":"0.0-12.0-0.0","params":{"nStudents":24,"maxFlips":30,"completionMinutes":45,"basePay":8,"maxBonus":9,"perTrialBonus":0.5,"perTrialBonusThreshold":0.05,"exampleCost":0.01},"classroomParams":{"A":{"a":1,"b":4},"B":{"a":4,"b":1},"C":{"a":2,"b":8},"D":{"a":8,"b":2}},"conditions":["nonSeqFull","nonSeqPartial","seqNoFeedback","seqFeedback"],"classroomPairings":[["A","B"],["C","D"]],"coinWeights":[0.2,0.5,0.8],"subjectId":"AMLWYWZOMONLB","assignmentId":"3LEP4MGT3HM6XYLF87P2OG5C9WCBDN","hitId":"3SD15I2WD2G0NA4TSPXGB81L5S7630","url":"https://gershmanlab.com/experiments/alicia/teaching/experiment/?hitId=3SD15I2WD2G0NA4TSPXGB81L5S7630&workerId=AMLWYWZOMONLB&assignmentId=3LEP4MGT3HM6XYLF87P2OG5C9WCBDN&a=T4EL9&tp_a=T4EL9&b=3LEP4MGT3HM6XYLF87P2OG5C9WCBDN&tp_b=3LEP4MGT3HM6XYLF87P2OG5C9WCBDN&c=365799&tp_c=365799","heads":0,"tails":7,"studentIndex":1,"studentTrueHypers":{"a":1,"b":4},"studentGuess":0.08333333333333333,"delta":0.4166666666666667,"totalExamples":7,"bonusSoFar":0.37},{"rt":44889,"response":{"heads":"4","tails":"0"},"type":"response","condition":"seqNoFeedback","trueTheta":0.5,"classrooms":["A","B"],"studentTrueClassroom":"A","exampleSet":"second","trial_type":"survey-html-form","trial_index":19,"time_elapsed":679784,"internal_node_id":"0.0-15.0-0.0","params":{"nStudents":24,"maxFlips":30,"completionMinutes":45,"basePay":8,"maxBonus":9,"perTrialBonus":0.5,"perTrialBonusThreshold":0.05,"exampleCost":0.01},"classroomParams":{"A":{"a":1,"b":4},"B":{"a":4,"b":1},"C":{"a":2,"b":8},"D":{"a":8,"b":2}},"conditions":["nonSeqFull","nonSeqPartial","seqNoFeedback","seqFeedback"],"classroomPairings":[["A","B"],["C","D"]],"coinWeights":[0.2,0.5,0.8],"subjectId":"AMLWYWZOMONLB","assignmentId":"3LEP4MGT3HM6XYLF87P2OG5C9WCBDN","hitId":"3SD15I2WD2G0NA4TSPXGB81L5S7630","url":"https://gershmanlab.com/experiments/alicia/teaching/experiment/?hitId=3SD15I2WD2G0NA4TSPXGB81L5S7630&workerId=AMLWYWZOMONLB&assignmentId=3LEP4MGT3HM6XYLF87P2OG5C9WCBDN&a=T4EL9&tp_a=T4EL9&b=3LEP4MGT3HM6XYLF87P2OG5C9WCBDN&tp_b=3LEP4MGT3HM6XYLF87P2OG5C9WCBDN&c=365799&tp_c=365799","firstResponseHeads":0,"firstResponseTails":7,"secondResponseHeads":4,"secondResponseTails":0,"totalHeads":4,"totalTails":7,"studentIndex":1,"studentTrueHypers":{"a":1,"b":4},"studentGuess":0.3125,"delta":0.1875,"bonus":0,"bonusSoFar":0.37,"totalExamples":11},{"rt":53560,"response":{"heads":"0","tails":"0"},"type":"response","condition":"seqFeedback","trueTheta":0.2,"classrooms":["C","D"],"studentTrueClassroom":"C","exampleSet":"first","trial_type":"survey-html-form","trial_index":25,"time_elapsed":756495,"internal_node_id":"0.0-21.0-0.0","params":{"nStudents":24,"maxFlips":30,"completionMinutes":45,"basePay":8,"maxBonus":9,"perTrialBonus":0.5,"perTrialBonusThreshold":0.05,"exampleCost":0.01},"classroomParams":{"A":{"a":1,"b":4},"B":{"a":4,"b":1},"C":{"a":2,"b":8},"D":{"a":8,"b":2}},"conditions":["nonSeqFull","nonSeqPartial","seqNoFeedback","seqFeedback"],"classroomPairings":[["A","B"],["C","D"]],"coinWeights":[0.2,0.5,0.8],"subjectId":"AMLWYWZOMONLB","assignmentId":"3LEP4MGT3HM6XYLF87P2OG5C9WCBDN","hitId":"3SD15I2WD2G0NA4TSPXGB81L5S7630","url":"https://gershmanlab.com/experiments/alicia/teaching/experiment/?hitId=3SD15I2WD2G0NA4TSPXGB81L5S7630&workerId=AMLWYWZOMONLB&assignmentId=3LEP4MGT3HM6XYLF87P2OG5C9WCBDN&a=T4EL9&tp_a=T4EL9&b=3LEP4MGT3HM6XYLF87P2OG5C9WCBDN&tp_b=3LEP4MGT3HM6XYLF87P2OG5C9WCBDN&c=365799&tp_c=365799","heads":0,"tails":0,"studentIndex":2,"studentTrueHypers":{"a":2,"b":8},"studentGuess":0.2,"delta":0,"totalExamples":0,"bonusSoFar":0.37},{"rt":10742,"response":{"heads":"0","tails":"0"},"type":"response","condition":"seqFeedback","trueTheta":0.2,"classrooms":["C","D"],"studentTrueClassroom":"C","exampleSet":"first","trial_type":"survey-html-form","trial_index":26,"time_elapsed":767238,"internal_node_id":"0.0-21.1-0.1","params":{"nStudents":24,"maxFlips":30,"completionMinutes":45,"basePay":8,"maxBonus":9,"perTrialBonus":0.5,"perTrialBonusThreshold":0.05,"exampleCost":0.01},"classroomParams":{"A":{"a":1,"b":4},"B":{"a":4,"b":1},"C":{"a":2,"b":8},"D":{"a":8,"b":2}},"conditions":["nonSeqFull","nonSeqPartial","seqNoFeedback","seqFeedback"],"classroomPairings":[["A","B"],["C","D"]],"coinWeights":[0.2,0.5,0.8],"subjectId":"AMLWYWZOMONLB","assignmentId":"3LEP4MGT3HM6XYLF87P2OG5C9WCBDN","hitId":"3SD15I2WD2G0NA4TSPXGB81L5S7630","url":"https://gershmanlab.com/experiments/alicia/teaching/experiment/?hitId=3SD15I2WD2G0NA4TSPXGB81L5S7630&workerId=AMLWYWZOMONLB&assignmentId=3LEP4MGT3HM6XYLF87P2OG5C9WCBDN&a=T4EL9&tp_a=T4EL9&b=3LEP4MGT3HM6XYLF87P2OG5C9WCBDN&tp_b=3LEP4MGT3HM6XYLF87P2OG5C9WCBDN&c=365799&tp_c=365799","heads":0,"tails":0,"studentIndex":2,"studentTrueHypers":{"a":2,"b":8},"studentGuess":0.2,"delta":0,"totalExamples":0,"bonusSoFar":0.37},{"rt":12861,"response":{"heads":"1","tails":"4"},"type":"response","condition":"seqFeedback","trueTheta":0.2,"classrooms":["C","D"],"studentTrueClassroom":"C","exampleSet":"first","trial_type":"survey-html-form","trial_index":27,"time_elapsed":780101,"internal_node_id":"0.0-21.2-0.2","params":{"nStudents":24,"maxFlips":30,"completionMinutes":45,"basePay":8,"maxBonus":9,"perTrialBonus":0.5,"perTrialBonusThreshold":0.05,"exampleCost":0.01},"classroomParams":{"A":{"a":1,"b":4},"B":{"a":4,"b":1},"C":{"a":2,"b":8},"D":{"a":8,"b":2}},"conditions":["nonSeqFull","nonSeqPartial","seqNoFeedback","seqFeedback"],"classroomPairings":[["A","B"],["C","D"]],"coinWeights":[0.2,0.5,0.8],"subjectId":"AMLWYWZOMONLB","assignmentId":"3LEP4MGT3HM6XYLF87P2OG5C9WCBDN","hitId":"3SD15I2WD2G0NA4TSPXGB81L5S7630","url":"https://gershmanlab.com/experiments/alicia/teaching/experiment/?hitId=3SD15I2WD2G0NA4TSPXGB81L5S7630&workerId=AMLWYWZOMONLB&assignmentId=3LEP4MGT3HM6XYLF87P2OG5C9WCBDN&a=T4EL9&tp_a=T4EL9&b=3LEP4MGT3HM6XYLF87P2OG5C9WCBDN&tp_b=3LEP4MGT3HM6XYLF87P2OG5C9WCBDN&c=365799&tp_c=365799","heads":1,"tails":4,"studentIndex":2,"studentTrueHypers":{"a":2,"b":8},"studentGuess":0.2,"delta":0,"totalExamples":5,"bonusSoFar":0.37},{"rt":7213,"response":{"heads":"1","tails":"4"},"type":"response","condition":"seqFeedback","trueTheta":0.2,"classrooms":["C","D"],"studentTrueClassroom":"C","exampleSet":"second","trial_type":"survey-html-form","trial_index":31,"time_elapsed":804093,"internal_node_id":"0.0-25.0-0.0","params":{"nStudents":24,"maxFlips":30,"completionMinutes":45,"basePay":8,"maxBonus":9,"perTrialBonus":0.5,"perTrialBonusThreshold":0.05,"exampleCost":0.01},"classroomParams":{"A":{"a":1,"b":4},"B":{"a":4,"b":1},"C":{"a":2,"b":8},"D":{"a":8,"b":2}},"conditions":["nonSeqFull","nonSeqPartial","seqNoFeedback","seqFeedback"],"classroomPairings":[["A","B"],["C","D"]],"coinWeights":[0.2,0.5,0.8],"subjectId":"AMLWYWZOMONLB","assignmentId":"3LEP4MGT3HM6XYLF87P2OG5C9WCBDN","hitId":"3SD15I2WD2G0NA4TSPXGB81L5S7630","url":"https://gershmanlab.com/experiments/alicia/teaching/experiment/?hitId=3SD15I2WD2G0NA4TSPXGB81L5S7630&workerId=AMLWYWZOMONLB&assignmentId=3LEP4MGT3HM6XYLF87P2OG5C9WCBDN&a=T4EL9&tp_a=T4EL9&b=3LEP4MGT3HM6XYLF87P2OG5C9WCBDN&tp_b=3LEP4MGT3HM6XYLF87P2OG5C9WCBDN&c=365799&tp_c=365799","firstResponseHeads":0,"firstResponseTails":0,"secondResponseHeads":1,"secondResponseTails":4,"totalHeads":1,"totalTails":4,"studentIndex":2,"studentTrueHypers":{"a":2,"b":8},"studentGuess":0.2,"delta":0,"bonus":0.45,"bonusSoFar":0.82,"totalExamples":5},{"rt":35077,"response":{"heads":"15","tails":"0"},"type":"response","condition":"nonSeqFull","trueTheta":0.8,"classrooms":["A","B"],"studentTrueClassroom":"A","exampleSet":"first","trial_type":"survey-html-form","trial_index":37,"time_elapsed":855883,"internal_node_id":"0.0-31.0-0.0","params":{"nStudents":24,"maxFlips":30,"completionMinutes":45,"basePay":8,"maxBonus":9,"perTrialBonus":0.5,"perTrialBonusThreshold":0.05,"exampleCost":0.01},"classroomParams":{"A":{"a":1,"b":4},"B":{"a":4,"b":1},"C":{"a":2,"b":8},"D":{"a":8,"b":2}},"conditions":["nonSeqFull","nonSeqPartial","seqNoFeedback","seqFeedback"],"classroomPairings":[["A","B"],["C","D"]],"coinWeights":[0.2,0.5,0.8],"subjectId":"AMLWYWZOMONLB","assignmentId":"3LEP4MGT3HM6XYLF87P2OG5C9WCBDN","hitId":"3SD15I2WD2G0NA4TSPXGB81L5S7630","url":"https://gershmanlab.com/experiments/alicia/teaching/experiment/?hitId=3SD15I2WD2G0NA4TSPXGB81L5S7630&workerId=AMLWYWZOMONLB&assignmentId=3LEP4MGT3HM6XYLF87P2OG5C9WCBDN&a=T4EL9&tp_a=T4EL9&b=3LEP4MGT3HM6XYLF87P2OG5C9WCBDN&tp_b=3LEP4MGT3HM6XYLF87P2OG5C9WCBDN&c=365799&tp_c=365799","heads":15,"tails":0,"studentIndex":3,"studentTrueHypers":{"a":1,"b":4},"studentGuess":0.8,"delta":0,"totalExamples":15,"bonus":0.35,"bonusSoFar":1.17},{"rt":19340,"response":{"heads":"0","tails":"15"},"type":"response","condition":"nonSeqFull","trueTheta":0.2,"classrooms":["A","B"],"studentTrueClassroom":"B","exampleSet":"first","trial_type":"survey-html-form","trial_index":43,"time_elapsed":893636,"internal_node_id":"0.0-37.0-0.0","params":{"nStudents":24,"maxFlips":30,"completionMinutes":45,"basePay":8,"maxBonus":9,"perTrialBonus":0.5,"perTrialBonusThreshold":0.05,"exampleCost":0.01},"classroomParams":{"A":{"a":1,"b":4},"B":{"a":4,"b":1},"C":{"a":2,"b":8},"D":{"a":8,"b":2}},"conditions":["nonSeqFull","nonSeqPartial","seqNoFeedback","seqFeedback"],"classroomPairings":[["A","B"],["C","D"]],"coinWeights":[0.2,0.5,0.8],"subjectId":"AMLWYWZOMONLB","assignmentId":"3LEP4MGT3HM6XYLF87P2OG5C9WCBDN","hitId":"3SD15I2WD2G0NA4TSPXGB81L5S7630","url":"https://gershmanlab.com/experiments/alicia/teaching/experiment/?hitId=3SD15I2WD2G0NA4TSPXGB81L5S7630&workerId=AMLWYWZOMONLB&assignmentId=3LEP4MGT3HM6XYLF87P2OG5C9WCBDN&a=T4EL9&tp_a=T4EL9&b=3LEP4MGT3HM6XYLF87P2OG5C9WCBDN&tp_b=3LEP4MGT3HM6XYLF87P2OG5C9WCBDN&c=365799&tp_c=365799","heads":0,"tails":15,"studentIndex":4,"studentTrueHypers":{"a":4,"b":1},"studentGuess":0.2,"delta":0,"totalExamples":15,"bonus":0.35,"bonusSoFar":1.52},{"rt":17075,"response":{"heads":"0","tails":"6"},"type":"response","condition":"nonSeqFull","trueTheta":0.5,"classrooms":["C","D"],"studentTrueClassroom":"D","exampleSet":"first","trial_type":"survey-html-form","trial_index":49,"time_elapsed":931537,"internal_node_id":"0.0-43.0-0.0","params":{"nStudents":24,"maxFlips":30,"completionMinutes":45,"basePay":8,"maxBonus":9,"perTrialBonus":0.5,"perTrialBonusThreshold":0.05,"exampleCost":0.01},"classroomParams":{"A":{"a":1,"b":4},"B":{"a":4,"b":1},"C":{"a":2,"b":8},"D":{"a":8,"b":2}},"conditions":["nonSeqFull","nonSeqPartial","seqNoFeedback","seqFeedback"],"classroomPairings":[["A","B"],["C","D"]],"coinWeights":[0.2,0.5,0.8],"subjectId":"AMLWYWZOMONLB","assignmentId":"3LEP4MGT3HM6XYLF87P2OG5C9WCBDN","hitId":"3SD15I2WD2G0NA4TSPXGB81L5S7630","url":"https://gershmanlab.com/experiments/alicia/teaching/experiment/?hitId=3SD15I2WD2G0NA4TSPXGB81L5S7630&workerId=AMLWYWZOMONLB&assignmentId=3LEP4MGT3HM6XYLF87P2OG5C9WCBDN&a=T4EL9&tp_a=T4EL9&b=3LEP4MGT3HM6XYLF87P2OG5C9WCBDN&tp_b=3LEP4MGT3HM6XYLF87P2OG5C9WCBDN&c=365799&tp_c=365799","heads":0,"tails":6,"studentIndex":5,"studentTrueHypers":{"a":8,"b":2},"studentGuess":0.5,"delta":0,"totalExamples":6,"bonus":0.44,"bonusSoFar":1.96},{"rt":39911,"response":{"heads":"4","tails":"1"},"type":"response","condition":"nonSeqPartial","trueTheta":0.8,"classrooms":["A","B"],"studentTrueClassroom":"B","exampleSet":"first","trial_type":"survey-html-form","trial_index":55,"time_elapsed":989556,"internal_node_id":"0.0-49.0-0.0","params":{"nStudents":24,"maxFlips":30,"completionMinutes":45,"basePay":8,"maxBonus":9,"perTrialBonus":0.5,"perTrialBonusThreshold":0.05,"exampleCost":0.01},"classroomParams":{"A":{"a":1,"b":4},"B":{"a":4,"b":1},"C":{"a":2,"b":8},"D":{"a":8,"b":2}},"conditions":["nonSeqFull","nonSeqPartial","seqNoFeedback","seqFeedback"],"classroomPairings":[["A","B"],["C","D"]],"coinWeights":[0.2,0.5,0.8],"subjectId":"AMLWYWZOMONLB","assignmentId":"3LEP4MGT3HM6XYLF87P2OG5C9WCBDN","hitId":"3SD15I2WD2G0NA4TSPXGB81L5S7630","url":"https://gershmanlab.com/experiments/alicia/teaching/experiment/?hitId=3SD15I2WD2G0NA4TSPXGB81L5S7630&workerId=AMLWYWZOMONLB&assignmentId=3LEP4MGT3HM6XYLF87P2OG5C9WCBDN&a=T4EL9&tp_a=T4EL9&b=3LEP4MGT3HM6XYLF87P2OG5C9WCBDN&tp_b=3LEP4MGT3HM6XYLF87P2OG5C9WCBDN&c=365799&tp_c=365799","heads":4,"tails":1,"studentIndex":6,"studentTrueHypers":{"a":4,"b":1},"studentGuess":0.8,"delta":0,"totalExamples":5,"bonus":0.45,"bonusSoFar":2.41},{"rt":40314,"response":{"heads":"1","tails":"4"},"type":"response","condition":"nonSeqPartial","trueTheta":0.2,"classrooms":["C","D"],"studentTrueClassroom":"C","exampleSet":"first","trial_type":"survey-html-form","trial_index":61,"time_elapsed":1047126,"internal_node_id":"0.0-55.0-0.0","params":{"nStudents":24,"maxFlips":30,"completionMinutes":45,"basePay":8,"maxBonus":9,"perTrialBonus":0.5,"perTrialBonusThreshold":0.05,"exampleCost":0.01},"classroomParams":{"A":{"a":1,"b":4},"B":{"a":4,"b":1},"C":{"a":2,"b":8},"D":{"a":8,"b":2}},"conditions":["nonSeqFull","nonSeqPartial","seqNoFeedback","seqFeedback"],"classroomPairings":[["A","B"],["C","D"]],"coinWeights":[0.2,0.5,0.8],"subjectId":"AMLWYWZOMONLB","assignmentId":"3LEP4MGT3HM6XYLF87P2OG5C9WCBDN","hitId":"3SD15I2WD2G0NA4TSPXGB81L5S7630","url":"https://gershmanlab.com/experiments/alicia/teaching/experiment/?hitId=3SD15I2WD2G0NA4TSPXGB81L5S7630&workerId=AMLWYWZOMONLB&assignmentId=3LEP4MGT3HM6XYLF87P2OG5C9WCBDN&a=T4EL9&tp_a=T4EL9&b=3LEP4MGT3HM6XYLF87P2OG5C9WCBDN&tp_b=3LEP4MGT3HM6XYLF87P2OG5C9WCBDN&c=365799&tp_c=365799","heads":1,"tails":4,"studentIndex":7,"studentTrueHypers":{"a":2,"b":8},"studentGuess":0.2,"delta":0,"totalExamples":5,"bonus":0.45,"bonusSoFar":2.86},{"rt":9141,"response":{"heads":"3","tails":"0"},"type":"response","condition":"nonSeqFull","trueTheta":0.5,"classrooms":["A","B"],"studentTrueClassroom":"A","exampleSet":"first","trial_type":"survey-html-form","trial_index":67,"time_elapsed":1073486,"internal_node_id":"0.0-61.0-0.0","params":{"nStudents":24,"maxFlips":30,"completionMinutes":45,"basePay":8,"maxBonus":9,"perTrialBonus":0.5,"perTrialBonusThreshold":0.05,"exampleCost":0.01},"classroomParams":{"A":{"a":1,"b":4},"B":{"a":4,"b":1},"C":{"a":2,"b":8},"D":{"a":8,"b":2}},"conditions":["nonSeqFull","nonSeqPartial","seqNoFeedback","seqFeedback"],"classroomPairings":[["A","B"],["C","D"]],"coinWeights":[0.2,0.5,0.8],"subjectId":"AMLWYWZOMONLB","assignmentId":"3LEP4MGT3HM6XYLF87P2OG5C9WCBDN","hitId":"3SD15I2WD2G0NA4TSPXGB81L5S7630","url":"https://gershmanlab.com/experiments/alicia/teaching/experiment/?hitId=3SD15I2WD2G0NA4TSPXGB81L5S7630&workerId=AMLWYWZOMONLB&assignmentId=3LEP4MGT3HM6XYLF87P2OG5C9WCBDN&a=T4EL9&tp_a=T4EL9&b=3LEP4MGT3HM6XYLF87P2OG5C9WCBDN&tp_b=3LEP4MGT3HM6XYLF87P2OG5C9WCBDN&c=365799&tp_c=365799","heads":3,"tails":0,"studentIndex":8,"studentTrueHypers":{"a":1,"b":4},"studentGuess":0.5,"delta":0,"totalExamples":3,"bonus":0.47,"bonusSoFar":3.33},{"rt":22665,"response":{"heads":"1","tails":"1"},"type":"response","condition":"seqFeedback","trueTheta":0.5,"classrooms":["C","D"],"studentTrueClassroom":"C","exampleSet":"first","trial_type":"survey-html-form","trial_index":73,"time_elapsed":1111922,"internal_node_id":"0.0-67.0-0.0","params":{"nStudents":24,"maxFlips":30,"completionMinutes":45,"basePay":8,"maxBonus":9,"perTrialBonus":0.5,"perTrialBonusThreshold":0.05,"exampleCost":0.01},"classroomParams":{"A":{"a":1,"b":4},"B":{"a":4,"b":1},"C":{"a":2,"b":8},"D":{"a":8,"b":2}},"conditions":["nonSeqFull","nonSeqPartial","seqNoFeedback","seqFeedback"],"classroomPairings":[["A","B"],["C","D"]],"coinWeights":[0.2,0.5,0.8],"subjectId":"AMLWYWZOMONLB","assignmentId":"3LEP4MGT3HM6XYLF87P2OG5C9WCBDN","hitId":"3SD15I2WD2G0NA4TSPXGB81L5S7630","url":"https://gershmanlab.com/experiments/alicia/teaching/experiment/?hitId=3SD15I2WD2G0NA4TSPXGB81L5S7630&workerId=AMLWYWZOMONLB&assignmentId=3LEP4MGT3HM6XYLF87P2OG5C9WCBDN&a=T4EL9&tp_a=T4EL9&b=3LEP4MGT3HM6XYLF87P2OG5C9WCBDN&tp_b=3LEP4MGT3HM6XYLF87P2OG5C9WCBDN&c=365799&tp_c=365799","heads":1,"tails":1,"studentIndex":9,"studentTrueHypers":{"a":2,"b":8},"studentGuess":0.25,"delta":0.25,"totalExamples":2,"bonusSoFar":3.33},{"rt":15938,"response":{"heads":"6","tails":"0"},"type":"response","condition":"seqFeedback","trueTheta":0.5,"classrooms":["C","D"],"studentTrueClassroom":"C","exampleSet":"second","trial_type":"survey-html-form","trial_index":77,"time_elapsed":1146103,"internal_node_id":"0.0-71.0-0.0","params":{"nStudents":24,"maxFlips":30,"completionMinutes":45,"basePay":8,"maxBonus":9,"perTrialBonus":0.5,"perTrialBonusThreshold":0.05,"exampleCost":0.01},"classroomParams":{"A":{"a":1,"b":4},"B":{"a":4,"b":1},"C":{"a":2,"b":8},"D":{"a":8,"b":2}},"conditions":["nonSeqFull","nonSeqPartial","seqNoFeedback","seqFeedback"],"classroomPairings":[["A","B"],["C","D"]],"coinWeights":[0.2,0.5,0.8],"subjectId":"AMLWYWZOMONLB","assignmentId":"3LEP4MGT3HM6XYLF87P2OG5C9WCBDN","hitId":"3SD15I2WD2G0NA4TSPXGB81L5S7630","url":"https://gershmanlab.com/experiments/alicia/teaching/experiment/?hitId=3SD15I2WD2G0NA4TSPXGB81L5S7630&workerId=AMLWYWZOMONLB&assignmentId=3LEP4MGT3HM6XYLF87P2OG5C9WCBDN&a=T4EL9&tp_a=T4EL9&b=3LEP4MGT3HM6XYLF87P2OG5C9WCBDN&tp_b=3LEP4MGT3HM6XYLF87P2OG5C9WCBDN&c=365799&tp_c=365799","firstResponseHeads":1,"firstResponseTails":1,"secondResponseHeads":6,"secondResponseTails":0,"totalHeads":7,"totalTails":1,"studentIndex":9,"studentTrueHypers":{"a":2,"b":8},"studentGuess":0.5,"delta":0,"bonus":0.42,"bonusSoFar":3.75,"totalExamples":8},{"rt":20100,"response":{"heads":"1","tails":"4"},"type":"response","condition":"nonSeqFull","trueTheta":0.2,"classrooms":["C","D"],"studentTrueClassroom":"C","exampleSet":"first","trial_type":"survey-html-form","trial_index":83,"time_elapsed":1183618,"internal_node_id":"0.0-77.0-0.0","params":{"nStudents":24,"maxFlips":30,"completionMinutes":45,"basePay":8,"maxBonus":9,"perTrialBonus":0.5,"perTrialBonusThreshold":0.05,"exampleCost":0.01},"classroomParams":{"A":{"a":1,"b":4},"B":{"a":4,"b":1},"C":{"a":2,"b":8},"D":{"a":8,"b":2}},"conditions":["nonSeqFull","nonSeqPartial","seqNoFeedback","seqFeedback"],"classroomPairings":[["A","B"],["C","D"]],"coinWeights":[0.2,0.5,0.8],"subjectId":"AMLWYWZOMONLB","assignmentId":"3LEP4MGT3HM6XYLF87P2OG5C9WCBDN","hitId":"3SD15I2WD2G0NA4TSPXGB81L5S7630","url":"https://gershmanlab.com/experiments/alicia/teaching/experiment/?hitId=3SD15I2WD2G0NA4TSPXGB81L5S7630&workerId=AMLWYWZOMONLB&assignmentId=3LEP4MGT3HM6XYLF87P2OG5C9WCBDN&a=T4EL9&tp_a=T4EL9&b=3LEP4MGT3HM6XYLF87P2OG5C9WCBDN&tp_b=3LEP4MGT3HM6XYLF87P2OG5C9WCBDN&c=365799&tp_c=365799","heads":1,"tails":4,"studentIndex":10,"studentTrueHypers":{"a":2,"b":8},"studentGuess":0.2,"delta":0,"totalExamples":5,"bonus":0.45,"bonusSoFar":4.2},{"rt":12363,"response":{"heads":"4","tails":"1"},"type":"response","condition":"seqFeedback","trueTheta":0.8,"classrooms":["C","D"],"studentTrueClassroom":"D","exampleSet":"first","trial_type":"survey-html-form","trial_index":89,"time_elapsed":1209424,"internal_node_id":"0.0-83.0-0.0","params":{"nStudents":24,"maxFlips":30,"completionMinutes":45,"basePay":8,"maxBonus":9,"perTrialBonus":0.5,"perTrialBonusThreshold":0.05,"exampleCost":0.01},"classroomParams":{"A":{"a":1,"b":4},"B":{"a":4,"b":1},"C":{"a":2,"b":8},"D":{"a":8,"b":2}},"conditions":["nonSeqFull","nonSeqPartial","seqNoFeedback","seqFeedback"],"classroomPairings":[["A","B"],["C","D"]],"coinWeights":[0.2,0.5,0.8],"subjectId":"AMLWYWZOMONLB","assignmentId":"3LEP4MGT3HM6XYLF87P2OG5C9WCBDN","hitId":"3SD15I2WD2G0NA4TSPXGB81L5S7630","url":"https://gershmanlab.com/experiments/alicia/teaching/experiment/?hitId=3SD15I2WD2G0NA4TSPXGB81L5S7630&workerId=AMLWYWZOMONLB&assignmentId=3LEP4MGT3HM6XYLF87P2OG5C9WCBDN&a=T4EL9&tp_a=T4EL9&b=3LEP4MGT3HM6XYLF87P2OG5C9WCBDN&tp_b=3LEP4MGT3HM6XYLF87P2OG5C9WCBDN&c=365799&tp_c=365799","heads":4,"tails":1,"studentIndex":11,"studentTrueHypers":{"a":8,"b":2},"studentGuess":0.8,"delta":0,"totalExamples":5,"bonusSoFar":4.2},{"rt":8778,"response":{"heads":"0","tails":"0"},"type":"response","condition":"seqFeedback","trueTheta":0.8,"classrooms":["C","D"],"studentTrueClassroom":"D","exampleSet":"second","trial_type":"survey-html-form","trial_index":93,"time_elapsed":1228438,"internal_node_id":"0.0-87.0-0.0","params":{"nStudents":24,"maxFlips":30,"completionMinutes":45,"basePay":8,"maxBonus":9,"perTrialBonus":0.5,"perTrialBonusThreshold":0.05,"exampleCost":0.01},"classroomParams":{"A":{"a":1,"b":4},"B":{"a":4,"b":1},"C":{"a":2,"b":8},"D":{"a":8,"b":2}},"conditions":["nonSeqFull","nonSeqPartial","seqNoFeedback","seqFeedback"],"classroomPairings":[["A","B"],["C","D"]],"coinWeights":[0.2,0.5,0.8],"subjectId":"AMLWYWZOMONLB","assignmentId":"3LEP4MGT3HM6XYLF87P2OG5C9WCBDN","hitId":"3SD15I2WD2G0NA4TSPXGB81L5S7630","url":"https://gershmanlab.com/experiments/alicia/teaching/experiment/?hitId=3SD15I2WD2G0NA4TSPXGB81L5S7630&workerId=AMLWYWZOMONLB&assignmentId=3LEP4MGT3HM6XYLF87P2OG5C9WCBDN&a=T4EL9&tp_a=T4EL9&b=3LEP4MGT3HM6XYLF87P2OG5C9WCBDN&tp_b=3LEP4MGT3HM6XYLF87P2OG5C9WCBDN&c=365799&tp_c=365799","firstResponseHeads":4,"firstResponseTails":1,"secondResponseHeads":0,"secondResponseTails":0,"totalHeads":4,"totalTails":1,"studentIndex":11,"studentTrueHypers":{"a":8,"b":2},"studentGuess":0.8,"delta":0,"bonus":0.45,"bonusSoFar":4.65,"totalExamples":5},{"rt":522,"response":{"heads":"0","tails":"0"},"type":"response","condition":"seqFeedback","trueTheta":0.8,"classrooms":["C","D"],"studentTrueClassroom":"D","exampleSet":"second","trial_type":"survey-html-form","trial_index":94,"time_elapsed":1228961,"internal_node_id":"0.0-87.1-0.1","params":{"nStudents":24,"maxFlips":30,"completionMinutes":45,"basePay":8,"maxBonus":9,"perTrialBonus":0.5,"perTrialBonusThreshold":0.05,"exampleCost":0.01},"classroomParams":{"A":{"a":1,"b":4},"B":{"a":4,"b":1},"C":{"a":2,"b":8},"D":{"a":8,"b":2}},"conditions":["nonSeqFull","nonSeqPartial","seqNoFeedback","seqFeedback"],"classroomPairings":[["A","B"],["C","D"]],"coinWeights":[0.2,0.5,0.8],"subjectId":"AMLWYWZOMONLB","assignmentId":"3LEP4MGT3HM6XYLF87P2OG5C9WCBDN","hitId":"3SD15I2WD2G0NA4TSPXGB81L5S7630","url":"https://gershmanlab.com/experiments/alicia/teaching/experiment/?hitId=3SD15I2WD2G0NA4TSPXGB81L5S7630&workerId=AMLWYWZOMONLB&assignmentId=3LEP4MGT3HM6XYLF87P2OG5C9WCBDN&a=T4EL9&tp_a=T4EL9&b=3LEP4MGT3HM6XYLF87P2OG5C9WCBDN&tp_b=3LEP4MGT3HM6XYLF87P2OG5C9WCBDN&c=365799&tp_c=365799","firstResponseHeads":4,"firstResponseTails":1,"secondResponseHeads":0,"secondResponseTails":0,"totalHeads":4,"totalTails":1,"studentIndex":11,"studentTrueHypers":{"a":8,"b":2},"studentGuess":0.8,"delta":0,"bonus":0.45,"bonusSoFar":5.1,"totalExamples":5},{"rt":179,"response":{"heads":"0","tails":"0"},"type":"response","condition":"seqFeedback","trueTheta":0.8,"classrooms":["C","D"],"studentTrueClassroom":"D","exampleSet":"second","trial_type":"survey-html-form","trial_index":95,"time_elapsed":1229141,"internal_node_id":"0.0-87.2-0.2","params":{"nStudents":24,"maxFlips":30,"completionMinutes":45,"basePay":8,"maxBonus":9,"perTrialBonus":0.5,"perTrialBonusThreshold":0.05,"exampleCost":0.01},"classroomParams":{"A":{"a":1,"b":4},"B":{"a":4,"b":1},"C":{"a":2,"b":8},"D":{"a":8,"b":2}},"conditions":["nonSeqFull","nonSeqPartial","seqNoFeedback","seqFeedback"],"classroomPairings":[["A","B"],["C","D"]],"coinWeights":[0.2,0.5,0.8],"subjectId":"AMLWYWZOMONLB","assignmentId":"3LEP4MGT3HM6XYLF87P2OG5C9WCBDN","hitId":"3SD15I2WD2G0NA4TSPXGB81L5S7630","url":"https://gershmanlab.com/experiments/alicia/teaching/experiment/?hitId=3SD15I2WD2G0NA4TSPXGB81L5S7630&workerId=AMLWYWZOMONLB&assignmentId=3LEP4MGT3HM6XYLF87P2OG5C9WCBDN&a=T4EL9&tp_a=T4EL9&b=3LEP4MGT3HM6XYLF87P2OG5C9WCBDN&tp_b=3LEP4MGT3HM6XYLF87P2OG5C9WCBDN&c=365799&tp_c=365799","firstResponseHeads":4,"firstResponseTails":1,"secondResponseHeads":0,"secondResponseTails":0,"totalHeads":4,"totalTails":1,"studentIndex":11,"studentTrueHypers":{"a":8,"b":2},"studentGuess":0.8,"delta":0,"bonus":0.45,"bonusSoFar":5.55,"totalExamples":5},{"rt":2639,"response":{"heads":"4","tails":"1"},"type":"response","condition":"seqFeedback","trueTheta":0.8,"classrooms":["C","D"],"studentTrueClassroom":"D","exampleSet":"second","trial_type":"survey-html-form","trial_index":96,"time_elapsed":1231781,"internal_node_id":"0.0-87.3-0.3","params":{"nStudents":24,"maxFlips":30,"completionMinutes":45,"basePay":8,"maxBonus":9,"perTrialBonus":0.5,"perTrialBonusThreshold":0.05,"exampleCost":0.01},"classroomParams":{"A":{"a":1,"b":4},"B":{"a":4,"b":1},"C":{"a":2,"b":8},"D":{"a":8,"b":2}},"conditions":["nonSeqFull","nonSeqPartial","seqNoFeedback","seqFeedback"],"classroomPairings":[["A","B"],["C","D"]],"coinWeights":[0.2,0.5,0.8],"subjectId":"AMLWYWZOMONLB","assignmentId":"3LEP4MGT3HM6XYLF87P2OG5C9WCBDN","hitId":"3SD15I2WD2G0NA4TSPXGB81L5S7630","url":"https://gershmanlab.com/experiments/alicia/teaching/experiment/?hitId=3SD15I2WD2G0NA4TSPXGB81L5S7630&workerId=AMLWYWZOMONLB&assignmentId=3LEP4MGT3HM6XYLF87P2OG5C9WCBDN&a=T4EL9&tp_a=T4EL9&b=3LEP4MGT3HM6XYLF87P2OG5C9WCBDN&tp_b=3LEP4MGT3HM6XYLF87P2OG5C9WCBDN&c=365799&tp_c=365799","firstResponseHeads":4,"firstResponseTails":1,"secondResponseHeads":4,"secondResponseTails":1,"totalHeads":8,"totalTails":2,"studentIndex":11,"studentTrueHypers":{"a":8,"b":2},"studentGuess":0.8,"delta":0,"bonus":0.4,"bonusSoFar":5.95,"totalExamples":10},{"rt":17544,"response":{"heads":"4","tails":"1"},"type":"response","condition":"seqNoFeedback","trueTheta":0.8,"classrooms":["C","D"],"studentTrueClassroom":"D","exampleSet":"first","trial_type":"survey-html-form","trial_index":102,"time_elapsed":1266445,"internal_node_id":"0.0-93.0-0.0","params":{"nStudents":24,"maxFlips":30,"completionMinutes":45,"basePay":8,"maxBonus":9,"perTrialBonus":0.5,"perTrialBonusThreshold":0.05,"exampleCost":0.01},"classroomParams":{"A":{"a":1,"b":4},"B":{"a":4,"b":1},"C":{"a":2,"b":8},"D":{"a":8,"b":2}},"conditions":["nonSeqFull","nonSeqPartial","seqNoFeedback","seqFeedback"],"classroomPairings":[["A","B"],["C","D"]],"coinWeights":[0.2,0.5,0.8],"subjectId":"AMLWYWZOMONLB","assignmentId":"3LEP4MGT3HM6XYLF87P2OG5C9WCBDN","hitId":"3SD15I2WD2G0NA4TSPXGB81L5S7630","url":"https://gershmanlab.com/experiments/alicia/teaching/experiment/?hitId=3SD15I2WD2G0NA4TSPXGB81L5S7630&workerId=AMLWYWZOMONLB&assignmentId=3LEP4MGT3HM6XYLF87P2OG5C9WCBDN&a=T4EL9&tp_a=T4EL9&b=3LEP4MGT3HM6XYLF87P2OG5C9WCBDN&tp_b=3LEP4MGT3HM6XYLF87P2OG5C9WCBDN&c=365799&tp_c=365799","heads":4,"tails":1,"studentIndex":12,"studentTrueHypers":{"a":8,"b":2},"studentGuess":0.8,"delta":0,"totalExamples":5,"bonusSoFar":5.95},{"rt":9221,"response":{"heads":"4","tails":"1"},"type":"response","condition":"seqNoFeedback","trueTheta":0.8,"classrooms":["C","D"],"studentTrueClassroom":"D","exampleSet":"second","trial_type":"survey-html-form","trial_index":105,"time_elapsed":1282672,"internal_node_id":"0.0-96.0-0.0","params":{"nStudents":24,"maxFlips":30,"completionMinutes":45,"basePay":8,"maxBonus":9,"perTrialBonus":0.5,"perTrialBonusThreshold":0.05,"exampleCost":0.01},"classroomParams":{"A":{"a":1,"b":4},"B":{"a":4,"b":1},"C":{"a":2,"b":8},"D":{"a":8,"b":2}},"conditions":["nonSeqFull","nonSeqPartial","seqNoFeedback","seqFeedback"],"classroomPairings":[["A","B"],["C","D"]],"coinWeights":[0.2,0.5,0.8],"subjectId":"AMLWYWZOMONLB","assignmentId":"3LEP4MGT3HM6XYLF87P2OG5C9WCBDN","hitId":"3SD15I2WD2G0NA4TSPXGB81L5S7630","url":"https://gershmanlab.com/experiments/alicia/teaching/experiment/?hitId=3SD15I2WD2G0NA4TSPXGB81L5S7630&workerId=AMLWYWZOMONLB&assignmentId=3LEP4MGT3HM6XYLF87P2OG5C9WCBDN&a=T4EL9&tp_a=T4EL9&b=3LEP4MGT3HM6XYLF87P2OG5C9WCBDN&tp_b=3LEP4MGT3HM6XYLF87P2OG5C9WCBDN&c=365799&tp_c=365799","firstResponseHeads":4,"firstResponseTails":1,"secondResponseHeads":4,"secondResponseTails":1,"totalHeads":8,"totalTails":2,"studentIndex":12,"studentTrueHypers":{"a":8,"b":2},"studentGuess":0.8,"delta":0,"bonus":0.4,"bonusSoFar":6.35,"totalExamples":10},{"rt":11039,"response":{"heads":"4","tails":"1"},"type":"response","condition":"seqFeedback","trueTheta":0.8,"classrooms":["A","B"],"studentTrueClassroom":"A","exampleSet":"first","trial_type":"survey-html-form","trial_index":111,"time_elapsed":1307892,"internal_node_id":"0.0-102.0-0.0","params":{"nStudents":24,"maxFlips":30,"completionMinutes":45,"basePay":8,"maxBonus":9,"perTrialBonus":0.5,"perTrialBonusThreshold":0.05,"exampleCost":0.01},"classroomParams":{"A":{"a":1,"b":4},"B":{"a":4,"b":1},"C":{"a":2,"b":8},"D":{"a":8,"b":2}},"conditions":["nonSeqFull","nonSeqPartial","seqNoFeedback","seqFeedback"],"classroomPairings":[["A","B"],["C","D"]],"coinWeights":[0.2,0.5,0.8],"subjectId":"AMLWYWZOMONLB","assignmentId":"3LEP4MGT3HM6XYLF87P2OG5C9WCBDN","hitId":"3SD15I2WD2G0NA4TSPXGB81L5S7630","url":"https://gershmanlab.com/experiments/alicia/teaching/experiment/?hitId=3SD15I2WD2G0NA4TSPXGB81L5S7630&workerId=AMLWYWZOMONLB&assignmentId=3LEP4MGT3HM6XYLF87P2OG5C9WCBDN&a=T4EL9&tp_a=T4EL9&b=3LEP4MGT3HM6XYLF87P2OG5C9WCBDN&tp_b=3LEP4MGT3HM6XYLF87P2OG5C9WCBDN&c=365799&tp_c=365799","heads":4,"tails":1,"studentIndex":13,"studentTrueHypers":{"a":1,"b":4},"studentGuess":0.5,"delta":0.30000000000000004,"totalExamples":5,"bonusSoFar":6.35},{"rt":38615,"response":{"heads":"4","tails":"1"},"type":"response","condition":"seqFeedback","trueTheta":0.8,"classrooms":["A","B"],"studentTrueClassroom":"A","exampleSet":"second","trial_type":"survey-html-form","trial_index":115,"time_elapsed":1357286,"internal_node_id":"0.0-106.0-0.0","params":{"nStudents":24,"maxFlips":30,"completionMinutes":45,"basePay":8,"maxBonus":9,"perTrialBonus":0.5,"perTrialBonusThreshold":0.05,"exampleCost":0.01},"classroomParams":{"A":{"a":1,"b":4},"B":{"a":4,"b":1},"C":{"a":2,"b":8},"D":{"a":8,"b":2}},"conditions":["nonSeqFull","nonSeqPartial","seqNoFeedback","seqFeedback"],"classroomPairings":[["A","B"],["C","D"]],"coinWeights":[0.2,0.5,0.8],"subjectId":"AMLWYWZOMONLB","assignmentId":"3LEP4MGT3HM6XYLF87P2OG5C9WCBDN","hitId":"3SD15I2WD2G0NA4TSPXGB81L5S7630","url":"https://gershmanlab.com/experiments/alicia/teaching/experiment/?hitId=3SD15I2WD2G0NA4TSPXGB81L5S7630&workerId=AMLWYWZOMONLB&assignmentId=3LEP4MGT3HM6XYLF87P2OG5C9WCBDN&a=T4EL9&tp_a=T4EL9&b=3LEP4MGT3HM6XYLF87P2OG5C9WCBDN&tp_b=3LEP4MGT3HM6XYLF87P2OG5C9WCBDN&c=365799&tp_c=365799","firstResponseHeads":4,"firstResponseTails":1,"secondResponseHeads":4,"secondResponseTails":1,"totalHeads":8,"totalTails":2,"studentIndex":13,"studentTrueHypers":{"a":1,"b":4},"studentGuess":0.6,"delta":0.20000000000000007,"bonus":0,"bonusSoFar":6.35,"totalExamples":10},{"rt":11333,"response":{"heads":"4","tails":"1"},"type":"response","condition":"nonSeqFull","trueTheta":0.8,"classrooms":["C","D"],"studentTrueClassroom":"D","exampleSet":"first","trial_type":"survey-html-form","trial_index":121,"time_elapsed":1384942,"internal_node_id":"0.0-112.0-0.0","params":{"nStudents":24,"maxFlips":30,"completionMinutes":45,"basePay":8,"maxBonus":9,"perTrialBonus":0.5,"perTrialBonusThreshold":0.05,"exampleCost":0.01},"classroomParams":{"A":{"a":1,"b":4},"B":{"a":4,"b":1},"C":{"a":2,"b":8},"D":{"a":8,"b":2}},"conditions":["nonSeqFull","nonSeqPartial","seqNoFeedback","seqFeedback"],"classroomPairings":[["A","B"],["C","D"]],"coinWeights":[0.2,0.5,0.8],"subjectId":"AMLWYWZOMONLB","assignmentId":"3LEP4MGT3HM6XYLF87P2OG5C9WCBDN","hitId":"3SD15I2WD2G0NA4TSPXGB81L5S7630","url":"https://gershmanlab.com/experiments/alicia/teaching/experiment/?hitId=3SD15I2WD2G0NA4TSPXGB81L5S7630&workerId=AMLWYWZOMONLB&assignmentId=3LEP4MGT3HM6XYLF87P2OG5C9WCBDN&a=T4EL9&tp_a=T4EL9&b=3LEP4MGT3HM6XYLF87P2OG5C9WCBDN&tp_b=3LEP4MGT3HM6XYLF87P2OG5C9WCBDN&c=365799&tp_c=365799","heads":4,"tails":1,"studentIndex":14,"studentTrueHypers":{"a":8,"b":2},"studentGuess":0.8,"delta":0,"totalExamples":5,"bonus":0.45,"bonusSoFar":6.8},{"rt":13159,"response":{"heads":"01","tails":"4"},"type":"response","condition":"seqFeedback","trueTheta":0.2,"classrooms":["A","B"],"studentTrueClassroom":"A","exampleSet":"first","trial_type":"survey-html-form","trial_index":127,"time_elapsed":1411787,"internal_node_id":"0.0-118.0-0.0","params":{"nStudents":24,"maxFlips":30,"completionMinutes":45,"basePay":8,"maxBonus":9,"perTrialBonus":0.5,"perTrialBonusThreshold":0.05,"exampleCost":0.01},"classroomParams":{"A":{"a":1,"b":4},"B":{"a":4,"b":1},"C":{"a":2,"b":8},"D":{"a":8,"b":2}},"conditions":["nonSeqFull","nonSeqPartial","seqNoFeedback","seqFeedback"],"classroomPairings":[["A","B"],["C","D"]],"coinWeights":[0.2,0.5,0.8],"subjectId":"AMLWYWZOMONLB","assignmentId":"3LEP4MGT3HM6XYLF87P2OG5C9WCBDN","hitId":"3SD15I2WD2G0NA4TSPXGB81L5S7630","url":"https://gershmanlab.com/experiments/alicia/teaching/experiment/?hitId=3SD15I2WD2G0NA4TSPXGB81L5S7630&workerId=AMLWYWZOMONLB&assignmentId=3LEP4MGT3HM6XYLF87P2OG5C9WCBDN&a=T4EL9&tp_a=T4EL9&b=3LEP4MGT3HM6XYLF87P2OG5C9WCBDN&tp_b=3LEP4MGT3HM6XYLF87P2OG5C9WCBDN&c=365799&tp_c=365799","heads":1,"tails":4,"studentIndex":15,"studentTrueHypers":{"a":1,"b":4},"studentGuess":0.2,"delta":0,"totalExamples":5,"bonusSoFar":6.8},{"rt":3190,"response":{"heads":"1","tails":"4"},"type":"response","condition":"seqFeedback","trueTheta":0.2,"classrooms":["A","B"],"studentTrueClassroom":"A","exampleSet":"second","trial_type":"survey-html-form","trial_index":131,"time_elapsed":1425223,"internal_node_id":"0.0-122.0-0.0","params":{"nStudents":24,"maxFlips":30,"completionMinutes":45,"basePay":8,"maxBonus":9,"perTrialBonus":0.5,"perTrialBonusThreshold":0.05,"exampleCost":0.01},"classroomParams":{"A":{"a":1,"b":4},"B":{"a":4,"b":1},"C":{"a":2,"b":8},"D":{"a":8,"b":2}},"conditions":["nonSeqFull","nonSeqPartial","seqNoFeedback","seqFeedback"],"classroomPairings":[["A","B"],["C","D"]],"coinWeights":[0.2,0.5,0.8],"subjectId":"AMLWYWZOMONLB","assignmentId":"3LEP4MGT3HM6XYLF87P2OG5C9WCBDN","hitId":"3SD15I2WD2G0NA4TSPXGB81L5S7630","url":"https://gershmanlab.com/experiments/alicia/teaching/experiment/?hitId=3SD15I2WD2G0NA4TSPXGB81L5S7630&workerId=AMLWYWZOMONLB&assignmentId=3LEP4MGT3HM6XYLF87P2OG5C9WCBDN&a=T4EL9&tp_a=T4EL9&b=3LEP4MGT3HM6XYLF87P2OG5C9WCBDN&tp_b=3LEP4MGT3HM6XYLF87P2OG5C9WCBDN&c=365799&tp_c=365799","firstResponseHeads":1,"firstResponseTails":4,"secondResponseHeads":1,"secondResponseTails":4,"totalHeads":2,"totalTails":8,"studentIndex":15,"studentTrueHypers":{"a":1,"b":4},"studentGuess":0.2,"delta":0,"bonus":0.4,"bonusSoFar":7.2,"totalExamples":10},{"rt":25078,"response":{"heads":"4","tails":"1"},"type":"response","condition":"nonSeqPartial","trueTheta":0.5,"classrooms":["A","B"],"studentTrueClassroom":"A","exampleSet":"first","trial_type":"survey-html-form","trial_index":137,"time_elapsed":1469514,"internal_node_id":"0.0-128.0-0.0","params":{"nStudents":24,"maxFlips":30,"completionMinutes":45,"basePay":8,"maxBonus":9,"perTrialBonus":0.5,"perTrialBonusThreshold":0.05,"exampleCost":0.01},"classroomParams":{"A":{"a":1,"b":4},"B":{"a":4,"b":1},"C":{"a":2,"b":8},"D":{"a":8,"b":2}},"conditions":["nonSeqFull","nonSeqPartial","seqNoFeedback","seqFeedback"],"classroomPairings":[["A","B"],["C","D"]],"coinWeights":[0.2,0.5,0.8],"subjectId":"AMLWYWZOMONLB","assignmentId":"3LEP4MGT3HM6XYLF87P2OG5C9WCBDN","hitId":"3SD15I2WD2G0NA4TSPXGB81L5S7630","url":"https://gershmanlab.com/experiments/alicia/teaching/experiment/?hitId=3SD15I2WD2G0NA4TSPXGB81L5S7630&workerId=AMLWYWZOMONLB&assignmentId=3LEP4MGT3HM6XYLF87P2OG5C9WCBDN&a=T4EL9&tp_a=T4EL9&b=3LEP4MGT3HM6XYLF87P2OG5C9WCBDN&tp_b=3LEP4MGT3HM6XYLF87P2OG5C9WCBDN&c=365799&tp_c=365799","heads":4,"tails":1,"studentIndex":16,"studentTrueHypers":{"a":1,"b":4},"studentGuess":0.5,"delta":0,"totalExamples":5,"bonus":0.45,"bonusSoFar":7.65},{"rt":17306,"response":{"heads":"6","tails":"0"},"type":"response","condition":"seqNoFeedback","trueTheta":0.5,"classrooms":["C","D"],"studentTrueClassroom":"D","exampleSet":"first","trial_type":"survey-html-form","trial_index":143,"time_elapsed":1505872,"internal_node_id":"0.0-134.0-0.0","params":{"nStudents":24,"maxFlips":30,"completionMinutes":45,"basePay":8,"maxBonus":9,"perTrialBonus":0.5,"perTrialBonusThreshold":0.05,"exampleCost":0.01},"classroomParams":{"A":{"a":1,"b":4},"B":{"a":4,"b":1},"C":{"a":2,"b":8},"D":{"a":8,"b":2}},"conditions":["nonSeqFull","nonSeqPartial","seqNoFeedback","seqFeedback"],"classroomPairings":[["A","B"],["C","D"]],"coinWeights":[0.2,0.5,0.8],"subjectId":"AMLWYWZOMONLB","assignmentId":"3LEP4MGT3HM6XYLF87P2OG5C9WCBDN","hitId":"3SD15I2WD2G0NA4TSPXGB81L5S7630","url":"https://gershmanlab.com/experiments/alicia/teaching/experiment/?hitId=3SD15I2WD2G0NA4TSPXGB81L5S7630&workerId=AMLWYWZOMONLB&assignmentId=3LEP4MGT3HM6XYLF87P2OG5C9WCBDN&a=T4EL9&tp_a=T4EL9&b=3LEP4MGT3HM6XYLF87P2OG5C9WCBDN&tp_b=3LEP4MGT3HM6XYLF87P2OG5C9WCBDN&c=365799&tp_c=365799","heads":6,"tails":0,"studentIndex":17,"studentTrueHypers":{"a":8,"b":2},"studentGuess":0.875,"delta":0.375,"totalExamples":6,"bonusSoFar":7.65},{"rt":6807,"response":{"heads":"1","tails":"1"},"type":"response","condition":"seqNoFeedback","trueTheta":0.5,"classrooms":["C","D"],"studentTrueClassroom":"D","exampleSet":"second","trial_type":"survey-html-form","trial_index":146,"time_elapsed":1518687,"internal_node_id":"0.0-137.0-0.0","params":{"nStudents":24,"maxFlips":30,"completionMinutes":45,"basePay":8,"maxBonus":9,"perTrialBonus":0.5,"perTrialBonusThreshold":0.05,"exampleCost":0.01},"classroomParams":{"A":{"a":1,"b":4},"B":{"a":4,"b":1},"C":{"a":2,"b":8},"D":{"a":8,"b":2}},"conditions":["nonSeqFull","nonSeqPartial","seqNoFeedback","seqFeedback"],"classroomPairings":[["A","B"],["C","D"]],"coinWeights":[0.2,0.5,0.8],"subjectId":"AMLWYWZOMONLB","assignmentId":"3LEP4MGT3HM6XYLF87P2OG5C9WCBDN","hitId":"3SD15I2WD2G0NA4TSPXGB81L5S7630","url":"https://gershmanlab.com/experiments/alicia/teaching/experiment/?hitId=3SD15I2WD2G0NA4TSPXGB81L5S7630&workerId=AMLWYWZOMONLB&assignmentId=3LEP4MGT3HM6XYLF87P2OG5C9WCBDN&a=T4EL9&tp_a=T4EL9&b=3LEP4MGT3HM6XYLF87P2OG5C9WCBDN&tp_b=3LEP4MGT3HM6XYLF87P2OG5C9WCBDN&c=365799&tp_c=365799","firstResponseHeads":6,"firstResponseTails":0,"secondResponseHeads":1,"secondResponseTails":1,"totalHeads":7,"totalTails":1,"studentIndex":17,"studentTrueHypers":{"a":8,"b":2},"studentGuess":0.8333333333333334,"delta":0.33333333333333337,"bonus":0,"bonusSoFar":7.65,"totalExamples":8},{"rt":17206,"response":{"heads":"4","tails":"1"},"type":"response","condition":"seqNoFeedback","trueTheta":0.8,"classrooms":["A","B"],"studentTrueClassroom":"A","exampleSet":"first","trial_type":"survey-html-form","trial_index":152,"time_elapsed":1561615,"internal_node_id":"0.0-143.0-0.0","params":{"nStudents":24,"maxFlips":30,"completionMinutes":45,"basePay":8,"maxBonus":9,"perTrialBonus":0.5,"perTrialBonusThreshold":0.05,"exampleCost":0.01},"classroomParams":{"A":{"a":1,"b":4},"B":{"a":4,"b":1},"C":{"a":2,"b":8},"D":{"a":8,"b":2}},"conditions":["nonSeqFull","nonSeqPartial","seqNoFeedback","seqFeedback"],"classroomPairings":[["A","B"],["C","D"]],"coinWeights":[0.2,0.5,0.8],"subjectId":"AMLWYWZOMONLB","assignmentId":"3LEP4MGT3HM6XYLF87P2OG5C9WCBDN","hitId":"3SD15I2WD2G0NA4TSPXGB81L5S7630","url":"https://gershmanlab.com/experiments/alicia/teaching/experiment/?hitId=3SD15I2WD2G0NA4TSPXGB81L5S7630&workerId=AMLWYWZOMONLB&assignmentId=3LEP4MGT3HM6XYLF87P2OG5C9WCBDN&a=T4EL9&tp_a=T4EL9&b=3LEP4MGT3HM6XYLF87P2OG5C9WCBDN&tp_b=3LEP4MGT3HM6XYLF87P2OG5C9WCBDN&c=365799&tp_c=365799","heads":4,"tails":1,"studentIndex":18,"studentTrueHypers":{"a":1,"b":4},"studentGuess":0.5,"delta":0.30000000000000004,"totalExamples":5,"bonusSoFar":7.65},{"rt":8381,"response":{"heads":"4","tails":"1"},"type":"response","condition":"seqNoFeedback","trueTheta":0.8,"classrooms":["A","B"],"studentTrueClassroom":"A","exampleSet":"second","trial_type":"survey-html-form","trial_index":155,"time_elapsed":1577004,"internal_node_id":"0.0-146.0-0.0","params":{"nStudents":24,"maxFlips":30,"completionMinutes":45,"basePay":8,"maxBonus":9,"perTrialBonus":0.5,"perTrialBonusThreshold":0.05,"exampleCost":0.01},"classroomParams":{"A":{"a":1,"b":4},"B":{"a":4,"b":1},"C":{"a":2,"b":8},"D":{"a":8,"b":2}},"conditions":["nonSeqFull","nonSeqPartial","seqNoFeedback","seqFeedback"],"classroomPairings":[["A","B"],["C","D"]],"coinWeights":[0.2,0.5,0.8],"subjectId":"AMLWYWZOMONLB","assignmentId":"3LEP4MGT3HM6XYLF87P2OG5C9WCBDN","hitId":"3SD15I2WD2G0NA4TSPXGB81L5S7630","url":"https://gershmanlab.com/experiments/alicia/teaching/experiment/?hitId=3SD15I2WD2G0NA4TSPXGB81L5S7630&workerId=AMLWYWZOMONLB&assignmentId=3LEP4MGT3HM6XYLF87P2OG5C9WCBDN&a=T4EL9&tp_a=T4EL9&b=3LEP4MGT3HM6XYLF87P2OG5C9WCBDN&tp_b=3LEP4MGT3HM6XYLF87P2OG5C9WCBDN&c=365799&tp_c=365799","firstResponseHeads":4,"firstResponseTails":1,"secondResponseHeads":4,"secondResponseTails":1,"totalHeads":8,"totalTails":2,"studentIndex":18,"studentTrueHypers":{"a":1,"b":4},"studentGuess":0.6,"delta":0.20000000000000007,"bonus":0,"bonusSoFar":7.65,"totalExamples":10},{"rt":22587,"response":{"heads":"0","tails":"15"},"type":"response","condition":"seqNoFeedback","trueTheta":0.2,"classrooms":["A","B"],"studentTrueClassroom":"B","exampleSet":"first","trial_type":"survey-html-form","trial_index":161,"time_elapsed":1619890,"internal_node_id":"0.0-152.0-0.0","params":{"nStudents":24,"maxFlips":30,"completionMinutes":45,"basePay":8,"maxBonus":9,"perTrialBonus":0.5,"perTrialBonusThreshold":0.05,"exampleCost":0.01},"classroomParams":{"A":{"a":1,"b":4},"B":{"a":4,"b":1},"C":{"a":2,"b":8},"D":{"a":8,"b":2}},"conditions":["nonSeqFull","nonSeqPartial","seqNoFeedback","seqFeedback"],"classroomPairings":[["A","B"],["C","D"]],"coinWeights":[0.2,0.5,0.8],"subjectId":"AMLWYWZOMONLB","assignmentId":"3LEP4MGT3HM6XYLF87P2OG5C9WCBDN","hitId":"3SD15I2WD2G0NA4TSPXGB81L5S7630","url":"https://gershmanlab.com/experiments/alicia/teaching/experiment/?hitId=3SD15I2WD2G0NA4TSPXGB81L5S7630&workerId=AMLWYWZOMONLB&assignmentId=3LEP4MGT3HM6XYLF87P2OG5C9WCBDN&a=T4EL9&tp_a=T4EL9&b=3LEP4MGT3HM6XYLF87P2OG5C9WCBDN&tp_b=3LEP4MGT3HM6XYLF87P2OG5C9WCBDN&c=365799&tp_c=365799","heads":0,"tails":15,"studentIndex":19,"studentTrueHypers":{"a":4,"b":1},"studentGuess":0.2,"delta":0,"totalExamples":15,"bonusSoFar":7.65},{"rt":15287,"response":{"heads":"4","tails":"0"},"type":"response","condition":"seqNoFeedback","trueTheta":0.2,"classrooms":["A","B"],"studentTrueClassroom":"B","exampleSet":"second","trial_type":"survey-html-form","trial_index":164,"time_elapsed":1641182,"internal_node_id":"0.0-155.0-0.0","params":{"nStudents":24,"maxFlips":30,"completionMinutes":45,"basePay":8,"maxBonus":9,"perTrialBonus":0.5,"perTrialBonusThreshold":0.05,"exampleCost":0.01},"classroomParams":{"A":{"a":1,"b":4},"B":{"a":4,"b":1},"C":{"a":2,"b":8},"D":{"a":8,"b":2}},"conditions":["nonSeqFull","nonSeqPartial","seqNoFeedback","seqFeedback"],"classroomPairings":[["A","B"],["C","D"]],"coinWeights":[0.2,0.5,0.8],"subjectId":"AMLWYWZOMONLB","assignmentId":"3LEP4MGT3HM6XYLF87P2OG5C9WCBDN","hitId":"3SD15I2WD2G0NA4TSPXGB81L5S7630","url":"https://gershmanlab.com/experiments/alicia/teaching/experiment/?hitId=3SD15I2WD2G0NA4TSPXGB81L5S7630&workerId=AMLWYWZOMONLB&assignmentId=3LEP4MGT3HM6XYLF87P2OG5C9WCBDN&a=T4EL9&tp_a=T4EL9&b=3LEP4MGT3HM6XYLF87P2OG5C9WCBDN&tp_b=3LEP4MGT3HM6XYLF87P2OG5C9WCBDN&c=365799&tp_c=365799","firstResponseHeads":0,"firstResponseTails":15,"secondResponseHeads":4,"secondResponseTails":0,"totalHeads":4,"totalTails":15,"studentIndex":19,"studentTrueHypers":{"a":4,"b":1},"studentGuess":0.3333333333333333,"delta":0.1333333333333333,"bonus":0,"bonusSoFar":7.65,"totalExamples":19},{"rt":11113,"response":{"heads":"1","tails":"4"},"type":"response","condition":"seqNoFeedback","trueTheta":0.2,"classrooms":["C","D"],"studentTrueClassroom":"C","exampleSet":"first","trial_type":"survey-html-form","trial_index":170,"time_elapsed":1670805,"internal_node_id":"0.0-161.0-0.0","params":{"nStudents":24,"maxFlips":30,"completionMinutes":45,"basePay":8,"maxBonus":9,"perTrialBonus":0.5,"perTrialBonusThreshold":0.05,"exampleCost":0.01},"classroomParams":{"A":{"a":1,"b":4},"B":{"a":4,"b":1},"C":{"a":2,"b":8},"D":{"a":8,"b":2}},"conditions":["nonSeqFull","nonSeqPartial","seqNoFeedback","seqFeedback"],"classroomPairings":[["A","B"],["C","D"]],"coinWeights":[0.2,0.5,0.8],"subjectId":"AMLWYWZOMONLB","assignmentId":"3LEP4MGT3HM6XYLF87P2OG5C9WCBDN","hitId":"3SD15I2WD2G0NA4TSPXGB81L5S7630","url":"https://gershmanlab.com/experiments/alicia/teaching/experiment/?hitId=3SD15I2WD2G0NA4TSPXGB81L5S7630&workerId=AMLWYWZOMONLB&assignmentId=3LEP4MGT3HM6XYLF87P2OG5C9WCBDN&a=T4EL9&tp_a=T4EL9&b=3LEP4MGT3HM6XYLF87P2OG5C9WCBDN&tp_b=3LEP4MGT3HM6XYLF87P2OG5C9WCBDN&c=365799&tp_c=365799","heads":1,"tails":4,"studentIndex":20,"studentTrueHypers":{"a":2,"b":8},"studentGuess":0.2,"delta":0,"totalExamples":5,"bonusSoFar":7.65},{"rt":4924,"response":{"heads":"1","tails":"4"},"type":"response","condition":"seqNoFeedback","trueTheta":0.2,"classrooms":["C","D"],"studentTrueClassroom":"C","exampleSet":"second","trial_type":"survey-html-form","trial_index":173,"time_elapsed":1681734,"internal_node_id":"0.0-164.0-0.0","params":{"nStudents":24,"maxFlips":30,"completionMinutes":45,"basePay":8,"maxBonus":9,"perTrialBonus":0.5,"perTrialBonusThreshold":0.05,"exampleCost":0.01},"classroomParams":{"A":{"a":1,"b":4},"B":{"a":4,"b":1},"C":{"a":2,"b":8},"D":{"a":8,"b":2}},"conditions":["nonSeqFull","nonSeqPartial","seqNoFeedback","seqFeedback"],"classroomPairings":[["A","B"],["C","D"]],"coinWeights":[0.2,0.5,0.8],"subjectId":"AMLWYWZOMONLB","assignmentId":"3LEP4MGT3HM6XYLF87P2OG5C9WCBDN","hitId":"3SD15I2WD2G0NA4TSPXGB81L5S7630","url":"https://gershmanlab.com/experiments/alicia/teaching/experiment/?hitId=3SD15I2WD2G0NA4TSPXGB81L5S7630&workerId=AMLWYWZOMONLB&assignmentId=3LEP4MGT3HM6XYLF87P2OG5C9WCBDN&a=T4EL9&tp_a=T4EL9&b=3LEP4MGT3HM6XYLF87P2OG5C9WCBDN&tp_b=3LEP4MGT3HM6XYLF87P2OG5C9WCBDN&c=365799&tp_c=365799","firstResponseHeads":1,"firstResponseTails":4,"secondResponseHeads":1,"secondResponseTails":4,"totalHeads":2,"totalTails":8,"studentIndex":20,"studentTrueHypers":{"a":2,"b":8},"studentGuess":0.2,"delta":0,"bonus":0.4,"bonusSoFar":8.05,"totalExamples":10},{"rt":8433,"response":{"heads":"6","tails":"0"},"type":"response","condition":"nonSeqPartial","trueTheta":0.5,"classrooms":["C","D"],"studentTrueClassroom":"D","exampleSet":"first","trial_type":"survey-html-form","trial_index":179,"time_elapsed":1708833,"internal_node_id":"0.0-170.0-0.0","params":{"nStudents":24,"maxFlips":30,"completionMinutes":45,"basePay":8,"maxBonus":9,"perTrialBonus":0.5,"perTrialBonusThreshold":0.05,"exampleCost":0.01},"classroomParams":{"A":{"a":1,"b":4},"B":{"a":4,"b":1},"C":{"a":2,"b":8},"D":{"a":8,"b":2}},"conditions":["nonSeqFull","nonSeqPartial","seqNoFeedback","seqFeedback"],"classroomPairings":[["A","B"],["C","D"]],"coinWeights":[0.2,0.5,0.8],"subjectId":"AMLWYWZOMONLB","assignmentId":"3LEP4MGT3HM6XYLF87P2OG5C9WCBDN","hitId":"3SD15I2WD2G0NA4TSPXGB81L5S7630","url":"https://gershmanlab.com/experiments/alicia/teaching/experiment/?hitId=3SD15I2WD2G0NA4TSPXGB81L5S7630&workerId=AMLWYWZOMONLB&assignmentId=3LEP4MGT3HM6XYLF87P2OG5C9WCBDN&a=T4EL9&tp_a=T4EL9&b=3LEP4MGT3HM6XYLF87P2OG5C9WCBDN&tp_b=3LEP4MGT3HM6XYLF87P2OG5C9WCBDN&c=365799&tp_c=365799","heads":6,"tails":0,"studentIndex":21,"studentTrueHypers":{"a":8,"b":2},"studentGuess":0.875,"delta":0.375,"totalExamples":6,"bonus":0,"bonusSoFar":8.05},{"rt":6260,"response":{"heads":"3","tails":"0"},"type":"response","condition":"seqFeedback","trueTheta":0.5,"classrooms":["A","B"],"studentTrueClassroom":"A","exampleSet":"first","trial_type":"survey-html-form","trial_index":185,"time_elapsed":1737958,"internal_node_id":"0.0-176.0-0.0","params":{"nStudents":24,"maxFlips":30,"completionMinutes":45,"basePay":8,"maxBonus":9,"perTrialBonus":0.5,"perTrialBonusThreshold":0.05,"exampleCost":0.01},"classroomParams":{"A":{"a":1,"b":4},"B":{"a":4,"b":1},"C":{"a":2,"b":8},"D":{"a":8,"b":2}},"conditions":["nonSeqFull","nonSeqPartial","seqNoFeedback","seqFeedback"],"classroomPairings":[["A","B"],["C","D"]],"coinWeights":[0.2,0.5,0.8],"subjectId":"AMLWYWZOMONLB","assignmentId":"3LEP4MGT3HM6XYLF87P2OG5C9WCBDN","hitId":"3SD15I2WD2G0NA4TSPXGB81L5S7630","url":"https://gershmanlab.com/experiments/alicia/teaching/experiment/?hitId=3SD15I2WD2G0NA4TSPXGB81L5S7630&workerId=AMLWYWZOMONLB&assignmentId=3LEP4MGT3HM6XYLF87P2OG5C9WCBDN&a=T4EL9&tp_a=T4EL9&b=3LEP4MGT3HM6XYLF87P2OG5C9WCBDN&tp_b=3LEP4MGT3HM6XYLF87P2OG5C9WCBDN&c=365799&tp_c=365799","heads":3,"tails":0,"studentIndex":22,"studentTrueHypers":{"a":1,"b":4},"studentGuess":0.5,"delta":0,"totalExamples":3,"bonusSoFar":8.05},{"rt":2674,"response":{"heads":"1","tails":"1"},"type":"response","condition":"seqFeedback","trueTheta":0.5,"classrooms":["A","B"],"studentTrueClassroom":"A","exampleSet":"second","trial_type":"survey-html-form","trial_index":189,"time_elapsed":1749688,"internal_node_id":"0.0-180.0-0.0","params":{"nStudents":24,"maxFlips":30,"completionMinutes":45,"basePay":8,"maxBonus":9,"perTrialBonus":0.5,"perTrialBonusThreshold":0.05,"exampleCost":0.01},"classroomParams":{"A":{"a":1,"b":4},"B":{"a":4,"b":1},"C":{"a":2,"b":8},"D":{"a":8,"b":2}},"conditions":["nonSeqFull","nonSeqPartial","seqNoFeedback","seqFeedback"],"classroomPairings":[["A","B"],["C","D"]],"coinWeights":[0.2,0.5,0.8],"subjectId":"AMLWYWZOMONLB","assignmentId":"3LEP4MGT3HM6XYLF87P2OG5C9WCBDN","hitId":"3SD15I2WD2G0NA4TSPXGB81L5S7630","url":"https://gershmanlab.com/experiments/alicia/teaching/experiment/?hitId=3SD15I2WD2G0NA4TSPXGB81L5S7630&workerId=AMLWYWZOMONLB&assignmentId=3LEP4MGT3HM6XYLF87P2OG5C9WCBDN&a=T4EL9&tp_a=T4EL9&b=3LEP4MGT3HM6XYLF87P2OG5C9WCBDN&tp_b=3LEP4MGT3HM6XYLF87P2OG5C9WCBDN&c=365799&tp_c=365799","firstResponseHeads":3,"firstResponseTails":0,"secondResponseHeads":1,"secondResponseTails":1,"totalHeads":4,"totalTails":1,"studentIndex":22,"studentTrueHypers":{"a":1,"b":4},"studentGuess":0.5,"delta":0,"bonus":0.45,"bonusSoFar":8.5,"totalExamples":5},{"rt":6864,"response":{"heads":"1","tails":"4"},"type":"response","condition":"nonSeqPartial","trueTheta":0.8,"classrooms":["C","D"],"studentTrueClassroom":"D","exampleSet":"first","trial_type":"survey-html-form","trial_index":195,"time_elapsed":1774191,"internal_node_id":"0.0-186.0-0.0","params":{"nStudents":24,"maxFlips":30,"completionMinutes":45,"basePay":8,"maxBonus":9,"perTrialBonus":0.5,"perTrialBonusThreshold":0.05,"exampleCost":0.01},"classroomParams":{"A":{"a":1,"b":4},"B":{"a":4,"b":1},"C":{"a":2,"b":8},"D":{"a":8,"b":2}},"conditions":["nonSeqFull","nonSeqPartial","seqNoFeedback","seqFeedback"],"classroomPairings":[["A","B"],["C","D"]],"coinWeights":[0.2,0.5,0.8],"subjectId":"AMLWYWZOMONLB","assignmentId":"3LEP4MGT3HM6XYLF87P2OG5C9WCBDN","hitId":"3SD15I2WD2G0NA4TSPXGB81L5S7630","url":"https://gershmanlab.com/experiments/alicia/teaching/experiment/?hitId=3SD15I2WD2G0NA4TSPXGB81L5S7630&workerId=AMLWYWZOMONLB&assignmentId=3LEP4MGT3HM6XYLF87P2OG5C9WCBDN&a=T4EL9&tp_a=T4EL9&b=3LEP4MGT3HM6XYLF87P2OG5C9WCBDN&tp_b=3LEP4MGT3HM6XYLF87P2OG5C9WCBDN&c=365799&tp_c=365799","heads":1,"tails":4,"studentIndex":23,"studentTrueHypers":{"a":8,"b":2},"studentGuess":0.6,"delta":0.20000000000000007,"totalExamples":5,"bonus":0,"bonusSoFar":8.5},{"rt":55768,"response":{"gender":"female","age":"31","understood":"yes","comments":"It was so frustrating not receiving feedback between sets sometimes, but I guess that's part of the point. This was honestly really fun!"},"type":"response","trial_type":"survey-html-form","trial_index":199,"time_elapsed":1839288,"internal_node_id":"0.0-191.0","params":{"nStudents":24,"maxFlips":30,"completionMinutes":45,"basePay":8,"maxBonus":9,"perTrialBonus":0.5,"perTrialBonusThreshold":0.05,"exampleCost":0.01},"classroomParams":{"A":{"a":1,"b":4},"B":{"a":4,"b":1},"C":{"a":2,"b":8},"D":{"a":8,"b":2}},"conditions":["nonSeqFull","nonSeqPartial","seqNoFeedback","seqFeedback"],"classroomPairings":[["A","B"],["C","D"]],"coinWeights":[0.2,0.5,0.8],"subjectId":"AMLWYWZOMONLB","assignmentId":"3LEP4MGT3HM6XYLF87P2OG5C9WCBDN","hitId":"3SD15I2WD2G0NA4TSPXGB81L5S7630","url":"https://gershmanlab.com/experiments/alicia/teaching/experiment/?hitId=3SD15I2WD2G0NA4TSPXGB81L5S7630&workerId=AMLWYWZOMONLB&assignmentId=3LEP4MGT3HM6XYLF87P2OG5C9WCBDN&a=T4EL9&tp_a=T4EL9&b=3LEP4MGT3HM6XYLF87P2OG5C9WCBDN&tp_b=3LEP4MGT3HM6XYLF87P2OG5C9WCBDN&c=365799&tp_c=365799","totalBonus":8.5}]