[{"rt":46050,"response":{"heads":"8","tails":"2"},"type":"response","condition":"nonSeqPartial","trueTheta":0.8,"classrooms":["C","D"],"studentTrueClassroom":"D","exampleSet":"first","trial_type":"survey-html-form","trial_index":16,"time_elapsed":2700989,"internal_node_id":"0.0-6.0-0.0","params":{"nStudents":24,"maxFlips":30,"completionMinutes":45,"basePay":8,"maxBonus":9,"perTrialBonus":0.5,"perTrialBonusThreshold":0.05,"exampleCost":0.01},"classroomParams":{"A":{"a":1,"b":4},"B":{"a":4,"b":1},"C":{"a":2,"b":8},"D":{"a":8,"b":2}},"conditions":["nonSeqFull","nonSeqPartial","seqNoFeedback","seqFeedback"],"classroomPairings":[["A","B"],["C","D"]],"coinWeights":[0.2,0.5,0.8],"subjectId":"ANK8K5WTHJ61C","assignmentId":"30MVJZJNHNZ0CR6AKJXH085ZQG8J91","hitId":"3JGHED38EDDK7DFM0KVY7GXU94LY7W","url":"https://gershmanlab.com/experiments/alicia/teaching/experiment/?hitId=3JGHED38EDDK7DFM0KVY7GXU94LY7W&workerId=ANK8K5WTHJ61C&assignmentId=30MVJZJNHNZ0CR6AKJXH085ZQG8J91&a=NJM09&tp_a=NJM09&b=30MVJZJNHNZ0CR6AKJXH085ZQG8J91&tp_b=30MVJZJNHNZ0CR6AKJXH085ZQG8J91&c=365799&tp_c=365799","heads":8,"tails":2,"studentIndex":0,"studentTrueHypers":{"a":8,"b":2},"studentGuess":0.8,"delta":0,"totalExamples":10,"bonus":0.4,"bonusSoFar":0.4},{"rt":23702,"response":{"heads":"5","tails":"0"},"type":"response","condition":"nonSeqFull","trueTheta":0.5,"classrooms":["C","D"],"studentTrueClassroom":"C","exampleSet":"first","trial_type":"survey-html-form","trial_index":22,"time_elapsed":2751951,"internal_node_id":"0.0-12.0-0.0","params":{"nStudents":24,"maxFlips":30,"completionMinutes":45,"basePay":8,"maxBonus":9,"perTrialBonus":0.5,"perTrialBonusThreshold":0.05,"exampleCost":0.01},"classroomParams":{"A":{"a":1,"b":4},"B":{"a":4,"b":1},"C":{"a":2,"b":8},"D":{"a":8,"b":2}},"conditions":["nonSeqFull","nonSeqPartial","seqNoFeedback","seqFeedback"],"classroomPairings":[["A","B"],["C","D"]],"coinWeights":[0.2,0.5,0.8],"subjectId":"ANK8K5WTHJ61C","assignmentId":"30MVJZJNHNZ0CR6AKJXH085ZQG8J91","hitId":"3JGHED38EDDK7DFM0KVY7GXU94LY7W","url":"https://gershmanlab.com/experiments/alicia/teaching/experiment/?hitId=3JGHED38EDDK7DFM0KVY7GXU94LY7W&workerId=ANK8K5WTHJ61C&assignmentId=30MVJZJNHNZ0CR6AKJXH085ZQG8J91&a=NJM09&tp_a=NJM09&b=30MVJZJNHNZ0CR6AKJXH085ZQG8J91&tp_b=30MVJZJNHNZ0CR6AKJXH085ZQG8J91&c=365799&tp_c=365799","heads":5,"tails":0,"studentIndex":1,"studentTrueHypers":{"a":2,"b":8},"studentGuess":0.4666666666666667,"delta":0.033333333333333326,"totalExamples":5,"bonus":0.45,"bonusSoFar":0.85},{"rt":8550,"response":{"heads":"8","tails":"2"},"type":"response","condition":"nonSeqFull","trueTheta":0.8,"classrooms":["C","D"],"studentTrueClassroom":"C","exampleSet":"first","trial_type":"survey-html-form","trial_index":28,"time_elapsed":2778034,"internal_node_id":"0.0-18.0-0.0","params":{"nStudents":24,"maxFlips":30,"completionMinutes":45,"basePay":8,"maxBonus":9,"perTrialBonus":0.5,"perTrialBonusThreshold":0.05,"exampleCost":0.01},"classroomParams":{"A":{"a":1,"b":4},"B":{"a":4,"b":1},"C":{"a":2,"b":8},"D":{"a":8,"b":2}},"conditions":["nonSeqFull","nonSeqPartial","seqNoFeedback","seqFeedback"],"classroomPairings":[["A","B"],["C","D"]],"coinWeights":[0.2,0.5,0.8],"subjectId":"ANK8K5WTHJ61C","assignmentId":"30MVJZJNHNZ0CR6AKJXH085ZQG8J91","hitId":"3JGHED38EDDK7DFM0KVY7GXU94LY7W","url":"https://gershmanlab.com/experiments/alicia/teaching/experiment/?hitId=3JGHED38EDDK7DFM0KVY7GXU94LY7W&workerId=ANK8K5WTHJ61C&assignmentId=30MVJZJNHNZ0CR6AKJXH085ZQG8J91&a=NJM09&tp_a=NJM09&b=30MVJZJNHNZ0CR6AKJXH085ZQG8J91&tp_b=30MVJZJNHNZ0CR6AKJXH085ZQG8J91&c=365799&tp_c=365799","heads":8,"tails":2,"studentIndex":2,"studentTrueHypers":{"a":2,"b":8},"studentGuess":0.5,"delta":0.30000000000000004,"totalExamples":10,"bonus":0,"bonusSoFar":0.85},{"rt":21217,"response":{"heads":"4","tails":"1"},"type":"response","condition":"nonSeqPartial","trueTheta":0.2,"classrooms":["A","B"],"studentTrueClassroom":"A","exampleSet":"first","trial_type":"survey-html-form","trial_index":34,"time_elapsed":2818235,"internal_node_id":"0.0-24.0-0.0","params":{"nStudents":24,"maxFlips":30,"completionMinutes":45,"basePay":8,"maxBonus":9,"perTrialBonus":0.5,"perTrialBonusThreshold":0.05,"exampleCost":0.01},"classroomParams":{"A":{"a":1,"b":4},"B":{"a":4,"b":1},"C":{"a":2,"b":8},"D":{"a":8,"b":2}},"conditions":["nonSeqFull","nonSeqPartial","seqNoFeedback","seqFeedback"],"classroomPairings":[["A","B"],["C","D"]],"coinWeights":[0.2,0.5,0.8],"subjectId":"ANK8K5WTHJ61C","assignmentId":"30MVJZJNHNZ0CR6AKJXH085ZQG8J91","hitId":"3JGHED38EDDK7DFM0KVY7GXU94LY7W","url":"https://gershmanlab.com/experiments/alicia/teaching/experiment/?hitId=3JGHED38EDDK7DFM0KVY7GXU94LY7W&workerId=ANK8K5WTHJ61C&assignmentId=30MVJZJNHNZ0CR6AKJXH085ZQG8J91&a=NJM09&tp_a=NJM09&b=30MVJZJNHNZ0CR6AKJXH085ZQG8J91&tp_b=30MVJZJNHNZ0CR6AKJXH085ZQG8J91&c=365799&tp_c=365799","heads":4,"tails":1,"studentIndex":3,"studentTrueHypers":{"a":1,"b":4},"studentGuess":0.5,"delta":0.3,"totalExamples":5,"bonus":0,"bonusSoFar":0.85},{"rt":20081,"response":{"heads":"8","tails":"1"},"type":"response","condition":"seqFeedback","trueTheta":0.8,"classrooms":["A","B"],"studentTrueClassroom":"A","exampleSet":"first","trial_type":"survey-html-form","trial_index":40,"time_elapsed":2857418,"internal_node_id":"0.0-30.0-0.0","params":{"nStudents":24,"maxFlips":30,"completionMinutes":45,"basePay":8,"maxBonus":9,"perTrialBonus":0.5,"perTrialBonusThreshold":0.05,"exampleCost":0.01},"classroomParams":{"A":{"a":1,"b":4},"B":{"a":4,"b":1},"C":{"a":2,"b":8},"D":{"a":8,"b":2}},"conditions":["nonSeqFull","nonSeqPartial","seqNoFeedback","seqFeedback"],"classroomPairings":[["A","B"],["C","D"]],"coinWeights":[0.2,0.5,0.8],"subjectId":"ANK8K5WTHJ61C","assignmentId":"30MVJZJNHNZ0CR6AKJXH085ZQG8J91","hitId":"3JGHED38EDDK7DFM0KVY7GXU94LY7W","url":"https://gershmanlab.com/experiments/alicia/teaching/experiment/?hitId=3JGHED38EDDK7DFM0KVY7GXU94LY7W&workerId=ANK8K5WTHJ61C&assignmentId=30MVJZJNHNZ0CR6AKJXH085ZQG8J91&a=NJM09&tp_a=NJM09&b=30MVJZJNHNZ0CR6AKJXH085ZQG8J91&tp_b=30MVJZJNHNZ0CR6AKJXH085ZQG8J91&c=365799&tp_c=365799","heads":8,"tails":1,"studentIndex":4,"studentTrueHypers":{"a":1,"b":4},"studentGuess":0.6428571428571429,"delta":0.15714285714285714,"totalExamples":9,"bonusSoFar":0.85},{"rt":39618,"response":{"heads":"10","tails":"2"},"type":"response","condition":"seqFeedback","trueTheta":0.8,"classrooms":["A","B"],"studentTrueClassroom":"A","exampleSet":"second","trial_type":"survey-html-form","trial_index":44,"time_elapsed":2907635,"internal_node_id":"0.0-34.0-0.0","params":{"nStudents":24,"maxFlips":30,"completionMinutes":45,"basePay":8,"maxBonus":9,"perTrialBonus":0.5,"perTrialBonusThreshold":0.05,"exampleCost":0.01},"classroomParams":{"A":{"a":1,"b":4},"B":{"a":4,"b":1},"C":{"a":2,"b":8},"D":{"a":8,"b":2}},"conditions":["nonSeqFull","nonSeqPartial","seqNoFeedback","seqFeedback"],"classroomPairings":[["A","B"],["C","D"]],"coinWeights":[0.2,0.5,0.8],"subjectId":"ANK8K5WTHJ61C","assignmentId":"30MVJZJNHNZ0CR6AKJXH085ZQG8J91","hitId":"3JGHED38EDDK7DFM0KVY7GXU94LY7W","url":"https://gershmanlab.com/experiments/alicia/teaching/experiment/?hitId=3JGHED38EDDK7DFM0KVY7GXU94LY7W&workerId=ANK8K5WTHJ61C&assignmentId=30MVJZJNHNZ0CR6AKJXH085ZQG8J91&a=NJM09&tp_a=NJM09&b=30MVJZJNHNZ0CR6AKJXH085ZQG8J91&tp_b=30MVJZJNHNZ0CR6AKJXH085ZQG8J91&c=365799&tp_c=365799","firstResponseHeads":8,"firstResponseTails":1,"secondResponseHeads":10,"secondResponseTails":2,"totalHeads":18,"totalTails":3,"studentIndex":4,"studentTrueHypers":{"a":1,"b":4},"studentGuess":0.7307692307692307,"delta":0.06923076923076932,"bonus":0,"bonusSoFar":0.85,"totalExamples":21},{"rt":23832,"response":{"heads":"3","tails":"1"},"type":"response","condition":"seqNoFeedback","trueTheta":0.2,"classrooms":["A","B"],"studentTrueClassroom":"A","exampleSet":"first","trial_type":"survey-html-form","trial_index":50,"time_elapsed":2946303,"internal_node_id":"0.0-40.0-0.0","params":{"nStudents":24,"maxFlips":30,"completionMinutes":45,"basePay":8,"maxBonus":9,"perTrialBonus":0.5,"perTrialBonusThreshold":0.05,"exampleCost":0.01},"classroomParams":{"A":{"a":1,"b":4},"B":{"a":4,"b":1},"C":{"a":2,"b":8},"D":{"a":8,"b":2}},"conditions":["nonSeqFull","nonSeqPartial","seqNoFeedback","seqFeedback"],"classroomPairings":[["A","B"],["C","D"]],"coinWeights":[0.2,0.5,0.8],"subjectId":"ANK8K5WTHJ61C","assignmentId":"30MVJZJNHNZ0CR6AKJXH085ZQG8J91","hitId":"3JGHED38EDDK7DFM0KVY7GXU94LY7W","url":"https://gershmanlab.com/experiments/alicia/teaching/experiment/?hitId=3JGHED38EDDK7DFM0KVY7GXU94LY7W&workerId=ANK8K5WTHJ61C&assignmentId=30MVJZJNHNZ0CR6AKJXH085ZQG8J91&a=NJM09&tp_a=NJM09&b=30MVJZJNHNZ0CR6AKJXH085ZQG8J91&tp_b=30MVJZJNHNZ0CR6AKJXH085ZQG8J91&c=365799&tp_c=365799","heads":3,"tails":1,"studentIndex":5,"studentTrueHypers":{"a":1,"b":4},"studentGuess":0.4444444444444444,"delta":0.2444444444444444,"totalExamples":4,"bonusSoFar":0.85},{"rt":15021,"response":{"heads":"2","tails":"0"},"type":"response","condition":"seqNoFeedback","trueTheta":0.2,"classrooms":["A","B"],"studentTrueClassroom":"A","exampleSet":"second","trial_type":"survey-html-form","trial_index":53,"time_elapsed":2966834,"internal_node_id":"0.0-43.0-0.0","params":{"nStudents":24,"maxFlips":30,"completionMinutes":45,"basePay":8,"maxBonus":9,"perTrialBonus":0.5,"perTrialBonusThreshold":0.05,"exampleCost":0.01},"classroomParams":{"A":{"a":1,"b":4},"B":{"a":4,"b":1},"C":{"a":2,"b":8},"D":{"a":8,"b":2}},"conditions":["nonSeqFull","nonSeqPartial","seqNoFeedback","seqFeedback"],"classroomPairings":[["A","B"],["C","D"]],"coinWeights":[0.2,0.5,0.8],"subjectId":"ANK8K5WTHJ61C","assignmentId":"30MVJZJNHNZ0CR6AKJXH085ZQG8J91","hitId":"3JGHED38EDDK7DFM0KVY7GXU94LY7W","url":"https://gershmanlab.com/experiments/alicia/teaching/experiment/?hitId=3JGHED38EDDK7DFM0KVY7GXU94LY7W&workerId=ANK8K5WTHJ61C&assignmentId=30MVJZJNHNZ0CR6AKJXH085ZQG8J91&a=NJM09&tp_a=NJM09&b=30MVJZJNHNZ0CR6AKJXH085ZQG8J91&tp_b=30MVJZJNHNZ0CR6AKJXH085ZQG8J91&c=365799&tp_c=365799","firstResponseHeads":3,"firstResponseTails":1,"secondResponseHeads":2,"secondResponseTails":0,"totalHeads":5,"totalTails":1,"studentIndex":5,"studentTrueHypers":{"a":1,"b":4},"studentGuess":0.5454545454545454,"delta":0.3454545454545454,"bonus":0,"bonusSoFar":0.85,"totalExamples":6},{"rt":29865,"response":{"heads":"6","tails":"2"},"type":"response","condition":"seqNoFeedback","trueTheta":0.8,"classrooms":["A","B"],"studentTrueClassroom":"A","exampleSet":"first","trial_type":"survey-html-form","trial_index":59,"time_elapsed":3011485,"internal_node_id":"0.0-49.0-0.0","params":{"nStudents":24,"maxFlips":30,"completionMinutes":45,"basePay":8,"maxBonus":9,"perTrialBonus":0.5,"perTrialBonusThreshold":0.05,"exampleCost":0.01},"classroomParams":{"A":{"a":1,"b":4},"B":{"a":4,"b":1},"C":{"a":2,"b":8},"D":{"a":8,"b":2}},"conditions":["nonSeqFull","nonSeqPartial","seqNoFeedback","seqFeedback"],"classroomPairings":[["A","B"],["C","D"]],"coinWeights":[0.2,0.5,0.8],"subjectId":"ANK8K5WTHJ61C","assignmentId":"30MVJZJNHNZ0CR6AKJXH085ZQG8J91","hitId":"3JGHED38EDDK7DFM0KVY7GXU94LY7W","url":"https://gershmanlab.com/experiments/alicia/teaching/experiment/?hitId=3JGHED38EDDK7DFM0KVY7GXU94LY7W&workerId=ANK8K5WTHJ61C&assignmentId=30MVJZJNHNZ0CR6AKJXH085ZQG8J91&a=NJM09&tp_a=NJM09&b=30MVJZJNHNZ0CR6AKJXH085ZQG8J91&tp_b=30MVJZJNHNZ0CR6AKJXH085ZQG8J91&c=365799&tp_c=365799","heads":6,"tails":2,"studentIndex":6,"studentTrueHypers":{"a":1,"b":4},"studentGuess":0.5384615384615384,"delta":0.2615384615384616,"totalExamples":8,"bonusSoFar":0.85},{"rt":9662,"response":{"heads":"7","tails":"1"},"type":"response","condition":"seqNoFeedback","trueTheta":0.8,"classrooms":["A","B"],"studentTrueClassroom":"A","exampleSet":"second","trial_type":"survey-html-form","trial_index":62,"time_elapsed":3027653,"internal_node_id":"0.0-52.0-0.0","params":{"nStudents":24,"maxFlips":30,"completionMinutes":45,"basePay":8,"maxBonus":9,"perTrialBonus":0.5,"perTrialBonusThreshold":0.05,"exampleCost":0.01},"classroomParams":{"A":{"a":1,"b":4},"B":{"a":4,"b":1},"C":{"a":2,"b":8},"D":{"a":8,"b":2}},"conditions":["nonSeqFull","nonSeqPartial","seqNoFeedback","seqFeedback"],"classroomPairings":[["A","B"],["C","D"]],"coinWeights":[0.2,0.5,0.8],"subjectId":"ANK8K5WTHJ61C","assignmentId":"30MVJZJNHNZ0CR6AKJXH085ZQG8J91","hitId":"3JGHED38EDDK7DFM0KVY7GXU94LY7W","url":"https://gershmanlab.com/experiments/alicia/teaching/experiment/?hitId=3JGHED38EDDK7DFM0KVY7GXU94LY7W&workerId=ANK8K5WTHJ61C&assignmentId=30MVJZJNHNZ0CR6AKJXH085ZQG8J91&a=NJM09&tp_a=NJM09&b=30MVJZJNHNZ0CR6AKJXH085ZQG8J91&tp_b=30MVJZJNHNZ0CR6AKJXH085ZQG8J91&c=365799&tp_c=365799","firstResponseHeads":6,"firstResponseTails":2,"secondResponseHeads":7,"secondResponseTails":1,"totalHeads":13,"totalTails":3,"studentIndex":6,"studentTrueHypers":{"a":1,"b":4},"studentGuess":0.6666666666666666,"delta":0.13333333333333341,"bonus":0,"bonusSoFar":0.85,"totalExamples":16},{"rt":8334,"response":{"heads":"4","tails":"1"},"type":"response","condition":"nonSeqFull","trueTheta":0.5,"classrooms":["A","B"],"studentTrueClassroom":"B","exampleSet":"first","trial_type":"survey-html-form","trial_index":68,"time_elapsed":3056520,"internal_node_id":"0.0-58.0-0.0","params":{"nStudents":24,"maxFlips":30,"completionMinutes":45,"basePay":8,"maxBonus":9,"perTrialBonus":0.5,"perTrialBonusThreshold":0.05,"exampleCost":0.01},"classroomParams":{"A":{"a":1,"b":4},"B":{"a":4,"b":1},"C":{"a":2,"b":8},"D":{"a":8,"b":2}},"conditions":["nonSeqFull","nonSeqPartial","seqNoFeedback","seqFeedback"],"classroomPairings":[["A","B"],["C","D"]],"coinWeights":[0.2,0.5,0.8],"subjectId":"ANK8K5WTHJ61C","assignmentId":"30MVJZJNHNZ0CR6AKJXH085ZQG8J91","hitId":"3JGHED38EDDK7DFM0KVY7GXU94LY7W","url":"https://gershmanlab.com/experiments/alicia/teaching/experiment/?hitId=3JGHED38EDDK7DFM0KVY7GXU94LY7W&workerId=ANK8K5WTHJ61C&assignmentId=30MVJZJNHNZ0CR6AKJXH085ZQG8J91&a=NJM09&tp_a=NJM09&b=30MVJZJNHNZ0CR6AKJXH085ZQG8J91&tp_b=30MVJZJNHNZ0CR6AKJXH085ZQG8J91&c=365799&tp_c=365799","heads":4,"tails":1,"studentIndex":7,"studentTrueHypers":{"a":4,"b":1},"studentGuess":0.8,"delta":0.30000000000000004,"totalExamples":5,"bonus":0,"bonusSoFar":0.85},{"rt":7515,"response":{"heads":"4","tails":"1"},"type":"response","condition":"nonSeqFull","trueTheta":0.8,"classrooms":["A","B"],"studentTrueClassroom":"B","exampleSet":"first","trial_type":"survey-html-form","trial_index":74,"time_elapsed":3078536,"internal_node_id":"0.0-64.0-0.0","params":{"nStudents":24,"maxFlips":30,"completionMinutes":45,"basePay":8,"maxBonus":9,"perTrialBonus":0.5,"perTrialBonusThreshold":0.05,"exampleCost":0.01},"classroomParams":{"A":{"a":1,"b":4},"B":{"a":4,"b":1},"C":{"a":2,"b":8},"D":{"a":8,"b":2}},"conditions":["nonSeqFull","nonSeqPartial","seqNoFeedback","seqFeedback"],"classroomPairings":[["A","B"],["C","D"]],"coinWeights":[0.2,0.5,0.8],"subjectId":"ANK8K5WTHJ61C","assignmentId":"30MVJZJNHNZ0CR6AKJXH085ZQG8J91","hitId":"3JGHED38EDDK7DFM0KVY7GXU94LY7W","url":"https://gershmanlab.com/experiments/alicia/teaching/experiment/?hitId=3JGHED38EDDK7DFM0KVY7GXU94LY7W&workerId=ANK8K5WTHJ61C&assignmentId=30MVJZJNHNZ0CR6AKJXH085ZQG8J91&a=NJM09&tp_a=NJM09&b=30MVJZJNHNZ0CR6AKJXH085ZQG8J91&tp_b=30MVJZJNHNZ0CR6AKJXH085ZQG8J91&c=365799&tp_c=365799","heads":4,"tails":1,"studentIndex":8,"studentTrueHypers":{"a":4,"b":1},"studentGuess":0.8,"delta":0,"totalExamples":5,"bonus":0.45,"bonusSoFar":1.3},{"rt":17034,"response":{"heads":"3","tails":"2"},"type":"response","condition":"seqFeedback","trueTheta":0.2,"classrooms":["A","B"],"studentTrueClassroom":"B","exampleSet":"first","trial_type":"survey-html-form","trial_index":80,"time_elapsed":3113820,"internal_node_id":"0.0-70.0-0.0","params":{"nStudents":24,"maxFlips":30,"completionMinutes":45,"basePay":8,"maxBonus":9,"perTrialBonus":0.5,"perTrialBonusThreshold":0.05,"exampleCost":0.01},"classroomParams":{"A":{"a":1,"b":4},"B":{"a":4,"b":1},"C":{"a":2,"b":8},"D":{"a":8,"b":2}},"conditions":["nonSeqFull","nonSeqPartial","seqNoFeedback","seqFeedback"],"classroomPairings":[["A","B"],["C","D"]],"coinWeights":[0.2,0.5,0.8],"subjectId":"ANK8K5WTHJ61C","assignmentId":"30MVJZJNHNZ0CR6AKJXH085ZQG8J91","hitId":"3JGHED38EDDK7DFM0KVY7GXU94LY7W","url":"https://gershmanlab.com/experiments/alicia/teaching/experiment/?hitId=3JGHED38EDDK7DFM0KVY7GXU94LY7W&workerId=ANK8K5WTHJ61C&assignmentId=30MVJZJNHNZ0CR6AKJXH085ZQG8J91&a=NJM09&tp_a=NJM09&b=30MVJZJNHNZ0CR6AKJXH085ZQG8J91&tp_b=30MVJZJNHNZ0CR6AKJXH085ZQG8J91&c=365799&tp_c=365799","heads":3,"tails":2,"studentIndex":9,"studentTrueHypers":{"a":4,"b":1},"studentGuess":0.7,"delta":0.49999999999999994,"totalExamples":5,"bonusSoFar":1.3},{"rt":12124,"response":{"heads":"9","tails":"1"},"type":"response","condition":"seqFeedback","trueTheta":0.2,"classrooms":["A","B"],"studentTrueClassroom":"B","exampleSet":"second","trial_type":"survey-html-form","trial_index":84,"time_elapsed":3139001,"internal_node_id":"0.0-74.0-0.0","params":{"nStudents":24,"maxFlips":30,"completionMinutes":45,"basePay":8,"maxBonus":9,"perTrialBonus":0.5,"perTrialBonusThreshold":0.05,"exampleCost":0.01},"classroomParams":{"A":{"a":1,"b":4},"B":{"a":4,"b":1},"C":{"a":2,"b":8},"D":{"a":8,"b":2}},"conditions":["nonSeqFull","nonSeqPartial","seqNoFeedback","seqFeedback"],"classroomPairings":[["A","B"],["C","D"]],"coinWeights":[0.2,0.5,0.8],"subjectId":"ANK8K5WTHJ61C","assignmentId":"30MVJZJNHNZ0CR6AKJXH085ZQG8J91","hitId":"3JGHED38EDDK7DFM0KVY7GXU94LY7W","url":"https://gershmanlab.com/experiments/alicia/teaching/experiment/?hitId=3JGHED38EDDK7DFM0KVY7GXU94LY7W&workerId=ANK8K5WTHJ61C&assignmentId=30MVJZJNHNZ0CR6AKJXH085ZQG8J91&a=NJM09&tp_a=NJM09&b=30MVJZJNHNZ0CR6AKJXH085ZQG8J91&tp_b=30MVJZJNHNZ0CR6AKJXH085ZQG8J91&c=365799&tp_c=365799","firstResponseHeads":3,"firstResponseTails":2,"secondResponseHeads":9,"secondResponseTails":1,"totalHeads":12,"totalTails":3,"studentIndex":9,"studentTrueHypers":{"a":4,"b":1},"studentGuess":0.8,"delta":0.6000000000000001,"bonus":0,"bonusSoFar":1.3,"totalExamples":15},{"rt":11565,"response":{"heads":"5","tails":"0"},"type":"response","condition":"nonSeqPartial","trueTheta":0.5,"classrooms":["C","D"],"studentTrueClassroom":"D","exampleSet":"first","trial_type":"survey-html-form","trial_index":90,"time_elapsed":3170003,"internal_node_id":"0.0-80.0-0.0","params":{"nStudents":24,"maxFlips":30,"completionMinutes":45,"basePay":8,"maxBonus":9,"perTrialBonus":0.5,"perTrialBonusThreshold":0.05,"exampleCost":0.01},"classroomParams":{"A":{"a":1,"b":4},"B":{"a":4,"b":1},"C":{"a":2,"b":8},"D":{"a":8,"b":2}},"conditions":["nonSeqFull","nonSeqPartial","seqNoFeedback","seqFeedback"],"classroomPairings":[["A","B"],["C","D"]],"coinWeights":[0.2,0.5,0.8],"subjectId":"ANK8K5WTHJ61C","assignmentId":"30MVJZJNHNZ0CR6AKJXH085ZQG8J91","hitId":"3JGHED38EDDK7DFM0KVY7GXU94LY7W","url":"https://gershmanlab.com/experiments/alicia/teaching/experiment/?hitId=3JGHED38EDDK7DFM0KVY7GXU94LY7W&workerId=ANK8K5WTHJ61C&assignmentId=30MVJZJNHNZ0CR6AKJXH085ZQG8J91&a=NJM09&tp_a=NJM09&b=30MVJZJNHNZ0CR6AKJXH085ZQG8J91&tp_b=30MVJZJNHNZ0CR6AKJXH085ZQG8J91&c=365799&tp_c=365799","heads":5,"tails":0,"studentIndex":10,"studentTrueHypers":{"a":8,"b":2},"studentGuess":0.8666666666666667,"delta":0.3666666666666667,"totalExamples":5,"bonus":0,"bonusSoFar":1.3},{"rt":8483,"response":{"heads":"2","tails":"8"},"type":"response","condition":"seqNoFeedback","trueTheta":0.2,"classrooms":["C","D"],"studentTrueClassroom":"D","exampleSet":"first","trial_type":"survey-html-form","trial_index":96,"time_elapsed":3193418,"internal_node_id":"0.0-86.0-0.0","params":{"nStudents":24,"maxFlips":30,"completionMinutes":45,"basePay":8,"maxBonus":9,"perTrialBonus":0.5,"perTrialBonusThreshold":0.05,"exampleCost":0.01},"classroomParams":{"A":{"a":1,"b":4},"B":{"a":4,"b":1},"C":{"a":2,"b":8},"D":{"a":8,"b":2}},"conditions":["nonSeqFull","nonSeqPartial","seqNoFeedback","seqFeedback"],"classroomPairings":[["A","B"],["C","D"]],"coinWeights":[0.2,0.5,0.8],"subjectId":"ANK8K5WTHJ61C","assignmentId":"30MVJZJNHNZ0CR6AKJXH085ZQG8J91","hitId":"3JGHED38EDDK7DFM0KVY7GXU94LY7W","url":"https://gershmanlab.com/experiments/alicia/teaching/experiment/?hitId=3JGHED38EDDK7DFM0KVY7GXU94LY7W&workerId=ANK8K5WTHJ61C&assignmentId=30MVJZJNHNZ0CR6AKJXH085ZQG8J91&a=NJM09&tp_a=NJM09&b=30MVJZJNHNZ0CR6AKJXH085ZQG8J91&tp_b=30MVJZJNHNZ0CR6AKJXH085ZQG8J91&c=365799&tp_c=365799","heads":2,"tails":8,"studentIndex":11,"studentTrueHypers":{"a":8,"b":2},"studentGuess":0.5,"delta":0.3,"totalExamples":10,"bonusSoFar":1.3},{"rt":18640,"response":{"heads":"1","tails":"4"},"type":"response","condition":"seqNoFeedback","trueTheta":0.2,"classrooms":["C","D"],"studentTrueClassroom":"D","exampleSet":"second","trial_type":"survey-html-form","trial_index":99,"time_elapsed":3219318,"internal_node_id":"0.0-89.0-0.0","params":{"nStudents":24,"maxFlips":30,"completionMinutes":45,"basePay":8,"maxBonus":9,"perTrialBonus":0.5,"perTrialBonusThreshold":0.05,"exampleCost":0.01},"classroomParams":{"A":{"a":1,"b":4},"B":{"a":4,"b":1},"C":{"a":2,"b":8},"D":{"a":8,"b":2}},"conditions":["nonSeqFull","nonSeqPartial","seqNoFeedback","seqFeedback"],"classroomPairings":[["A","B"],["C","D"]],"coinWeights":[0.2,0.5,0.8],"subjectId":"ANK8K5WTHJ61C","assignmentId":"30MVJZJNHNZ0CR6AKJXH085ZQG8J91","hitId":"3JGHED38EDDK7DFM0KVY7GXU94LY7W","url":"https://gershmanlab.com/experiments/alicia/teaching/experiment/?hitId=3JGHED38EDDK7DFM0KVY7GXU94LY7W&workerId=ANK8K5WTHJ61C&assignmentId=30MVJZJNHNZ0CR6AKJXH085ZQG8J91&a=NJM09&tp_a=NJM09&b=30MVJZJNHNZ0CR6AKJXH085ZQG8J91&tp_b=30MVJZJNHNZ0CR6AKJXH085ZQG8J91&c=365799&tp_c=365799","firstResponseHeads":2,"firstResponseTails":8,"secondResponseHeads":1,"secondResponseTails":4,"totalHeads":3,"totalTails":12,"studentIndex":11,"studentTrueHypers":{"a":8,"b":2},"studentGuess":0.44,"delta":0.24,"bonus":0,"bonusSoFar":1.3,"totalExamples":15},{"rt":18564,"response":{"heads":"4","tails":"1"},"type":"response","condition":"nonSeqPartial","trueTheta":0.8,"classrooms":["A","B"],"studentTrueClassroom":"A","exampleSet":"first","trial_type":"survey-html-form","trial_index":105,"time_elapsed":3254618,"internal_node_id":"0.0-95.0-0.0","params":{"nStudents":24,"maxFlips":30,"completionMinutes":45,"basePay":8,"maxBonus":9,"perTrialBonus":0.5,"perTrialBonusThreshold":0.05,"exampleCost":0.01},"classroomParams":{"A":{"a":1,"b":4},"B":{"a":4,"b":1},"C":{"a":2,"b":8},"D":{"a":8,"b":2}},"conditions":["nonSeqFull","nonSeqPartial","seqNoFeedback","seqFeedback"],"classroomPairings":[["A","B"],["C","D"]],"coinWeights":[0.2,0.5,0.8],"subjectId":"ANK8K5WTHJ61C","assignmentId":"30MVJZJNHNZ0CR6AKJXH085ZQG8J91","hitId":"3JGHED38EDDK7DFM0KVY7GXU94LY7W","url":"https://gershmanlab.com/experiments/alicia/teaching/experiment/?hitId=3JGHED38EDDK7DFM0KVY7GXU94LY7W&workerId=ANK8K5WTHJ61C&assignmentId=30MVJZJNHNZ0CR6AKJXH085ZQG8J91&a=NJM09&tp_a=NJM09&b=30MVJZJNHNZ0CR6AKJXH085ZQG8J91&tp_b=30MVJZJNHNZ0CR6AKJXH085ZQG8J91&c=365799&tp_c=365799","heads":4,"tails":1,"studentIndex":12,"studentTrueHypers":{"a":1,"b":4},"studentGuess":0.5,"delta":0.30000000000000004,"totalExamples":5,"bonus":0,"bonusSoFar":1.3},{"rt":9801,"response":{"heads":"1","tails":"6"},"type":"response","condition":"seqFeedback","trueTheta":0.2,"classrooms":["C","D"],"studentTrueClassroom":"C","exampleSet":"first","trial_type":"survey-html-form","trial_index":111,"time_elapsed":3278438,"internal_node_id":"0.0-101.0-0.0","params":{"nStudents":24,"maxFlips":30,"completionMinutes":45,"basePay":8,"maxBonus":9,"perTrialBonus":0.5,"perTrialBonusThreshold":0.05,"exampleCost":0.01},"classroomParams":{"A":{"a":1,"b":4},"B":{"a":4,"b":1},"C":{"a":2,"b":8},"D":{"a":8,"b":2}},"conditions":["nonSeqFull","nonSeqPartial","seqNoFeedback","seqFeedback"],"classroomPairings":[["A","B"],["C","D"]],"coinWeights":[0.2,0.5,0.8],"subjectId":"ANK8K5WTHJ61C","assignmentId":"30MVJZJNHNZ0CR6AKJXH085ZQG8J91","hitId":"3JGHED38EDDK7DFM0KVY7GXU94LY7W","url":"https://gershmanlab.com/experiments/alicia/teaching/experiment/?hitId=3JGHED38EDDK7DFM0KVY7GXU94LY7W&workerId=ANK8K5WTHJ61C&assignmentId=30MVJZJNHNZ0CR6AKJXH085ZQG8J91&a=NJM09&tp_a=NJM09&b=30MVJZJNHNZ0CR6AKJXH085ZQG8J91&tp_b=30MVJZJNHNZ0CR6AKJXH085ZQG8J91&c=365799&tp_c=365799","heads":1,"tails":6,"studentIndex":13,"studentTrueHypers":{"a":2,"b":8},"studentGuess":0.17647058823529413,"delta":0.023529411764705882,"totalExamples":7,"bonusSoFar":1.3},{"rt":15926,"response":{"heads":"2","tails":"7"},"type":"response","condition":"seqFeedback","trueTheta":0.2,"classrooms":["C","D"],"studentTrueClassroom":"C","exampleSet":"second","trial_type":"survey-html-form","trial_index":115,"time_elapsed":3305954,"internal_node_id":"0.0-105.0-0.0","params":{"nStudents":24,"maxFlips":30,"completionMinutes":45,"basePay":8,"maxBonus":9,"perTrialBonus":0.5,"perTrialBonusThreshold":0.05,"exampleCost":0.01},"classroomParams":{"A":{"a":1,"b":4},"B":{"a":4,"b":1},"C":{"a":2,"b":8},"D":{"a":8,"b":2}},"conditions":["nonSeqFull","nonSeqPartial","seqNoFeedback","seqFeedback"],"classroomPairings":[["A","B"],["C","D"]],"coinWeights":[0.2,0.5,0.8],"subjectId":"ANK8K5WTHJ61C","assignmentId":"30MVJZJNHNZ0CR6AKJXH085ZQG8J91","hitId":"3JGHED38EDDK7DFM0KVY7GXU94LY7W","url":"https://gershmanlab.com/experiments/alicia/teaching/experiment/?hitId=3JGHED38EDDK7DFM0KVY7GXU94LY7W&workerId=ANK8K5WTHJ61C&assignmentId=30MVJZJNHNZ0CR6AKJXH085ZQG8J91&a=NJM09&tp_a=NJM09&b=30MVJZJNHNZ0CR6AKJXH085ZQG8J91&tp_b=30MVJZJNHNZ0CR6AKJXH085ZQG8J91&c=365799&tp_c=365799","firstResponseHeads":1,"firstResponseTails":6,"secondResponseHeads":2,"secondResponseTails":7,"totalHeads":3,"totalTails":13,"studentIndex":13,"studentTrueHypers":{"a":2,"b":8},"studentGuess":0.19230769230769232,"delta":0.007692307692307693,"bonus":0.34,"bonusSoFar":1.64,"totalExamples":16},{"rt":15682,"response":{"heads":"4","tails":"8"},"type":"response","condition":"seqNoFeedback","trueTheta":0.5,"classrooms":["C","D"],"studentTrueClassroom":"C","exampleSet":"first","trial_type":"survey-html-form","trial_index":121,"time_elapsed":3335788,"internal_node_id":"0.0-111.0-0.0","params":{"nStudents":24,"maxFlips":30,"completionMinutes":45,"basePay":8,"maxBonus":9,"perTrialBonus":0.5,"perTrialBonusThreshold":0.05,"exampleCost":0.01},"classroomParams":{"A":{"a":1,"b":4},"B":{"a":4,"b":1},"C":{"a":2,"b":8},"D":{"a":8,"b":2}},"conditions":["nonSeqFull","nonSeqPartial","seqNoFeedback","seqFeedback"],"classroomPairings":[["A","B"],["C","D"]],"coinWeights":[0.2,0.5,0.8],"subjectId":"ANK8K5WTHJ61C","assignmentId":"30MVJZJNHNZ0CR6AKJXH085ZQG8J91","hitId":"3JGHED38EDDK7DFM0KVY7GXU94LY7W","url":"https://gershmanlab.com/experiments/alicia/teaching/experiment/?hitId=3JGHED38EDDK7DFM0KVY7GXU94LY7W&workerId=ANK8K5WTHJ61C&assignmentId=30MVJZJNHNZ0CR6AKJXH085ZQG8J91&a=NJM09&tp_a=NJM09&b=30MVJZJNHNZ0CR6AKJXH085ZQG8J91&tp_b=30MVJZJNHNZ0CR6AKJXH085ZQG8J91&c=365799&tp_c=365799","heads":4,"tails":8,"studentIndex":14,"studentTrueHypers":{"a":2,"b":8},"studentGuess":0.2727272727272727,"delta":0.2272727272727273,"totalExamples":12,"bonusSoFar":1.64},{"rt":6738,"response":{"heads":"2","tails":"4"},"type":"response","condition":"seqNoFeedback","trueTheta":0.5,"classrooms":["C","D"],"studentTrueClassroom":"C","exampleSet":"second","trial_type":"survey-html-form","trial_index":124,"time_elapsed":3350037,"internal_node_id":"0.0-114.0-0.0","params":{"nStudents":24,"maxFlips":30,"completionMinutes":45,"basePay":8,"maxBonus":9,"perTrialBonus":0.5,"perTrialBonusThreshold":0.05,"exampleCost":0.01},"classroomParams":{"A":{"a":1,"b":4},"B":{"a":4,"b":1},"C":{"a":2,"b":8},"D":{"a":8,"b":2}},"conditions":["nonSeqFull","nonSeqPartial","seqNoFeedback","seqFeedback"],"classroomPairings":[["A","B"],["C","D"]],"coinWeights":[0.2,0.5,0.8],"subjectId":"ANK8K5WTHJ61C","assignmentId":"30MVJZJNHNZ0CR6AKJXH085ZQG8J91","hitId":"3JGHED38EDDK7DFM0KVY7GXU94LY7W","url":"https://gershmanlab.com/experiments/alicia/teaching/experiment/?hitId=3JGHED38EDDK7DFM0KVY7GXU94LY7W&workerId=ANK8K5WTHJ61C&assignmentId=30MVJZJNHNZ0CR6AKJXH085ZQG8J91&a=NJM09&tp_a=NJM09&b=30MVJZJNHNZ0CR6AKJXH085ZQG8J91&tp_b=30MVJZJNHNZ0CR6AKJXH085ZQG8J91&c=365799&tp_c=365799","firstResponseHeads":4,"firstResponseTails":8,"secondResponseHeads":2,"secondResponseTails":4,"totalHeads":6,"totalTails":12,"studentIndex":14,"studentTrueHypers":{"a":2,"b":8},"studentGuess":0.2857142857142857,"delta":0.2142857142857143,"bonus":0,"bonusSoFar":1.64,"totalExamples":18},{"rt":12847,"response":{"heads":"1","tails":"3"},"type":"response","condition":"seqFeedback","trueTheta":0.5,"classrooms":["C","D"],"studentTrueClassroom":"D","exampleSet":"first","trial_type":"survey-html-form","trial_index":130,"time_elapsed":3405335,"internal_node_id":"0.0-120.0-0.0","params":{"nStudents":24,"maxFlips":30,"completionMinutes":45,"basePay":8,"maxBonus":9,"perTrialBonus":0.5,"perTrialBonusThreshold":0.05,"exampleCost":0.01},"classroomParams":{"A":{"a":1,"b":4},"B":{"a":4,"b":1},"C":{"a":2,"b":8},"D":{"a":8,"b":2}},"conditions":["nonSeqFull","nonSeqPartial","seqNoFeedback","seqFeedback"],"classroomPairings":[["A","B"],["C","D"]],"coinWeights":[0.2,0.5,0.8],"subjectId":"ANK8K5WTHJ61C","assignmentId":"30MVJZJNHNZ0CR6AKJXH085ZQG8J91","hitId":"3JGHED38EDDK7DFM0KVY7GXU94LY7W","url":"https://gershmanlab.com/experiments/alicia/teaching/experiment/?hitId=3JGHED38EDDK7DFM0KVY7GXU94LY7W&workerId=ANK8K5WTHJ61C&assignmentId=30MVJZJNHNZ0CR6AKJXH085ZQG8J91&a=NJM09&tp_a=NJM09&b=30MVJZJNHNZ0CR6AKJXH085ZQG8J91&tp_b=30MVJZJNHNZ0CR6AKJXH085ZQG8J91&c=365799&tp_c=365799","heads":1,"tails":3,"studentIndex":15,"studentTrueHypers":{"a":8,"b":2},"studentGuess":0.6428571428571429,"delta":0.1428571428571429,"totalExamples":4,"bonusSoFar":1.64},{"rt":12091,"response":{"heads":"1","tails":"2"},"type":"response","condition":"seqFeedback","trueTheta":0.5,"classrooms":["C","D"],"studentTrueClassroom":"D","exampleSet":"second","trial_type":"survey-html-form","trial_index":134,"time_elapsed":3430187,"internal_node_id":"0.0-124.0-0.0","params":{"nStudents":24,"maxFlips":30,"completionMinutes":45,"basePay":8,"maxBonus":9,"perTrialBonus":0.5,"perTrialBonusThreshold":0.05,"exampleCost":0.01},"classroomParams":{"A":{"a":1,"b":4},"B":{"a":4,"b":1},"C":{"a":2,"b":8},"D":{"a":8,"b":2}},"conditions":["nonSeqFull","nonSeqPartial","seqNoFeedback","seqFeedback"],"classroomPairings":[["A","B"],["C","D"]],"coinWeights":[0.2,0.5,0.8],"subjectId":"ANK8K5WTHJ61C","assignmentId":"30MVJZJNHNZ0CR6AKJXH085ZQG8J91","hitId":"3JGHED38EDDK7DFM0KVY7GXU94LY7W","url":"https://gershmanlab.com/experiments/alicia/teaching/experiment/?hitId=3JGHED38EDDK7DFM0KVY7GXU94LY7W&workerId=ANK8K5WTHJ61C&assignmentId=30MVJZJNHNZ0CR6AKJXH085ZQG8J91&a=NJM09&tp_a=NJM09&b=30MVJZJNHNZ0CR6AKJXH085ZQG8J91&tp_b=30MVJZJNHNZ0CR6AKJXH085ZQG8J91&c=365799&tp_c=365799","firstResponseHeads":1,"firstResponseTails":3,"secondResponseHeads":1,"secondResponseTails":2,"totalHeads":2,"totalTails":5,"studentIndex":15,"studentTrueHypers":{"a":8,"b":2},"studentGuess":0.5882352941176471,"delta":0.08823529411764708,"bonus":0,"bonusSoFar":1.64,"totalExamples":7},{"rt":10301,"response":{"heads":"2","tails":"4"},"type":"response","condition":"nonSeqPartial","trueTheta":0.5,"classrooms":["A","B"],"studentTrueClassroom":"A","exampleSet":"first","trial_type":"survey-html-form","trial_index":140,"time_elapsed":3455038,"internal_node_id":"0.0-130.0-0.0","params":{"nStudents":24,"maxFlips":30,"completionMinutes":45,"basePay":8,"maxBonus":9,"perTrialBonus":0.5,"perTrialBonusThreshold":0.05,"exampleCost":0.01},"classroomParams":{"A":{"a":1,"b":4},"B":{"a":4,"b":1},"C":{"a":2,"b":8},"D":{"a":8,"b":2}},"conditions":["nonSeqFull","nonSeqPartial","seqNoFeedback","seqFeedback"],"classroomPairings":[["A","B"],["C","D"]],"coinWeights":[0.2,0.5,0.8],"subjectId":"ANK8K5WTHJ61C","assignmentId":"30MVJZJNHNZ0CR6AKJXH085ZQG8J91","hitId":"3JGHED38EDDK7DFM0KVY7GXU94LY7W","url":"https://gershmanlab.com/experiments/alicia/teaching/experiment/?hitId=3JGHED38EDDK7DFM0KVY7GXU94LY7W&workerId=ANK8K5WTHJ61C&assignmentId=30MVJZJNHNZ0CR6AKJXH085ZQG8J91&a=NJM09&tp_a=NJM09&b=30MVJZJNHNZ0CR6AKJXH085ZQG8J91&tp_b=30MVJZJNHNZ0CR6AKJXH085ZQG8J91&c=365799&tp_c=365799","heads":2,"tails":4,"studentIndex":16,"studentTrueHypers":{"a":1,"b":4},"studentGuess":0.2727272727272727,"delta":0.2272727272727273,"totalExamples":6,"bonus":0,"bonusSoFar":1.64},{"rt":12332,"response":{"heads":"8","tails":"2"},"type":"response","condition":"seqFeedback","trueTheta":0.8,"classrooms":["C","D"],"studentTrueClassroom":"D","exampleSet":"first","trial_type":"survey-html-form","trial_index":146,"time_elapsed":3481255,"internal_node_id":"0.0-136.0-0.0","params":{"nStudents":24,"maxFlips":30,"completionMinutes":45,"basePay":8,"maxBonus":9,"perTrialBonus":0.5,"perTrialBonusThreshold":0.05,"exampleCost":0.01},"classroomParams":{"A":{"a":1,"b":4},"B":{"a":4,"b":1},"C":{"a":2,"b":8},"D":{"a":8,"b":2}},"conditions":["nonSeqFull","nonSeqPartial","seqNoFeedback","seqFeedback"],"classroomPairings":[["A","B"],["C","D"]],"coinWeights":[0.2,0.5,0.8],"subjectId":"ANK8K5WTHJ61C","assignmentId":"30MVJZJNHNZ0CR6AKJXH085ZQG8J91","hitId":"3JGHED38EDDK7DFM0KVY7GXU94LY7W","url":"https://gershmanlab.com/experiments/alicia/teaching/experiment/?hitId=3JGHED38EDDK7DFM0KVY7GXU94LY7W&workerId=ANK8K5WTHJ61C&assignmentId=30MVJZJNHNZ0CR6AKJXH085ZQG8J91&a=NJM09&tp_a=NJM09&b=30MVJZJNHNZ0CR6AKJXH085ZQG8J91&tp_b=30MVJZJNHNZ0CR6AKJXH085ZQG8J91&c=365799&tp_c=365799","heads":8,"tails":2,"studentIndex":17,"studentTrueHypers":{"a":8,"b":2},"studentGuess":0.8,"delta":0,"totalExamples":10,"bonusSoFar":1.64},{"rt":14618,"response":{"heads":"8","tails":"2"},"type":"response","condition":"seqFeedback","trueTheta":0.8,"classrooms":["C","D"],"studentTrueClassroom":"D","exampleSet":"second","trial_type":"survey-html-form","trial_index":150,"time_elapsed":3505672,"internal_node_id":"0.0-140.0-0.0","params":{"nStudents":24,"maxFlips":30,"completionMinutes":45,"basePay":8,"maxBonus":9,"perTrialBonus":0.5,"perTrialBonusThreshold":0.05,"exampleCost":0.01},"classroomParams":{"A":{"a":1,"b":4},"B":{"a":4,"b":1},"C":{"a":2,"b":8},"D":{"a":8,"b":2}},"conditions":["nonSeqFull","nonSeqPartial","seqNoFeedback","seqFeedback"],"classroomPairings":[["A","B"],["C","D"]],"coinWeights":[0.2,0.5,0.8],"subjectId":"ANK8K5WTHJ61C","assignmentId":"30MVJZJNHNZ0CR6AKJXH085ZQG8J91","hitId":"3JGHED38EDDK7DFM0KVY7GXU94LY7W","url":"https://gershmanlab.com/experiments/alicia/teaching/experiment/?hitId=3JGHED38EDDK7DFM0KVY7GXU94LY7W&workerId=ANK8K5WTHJ61C&assignmentId=30MVJZJNHNZ0CR6AKJXH085ZQG8J91&a=NJM09&tp_a=NJM09&b=30MVJZJNHNZ0CR6AKJXH085ZQG8J91&tp_b=30MVJZJNHNZ0CR6AKJXH085ZQG8J91&c=365799&tp_c=365799","firstResponseHeads":8,"firstResponseTails":2,"secondResponseHeads":8,"secondResponseTails":2,"totalHeads":16,"totalTails":4,"studentIndex":17,"studentTrueHypers":{"a":8,"b":2},"studentGuess":0.8,"delta":0,"bonus":0.3,"bonusSoFar":1.94,"totalExamples":20},{"rt":16233,"response":{"heads":"4","tails":"1"},"type":"response","condition":"seqNoFeedback","trueTheta":0.8,"classrooms":["C","D"],"studentTrueClassroom":"C","exampleSet":"first","trial_type":"survey-html-form","trial_index":156,"time_elapsed":3535769,"internal_node_id":"0.0-146.0-0.0","params":{"nStudents":24,"maxFlips":30,"completionMinutes":45,"basePay":8,"maxBonus":9,"perTrialBonus":0.5,"perTrialBonusThreshold":0.05,"exampleCost":0.01},"classroomParams":{"A":{"a":1,"b":4},"B":{"a":4,"b":1},"C":{"a":2,"b":8},"D":{"a":8,"b":2}},"conditions":["nonSeqFull","nonSeqPartial","seqNoFeedback","seqFeedback"],"classroomPairings":[["A","B"],["C","D"]],"coinWeights":[0.2,0.5,0.8],"subjectId":"ANK8K5WTHJ61C","assignmentId":"30MVJZJNHNZ0CR6AKJXH085ZQG8J91","hitId":"3JGHED38EDDK7DFM0KVY7GXU94LY7W","url":"https://gershmanlab.com/experiments/alicia/teaching/experiment/?hitId=3JGHED38EDDK7DFM0KVY7GXU94LY7W&workerId=ANK8K5WTHJ61C&assignmentId=30MVJZJNHNZ0CR6AKJXH085ZQG8J91&a=NJM09&tp_a=NJM09&b=30MVJZJNHNZ0CR6AKJXH085ZQG8J91&tp_b=30MVJZJNHNZ0CR6AKJXH085ZQG8J91&c=365799&tp_c=365799","heads":4,"tails":1,"studentIndex":18,"studentTrueHypers":{"a":2,"b":8},"studentGuess":0.4,"delta":0.4,"totalExamples":5,"bonusSoFar":1.94},{"rt":9577,"response":{"heads":"8","tails":"2"},"type":"response","condition":"seqNoFeedback","trueTheta":0.8,"classrooms":["C","D"],"studentTrueClassroom":"C","exampleSet":"second","trial_type":"survey-html-form","trial_index":159,"time_elapsed":3551354,"internal_node_id":"0.0-149.0-0.0","params":{"nStudents":24,"maxFlips":30,"completionMinutes":45,"basePay":8,"maxBonus":9,"perTrialBonus":0.5,"perTrialBonusThreshold":0.05,"exampleCost":0.01},"classroomParams":{"A":{"a":1,"b":4},"B":{"a":4,"b":1},"C":{"a":2,"b":8},"D":{"a":8,"b":2}},"conditions":["nonSeqFull","nonSeqPartial","seqNoFeedback","seqFeedback"],"classroomPairings":[["A","B"],["C","D"]],"coinWeights":[0.2,0.5,0.8],"subjectId":"ANK8K5WTHJ61C","assignmentId":"30MVJZJNHNZ0CR6AKJXH085ZQG8J91","hitId":"3JGHED38EDDK7DFM0KVY7GXU94LY7W","url":"https://gershmanlab.com/experiments/alicia/teaching/experiment/?hitId=3JGHED38EDDK7DFM0KVY7GXU94LY7W&workerId=ANK8K5WTHJ61C&assignmentId=30MVJZJNHNZ0CR6AKJXH085ZQG8J91&a=NJM09&tp_a=NJM09&b=30MVJZJNHNZ0CR6AKJXH085ZQG8J91&tp_b=30MVJZJNHNZ0CR6AKJXH085ZQG8J91&c=365799&tp_c=365799","firstResponseHeads":4,"firstResponseTails":1,"secondResponseHeads":8,"secondResponseTails":2,"totalHeads":12,"totalTails":3,"studentIndex":18,"studentTrueHypers":{"a":2,"b":8},"studentGuess":0.56,"delta":0.24,"bonus":0,"bonusSoFar":1.94,"totalExamples":15},{"rt":9000,"response":{"heads":"2","tails":"6"},"type":"response","condition":"nonSeqPartial","trueTheta":0.2,"classrooms":["C","D"],"studentTrueClassroom":"C","exampleSet":"first","trial_type":"survey-html-form","trial_index":165,"time_elapsed":3580438,"internal_node_id":"0.0-155.0-0.0","params":{"nStudents":24,"maxFlips":30,"completionMinutes":45,"basePay":8,"maxBonus":9,"perTrialBonus":0.5,"perTrialBonusThreshold":0.05,"exampleCost":0.01},"classroomParams":{"A":{"a":1,"b":4},"B":{"a":4,"b":1},"C":{"a":2,"b":8},"D":{"a":8,"b":2}},"conditions":["nonSeqFull","nonSeqPartial","seqNoFeedback","seqFeedback"],"classroomPairings":[["A","B"],["C","D"]],"coinWeights":[0.2,0.5,0.8],"subjectId":"ANK8K5WTHJ61C","assignmentId":"30MVJZJNHNZ0CR6AKJXH085ZQG8J91","hitId":"3JGHED38EDDK7DFM0KVY7GXU94LY7W","url":"https://gershmanlab.com/experiments/alicia/teaching/experiment/?hitId=3JGHED38EDDK7DFM0KVY7GXU94LY7W&workerId=ANK8K5WTHJ61C&assignmentId=30MVJZJNHNZ0CR6AKJXH085ZQG8J91&a=NJM09&tp_a=NJM09&b=30MVJZJNHNZ0CR6AKJXH085ZQG8J91&tp_b=30MVJZJNHNZ0CR6AKJXH085ZQG8J91&c=365799&tp_c=365799","heads":2,"tails":6,"studentIndex":19,"studentTrueHypers":{"a":2,"b":8},"studentGuess":0.2222222222222222,"delta":0.0222222222222222,"totalExamples":8,"bonus":0.42,"bonusSoFar":2.36},{"rt":6850,"response":{"heads":"2","tails":"4"},"type":"response","condition":"seqNoFeedback","trueTheta":0.5,"classrooms":["A","B"],"studentTrueClassroom":"B","exampleSet":"first","trial_type":"survey-html-form","trial_index":171,"time_elapsed":3602738,"internal_node_id":"0.0-161.0-0.0","params":{"nStudents":24,"maxFlips":30,"completionMinutes":45,"basePay":8,"maxBonus":9,"perTrialBonus":0.5,"perTrialBonusThreshold":0.05,"exampleCost":0.01},"classroomParams":{"A":{"a":1,"b":4},"B":{"a":4,"b":1},"C":{"a":2,"b":8},"D":{"a":8,"b":2}},"conditions":["nonSeqFull","nonSeqPartial","seqNoFeedback","seqFeedback"],"classroomPairings":[["A","B"],["C","D"]],"coinWeights":[0.2,0.5,0.8],"subjectId":"ANK8K5WTHJ61C","assignmentId":"30MVJZJNHNZ0CR6AKJXH085ZQG8J91","hitId":"3JGHED38EDDK7DFM0KVY7GXU94LY7W","url":"https://gershmanlab.com/experiments/alicia/teaching/experiment/?hitId=3JGHED38EDDK7DFM0KVY7GXU94LY7W&workerId=ANK8K5WTHJ61C&assignmentId=30MVJZJNHNZ0CR6AKJXH085ZQG8J91&a=NJM09&tp_a=NJM09&b=30MVJZJNHNZ0CR6AKJXH085ZQG8J91&tp_b=30MVJZJNHNZ0CR6AKJXH085ZQG8J91&c=365799&tp_c=365799","heads":2,"tails":4,"studentIndex":20,"studentTrueHypers":{"a":4,"b":1},"studentGuess":0.5454545454545454,"delta":0.045454545454545414,"totalExamples":6,"bonusSoFar":2.36},{"rt":9105,"response":{"heads":"6","tails":"3"},"type":"response","condition":"seqNoFeedback","trueTheta":0.5,"classrooms":["A","B"],"studentTrueClassroom":"B","exampleSet":"second","trial_type":"survey-html-form","trial_index":174,"time_elapsed":3617104,"internal_node_id":"0.0-164.0-0.0","params":{"nStudents":24,"maxFlips":30,"completionMinutes":45,"basePay":8,"maxBonus":9,"perTrialBonus":0.5,"perTrialBonusThreshold":0.05,"exampleCost":0.01},"classroomParams":{"A":{"a":1,"b":4},"B":{"a":4,"b":1},"C":{"a":2,"b":8},"D":{"a":8,"b":2}},"conditions":["nonSeqFull","nonSeqPartial","seqNoFeedback","seqFeedback"],"classroomPairings":[["A","B"],["C","D"]],"coinWeights":[0.2,0.5,0.8],"subjectId":"ANK8K5WTHJ61C","assignmentId":"30MVJZJNHNZ0CR6AKJXH085ZQG8J91","hitId":"3JGHED38EDDK7DFM0KVY7GXU94LY7W","url":"https://gershmanlab.com/experiments/alicia/teaching/experiment/?hitId=3JGHED38EDDK7DFM0KVY7GXU94LY7W&workerId=ANK8K5WTHJ61C&assignmentId=30MVJZJNHNZ0CR6AKJXH085ZQG8J91&a=NJM09&tp_a=NJM09&b=30MVJZJNHNZ0CR6AKJXH085ZQG8J91&tp_b=30MVJZJNHNZ0CR6AKJXH085ZQG8J91&c=365799&tp_c=365799","firstResponseHeads":2,"firstResponseTails":4,"secondResponseHeads":6,"secondResponseTails":3,"totalHeads":8,"totalTails":7,"studentIndex":20,"studentTrueHypers":{"a":4,"b":1},"studentGuess":0.6,"delta":0.09999999999999998,"bonus":0,"bonusSoFar":2.36,"totalExamples":15},{"rt":8114,"response":{"heads":"2","tails":"4"},"type":"response","condition":"seqFeedback","trueTheta":0.5,"classrooms":["A","B"],"studentTrueClassroom":"B","exampleSet":"first","trial_type":"survey-html-form","trial_index":180,"time_elapsed":3652704,"internal_node_id":"0.0-170.0-0.0","params":{"nStudents":24,"maxFlips":30,"completionMinutes":45,"basePay":8,"maxBonus":9,"perTrialBonus":0.5,"perTrialBonusThreshold":0.05,"exampleCost":0.01},"classroomParams":{"A":{"a":1,"b":4},"B":{"a":4,"b":1},"C":{"a":2,"b":8},"D":{"a":8,"b":2}},"conditions":["nonSeqFull","nonSeqPartial","seqNoFeedback","seqFeedback"],"classroomPairings":[["A","B"],["C","D"]],"coinWeights":[0.2,0.5,0.8],"subjectId":"ANK8K5WTHJ61C","assignmentId":"30MVJZJNHNZ0CR6AKJXH085ZQG8J91","hitId":"3JGHED38EDDK7DFM0KVY7GXU94LY7W","url":"https://gershmanlab.com/experiments/alicia/teaching/experiment/?hitId=3JGHED38EDDK7DFM0KVY7GXU94LY7W&workerId=ANK8K5WTHJ61C&assignmentId=30MVJZJNHNZ0CR6AKJXH085ZQG8J91&a=NJM09&tp_a=NJM09&b=30MVJZJNHNZ0CR6AKJXH085ZQG8J91&tp_b=30MVJZJNHNZ0CR6AKJXH085ZQG8J91&c=365799&tp_c=365799","heads":2,"tails":4,"studentIndex":21,"studentTrueHypers":{"a":4,"b":1},"studentGuess":0.5454545454545454,"delta":0.045454545454545414,"totalExamples":6,"bonusSoFar":2.36},{"rt":7722,"response":{"heads":"4","tails":"2"},"type":"response","condition":"seqFeedback","trueTheta":0.5,"classrooms":["A","B"],"studentTrueClassroom":"B","exampleSet":"second","trial_type":"survey-html-form","trial_index":184,"time_elapsed":3673004,"internal_node_id":"0.0-174.0-0.0","params":{"nStudents":24,"maxFlips":30,"completionMinutes":45,"basePay":8,"maxBonus":9,"perTrialBonus":0.5,"perTrialBonusThreshold":0.05,"exampleCost":0.01},"classroomParams":{"A":{"a":1,"b":4},"B":{"a":4,"b":1},"C":{"a":2,"b":8},"D":{"a":8,"b":2}},"conditions":["nonSeqFull","nonSeqPartial","seqNoFeedback","seqFeedback"],"classroomPairings":[["A","B"],["C","D"]],"coinWeights":[0.2,0.5,0.8],"subjectId":"ANK8K5WTHJ61C","assignmentId":"30MVJZJNHNZ0CR6AKJXH085ZQG8J91","hitId":"3JGHED38EDDK7DFM0KVY7GXU94LY7W","url":"https://gershmanlab.com/experiments/alicia/teaching/experiment/?hitId=3JGHED38EDDK7DFM0KVY7GXU94LY7W&workerId=ANK8K5WTHJ61C&assignmentId=30MVJZJNHNZ0CR6AKJXH085ZQG8J91&a=NJM09&tp_a=NJM09&b=30MVJZJNHNZ0CR6AKJXH085ZQG8J91&tp_b=30MVJZJNHNZ0CR6AKJXH085ZQG8J91&c=365799&tp_c=365799","firstResponseHeads":2,"firstResponseTails":4,"secondResponseHeads":4,"secondResponseTails":2,"totalHeads":6,"totalTails":6,"studentIndex":21,"studentTrueHypers":{"a":4,"b":1},"studentGuess":0.5882352941176471,"delta":0.08823529411764708,"bonus":0,"bonusSoFar":2.36,"totalExamples":12},{"rt":11514,"response":{"heads":"1","tails":"4"},"type":"response","condition":"nonSeqFull","trueTheta":0.2,"classrooms":["A","B"],"studentTrueClassroom":"B","exampleSet":"first","trial_type":"survey-html-form","trial_index":190,"time_elapsed":3700404,"internal_node_id":"0.0-180.0-0.0","params":{"nStudents":24,"maxFlips":30,"completionMinutes":45,"basePay":8,"maxBonus":9,"perTrialBonus":0.5,"perTrialBonusThreshold":0.05,"exampleCost":0.01},"classroomParams":{"A":{"a":1,"b":4},"B":{"a":4,"b":1},"C":{"a":2,"b":8},"D":{"a":8,"b":2}},"conditions":["nonSeqFull","nonSeqPartial","seqNoFeedback","seqFeedback"],"classroomPairings":[["A","B"],["C","D"]],"coinWeights":[0.2,0.5,0.8],"subjectId":"ANK8K5WTHJ61C","assignmentId":"30MVJZJNHNZ0CR6AKJXH085ZQG8J91","hitId":"3JGHED38EDDK7DFM0KVY7GXU94LY7W","url":"https://gershmanlab.com/experiments/alicia/teaching/experiment/?hitId=3JGHED38EDDK7DFM0KVY7GXU94LY7W&workerId=ANK8K5WTHJ61C&assignmentId=30MVJZJNHNZ0CR6AKJXH085ZQG8J91&a=NJM09&tp_a=NJM09&b=30MVJZJNHNZ0CR6AKJXH085ZQG8J91&tp_b=30MVJZJNHNZ0CR6AKJXH085ZQG8J91&c=365799&tp_c=365799","heads":1,"tails":4,"studentIndex":22,"studentTrueHypers":{"a":4,"b":1},"studentGuess":0.5,"delta":0.3,"totalExamples":5,"bonus":0,"bonusSoFar":2.36},{"rt":16081,"response":{"heads":"6","tails":"2"},"type":"response","condition":"nonSeqFull","trueTheta":0.2,"classrooms":["C","D"],"studentTrueClassroom":"C","exampleSet":"first","trial_type":"survey-html-form","trial_index":196,"time_elapsed":3727988,"internal_node_id":"0.0-186.0-0.0","params":{"nStudents":24,"maxFlips":30,"completionMinutes":45,"basePay":8,"maxBonus":9,"perTrialBonus":0.5,"perTrialBonusThreshold":0.05,"exampleCost":0.01},"classroomParams":{"A":{"a":1,"b":4},"B":{"a":4,"b":1},"C":{"a":2,"b":8},"D":{"a":8,"b":2}},"conditions":["nonSeqFull","nonSeqPartial","seqNoFeedback","seqFeedback"],"classroomPairings":[["A","B"],["C","D"]],"coinWeights":[0.2,0.5,0.8],"subjectId":"ANK8K5WTHJ61C","assignmentId":"30MVJZJNHNZ0CR6AKJXH085ZQG8J91","hitId":"3JGHED38EDDK7DFM0KVY7GXU94LY7W","url":"https://gershmanlab.com/experiments/alicia/teaching/experiment/?hitId=3JGHED38EDDK7DFM0KVY7GXU94LY7W&workerId=ANK8K5WTHJ61C&assignmentId=30MVJZJNHNZ0CR6AKJXH085ZQG8J91&a=NJM09&tp_a=NJM09&b=30MVJZJNHNZ0CR6AKJXH085ZQG8J91&tp_b=30MVJZJNHNZ0CR6AKJXH085ZQG8J91&c=365799&tp_c=365799","heads":6,"tails":2,"studentIndex":23,"studentTrueHypers":{"a":2,"b":8},"studentGuess":0.4444444444444444,"delta":0.2444444444444444,"totalExamples":8,"bonus":0,"bonusSoFar":2.36},{"rt":23639,"response":{"gender":"female","age":"54","understood":"yes","comments":"Challenging."},"type":"response","trial_type":"survey-html-form","trial_index":200,"time_elapsed":3760156,"internal_node_id":"0.0-191.0","params":{"nStudents":24,"maxFlips":30,"completionMinutes":45,"basePay":8,"maxBonus":9,"perTrialBonus":0.5,"perTrialBonusThreshold":0.05,"exampleCost":0.01},"classroomParams":{"A":{"a":1,"b":4},"B":{"a":4,"b":1},"C":{"a":2,"b":8},"D":{"a":8,"b":2}},"conditions":["nonSeqFull","nonSeqPartial","seqNoFeedback","seqFeedback"],"classroomPairings":[["A","B"],["C","D"]],"coinWeights":[0.2,0.5,0.8],"subjectId":"ANK8K5WTHJ61C","assignmentId":"30MVJZJNHNZ0CR6AKJXH085ZQG8J91","hitId":"3JGHED38EDDK7DFM0KVY7GXU94LY7W","url":"https://gershmanlab.com/experiments/alicia/teaching/experiment/?hitId=3JGHED38EDDK7DFM0KVY7GXU94LY7W&workerId=ANK8K5WTHJ61C&assignmentId=30MVJZJNHNZ0CR6AKJXH085ZQG8J91&a=NJM09&tp_a=NJM09&b=30MVJZJNHNZ0CR6AKJXH085ZQG8J91&tp_b=30MVJZJNHNZ0CR6AKJXH085ZQG8J91&c=365799&tp_c=365799","totalBonus":2.36}]