[{"rt":21382,"response":{"heads":"8","tails":"2"},"type":"response","condition":"seqFeedback","trueTheta":0.8,"classrooms":["C","D"],"studentTrueClassroom":"C","exampleSet":"first","trial_type":"survey-html-form","trial_index":7,"time_elapsed":653746,"internal_node_id":"0.0-6.0-0.0","params":{"nStudents":24,"maxFlips":30,"completionMinutes":45,"basePay":8,"maxBonus":9,"perTrialBonus":0.5,"perTrialBonusThreshold":0.05,"exampleCost":0.01},"classroomParams":{"A":{"a":1,"b":4},"B":{"a":4,"b":1},"C":{"a":2,"b":8},"D":{"a":8,"b":2}},"conditions":["nonSeqFull","nonSeqPartial","seqNoFeedback","seqFeedback"],"classroomPairings":[["A","B"],["C","D"]],"coinWeights":[0.2,0.5,0.8],"subjectId":"AOHS348RVOF6D","assignmentId":"3LUY3GC630MSKJLF0Z4HJ8054OMP7P","hitId":"3Z3R5YC0P3915KVY8X6BNRIWSQNFTT","url":"https://gershmanlab.com/experiments/alicia/teaching/experiment/?hitId=3Z3R5YC0P3915KVY8X6BNRIWSQNFTT&workerId=AOHS348RVOF6D&assignmentId=3LUY3GC630MSKJLF0Z4HJ8054OMP7P&a=63UL9&tp_a=63UL9&b=3LUY3GC630MSKJLF0Z4HJ8054OMP7P&tp_b=3LUY3GC630MSKJLF0Z4HJ8054OMP7P&c=365799&tp_c=365799","heads":8,"tails":2,"studentIndex":0,"studentTrueHypers":{"a":2,"b":8},"studentGuess":0.5,"delta":0.30000000000000004,"totalExamples":10,"bonusSoFar":0},{"rt":32412,"response":{"heads":"8","tails":"2"},"type":"response","condition":"seqFeedback","trueTheta":0.8,"classrooms":["C","D"],"studentTrueClassroom":"C","exampleSet":"second","trial_type":"survey-html-form","trial_index":11,"time_elapsed":703526,"internal_node_id":"0.0-10.0-0.0","params":{"nStudents":24,"maxFlips":30,"completionMinutes":45,"basePay":8,"maxBonus":9,"perTrialBonus":0.5,"perTrialBonusThreshold":0.05,"exampleCost":0.01},"classroomParams":{"A":{"a":1,"b":4},"B":{"a":4,"b":1},"C":{"a":2,"b":8},"D":{"a":8,"b":2}},"conditions":["nonSeqFull","nonSeqPartial","seqNoFeedback","seqFeedback"],"classroomPairings":[["A","B"],["C","D"]],"coinWeights":[0.2,0.5,0.8],"subjectId":"AOHS348RVOF6D","assignmentId":"3LUY3GC630MSKJLF0Z4HJ8054OMP7P","hitId":"3Z3R5YC0P3915KVY8X6BNRIWSQNFTT","url":"https://gershmanlab.com/experiments/alicia/teaching/experiment/?hitId=3Z3R5YC0P3915KVY8X6BNRIWSQNFTT&workerId=AOHS348RVOF6D&assignmentId=3LUY3GC630MSKJLF0Z4HJ8054OMP7P&a=63UL9&tp_a=63UL9&b=3LUY3GC630MSKJLF0Z4HJ8054OMP7P&tp_b=3LUY3GC630MSKJLF0Z4HJ8054OMP7P&c=365799&tp_c=365799","firstResponseHeads":8,"firstResponseTails":2,"secondResponseHeads":8,"secondResponseTails":2,"totalHeads":16,"totalTails":4,"studentIndex":0,"studentTrueHypers":{"a":2,"b":8},"studentGuess":0.6,"delta":0.20000000000000007,"bonus":0,"bonusSoFar":0,"totalExamples":20},{"rt":4972,"response":{"heads":"8","tails":"2"},"type":"response","condition":"seqNoFeedback","trueTheta":0.5,"classrooms":["C","D"],"studentTrueClassroom":"C","exampleSet":"first","trial_type":"survey-html-form","trial_index":17,"time_elapsed":723980,"internal_node_id":"0.0-16.0-0.0","params":{"nStudents":24,"maxFlips":30,"completionMinutes":45,"basePay":8,"maxBonus":9,"perTrialBonus":0.5,"perTrialBonusThreshold":0.05,"exampleCost":0.01},"classroomParams":{"A":{"a":1,"b":4},"B":{"a":4,"b":1},"C":{"a":2,"b":8},"D":{"a":8,"b":2}},"conditions":["nonSeqFull","nonSeqPartial","seqNoFeedback","seqFeedback"],"classroomPairings":[["A","B"],["C","D"]],"coinWeights":[0.2,0.5,0.8],"subjectId":"AOHS348RVOF6D","assignmentId":"3LUY3GC630MSKJLF0Z4HJ8054OMP7P","hitId":"3Z3R5YC0P3915KVY8X6BNRIWSQNFTT","url":"https://gershmanlab.com/experiments/alicia/teaching/experiment/?hitId=3Z3R5YC0P3915KVY8X6BNRIWSQNFTT&workerId=AOHS348RVOF6D&assignmentId=3LUY3GC630MSKJLF0Z4HJ8054OMP7P&a=63UL9&tp_a=63UL9&b=3LUY3GC630MSKJLF0Z4HJ8054OMP7P&tp_b=3LUY3GC630MSKJLF0Z4HJ8054OMP7P&c=365799&tp_c=365799","heads":8,"tails":2,"studentIndex":1,"studentTrueHypers":{"a":2,"b":8},"studentGuess":0.5,"delta":0,"totalExamples":10,"bonusSoFar":0},{"rt":4843,"response":{"heads":"8","tails":"2"},"type":"response","condition":"seqNoFeedback","trueTheta":0.5,"classrooms":["C","D"],"studentTrueClassroom":"C","exampleSet":"second","trial_type":"survey-html-form","trial_index":20,"time_elapsed":734840,"internal_node_id":"0.0-19.0-0.0","params":{"nStudents":24,"maxFlips":30,"completionMinutes":45,"basePay":8,"maxBonus":9,"perTrialBonus":0.5,"perTrialBonusThreshold":0.05,"exampleCost":0.01},"classroomParams":{"A":{"a":1,"b":4},"B":{"a":4,"b":1},"C":{"a":2,"b":8},"D":{"a":8,"b":2}},"conditions":["nonSeqFull","nonSeqPartial","seqNoFeedback","seqFeedback"],"classroomPairings":[["A","B"],["C","D"]],"coinWeights":[0.2,0.5,0.8],"subjectId":"AOHS348RVOF6D","assignmentId":"3LUY3GC630MSKJLF0Z4HJ8054OMP7P","hitId":"3Z3R5YC0P3915KVY8X6BNRIWSQNFTT","url":"https://gershmanlab.com/experiments/alicia/teaching/experiment/?hitId=3Z3R5YC0P3915KVY8X6BNRIWSQNFTT&workerId=AOHS348RVOF6D&assignmentId=3LUY3GC630MSKJLF0Z4HJ8054OMP7P&a=63UL9&tp_a=63UL9&b=3LUY3GC630MSKJLF0Z4HJ8054OMP7P&tp_b=3LUY3GC630MSKJLF0Z4HJ8054OMP7P&c=365799&tp_c=365799","firstResponseHeads":8,"firstResponseTails":2,"secondResponseHeads":8,"secondResponseTails":2,"totalHeads":16,"totalTails":4,"studentIndex":1,"studentTrueHypers":{"a":2,"b":8},"studentGuess":0.6,"delta":0.09999999999999998,"bonus":0,"bonusSoFar":0,"totalExamples":20},{"rt":6832,"response":{"heads":"10","tails":"1"},"type":"response","condition":"seqNoFeedback","trueTheta":0.2,"classrooms":["C","D"],"studentTrueClassroom":"C","exampleSet":"first","trial_type":"survey-html-form","trial_index":26,"time_elapsed":764023,"internal_node_id":"0.0-25.0-0.0","params":{"nStudents":24,"maxFlips":30,"completionMinutes":45,"basePay":8,"maxBonus":9,"perTrialBonus":0.5,"perTrialBonusThreshold":0.05,"exampleCost":0.01},"classroomParams":{"A":{"a":1,"b":4},"B":{"a":4,"b":1},"C":{"a":2,"b":8},"D":{"a":8,"b":2}},"conditions":["nonSeqFull","nonSeqPartial","seqNoFeedback","seqFeedback"],"classroomPairings":[["A","B"],["C","D"]],"coinWeights":[0.2,0.5,0.8],"subjectId":"AOHS348RVOF6D","assignmentId":"3LUY3GC630MSKJLF0Z4HJ8054OMP7P","hitId":"3Z3R5YC0P3915KVY8X6BNRIWSQNFTT","url":"https://gershmanlab.com/experiments/alicia/teaching/experiment/?hitId=3Z3R5YC0P3915KVY8X6BNRIWSQNFTT&workerId=AOHS348RVOF6D&assignmentId=3LUY3GC630MSKJLF0Z4HJ8054OMP7P&a=63UL9&tp_a=63UL9&b=3LUY3GC630MSKJLF0Z4HJ8054OMP7P&tp_b=3LUY3GC630MSKJLF0Z4HJ8054OMP7P&c=365799&tp_c=365799","heads":10,"tails":1,"studentIndex":2,"studentTrueHypers":{"a":2,"b":8},"studentGuess":0.5714285714285714,"delta":0.3714285714285714,"totalExamples":11,"bonusSoFar":0},{"rt":5639,"response":{"heads":"10","tails":"2"},"type":"response","condition":"seqNoFeedback","trueTheta":0.2,"classrooms":["C","D"],"studentTrueClassroom":"C","exampleSet":"second","trial_type":"survey-html-form","trial_index":29,"time_elapsed":775933,"internal_node_id":"0.0-28.0-0.0","params":{"nStudents":24,"maxFlips":30,"completionMinutes":45,"basePay":8,"maxBonus":9,"perTrialBonus":0.5,"perTrialBonusThreshold":0.05,"exampleCost":0.01},"classroomParams":{"A":{"a":1,"b":4},"B":{"a":4,"b":1},"C":{"a":2,"b":8},"D":{"a":8,"b":2}},"conditions":["nonSeqFull","nonSeqPartial","seqNoFeedback","seqFeedback"],"classroomPairings":[["A","B"],["C","D"]],"coinWeights":[0.2,0.5,0.8],"subjectId":"AOHS348RVOF6D","assignmentId":"3LUY3GC630MSKJLF0Z4HJ8054OMP7P","hitId":"3Z3R5YC0P3915KVY8X6BNRIWSQNFTT","url":"https://gershmanlab.com/experiments/alicia/teaching/experiment/?hitId=3Z3R5YC0P3915KVY8X6BNRIWSQNFTT&workerId=AOHS348RVOF6D&assignmentId=3LUY3GC630MSKJLF0Z4HJ8054OMP7P&a=63UL9&tp_a=63UL9&b=3LUY3GC630MSKJLF0Z4HJ8054OMP7P&tp_b=3LUY3GC630MSKJLF0Z4HJ8054OMP7P&c=365799&tp_c=365799","firstResponseHeads":10,"firstResponseTails":1,"secondResponseHeads":10,"secondResponseTails":2,"totalHeads":20,"totalTails":3,"studentIndex":2,"studentTrueHypers":{"a":2,"b":8},"studentGuess":0.6666666666666666,"delta":0.4666666666666666,"bonus":0,"bonusSoFar":0,"totalExamples":23},{"rt":13506,"response":{"heads":"30","tails":"1"},"type":"response","condition":"nonSeqFull","trueTheta":0.8,"classrooms":["C","D"],"studentTrueClassroom":"C","exampleSet":"first","trial_type":"survey-html-form","trial_index":35,"time_elapsed":847895,"internal_node_id":"0.0-34.0-0.0","params":{"nStudents":24,"maxFlips":30,"completionMinutes":45,"basePay":8,"maxBonus":9,"perTrialBonus":0.5,"perTrialBonusThreshold":0.05,"exampleCost":0.01},"classroomParams":{"A":{"a":1,"b":4},"B":{"a":4,"b":1},"C":{"a":2,"b":8},"D":{"a":8,"b":2}},"conditions":["nonSeqFull","nonSeqPartial","seqNoFeedback","seqFeedback"],"classroomPairings":[["A","B"],["C","D"]],"coinWeights":[0.2,0.5,0.8],"subjectId":"AOHS348RVOF6D","assignmentId":"3LUY3GC630MSKJLF0Z4HJ8054OMP7P","hitId":"3Z3R5YC0P3915KVY8X6BNRIWSQNFTT","url":"https://gershmanlab.com/experiments/alicia/teaching/experiment/?hitId=3Z3R5YC0P3915KVY8X6BNRIWSQNFTT&workerId=AOHS348RVOF6D&assignmentId=3LUY3GC630MSKJLF0Z4HJ8054OMP7P&a=63UL9&tp_a=63UL9&b=3LUY3GC630MSKJLF0Z4HJ8054OMP7P&tp_b=3LUY3GC630MSKJLF0Z4HJ8054OMP7P&c=365799&tp_c=365799","heads":30,"tails":1,"studentIndex":3,"studentTrueHypers":{"a":2,"b":8},"studentGuess":0.7804878048780488,"delta":0.019512195121951237,"totalExamples":31,"bonus":0.19,"bonusSoFar":0.19},{"rt":5535,"response":{"heads":"30","tails":"1"},"type":"response","condition":"nonSeqFull","trueTheta":0.8,"classrooms":["C","D"],"studentTrueClassroom":"C","exampleSet":"first","trial_type":"survey-html-form","trial_index":36,"time_elapsed":853432,"internal_node_id":"0.0-34.1-0.1","params":{"nStudents":24,"maxFlips":30,"completionMinutes":45,"basePay":8,"maxBonus":9,"perTrialBonus":0.5,"perTrialBonusThreshold":0.05,"exampleCost":0.01},"classroomParams":{"A":{"a":1,"b":4},"B":{"a":4,"b":1},"C":{"a":2,"b":8},"D":{"a":8,"b":2}},"conditions":["nonSeqFull","nonSeqPartial","seqNoFeedback","seqFeedback"],"classroomPairings":[["A","B"],["C","D"]],"coinWeights":[0.2,0.5,0.8],"subjectId":"AOHS348RVOF6D","assignmentId":"3LUY3GC630MSKJLF0Z4HJ8054OMP7P","hitId":"3Z3R5YC0P3915KVY8X6BNRIWSQNFTT","url":"https://gershmanlab.com/experiments/alicia/teaching/experiment/?hitId=3Z3R5YC0P3915KVY8X6BNRIWSQNFTT&workerId=AOHS348RVOF6D&assignmentId=3LUY3GC630MSKJLF0Z4HJ8054OMP7P&a=63UL9&tp_a=63UL9&b=3LUY3GC630MSKJLF0Z4HJ8054OMP7P&tp_b=3LUY3GC630MSKJLF0Z4HJ8054OMP7P&c=365799&tp_c=365799","heads":30,"tails":1,"studentIndex":3,"studentTrueHypers":{"a":2,"b":8},"studentGuess":0.7804878048780488,"delta":0.019512195121951237,"totalExamples":31,"bonus":0.19,"bonusSoFar":0.38},{"rt":7304,"response":{"heads":"29","tails":"1"},"type":"response","condition":"nonSeqFull","trueTheta":0.8,"classrooms":["C","D"],"studentTrueClassroom":"C","exampleSet":"first","trial_type":"survey-html-form","trial_index":37,"time_elapsed":860737,"internal_node_id":"0.0-34.2-0.2","params":{"nStudents":24,"maxFlips":30,"completionMinutes":45,"basePay":8,"maxBonus":9,"perTrialBonus":0.5,"perTrialBonusThreshold":0.05,"exampleCost":0.01},"classroomParams":{"A":{"a":1,"b":4},"B":{"a":4,"b":1},"C":{"a":2,"b":8},"D":{"a":8,"b":2}},"conditions":["nonSeqFull","nonSeqPartial","seqNoFeedback","seqFeedback"],"classroomPairings":[["A","B"],["C","D"]],"coinWeights":[0.2,0.5,0.8],"subjectId":"AOHS348RVOF6D","assignmentId":"3LUY3GC630MSKJLF0Z4HJ8054OMP7P","hitId":"3Z3R5YC0P3915KVY8X6BNRIWSQNFTT","url":"https://gershmanlab.com/experiments/alicia/teaching/experiment/?hitId=3Z3R5YC0P3915KVY8X6BNRIWSQNFTT&workerId=AOHS348RVOF6D&assignmentId=3LUY3GC630MSKJLF0Z4HJ8054OMP7P&a=63UL9&tp_a=63UL9&b=3LUY3GC630MSKJLF0Z4HJ8054OMP7P&tp_b=3LUY3GC630MSKJLF0Z4HJ8054OMP7P&c=365799&tp_c=365799","heads":29,"tails":1,"studentIndex":3,"studentTrueHypers":{"a":2,"b":8},"studentGuess":0.775,"delta":0.025000000000000022,"totalExamples":30,"bonus":0.2,"bonusSoFar":0.58},{"rt":6368,"response":{"heads":"29","tails":"1"},"type":"response","condition":"nonSeqPartial","trueTheta":0.8,"classrooms":["C","D"],"studentTrueClassroom":"C","exampleSet":"first","trial_type":"survey-html-form","trial_index":43,"time_elapsed":885203,"internal_node_id":"0.0-40.0-0.0","params":{"nStudents":24,"maxFlips":30,"completionMinutes":45,"basePay":8,"maxBonus":9,"perTrialBonus":0.5,"perTrialBonusThreshold":0.05,"exampleCost":0.01},"classroomParams":{"A":{"a":1,"b":4},"B":{"a":4,"b":1},"C":{"a":2,"b":8},"D":{"a":8,"b":2}},"conditions":["nonSeqFull","nonSeqPartial","seqNoFeedback","seqFeedback"],"classroomPairings":[["A","B"],["C","D"]],"coinWeights":[0.2,0.5,0.8],"subjectId":"AOHS348RVOF6D","assignmentId":"3LUY3GC630MSKJLF0Z4HJ8054OMP7P","hitId":"3Z3R5YC0P3915KVY8X6BNRIWSQNFTT","url":"https://gershmanlab.com/experiments/alicia/teaching/experiment/?hitId=3Z3R5YC0P3915KVY8X6BNRIWSQNFTT&workerId=AOHS348RVOF6D&assignmentId=3LUY3GC630MSKJLF0Z4HJ8054OMP7P&a=63UL9&tp_a=63UL9&b=3LUY3GC630MSKJLF0Z4HJ8054OMP7P&tp_b=3LUY3GC630MSKJLF0Z4HJ8054OMP7P&c=365799&tp_c=365799","heads":29,"tails":1,"studentIndex":4,"studentTrueHypers":{"a":2,"b":8},"studentGuess":0.775,"delta":0.025000000000000022,"totalExamples":30,"bonus":0.2,"bonusSoFar":0.78},{"rt":4949,"response":{"heads":"7","tails":"3"},"type":"response","condition":"seqFeedback","trueTheta":0.5,"classrooms":["C","D"],"studentTrueClassroom":"D","exampleSet":"first","trial_type":"survey-html-form","trial_index":49,"time_elapsed":908806,"internal_node_id":"0.0-46.0-0.0","params":{"nStudents":24,"maxFlips":30,"completionMinutes":45,"basePay":8,"maxBonus":9,"perTrialBonus":0.5,"perTrialBonusThreshold":0.05,"exampleCost":0.01},"classroomParams":{"A":{"a":1,"b":4},"B":{"a":4,"b":1},"C":{"a":2,"b":8},"D":{"a":8,"b":2}},"conditions":["nonSeqFull","nonSeqPartial","seqNoFeedback","seqFeedback"],"classroomPairings":[["A","B"],["C","D"]],"coinWeights":[0.2,0.5,0.8],"subjectId":"AOHS348RVOF6D","assignmentId":"3LUY3GC630MSKJLF0Z4HJ8054OMP7P","hitId":"3Z3R5YC0P3915KVY8X6BNRIWSQNFTT","url":"https://gershmanlab.com/experiments/alicia/teaching/experiment/?hitId=3Z3R5YC0P3915KVY8X6BNRIWSQNFTT&workerId=AOHS348RVOF6D&assignmentId=3LUY3GC630MSKJLF0Z4HJ8054OMP7P&a=63UL9&tp_a=63UL9&b=3LUY3GC630MSKJLF0Z4HJ8054OMP7P&tp_b=3LUY3GC630MSKJLF0Z4HJ8054OMP7P&c=365799&tp_c=365799","heads":7,"tails":3,"studentIndex":5,"studentTrueHypers":{"a":8,"b":2},"studentGuess":0.75,"delta":0.25,"totalExamples":10,"bonusSoFar":0.78},{"rt":10439,"response":{"heads":"2","tails":"15"},"type":"response","condition":"seqFeedback","trueTheta":0.5,"classrooms":["C","D"],"studentTrueClassroom":"D","exampleSet":"second","trial_type":"survey-html-form","trial_index":53,"time_elapsed":927759,"internal_node_id":"0.0-50.0-0.0","params":{"nStudents":24,"maxFlips":30,"completionMinutes":45,"basePay":8,"maxBonus":9,"perTrialBonus":0.5,"perTrialBonusThreshold":0.05,"exampleCost":0.01},"classroomParams":{"A":{"a":1,"b":4},"B":{"a":4,"b":1},"C":{"a":2,"b":8},"D":{"a":8,"b":2}},"conditions":["nonSeqFull","nonSeqPartial","seqNoFeedback","seqFeedback"],"classroomPairings":[["A","B"],["C","D"]],"coinWeights":[0.2,0.5,0.8],"subjectId":"AOHS348RVOF6D","assignmentId":"3LUY3GC630MSKJLF0Z4HJ8054OMP7P","hitId":"3Z3R5YC0P3915KVY8X6BNRIWSQNFTT","url":"https://gershmanlab.com/experiments/alicia/teaching/experiment/?hitId=3Z3R5YC0P3915KVY8X6BNRIWSQNFTT&workerId=AOHS348RVOF6D&assignmentId=3LUY3GC630MSKJLF0Z4HJ8054OMP7P&a=63UL9&tp_a=63UL9&b=3LUY3GC630MSKJLF0Z4HJ8054OMP7P&tp_b=3LUY3GC630MSKJLF0Z4HJ8054OMP7P&c=365799&tp_c=365799","firstResponseHeads":7,"firstResponseTails":3,"secondResponseHeads":2,"secondResponseTails":15,"totalHeads":9,"totalTails":18,"studentIndex":5,"studentTrueHypers":{"a":8,"b":2},"studentGuess":0.4594594594594595,"delta":0.040540540540540515,"bonus":0.23,"bonusSoFar":1.01,"totalExamples":27},{"rt":4987,"response":{"heads":"2","tails":"28"},"type":"response","condition":"nonSeqPartial","trueTheta":0.2,"classrooms":["C","D"],"studentTrueClassroom":"C","exampleSet":"first","trial_type":"survey-html-form","trial_index":59,"time_elapsed":954040,"internal_node_id":"0.0-56.0-0.0","params":{"nStudents":24,"maxFlips":30,"completionMinutes":45,"basePay":8,"maxBonus":9,"perTrialBonus":0.5,"perTrialBonusThreshold":0.05,"exampleCost":0.01},"classroomParams":{"A":{"a":1,"b":4},"B":{"a":4,"b":1},"C":{"a":2,"b":8},"D":{"a":8,"b":2}},"conditions":["nonSeqFull","nonSeqPartial","seqNoFeedback","seqFeedback"],"classroomPairings":[["A","B"],["C","D"]],"coinWeights":[0.2,0.5,0.8],"subjectId":"AOHS348RVOF6D","assignmentId":"3LUY3GC630MSKJLF0Z4HJ8054OMP7P","hitId":"3Z3R5YC0P3915KVY8X6BNRIWSQNFTT","url":"https://gershmanlab.com/experiments/alicia/teaching/experiment/?hitId=3Z3R5YC0P3915KVY8X6BNRIWSQNFTT&workerId=AOHS348RVOF6D&assignmentId=3LUY3GC630MSKJLF0Z4HJ8054OMP7P&a=63UL9&tp_a=63UL9&b=3LUY3GC630MSKJLF0Z4HJ8054OMP7P&tp_b=3LUY3GC630MSKJLF0Z4HJ8054OMP7P&c=365799&tp_c=365799","heads":2,"tails":28,"studentIndex":6,"studentTrueHypers":{"a":2,"b":8},"studentGuess":0.1,"delta":0.1,"totalExamples":30,"bonus":0,"bonusSoFar":1.01},{"rt":9007,"response":{"heads":"7","tails":"2"},"type":"response","condition":"seqFeedback","trueTheta":0.5,"classrooms":["A","B"],"studentTrueClassroom":"A","exampleSet":"first","trial_type":"survey-html-form","trial_index":65,"time_elapsed":981723,"internal_node_id":"0.0-62.0-0.0","params":{"nStudents":24,"maxFlips":30,"completionMinutes":45,"basePay":8,"maxBonus":9,"perTrialBonus":0.5,"perTrialBonusThreshold":0.05,"exampleCost":0.01},"classroomParams":{"A":{"a":1,"b":4},"B":{"a":4,"b":1},"C":{"a":2,"b":8},"D":{"a":8,"b":2}},"conditions":["nonSeqFull","nonSeqPartial","seqNoFeedback","seqFeedback"],"classroomPairings":[["A","B"],["C","D"]],"coinWeights":[0.2,0.5,0.8],"subjectId":"AOHS348RVOF6D","assignmentId":"3LUY3GC630MSKJLF0Z4HJ8054OMP7P","hitId":"3Z3R5YC0P3915KVY8X6BNRIWSQNFTT","url":"https://gershmanlab.com/experiments/alicia/teaching/experiment/?hitId=3Z3R5YC0P3915KVY8X6BNRIWSQNFTT&workerId=AOHS348RVOF6D&assignmentId=3LUY3GC630MSKJLF0Z4HJ8054OMP7P&a=63UL9&tp_a=63UL9&b=3LUY3GC630MSKJLF0Z4HJ8054OMP7P&tp_b=3LUY3GC630MSKJLF0Z4HJ8054OMP7P&c=365799&tp_c=365799","heads":7,"tails":2,"studentIndex":7,"studentTrueHypers":{"a":1,"b":4},"studentGuess":0.5714285714285714,"delta":0.0714285714285714,"totalExamples":9,"bonusSoFar":1.01},{"rt":6691,"response":{"heads":"6","tails":"3"},"type":"response","condition":"seqFeedback","trueTheta":0.5,"classrooms":["A","B"],"studentTrueClassroom":"A","exampleSet":"second","trial_type":"survey-html-form","trial_index":69,"time_elapsed":998674,"internal_node_id":"0.0-66.0-0.0","params":{"nStudents":24,"maxFlips":30,"completionMinutes":45,"basePay":8,"maxBonus":9,"perTrialBonus":0.5,"perTrialBonusThreshold":0.05,"exampleCost":0.01},"classroomParams":{"A":{"a":1,"b":4},"B":{"a":4,"b":1},"C":{"a":2,"b":8},"D":{"a":8,"b":2}},"conditions":["nonSeqFull","nonSeqPartial","seqNoFeedback","seqFeedback"],"classroomPairings":[["A","B"],["C","D"]],"coinWeights":[0.2,0.5,0.8],"subjectId":"AOHS348RVOF6D","assignmentId":"3LUY3GC630MSKJLF0Z4HJ8054OMP7P","hitId":"3Z3R5YC0P3915KVY8X6BNRIWSQNFTT","url":"https://gershmanlab.com/experiments/alicia/teaching/experiment/?hitId=3Z3R5YC0P3915KVY8X6BNRIWSQNFTT&workerId=AOHS348RVOF6D&assignmentId=3LUY3GC630MSKJLF0Z4HJ8054OMP7P&a=63UL9&tp_a=63UL9&b=3LUY3GC630MSKJLF0Z4HJ8054OMP7P&tp_b=3LUY3GC630MSKJLF0Z4HJ8054OMP7P&c=365799&tp_c=365799","firstResponseHeads":7,"firstResponseTails":2,"secondResponseHeads":6,"secondResponseTails":3,"totalHeads":13,"totalTails":5,"studentIndex":7,"studentTrueHypers":{"a":1,"b":4},"studentGuess":0.6086956521739131,"delta":0.10869565217391308,"bonus":0,"bonusSoFar":1.01,"totalExamples":18},{"rt":3749,"response":{"heads":"29","tails":"1"},"type":"response","condition":"seqNoFeedback","trueTheta":0.8,"classrooms":["C","D"],"studentTrueClassroom":"D","exampleSet":"first","trial_type":"survey-html-form","trial_index":75,"time_elapsed":1015430,"internal_node_id":"0.0-72.0-0.0","params":{"nStudents":24,"maxFlips":30,"completionMinutes":45,"basePay":8,"maxBonus":9,"perTrialBonus":0.5,"perTrialBonusThreshold":0.05,"exampleCost":0.01},"classroomParams":{"A":{"a":1,"b":4},"B":{"a":4,"b":1},"C":{"a":2,"b":8},"D":{"a":8,"b":2}},"conditions":["nonSeqFull","nonSeqPartial","seqNoFeedback","seqFeedback"],"classroomPairings":[["A","B"],["C","D"]],"coinWeights":[0.2,0.5,0.8],"subjectId":"AOHS348RVOF6D","assignmentId":"3LUY3GC630MSKJLF0Z4HJ8054OMP7P","hitId":"3Z3R5YC0P3915KVY8X6BNRIWSQNFTT","url":"https://gershmanlab.com/experiments/alicia/teaching/experiment/?hitId=3Z3R5YC0P3915KVY8X6BNRIWSQNFTT&workerId=AOHS348RVOF6D&assignmentId=3LUY3GC630MSKJLF0Z4HJ8054OMP7P&a=63UL9&tp_a=63UL9&b=3LUY3GC630MSKJLF0Z4HJ8054OMP7P&tp_b=3LUY3GC630MSKJLF0Z4HJ8054OMP7P&c=365799&tp_c=365799","heads":29,"tails":1,"studentIndex":8,"studentTrueHypers":{"a":8,"b":2},"studentGuess":0.925,"delta":0.125,"totalExamples":30,"bonusSoFar":1.01},{"rt":8516,"response":{"heads":"29","tails":"1"},"type":"response","condition":"seqNoFeedback","trueTheta":0.8,"classrooms":["C","D"],"studentTrueClassroom":"D","exampleSet":"second","trial_type":"survey-html-form","trial_index":78,"time_elapsed":1031218,"internal_node_id":"0.0-75.0-0.0","params":{"nStudents":24,"maxFlips":30,"completionMinutes":45,"basePay":8,"maxBonus":9,"perTrialBonus":0.5,"perTrialBonusThreshold":0.05,"exampleCost":0.01},"classroomParams":{"A":{"a":1,"b":4},"B":{"a":4,"b":1},"C":{"a":2,"b":8},"D":{"a":8,"b":2}},"conditions":["nonSeqFull","nonSeqPartial","seqNoFeedback","seqFeedback"],"classroomPairings":[["A","B"],["C","D"]],"coinWeights":[0.2,0.5,0.8],"subjectId":"AOHS348RVOF6D","assignmentId":"3LUY3GC630MSKJLF0Z4HJ8054OMP7P","hitId":"3Z3R5YC0P3915KVY8X6BNRIWSQNFTT","url":"https://gershmanlab.com/experiments/alicia/teaching/experiment/?hitId=3Z3R5YC0P3915KVY8X6BNRIWSQNFTT&workerId=AOHS348RVOF6D&assignmentId=3LUY3GC630MSKJLF0Z4HJ8054OMP7P&a=63UL9&tp_a=63UL9&b=3LUY3GC630MSKJLF0Z4HJ8054OMP7P&tp_b=3LUY3GC630MSKJLF0Z4HJ8054OMP7P&c=365799&tp_c=365799","firstResponseHeads":29,"firstResponseTails":1,"secondResponseHeads":29,"secondResponseTails":1,"totalHeads":58,"totalTails":2,"studentIndex":8,"studentTrueHypers":{"a":8,"b":2},"studentGuess":0.9428571428571428,"delta":0.1428571428571428,"bonus":0,"bonusSoFar":1.01,"totalExamples":60},{"rt":5008,"response":{"heads":"28","tails":"2"},"type":"response","condition":"seqNoFeedback","trueTheta":0.8,"classrooms":["A","B"],"studentTrueClassroom":"B","exampleSet":"first","trial_type":"survey-html-form","trial_index":84,"time_elapsed":1049570,"internal_node_id":"0.0-81.0-0.0","params":{"nStudents":24,"maxFlips":30,"completionMinutes":45,"basePay":8,"maxBonus":9,"perTrialBonus":0.5,"perTrialBonusThreshold":0.05,"exampleCost":0.01},"classroomParams":{"A":{"a":1,"b":4},"B":{"a":4,"b":1},"C":{"a":2,"b":8},"D":{"a":8,"b":2}},"conditions":["nonSeqFull","nonSeqPartial","seqNoFeedback","seqFeedback"],"classroomPairings":[["A","B"],["C","D"]],"coinWeights":[0.2,0.5,0.8],"subjectId":"AOHS348RVOF6D","assignmentId":"3LUY3GC630MSKJLF0Z4HJ8054OMP7P","hitId":"3Z3R5YC0P3915KVY8X6BNRIWSQNFTT","url":"https://gershmanlab.com/experiments/alicia/teaching/experiment/?hitId=3Z3R5YC0P3915KVY8X6BNRIWSQNFTT&workerId=AOHS348RVOF6D&assignmentId=3LUY3GC630MSKJLF0Z4HJ8054OMP7P&a=63UL9&tp_a=63UL9&b=3LUY3GC630MSKJLF0Z4HJ8054OMP7P&tp_b=3LUY3GC630MSKJLF0Z4HJ8054OMP7P&c=365799&tp_c=365799","heads":28,"tails":2,"studentIndex":9,"studentTrueHypers":{"a":4,"b":1},"studentGuess":0.9142857142857143,"delta":0.11428571428571421,"totalExamples":30,"bonusSoFar":1.01},{"rt":8520,"response":{"heads":"27","tails":"3"},"type":"response","condition":"seqNoFeedback","trueTheta":0.8,"classrooms":["A","B"],"studentTrueClassroom":"B","exampleSet":"second","trial_type":"survey-html-form","trial_index":87,"time_elapsed":1064114,"internal_node_id":"0.0-84.0-0.0","params":{"nStudents":24,"maxFlips":30,"completionMinutes":45,"basePay":8,"maxBonus":9,"perTrialBonus":0.5,"perTrialBonusThreshold":0.05,"exampleCost":0.01},"classroomParams":{"A":{"a":1,"b":4},"B":{"a":4,"b":1},"C":{"a":2,"b":8},"D":{"a":8,"b":2}},"conditions":["nonSeqFull","nonSeqPartial","seqNoFeedback","seqFeedback"],"classroomPairings":[["A","B"],["C","D"]],"coinWeights":[0.2,0.5,0.8],"subjectId":"AOHS348RVOF6D","assignmentId":"3LUY3GC630MSKJLF0Z4HJ8054OMP7P","hitId":"3Z3R5YC0P3915KVY8X6BNRIWSQNFTT","url":"https://gershmanlab.com/experiments/alicia/teaching/experiment/?hitId=3Z3R5YC0P3915KVY8X6BNRIWSQNFTT&workerId=AOHS348RVOF6D&assignmentId=3LUY3GC630MSKJLF0Z4HJ8054OMP7P&a=63UL9&tp_a=63UL9&b=3LUY3GC630MSKJLF0Z4HJ8054OMP7P&tp_b=3LUY3GC630MSKJLF0Z4HJ8054OMP7P&c=365799&tp_c=365799","firstResponseHeads":28,"firstResponseTails":2,"secondResponseHeads":27,"secondResponseTails":3,"totalHeads":55,"totalTails":5,"studentIndex":9,"studentTrueHypers":{"a":4,"b":1},"studentGuess":0.9076923076923077,"delta":0.10769230769230764,"bonus":0,"bonusSoFar":1.01,"totalExamples":60},{"rt":6464,"response":{"heads":"26","tails":"4"},"type":"response","condition":"seqFeedback","trueTheta":0.8,"classrooms":["A","B"],"studentTrueClassroom":"A","exampleSet":"first","trial_type":"survey-html-form","trial_index":93,"time_elapsed":1107728,"internal_node_id":"0.0-90.0-0.0","params":{"nStudents":24,"maxFlips":30,"completionMinutes":45,"basePay":8,"maxBonus":9,"perTrialBonus":0.5,"perTrialBonusThreshold":0.05,"exampleCost":0.01},"classroomParams":{"A":{"a":1,"b":4},"B":{"a":4,"b":1},"C":{"a":2,"b":8},"D":{"a":8,"b":2}},"conditions":["nonSeqFull","nonSeqPartial","seqNoFeedback","seqFeedback"],"classroomPairings":[["A","B"],["C","D"]],"coinWeights":[0.2,0.5,0.8],"subjectId":"AOHS348RVOF6D","assignmentId":"3LUY3GC630MSKJLF0Z4HJ8054OMP7P","hitId":"3Z3R5YC0P3915KVY8X6BNRIWSQNFTT","url":"https://gershmanlab.com/experiments/alicia/teaching/experiment/?hitId=3Z3R5YC0P3915KVY8X6BNRIWSQNFTT&workerId=AOHS348RVOF6D&assignmentId=3LUY3GC630MSKJLF0Z4HJ8054OMP7P&a=63UL9&tp_a=63UL9&b=3LUY3GC630MSKJLF0Z4HJ8054OMP7P&tp_b=3LUY3GC630MSKJLF0Z4HJ8054OMP7P&c=365799&tp_c=365799","heads":26,"tails":4,"studentIndex":10,"studentTrueHypers":{"a":1,"b":4},"studentGuess":0.7714285714285715,"delta":0.02857142857142858,"totalExamples":30,"bonusSoFar":1.01},{"rt":10313,"response":{"heads":"26","tails":"4"},"type":"response","condition":"seqFeedback","trueTheta":0.8,"classrooms":["A","B"],"studentTrueClassroom":"A","exampleSet":"second","trial_type":"survey-html-form","trial_index":97,"time_elapsed":1131383,"internal_node_id":"0.0-94.0-0.0","params":{"nStudents":24,"maxFlips":30,"completionMinutes":45,"basePay":8,"maxBonus":9,"perTrialBonus":0.5,"perTrialBonusThreshold":0.05,"exampleCost":0.01},"classroomParams":{"A":{"a":1,"b":4},"B":{"a":4,"b":1},"C":{"a":2,"b":8},"D":{"a":8,"b":2}},"conditions":["nonSeqFull","nonSeqPartial","seqNoFeedback","seqFeedback"],"classroomPairings":[["A","B"],["C","D"]],"coinWeights":[0.2,0.5,0.8],"subjectId":"AOHS348RVOF6D","assignmentId":"3LUY3GC630MSKJLF0Z4HJ8054OMP7P","hitId":"3Z3R5YC0P3915KVY8X6BNRIWSQNFTT","url":"https://gershmanlab.com/experiments/alicia/teaching/experiment/?hitId=3Z3R5YC0P3915KVY8X6BNRIWSQNFTT&workerId=AOHS348RVOF6D&assignmentId=3LUY3GC630MSKJLF0Z4HJ8054OMP7P&a=63UL9&tp_a=63UL9&b=3LUY3GC630MSKJLF0Z4HJ8054OMP7P&tp_b=3LUY3GC630MSKJLF0Z4HJ8054OMP7P&c=365799&tp_c=365799","firstResponseHeads":26,"firstResponseTails":4,"secondResponseHeads":26,"secondResponseTails":4,"totalHeads":52,"totalTails":8,"studentIndex":10,"studentTrueHypers":{"a":1,"b":4},"studentGuess":0.8153846153846154,"delta":0.01538461538461533,"bonus":0,"bonusSoFar":1.01,"totalExamples":60},{"rt":5662,"response":{"heads":"2","tails":"28"},"type":"response","condition":"seqNoFeedback","trueTheta":0.2,"classrooms":["A","B"],"studentTrueClassroom":"B","exampleSet":"first","trial_type":"survey-html-form","trial_index":103,"time_elapsed":1158774,"internal_node_id":"0.0-100.0-0.0","params":{"nStudents":24,"maxFlips":30,"completionMinutes":45,"basePay":8,"maxBonus":9,"perTrialBonus":0.5,"perTrialBonusThreshold":0.05,"exampleCost":0.01},"classroomParams":{"A":{"a":1,"b":4},"B":{"a":4,"b":1},"C":{"a":2,"b":8},"D":{"a":8,"b":2}},"conditions":["nonSeqFull","nonSeqPartial","seqNoFeedback","seqFeedback"],"classroomPairings":[["A","B"],["C","D"]],"coinWeights":[0.2,0.5,0.8],"subjectId":"AOHS348RVOF6D","assignmentId":"3LUY3GC630MSKJLF0Z4HJ8054OMP7P","hitId":"3Z3R5YC0P3915KVY8X6BNRIWSQNFTT","url":"https://gershmanlab.com/experiments/alicia/teaching/experiment/?hitId=3Z3R5YC0P3915KVY8X6BNRIWSQNFTT&workerId=AOHS348RVOF6D&assignmentId=3LUY3GC630MSKJLF0Z4HJ8054OMP7P&a=63UL9&tp_a=63UL9&b=3LUY3GC630MSKJLF0Z4HJ8054OMP7P&tp_b=3LUY3GC630MSKJLF0Z4HJ8054OMP7P&c=365799&tp_c=365799","heads":2,"tails":28,"studentIndex":11,"studentTrueHypers":{"a":4,"b":1},"studentGuess":0.17142857142857143,"delta":0.02857142857142858,"totalExamples":30,"bonusSoFar":1.01},{"rt":9974,"response":{"heads":"2","tails":"28"},"type":"response","condition":"seqNoFeedback","trueTheta":0.2,"classrooms":["A","B"],"studentTrueClassroom":"B","exampleSet":"second","trial_type":"survey-html-form","trial_index":106,"time_elapsed":1175581,"internal_node_id":"0.0-103.0-0.0","params":{"nStudents":24,"maxFlips":30,"completionMinutes":45,"basePay":8,"maxBonus":9,"perTrialBonus":0.5,"perTrialBonusThreshold":0.05,"exampleCost":0.01},"classroomParams":{"A":{"a":1,"b":4},"B":{"a":4,"b":1},"C":{"a":2,"b":8},"D":{"a":8,"b":2}},"conditions":["nonSeqFull","nonSeqPartial","seqNoFeedback","seqFeedback"],"classroomPairings":[["A","B"],["C","D"]],"coinWeights":[0.2,0.5,0.8],"subjectId":"AOHS348RVOF6D","assignmentId":"3LUY3GC630MSKJLF0Z4HJ8054OMP7P","hitId":"3Z3R5YC0P3915KVY8X6BNRIWSQNFTT","url":"https://gershmanlab.com/experiments/alicia/teaching/experiment/?hitId=3Z3R5YC0P3915KVY8X6BNRIWSQNFTT&workerId=AOHS348RVOF6D&assignmentId=3LUY3GC630MSKJLF0Z4HJ8054OMP7P&a=63UL9&tp_a=63UL9&b=3LUY3GC630MSKJLF0Z4HJ8054OMP7P&tp_b=3LUY3GC630MSKJLF0Z4HJ8054OMP7P&c=365799&tp_c=365799","firstResponseHeads":2,"firstResponseTails":28,"secondResponseHeads":2,"secondResponseTails":28,"totalHeads":4,"totalTails":56,"studentIndex":11,"studentTrueHypers":{"a":4,"b":1},"studentGuess":0.12307692307692308,"delta":0.07692307692307693,"bonus":0,"bonusSoFar":1.01,"totalExamples":60},{"rt":4649,"response":{"heads":"4","tails":"4"},"type":"response","condition":"nonSeqFull","trueTheta":0.5,"classrooms":["A","B"],"studentTrueClassroom":"B","exampleSet":"first","trial_type":"survey-html-form","trial_index":112,"time_elapsed":1197377,"internal_node_id":"0.0-109.0-0.0","params":{"nStudents":24,"maxFlips":30,"completionMinutes":45,"basePay":8,"maxBonus":9,"perTrialBonus":0.5,"perTrialBonusThreshold":0.05,"exampleCost":0.01},"classroomParams":{"A":{"a":1,"b":4},"B":{"a":4,"b":1},"C":{"a":2,"b":8},"D":{"a":8,"b":2}},"conditions":["nonSeqFull","nonSeqPartial","seqNoFeedback","seqFeedback"],"classroomPairings":[["A","B"],["C","D"]],"coinWeights":[0.2,0.5,0.8],"subjectId":"AOHS348RVOF6D","assignmentId":"3LUY3GC630MSKJLF0Z4HJ8054OMP7P","hitId":"3Z3R5YC0P3915KVY8X6BNRIWSQNFTT","url":"https://gershmanlab.com/experiments/alicia/teaching/experiment/?hitId=3Z3R5YC0P3915KVY8X6BNRIWSQNFTT&workerId=AOHS348RVOF6D&assignmentId=3LUY3GC630MSKJLF0Z4HJ8054OMP7P&a=63UL9&tp_a=63UL9&b=3LUY3GC630MSKJLF0Z4HJ8054OMP7P&tp_b=3LUY3GC630MSKJLF0Z4HJ8054OMP7P&c=365799&tp_c=365799","heads":4,"tails":4,"studentIndex":12,"studentTrueHypers":{"a":4,"b":1},"studentGuess":0.6153846153846154,"delta":0.11538461538461542,"totalExamples":8,"bonus":0,"bonusSoFar":1.01},{"rt":5429,"response":{"heads":"4","tails":"4"},"type":"response","condition":"seqNoFeedback","trueTheta":0.5,"classrooms":["A","B"],"studentTrueClassroom":"A","exampleSet":"first","trial_type":"survey-html-form","trial_index":118,"time_elapsed":1217987,"internal_node_id":"0.0-115.0-0.0","params":{"nStudents":24,"maxFlips":30,"completionMinutes":45,"basePay":8,"maxBonus":9,"perTrialBonus":0.5,"perTrialBonusThreshold":0.05,"exampleCost":0.01},"classroomParams":{"A":{"a":1,"b":4},"B":{"a":4,"b":1},"C":{"a":2,"b":8},"D":{"a":8,"b":2}},"conditions":["nonSeqFull","nonSeqPartial","seqNoFeedback","seqFeedback"],"classroomPairings":[["A","B"],["C","D"]],"coinWeights":[0.2,0.5,0.8],"subjectId":"AOHS348RVOF6D","assignmentId":"3LUY3GC630MSKJLF0Z4HJ8054OMP7P","hitId":"3Z3R5YC0P3915KVY8X6BNRIWSQNFTT","url":"https://gershmanlab.com/experiments/alicia/teaching/experiment/?hitId=3Z3R5YC0P3915KVY8X6BNRIWSQNFTT&workerId=AOHS348RVOF6D&assignmentId=3LUY3GC630MSKJLF0Z4HJ8054OMP7P&a=63UL9&tp_a=63UL9&b=3LUY3GC630MSKJLF0Z4HJ8054OMP7P&tp_b=3LUY3GC630MSKJLF0Z4HJ8054OMP7P&c=365799&tp_c=365799","heads":4,"tails":4,"studentIndex":13,"studentTrueHypers":{"a":1,"b":4},"studentGuess":0.38461538461538464,"delta":0.11538461538461536,"totalExamples":8,"bonusSoFar":1.01},{"rt":47458,"response":{"heads":"4","tails":"4"},"type":"response","condition":"seqNoFeedback","trueTheta":0.5,"classrooms":["A","B"],"studentTrueClassroom":"A","exampleSet":"second","trial_type":"survey-html-form","trial_index":121,"time_elapsed":1275050,"internal_node_id":"0.0-118.0-0.0","params":{"nStudents":24,"maxFlips":30,"completionMinutes":45,"basePay":8,"maxBonus":9,"perTrialBonus":0.5,"perTrialBonusThreshold":0.05,"exampleCost":0.01},"classroomParams":{"A":{"a":1,"b":4},"B":{"a":4,"b":1},"C":{"a":2,"b":8},"D":{"a":8,"b":2}},"conditions":["nonSeqFull","nonSeqPartial","seqNoFeedback","seqFeedback"],"classroomPairings":[["A","B"],["C","D"]],"coinWeights":[0.2,0.5,0.8],"subjectId":"AOHS348RVOF6D","assignmentId":"3LUY3GC630MSKJLF0Z4HJ8054OMP7P","hitId":"3Z3R5YC0P3915KVY8X6BNRIWSQNFTT","url":"https://gershmanlab.com/experiments/alicia/teaching/experiment/?hitId=3Z3R5YC0P3915KVY8X6BNRIWSQNFTT&workerId=AOHS348RVOF6D&assignmentId=3LUY3GC630MSKJLF0Z4HJ8054OMP7P&a=63UL9&tp_a=63UL9&b=3LUY3GC630MSKJLF0Z4HJ8054OMP7P&tp_b=3LUY3GC630MSKJLF0Z4HJ8054OMP7P&c=365799&tp_c=365799","firstResponseHeads":4,"firstResponseTails":4,"secondResponseHeads":4,"secondResponseTails":4,"totalHeads":8,"totalTails":8,"studentIndex":13,"studentTrueHypers":{"a":1,"b":4},"studentGuess":0.42857142857142855,"delta":0.07142857142857145,"bonus":0,"bonusSoFar":1.01,"totalExamples":16},{"rt":6307,"response":{"heads":"3","tails":"27"},"type":"response","condition":"nonSeqPartial","trueTheta":0.2,"classrooms":["A","B"],"studentTrueClassroom":"A","exampleSet":"first","trial_type":"survey-html-form","trial_index":127,"time_elapsed":1293192,"internal_node_id":"0.0-124.0-0.0","params":{"nStudents":24,"maxFlips":30,"completionMinutes":45,"basePay":8,"maxBonus":9,"perTrialBonus":0.5,"perTrialBonusThreshold":0.05,"exampleCost":0.01},"classroomParams":{"A":{"a":1,"b":4},"B":{"a":4,"b":1},"C":{"a":2,"b":8},"D":{"a":8,"b":2}},"conditions":["nonSeqFull","nonSeqPartial","seqNoFeedback","seqFeedback"],"classroomPairings":[["A","B"],["C","D"]],"coinWeights":[0.2,0.5,0.8],"subjectId":"AOHS348RVOF6D","assignmentId":"3LUY3GC630MSKJLF0Z4HJ8054OMP7P","hitId":"3Z3R5YC0P3915KVY8X6BNRIWSQNFTT","url":"https://gershmanlab.com/experiments/alicia/teaching/experiment/?hitId=3Z3R5YC0P3915KVY8X6BNRIWSQNFTT&workerId=AOHS348RVOF6D&assignmentId=3LUY3GC630MSKJLF0Z4HJ8054OMP7P&a=63UL9&tp_a=63UL9&b=3LUY3GC630MSKJLF0Z4HJ8054OMP7P&tp_b=3LUY3GC630MSKJLF0Z4HJ8054OMP7P&c=365799&tp_c=365799","heads":3,"tails":27,"studentIndex":14,"studentTrueHypers":{"a":1,"b":4},"studentGuess":0.11428571428571428,"delta":0.08571428571428573,"totalExamples":30,"bonus":0,"bonusSoFar":1.01},{"rt":2587,"response":{"heads":"5","tails":"25"},"type":"response","condition":"nonSeqFull","trueTheta":0.2,"classrooms":["C","D"],"studentTrueClassroom":"D","exampleSet":"first","trial_type":"survey-html-form","trial_index":133,"time_elapsed":1313316,"internal_node_id":"0.0-130.0-0.0","params":{"nStudents":24,"maxFlips":30,"completionMinutes":45,"basePay":8,"maxBonus":9,"perTrialBonus":0.5,"perTrialBonusThreshold":0.05,"exampleCost":0.01},"classroomParams":{"A":{"a":1,"b":4},"B":{"a":4,"b":1},"C":{"a":2,"b":8},"D":{"a":8,"b":2}},"conditions":["nonSeqFull","nonSeqPartial","seqNoFeedback","seqFeedback"],"classroomPairings":[["A","B"],["C","D"]],"coinWeights":[0.2,0.5,0.8],"subjectId":"AOHS348RVOF6D","assignmentId":"3LUY3GC630MSKJLF0Z4HJ8054OMP7P","hitId":"3Z3R5YC0P3915KVY8X6BNRIWSQNFTT","url":"https://gershmanlab.com/experiments/alicia/teaching/experiment/?hitId=3Z3R5YC0P3915KVY8X6BNRIWSQNFTT&workerId=AOHS348RVOF6D&assignmentId=3LUY3GC630MSKJLF0Z4HJ8054OMP7P&a=63UL9&tp_a=63UL9&b=3LUY3GC630MSKJLF0Z4HJ8054OMP7P&tp_b=3LUY3GC630MSKJLF0Z4HJ8054OMP7P&c=365799&tp_c=365799","heads":5,"tails":25,"studentIndex":15,"studentTrueHypers":{"a":8,"b":2},"studentGuess":0.325,"delta":0.125,"totalExamples":30,"bonus":0,"bonusSoFar":1.01},{"rt":3465,"response":{"heads":"8","tails":"2"},"type":"response","condition":"nonSeqPartial","trueTheta":0.5,"classrooms":["C","D"],"studentTrueClassroom":"D","exampleSet":"first","trial_type":"survey-html-form","trial_index":139,"time_elapsed":1360462,"internal_node_id":"0.0-136.0-0.0","params":{"nStudents":24,"maxFlips":30,"completionMinutes":45,"basePay":8,"maxBonus":9,"perTrialBonus":0.5,"perTrialBonusThreshold":0.05,"exampleCost":0.01},"classroomParams":{"A":{"a":1,"b":4},"B":{"a":4,"b":1},"C":{"a":2,"b":8},"D":{"a":8,"b":2}},"conditions":["nonSeqFull","nonSeqPartial","seqNoFeedback","seqFeedback"],"classroomPairings":[["A","B"],["C","D"]],"coinWeights":[0.2,0.5,0.8],"subjectId":"AOHS348RVOF6D","assignmentId":"3LUY3GC630MSKJLF0Z4HJ8054OMP7P","hitId":"3Z3R5YC0P3915KVY8X6BNRIWSQNFTT","url":"https://gershmanlab.com/experiments/alicia/teaching/experiment/?hitId=3Z3R5YC0P3915KVY8X6BNRIWSQNFTT&workerId=AOHS348RVOF6D&assignmentId=3LUY3GC630MSKJLF0Z4HJ8054OMP7P&a=63UL9&tp_a=63UL9&b=3LUY3GC630MSKJLF0Z4HJ8054OMP7P&tp_b=3LUY3GC630MSKJLF0Z4HJ8054OMP7P&c=365799&tp_c=365799","heads":8,"tails":2,"studentIndex":16,"studentTrueHypers":{"a":8,"b":2},"studentGuess":0.8,"delta":0.30000000000000004,"totalExamples":10,"bonus":0,"bonusSoFar":1.01},{"rt":5520,"response":{"heads":"8","tails":"2"},"type":"response","condition":"nonSeqPartial","trueTheta":0.8,"classrooms":["A","B"],"studentTrueClassroom":"B","exampleSet":"first","trial_type":"survey-html-form","trial_index":145,"time_elapsed":1401511,"internal_node_id":"0.0-142.0-0.0","params":{"nStudents":24,"maxFlips":30,"completionMinutes":45,"basePay":8,"maxBonus":9,"perTrialBonus":0.5,"perTrialBonusThreshold":0.05,"exampleCost":0.01},"classroomParams":{"A":{"a":1,"b":4},"B":{"a":4,"b":1},"C":{"a":2,"b":8},"D":{"a":8,"b":2}},"conditions":["nonSeqFull","nonSeqPartial","seqNoFeedback","seqFeedback"],"classroomPairings":[["A","B"],["C","D"]],"coinWeights":[0.2,0.5,0.8],"subjectId":"AOHS348RVOF6D","assignmentId":"3LUY3GC630MSKJLF0Z4HJ8054OMP7P","hitId":"3Z3R5YC0P3915KVY8X6BNRIWSQNFTT","url":"https://gershmanlab.com/experiments/alicia/teaching/experiment/?hitId=3Z3R5YC0P3915KVY8X6BNRIWSQNFTT&workerId=AOHS348RVOF6D&assignmentId=3LUY3GC630MSKJLF0Z4HJ8054OMP7P&a=63UL9&tp_a=63UL9&b=3LUY3GC630MSKJLF0Z4HJ8054OMP7P&tp_b=3LUY3GC630MSKJLF0Z4HJ8054OMP7P&c=365799&tp_c=365799","heads":8,"tails":2,"studentIndex":17,"studentTrueHypers":{"a":4,"b":1},"studentGuess":0.8,"delta":0,"totalExamples":10,"bonus":0.4,"bonusSoFar":1.41},{"rt":18645,"response":{"heads":"2","tails":"8"},"type":"response","condition":"nonSeqFull","trueTheta":0.5,"classrooms":["C","D"],"studentTrueClassroom":"D","exampleSet":"first","trial_type":"survey-html-form","trial_index":151,"time_elapsed":1432420,"internal_node_id":"0.0-148.0-0.0","params":{"nStudents":24,"maxFlips":30,"completionMinutes":45,"basePay":8,"maxBonus":9,"perTrialBonus":0.5,"perTrialBonusThreshold":0.05,"exampleCost":0.01},"classroomParams":{"A":{"a":1,"b":4},"B":{"a":4,"b":1},"C":{"a":2,"b":8},"D":{"a":8,"b":2}},"conditions":["nonSeqFull","nonSeqPartial","seqNoFeedback","seqFeedback"],"classroomPairings":[["A","B"],["C","D"]],"coinWeights":[0.2,0.5,0.8],"subjectId":"AOHS348RVOF6D","assignmentId":"3LUY3GC630MSKJLF0Z4HJ8054OMP7P","hitId":"3Z3R5YC0P3915KVY8X6BNRIWSQNFTT","url":"https://gershmanlab.com/experiments/alicia/teaching/experiment/?hitId=3Z3R5YC0P3915KVY8X6BNRIWSQNFTT&workerId=AOHS348RVOF6D&assignmentId=3LUY3GC630MSKJLF0Z4HJ8054OMP7P&a=63UL9&tp_a=63UL9&b=3LUY3GC630MSKJLF0Z4HJ8054OMP7P&tp_b=3LUY3GC630MSKJLF0Z4HJ8054OMP7P&c=365799&tp_c=365799","heads":2,"tails":8,"studentIndex":18,"studentTrueHypers":{"a":8,"b":2},"studentGuess":0.5,"delta":0,"totalExamples":10,"bonus":0.4,"bonusSoFar":1.81},{"rt":6869,"response":{"heads":"10","tails":"2"},"type":"response","condition":"seqFeedback","trueTheta":0.2,"classrooms":["C","D"],"studentTrueClassroom":"C","exampleSet":"first","trial_type":"survey-html-form","trial_index":157,"time_elapsed":1461190,"internal_node_id":"0.0-154.0-0.0","params":{"nStudents":24,"maxFlips":30,"completionMinutes":45,"basePay":8,"maxBonus":9,"perTrialBonus":0.5,"perTrialBonusThreshold":0.05,"exampleCost":0.01},"classroomParams":{"A":{"a":1,"b":4},"B":{"a":4,"b":1},"C":{"a":2,"b":8},"D":{"a":8,"b":2}},"conditions":["nonSeqFull","nonSeqPartial","seqNoFeedback","seqFeedback"],"classroomPairings":[["A","B"],["C","D"]],"coinWeights":[0.2,0.5,0.8],"subjectId":"AOHS348RVOF6D","assignmentId":"3LUY3GC630MSKJLF0Z4HJ8054OMP7P","hitId":"3Z3R5YC0P3915KVY8X6BNRIWSQNFTT","url":"https://gershmanlab.com/experiments/alicia/teaching/experiment/?hitId=3Z3R5YC0P3915KVY8X6BNRIWSQNFTT&workerId=AOHS348RVOF6D&assignmentId=3LUY3GC630MSKJLF0Z4HJ8054OMP7P&a=63UL9&tp_a=63UL9&b=3LUY3GC630MSKJLF0Z4HJ8054OMP7P&tp_b=3LUY3GC630MSKJLF0Z4HJ8054OMP7P&c=365799&tp_c=365799","heads":10,"tails":2,"studentIndex":19,"studentTrueHypers":{"a":2,"b":8},"studentGuess":0.5454545454545454,"delta":0.3454545454545454,"totalExamples":12,"bonusSoFar":1.81},{"rt":6233,"response":{"heads":"29","tails":"1"},"type":"response","condition":"seqFeedback","trueTheta":0.2,"classrooms":["C","D"],"studentTrueClassroom":"C","exampleSet":"second","trial_type":"survey-html-form","trial_index":161,"time_elapsed":1480833,"internal_node_id":"0.0-158.0-0.0","params":{"nStudents":24,"maxFlips":30,"completionMinutes":45,"basePay":8,"maxBonus":9,"perTrialBonus":0.5,"perTrialBonusThreshold":0.05,"exampleCost":0.01},"classroomParams":{"A":{"a":1,"b":4},"B":{"a":4,"b":1},"C":{"a":2,"b":8},"D":{"a":8,"b":2}},"conditions":["nonSeqFull","nonSeqPartial","seqNoFeedback","seqFeedback"],"classroomPairings":[["A","B"],["C","D"]],"coinWeights":[0.2,0.5,0.8],"subjectId":"AOHS348RVOF6D","assignmentId":"3LUY3GC630MSKJLF0Z4HJ8054OMP7P","hitId":"3Z3R5YC0P3915KVY8X6BNRIWSQNFTT","url":"https://gershmanlab.com/experiments/alicia/teaching/experiment/?hitId=3Z3R5YC0P3915KVY8X6BNRIWSQNFTT&workerId=AOHS348RVOF6D&assignmentId=3LUY3GC630MSKJLF0Z4HJ8054OMP7P&a=63UL9&tp_a=63UL9&b=3LUY3GC630MSKJLF0Z4HJ8054OMP7P&tp_b=3LUY3GC630MSKJLF0Z4HJ8054OMP7P&c=365799&tp_c=365799","firstResponseHeads":10,"firstResponseTails":2,"secondResponseHeads":29,"secondResponseTails":1,"totalHeads":39,"totalTails":3,"studentIndex":19,"studentTrueHypers":{"a":2,"b":8},"studentGuess":0.7884615384615384,"delta":0.5884615384615384,"bonus":0,"bonusSoFar":1.81,"totalExamples":42},{"rt":4087,"response":{"heads":"4","tails":"4"},"type":"response","condition":"nonSeqPartial","trueTheta":0.5,"classrooms":["A","B"],"studentTrueClassroom":"B","exampleSet":"first","trial_type":"survey-html-form","trial_index":167,"time_elapsed":1503266,"internal_node_id":"0.0-164.0-0.0","params":{"nStudents":24,"maxFlips":30,"completionMinutes":45,"basePay":8,"maxBonus":9,"perTrialBonus":0.5,"perTrialBonusThreshold":0.05,"exampleCost":0.01},"classroomParams":{"A":{"a":1,"b":4},"B":{"a":4,"b":1},"C":{"a":2,"b":8},"D":{"a":8,"b":2}},"conditions":["nonSeqFull","nonSeqPartial","seqNoFeedback","seqFeedback"],"classroomPairings":[["A","B"],["C","D"]],"coinWeights":[0.2,0.5,0.8],"subjectId":"AOHS348RVOF6D","assignmentId":"3LUY3GC630MSKJLF0Z4HJ8054OMP7P","hitId":"3Z3R5YC0P3915KVY8X6BNRIWSQNFTT","url":"https://gershmanlab.com/experiments/alicia/teaching/experiment/?hitId=3Z3R5YC0P3915KVY8X6BNRIWSQNFTT&workerId=AOHS348RVOF6D&assignmentId=3LUY3GC630MSKJLF0Z4HJ8054OMP7P&a=63UL9&tp_a=63UL9&b=3LUY3GC630MSKJLF0Z4HJ8054OMP7P&tp_b=3LUY3GC630MSKJLF0Z4HJ8054OMP7P&c=365799&tp_c=365799","heads":4,"tails":4,"studentIndex":20,"studentTrueHypers":{"a":4,"b":1},"studentGuess":0.6153846153846154,"delta":0.11538461538461542,"totalExamples":8,"bonus":0,"bonusSoFar":1.81},{"rt":7478,"response":{"heads":"8","tails":"2"},"type":"response","condition":"seqFeedback","trueTheta":0.2,"classrooms":["A","B"],"studentTrueClassroom":"A","exampleSet":"first","trial_type":"survey-html-form","trial_index":173,"time_elapsed":1525707,"internal_node_id":"0.0-170.0-0.0","params":{"nStudents":24,"maxFlips":30,"completionMinutes":45,"basePay":8,"maxBonus":9,"perTrialBonus":0.5,"perTrialBonusThreshold":0.05,"exampleCost":0.01},"classroomParams":{"A":{"a":1,"b":4},"B":{"a":4,"b":1},"C":{"a":2,"b":8},"D":{"a":8,"b":2}},"conditions":["nonSeqFull","nonSeqPartial","seqNoFeedback","seqFeedback"],"classroomPairings":[["A","B"],["C","D"]],"coinWeights":[0.2,0.5,0.8],"subjectId":"AOHS348RVOF6D","assignmentId":"3LUY3GC630MSKJLF0Z4HJ8054OMP7P","hitId":"3Z3R5YC0P3915KVY8X6BNRIWSQNFTT","url":"https://gershmanlab.com/experiments/alicia/teaching/experiment/?hitId=3Z3R5YC0P3915KVY8X6BNRIWSQNFTT&workerId=AOHS348RVOF6D&assignmentId=3LUY3GC630MSKJLF0Z4HJ8054OMP7P&a=63UL9&tp_a=63UL9&b=3LUY3GC630MSKJLF0Z4HJ8054OMP7P&tp_b=3LUY3GC630MSKJLF0Z4HJ8054OMP7P&c=365799&tp_c=365799","heads":8,"tails":2,"studentIndex":21,"studentTrueHypers":{"a":1,"b":4},"studentGuess":0.6,"delta":0.39999999999999997,"totalExamples":10,"bonusSoFar":1.81},{"rt":13446,"response":{"heads":"1","tails":"29"},"type":"response","condition":"seqFeedback","trueTheta":0.2,"classrooms":["A","B"],"studentTrueClassroom":"A","exampleSet":"second","trial_type":"survey-html-form","trial_index":177,"time_elapsed":1559758,"internal_node_id":"0.0-174.0-0.0","params":{"nStudents":24,"maxFlips":30,"completionMinutes":45,"basePay":8,"maxBonus":9,"perTrialBonus":0.5,"perTrialBonusThreshold":0.05,"exampleCost":0.01},"classroomParams":{"A":{"a":1,"b":4},"B":{"a":4,"b":1},"C":{"a":2,"b":8},"D":{"a":8,"b":2}},"conditions":["nonSeqFull","nonSeqPartial","seqNoFeedback","seqFeedback"],"classroomPairings":[["A","B"],["C","D"]],"coinWeights":[0.2,0.5,0.8],"subjectId":"AOHS348RVOF6D","assignmentId":"3LUY3GC630MSKJLF0Z4HJ8054OMP7P","hitId":"3Z3R5YC0P3915KVY8X6BNRIWSQNFTT","url":"https://gershmanlab.com/experiments/alicia/teaching/experiment/?hitId=3Z3R5YC0P3915KVY8X6BNRIWSQNFTT&workerId=AOHS348RVOF6D&assignmentId=3LUY3GC630MSKJLF0Z4HJ8054OMP7P&a=63UL9&tp_a=63UL9&b=3LUY3GC630MSKJLF0Z4HJ8054OMP7P&tp_b=3LUY3GC630MSKJLF0Z4HJ8054OMP7P&c=365799&tp_c=365799","firstResponseHeads":8,"firstResponseTails":2,"secondResponseHeads":1,"secondResponseTails":29,"totalHeads":9,"totalTails":31,"studentIndex":21,"studentTrueHypers":{"a":1,"b":4},"studentGuess":0.2222222222222222,"delta":0.0222222222222222,"bonus":0.1,"bonusSoFar":1.91,"totalExamples":40},{"rt":16530,"response":{"heads":"10","tails":"2"},"type":"response","condition":"nonSeqFull","trueTheta":0.8,"classrooms":["A","B"],"studentTrueClassroom":"B","exampleSet":"first","trial_type":"survey-html-form","trial_index":183,"time_elapsed":1638923,"internal_node_id":"0.0-180.0-0.0","params":{"nStudents":24,"maxFlips":30,"completionMinutes":45,"basePay":8,"maxBonus":9,"perTrialBonus":0.5,"perTrialBonusThreshold":0.05,"exampleCost":0.01},"classroomParams":{"A":{"a":1,"b":4},"B":{"a":4,"b":1},"C":{"a":2,"b":8},"D":{"a":8,"b":2}},"conditions":["nonSeqFull","nonSeqPartial","seqNoFeedback","seqFeedback"],"classroomPairings":[["A","B"],["C","D"]],"coinWeights":[0.2,0.5,0.8],"subjectId":"AOHS348RVOF6D","assignmentId":"3LUY3GC630MSKJLF0Z4HJ8054OMP7P","hitId":"3Z3R5YC0P3915KVY8X6BNRIWSQNFTT","url":"https://gershmanlab.com/experiments/alicia/teaching/experiment/?hitId=3Z3R5YC0P3915KVY8X6BNRIWSQNFTT&workerId=AOHS348RVOF6D&assignmentId=3LUY3GC630MSKJLF0Z4HJ8054OMP7P&a=63UL9&tp_a=63UL9&b=3LUY3GC630MSKJLF0Z4HJ8054OMP7P&tp_b=3LUY3GC630MSKJLF0Z4HJ8054OMP7P&c=365799&tp_c=365799","heads":10,"tails":2,"studentIndex":22,"studentTrueHypers":{"a":4,"b":1},"studentGuess":0.8235294117647058,"delta":0.0235294117647058,"totalExamples":12,"bonus":0.38,"bonusSoFar":2.29},{"rt":5242,"response":{"heads":"2","tails":"8"},"type":"response","condition":"nonSeqFull","trueTheta":0.2,"classrooms":["A","B"],"studentTrueClassroom":"A","exampleSet":"first","trial_type":"survey-html-form","trial_index":189,"time_elapsed":1658723,"internal_node_id":"0.0-186.0-0.0","params":{"nStudents":24,"maxFlips":30,"completionMinutes":45,"basePay":8,"maxBonus":9,"perTrialBonus":0.5,"perTrialBonusThreshold":0.05,"exampleCost":0.01},"classroomParams":{"A":{"a":1,"b":4},"B":{"a":4,"b":1},"C":{"a":2,"b":8},"D":{"a":8,"b":2}},"conditions":["nonSeqFull","nonSeqPartial","seqNoFeedback","seqFeedback"],"classroomPairings":[["A","B"],["C","D"]],"coinWeights":[0.2,0.5,0.8],"subjectId":"AOHS348RVOF6D","assignmentId":"3LUY3GC630MSKJLF0Z4HJ8054OMP7P","hitId":"3Z3R5YC0P3915KVY8X6BNRIWSQNFTT","url":"https://gershmanlab.com/experiments/alicia/teaching/experiment/?hitId=3Z3R5YC0P3915KVY8X6BNRIWSQNFTT&workerId=AOHS348RVOF6D&assignmentId=3LUY3GC630MSKJLF0Z4HJ8054OMP7P&a=63UL9&tp_a=63UL9&b=3LUY3GC630MSKJLF0Z4HJ8054OMP7P&tp_b=3LUY3GC630MSKJLF0Z4HJ8054OMP7P&c=365799&tp_c=365799","heads":2,"tails":8,"studentIndex":23,"studentTrueHypers":{"a":1,"b":4},"studentGuess":0.2,"delta":0,"totalExamples":10,"bonus":0.4,"bonusSoFar":2.69},{"rt":6424,"response":{"gender":"male","age":"30","understood":"yes","comments":""},"type":"response","trial_type":"survey-html-form","trial_index":193,"time_elapsed":1676064,"internal_node_id":"0.0-191.0","params":{"nStudents":24,"maxFlips":30,"completionMinutes":45,"basePay":8,"maxBonus":9,"perTrialBonus":0.5,"perTrialBonusThreshold":0.05,"exampleCost":0.01},"classroomParams":{"A":{"a":1,"b":4},"B":{"a":4,"b":1},"C":{"a":2,"b":8},"D":{"a":8,"b":2}},"conditions":["nonSeqFull","nonSeqPartial","seqNoFeedback","seqFeedback"],"classroomPairings":[["A","B"],["C","D"]],"coinWeights":[0.2,0.5,0.8],"subjectId":"AOHS348RVOF6D","assignmentId":"3LUY3GC630MSKJLF0Z4HJ8054OMP7P","hitId":"3Z3R5YC0P3915KVY8X6BNRIWSQNFTT","url":"https://gershmanlab.com/experiments/alicia/teaching/experiment/?hitId=3Z3R5YC0P3915KVY8X6BNRIWSQNFTT&workerId=AOHS348RVOF6D&assignmentId=3LUY3GC630MSKJLF0Z4HJ8054OMP7P&a=63UL9&tp_a=63UL9&b=3LUY3GC630MSKJLF0Z4HJ8054OMP7P&tp_b=3LUY3GC630MSKJLF0Z4HJ8054OMP7P&c=365799&tp_c=365799","totalBonus":2.69}]