[{"rt":69408,"response":{"heads":"5","tails":"5"},"type":"response","condition":"seqFeedback","trueTheta":0.5,"classrooms":["A","B"],"studentTrueClassroom":"B","exampleSet":"first","trial_type":"survey-html-form","trial_index":7,"time_elapsed":766932,"internal_node_id":"0.0-6.0-0.0","params":{"nStudents":24,"maxFlips":30,"completionMinutes":45,"basePay":8,"maxBonus":9,"perTrialBonus":0.5,"perTrialBonusThreshold":0.05,"exampleCost":0.01},"classroomParams":{"A":{"a":1,"b":4},"B":{"a":4,"b":1},"C":{"a":2,"b":8},"D":{"a":8,"b":2}},"conditions":["nonSeqFull","nonSeqPartial","seqNoFeedback","seqFeedback"],"classroomPairings":[["A","B"],["C","D"]],"coinWeights":[0.2,0.5,0.8],"subjectId":"AONSG5WOC3OX0","assignmentId":"3F1567XTNXRHYEANF9HQX9HL4AX9QD","hitId":"3JGHED38EDDK7DFM0KVY7GXU94LY7W","url":"https://gershmanlab.com/experiments/alicia/teaching/experiment/?hitId=3JGHED38EDDK7DFM0KVY7GXU94LY7W&workerId=AONSG5WOC3OX0&assignmentId=3F1567XTNXRHYEANF9HQX9HL4AX9QD&a=T61F9&tp_a=T61F9&b=3F1567XTNXRHYEANF9HQX9HL4AX9QD&tp_b=3F1567XTNXRHYEANF9HQX9HL4AX9QD&c=365799&tp_c=365799","heads":5,"tails":5,"studentIndex":0,"studentTrueHypers":{"a":4,"b":1},"studentGuess":0.6,"delta":0.09999999999999998,"totalExamples":10,"bonusSoFar":0},{"rt":12591,"response":{"heads":"5","tails":"5"},"type":"response","condition":"seqFeedback","trueTheta":0.5,"classrooms":["A","B"],"studentTrueClassroom":"B","exampleSet":"second","trial_type":"survey-html-form","trial_index":11,"time_elapsed":794067,"internal_node_id":"0.0-10.0-0.0","params":{"nStudents":24,"maxFlips":30,"completionMinutes":45,"basePay":8,"maxBonus":9,"perTrialBonus":0.5,"perTrialBonusThreshold":0.05,"exampleCost":0.01},"classroomParams":{"A":{"a":1,"b":4},"B":{"a":4,"b":1},"C":{"a":2,"b":8},"D":{"a":8,"b":2}},"conditions":["nonSeqFull","nonSeqPartial","seqNoFeedback","seqFeedback"],"classroomPairings":[["A","B"],["C","D"]],"coinWeights":[0.2,0.5,0.8],"subjectId":"AONSG5WOC3OX0","assignmentId":"3F1567XTNXRHYEANF9HQX9HL4AX9QD","hitId":"3JGHED38EDDK7DFM0KVY7GXU94LY7W","url":"https://gershmanlab.com/experiments/alicia/teaching/experiment/?hitId=3JGHED38EDDK7DFM0KVY7GXU94LY7W&workerId=AONSG5WOC3OX0&assignmentId=3F1567XTNXRHYEANF9HQX9HL4AX9QD&a=T61F9&tp_a=T61F9&b=3F1567XTNXRHYEANF9HQX9HL4AX9QD&tp_b=3F1567XTNXRHYEANF9HQX9HL4AX9QD&c=365799&tp_c=365799","firstResponseHeads":5,"firstResponseTails":5,"secondResponseHeads":5,"secondResponseTails":5,"totalHeads":10,"totalTails":10,"studentIndex":0,"studentTrueHypers":{"a":4,"b":1},"studentGuess":0.56,"delta":0.06000000000000005,"bonus":0,"bonusSoFar":0,"totalExamples":20},{"rt":19415,"response":{"heads":"1","tails":"5"},"type":"response","condition":"seqFeedback","trueTheta":0.2,"classrooms":["C","D"],"studentTrueClassroom":"D","exampleSet":"first","trial_type":"survey-html-form","trial_index":17,"time_elapsed":835891,"internal_node_id":"0.0-16.0-0.0","params":{"nStudents":24,"maxFlips":30,"completionMinutes":45,"basePay":8,"maxBonus":9,"perTrialBonus":0.5,"perTrialBonusThreshold":0.05,"exampleCost":0.01},"classroomParams":{"A":{"a":1,"b":4},"B":{"a":4,"b":1},"C":{"a":2,"b":8},"D":{"a":8,"b":2}},"conditions":["nonSeqFull","nonSeqPartial","seqNoFeedback","seqFeedback"],"classroomPairings":[["A","B"],["C","D"]],"coinWeights":[0.2,0.5,0.8],"subjectId":"AONSG5WOC3OX0","assignmentId":"3F1567XTNXRHYEANF9HQX9HL4AX9QD","hitId":"3JGHED38EDDK7DFM0KVY7GXU94LY7W","url":"https://gershmanlab.com/experiments/alicia/teaching/experiment/?hitId=3JGHED38EDDK7DFM0KVY7GXU94LY7W&workerId=AONSG5WOC3OX0&assignmentId=3F1567XTNXRHYEANF9HQX9HL4AX9QD&a=T61F9&tp_a=T61F9&b=3F1567XTNXRHYEANF9HQX9HL4AX9QD&tp_b=3F1567XTNXRHYEANF9HQX9HL4AX9QD&c=365799&tp_c=365799","heads":1,"tails":5,"studentIndex":1,"studentTrueHypers":{"a":8,"b":2},"studentGuess":0.5625,"delta":0.3625,"totalExamples":6,"bonusSoFar":0},{"rt":10423,"response":{"heads":"1","tails":"10"},"type":"response","condition":"seqFeedback","trueTheta":0.2,"classrooms":["C","D"],"studentTrueClassroom":"D","exampleSet":"second","trial_type":"survey-html-form","trial_index":21,"time_elapsed":856331,"internal_node_id":"0.0-20.0-0.0","params":{"nStudents":24,"maxFlips":30,"completionMinutes":45,"basePay":8,"maxBonus":9,"perTrialBonus":0.5,"perTrialBonusThreshold":0.05,"exampleCost":0.01},"classroomParams":{"A":{"a":1,"b":4},"B":{"a":4,"b":1},"C":{"a":2,"b":8},"D":{"a":8,"b":2}},"conditions":["nonSeqFull","nonSeqPartial","seqNoFeedback","seqFeedback"],"classroomPairings":[["A","B"],["C","D"]],"coinWeights":[0.2,0.5,0.8],"subjectId":"AONSG5WOC3OX0","assignmentId":"3F1567XTNXRHYEANF9HQX9HL4AX9QD","hitId":"3JGHED38EDDK7DFM0KVY7GXU94LY7W","url":"https://gershmanlab.com/experiments/alicia/teaching/experiment/?hitId=3JGHED38EDDK7DFM0KVY7GXU94LY7W&workerId=AONSG5WOC3OX0&assignmentId=3F1567XTNXRHYEANF9HQX9HL4AX9QD&a=T61F9&tp_a=T61F9&b=3F1567XTNXRHYEANF9HQX9HL4AX9QD&tp_b=3F1567XTNXRHYEANF9HQX9HL4AX9QD&c=365799&tp_c=365799","firstResponseHeads":1,"firstResponseTails":5,"secondResponseHeads":1,"secondResponseTails":10,"totalHeads":2,"totalTails":15,"studentIndex":1,"studentTrueHypers":{"a":8,"b":2},"studentGuess":0.37037037037037035,"delta":0.17037037037037034,"bonus":0,"bonusSoFar":0,"totalExamples":17},{"rt":15071,"response":{"heads":"1","tails":"4"},"type":"response","condition":"nonSeqPartial","trueTheta":0.2,"classrooms":["A","B"],"studentTrueClassroom":"B","exampleSet":"first","trial_type":"survey-html-form","trial_index":27,"time_elapsed":885931,"internal_node_id":"0.0-26.0-0.0","params":{"nStudents":24,"maxFlips":30,"completionMinutes":45,"basePay":8,"maxBonus":9,"perTrialBonus":0.5,"perTrialBonusThreshold":0.05,"exampleCost":0.01},"classroomParams":{"A":{"a":1,"b":4},"B":{"a":4,"b":1},"C":{"a":2,"b":8},"D":{"a":8,"b":2}},"conditions":["nonSeqFull","nonSeqPartial","seqNoFeedback","seqFeedback"],"classroomPairings":[["A","B"],["C","D"]],"coinWeights":[0.2,0.5,0.8],"subjectId":"AONSG5WOC3OX0","assignmentId":"3F1567XTNXRHYEANF9HQX9HL4AX9QD","hitId":"3JGHED38EDDK7DFM0KVY7GXU94LY7W","url":"https://gershmanlab.com/experiments/alicia/teaching/experiment/?hitId=3JGHED38EDDK7DFM0KVY7GXU94LY7W&workerId=AONSG5WOC3OX0&assignmentId=3F1567XTNXRHYEANF9HQX9HL4AX9QD&a=T61F9&tp_a=T61F9&b=3F1567XTNXRHYEANF9HQX9HL4AX9QD&tp_b=3F1567XTNXRHYEANF9HQX9HL4AX9QD&c=365799&tp_c=365799","heads":1,"tails":4,"studentIndex":2,"studentTrueHypers":{"a":4,"b":1},"studentGuess":0.5,"delta":0.3,"totalExamples":5,"bonus":0,"bonusSoFar":0},{"rt":18839,"response":{"heads":"20","tails":"3"},"type":"response","condition":"seqNoFeedback","trueTheta":0.8,"classrooms":["C","D"],"studentTrueClassroom":"C","exampleSet":"first","trial_type":"survey-html-form","trial_index":33,"time_elapsed":918659,"internal_node_id":"0.0-32.0-0.0","params":{"nStudents":24,"maxFlips":30,"completionMinutes":45,"basePay":8,"maxBonus":9,"perTrialBonus":0.5,"perTrialBonusThreshold":0.05,"exampleCost":0.01},"classroomParams":{"A":{"a":1,"b":4},"B":{"a":4,"b":1},"C":{"a":2,"b":8},"D":{"a":8,"b":2}},"conditions":["nonSeqFull","nonSeqPartial","seqNoFeedback","seqFeedback"],"classroomPairings":[["A","B"],["C","D"]],"coinWeights":[0.2,0.5,0.8],"subjectId":"AONSG5WOC3OX0","assignmentId":"3F1567XTNXRHYEANF9HQX9HL4AX9QD","hitId":"3JGHED38EDDK7DFM0KVY7GXU94LY7W","url":"https://gershmanlab.com/experiments/alicia/teaching/experiment/?hitId=3JGHED38EDDK7DFM0KVY7GXU94LY7W&workerId=AONSG5WOC3OX0&assignmentId=3F1567XTNXRHYEANF9HQX9HL4AX9QD&a=T61F9&tp_a=T61F9&b=3F1567XTNXRHYEANF9HQX9HL4AX9QD&tp_b=3F1567XTNXRHYEANF9HQX9HL4AX9QD&c=365799&tp_c=365799","heads":20,"tails":3,"studentIndex":3,"studentTrueHypers":{"a":2,"b":8},"studentGuess":0.6666666666666666,"delta":0.13333333333333341,"totalExamples":23,"bonusSoFar":0},{"rt":16334,"response":{"heads":"20","tails":"2"},"type":"response","condition":"seqNoFeedback","trueTheta":0.8,"classrooms":["C","D"],"studentTrueClassroom":"C","exampleSet":"second","trial_type":"survey-html-form","trial_index":36,"time_elapsed":941747,"internal_node_id":"0.0-35.0-0.0","params":{"nStudents":24,"maxFlips":30,"completionMinutes":45,"basePay":8,"maxBonus":9,"perTrialBonus":0.5,"perTrialBonusThreshold":0.05,"exampleCost":0.01},"classroomParams":{"A":{"a":1,"b":4},"B":{"a":4,"b":1},"C":{"a":2,"b":8},"D":{"a":8,"b":2}},"conditions":["nonSeqFull","nonSeqPartial","seqNoFeedback","seqFeedback"],"classroomPairings":[["A","B"],["C","D"]],"coinWeights":[0.2,0.5,0.8],"subjectId":"AONSG5WOC3OX0","assignmentId":"3F1567XTNXRHYEANF9HQX9HL4AX9QD","hitId":"3JGHED38EDDK7DFM0KVY7GXU94LY7W","url":"https://gershmanlab.com/experiments/alicia/teaching/experiment/?hitId=3JGHED38EDDK7DFM0KVY7GXU94LY7W&workerId=AONSG5WOC3OX0&assignmentId=3F1567XTNXRHYEANF9HQX9HL4AX9QD&a=T61F9&tp_a=T61F9&b=3F1567XTNXRHYEANF9HQX9HL4AX9QD&tp_b=3F1567XTNXRHYEANF9HQX9HL4AX9QD&c=365799&tp_c=365799","firstResponseHeads":20,"firstResponseTails":3,"secondResponseHeads":20,"secondResponseTails":2,"totalHeads":40,"totalTails":5,"studentIndex":3,"studentTrueHypers":{"a":2,"b":8},"studentGuess":0.7636363636363637,"delta":0.036363636363636376,"bonus":0.05,"bonusSoFar":0.05,"totalExamples":45},{"rt":8598,"response":{"heads":"25","tails":"0"},"type":"response","condition":"nonSeqFull","trueTheta":0.8,"classrooms":["A","B"],"studentTrueClassroom":"A","exampleSet":"first","trial_type":"survey-html-form","trial_index":42,"time_elapsed":966091,"internal_node_id":"0.0-41.0-0.0","params":{"nStudents":24,"maxFlips":30,"completionMinutes":45,"basePay":8,"maxBonus":9,"perTrialBonus":0.5,"perTrialBonusThreshold":0.05,"exampleCost":0.01},"classroomParams":{"A":{"a":1,"b":4},"B":{"a":4,"b":1},"C":{"a":2,"b":8},"D":{"a":8,"b":2}},"conditions":["nonSeqFull","nonSeqPartial","seqNoFeedback","seqFeedback"],"classroomPairings":[["A","B"],["C","D"]],"coinWeights":[0.2,0.5,0.8],"subjectId":"AONSG5WOC3OX0","assignmentId":"3F1567XTNXRHYEANF9HQX9HL4AX9QD","hitId":"3JGHED38EDDK7DFM0KVY7GXU94LY7W","url":"https://gershmanlab.com/experiments/alicia/teaching/experiment/?hitId=3JGHED38EDDK7DFM0KVY7GXU94LY7W&workerId=AONSG5WOC3OX0&assignmentId=3F1567XTNXRHYEANF9HQX9HL4AX9QD&a=T61F9&tp_a=T61F9&b=3F1567XTNXRHYEANF9HQX9HL4AX9QD&tp_b=3F1567XTNXRHYEANF9HQX9HL4AX9QD&c=365799&tp_c=365799","heads":25,"tails":0,"studentIndex":4,"studentTrueHypers":{"a":1,"b":4},"studentGuess":0.8666666666666667,"delta":0.06666666666666665,"totalExamples":25,"bonus":0,"bonusSoFar":0.05},{"rt":5159,"response":{"heads":"22","tails":"0"},"type":"response","condition":"seqNoFeedback","trueTheta":0.8,"classrooms":["A","B"],"studentTrueClassroom":"B","exampleSet":"first","trial_type":"survey-html-form","trial_index":48,"time_elapsed":987547,"internal_node_id":"0.0-47.0-0.0","params":{"nStudents":24,"maxFlips":30,"completionMinutes":45,"basePay":8,"maxBonus":9,"perTrialBonus":0.5,"perTrialBonusThreshold":0.05,"exampleCost":0.01},"classroomParams":{"A":{"a":1,"b":4},"B":{"a":4,"b":1},"C":{"a":2,"b":8},"D":{"a":8,"b":2}},"conditions":["nonSeqFull","nonSeqPartial","seqNoFeedback","seqFeedback"],"classroomPairings":[["A","B"],["C","D"]],"coinWeights":[0.2,0.5,0.8],"subjectId":"AONSG5WOC3OX0","assignmentId":"3F1567XTNXRHYEANF9HQX9HL4AX9QD","hitId":"3JGHED38EDDK7DFM0KVY7GXU94LY7W","url":"https://gershmanlab.com/experiments/alicia/teaching/experiment/?hitId=3JGHED38EDDK7DFM0KVY7GXU94LY7W&workerId=AONSG5WOC3OX0&assignmentId=3F1567XTNXRHYEANF9HQX9HL4AX9QD&a=T61F9&tp_a=T61F9&b=3F1567XTNXRHYEANF9HQX9HL4AX9QD&tp_b=3F1567XTNXRHYEANF9HQX9HL4AX9QD&c=365799&tp_c=365799","heads":22,"tails":0,"studentIndex":5,"studentTrueHypers":{"a":4,"b":1},"studentGuess":0.9629629629629629,"delta":0.16296296296296287,"totalExamples":22,"bonusSoFar":0.05},{"rt":9282,"response":{"heads":"25","tails":"1"},"type":"response","condition":"seqNoFeedback","trueTheta":0.8,"classrooms":["A","B"],"studentTrueClassroom":"B","exampleSet":"second","trial_type":"survey-html-form","trial_index":51,"time_elapsed":1004083,"internal_node_id":"0.0-50.0-0.0","params":{"nStudents":24,"maxFlips":30,"completionMinutes":45,"basePay":8,"maxBonus":9,"perTrialBonus":0.5,"perTrialBonusThreshold":0.05,"exampleCost":0.01},"classroomParams":{"A":{"a":1,"b":4},"B":{"a":4,"b":1},"C":{"a":2,"b":8},"D":{"a":8,"b":2}},"conditions":["nonSeqFull","nonSeqPartial","seqNoFeedback","seqFeedback"],"classroomPairings":[["A","B"],["C","D"]],"coinWeights":[0.2,0.5,0.8],"subjectId":"AONSG5WOC3OX0","assignmentId":"3F1567XTNXRHYEANF9HQX9HL4AX9QD","hitId":"3JGHED38EDDK7DFM0KVY7GXU94LY7W","url":"https://gershmanlab.com/experiments/alicia/teaching/experiment/?hitId=3JGHED38EDDK7DFM0KVY7GXU94LY7W&workerId=AONSG5WOC3OX0&assignmentId=3F1567XTNXRHYEANF9HQX9HL4AX9QD&a=T61F9&tp_a=T61F9&b=3F1567XTNXRHYEANF9HQX9HL4AX9QD&tp_b=3F1567XTNXRHYEANF9HQX9HL4AX9QD&c=365799&tp_c=365799","firstResponseHeads":22,"firstResponseTails":0,"secondResponseHeads":25,"secondResponseTails":1,"totalHeads":47,"totalTails":1,"studentIndex":5,"studentTrueHypers":{"a":4,"b":1},"studentGuess":0.9622641509433962,"delta":0.1622641509433962,"bonus":0,"bonusSoFar":0.05,"totalExamples":48},{"rt":5792,"response":{"heads":"11","tails":"12"},"type":"response","condition":"nonSeqPartial","trueTheta":0.5,"classrooms":["C","D"],"studentTrueClassroom":"D","exampleSet":"first","trial_type":"survey-html-form","trial_index":57,"time_elapsed":1023179,"internal_node_id":"0.0-56.0-0.0","params":{"nStudents":24,"maxFlips":30,"completionMinutes":45,"basePay":8,"maxBonus":9,"perTrialBonus":0.5,"perTrialBonusThreshold":0.05,"exampleCost":0.01},"classroomParams":{"A":{"a":1,"b":4},"B":{"a":4,"b":1},"C":{"a":2,"b":8},"D":{"a":8,"b":2}},"conditions":["nonSeqFull","nonSeqPartial","seqNoFeedback","seqFeedback"],"classroomPairings":[["A","B"],["C","D"]],"coinWeights":[0.2,0.5,0.8],"subjectId":"AONSG5WOC3OX0","assignmentId":"3F1567XTNXRHYEANF9HQX9HL4AX9QD","hitId":"3JGHED38EDDK7DFM0KVY7GXU94LY7W","url":"https://gershmanlab.com/experiments/alicia/teaching/experiment/?hitId=3JGHED38EDDK7DFM0KVY7GXU94LY7W&workerId=AONSG5WOC3OX0&assignmentId=3F1567XTNXRHYEANF9HQX9HL4AX9QD&a=T61F9&tp_a=T61F9&b=3F1567XTNXRHYEANF9HQX9HL4AX9QD&tp_b=3F1567XTNXRHYEANF9HQX9HL4AX9QD&c=365799&tp_c=365799","heads":11,"tails":12,"studentIndex":6,"studentTrueHypers":{"a":8,"b":2},"studentGuess":0.5757575757575758,"delta":0.0757575757575758,"totalExamples":23,"bonus":0,"bonusSoFar":0.05},{"rt":8568,"response":{"heads":"22","tails":"8"},"type":"response","condition":"seqFeedback","trueTheta":0.8,"classrooms":["C","D"],"studentTrueClassroom":"C","exampleSet":"first","trial_type":"survey-html-form","trial_index":63,"time_elapsed":1048691,"internal_node_id":"0.0-62.0-0.0","params":{"nStudents":24,"maxFlips":30,"completionMinutes":45,"basePay":8,"maxBonus":9,"perTrialBonus":0.5,"perTrialBonusThreshold":0.05,"exampleCost":0.01},"classroomParams":{"A":{"a":1,"b":4},"B":{"a":4,"b":1},"C":{"a":2,"b":8},"D":{"a":8,"b":2}},"conditions":["nonSeqFull","nonSeqPartial","seqNoFeedback","seqFeedback"],"classroomPairings":[["A","B"],["C","D"]],"coinWeights":[0.2,0.5,0.8],"subjectId":"AONSG5WOC3OX0","assignmentId":"3F1567XTNXRHYEANF9HQX9HL4AX9QD","hitId":"3JGHED38EDDK7DFM0KVY7GXU94LY7W","url":"https://gershmanlab.com/experiments/alicia/teaching/experiment/?hitId=3JGHED38EDDK7DFM0KVY7GXU94LY7W&workerId=AONSG5WOC3OX0&assignmentId=3F1567XTNXRHYEANF9HQX9HL4AX9QD&a=T61F9&tp_a=T61F9&b=3F1567XTNXRHYEANF9HQX9HL4AX9QD&tp_b=3F1567XTNXRHYEANF9HQX9HL4AX9QD&c=365799&tp_c=365799","heads":22,"tails":8,"studentIndex":7,"studentTrueHypers":{"a":2,"b":8},"studentGuess":0.6,"delta":0.20000000000000007,"totalExamples":30,"bonusSoFar":0.05},{"rt":7072,"response":{"heads":"24","tails":"0"},"type":"response","condition":"seqFeedback","trueTheta":0.8,"classrooms":["C","D"],"studentTrueClassroom":"C","exampleSet":"second","trial_type":"survey-html-form","trial_index":67,"time_elapsed":1064628,"internal_node_id":"0.0-66.0-0.0","params":{"nStudents":24,"maxFlips":30,"completionMinutes":45,"basePay":8,"maxBonus":9,"perTrialBonus":0.5,"perTrialBonusThreshold":0.05,"exampleCost":0.01},"classroomParams":{"A":{"a":1,"b":4},"B":{"a":4,"b":1},"C":{"a":2,"b":8},"D":{"a":8,"b":2}},"conditions":["nonSeqFull","nonSeqPartial","seqNoFeedback","seqFeedback"],"classroomPairings":[["A","B"],["C","D"]],"coinWeights":[0.2,0.5,0.8],"subjectId":"AONSG5WOC3OX0","assignmentId":"3F1567XTNXRHYEANF9HQX9HL4AX9QD","hitId":"3JGHED38EDDK7DFM0KVY7GXU94LY7W","url":"https://gershmanlab.com/experiments/alicia/teaching/experiment/?hitId=3JGHED38EDDK7DFM0KVY7GXU94LY7W&workerId=AONSG5WOC3OX0&assignmentId=3F1567XTNXRHYEANF9HQX9HL4AX9QD&a=T61F9&tp_a=T61F9&b=3F1567XTNXRHYEANF9HQX9HL4AX9QD&tp_b=3F1567XTNXRHYEANF9HQX9HL4AX9QD&c=365799&tp_c=365799","firstResponseHeads":22,"firstResponseTails":8,"secondResponseHeads":24,"secondResponseTails":0,"totalHeads":46,"totalTails":8,"studentIndex":7,"studentTrueHypers":{"a":2,"b":8},"studentGuess":0.75,"delta":0.050000000000000044,"bonus":0,"bonusSoFar":0.05,"totalExamples":54},{"rt":17280,"response":{"heads":"23","tails":"0"},"type":"response","condition":"seqFeedback","trueTheta":0.8,"classrooms":["A","B"],"studentTrueClassroom":"B","exampleSet":"first","trial_type":"survey-html-form","trial_index":73,"time_elapsed":1095084,"internal_node_id":"0.0-72.0-0.0","params":{"nStudents":24,"maxFlips":30,"completionMinutes":45,"basePay":8,"maxBonus":9,"perTrialBonus":0.5,"perTrialBonusThreshold":0.05,"exampleCost":0.01},"classroomParams":{"A":{"a":1,"b":4},"B":{"a":4,"b":1},"C":{"a":2,"b":8},"D":{"a":8,"b":2}},"conditions":["nonSeqFull","nonSeqPartial","seqNoFeedback","seqFeedback"],"classroomPairings":[["A","B"],["C","D"]],"coinWeights":[0.2,0.5,0.8],"subjectId":"AONSG5WOC3OX0","assignmentId":"3F1567XTNXRHYEANF9HQX9HL4AX9QD","hitId":"3JGHED38EDDK7DFM0KVY7GXU94LY7W","url":"https://gershmanlab.com/experiments/alicia/teaching/experiment/?hitId=3JGHED38EDDK7DFM0KVY7GXU94LY7W&workerId=AONSG5WOC3OX0&assignmentId=3F1567XTNXRHYEANF9HQX9HL4AX9QD&a=T61F9&tp_a=T61F9&b=3F1567XTNXRHYEANF9HQX9HL4AX9QD&tp_b=3F1567XTNXRHYEANF9HQX9HL4AX9QD&c=365799&tp_c=365799","heads":23,"tails":0,"studentIndex":8,"studentTrueHypers":{"a":4,"b":1},"studentGuess":0.9642857142857143,"delta":0.16428571428571426,"totalExamples":23,"bonusSoFar":0.05},{"rt":7071,"response":{"heads":"16","tails":"0"},"type":"response","condition":"seqFeedback","trueTheta":0.8,"classrooms":["A","B"],"studentTrueClassroom":"B","exampleSet":"second","trial_type":"survey-html-form","trial_index":77,"time_elapsed":1122755,"internal_node_id":"0.0-76.0-0.0","params":{"nStudents":24,"maxFlips":30,"completionMinutes":45,"basePay":8,"maxBonus":9,"perTrialBonus":0.5,"perTrialBonusThreshold":0.05,"exampleCost":0.01},"classroomParams":{"A":{"a":1,"b":4},"B":{"a":4,"b":1},"C":{"a":2,"b":8},"D":{"a":8,"b":2}},"conditions":["nonSeqFull","nonSeqPartial","seqNoFeedback","seqFeedback"],"classroomPairings":[["A","B"],["C","D"]],"coinWeights":[0.2,0.5,0.8],"subjectId":"AONSG5WOC3OX0","assignmentId":"3F1567XTNXRHYEANF9HQX9HL4AX9QD","hitId":"3JGHED38EDDK7DFM0KVY7GXU94LY7W","url":"https://gershmanlab.com/experiments/alicia/teaching/experiment/?hitId=3JGHED38EDDK7DFM0KVY7GXU94LY7W&workerId=AONSG5WOC3OX0&assignmentId=3F1567XTNXRHYEANF9HQX9HL4AX9QD&a=T61F9&tp_a=T61F9&b=3F1567XTNXRHYEANF9HQX9HL4AX9QD&tp_b=3F1567XTNXRHYEANF9HQX9HL4AX9QD&c=365799&tp_c=365799","firstResponseHeads":23,"firstResponseTails":0,"secondResponseHeads":16,"secondResponseTails":0,"totalHeads":39,"totalTails":0,"studentIndex":8,"studentTrueHypers":{"a":4,"b":1},"studentGuess":0.9772727272727273,"delta":0.17727272727272725,"bonus":0,"bonusSoFar":0.05,"totalExamples":39},{"rt":3720,"response":{"heads":"0","tails":"14"},"type":"response","condition":"nonSeqFull","trueTheta":0.2,"classrooms":["C","D"],"studentTrueClassroom":"D","exampleSet":"first","trial_type":"survey-html-form","trial_index":83,"time_elapsed":1142907,"internal_node_id":"0.0-82.0-0.0","params":{"nStudents":24,"maxFlips":30,"completionMinutes":45,"basePay":8,"maxBonus":9,"perTrialBonus":0.5,"perTrialBonusThreshold":0.05,"exampleCost":0.01},"classroomParams":{"A":{"a":1,"b":4},"B":{"a":4,"b":1},"C":{"a":2,"b":8},"D":{"a":8,"b":2}},"conditions":["nonSeqFull","nonSeqPartial","seqNoFeedback","seqFeedback"],"classroomPairings":[["A","B"],["C","D"]],"coinWeights":[0.2,0.5,0.8],"subjectId":"AONSG5WOC3OX0","assignmentId":"3F1567XTNXRHYEANF9HQX9HL4AX9QD","hitId":"3JGHED38EDDK7DFM0KVY7GXU94LY7W","url":"https://gershmanlab.com/experiments/alicia/teaching/experiment/?hitId=3JGHED38EDDK7DFM0KVY7GXU94LY7W&workerId=AONSG5WOC3OX0&assignmentId=3F1567XTNXRHYEANF9HQX9HL4AX9QD&a=T61F9&tp_a=T61F9&b=3F1567XTNXRHYEANF9HQX9HL4AX9QD&tp_b=3F1567XTNXRHYEANF9HQX9HL4AX9QD&c=365799&tp_c=365799","heads":0,"tails":14,"studentIndex":9,"studentTrueHypers":{"a":8,"b":2},"studentGuess":0.3333333333333333,"delta":0.1333333333333333,"totalExamples":14,"bonus":0,"bonusSoFar":0.05},{"rt":6327,"response":{"heads":"12","tails":"2"},"type":"response","condition":"nonSeqPartial","trueTheta":0.8,"classrooms":["A","B"],"studentTrueClassroom":"B","exampleSet":"first","trial_type":"survey-html-form","trial_index":89,"time_elapsed":1169163,"internal_node_id":"0.0-88.0-0.0","params":{"nStudents":24,"maxFlips":30,"completionMinutes":45,"basePay":8,"maxBonus":9,"perTrialBonus":0.5,"perTrialBonusThreshold":0.05,"exampleCost":0.01},"classroomParams":{"A":{"a":1,"b":4},"B":{"a":4,"b":1},"C":{"a":2,"b":8},"D":{"a":8,"b":2}},"conditions":["nonSeqFull","nonSeqPartial","seqNoFeedback","seqFeedback"],"classroomPairings":[["A","B"],["C","D"]],"coinWeights":[0.2,0.5,0.8],"subjectId":"AONSG5WOC3OX0","assignmentId":"3F1567XTNXRHYEANF9HQX9HL4AX9QD","hitId":"3JGHED38EDDK7DFM0KVY7GXU94LY7W","url":"https://gershmanlab.com/experiments/alicia/teaching/experiment/?hitId=3JGHED38EDDK7DFM0KVY7GXU94LY7W&workerId=AONSG5WOC3OX0&assignmentId=3F1567XTNXRHYEANF9HQX9HL4AX9QD&a=T61F9&tp_a=T61F9&b=3F1567XTNXRHYEANF9HQX9HL4AX9QD&tp_b=3F1567XTNXRHYEANF9HQX9HL4AX9QD&c=365799&tp_c=365799","heads":12,"tails":2,"studentIndex":10,"studentTrueHypers":{"a":4,"b":1},"studentGuess":0.8421052631578947,"delta":0.042105263157894646,"totalExamples":14,"bonus":0.36,"bonusSoFar":0.41},{"rt":7560,"response":{"heads":"2","tails":"5"},"type":"response","condition":"nonSeqPartial","trueTheta":0.2,"classrooms":["C","D"],"studentTrueClassroom":"C","exampleSet":"first","trial_type":"survey-html-form","trial_index":95,"time_elapsed":1195140,"internal_node_id":"0.0-94.0-0.0","params":{"nStudents":24,"maxFlips":30,"completionMinutes":45,"basePay":8,"maxBonus":9,"perTrialBonus":0.5,"perTrialBonusThreshold":0.05,"exampleCost":0.01},"classroomParams":{"A":{"a":1,"b":4},"B":{"a":4,"b":1},"C":{"a":2,"b":8},"D":{"a":8,"b":2}},"conditions":["nonSeqFull","nonSeqPartial","seqNoFeedback","seqFeedback"],"classroomPairings":[["A","B"],["C","D"]],"coinWeights":[0.2,0.5,0.8],"subjectId":"AONSG5WOC3OX0","assignmentId":"3F1567XTNXRHYEANF9HQX9HL4AX9QD","hitId":"3JGHED38EDDK7DFM0KVY7GXU94LY7W","url":"https://gershmanlab.com/experiments/alicia/teaching/experiment/?hitId=3JGHED38EDDK7DFM0KVY7GXU94LY7W&workerId=AONSG5WOC3OX0&assignmentId=3F1567XTNXRHYEANF9HQX9HL4AX9QD&a=T61F9&tp_a=T61F9&b=3F1567XTNXRHYEANF9HQX9HL4AX9QD&tp_b=3F1567XTNXRHYEANF9HQX9HL4AX9QD&c=365799&tp_c=365799","heads":2,"tails":5,"studentIndex":11,"studentTrueHypers":{"a":2,"b":8},"studentGuess":0.23529411764705882,"delta":0.03529411764705881,"totalExamples":7,"bonus":0.43,"bonusSoFar":0.84},{"rt":4407,"response":{"heads":"2","tails":"5"},"type":"response","condition":"seqNoFeedback","trueTheta":0.2,"classrooms":["C","D"],"studentTrueClassroom":"D","exampleSet":"first","trial_type":"survey-html-form","trial_index":101,"time_elapsed":1211411,"internal_node_id":"0.0-100.0-0.0","params":{"nStudents":24,"maxFlips":30,"completionMinutes":45,"basePay":8,"maxBonus":9,"perTrialBonus":0.5,"perTrialBonusThreshold":0.05,"exampleCost":0.01},"classroomParams":{"A":{"a":1,"b":4},"B":{"a":4,"b":1},"C":{"a":2,"b":8},"D":{"a":8,"b":2}},"conditions":["nonSeqFull","nonSeqPartial","seqNoFeedback","seqFeedback"],"classroomPairings":[["A","B"],["C","D"]],"coinWeights":[0.2,0.5,0.8],"subjectId":"AONSG5WOC3OX0","assignmentId":"3F1567XTNXRHYEANF9HQX9HL4AX9QD","hitId":"3JGHED38EDDK7DFM0KVY7GXU94LY7W","url":"https://gershmanlab.com/experiments/alicia/teaching/experiment/?hitId=3JGHED38EDDK7DFM0KVY7GXU94LY7W&workerId=AONSG5WOC3OX0&assignmentId=3F1567XTNXRHYEANF9HQX9HL4AX9QD&a=T61F9&tp_a=T61F9&b=3F1567XTNXRHYEANF9HQX9HL4AX9QD&tp_b=3F1567XTNXRHYEANF9HQX9HL4AX9QD&c=365799&tp_c=365799","heads":2,"tails":5,"studentIndex":12,"studentTrueHypers":{"a":8,"b":2},"studentGuess":0.5882352941176471,"delta":0.38823529411764707,"totalExamples":7,"bonusSoFar":0.84},{"rt":8092,"response":{"heads":"2","tails":"5"},"type":"response","condition":"seqNoFeedback","trueTheta":0.2,"classrooms":["C","D"],"studentTrueClassroom":"D","exampleSet":"second","trial_type":"survey-html-form","trial_index":104,"time_elapsed":1226507,"internal_node_id":"0.0-103.0-0.0","params":{"nStudents":24,"maxFlips":30,"completionMinutes":45,"basePay":8,"maxBonus":9,"perTrialBonus":0.5,"perTrialBonusThreshold":0.05,"exampleCost":0.01},"classroomParams":{"A":{"a":1,"b":4},"B":{"a":4,"b":1},"C":{"a":2,"b":8},"D":{"a":8,"b":2}},"conditions":["nonSeqFull","nonSeqPartial","seqNoFeedback","seqFeedback"],"classroomPairings":[["A","B"],["C","D"]],"coinWeights":[0.2,0.5,0.8],"subjectId":"AONSG5WOC3OX0","assignmentId":"3F1567XTNXRHYEANF9HQX9HL4AX9QD","hitId":"3JGHED38EDDK7DFM0KVY7GXU94LY7W","url":"https://gershmanlab.com/experiments/alicia/teaching/experiment/?hitId=3JGHED38EDDK7DFM0KVY7GXU94LY7W&workerId=AONSG5WOC3OX0&assignmentId=3F1567XTNXRHYEANF9HQX9HL4AX9QD&a=T61F9&tp_a=T61F9&b=3F1567XTNXRHYEANF9HQX9HL4AX9QD&tp_b=3F1567XTNXRHYEANF9HQX9HL4AX9QD&c=365799&tp_c=365799","firstResponseHeads":2,"firstResponseTails":5,"secondResponseHeads":2,"secondResponseTails":5,"totalHeads":4,"totalTails":10,"studentIndex":12,"studentTrueHypers":{"a":8,"b":2},"studentGuess":0.5,"delta":0.3,"bonus":0,"bonusSoFar":0.84,"totalExamples":14},{"rt":5959,"response":{"heads":"1","tails":"5"},"type":"response","condition":"seqFeedback","trueTheta":0.2,"classrooms":["A","B"],"studentTrueClassroom":"A","exampleSet":"first","trial_type":"survey-html-form","trial_index":110,"time_elapsed":1245539,"internal_node_id":"0.0-109.0-0.0","params":{"nStudents":24,"maxFlips":30,"completionMinutes":45,"basePay":8,"maxBonus":9,"perTrialBonus":0.5,"perTrialBonusThreshold":0.05,"exampleCost":0.01},"classroomParams":{"A":{"a":1,"b":4},"B":{"a":4,"b":1},"C":{"a":2,"b":8},"D":{"a":8,"b":2}},"conditions":["nonSeqFull","nonSeqPartial","seqNoFeedback","seqFeedback"],"classroomPairings":[["A","B"],["C","D"]],"coinWeights":[0.2,0.5,0.8],"subjectId":"AONSG5WOC3OX0","assignmentId":"3F1567XTNXRHYEANF9HQX9HL4AX9QD","hitId":"3JGHED38EDDK7DFM0KVY7GXU94LY7W","url":"https://gershmanlab.com/experiments/alicia/teaching/experiment/?hitId=3JGHED38EDDK7DFM0KVY7GXU94LY7W&workerId=AONSG5WOC3OX0&assignmentId=3F1567XTNXRHYEANF9HQX9HL4AX9QD&a=T61F9&tp_a=T61F9&b=3F1567XTNXRHYEANF9HQX9HL4AX9QD&tp_b=3F1567XTNXRHYEANF9HQX9HL4AX9QD&c=365799&tp_c=365799","heads":1,"tails":5,"studentIndex":13,"studentTrueHypers":{"a":1,"b":4},"studentGuess":0.18181818181818182,"delta":0.018181818181818188,"totalExamples":6,"bonusSoFar":0.84},{"rt":6248,"response":{"heads":"1","tails":"4"},"type":"response","condition":"seqFeedback","trueTheta":0.2,"classrooms":["A","B"],"studentTrueClassroom":"A","exampleSet":"second","trial_type":"survey-html-form","trial_index":114,"time_elapsed":1260331,"internal_node_id":"0.0-113.0-0.0","params":{"nStudents":24,"maxFlips":30,"completionMinutes":45,"basePay":8,"maxBonus":9,"perTrialBonus":0.5,"perTrialBonusThreshold":0.05,"exampleCost":0.01},"classroomParams":{"A":{"a":1,"b":4},"B":{"a":4,"b":1},"C":{"a":2,"b":8},"D":{"a":8,"b":2}},"conditions":["nonSeqFull","nonSeqPartial","seqNoFeedback","seqFeedback"],"classroomPairings":[["A","B"],["C","D"]],"coinWeights":[0.2,0.5,0.8],"subjectId":"AONSG5WOC3OX0","assignmentId":"3F1567XTNXRHYEANF9HQX9HL4AX9QD","hitId":"3JGHED38EDDK7DFM0KVY7GXU94LY7W","url":"https://gershmanlab.com/experiments/alicia/teaching/experiment/?hitId=3JGHED38EDDK7DFM0KVY7GXU94LY7W&workerId=AONSG5WOC3OX0&assignmentId=3F1567XTNXRHYEANF9HQX9HL4AX9QD&a=T61F9&tp_a=T61F9&b=3F1567XTNXRHYEANF9HQX9HL4AX9QD&tp_b=3F1567XTNXRHYEANF9HQX9HL4AX9QD&c=365799&tp_c=365799","firstResponseHeads":1,"firstResponseTails":5,"secondResponseHeads":1,"secondResponseTails":4,"totalHeads":2,"totalTails":9,"studentIndex":13,"studentTrueHypers":{"a":1,"b":4},"studentGuess":0.1875,"delta":0.012500000000000011,"bonus":0.39,"bonusSoFar":1.23,"totalExamples":11},{"rt":4431,"response":{"heads":"1","tails":"4"},"type":"response","condition":"nonSeqFull","trueTheta":0.2,"classrooms":["A","B"],"studentTrueClassroom":"B","exampleSet":"first","trial_type":"survey-html-form","trial_index":120,"time_elapsed":1278083,"internal_node_id":"0.0-119.0-0.0","params":{"nStudents":24,"maxFlips":30,"completionMinutes":45,"basePay":8,"maxBonus":9,"perTrialBonus":0.5,"perTrialBonusThreshold":0.05,"exampleCost":0.01},"classroomParams":{"A":{"a":1,"b":4},"B":{"a":4,"b":1},"C":{"a":2,"b":8},"D":{"a":8,"b":2}},"conditions":["nonSeqFull","nonSeqPartial","seqNoFeedback","seqFeedback"],"classroomPairings":[["A","B"],["C","D"]],"coinWeights":[0.2,0.5,0.8],"subjectId":"AONSG5WOC3OX0","assignmentId":"3F1567XTNXRHYEANF9HQX9HL4AX9QD","hitId":"3JGHED38EDDK7DFM0KVY7GXU94LY7W","url":"https://gershmanlab.com/experiments/alicia/teaching/experiment/?hitId=3JGHED38EDDK7DFM0KVY7GXU94LY7W&workerId=AONSG5WOC3OX0&assignmentId=3F1567XTNXRHYEANF9HQX9HL4AX9QD&a=T61F9&tp_a=T61F9&b=3F1567XTNXRHYEANF9HQX9HL4AX9QD&tp_b=3F1567XTNXRHYEANF9HQX9HL4AX9QD&c=365799&tp_c=365799","heads":1,"tails":4,"studentIndex":14,"studentTrueHypers":{"a":4,"b":1},"studentGuess":0.5,"delta":0.3,"totalExamples":5,"bonus":0,"bonusSoFar":1.23},{"rt":4775,"response":{"heads":"2","tails":"4"},"type":"response","condition":"seqFeedback","trueTheta":0.5,"classrooms":["C","D"],"studentTrueClassroom":"C","exampleSet":"first","trial_type":"survey-html-form","trial_index":126,"time_elapsed":1299259,"internal_node_id":"0.0-125.0-0.0","params":{"nStudents":24,"maxFlips":30,"completionMinutes":45,"basePay":8,"maxBonus":9,"perTrialBonus":0.5,"perTrialBonusThreshold":0.05,"exampleCost":0.01},"classroomParams":{"A":{"a":1,"b":4},"B":{"a":4,"b":1},"C":{"a":2,"b":8},"D":{"a":8,"b":2}},"conditions":["nonSeqFull","nonSeqPartial","seqNoFeedback","seqFeedback"],"classroomPairings":[["A","B"],["C","D"]],"coinWeights":[0.2,0.5,0.8],"subjectId":"AONSG5WOC3OX0","assignmentId":"3F1567XTNXRHYEANF9HQX9HL4AX9QD","hitId":"3JGHED38EDDK7DFM0KVY7GXU94LY7W","url":"https://gershmanlab.com/experiments/alicia/teaching/experiment/?hitId=3JGHED38EDDK7DFM0KVY7GXU94LY7W&workerId=AONSG5WOC3OX0&assignmentId=3F1567XTNXRHYEANF9HQX9HL4AX9QD&a=T61F9&tp_a=T61F9&b=3F1567XTNXRHYEANF9HQX9HL4AX9QD&tp_b=3F1567XTNXRHYEANF9HQX9HL4AX9QD&c=365799&tp_c=365799","heads":2,"tails":4,"studentIndex":15,"studentTrueHypers":{"a":2,"b":8},"studentGuess":0.25,"delta":0.25,"totalExamples":6,"bonusSoFar":1.23},{"rt":6559,"response":{"heads":"2","tails":"2"},"type":"response","condition":"seqFeedback","trueTheta":0.5,"classrooms":["C","D"],"studentTrueClassroom":"C","exampleSet":"second","trial_type":"survey-html-form","trial_index":130,"time_elapsed":1316915,"internal_node_id":"0.0-129.0-0.0","params":{"nStudents":24,"maxFlips":30,"completionMinutes":45,"basePay":8,"maxBonus":9,"perTrialBonus":0.5,"perTrialBonusThreshold":0.05,"exampleCost":0.01},"classroomParams":{"A":{"a":1,"b":4},"B":{"a":4,"b":1},"C":{"a":2,"b":8},"D":{"a":8,"b":2}},"conditions":["nonSeqFull","nonSeqPartial","seqNoFeedback","seqFeedback"],"classroomPairings":[["A","B"],["C","D"]],"coinWeights":[0.2,0.5,0.8],"subjectId":"AONSG5WOC3OX0","assignmentId":"3F1567XTNXRHYEANF9HQX9HL4AX9QD","hitId":"3JGHED38EDDK7DFM0KVY7GXU94LY7W","url":"https://gershmanlab.com/experiments/alicia/teaching/experiment/?hitId=3JGHED38EDDK7DFM0KVY7GXU94LY7W&workerId=AONSG5WOC3OX0&assignmentId=3F1567XTNXRHYEANF9HQX9HL4AX9QD&a=T61F9&tp_a=T61F9&b=3F1567XTNXRHYEANF9HQX9HL4AX9QD&tp_b=3F1567XTNXRHYEANF9HQX9HL4AX9QD&c=365799&tp_c=365799","firstResponseHeads":2,"firstResponseTails":4,"secondResponseHeads":2,"secondResponseTails":2,"totalHeads":4,"totalTails":6,"studentIndex":15,"studentTrueHypers":{"a":2,"b":8},"studentGuess":0.3,"delta":0.2,"bonus":0,"bonusSoFar":1.23,"totalExamples":10},{"rt":11087,"response":{"heads":"2","tails":"1"},"type":"response","condition":"seqNoFeedback","trueTheta":0.5,"classrooms":["C","D"],"studentTrueClassroom":"C","exampleSet":"first","trial_type":"survey-html-form","trial_index":136,"time_elapsed":1368436,"internal_node_id":"0.0-135.0-0.0","params":{"nStudents":24,"maxFlips":30,"completionMinutes":45,"basePay":8,"maxBonus":9,"perTrialBonus":0.5,"perTrialBonusThreshold":0.05,"exampleCost":0.01},"classroomParams":{"A":{"a":1,"b":4},"B":{"a":4,"b":1},"C":{"a":2,"b":8},"D":{"a":8,"b":2}},"conditions":["nonSeqFull","nonSeqPartial","seqNoFeedback","seqFeedback"],"classroomPairings":[["A","B"],["C","D"]],"coinWeights":[0.2,0.5,0.8],"subjectId":"AONSG5WOC3OX0","assignmentId":"3F1567XTNXRHYEANF9HQX9HL4AX9QD","hitId":"3JGHED38EDDK7DFM0KVY7GXU94LY7W","url":"https://gershmanlab.com/experiments/alicia/teaching/experiment/?hitId=3JGHED38EDDK7DFM0KVY7GXU94LY7W&workerId=AONSG5WOC3OX0&assignmentId=3F1567XTNXRHYEANF9HQX9HL4AX9QD&a=T61F9&tp_a=T61F9&b=3F1567XTNXRHYEANF9HQX9HL4AX9QD&tp_b=3F1567XTNXRHYEANF9HQX9HL4AX9QD&c=365799&tp_c=365799","heads":2,"tails":1,"studentIndex":16,"studentTrueHypers":{"a":2,"b":8},"studentGuess":0.3076923076923077,"delta":0.1923076923076923,"totalExamples":3,"bonusSoFar":1.23},{"rt":6758,"response":{"heads":"1","tails":"2"},"type":"response","condition":"seqNoFeedback","trueTheta":0.5,"classrooms":["C","D"],"studentTrueClassroom":"C","exampleSet":"second","trial_type":"survey-html-form","trial_index":139,"time_elapsed":1381948,"internal_node_id":"0.0-138.0-0.0","params":{"nStudents":24,"maxFlips":30,"completionMinutes":45,"basePay":8,"maxBonus":9,"perTrialBonus":0.5,"perTrialBonusThreshold":0.05,"exampleCost":0.01},"classroomParams":{"A":{"a":1,"b":4},"B":{"a":4,"b":1},"C":{"a":2,"b":8},"D":{"a":8,"b":2}},"conditions":["nonSeqFull","nonSeqPartial","seqNoFeedback","seqFeedback"],"classroomPairings":[["A","B"],["C","D"]],"coinWeights":[0.2,0.5,0.8],"subjectId":"AONSG5WOC3OX0","assignmentId":"3F1567XTNXRHYEANF9HQX9HL4AX9QD","hitId":"3JGHED38EDDK7DFM0KVY7GXU94LY7W","url":"https://gershmanlab.com/experiments/alicia/teaching/experiment/?hitId=3JGHED38EDDK7DFM0KVY7GXU94LY7W&workerId=AONSG5WOC3OX0&assignmentId=3F1567XTNXRHYEANF9HQX9HL4AX9QD&a=T61F9&tp_a=T61F9&b=3F1567XTNXRHYEANF9HQX9HL4AX9QD&tp_b=3F1567XTNXRHYEANF9HQX9HL4AX9QD&c=365799&tp_c=365799","firstResponseHeads":2,"firstResponseTails":1,"secondResponseHeads":1,"secondResponseTails":2,"totalHeads":3,"totalTails":3,"studentIndex":16,"studentTrueHypers":{"a":2,"b":8},"studentGuess":0.3125,"delta":0.1875,"bonus":0,"bonusSoFar":1.23,"totalExamples":6},{"rt":5112,"response":{"heads":"2","tails":"4"},"type":"response","condition":"seqNoFeedback","trueTheta":0.5,"classrooms":["A","B"],"studentTrueClassroom":"A","exampleSet":"first","trial_type":"survey-html-form","trial_index":145,"time_elapsed":1400092,"internal_node_id":"0.0-144.0-0.0","params":{"nStudents":24,"maxFlips":30,"completionMinutes":45,"basePay":8,"maxBonus":9,"perTrialBonus":0.5,"perTrialBonusThreshold":0.05,"exampleCost":0.01},"classroomParams":{"A":{"a":1,"b":4},"B":{"a":4,"b":1},"C":{"a":2,"b":8},"D":{"a":8,"b":2}},"conditions":["nonSeqFull","nonSeqPartial","seqNoFeedback","seqFeedback"],"classroomPairings":[["A","B"],["C","D"]],"coinWeights":[0.2,0.5,0.8],"subjectId":"AONSG5WOC3OX0","assignmentId":"3F1567XTNXRHYEANF9HQX9HL4AX9QD","hitId":"3JGHED38EDDK7DFM0KVY7GXU94LY7W","url":"https://gershmanlab.com/experiments/alicia/teaching/experiment/?hitId=3JGHED38EDDK7DFM0KVY7GXU94LY7W&workerId=AONSG5WOC3OX0&assignmentId=3F1567XTNXRHYEANF9HQX9HL4AX9QD&a=T61F9&tp_a=T61F9&b=3F1567XTNXRHYEANF9HQX9HL4AX9QD&tp_b=3F1567XTNXRHYEANF9HQX9HL4AX9QD&c=365799&tp_c=365799","heads":2,"tails":4,"studentIndex":17,"studentTrueHypers":{"a":1,"b":4},"studentGuess":0.2727272727272727,"delta":0.2272727272727273,"totalExamples":6,"bonusSoFar":1.23},{"rt":4974,"response":{"heads":"2","tails":"4"},"type":"response","condition":"seqNoFeedback","trueTheta":0.5,"classrooms":["A","B"],"studentTrueClassroom":"A","exampleSet":"second","trial_type":"survey-html-form","trial_index":148,"time_elapsed":1412820,"internal_node_id":"0.0-147.0-0.0","params":{"nStudents":24,"maxFlips":30,"completionMinutes":45,"basePay":8,"maxBonus":9,"perTrialBonus":0.5,"perTrialBonusThreshold":0.05,"exampleCost":0.01},"classroomParams":{"A":{"a":1,"b":4},"B":{"a":4,"b":1},"C":{"a":2,"b":8},"D":{"a":8,"b":2}},"conditions":["nonSeqFull","nonSeqPartial","seqNoFeedback","seqFeedback"],"classroomPairings":[["A","B"],["C","D"]],"coinWeights":[0.2,0.5,0.8],"subjectId":"AONSG5WOC3OX0","assignmentId":"3F1567XTNXRHYEANF9HQX9HL4AX9QD","hitId":"3JGHED38EDDK7DFM0KVY7GXU94LY7W","url":"https://gershmanlab.com/experiments/alicia/teaching/experiment/?hitId=3JGHED38EDDK7DFM0KVY7GXU94LY7W&workerId=AONSG5WOC3OX0&assignmentId=3F1567XTNXRHYEANF9HQX9HL4AX9QD&a=T61F9&tp_a=T61F9&b=3F1567XTNXRHYEANF9HQX9HL4AX9QD&tp_b=3F1567XTNXRHYEANF9HQX9HL4AX9QD&c=365799&tp_c=365799","firstResponseHeads":2,"firstResponseTails":4,"secondResponseHeads":2,"secondResponseTails":4,"totalHeads":4,"totalTails":8,"studentIndex":17,"studentTrueHypers":{"a":1,"b":4},"studentGuess":0.29411764705882354,"delta":0.20588235294117646,"bonus":0,"bonusSoFar":1.23,"totalExamples":12},{"rt":10472,"response":{"heads":"1","tails":"4"},"type":"response","condition":"nonSeqFull","trueTheta":0.5,"classrooms":["C","D"],"studentTrueClassroom":"D","exampleSet":"first","trial_type":"survey-html-form","trial_index":154,"time_elapsed":1433635,"internal_node_id":"0.0-153.0-0.0","params":{"nStudents":24,"maxFlips":30,"completionMinutes":45,"basePay":8,"maxBonus":9,"perTrialBonus":0.5,"perTrialBonusThreshold":0.05,"exampleCost":0.01},"classroomParams":{"A":{"a":1,"b":4},"B":{"a":4,"b":1},"C":{"a":2,"b":8},"D":{"a":8,"b":2}},"conditions":["nonSeqFull","nonSeqPartial","seqNoFeedback","seqFeedback"],"classroomPairings":[["A","B"],["C","D"]],"coinWeights":[0.2,0.5,0.8],"subjectId":"AONSG5WOC3OX0","assignmentId":"3F1567XTNXRHYEANF9HQX9HL4AX9QD","hitId":"3JGHED38EDDK7DFM0KVY7GXU94LY7W","url":"https://gershmanlab.com/experiments/alicia/teaching/experiment/?hitId=3JGHED38EDDK7DFM0KVY7GXU94LY7W&workerId=AONSG5WOC3OX0&assignmentId=3F1567XTNXRHYEANF9HQX9HL4AX9QD&a=T61F9&tp_a=T61F9&b=3F1567XTNXRHYEANF9HQX9HL4AX9QD&tp_b=3F1567XTNXRHYEANF9HQX9HL4AX9QD&c=365799&tp_c=365799","heads":1,"tails":4,"studentIndex":18,"studentTrueHypers":{"a":8,"b":2},"studentGuess":0.6,"delta":0.09999999999999998,"totalExamples":5,"bonus":0,"bonusSoFar":1.23},{"rt":8247,"response":{"heads":"10","tails":"0"},"type":"response","condition":"nonSeqFull","trueTheta":0.8,"classrooms":["C","D"],"studentTrueClassroom":"C","exampleSet":"first","trial_type":"survey-html-form","trial_index":160,"time_elapsed":1454851,"internal_node_id":"0.0-159.0-0.0","params":{"nStudents":24,"maxFlips":30,"completionMinutes":45,"basePay":8,"maxBonus":9,"perTrialBonus":0.5,"perTrialBonusThreshold":0.05,"exampleCost":0.01},"classroomParams":{"A":{"a":1,"b":4},"B":{"a":4,"b":1},"C":{"a":2,"b":8},"D":{"a":8,"b":2}},"conditions":["nonSeqFull","nonSeqPartial","seqNoFeedback","seqFeedback"],"classroomPairings":[["A","B"],["C","D"]],"coinWeights":[0.2,0.5,0.8],"subjectId":"AONSG5WOC3OX0","assignmentId":"3F1567XTNXRHYEANF9HQX9HL4AX9QD","hitId":"3JGHED38EDDK7DFM0KVY7GXU94LY7W","url":"https://gershmanlab.com/experiments/alicia/teaching/experiment/?hitId=3JGHED38EDDK7DFM0KVY7GXU94LY7W&workerId=AONSG5WOC3OX0&assignmentId=3F1567XTNXRHYEANF9HQX9HL4AX9QD&a=T61F9&tp_a=T61F9&b=3F1567XTNXRHYEANF9HQX9HL4AX9QD&tp_b=3F1567XTNXRHYEANF9HQX9HL4AX9QD&c=365799&tp_c=365799","heads":10,"tails":0,"studentIndex":19,"studentTrueHypers":{"a":2,"b":8},"studentGuess":0.6,"delta":0.20000000000000007,"totalExamples":10,"bonus":0,"bonusSoFar":1.23},{"rt":10504,"response":{"heads":"10","tails":"0"},"type":"response","condition":"nonSeqPartial","trueTheta":0.8,"classrooms":["C","D"],"studentTrueClassroom":"C","exampleSet":"first","trial_type":"survey-html-form","trial_index":166,"time_elapsed":1478339,"internal_node_id":"0.0-165.0-0.0","params":{"nStudents":24,"maxFlips":30,"completionMinutes":45,"basePay":8,"maxBonus":9,"perTrialBonus":0.5,"perTrialBonusThreshold":0.05,"exampleCost":0.01},"classroomParams":{"A":{"a":1,"b":4},"B":{"a":4,"b":1},"C":{"a":2,"b":8},"D":{"a":8,"b":2}},"conditions":["nonSeqFull","nonSeqPartial","seqNoFeedback","seqFeedback"],"classroomPairings":[["A","B"],["C","D"]],"coinWeights":[0.2,0.5,0.8],"subjectId":"AONSG5WOC3OX0","assignmentId":"3F1567XTNXRHYEANF9HQX9HL4AX9QD","hitId":"3JGHED38EDDK7DFM0KVY7GXU94LY7W","url":"https://gershmanlab.com/experiments/alicia/teaching/experiment/?hitId=3JGHED38EDDK7DFM0KVY7GXU94LY7W&workerId=AONSG5WOC3OX0&assignmentId=3F1567XTNXRHYEANF9HQX9HL4AX9QD&a=T61F9&tp_a=T61F9&b=3F1567XTNXRHYEANF9HQX9HL4AX9QD&tp_b=3F1567XTNXRHYEANF9HQX9HL4AX9QD&c=365799&tp_c=365799","heads":10,"tails":0,"studentIndex":20,"studentTrueHypers":{"a":2,"b":8},"studentGuess":0.6,"delta":0.20000000000000007,"totalExamples":10,"bonus":0,"bonusSoFar":1.23},{"rt":11103,"response":{"heads":"3","tails":"0"},"type":"response","condition":"nonSeqPartial","trueTheta":0.5,"classrooms":["A","B"],"studentTrueClassroom":"B","exampleSet":"first","trial_type":"survey-html-form","trial_index":172,"time_elapsed":1501027,"internal_node_id":"0.0-171.0-0.0","params":{"nStudents":24,"maxFlips":30,"completionMinutes":45,"basePay":8,"maxBonus":9,"perTrialBonus":0.5,"perTrialBonusThreshold":0.05,"exampleCost":0.01},"classroomParams":{"A":{"a":1,"b":4},"B":{"a":4,"b":1},"C":{"a":2,"b":8},"D":{"a":8,"b":2}},"conditions":["nonSeqFull","nonSeqPartial","seqNoFeedback","seqFeedback"],"classroomPairings":[["A","B"],["C","D"]],"coinWeights":[0.2,0.5,0.8],"subjectId":"AONSG5WOC3OX0","assignmentId":"3F1567XTNXRHYEANF9HQX9HL4AX9QD","hitId":"3JGHED38EDDK7DFM0KVY7GXU94LY7W","url":"https://gershmanlab.com/experiments/alicia/teaching/experiment/?hitId=3JGHED38EDDK7DFM0KVY7GXU94LY7W&workerId=AONSG5WOC3OX0&assignmentId=3F1567XTNXRHYEANF9HQX9HL4AX9QD&a=T61F9&tp_a=T61F9&b=3F1567XTNXRHYEANF9HQX9HL4AX9QD&tp_b=3F1567XTNXRHYEANF9HQX9HL4AX9QD&c=365799&tp_c=365799","heads":3,"tails":0,"studentIndex":21,"studentTrueHypers":{"a":4,"b":1},"studentGuess":0.875,"delta":0.375,"totalExamples":3,"bonus":0,"bonusSoFar":1.23},{"rt":6783,"response":{"heads":"0","tails":"3"},"type":"response","condition":"nonSeqFull","trueTheta":0.5,"classrooms":["A","B"],"studentTrueClassroom":"B","exampleSet":"first","trial_type":"survey-html-form","trial_index":178,"time_elapsed":1519515,"internal_node_id":"0.0-177.0-0.0","params":{"nStudents":24,"maxFlips":30,"completionMinutes":45,"basePay":8,"maxBonus":9,"perTrialBonus":0.5,"perTrialBonusThreshold":0.05,"exampleCost":0.01},"classroomParams":{"A":{"a":1,"b":4},"B":{"a":4,"b":1},"C":{"a":2,"b":8},"D":{"a":8,"b":2}},"conditions":["nonSeqFull","nonSeqPartial","seqNoFeedback","seqFeedback"],"classroomPairings":[["A","B"],["C","D"]],"coinWeights":[0.2,0.5,0.8],"subjectId":"AONSG5WOC3OX0","assignmentId":"3F1567XTNXRHYEANF9HQX9HL4AX9QD","hitId":"3JGHED38EDDK7DFM0KVY7GXU94LY7W","url":"https://gershmanlab.com/experiments/alicia/teaching/experiment/?hitId=3JGHED38EDDK7DFM0KVY7GXU94LY7W&workerId=AONSG5WOC3OX0&assignmentId=3F1567XTNXRHYEANF9HQX9HL4AX9QD&a=T61F9&tp_a=T61F9&b=3F1567XTNXRHYEANF9HQX9HL4AX9QD&tp_b=3F1567XTNXRHYEANF9HQX9HL4AX9QD&c=365799&tp_c=365799","heads":0,"tails":3,"studentIndex":22,"studentTrueHypers":{"a":4,"b":1},"studentGuess":0.5,"delta":0,"totalExamples":3,"bonus":0.47,"bonusSoFar":1.7},{"rt":10383,"response":{"heads":"0","tails":"5"},"type":"response","condition":"seqNoFeedback","trueTheta":0.2,"classrooms":["A","B"],"studentTrueClassroom":"A","exampleSet":"first","trial_type":"survey-html-form","trial_index":184,"time_elapsed":1543419,"internal_node_id":"0.0-183.0-0.0","params":{"nStudents":24,"maxFlips":30,"completionMinutes":45,"basePay":8,"maxBonus":9,"perTrialBonus":0.5,"perTrialBonusThreshold":0.05,"exampleCost":0.01},"classroomParams":{"A":{"a":1,"b":4},"B":{"a":4,"b":1},"C":{"a":2,"b":8},"D":{"a":8,"b":2}},"conditions":["nonSeqFull","nonSeqPartial","seqNoFeedback","seqFeedback"],"classroomPairings":[["A","B"],["C","D"]],"coinWeights":[0.2,0.5,0.8],"subjectId":"AONSG5WOC3OX0","assignmentId":"3F1567XTNXRHYEANF9HQX9HL4AX9QD","hitId":"3JGHED38EDDK7DFM0KVY7GXU94LY7W","url":"https://gershmanlab.com/experiments/alicia/teaching/experiment/?hitId=3JGHED38EDDK7DFM0KVY7GXU94LY7W&workerId=AONSG5WOC3OX0&assignmentId=3F1567XTNXRHYEANF9HQX9HL4AX9QD&a=T61F9&tp_a=T61F9&b=3F1567XTNXRHYEANF9HQX9HL4AX9QD&tp_b=3F1567XTNXRHYEANF9HQX9HL4AX9QD&c=365799&tp_c=365799","heads":0,"tails":5,"studentIndex":23,"studentTrueHypers":{"a":1,"b":4},"studentGuess":0.1,"delta":0.1,"totalExamples":5,"bonusSoFar":1.7},{"rt":12188,"response":{"heads":"0","tails":"5"},"type":"response","condition":"seqNoFeedback","trueTheta":0.2,"classrooms":["A","B"],"studentTrueClassroom":"A","exampleSet":"second","trial_type":"survey-html-form","trial_index":187,"time_elapsed":1562611,"internal_node_id":"0.0-186.0-0.0","params":{"nStudents":24,"maxFlips":30,"completionMinutes":45,"basePay":8,"maxBonus":9,"perTrialBonus":0.5,"perTrialBonusThreshold":0.05,"exampleCost":0.01},"classroomParams":{"A":{"a":1,"b":4},"B":{"a":4,"b":1},"C":{"a":2,"b":8},"D":{"a":8,"b":2}},"conditions":["nonSeqFull","nonSeqPartial","seqNoFeedback","seqFeedback"],"classroomPairings":[["A","B"],["C","D"]],"coinWeights":[0.2,0.5,0.8],"subjectId":"AONSG5WOC3OX0","assignmentId":"3F1567XTNXRHYEANF9HQX9HL4AX9QD","hitId":"3JGHED38EDDK7DFM0KVY7GXU94LY7W","url":"https://gershmanlab.com/experiments/alicia/teaching/experiment/?hitId=3JGHED38EDDK7DFM0KVY7GXU94LY7W&workerId=AONSG5WOC3OX0&assignmentId=3F1567XTNXRHYEANF9HQX9HL4AX9QD&a=T61F9&tp_a=T61F9&b=3F1567XTNXRHYEANF9HQX9HL4AX9QD&tp_b=3F1567XTNXRHYEANF9HQX9HL4AX9QD&c=365799&tp_c=365799","firstResponseHeads":0,"firstResponseTails":5,"secondResponseHeads":0,"secondResponseTails":5,"totalHeads":0,"totalTails":10,"studentIndex":23,"studentTrueHypers":{"a":1,"b":4},"studentGuess":0.06666666666666667,"delta":0.13333333333333336,"bonus":0,"bonusSoFar":1.7,"totalExamples":10},{"rt":12616,"response":{"gender":"male","age":"40","understood":"yes","comments":""},"type":"response","trial_type":"survey-html-form","trial_index":191,"time_elapsed":1585067,"internal_node_id":"0.0-191.0","params":{"nStudents":24,"maxFlips":30,"completionMinutes":45,"basePay":8,"maxBonus":9,"perTrialBonus":0.5,"perTrialBonusThreshold":0.05,"exampleCost":0.01},"classroomParams":{"A":{"a":1,"b":4},"B":{"a":4,"b":1},"C":{"a":2,"b":8},"D":{"a":8,"b":2}},"conditions":["nonSeqFull","nonSeqPartial","seqNoFeedback","seqFeedback"],"classroomPairings":[["A","B"],["C","D"]],"coinWeights":[0.2,0.5,0.8],"subjectId":"AONSG5WOC3OX0","assignmentId":"3F1567XTNXRHYEANF9HQX9HL4AX9QD","hitId":"3JGHED38EDDK7DFM0KVY7GXU94LY7W","url":"https://gershmanlab.com/experiments/alicia/teaching/experiment/?hitId=3JGHED38EDDK7DFM0KVY7GXU94LY7W&workerId=AONSG5WOC3OX0&assignmentId=3F1567XTNXRHYEANF9HQX9HL4AX9QD&a=T61F9&tp_a=T61F9&b=3F1567XTNXRHYEANF9HQX9HL4AX9QD&tp_b=3F1567XTNXRHYEANF9HQX9HL4AX9QD&c=365799&tp_c=365799","totalBonus":1.7}]