[{"rt":45002,"response":{"heads":"10","tails":"10"},"type":"response","condition":"seqNoFeedback","trueTheta":0.5,"classrooms":["A","B"],"studentTrueClassroom":"B","exampleSet":"first","trial_type":"survey-html-form","trial_index":7,"time_elapsed":529432,"internal_node_id":"0.0-6.0-0.0","params":{"nStudents":24,"maxFlips":30,"completionMinutes":45,"basePay":8,"maxBonus":9,"perTrialBonus":0.5,"perTrialBonusThreshold":0.05,"exampleCost":0.01},"classroomParams":{"A":{"a":1,"b":4},"B":{"a":4,"b":1},"C":{"a":2,"b":8},"D":{"a":8,"b":2}},"conditions":["nonSeqFull","nonSeqPartial","seqNoFeedback","seqFeedback"],"classroomPairings":[["A","B"],["C","D"]],"coinWeights":[0.2,0.5,0.8],"subjectId":"AOS2PVHT2HYTL","assignmentId":"3YT88D1N09K989NCLVWJAA2Q5BA3KB","hitId":"34KYK9TV2RUAD363EVFPUWVPB97SBP","url":"https://gershmanlab.com/experiments/alicia/teaching/experiment/?hitId=34KYK9TV2RUAD363EVFPUWVPB97SBP&workerId=AOS2PVHT2HYTL&assignmentId=3YT88D1N09K989NCLVWJAA2Q5BA3KB&a=N8TY7&tp_a=N8TY7&b=3YT88D1N09K989NCLVWJAA2Q5BA3KB&tp_b=3YT88D1N09K989NCLVWJAA2Q5BA3KB&c=365717&tp_c=365717","heads":10,"tails":10,"studentIndex":0,"studentTrueHypers":{"a":4,"b":1},"studentGuess":0.56,"delta":0.06000000000000005,"totalExamples":20,"bonusSoFar":0},{"rt":23494,"response":{"heads":"10","tails":"10"},"type":"response","condition":"seqNoFeedback","trueTheta":0.5,"classrooms":["A","B"],"studentTrueClassroom":"B","exampleSet":"second","trial_type":"survey-html-form","trial_index":10,"time_elapsed":559958,"internal_node_id":"0.0-9.0-0.0","params":{"nStudents":24,"maxFlips":30,"completionMinutes":45,"basePay":8,"maxBonus":9,"perTrialBonus":0.5,"perTrialBonusThreshold":0.05,"exampleCost":0.01},"classroomParams":{"A":{"a":1,"b":4},"B":{"a":4,"b":1},"C":{"a":2,"b":8},"D":{"a":8,"b":2}},"conditions":["nonSeqFull","nonSeqPartial","seqNoFeedback","seqFeedback"],"classroomPairings":[["A","B"],["C","D"]],"coinWeights":[0.2,0.5,0.8],"subjectId":"AOS2PVHT2HYTL","assignmentId":"3YT88D1N09K989NCLVWJAA2Q5BA3KB","hitId":"34KYK9TV2RUAD363EVFPUWVPB97SBP","url":"https://gershmanlab.com/experiments/alicia/teaching/experiment/?hitId=34KYK9TV2RUAD363EVFPUWVPB97SBP&workerId=AOS2PVHT2HYTL&assignmentId=3YT88D1N09K989NCLVWJAA2Q5BA3KB&a=N8TY7&tp_a=N8TY7&b=3YT88D1N09K989NCLVWJAA2Q5BA3KB&tp_b=3YT88D1N09K989NCLVWJAA2Q5BA3KB&c=365717&tp_c=365717","firstResponseHeads":10,"firstResponseTails":10,"secondResponseHeads":10,"secondResponseTails":10,"totalHeads":20,"totalTails":20,"studentIndex":0,"studentTrueHypers":{"a":4,"b":1},"studentGuess":0.5333333333333333,"delta":0.033333333333333326,"bonus":0.1,"bonusSoFar":0.1,"totalExamples":40},{"rt":43905,"response":{"heads":"5","tails":"0"},"type":"response","condition":"nonSeqPartial","trueTheta":0.8,"classrooms":["C","D"],"studentTrueClassroom":"D","exampleSet":"first","trial_type":"survey-html-form","trial_index":16,"time_elapsed":642508,"internal_node_id":"0.0-15.0-0.0","params":{"nStudents":24,"maxFlips":30,"completionMinutes":45,"basePay":8,"maxBonus":9,"perTrialBonus":0.5,"perTrialBonusThreshold":0.05,"exampleCost":0.01},"classroomParams":{"A":{"a":1,"b":4},"B":{"a":4,"b":1},"C":{"a":2,"b":8},"D":{"a":8,"b":2}},"conditions":["nonSeqFull","nonSeqPartial","seqNoFeedback","seqFeedback"],"classroomPairings":[["A","B"],["C","D"]],"coinWeights":[0.2,0.5,0.8],"subjectId":"AOS2PVHT2HYTL","assignmentId":"3YT88D1N09K989NCLVWJAA2Q5BA3KB","hitId":"34KYK9TV2RUAD363EVFPUWVPB97SBP","url":"https://gershmanlab.com/experiments/alicia/teaching/experiment/?hitId=34KYK9TV2RUAD363EVFPUWVPB97SBP&workerId=AOS2PVHT2HYTL&assignmentId=3YT88D1N09K989NCLVWJAA2Q5BA3KB&a=N8TY7&tp_a=N8TY7&b=3YT88D1N09K989NCLVWJAA2Q5BA3KB&tp_b=3YT88D1N09K989NCLVWJAA2Q5BA3KB&c=365717&tp_c=365717","heads":5,"tails":0,"studentIndex":1,"studentTrueHypers":{"a":8,"b":2},"studentGuess":0.8666666666666667,"delta":0.06666666666666665,"totalExamples":5,"bonus":0,"bonusSoFar":0.1},{"rt":13965,"response":{"heads":"0","tails":"10"},"type":"response","condition":"nonSeqFull","trueTheta":0.2,"classrooms":["A","B"],"studentTrueClassroom":"A","exampleSet":"first","trial_type":"survey-html-form","trial_index":22,"time_elapsed":692648,"internal_node_id":"0.0-21.0-0.0","params":{"nStudents":24,"maxFlips":30,"completionMinutes":45,"basePay":8,"maxBonus":9,"perTrialBonus":0.5,"perTrialBonusThreshold":0.05,"exampleCost":0.01},"classroomParams":{"A":{"a":1,"b":4},"B":{"a":4,"b":1},"C":{"a":2,"b":8},"D":{"a":8,"b":2}},"conditions":["nonSeqFull","nonSeqPartial","seqNoFeedback","seqFeedback"],"classroomPairings":[["A","B"],["C","D"]],"coinWeights":[0.2,0.5,0.8],"subjectId":"AOS2PVHT2HYTL","assignmentId":"3YT88D1N09K989NCLVWJAA2Q5BA3KB","hitId":"34KYK9TV2RUAD363EVFPUWVPB97SBP","url":"https://gershmanlab.com/experiments/alicia/teaching/experiment/?hitId=34KYK9TV2RUAD363EVFPUWVPB97SBP&workerId=AOS2PVHT2HYTL&assignmentId=3YT88D1N09K989NCLVWJAA2Q5BA3KB&a=N8TY7&tp_a=N8TY7&b=3YT88D1N09K989NCLVWJAA2Q5BA3KB&tp_b=3YT88D1N09K989NCLVWJAA2Q5BA3KB&c=365717&tp_c=365717","heads":0,"tails":10,"studentIndex":2,"studentTrueHypers":{"a":1,"b":4},"studentGuess":0.06666666666666667,"delta":0.13333333333333336,"totalExamples":10,"bonus":0,"bonusSoFar":0.1},{"rt":27166,"response":{"heads":"0","tails":"15"},"type":"response","condition":"seqNoFeedback","trueTheta":0.2,"classrooms":["A","B"],"studentTrueClassroom":"B","exampleSet":"first","trial_type":"survey-html-form","trial_index":28,"time_elapsed":741996,"internal_node_id":"0.0-27.0-0.0","params":{"nStudents":24,"maxFlips":30,"completionMinutes":45,"basePay":8,"maxBonus":9,"perTrialBonus":0.5,"perTrialBonusThreshold":0.05,"exampleCost":0.01},"classroomParams":{"A":{"a":1,"b":4},"B":{"a":4,"b":1},"C":{"a":2,"b":8},"D":{"a":8,"b":2}},"conditions":["nonSeqFull","nonSeqPartial","seqNoFeedback","seqFeedback"],"classroomPairings":[["A","B"],["C","D"]],"coinWeights":[0.2,0.5,0.8],"subjectId":"AOS2PVHT2HYTL","assignmentId":"3YT88D1N09K989NCLVWJAA2Q5BA3KB","hitId":"34KYK9TV2RUAD363EVFPUWVPB97SBP","url":"https://gershmanlab.com/experiments/alicia/teaching/experiment/?hitId=34KYK9TV2RUAD363EVFPUWVPB97SBP&workerId=AOS2PVHT2HYTL&assignmentId=3YT88D1N09K989NCLVWJAA2Q5BA3KB&a=N8TY7&tp_a=N8TY7&b=3YT88D1N09K989NCLVWJAA2Q5BA3KB&tp_b=3YT88D1N09K989NCLVWJAA2Q5BA3KB&c=365717&tp_c=365717","heads":0,"tails":15,"studentIndex":3,"studentTrueHypers":{"a":4,"b":1},"studentGuess":0.2,"delta":0,"totalExamples":15,"bonusSoFar":0.1},{"rt":15591,"response":{"heads":"0","tails":"30"},"type":"response","condition":"seqNoFeedback","trueTheta":0.2,"classrooms":["A","B"],"studentTrueClassroom":"B","exampleSet":"second","trial_type":"survey-html-form","trial_index":31,"time_elapsed":765114,"internal_node_id":"0.0-30.0-0.0","params":{"nStudents":24,"maxFlips":30,"completionMinutes":45,"basePay":8,"maxBonus":9,"perTrialBonus":0.5,"perTrialBonusThreshold":0.05,"exampleCost":0.01},"classroomParams":{"A":{"a":1,"b":4},"B":{"a":4,"b":1},"C":{"a":2,"b":8},"D":{"a":8,"b":2}},"conditions":["nonSeqFull","nonSeqPartial","seqNoFeedback","seqFeedback"],"classroomPairings":[["A","B"],["C","D"]],"coinWeights":[0.2,0.5,0.8],"subjectId":"AOS2PVHT2HYTL","assignmentId":"3YT88D1N09K989NCLVWJAA2Q5BA3KB","hitId":"34KYK9TV2RUAD363EVFPUWVPB97SBP","url":"https://gershmanlab.com/experiments/alicia/teaching/experiment/?hitId=34KYK9TV2RUAD363EVFPUWVPB97SBP&workerId=AOS2PVHT2HYTL&assignmentId=3YT88D1N09K989NCLVWJAA2Q5BA3KB&a=N8TY7&tp_a=N8TY7&b=3YT88D1N09K989NCLVWJAA2Q5BA3KB&tp_b=3YT88D1N09K989NCLVWJAA2Q5BA3KB&c=365717&tp_c=365717","firstResponseHeads":0,"firstResponseTails":15,"secondResponseHeads":0,"secondResponseTails":30,"totalHeads":0,"totalTails":45,"studentIndex":3,"studentTrueHypers":{"a":4,"b":1},"studentGuess":0.08,"delta":0.12000000000000001,"bonus":0,"bonusSoFar":0.1,"totalExamples":45},{"rt":9620,"response":{"heads":"8","tails":"0"},"type":"response","condition":"nonSeqPartial","trueTheta":0.8,"classrooms":["A","B"],"studentTrueClassroom":"A","exampleSet":"first","trial_type":"survey-html-form","trial_index":37,"time_elapsed":801645,"internal_node_id":"0.0-36.0-0.0","params":{"nStudents":24,"maxFlips":30,"completionMinutes":45,"basePay":8,"maxBonus":9,"perTrialBonus":0.5,"perTrialBonusThreshold":0.05,"exampleCost":0.01},"classroomParams":{"A":{"a":1,"b":4},"B":{"a":4,"b":1},"C":{"a":2,"b":8},"D":{"a":8,"b":2}},"conditions":["nonSeqFull","nonSeqPartial","seqNoFeedback","seqFeedback"],"classroomPairings":[["A","B"],["C","D"]],"coinWeights":[0.2,0.5,0.8],"subjectId":"AOS2PVHT2HYTL","assignmentId":"3YT88D1N09K989NCLVWJAA2Q5BA3KB","hitId":"34KYK9TV2RUAD363EVFPUWVPB97SBP","url":"https://gershmanlab.com/experiments/alicia/teaching/experiment/?hitId=34KYK9TV2RUAD363EVFPUWVPB97SBP&workerId=AOS2PVHT2HYTL&assignmentId=3YT88D1N09K989NCLVWJAA2Q5BA3KB&a=N8TY7&tp_a=N8TY7&b=3YT88D1N09K989NCLVWJAA2Q5BA3KB&tp_b=3YT88D1N09K989NCLVWJAA2Q5BA3KB&c=365717&tp_c=365717","heads":8,"tails":0,"studentIndex":4,"studentTrueHypers":{"a":1,"b":4},"studentGuess":0.6923076923076923,"delta":0.10769230769230775,"totalExamples":8,"bonus":0,"bonusSoFar":0.1},{"rt":19405,"response":{"heads":"5","tails":"5"},"type":"response","condition":"seqFeedback","trueTheta":0.5,"classrooms":["C","D"],"studentTrueClassroom":"D","exampleSet":"first","trial_type":"survey-html-form","trial_index":43,"time_elapsed":845847,"internal_node_id":"0.0-42.0-0.0","params":{"nStudents":24,"maxFlips":30,"completionMinutes":45,"basePay":8,"maxBonus":9,"perTrialBonus":0.5,"perTrialBonusThreshold":0.05,"exampleCost":0.01},"classroomParams":{"A":{"a":1,"b":4},"B":{"a":4,"b":1},"C":{"a":2,"b":8},"D":{"a":8,"b":2}},"conditions":["nonSeqFull","nonSeqPartial","seqNoFeedback","seqFeedback"],"classroomPairings":[["A","B"],["C","D"]],"coinWeights":[0.2,0.5,0.8],"subjectId":"AOS2PVHT2HYTL","assignmentId":"3YT88D1N09K989NCLVWJAA2Q5BA3KB","hitId":"34KYK9TV2RUAD363EVFPUWVPB97SBP","url":"https://gershmanlab.com/experiments/alicia/teaching/experiment/?hitId=34KYK9TV2RUAD363EVFPUWVPB97SBP&workerId=AOS2PVHT2HYTL&assignmentId=3YT88D1N09K989NCLVWJAA2Q5BA3KB&a=N8TY7&tp_a=N8TY7&b=3YT88D1N09K989NCLVWJAA2Q5BA3KB&tp_b=3YT88D1N09K989NCLVWJAA2Q5BA3KB&c=365717&tp_c=365717","heads":5,"tails":5,"studentIndex":5,"studentTrueHypers":{"a":8,"b":2},"studentGuess":0.65,"delta":0.15000000000000002,"totalExamples":10,"bonusSoFar":0.1},{"rt":25668,"response":{"heads":"3","tails":"5"},"type":"response","condition":"seqFeedback","trueTheta":0.5,"classrooms":["C","D"],"studentTrueClassroom":"D","exampleSet":"second","trial_type":"survey-html-form","trial_index":47,"time_elapsed":885595,"internal_node_id":"0.0-46.0-0.0","params":{"nStudents":24,"maxFlips":30,"completionMinutes":45,"basePay":8,"maxBonus":9,"perTrialBonus":0.5,"perTrialBonusThreshold":0.05,"exampleCost":0.01},"classroomParams":{"A":{"a":1,"b":4},"B":{"a":4,"b":1},"C":{"a":2,"b":8},"D":{"a":8,"b":2}},"conditions":["nonSeqFull","nonSeqPartial","seqNoFeedback","seqFeedback"],"classroomPairings":[["A","B"],["C","D"]],"coinWeights":[0.2,0.5,0.8],"subjectId":"AOS2PVHT2HYTL","assignmentId":"3YT88D1N09K989NCLVWJAA2Q5BA3KB","hitId":"34KYK9TV2RUAD363EVFPUWVPB97SBP","url":"https://gershmanlab.com/experiments/alicia/teaching/experiment/?hitId=34KYK9TV2RUAD363EVFPUWVPB97SBP&workerId=AOS2PVHT2HYTL&assignmentId=3YT88D1N09K989NCLVWJAA2Q5BA3KB&a=N8TY7&tp_a=N8TY7&b=3YT88D1N09K989NCLVWJAA2Q5BA3KB&tp_b=3YT88D1N09K989NCLVWJAA2Q5BA3KB&c=365717&tp_c=365717","firstResponseHeads":5,"firstResponseTails":5,"secondResponseHeads":3,"secondResponseTails":5,"totalHeads":8,"totalTails":10,"studentIndex":5,"studentTrueHypers":{"a":8,"b":2},"studentGuess":0.5714285714285714,"delta":0.0714285714285714,"bonus":0,"bonusSoFar":0.1,"totalExamples":18},{"rt":24244,"response":{"heads":"17","tails":"8"},"type":"response","condition":"seqFeedback","trueTheta":0.8,"classrooms":["C","D"],"studentTrueClassroom":"D","exampleSet":"first","trial_type":"survey-html-form","trial_index":53,"time_elapsed":929955,"internal_node_id":"0.0-52.0-0.0","params":{"nStudents":24,"maxFlips":30,"completionMinutes":45,"basePay":8,"maxBonus":9,"perTrialBonus":0.5,"perTrialBonusThreshold":0.05,"exampleCost":0.01},"classroomParams":{"A":{"a":1,"b":4},"B":{"a":4,"b":1},"C":{"a":2,"b":8},"D":{"a":8,"b":2}},"conditions":["nonSeqFull","nonSeqPartial","seqNoFeedback","seqFeedback"],"classroomPairings":[["A","B"],["C","D"]],"coinWeights":[0.2,0.5,0.8],"subjectId":"AOS2PVHT2HYTL","assignmentId":"3YT88D1N09K989NCLVWJAA2Q5BA3KB","hitId":"34KYK9TV2RUAD363EVFPUWVPB97SBP","url":"https://gershmanlab.com/experiments/alicia/teaching/experiment/?hitId=34KYK9TV2RUAD363EVFPUWVPB97SBP&workerId=AOS2PVHT2HYTL&assignmentId=3YT88D1N09K989NCLVWJAA2Q5BA3KB&a=N8TY7&tp_a=N8TY7&b=3YT88D1N09K989NCLVWJAA2Q5BA3KB&tp_b=3YT88D1N09K989NCLVWJAA2Q5BA3KB&c=365717&tp_c=365717","heads":17,"tails":8,"studentIndex":6,"studentTrueHypers":{"a":8,"b":2},"studentGuess":0.7142857142857143,"delta":0.08571428571428574,"totalExamples":25,"bonusSoFar":0.1},{"rt":13494,"response":{"heads":"10","tails":"4"},"type":"response","condition":"seqFeedback","trueTheta":0.8,"classrooms":["C","D"],"studentTrueClassroom":"D","exampleSet":"second","trial_type":"survey-html-form","trial_index":57,"time_elapsed":956613,"internal_node_id":"0.0-56.0-0.0","params":{"nStudents":24,"maxFlips":30,"completionMinutes":45,"basePay":8,"maxBonus":9,"perTrialBonus":0.5,"perTrialBonusThreshold":0.05,"exampleCost":0.01},"classroomParams":{"A":{"a":1,"b":4},"B":{"a":4,"b":1},"C":{"a":2,"b":8},"D":{"a":8,"b":2}},"conditions":["nonSeqFull","nonSeqPartial","seqNoFeedback","seqFeedback"],"classroomPairings":[["A","B"],["C","D"]],"coinWeights":[0.2,0.5,0.8],"subjectId":"AOS2PVHT2HYTL","assignmentId":"3YT88D1N09K989NCLVWJAA2Q5BA3KB","hitId":"34KYK9TV2RUAD363EVFPUWVPB97SBP","url":"https://gershmanlab.com/experiments/alicia/teaching/experiment/?hitId=34KYK9TV2RUAD363EVFPUWVPB97SBP&workerId=AOS2PVHT2HYTL&assignmentId=3YT88D1N09K989NCLVWJAA2Q5BA3KB&a=N8TY7&tp_a=N8TY7&b=3YT88D1N09K989NCLVWJAA2Q5BA3KB&tp_b=3YT88D1N09K989NCLVWJAA2Q5BA3KB&c=365717&tp_c=365717","firstResponseHeads":17,"firstResponseTails":8,"secondResponseHeads":10,"secondResponseTails":4,"totalHeads":27,"totalTails":12,"studentIndex":6,"studentTrueHypers":{"a":8,"b":2},"studentGuess":0.7142857142857143,"delta":0.08571428571428574,"bonus":0,"bonusSoFar":0.1,"totalExamples":39},{"rt":39016,"response":{"heads":"30","tails":"5"},"type":"response","condition":"seqFeedback","trueTheta":0.8,"classrooms":["A","B"],"studentTrueClassroom":"B","exampleSet":"first","trial_type":"survey-html-form","trial_index":63,"time_elapsed":1015515,"internal_node_id":"0.0-62.0-0.0","params":{"nStudents":24,"maxFlips":30,"completionMinutes":45,"basePay":8,"maxBonus":9,"perTrialBonus":0.5,"perTrialBonusThreshold":0.05,"exampleCost":0.01},"classroomParams":{"A":{"a":1,"b":4},"B":{"a":4,"b":1},"C":{"a":2,"b":8},"D":{"a":8,"b":2}},"conditions":["nonSeqFull","nonSeqPartial","seqNoFeedback","seqFeedback"],"classroomPairings":[["A","B"],["C","D"]],"coinWeights":[0.2,0.5,0.8],"subjectId":"AOS2PVHT2HYTL","assignmentId":"3YT88D1N09K989NCLVWJAA2Q5BA3KB","hitId":"34KYK9TV2RUAD363EVFPUWVPB97SBP","url":"https://gershmanlab.com/experiments/alicia/teaching/experiment/?hitId=34KYK9TV2RUAD363EVFPUWVPB97SBP&workerId=AOS2PVHT2HYTL&assignmentId=3YT88D1N09K989NCLVWJAA2Q5BA3KB&a=N8TY7&tp_a=N8TY7&b=3YT88D1N09K989NCLVWJAA2Q5BA3KB&tp_b=3YT88D1N09K989NCLVWJAA2Q5BA3KB&c=365717&tp_c=365717","heads":30,"tails":5,"studentIndex":7,"studentTrueHypers":{"a":4,"b":1},"studentGuess":0.85,"delta":0.04999999999999993,"totalExamples":35,"bonusSoFar":0.1},{"rt":25184,"response":{"heads":"20","tails":"10"},"type":"response","condition":"seqFeedback","trueTheta":0.8,"classrooms":["A","B"],"studentTrueClassroom":"B","exampleSet":"first","trial_type":"survey-html-form","trial_index":64,"time_elapsed":1040706,"internal_node_id":"0.0-62.1-0.1","params":{"nStudents":24,"maxFlips":30,"completionMinutes":45,"basePay":8,"maxBonus":9,"perTrialBonus":0.5,"perTrialBonusThreshold":0.05,"exampleCost":0.01},"classroomParams":{"A":{"a":1,"b":4},"B":{"a":4,"b":1},"C":{"a":2,"b":8},"D":{"a":8,"b":2}},"conditions":["nonSeqFull","nonSeqPartial","seqNoFeedback","seqFeedback"],"classroomPairings":[["A","B"],["C","D"]],"coinWeights":[0.2,0.5,0.8],"subjectId":"AOS2PVHT2HYTL","assignmentId":"3YT88D1N09K989NCLVWJAA2Q5BA3KB","hitId":"34KYK9TV2RUAD363EVFPUWVPB97SBP","url":"https://gershmanlab.com/experiments/alicia/teaching/experiment/?hitId=34KYK9TV2RUAD363EVFPUWVPB97SBP&workerId=AOS2PVHT2HYTL&assignmentId=3YT88D1N09K989NCLVWJAA2Q5BA3KB&a=N8TY7&tp_a=N8TY7&b=3YT88D1N09K989NCLVWJAA2Q5BA3KB&tp_b=3YT88D1N09K989NCLVWJAA2Q5BA3KB&c=365717&tp_c=365717","heads":20,"tails":10,"studentIndex":7,"studentTrueHypers":{"a":4,"b":1},"studentGuess":0.6857142857142857,"delta":0.11428571428571432,"totalExamples":30,"bonusSoFar":0.1},{"rt":16078,"response":{"heads":"20","tails":"10"},"type":"response","condition":"seqFeedback","trueTheta":0.8,"classrooms":["A","B"],"studentTrueClassroom":"B","exampleSet":"second","trial_type":"survey-html-form","trial_index":68,"time_elapsed":1068732,"internal_node_id":"0.0-66.0-0.0","params":{"nStudents":24,"maxFlips":30,"completionMinutes":45,"basePay":8,"maxBonus":9,"perTrialBonus":0.5,"perTrialBonusThreshold":0.05,"exampleCost":0.01},"classroomParams":{"A":{"a":1,"b":4},"B":{"a":4,"b":1},"C":{"a":2,"b":8},"D":{"a":8,"b":2}},"conditions":["nonSeqFull","nonSeqPartial","seqNoFeedback","seqFeedback"],"classroomPairings":[["A","B"],["C","D"]],"coinWeights":[0.2,0.5,0.8],"subjectId":"AOS2PVHT2HYTL","assignmentId":"3YT88D1N09K989NCLVWJAA2Q5BA3KB","hitId":"34KYK9TV2RUAD363EVFPUWVPB97SBP","url":"https://gershmanlab.com/experiments/alicia/teaching/experiment/?hitId=34KYK9TV2RUAD363EVFPUWVPB97SBP&workerId=AOS2PVHT2HYTL&assignmentId=3YT88D1N09K989NCLVWJAA2Q5BA3KB&a=N8TY7&tp_a=N8TY7&b=3YT88D1N09K989NCLVWJAA2Q5BA3KB&tp_b=3YT88D1N09K989NCLVWJAA2Q5BA3KB&c=365717&tp_c=365717","firstResponseHeads":30,"firstResponseTails":5,"secondResponseHeads":20,"secondResponseTails":10,"totalHeads":50,"totalTails":15,"studentIndex":7,"studentTrueHypers":{"a":4,"b":1},"studentGuess":0.7714285714285715,"delta":0.02857142857142858,"bonus":0,"bonusSoFar":0.1,"totalExamples":65},{"rt":16952,"response":{"heads":"5","tails":"15"},"type":"response","condition":"seqFeedback","trueTheta":0.2,"classrooms":["C","D"],"studentTrueClassroom":"D","exampleSet":"first","trial_type":"survey-html-form","trial_index":74,"time_elapsed":1110104,"internal_node_id":"0.0-72.0-0.0","params":{"nStudents":24,"maxFlips":30,"completionMinutes":45,"basePay":8,"maxBonus":9,"perTrialBonus":0.5,"perTrialBonusThreshold":0.05,"exampleCost":0.01},"classroomParams":{"A":{"a":1,"b":4},"B":{"a":4,"b":1},"C":{"a":2,"b":8},"D":{"a":8,"b":2}},"conditions":["nonSeqFull","nonSeqPartial","seqNoFeedback","seqFeedback"],"classroomPairings":[["A","B"],["C","D"]],"coinWeights":[0.2,0.5,0.8],"subjectId":"AOS2PVHT2HYTL","assignmentId":"3YT88D1N09K989NCLVWJAA2Q5BA3KB","hitId":"34KYK9TV2RUAD363EVFPUWVPB97SBP","url":"https://gershmanlab.com/experiments/alicia/teaching/experiment/?hitId=34KYK9TV2RUAD363EVFPUWVPB97SBP&workerId=AOS2PVHT2HYTL&assignmentId=3YT88D1N09K989NCLVWJAA2Q5BA3KB&a=N8TY7&tp_a=N8TY7&b=3YT88D1N09K989NCLVWJAA2Q5BA3KB&tp_b=3YT88D1N09K989NCLVWJAA2Q5BA3KB&c=365717&tp_c=365717","heads":5,"tails":15,"studentIndex":8,"studentTrueHypers":{"a":8,"b":2},"studentGuess":0.43333333333333335,"delta":0.23333333333333334,"totalExamples":20,"bonusSoFar":0.1},{"rt":9099,"response":{"heads":"0","tails":"10"},"type":"response","condition":"seqFeedback","trueTheta":0.2,"classrooms":["C","D"],"studentTrueClassroom":"D","exampleSet":"second","trial_type":"survey-html-form","trial_index":78,"time_elapsed":1129188,"internal_node_id":"0.0-76.0-0.0","params":{"nStudents":24,"maxFlips":30,"completionMinutes":45,"basePay":8,"maxBonus":9,"perTrialBonus":0.5,"perTrialBonusThreshold":0.05,"exampleCost":0.01},"classroomParams":{"A":{"a":1,"b":4},"B":{"a":4,"b":1},"C":{"a":2,"b":8},"D":{"a":8,"b":2}},"conditions":["nonSeqFull","nonSeqPartial","seqNoFeedback","seqFeedback"],"classroomPairings":[["A","B"],["C","D"]],"coinWeights":[0.2,0.5,0.8],"subjectId":"AOS2PVHT2HYTL","assignmentId":"3YT88D1N09K989NCLVWJAA2Q5BA3KB","hitId":"34KYK9TV2RUAD363EVFPUWVPB97SBP","url":"https://gershmanlab.com/experiments/alicia/teaching/experiment/?hitId=34KYK9TV2RUAD363EVFPUWVPB97SBP&workerId=AOS2PVHT2HYTL&assignmentId=3YT88D1N09K989NCLVWJAA2Q5BA3KB&a=N8TY7&tp_a=N8TY7&b=3YT88D1N09K989NCLVWJAA2Q5BA3KB&tp_b=3YT88D1N09K989NCLVWJAA2Q5BA3KB&c=365717&tp_c=365717","firstResponseHeads":5,"firstResponseTails":15,"secondResponseHeads":0,"secondResponseTails":10,"totalHeads":5,"totalTails":25,"studentIndex":8,"studentTrueHypers":{"a":8,"b":2},"studentGuess":0.325,"delta":0.125,"bonus":0,"bonusSoFar":0.1,"totalExamples":30},{"rt":20185,"response":{"heads":"17","tails":"2"},"type":"response","condition":"nonSeqFull","trueTheta":0.8,"classrooms":["A","B"],"studentTrueClassroom":"A","exampleSet":"first","trial_type":"survey-html-form","trial_index":84,"time_elapsed":1167412,"internal_node_id":"0.0-82.0-0.0","params":{"nStudents":24,"maxFlips":30,"completionMinutes":45,"basePay":8,"maxBonus":9,"perTrialBonus":0.5,"perTrialBonusThreshold":0.05,"exampleCost":0.01},"classroomParams":{"A":{"a":1,"b":4},"B":{"a":4,"b":1},"C":{"a":2,"b":8},"D":{"a":8,"b":2}},"conditions":["nonSeqFull","nonSeqPartial","seqNoFeedback","seqFeedback"],"classroomPairings":[["A","B"],["C","D"]],"coinWeights":[0.2,0.5,0.8],"subjectId":"AOS2PVHT2HYTL","assignmentId":"3YT88D1N09K989NCLVWJAA2Q5BA3KB","hitId":"34KYK9TV2RUAD363EVFPUWVPB97SBP","url":"https://gershmanlab.com/experiments/alicia/teaching/experiment/?hitId=34KYK9TV2RUAD363EVFPUWVPB97SBP&workerId=AOS2PVHT2HYTL&assignmentId=3YT88D1N09K989NCLVWJAA2Q5BA3KB&a=N8TY7&tp_a=N8TY7&b=3YT88D1N09K989NCLVWJAA2Q5BA3KB&tp_b=3YT88D1N09K989NCLVWJAA2Q5BA3KB&c=365717&tp_c=365717","heads":17,"tails":2,"studentIndex":9,"studentTrueHypers":{"a":1,"b":4},"studentGuess":0.75,"delta":0.050000000000000044,"totalExamples":19,"bonus":0,"bonusSoFar":0.1},{"rt":10998,"response":{"heads":"5","tails":"5"},"type":"response","condition":"seqNoFeedback","trueTheta":0.5,"classrooms":["C","D"],"studentTrueClassroom":"C","exampleSet":"first","trial_type":"survey-html-form","trial_index":90,"time_elapsed":1192766,"internal_node_id":"0.0-88.0-0.0","params":{"nStudents":24,"maxFlips":30,"completionMinutes":45,"basePay":8,"maxBonus":9,"perTrialBonus":0.5,"perTrialBonusThreshold":0.05,"exampleCost":0.01},"classroomParams":{"A":{"a":1,"b":4},"B":{"a":4,"b":1},"C":{"a":2,"b":8},"D":{"a":8,"b":2}},"conditions":["nonSeqFull","nonSeqPartial","seqNoFeedback","seqFeedback"],"classroomPairings":[["A","B"],["C","D"]],"coinWeights":[0.2,0.5,0.8],"subjectId":"AOS2PVHT2HYTL","assignmentId":"3YT88D1N09K989NCLVWJAA2Q5BA3KB","hitId":"34KYK9TV2RUAD363EVFPUWVPB97SBP","url":"https://gershmanlab.com/experiments/alicia/teaching/experiment/?hitId=34KYK9TV2RUAD363EVFPUWVPB97SBP&workerId=AOS2PVHT2HYTL&assignmentId=3YT88D1N09K989NCLVWJAA2Q5BA3KB&a=N8TY7&tp_a=N8TY7&b=3YT88D1N09K989NCLVWJAA2Q5BA3KB&tp_b=3YT88D1N09K989NCLVWJAA2Q5BA3KB&c=365717&tp_c=365717","heads":5,"tails":5,"studentIndex":10,"studentTrueHypers":{"a":2,"b":8},"studentGuess":0.35,"delta":0.15000000000000002,"totalExamples":10,"bonusSoFar":0.1},{"rt":14878,"response":{"heads":"8","tails":"12"},"type":"response","condition":"seqNoFeedback","trueTheta":0.5,"classrooms":["C","D"],"studentTrueClassroom":"C","exampleSet":"second","trial_type":"survey-html-form","trial_index":93,"time_elapsed":1213918,"internal_node_id":"0.0-91.0-0.0","params":{"nStudents":24,"maxFlips":30,"completionMinutes":45,"basePay":8,"maxBonus":9,"perTrialBonus":0.5,"perTrialBonusThreshold":0.05,"exampleCost":0.01},"classroomParams":{"A":{"a":1,"b":4},"B":{"a":4,"b":1},"C":{"a":2,"b":8},"D":{"a":8,"b":2}},"conditions":["nonSeqFull","nonSeqPartial","seqNoFeedback","seqFeedback"],"classroomPairings":[["A","B"],["C","D"]],"coinWeights":[0.2,0.5,0.8],"subjectId":"AOS2PVHT2HYTL","assignmentId":"3YT88D1N09K989NCLVWJAA2Q5BA3KB","hitId":"34KYK9TV2RUAD363EVFPUWVPB97SBP","url":"https://gershmanlab.com/experiments/alicia/teaching/experiment/?hitId=34KYK9TV2RUAD363EVFPUWVPB97SBP&workerId=AOS2PVHT2HYTL&assignmentId=3YT88D1N09K989NCLVWJAA2Q5BA3KB&a=N8TY7&tp_a=N8TY7&b=3YT88D1N09K989NCLVWJAA2Q5BA3KB&tp_b=3YT88D1N09K989NCLVWJAA2Q5BA3KB&c=365717&tp_c=365717","firstResponseHeads":5,"firstResponseTails":5,"secondResponseHeads":8,"secondResponseTails":12,"totalHeads":13,"totalTails":17,"studentIndex":10,"studentTrueHypers":{"a":2,"b":8},"studentGuess":0.375,"delta":0.125,"bonus":0,"bonusSoFar":0.1,"totalExamples":30},{"rt":23393,"response":{"heads":"17","tails":"12"},"type":"response","condition":"nonSeqPartial","trueTheta":0.5,"classrooms":["C","D"],"studentTrueClassroom":"C","exampleSet":"first","trial_type":"survey-html-form","trial_index":99,"time_elapsed":1255622,"internal_node_id":"0.0-97.0-0.0","params":{"nStudents":24,"maxFlips":30,"completionMinutes":45,"basePay":8,"maxBonus":9,"perTrialBonus":0.5,"perTrialBonusThreshold":0.05,"exampleCost":0.01},"classroomParams":{"A":{"a":1,"b":4},"B":{"a":4,"b":1},"C":{"a":2,"b":8},"D":{"a":8,"b":2}},"conditions":["nonSeqFull","nonSeqPartial","seqNoFeedback","seqFeedback"],"classroomPairings":[["A","B"],["C","D"]],"coinWeights":[0.2,0.5,0.8],"subjectId":"AOS2PVHT2HYTL","assignmentId":"3YT88D1N09K989NCLVWJAA2Q5BA3KB","hitId":"34KYK9TV2RUAD363EVFPUWVPB97SBP","url":"https://gershmanlab.com/experiments/alicia/teaching/experiment/?hitId=34KYK9TV2RUAD363EVFPUWVPB97SBP&workerId=AOS2PVHT2HYTL&assignmentId=3YT88D1N09K989NCLVWJAA2Q5BA3KB&a=N8TY7&tp_a=N8TY7&b=3YT88D1N09K989NCLVWJAA2Q5BA3KB&tp_b=3YT88D1N09K989NCLVWJAA2Q5BA3KB&c=365717&tp_c=365717","heads":17,"tails":12,"studentIndex":11,"studentTrueHypers":{"a":2,"b":8},"studentGuess":0.48717948717948717,"delta":0.01282051282051283,"totalExamples":29,"bonus":0.21,"bonusSoFar":0.31},{"rt":12301,"response":{"heads":"24","tails":"12"},"type":"response","condition":"nonSeqFull","trueTheta":0.5,"classrooms":["A","B"],"studentTrueClassroom":"A","exampleSet":"first","trial_type":"survey-html-form","trial_index":105,"time_elapsed":1308978,"internal_node_id":"0.0-103.0-0.0","params":{"nStudents":24,"maxFlips":30,"completionMinutes":45,"basePay":8,"maxBonus":9,"perTrialBonus":0.5,"perTrialBonusThreshold":0.05,"exampleCost":0.01},"classroomParams":{"A":{"a":1,"b":4},"B":{"a":4,"b":1},"C":{"a":2,"b":8},"D":{"a":8,"b":2}},"conditions":["nonSeqFull","nonSeqPartial","seqNoFeedback","seqFeedback"],"classroomPairings":[["A","B"],["C","D"]],"coinWeights":[0.2,0.5,0.8],"subjectId":"AOS2PVHT2HYTL","assignmentId":"3YT88D1N09K989NCLVWJAA2Q5BA3KB","hitId":"34KYK9TV2RUAD363EVFPUWVPB97SBP","url":"https://gershmanlab.com/experiments/alicia/teaching/experiment/?hitId=34KYK9TV2RUAD363EVFPUWVPB97SBP&workerId=AOS2PVHT2HYTL&assignmentId=3YT88D1N09K989NCLVWJAA2Q5BA3KB&a=N8TY7&tp_a=N8TY7&b=3YT88D1N09K989NCLVWJAA2Q5BA3KB&tp_b=3YT88D1N09K989NCLVWJAA2Q5BA3KB&c=365717&tp_c=365717","heads":24,"tails":12,"studentIndex":12,"studentTrueHypers":{"a":1,"b":4},"studentGuess":0.6097560975609756,"delta":0.1097560975609756,"totalExamples":36,"bonus":0,"bonusSoFar":0.31},{"rt":11616,"response":{"heads":"13","tails":"9"},"type":"response","condition":"nonSeqFull","trueTheta":0.5,"classrooms":["A","B"],"studentTrueClassroom":"A","exampleSet":"first","trial_type":"survey-html-form","trial_index":106,"time_elapsed":1320600,"internal_node_id":"0.0-103.1-0.1","params":{"nStudents":24,"maxFlips":30,"completionMinutes":45,"basePay":8,"maxBonus":9,"perTrialBonus":0.5,"perTrialBonusThreshold":0.05,"exampleCost":0.01},"classroomParams":{"A":{"a":1,"b":4},"B":{"a":4,"b":1},"C":{"a":2,"b":8},"D":{"a":8,"b":2}},"conditions":["nonSeqFull","nonSeqPartial","seqNoFeedback","seqFeedback"],"classroomPairings":[["A","B"],["C","D"]],"coinWeights":[0.2,0.5,0.8],"subjectId":"AOS2PVHT2HYTL","assignmentId":"3YT88D1N09K989NCLVWJAA2Q5BA3KB","hitId":"34KYK9TV2RUAD363EVFPUWVPB97SBP","url":"https://gershmanlab.com/experiments/alicia/teaching/experiment/?hitId=34KYK9TV2RUAD363EVFPUWVPB97SBP&workerId=AOS2PVHT2HYTL&assignmentId=3YT88D1N09K989NCLVWJAA2Q5BA3KB&a=N8TY7&tp_a=N8TY7&b=3YT88D1N09K989NCLVWJAA2Q5BA3KB&tp_b=3YT88D1N09K989NCLVWJAA2Q5BA3KB&c=365717&tp_c=365717","heads":13,"tails":9,"studentIndex":12,"studentTrueHypers":{"a":1,"b":4},"studentGuess":0.5185185185185185,"delta":0.01851851851851849,"totalExamples":22,"bonus":0.28,"bonusSoFar":0.59},{"rt":14282,"response":{"heads":"18","tails":"9"},"type":"response","condition":"seqFeedback","trueTheta":0.5,"classrooms":["A","B"],"studentTrueClassroom":"A","exampleSet":"first","trial_type":"survey-html-form","trial_index":112,"time_elapsed":1355865,"internal_node_id":"0.0-109.0-0.0","params":{"nStudents":24,"maxFlips":30,"completionMinutes":45,"basePay":8,"maxBonus":9,"perTrialBonus":0.5,"perTrialBonusThreshold":0.05,"exampleCost":0.01},"classroomParams":{"A":{"a":1,"b":4},"B":{"a":4,"b":1},"C":{"a":2,"b":8},"D":{"a":8,"b":2}},"conditions":["nonSeqFull","nonSeqPartial","seqNoFeedback","seqFeedback"],"classroomPairings":[["A","B"],["C","D"]],"coinWeights":[0.2,0.5,0.8],"subjectId":"AOS2PVHT2HYTL","assignmentId":"3YT88D1N09K989NCLVWJAA2Q5BA3KB","hitId":"34KYK9TV2RUAD363EVFPUWVPB97SBP","url":"https://gershmanlab.com/experiments/alicia/teaching/experiment/?hitId=34KYK9TV2RUAD363EVFPUWVPB97SBP&workerId=AOS2PVHT2HYTL&assignmentId=3YT88D1N09K989NCLVWJAA2Q5BA3KB&a=N8TY7&tp_a=N8TY7&b=3YT88D1N09K989NCLVWJAA2Q5BA3KB&tp_b=3YT88D1N09K989NCLVWJAA2Q5BA3KB&c=365717&tp_c=365717","heads":18,"tails":9,"studentIndex":13,"studentTrueHypers":{"a":1,"b":4},"studentGuess":0.59375,"delta":0.09375,"totalExamples":27,"bonusSoFar":0.59},{"rt":9769,"response":{"heads":"12","tails":"6"},"type":"response","condition":"seqFeedback","trueTheta":0.5,"classrooms":["A","B"],"studentTrueClassroom":"A","exampleSet":"second","trial_type":"survey-html-form","trial_index":116,"time_elapsed":1375640,"internal_node_id":"0.0-113.0-0.0","params":{"nStudents":24,"maxFlips":30,"completionMinutes":45,"basePay":8,"maxBonus":9,"perTrialBonus":0.5,"perTrialBonusThreshold":0.05,"exampleCost":0.01},"classroomParams":{"A":{"a":1,"b":4},"B":{"a":4,"b":1},"C":{"a":2,"b":8},"D":{"a":8,"b":2}},"conditions":["nonSeqFull","nonSeqPartial","seqNoFeedback","seqFeedback"],"classroomPairings":[["A","B"],["C","D"]],"coinWeights":[0.2,0.5,0.8],"subjectId":"AOS2PVHT2HYTL","assignmentId":"3YT88D1N09K989NCLVWJAA2Q5BA3KB","hitId":"34KYK9TV2RUAD363EVFPUWVPB97SBP","url":"https://gershmanlab.com/experiments/alicia/teaching/experiment/?hitId=34KYK9TV2RUAD363EVFPUWVPB97SBP&workerId=AOS2PVHT2HYTL&assignmentId=3YT88D1N09K989NCLVWJAA2Q5BA3KB&a=N8TY7&tp_a=N8TY7&b=3YT88D1N09K989NCLVWJAA2Q5BA3KB&tp_b=3YT88D1N09K989NCLVWJAA2Q5BA3KB&c=365717&tp_c=365717","firstResponseHeads":18,"firstResponseTails":9,"secondResponseHeads":12,"secondResponseTails":6,"totalHeads":30,"totalTails":15,"studentIndex":13,"studentTrueHypers":{"a":1,"b":4},"studentGuess":0.62,"delta":0.12,"bonus":0,"bonusSoFar":0.59,"totalExamples":45},{"rt":13043,"response":{"heads":"1","tails":"5"},"type":"response","condition":"nonSeqPartial","trueTheta":0.2,"classrooms":["A","B"],"studentTrueClassroom":"A","exampleSet":"first","trial_type":"survey-html-form","trial_index":122,"time_elapsed":1407644,"internal_node_id":"0.0-119.0-0.0","params":{"nStudents":24,"maxFlips":30,"completionMinutes":45,"basePay":8,"maxBonus":9,"perTrialBonus":0.5,"perTrialBonusThreshold":0.05,"exampleCost":0.01},"classroomParams":{"A":{"a":1,"b":4},"B":{"a":4,"b":1},"C":{"a":2,"b":8},"D":{"a":8,"b":2}},"conditions":["nonSeqFull","nonSeqPartial","seqNoFeedback","seqFeedback"],"classroomPairings":[["A","B"],["C","D"]],"coinWeights":[0.2,0.5,0.8],"subjectId":"AOS2PVHT2HYTL","assignmentId":"3YT88D1N09K989NCLVWJAA2Q5BA3KB","hitId":"34KYK9TV2RUAD363EVFPUWVPB97SBP","url":"https://gershmanlab.com/experiments/alicia/teaching/experiment/?hitId=34KYK9TV2RUAD363EVFPUWVPB97SBP&workerId=AOS2PVHT2HYTL&assignmentId=3YT88D1N09K989NCLVWJAA2Q5BA3KB&a=N8TY7&tp_a=N8TY7&b=3YT88D1N09K989NCLVWJAA2Q5BA3KB&tp_b=3YT88D1N09K989NCLVWJAA2Q5BA3KB&c=365717&tp_c=365717","heads":1,"tails":5,"studentIndex":14,"studentTrueHypers":{"a":1,"b":4},"studentGuess":0.18181818181818182,"delta":0.018181818181818188,"totalExamples":6,"bonus":0.44,"bonusSoFar":1.03},{"rt":17268,"response":{"heads":"8","tails":"4"},"type":"response","condition":"nonSeqFull","trueTheta":0.2,"classrooms":["C","D"],"studentTrueClassroom":"D","exampleSet":"first","trial_type":"survey-html-form","trial_index":128,"time_elapsed":1445659,"internal_node_id":"0.0-125.0-0.0","params":{"nStudents":24,"maxFlips":30,"completionMinutes":45,"basePay":8,"maxBonus":9,"perTrialBonus":0.5,"perTrialBonusThreshold":0.05,"exampleCost":0.01},"classroomParams":{"A":{"a":1,"b":4},"B":{"a":4,"b":1},"C":{"a":2,"b":8},"D":{"a":8,"b":2}},"conditions":["nonSeqFull","nonSeqPartial","seqNoFeedback","seqFeedback"],"classroomPairings":[["A","B"],["C","D"]],"coinWeights":[0.2,0.5,0.8],"subjectId":"AOS2PVHT2HYTL","assignmentId":"3YT88D1N09K989NCLVWJAA2Q5BA3KB","hitId":"34KYK9TV2RUAD363EVFPUWVPB97SBP","url":"https://gershmanlab.com/experiments/alicia/teaching/experiment/?hitId=34KYK9TV2RUAD363EVFPUWVPB97SBP&workerId=AOS2PVHT2HYTL&assignmentId=3YT88D1N09K989NCLVWJAA2Q5BA3KB&a=N8TY7&tp_a=N8TY7&b=3YT88D1N09K989NCLVWJAA2Q5BA3KB&tp_b=3YT88D1N09K989NCLVWJAA2Q5BA3KB&c=365717&tp_c=365717","heads":8,"tails":4,"studentIndex":15,"studentTrueHypers":{"a":8,"b":2},"studentGuess":0.7272727272727273,"delta":0.5272727272727273,"totalExamples":12,"bonus":0,"bonusSoFar":1.03},{"rt":16236,"response":{"heads":"5","tails":"10"},"type":"response","condition":"seqNoFeedback","trueTheta":0.2,"classrooms":["C","D"],"studentTrueClassroom":"D","exampleSet":"first","trial_type":"survey-html-form","trial_index":134,"time_elapsed":1477007,"internal_node_id":"0.0-131.0-0.0","params":{"nStudents":24,"maxFlips":30,"completionMinutes":45,"basePay":8,"maxBonus":9,"perTrialBonus":0.5,"perTrialBonusThreshold":0.05,"exampleCost":0.01},"classroomParams":{"A":{"a":1,"b":4},"B":{"a":4,"b":1},"C":{"a":2,"b":8},"D":{"a":8,"b":2}},"conditions":["nonSeqFull","nonSeqPartial","seqNoFeedback","seqFeedback"],"classroomPairings":[["A","B"],["C","D"]],"coinWeights":[0.2,0.5,0.8],"subjectId":"AOS2PVHT2HYTL","assignmentId":"3YT88D1N09K989NCLVWJAA2Q5BA3KB","hitId":"34KYK9TV2RUAD363EVFPUWVPB97SBP","url":"https://gershmanlab.com/experiments/alicia/teaching/experiment/?hitId=34KYK9TV2RUAD363EVFPUWVPB97SBP&workerId=AOS2PVHT2HYTL&assignmentId=3YT88D1N09K989NCLVWJAA2Q5BA3KB&a=N8TY7&tp_a=N8TY7&b=3YT88D1N09K989NCLVWJAA2Q5BA3KB&tp_b=3YT88D1N09K989NCLVWJAA2Q5BA3KB&c=365717&tp_c=365717","heads":5,"tails":10,"studentIndex":16,"studentTrueHypers":{"a":8,"b":2},"studentGuess":0.52,"delta":0.32,"totalExamples":15,"bonusSoFar":1.03},{"rt":10674,"response":{"heads":"0","tails":"5"},"type":"response","condition":"seqNoFeedback","trueTheta":0.2,"classrooms":["C","D"],"studentTrueClassroom":"D","exampleSet":"second","trial_type":"survey-html-form","trial_index":137,"time_elapsed":1493695,"internal_node_id":"0.0-134.0-0.0","params":{"nStudents":24,"maxFlips":30,"completionMinutes":45,"basePay":8,"maxBonus":9,"perTrialBonus":0.5,"perTrialBonusThreshold":0.05,"exampleCost":0.01},"classroomParams":{"A":{"a":1,"b":4},"B":{"a":4,"b":1},"C":{"a":2,"b":8},"D":{"a":8,"b":2}},"conditions":["nonSeqFull","nonSeqPartial","seqNoFeedback","seqFeedback"],"classroomPairings":[["A","B"],["C","D"]],"coinWeights":[0.2,0.5,0.8],"subjectId":"AOS2PVHT2HYTL","assignmentId":"3YT88D1N09K989NCLVWJAA2Q5BA3KB","hitId":"34KYK9TV2RUAD363EVFPUWVPB97SBP","url":"https://gershmanlab.com/experiments/alicia/teaching/experiment/?hitId=34KYK9TV2RUAD363EVFPUWVPB97SBP&workerId=AOS2PVHT2HYTL&assignmentId=3YT88D1N09K989NCLVWJAA2Q5BA3KB&a=N8TY7&tp_a=N8TY7&b=3YT88D1N09K989NCLVWJAA2Q5BA3KB&tp_b=3YT88D1N09K989NCLVWJAA2Q5BA3KB&c=365717&tp_c=365717","firstResponseHeads":5,"firstResponseTails":10,"secondResponseHeads":0,"secondResponseTails":5,"totalHeads":5,"totalTails":15,"studentIndex":16,"studentTrueHypers":{"a":8,"b":2},"studentGuess":0.43333333333333335,"delta":0.23333333333333334,"bonus":0,"bonusSoFar":1.03,"totalExamples":20},{"rt":7932,"response":{"heads":"0","tails":"30"},"type":"response","condition":"seqFeedback","trueTheta":0.2,"classrooms":["A","B"],"studentTrueClassroom":"B","exampleSet":"first","trial_type":"survey-html-form","trial_index":143,"time_elapsed":1520176,"internal_node_id":"0.0-140.0-0.0","params":{"nStudents":24,"maxFlips":30,"completionMinutes":45,"basePay":8,"maxBonus":9,"perTrialBonus":0.5,"perTrialBonusThreshold":0.05,"exampleCost":0.01},"classroomParams":{"A":{"a":1,"b":4},"B":{"a":4,"b":1},"C":{"a":2,"b":8},"D":{"a":8,"b":2}},"conditions":["nonSeqFull","nonSeqPartial","seqNoFeedback","seqFeedback"],"classroomPairings":[["A","B"],["C","D"]],"coinWeights":[0.2,0.5,0.8],"subjectId":"AOS2PVHT2HYTL","assignmentId":"3YT88D1N09K989NCLVWJAA2Q5BA3KB","hitId":"34KYK9TV2RUAD363EVFPUWVPB97SBP","url":"https://gershmanlab.com/experiments/alicia/teaching/experiment/?hitId=34KYK9TV2RUAD363EVFPUWVPB97SBP&workerId=AOS2PVHT2HYTL&assignmentId=3YT88D1N09K989NCLVWJAA2Q5BA3KB&a=N8TY7&tp_a=N8TY7&b=3YT88D1N09K989NCLVWJAA2Q5BA3KB&tp_b=3YT88D1N09K989NCLVWJAA2Q5BA3KB&c=365717&tp_c=365717","heads":0,"tails":30,"studentIndex":17,"studentTrueHypers":{"a":4,"b":1},"studentGuess":0.11428571428571428,"delta":0.08571428571428573,"totalExamples":30,"bonusSoFar":1.03},{"rt":6110,"response":{"heads":"0","tails":"30"},"type":"response","condition":"seqFeedback","trueTheta":0.2,"classrooms":["A","B"],"studentTrueClassroom":"B","exampleSet":"second","trial_type":"survey-html-form","trial_index":147,"time_elapsed":1538419,"internal_node_id":"0.0-144.0-0.0","params":{"nStudents":24,"maxFlips":30,"completionMinutes":45,"basePay":8,"maxBonus":9,"perTrialBonus":0.5,"perTrialBonusThreshold":0.05,"exampleCost":0.01},"classroomParams":{"A":{"a":1,"b":4},"B":{"a":4,"b":1},"C":{"a":2,"b":8},"D":{"a":8,"b":2}},"conditions":["nonSeqFull","nonSeqPartial","seqNoFeedback","seqFeedback"],"classroomPairings":[["A","B"],["C","D"]],"coinWeights":[0.2,0.5,0.8],"subjectId":"AOS2PVHT2HYTL","assignmentId":"3YT88D1N09K989NCLVWJAA2Q5BA3KB","hitId":"34KYK9TV2RUAD363EVFPUWVPB97SBP","url":"https://gershmanlab.com/experiments/alicia/teaching/experiment/?hitId=34KYK9TV2RUAD363EVFPUWVPB97SBP&workerId=AOS2PVHT2HYTL&assignmentId=3YT88D1N09K989NCLVWJAA2Q5BA3KB&a=N8TY7&tp_a=N8TY7&b=3YT88D1N09K989NCLVWJAA2Q5BA3KB&tp_b=3YT88D1N09K989NCLVWJAA2Q5BA3KB&c=365717&tp_c=365717","firstResponseHeads":0,"firstResponseTails":30,"secondResponseHeads":0,"secondResponseTails":30,"totalHeads":0,"totalTails":60,"studentIndex":17,"studentTrueHypers":{"a":4,"b":1},"studentGuess":0.06153846153846154,"delta":0.13846153846153847,"bonus":0,"bonusSoFar":1.03,"totalExamples":60},{"rt":15916,"response":{"heads":"2","tails":"8"},"type":"response","condition":"nonSeqPartial","trueTheta":0.2,"classrooms":["C","D"],"studentTrueClassroom":"D","exampleSet":"first","trial_type":"survey-html-form","trial_index":153,"time_elapsed":1574729,"internal_node_id":"0.0-150.0-0.0","params":{"nStudents":24,"maxFlips":30,"completionMinutes":45,"basePay":8,"maxBonus":9,"perTrialBonus":0.5,"perTrialBonusThreshold":0.05,"exampleCost":0.01},"classroomParams":{"A":{"a":1,"b":4},"B":{"a":4,"b":1},"C":{"a":2,"b":8},"D":{"a":8,"b":2}},"conditions":["nonSeqFull","nonSeqPartial","seqNoFeedback","seqFeedback"],"classroomPairings":[["A","B"],["C","D"]],"coinWeights":[0.2,0.5,0.8],"subjectId":"AOS2PVHT2HYTL","assignmentId":"3YT88D1N09K989NCLVWJAA2Q5BA3KB","hitId":"34KYK9TV2RUAD363EVFPUWVPB97SBP","url":"https://gershmanlab.com/experiments/alicia/teaching/experiment/?hitId=34KYK9TV2RUAD363EVFPUWVPB97SBP&workerId=AOS2PVHT2HYTL&assignmentId=3YT88D1N09K989NCLVWJAA2Q5BA3KB&a=N8TY7&tp_a=N8TY7&b=3YT88D1N09K989NCLVWJAA2Q5BA3KB&tp_b=3YT88D1N09K989NCLVWJAA2Q5BA3KB&c=365717&tp_c=365717","heads":2,"tails":8,"studentIndex":18,"studentTrueHypers":{"a":8,"b":2},"studentGuess":0.5,"delta":0.3,"totalExamples":10,"bonus":0,"bonusSoFar":1.03},{"rt":9313,"response":{"heads":"30","tails":"0"},"type":"response","condition":"nonSeqFull","trueTheta":0.8,"classrooms":["C","D"],"studentTrueClassroom":"D","exampleSet":"first","trial_type":"survey-html-form","trial_index":159,"time_elapsed":1597585,"internal_node_id":"0.0-156.0-0.0","params":{"nStudents":24,"maxFlips":30,"completionMinutes":45,"basePay":8,"maxBonus":9,"perTrialBonus":0.5,"perTrialBonusThreshold":0.05,"exampleCost":0.01},"classroomParams":{"A":{"a":1,"b":4},"B":{"a":4,"b":1},"C":{"a":2,"b":8},"D":{"a":8,"b":2}},"conditions":["nonSeqFull","nonSeqPartial","seqNoFeedback","seqFeedback"],"classroomPairings":[["A","B"],["C","D"]],"coinWeights":[0.2,0.5,0.8],"subjectId":"AOS2PVHT2HYTL","assignmentId":"3YT88D1N09K989NCLVWJAA2Q5BA3KB","hitId":"34KYK9TV2RUAD363EVFPUWVPB97SBP","url":"https://gershmanlab.com/experiments/alicia/teaching/experiment/?hitId=34KYK9TV2RUAD363EVFPUWVPB97SBP&workerId=AOS2PVHT2HYTL&assignmentId=3YT88D1N09K989NCLVWJAA2Q5BA3KB&a=N8TY7&tp_a=N8TY7&b=3YT88D1N09K989NCLVWJAA2Q5BA3KB&tp_b=3YT88D1N09K989NCLVWJAA2Q5BA3KB&c=365717&tp_c=365717","heads":30,"tails":0,"studentIndex":19,"studentTrueHypers":{"a":8,"b":2},"studentGuess":0.95,"delta":0.1499999999999999,"totalExamples":30,"bonus":0,"bonusSoFar":1.03},{"rt":8053,"response":{"heads":"17","tails":"5"},"type":"response","condition":"seqNoFeedback","trueTheta":0.8,"classrooms":["A","B"],"studentTrueClassroom":"A","exampleSet":"first","trial_type":"survey-html-form","trial_index":165,"time_elapsed":1620594,"internal_node_id":"0.0-162.0-0.0","params":{"nStudents":24,"maxFlips":30,"completionMinutes":45,"basePay":8,"maxBonus":9,"perTrialBonus":0.5,"perTrialBonusThreshold":0.05,"exampleCost":0.01},"classroomParams":{"A":{"a":1,"b":4},"B":{"a":4,"b":1},"C":{"a":2,"b":8},"D":{"a":8,"b":2}},"conditions":["nonSeqFull","nonSeqPartial","seqNoFeedback","seqFeedback"],"classroomPairings":[["A","B"],["C","D"]],"coinWeights":[0.2,0.5,0.8],"subjectId":"AOS2PVHT2HYTL","assignmentId":"3YT88D1N09K989NCLVWJAA2Q5BA3KB","hitId":"34KYK9TV2RUAD363EVFPUWVPB97SBP","url":"https://gershmanlab.com/experiments/alicia/teaching/experiment/?hitId=34KYK9TV2RUAD363EVFPUWVPB97SBP&workerId=AOS2PVHT2HYTL&assignmentId=3YT88D1N09K989NCLVWJAA2Q5BA3KB&a=N8TY7&tp_a=N8TY7&b=3YT88D1N09K989NCLVWJAA2Q5BA3KB&tp_b=3YT88D1N09K989NCLVWJAA2Q5BA3KB&c=365717&tp_c=365717","heads":17,"tails":5,"studentIndex":20,"studentTrueHypers":{"a":1,"b":4},"studentGuess":0.6666666666666666,"delta":0.13333333333333341,"totalExamples":22,"bonusSoFar":1.03},{"rt":11712,"response":{"heads":"10","tails":"0"},"type":"response","condition":"seqNoFeedback","trueTheta":0.8,"classrooms":["A","B"],"studentTrueClassroom":"A","exampleSet":"second","trial_type":"survey-html-form","trial_index":168,"time_elapsed":1638345,"internal_node_id":"0.0-165.0-0.0","params":{"nStudents":24,"maxFlips":30,"completionMinutes":45,"basePay":8,"maxBonus":9,"perTrialBonus":0.5,"perTrialBonusThreshold":0.05,"exampleCost":0.01},"classroomParams":{"A":{"a":1,"b":4},"B":{"a":4,"b":1},"C":{"a":2,"b":8},"D":{"a":8,"b":2}},"conditions":["nonSeqFull","nonSeqPartial","seqNoFeedback","seqFeedback"],"classroomPairings":[["A","B"],["C","D"]],"coinWeights":[0.2,0.5,0.8],"subjectId":"AOS2PVHT2HYTL","assignmentId":"3YT88D1N09K989NCLVWJAA2Q5BA3KB","hitId":"34KYK9TV2RUAD363EVFPUWVPB97SBP","url":"https://gershmanlab.com/experiments/alicia/teaching/experiment/?hitId=34KYK9TV2RUAD363EVFPUWVPB97SBP&workerId=AOS2PVHT2HYTL&assignmentId=3YT88D1N09K989NCLVWJAA2Q5BA3KB&a=N8TY7&tp_a=N8TY7&b=3YT88D1N09K989NCLVWJAA2Q5BA3KB&tp_b=3YT88D1N09K989NCLVWJAA2Q5BA3KB&c=365717&tp_c=365717","firstResponseHeads":17,"firstResponseTails":5,"secondResponseHeads":10,"secondResponseTails":0,"totalHeads":27,"totalTails":5,"studentIndex":20,"studentTrueHypers":{"a":1,"b":4},"studentGuess":0.7567567567567568,"delta":0.043243243243243246,"bonus":0.18,"bonusSoFar":1.21,"totalExamples":32},{"rt":8105,"response":{"heads":"2","tails":"5"},"type":"response","condition":"nonSeqFull","trueTheta":0.5,"classrooms":["C","D"],"studentTrueClassroom":"D","exampleSet":"first","trial_type":"survey-html-form","trial_index":174,"time_elapsed":1663618,"internal_node_id":"0.0-171.0-0.0","params":{"nStudents":24,"maxFlips":30,"completionMinutes":45,"basePay":8,"maxBonus":9,"perTrialBonus":0.5,"perTrialBonusThreshold":0.05,"exampleCost":0.01},"classroomParams":{"A":{"a":1,"b":4},"B":{"a":4,"b":1},"C":{"a":2,"b":8},"D":{"a":8,"b":2}},"conditions":["nonSeqFull","nonSeqPartial","seqNoFeedback","seqFeedback"],"classroomPairings":[["A","B"],["C","D"]],"coinWeights":[0.2,0.5,0.8],"subjectId":"AOS2PVHT2HYTL","assignmentId":"3YT88D1N09K989NCLVWJAA2Q5BA3KB","hitId":"34KYK9TV2RUAD363EVFPUWVPB97SBP","url":"https://gershmanlab.com/experiments/alicia/teaching/experiment/?hitId=34KYK9TV2RUAD363EVFPUWVPB97SBP&workerId=AOS2PVHT2HYTL&assignmentId=3YT88D1N09K989NCLVWJAA2Q5BA3KB&a=N8TY7&tp_a=N8TY7&b=3YT88D1N09K989NCLVWJAA2Q5BA3KB&tp_b=3YT88D1N09K989NCLVWJAA2Q5BA3KB&c=365717&tp_c=365717","heads":2,"tails":5,"studentIndex":21,"studentTrueHypers":{"a":8,"b":2},"studentGuess":0.5882352941176471,"delta":0.08823529411764708,"totalExamples":7,"bonus":0,"bonusSoFar":1.21},{"rt":6898,"response":{"heads":"21","tails":"0"},"type":"response","condition":"seqNoFeedback","trueTheta":0.8,"classrooms":["C","D"],"studentTrueClassroom":"D","exampleSet":"first","trial_type":"survey-html-form","trial_index":180,"time_elapsed":1687062,"internal_node_id":"0.0-177.0-0.0","params":{"nStudents":24,"maxFlips":30,"completionMinutes":45,"basePay":8,"maxBonus":9,"perTrialBonus":0.5,"perTrialBonusThreshold":0.05,"exampleCost":0.01},"classroomParams":{"A":{"a":1,"b":4},"B":{"a":4,"b":1},"C":{"a":2,"b":8},"D":{"a":8,"b":2}},"conditions":["nonSeqFull","nonSeqPartial","seqNoFeedback","seqFeedback"],"classroomPairings":[["A","B"],["C","D"]],"coinWeights":[0.2,0.5,0.8],"subjectId":"AOS2PVHT2HYTL","assignmentId":"3YT88D1N09K989NCLVWJAA2Q5BA3KB","hitId":"34KYK9TV2RUAD363EVFPUWVPB97SBP","url":"https://gershmanlab.com/experiments/alicia/teaching/experiment/?hitId=34KYK9TV2RUAD363EVFPUWVPB97SBP&workerId=AOS2PVHT2HYTL&assignmentId=3YT88D1N09K989NCLVWJAA2Q5BA3KB&a=N8TY7&tp_a=N8TY7&b=3YT88D1N09K989NCLVWJAA2Q5BA3KB&tp_b=3YT88D1N09K989NCLVWJAA2Q5BA3KB&c=365717&tp_c=365717","heads":21,"tails":0,"studentIndex":22,"studentTrueHypers":{"a":8,"b":2},"studentGuess":0.9354838709677419,"delta":0.13548387096774184,"totalExamples":21,"bonusSoFar":1.21},{"rt":6610,"response":{"heads":"23","tails":"0"},"type":"response","condition":"seqNoFeedback","trueTheta":0.8,"classrooms":["C","D"],"studentTrueClassroom":"D","exampleSet":"second","trial_type":"survey-html-form","trial_index":183,"time_elapsed":1700446,"internal_node_id":"0.0-180.0-0.0","params":{"nStudents":24,"maxFlips":30,"completionMinutes":45,"basePay":8,"maxBonus":9,"perTrialBonus":0.5,"perTrialBonusThreshold":0.05,"exampleCost":0.01},"classroomParams":{"A":{"a":1,"b":4},"B":{"a":4,"b":1},"C":{"a":2,"b":8},"D":{"a":8,"b":2}},"conditions":["nonSeqFull","nonSeqPartial","seqNoFeedback","seqFeedback"],"classroomPairings":[["A","B"],["C","D"]],"coinWeights":[0.2,0.5,0.8],"subjectId":"AOS2PVHT2HYTL","assignmentId":"3YT88D1N09K989NCLVWJAA2Q5BA3KB","hitId":"34KYK9TV2RUAD363EVFPUWVPB97SBP","url":"https://gershmanlab.com/experiments/alicia/teaching/experiment/?hitId=34KYK9TV2RUAD363EVFPUWVPB97SBP&workerId=AOS2PVHT2HYTL&assignmentId=3YT88D1N09K989NCLVWJAA2Q5BA3KB&a=N8TY7&tp_a=N8TY7&b=3YT88D1N09K989NCLVWJAA2Q5BA3KB&tp_b=3YT88D1N09K989NCLVWJAA2Q5BA3KB&c=365717&tp_c=365717","firstResponseHeads":21,"firstResponseTails":0,"secondResponseHeads":23,"secondResponseTails":0,"totalHeads":44,"totalTails":0,"studentIndex":22,"studentTrueHypers":{"a":8,"b":2},"studentGuess":0.9629629629629629,"delta":0.16296296296296287,"bonus":0,"bonusSoFar":1.21,"totalExamples":44},{"rt":8187,"response":{"heads":"10","tails":"5"},"type":"response","condition":"nonSeqPartial","trueTheta":0.5,"classrooms":["A","B"],"studentTrueClassroom":"B","exampleSet":"first","trial_type":"survey-html-form","trial_index":189,"time_elapsed":1725757,"internal_node_id":"0.0-186.0-0.0","params":{"nStudents":24,"maxFlips":30,"completionMinutes":45,"basePay":8,"maxBonus":9,"perTrialBonus":0.5,"perTrialBonusThreshold":0.05,"exampleCost":0.01},"classroomParams":{"A":{"a":1,"b":4},"B":{"a":4,"b":1},"C":{"a":2,"b":8},"D":{"a":8,"b":2}},"conditions":["nonSeqFull","nonSeqPartial","seqNoFeedback","seqFeedback"],"classroomPairings":[["A","B"],["C","D"]],"coinWeights":[0.2,0.5,0.8],"subjectId":"AOS2PVHT2HYTL","assignmentId":"3YT88D1N09K989NCLVWJAA2Q5BA3KB","hitId":"34KYK9TV2RUAD363EVFPUWVPB97SBP","url":"https://gershmanlab.com/experiments/alicia/teaching/experiment/?hitId=34KYK9TV2RUAD363EVFPUWVPB97SBP&workerId=AOS2PVHT2HYTL&assignmentId=3YT88D1N09K989NCLVWJAA2Q5BA3KB&a=N8TY7&tp_a=N8TY7&b=3YT88D1N09K989NCLVWJAA2Q5BA3KB&tp_b=3YT88D1N09K989NCLVWJAA2Q5BA3KB&c=365717&tp_c=365717","heads":10,"tails":5,"studentIndex":23,"studentTrueHypers":{"a":4,"b":1},"studentGuess":0.7,"delta":0.19999999999999996,"totalExamples":15,"bonus":0,"bonusSoFar":1.21},{"rt":36606,"response":{"gender":"female","age":"67","understood":"yes","comments":"Couldn't really find a pattern.  Looked like hit and miss to me!!!!"},"type":"response","trial_type":"survey-html-form","trial_index":193,"time_elapsed":1772353,"internal_node_id":"0.0-191.0","params":{"nStudents":24,"maxFlips":30,"completionMinutes":45,"basePay":8,"maxBonus":9,"perTrialBonus":0.5,"perTrialBonusThreshold":0.05,"exampleCost":0.01},"classroomParams":{"A":{"a":1,"b":4},"B":{"a":4,"b":1},"C":{"a":2,"b":8},"D":{"a":8,"b":2}},"conditions":["nonSeqFull","nonSeqPartial","seqNoFeedback","seqFeedback"],"classroomPairings":[["A","B"],["C","D"]],"coinWeights":[0.2,0.5,0.8],"subjectId":"AOS2PVHT2HYTL","assignmentId":"3YT88D1N09K989NCLVWJAA2Q5BA3KB","hitId":"34KYK9TV2RUAD363EVFPUWVPB97SBP","url":"https://gershmanlab.com/experiments/alicia/teaching/experiment/?hitId=34KYK9TV2RUAD363EVFPUWVPB97SBP&workerId=AOS2PVHT2HYTL&assignmentId=3YT88D1N09K989NCLVWJAA2Q5BA3KB&a=N8TY7&tp_a=N8TY7&b=3YT88D1N09K989NCLVWJAA2Q5BA3KB&tp_b=3YT88D1N09K989NCLVWJAA2Q5BA3KB&c=365717&tp_c=365717","totalBonus":1.21}]