[{"rt":10258,"response":{"heads":"5","tails":"5"},"type":"response","condition":"nonSeqPartial","trueTheta":0.5,"classrooms":["A","B"],"studentTrueClassroom":"B","exampleSet":"first","trial_type":"survey-html-form","trial_index":19,"time_elapsed":392269,"internal_node_id":"0.0-6.0-0.0","params":{"nStudents":24,"maxFlips":30,"completionMinutes":45,"basePay":8,"maxBonus":9,"perTrialBonus":0.5,"perTrialBonusThreshold":0.05,"exampleCost":0.01},"classroomParams":{"A":{"a":1,"b":4},"B":{"a":4,"b":1},"C":{"a":2,"b":8},"D":{"a":8,"b":2}},"conditions":["nonSeqFull","nonSeqPartial","seqNoFeedback","seqFeedback"],"classroomPairings":[["A","B"],["C","D"]],"coinWeights":[0.2,0.5,0.8],"subjectId":"AOWW3URQNRJ6U","assignmentId":"3M0NZ3JDP2K7BJ92ZFNMCMONNGE5ZP","hitId":"3FJ2RVH25ZSYKBA8MWMNC8NVPF629N","url":"https://gershmanlab.com/experiments/alicia/teaching/experiment/?hitId=3FJ2RVH25ZSYKBA8MWMNC8NVPF629N&workerId=AOWW3URQNRJ6U&assignmentId=3M0NZ3JDP2K7BJ92ZFNMCMONNGE5ZP&a=DZ0M7&tp_a=DZ0M7&b=3M0NZ3JDP2K7BJ92ZFNMCMONNGE5ZP&tp_b=3M0NZ3JDP2K7BJ92ZFNMCMONNGE5ZP&c=365717&tp_c=365717","heads":5,"tails":5,"studentIndex":0,"studentTrueHypers":{"a":4,"b":1},"studentGuess":0.6,"delta":0.09999999999999998,"totalExamples":10,"bonus":0,"bonusSoFar":0},{"rt":4265,"response":{"heads":"3","tails":"3"},"type":"response","condition":"seqFeedback","trueTheta":0.5,"classrooms":["C","D"],"studentTrueClassroom":"C","exampleSet":"first","trial_type":"survey-html-form","trial_index":25,"time_elapsed":411596,"internal_node_id":"0.0-12.0-0.0","params":{"nStudents":24,"maxFlips":30,"completionMinutes":45,"basePay":8,"maxBonus":9,"perTrialBonus":0.5,"perTrialBonusThreshold":0.05,"exampleCost":0.01},"classroomParams":{"A":{"a":1,"b":4},"B":{"a":4,"b":1},"C":{"a":2,"b":8},"D":{"a":8,"b":2}},"conditions":["nonSeqFull","nonSeqPartial","seqNoFeedback","seqFeedback"],"classroomPairings":[["A","B"],["C","D"]],"coinWeights":[0.2,0.5,0.8],"subjectId":"AOWW3URQNRJ6U","assignmentId":"3M0NZ3JDP2K7BJ92ZFNMCMONNGE5ZP","hitId":"3FJ2RVH25ZSYKBA8MWMNC8NVPF629N","url":"https://gershmanlab.com/experiments/alicia/teaching/experiment/?hitId=3FJ2RVH25ZSYKBA8MWMNC8NVPF629N&workerId=AOWW3URQNRJ6U&assignmentId=3M0NZ3JDP2K7BJ92ZFNMCMONNGE5ZP&a=DZ0M7&tp_a=DZ0M7&b=3M0NZ3JDP2K7BJ92ZFNMCMONNGE5ZP&tp_b=3M0NZ3JDP2K7BJ92ZFNMCMONNGE5ZP&c=365717&tp_c=365717","heads":3,"tails":3,"studentIndex":1,"studentTrueHypers":{"a":2,"b":8},"studentGuess":0.3125,"delta":0.1875,"totalExamples":6,"bonusSoFar":0},{"rt":8706,"response":{"heads":"5","tails":"5"},"type":"response","condition":"seqFeedback","trueTheta":0.5,"classrooms":["C","D"],"studentTrueClassroom":"C","exampleSet":"second","trial_type":"survey-html-form","trial_index":29,"time_elapsed":429508,"internal_node_id":"0.0-16.0-0.0","params":{"nStudents":24,"maxFlips":30,"completionMinutes":45,"basePay":8,"maxBonus":9,"perTrialBonus":0.5,"perTrialBonusThreshold":0.05,"exampleCost":0.01},"classroomParams":{"A":{"a":1,"b":4},"B":{"a":4,"b":1},"C":{"a":2,"b":8},"D":{"a":8,"b":2}},"conditions":["nonSeqFull","nonSeqPartial","seqNoFeedback","seqFeedback"],"classroomPairings":[["A","B"],["C","D"]],"coinWeights":[0.2,0.5,0.8],"subjectId":"AOWW3URQNRJ6U","assignmentId":"3M0NZ3JDP2K7BJ92ZFNMCMONNGE5ZP","hitId":"3FJ2RVH25ZSYKBA8MWMNC8NVPF629N","url":"https://gershmanlab.com/experiments/alicia/teaching/experiment/?hitId=3FJ2RVH25ZSYKBA8MWMNC8NVPF629N&workerId=AOWW3URQNRJ6U&assignmentId=3M0NZ3JDP2K7BJ92ZFNMCMONNGE5ZP&a=DZ0M7&tp_a=DZ0M7&b=3M0NZ3JDP2K7BJ92ZFNMCMONNGE5ZP&tp_b=3M0NZ3JDP2K7BJ92ZFNMCMONNGE5ZP&c=365717&tp_c=365717","firstResponseHeads":3,"firstResponseTails":3,"secondResponseHeads":5,"secondResponseTails":5,"totalHeads":8,"totalTails":8,"studentIndex":1,"studentTrueHypers":{"a":2,"b":8},"studentGuess":0.38461538461538464,"delta":0.11538461538461536,"bonus":0,"bonusSoFar":0,"totalExamples":16},{"rt":24482,"response":{"heads":"6","tails":"6"},"type":"response","condition":"nonSeqPartial","trueTheta":0.5,"classrooms":["C","D"],"studentTrueClassroom":"C","exampleSet":"first","trial_type":"survey-html-form","trial_index":35,"time_elapsed":467639,"internal_node_id":"0.0-22.0-0.0","params":{"nStudents":24,"maxFlips":30,"completionMinutes":45,"basePay":8,"maxBonus":9,"perTrialBonus":0.5,"perTrialBonusThreshold":0.05,"exampleCost":0.01},"classroomParams":{"A":{"a":1,"b":4},"B":{"a":4,"b":1},"C":{"a":2,"b":8},"D":{"a":8,"b":2}},"conditions":["nonSeqFull","nonSeqPartial","seqNoFeedback","seqFeedback"],"classroomPairings":[["A","B"],["C","D"]],"coinWeights":[0.2,0.5,0.8],"subjectId":"AOWW3URQNRJ6U","assignmentId":"3M0NZ3JDP2K7BJ92ZFNMCMONNGE5ZP","hitId":"3FJ2RVH25ZSYKBA8MWMNC8NVPF629N","url":"https://gershmanlab.com/experiments/alicia/teaching/experiment/?hitId=3FJ2RVH25ZSYKBA8MWMNC8NVPF629N&workerId=AOWW3URQNRJ6U&assignmentId=3M0NZ3JDP2K7BJ92ZFNMCMONNGE5ZP&a=DZ0M7&tp_a=DZ0M7&b=3M0NZ3JDP2K7BJ92ZFNMCMONNGE5ZP&tp_b=3M0NZ3JDP2K7BJ92ZFNMCMONNGE5ZP&c=365717&tp_c=365717","heads":6,"tails":6,"studentIndex":2,"studentTrueHypers":{"a":2,"b":8},"studentGuess":0.36363636363636365,"delta":0.13636363636363635,"totalExamples":12,"bonus":0,"bonusSoFar":0},{"rt":16723,"response":{"heads":"12","tails":"0"},"type":"response","condition":"seqNoFeedback","trueTheta":0.8,"classrooms":["C","D"],"studentTrueClassroom":"C","exampleSet":"first","trial_type":"survey-html-form","trial_index":41,"time_elapsed":497718,"internal_node_id":"0.0-28.0-0.0","params":{"nStudents":24,"maxFlips":30,"completionMinutes":45,"basePay":8,"maxBonus":9,"perTrialBonus":0.5,"perTrialBonusThreshold":0.05,"exampleCost":0.01},"classroomParams":{"A":{"a":1,"b":4},"B":{"a":4,"b":1},"C":{"a":2,"b":8},"D":{"a":8,"b":2}},"conditions":["nonSeqFull","nonSeqPartial","seqNoFeedback","seqFeedback"],"classroomPairings":[["A","B"],["C","D"]],"coinWeights":[0.2,0.5,0.8],"subjectId":"AOWW3URQNRJ6U","assignmentId":"3M0NZ3JDP2K7BJ92ZFNMCMONNGE5ZP","hitId":"3FJ2RVH25ZSYKBA8MWMNC8NVPF629N","url":"https://gershmanlab.com/experiments/alicia/teaching/experiment/?hitId=3FJ2RVH25ZSYKBA8MWMNC8NVPF629N&workerId=AOWW3URQNRJ6U&assignmentId=3M0NZ3JDP2K7BJ92ZFNMCMONNGE5ZP&a=DZ0M7&tp_a=DZ0M7&b=3M0NZ3JDP2K7BJ92ZFNMCMONNGE5ZP&tp_b=3M0NZ3JDP2K7BJ92ZFNMCMONNGE5ZP&c=365717&tp_c=365717","heads":12,"tails":0,"studentIndex":3,"studentTrueHypers":{"a":2,"b":8},"studentGuess":0.6363636363636364,"delta":0.1636363636363637,"totalExamples":12,"bonusSoFar":0},{"rt":8159,"response":{"heads":"12","tails":"0"},"type":"response","condition":"seqNoFeedback","trueTheta":0.8,"classrooms":["C","D"],"studentTrueClassroom":"C","exampleSet":"second","trial_type":"survey-html-form","trial_index":44,"time_elapsed":511632,"internal_node_id":"0.0-31.0-0.0","params":{"nStudents":24,"maxFlips":30,"completionMinutes":45,"basePay":8,"maxBonus":9,"perTrialBonus":0.5,"perTrialBonusThreshold":0.05,"exampleCost":0.01},"classroomParams":{"A":{"a":1,"b":4},"B":{"a":4,"b":1},"C":{"a":2,"b":8},"D":{"a":8,"b":2}},"conditions":["nonSeqFull","nonSeqPartial","seqNoFeedback","seqFeedback"],"classroomPairings":[["A","B"],["C","D"]],"coinWeights":[0.2,0.5,0.8],"subjectId":"AOWW3URQNRJ6U","assignmentId":"3M0NZ3JDP2K7BJ92ZFNMCMONNGE5ZP","hitId":"3FJ2RVH25ZSYKBA8MWMNC8NVPF629N","url":"https://gershmanlab.com/experiments/alicia/teaching/experiment/?hitId=3FJ2RVH25ZSYKBA8MWMNC8NVPF629N&workerId=AOWW3URQNRJ6U&assignmentId=3M0NZ3JDP2K7BJ92ZFNMCMONNGE5ZP&a=DZ0M7&tp_a=DZ0M7&b=3M0NZ3JDP2K7BJ92ZFNMCMONNGE5ZP&tp_b=3M0NZ3JDP2K7BJ92ZFNMCMONNGE5ZP&c=365717&tp_c=365717","firstResponseHeads":12,"firstResponseTails":0,"secondResponseHeads":12,"secondResponseTails":0,"totalHeads":24,"totalTails":0,"studentIndex":3,"studentTrueHypers":{"a":2,"b":8},"studentGuess":0.7647058823529411,"delta":0.03529411764705892,"bonus":0.26,"bonusSoFar":0.26,"totalExamples":24},{"rt":4574,"response":{"heads":"0","tails":"13"},"type":"response","condition":"seqNoFeedback","trueTheta":0.2,"classrooms":["C","D"],"studentTrueClassroom":"D","exampleSet":"first","trial_type":"survey-html-form","trial_index":50,"time_elapsed":528238,"internal_node_id":"0.0-37.0-0.0","params":{"nStudents":24,"maxFlips":30,"completionMinutes":45,"basePay":8,"maxBonus":9,"perTrialBonus":0.5,"perTrialBonusThreshold":0.05,"exampleCost":0.01},"classroomParams":{"A":{"a":1,"b":4},"B":{"a":4,"b":1},"C":{"a":2,"b":8},"D":{"a":8,"b":2}},"conditions":["nonSeqFull","nonSeqPartial","seqNoFeedback","seqFeedback"],"classroomPairings":[["A","B"],["C","D"]],"coinWeights":[0.2,0.5,0.8],"subjectId":"AOWW3URQNRJ6U","assignmentId":"3M0NZ3JDP2K7BJ92ZFNMCMONNGE5ZP","hitId":"3FJ2RVH25ZSYKBA8MWMNC8NVPF629N","url":"https://gershmanlab.com/experiments/alicia/teaching/experiment/?hitId=3FJ2RVH25ZSYKBA8MWMNC8NVPF629N&workerId=AOWW3URQNRJ6U&assignmentId=3M0NZ3JDP2K7BJ92ZFNMCMONNGE5ZP&a=DZ0M7&tp_a=DZ0M7&b=3M0NZ3JDP2K7BJ92ZFNMCMONNGE5ZP&tp_b=3M0NZ3JDP2K7BJ92ZFNMCMONNGE5ZP&c=365717&tp_c=365717","heads":0,"tails":13,"studentIndex":4,"studentTrueHypers":{"a":8,"b":2},"studentGuess":0.34782608695652173,"delta":0.14782608695652172,"totalExamples":13,"bonusSoFar":0.26},{"rt":3292,"response":{"heads":"0","tails":"13"},"type":"response","condition":"seqNoFeedback","trueTheta":0.2,"classrooms":["C","D"],"studentTrueClassroom":"D","exampleSet":"second","trial_type":"survey-html-form","trial_index":53,"time_elapsed":537535,"internal_node_id":"0.0-40.0-0.0","params":{"nStudents":24,"maxFlips":30,"completionMinutes":45,"basePay":8,"maxBonus":9,"perTrialBonus":0.5,"perTrialBonusThreshold":0.05,"exampleCost":0.01},"classroomParams":{"A":{"a":1,"b":4},"B":{"a":4,"b":1},"C":{"a":2,"b":8},"D":{"a":8,"b":2}},"conditions":["nonSeqFull","nonSeqPartial","seqNoFeedback","seqFeedback"],"classroomPairings":[["A","B"],["C","D"]],"coinWeights":[0.2,0.5,0.8],"subjectId":"AOWW3URQNRJ6U","assignmentId":"3M0NZ3JDP2K7BJ92ZFNMCMONNGE5ZP","hitId":"3FJ2RVH25ZSYKBA8MWMNC8NVPF629N","url":"https://gershmanlab.com/experiments/alicia/teaching/experiment/?hitId=3FJ2RVH25ZSYKBA8MWMNC8NVPF629N&workerId=AOWW3URQNRJ6U&assignmentId=3M0NZ3JDP2K7BJ92ZFNMCMONNGE5ZP&a=DZ0M7&tp_a=DZ0M7&b=3M0NZ3JDP2K7BJ92ZFNMCMONNGE5ZP&tp_b=3M0NZ3JDP2K7BJ92ZFNMCMONNGE5ZP&c=365717&tp_c=365717","firstResponseHeads":0,"firstResponseTails":13,"secondResponseHeads":0,"secondResponseTails":13,"totalHeads":0,"totalTails":26,"studentIndex":4,"studentTrueHypers":{"a":8,"b":2},"studentGuess":0.2222222222222222,"delta":0.0222222222222222,"bonus":0.24,"bonusSoFar":0.5,"totalExamples":26},{"rt":105938,"response":{"heads":"2","tails":"7"},"type":"response","condition":"nonSeqFull","trueTheta":0.5,"classrooms":["A","B"],"studentTrueClassroom":"B","exampleSet":"first","trial_type":"survey-html-form","trial_index":59,"time_elapsed":657792,"internal_node_id":"0.0-46.0-0.0","params":{"nStudents":24,"maxFlips":30,"completionMinutes":45,"basePay":8,"maxBonus":9,"perTrialBonus":0.5,"perTrialBonusThreshold":0.05,"exampleCost":0.01},"classroomParams":{"A":{"a":1,"b":4},"B":{"a":4,"b":1},"C":{"a":2,"b":8},"D":{"a":8,"b":2}},"conditions":["nonSeqFull","nonSeqPartial","seqNoFeedback","seqFeedback"],"classroomPairings":[["A","B"],["C","D"]],"coinWeights":[0.2,0.5,0.8],"subjectId":"AOWW3URQNRJ6U","assignmentId":"3M0NZ3JDP2K7BJ92ZFNMCMONNGE5ZP","hitId":"3FJ2RVH25ZSYKBA8MWMNC8NVPF629N","url":"https://gershmanlab.com/experiments/alicia/teaching/experiment/?hitId=3FJ2RVH25ZSYKBA8MWMNC8NVPF629N&workerId=AOWW3URQNRJ6U&assignmentId=3M0NZ3JDP2K7BJ92ZFNMCMONNGE5ZP&a=DZ0M7&tp_a=DZ0M7&b=3M0NZ3JDP2K7BJ92ZFNMCMONNGE5ZP&tp_b=3M0NZ3JDP2K7BJ92ZFNMCMONNGE5ZP&c=365717&tp_c=365717","heads":2,"tails":7,"studentIndex":5,"studentTrueHypers":{"a":4,"b":1},"studentGuess":0.42857142857142855,"delta":0.07142857142857145,"totalExamples":9,"bonus":0,"bonusSoFar":0.5},{"rt":13039,"response":{"heads":"0","tails":"12"},"type":"response","condition":"nonSeqPartial","trueTheta":0.8,"classrooms":["C","D"],"studentTrueClassroom":"C","exampleSet":"first","trial_type":"survey-html-form","trial_index":65,"time_elapsed":695051,"internal_node_id":"0.0-52.0-0.0","params":{"nStudents":24,"maxFlips":30,"completionMinutes":45,"basePay":8,"maxBonus":9,"perTrialBonus":0.5,"perTrialBonusThreshold":0.05,"exampleCost":0.01},"classroomParams":{"A":{"a":1,"b":4},"B":{"a":4,"b":1},"C":{"a":2,"b":8},"D":{"a":8,"b":2}},"conditions":["nonSeqFull","nonSeqPartial","seqNoFeedback","seqFeedback"],"classroomPairings":[["A","B"],["C","D"]],"coinWeights":[0.2,0.5,0.8],"subjectId":"AOWW3URQNRJ6U","assignmentId":"3M0NZ3JDP2K7BJ92ZFNMCMONNGE5ZP","hitId":"3FJ2RVH25ZSYKBA8MWMNC8NVPF629N","url":"https://gershmanlab.com/experiments/alicia/teaching/experiment/?hitId=3FJ2RVH25ZSYKBA8MWMNC8NVPF629N&workerId=AOWW3URQNRJ6U&assignmentId=3M0NZ3JDP2K7BJ92ZFNMCMONNGE5ZP&a=DZ0M7&tp_a=DZ0M7&b=3M0NZ3JDP2K7BJ92ZFNMCMONNGE5ZP&tp_b=3M0NZ3JDP2K7BJ92ZFNMCMONNGE5ZP&c=365717&tp_c=365717","heads":0,"tails":12,"studentIndex":6,"studentTrueHypers":{"a":2,"b":8},"studentGuess":0.09090909090909091,"delta":0.7090909090909091,"totalExamples":12,"bonus":0,"bonusSoFar":0.5},{"rt":5955,"response":{"heads":"13","tails":"0"},"type":"response","condition":"nonSeqPartial","trueTheta":0.8,"classrooms":["A","B"],"studentTrueClassroom":"A","exampleSet":"first","trial_type":"survey-html-form","trial_index":71,"time_elapsed":712550,"internal_node_id":"0.0-58.0-0.0","params":{"nStudents":24,"maxFlips":30,"completionMinutes":45,"basePay":8,"maxBonus":9,"perTrialBonus":0.5,"perTrialBonusThreshold":0.05,"exampleCost":0.01},"classroomParams":{"A":{"a":1,"b":4},"B":{"a":4,"b":1},"C":{"a":2,"b":8},"D":{"a":8,"b":2}},"conditions":["nonSeqFull","nonSeqPartial","seqNoFeedback","seqFeedback"],"classroomPairings":[["A","B"],["C","D"]],"coinWeights":[0.2,0.5,0.8],"subjectId":"AOWW3URQNRJ6U","assignmentId":"3M0NZ3JDP2K7BJ92ZFNMCMONNGE5ZP","hitId":"3FJ2RVH25ZSYKBA8MWMNC8NVPF629N","url":"https://gershmanlab.com/experiments/alicia/teaching/experiment/?hitId=3FJ2RVH25ZSYKBA8MWMNC8NVPF629N&workerId=AOWW3URQNRJ6U&assignmentId=3M0NZ3JDP2K7BJ92ZFNMCMONNGE5ZP&a=DZ0M7&tp_a=DZ0M7&b=3M0NZ3JDP2K7BJ92ZFNMCMONNGE5ZP&tp_b=3M0NZ3JDP2K7BJ92ZFNMCMONNGE5ZP&c=365717&tp_c=365717","heads":13,"tails":0,"studentIndex":7,"studentTrueHypers":{"a":1,"b":4},"studentGuess":0.7777777777777778,"delta":0.022222222222222254,"totalExamples":13,"bonus":0.37,"bonusSoFar":0.87},{"rt":5944,"response":{"heads":"0","tails":"13"},"type":"response","condition":"seqFeedback","trueTheta":0.2,"classrooms":["C","D"],"studentTrueClassroom":"D","exampleSet":"first","trial_type":"survey-html-form","trial_index":77,"time_elapsed":734557,"internal_node_id":"0.0-64.0-0.0","params":{"nStudents":24,"maxFlips":30,"completionMinutes":45,"basePay":8,"maxBonus":9,"perTrialBonus":0.5,"perTrialBonusThreshold":0.05,"exampleCost":0.01},"classroomParams":{"A":{"a":1,"b":4},"B":{"a":4,"b":1},"C":{"a":2,"b":8},"D":{"a":8,"b":2}},"conditions":["nonSeqFull","nonSeqPartial","seqNoFeedback","seqFeedback"],"classroomPairings":[["A","B"],["C","D"]],"coinWeights":[0.2,0.5,0.8],"subjectId":"AOWW3URQNRJ6U","assignmentId":"3M0NZ3JDP2K7BJ92ZFNMCMONNGE5ZP","hitId":"3FJ2RVH25ZSYKBA8MWMNC8NVPF629N","url":"https://gershmanlab.com/experiments/alicia/teaching/experiment/?hitId=3FJ2RVH25ZSYKBA8MWMNC8NVPF629N&workerId=AOWW3URQNRJ6U&assignmentId=3M0NZ3JDP2K7BJ92ZFNMCMONNGE5ZP&a=DZ0M7&tp_a=DZ0M7&b=3M0NZ3JDP2K7BJ92ZFNMCMONNGE5ZP&tp_b=3M0NZ3JDP2K7BJ92ZFNMCMONNGE5ZP&c=365717&tp_c=365717","heads":0,"tails":13,"studentIndex":8,"studentTrueHypers":{"a":8,"b":2},"studentGuess":0.34782608695652173,"delta":0.14782608695652172,"totalExamples":13,"bonusSoFar":0.87},{"rt":4069,"response":{"heads":"0","tails":"14"},"type":"response","condition":"seqFeedback","trueTheta":0.2,"classrooms":["C","D"],"studentTrueClassroom":"D","exampleSet":"second","trial_type":"survey-html-form","trial_index":81,"time_elapsed":748771,"internal_node_id":"0.0-68.0-0.0","params":{"nStudents":24,"maxFlips":30,"completionMinutes":45,"basePay":8,"maxBonus":9,"perTrialBonus":0.5,"perTrialBonusThreshold":0.05,"exampleCost":0.01},"classroomParams":{"A":{"a":1,"b":4},"B":{"a":4,"b":1},"C":{"a":2,"b":8},"D":{"a":8,"b":2}},"conditions":["nonSeqFull","nonSeqPartial","seqNoFeedback","seqFeedback"],"classroomPairings":[["A","B"],["C","D"]],"coinWeights":[0.2,0.5,0.8],"subjectId":"AOWW3URQNRJ6U","assignmentId":"3M0NZ3JDP2K7BJ92ZFNMCMONNGE5ZP","hitId":"3FJ2RVH25ZSYKBA8MWMNC8NVPF629N","url":"https://gershmanlab.com/experiments/alicia/teaching/experiment/?hitId=3FJ2RVH25ZSYKBA8MWMNC8NVPF629N&workerId=AOWW3URQNRJ6U&assignmentId=3M0NZ3JDP2K7BJ92ZFNMCMONNGE5ZP&a=DZ0M7&tp_a=DZ0M7&b=3M0NZ3JDP2K7BJ92ZFNMCMONNGE5ZP&tp_b=3M0NZ3JDP2K7BJ92ZFNMCMONNGE5ZP&c=365717&tp_c=365717","firstResponseHeads":0,"firstResponseTails":13,"secondResponseHeads":0,"secondResponseTails":14,"totalHeads":0,"totalTails":27,"studentIndex":8,"studentTrueHypers":{"a":8,"b":2},"studentGuess":0.21621621621621623,"delta":0.016216216216216217,"bonus":0.23,"bonusSoFar":1.1,"totalExamples":27},{"rt":3727,"response":{"heads":"14","tails":"0"},"type":"response","condition":"seqFeedback","trueTheta":0.8,"classrooms":["A","B"],"studentTrueClassroom":"B","exampleSet":"first","trial_type":"survey-html-form","trial_index":87,"time_elapsed":765015,"internal_node_id":"0.0-74.0-0.0","params":{"nStudents":24,"maxFlips":30,"completionMinutes":45,"basePay":8,"maxBonus":9,"perTrialBonus":0.5,"perTrialBonusThreshold":0.05,"exampleCost":0.01},"classroomParams":{"A":{"a":1,"b":4},"B":{"a":4,"b":1},"C":{"a":2,"b":8},"D":{"a":8,"b":2}},"conditions":["nonSeqFull","nonSeqPartial","seqNoFeedback","seqFeedback"],"classroomPairings":[["A","B"],["C","D"]],"coinWeights":[0.2,0.5,0.8],"subjectId":"AOWW3URQNRJ6U","assignmentId":"3M0NZ3JDP2K7BJ92ZFNMCMONNGE5ZP","hitId":"3FJ2RVH25ZSYKBA8MWMNC8NVPF629N","url":"https://gershmanlab.com/experiments/alicia/teaching/experiment/?hitId=3FJ2RVH25ZSYKBA8MWMNC8NVPF629N&workerId=AOWW3URQNRJ6U&assignmentId=3M0NZ3JDP2K7BJ92ZFNMCMONNGE5ZP&a=DZ0M7&tp_a=DZ0M7&b=3M0NZ3JDP2K7BJ92ZFNMCMONNGE5ZP&tp_b=3M0NZ3JDP2K7BJ92ZFNMCMONNGE5ZP&c=365717&tp_c=365717","heads":14,"tails":0,"studentIndex":9,"studentTrueHypers":{"a":4,"b":1},"studentGuess":0.9473684210526315,"delta":0.14736842105263148,"totalExamples":14,"bonusSoFar":1.1},{"rt":5812,"response":{"heads":"12","tails":"0"},"type":"response","condition":"seqFeedback","trueTheta":0.8,"classrooms":["A","B"],"studentTrueClassroom":"B","exampleSet":"second","trial_type":"survey-html-form","trial_index":91,"time_elapsed":778702,"internal_node_id":"0.0-78.0-0.0","params":{"nStudents":24,"maxFlips":30,"completionMinutes":45,"basePay":8,"maxBonus":9,"perTrialBonus":0.5,"perTrialBonusThreshold":0.05,"exampleCost":0.01},"classroomParams":{"A":{"a":1,"b":4},"B":{"a":4,"b":1},"C":{"a":2,"b":8},"D":{"a":8,"b":2}},"conditions":["nonSeqFull","nonSeqPartial","seqNoFeedback","seqFeedback"],"classroomPairings":[["A","B"],["C","D"]],"coinWeights":[0.2,0.5,0.8],"subjectId":"AOWW3URQNRJ6U","assignmentId":"3M0NZ3JDP2K7BJ92ZFNMCMONNGE5ZP","hitId":"3FJ2RVH25ZSYKBA8MWMNC8NVPF629N","url":"https://gershmanlab.com/experiments/alicia/teaching/experiment/?hitId=3FJ2RVH25ZSYKBA8MWMNC8NVPF629N&workerId=AOWW3URQNRJ6U&assignmentId=3M0NZ3JDP2K7BJ92ZFNMCMONNGE5ZP&a=DZ0M7&tp_a=DZ0M7&b=3M0NZ3JDP2K7BJ92ZFNMCMONNGE5ZP&tp_b=3M0NZ3JDP2K7BJ92ZFNMCMONNGE5ZP&c=365717&tp_c=365717","firstResponseHeads":14,"firstResponseTails":0,"secondResponseHeads":12,"secondResponseTails":0,"totalHeads":26,"totalTails":0,"studentIndex":9,"studentTrueHypers":{"a":4,"b":1},"studentGuess":0.967741935483871,"delta":0.16774193548387095,"bonus":0,"bonusSoFar":1.1,"totalExamples":26},{"rt":3720,"response":{"heads":"0","tails":"12"},"type":"response","condition":"seqFeedback","trueTheta":0.2,"classrooms":["A","B"],"studentTrueClassroom":"B","exampleSet":"first","trial_type":"survey-html-form","trial_index":97,"time_elapsed":811319,"internal_node_id":"0.0-84.0-0.0","params":{"nStudents":24,"maxFlips":30,"completionMinutes":45,"basePay":8,"maxBonus":9,"perTrialBonus":0.5,"perTrialBonusThreshold":0.05,"exampleCost":0.01},"classroomParams":{"A":{"a":1,"b":4},"B":{"a":4,"b":1},"C":{"a":2,"b":8},"D":{"a":8,"b":2}},"conditions":["nonSeqFull","nonSeqPartial","seqNoFeedback","seqFeedback"],"classroomPairings":[["A","B"],["C","D"]],"coinWeights":[0.2,0.5,0.8],"subjectId":"AOWW3URQNRJ6U","assignmentId":"3M0NZ3JDP2K7BJ92ZFNMCMONNGE5ZP","hitId":"3FJ2RVH25ZSYKBA8MWMNC8NVPF629N","url":"https://gershmanlab.com/experiments/alicia/teaching/experiment/?hitId=3FJ2RVH25ZSYKBA8MWMNC8NVPF629N&workerId=AOWW3URQNRJ6U&assignmentId=3M0NZ3JDP2K7BJ92ZFNMCMONNGE5ZP&a=DZ0M7&tp_a=DZ0M7&b=3M0NZ3JDP2K7BJ92ZFNMCMONNGE5ZP&tp_b=3M0NZ3JDP2K7BJ92ZFNMCMONNGE5ZP&c=365717&tp_c=365717","heads":0,"tails":12,"studentIndex":10,"studentTrueHypers":{"a":4,"b":1},"studentGuess":0.23529411764705882,"delta":0.03529411764705881,"totalExamples":12,"bonusSoFar":1.1},{"rt":5454,"response":{"heads":"0","tails":"12"},"type":"response","condition":"seqFeedback","trueTheta":0.2,"classrooms":["A","B"],"studentTrueClassroom":"B","exampleSet":"second","trial_type":"survey-html-form","trial_index":101,"time_elapsed":826884,"internal_node_id":"0.0-88.0-0.0","params":{"nStudents":24,"maxFlips":30,"completionMinutes":45,"basePay":8,"maxBonus":9,"perTrialBonus":0.5,"perTrialBonusThreshold":0.05,"exampleCost":0.01},"classroomParams":{"A":{"a":1,"b":4},"B":{"a":4,"b":1},"C":{"a":2,"b":8},"D":{"a":8,"b":2}},"conditions":["nonSeqFull","nonSeqPartial","seqNoFeedback","seqFeedback"],"classroomPairings":[["A","B"],["C","D"]],"coinWeights":[0.2,0.5,0.8],"subjectId":"AOWW3URQNRJ6U","assignmentId":"3M0NZ3JDP2K7BJ92ZFNMCMONNGE5ZP","hitId":"3FJ2RVH25ZSYKBA8MWMNC8NVPF629N","url":"https://gershmanlab.com/experiments/alicia/teaching/experiment/?hitId=3FJ2RVH25ZSYKBA8MWMNC8NVPF629N&workerId=AOWW3URQNRJ6U&assignmentId=3M0NZ3JDP2K7BJ92ZFNMCMONNGE5ZP&a=DZ0M7&tp_a=DZ0M7&b=3M0NZ3JDP2K7BJ92ZFNMCMONNGE5ZP&tp_b=3M0NZ3JDP2K7BJ92ZFNMCMONNGE5ZP&c=365717&tp_c=365717","firstResponseHeads":0,"firstResponseTails":12,"secondResponseHeads":0,"secondResponseTails":12,"totalHeads":0,"totalTails":24,"studentIndex":10,"studentTrueHypers":{"a":4,"b":1},"studentGuess":0.13793103448275862,"delta":0.06206896551724139,"bonus":0,"bonusSoFar":1.1,"totalExamples":24},{"rt":4977,"response":{"heads":"0","tails":"13"},"type":"response","condition":"nonSeqPartial","trueTheta":0.2,"classrooms":["C","D"],"studentTrueClassroom":"C","exampleSet":"first","trial_type":"survey-html-form","trial_index":107,"time_elapsed":844199,"internal_node_id":"0.0-94.0-0.0","params":{"nStudents":24,"maxFlips":30,"completionMinutes":45,"basePay":8,"maxBonus":9,"perTrialBonus":0.5,"perTrialBonusThreshold":0.05,"exampleCost":0.01},"classroomParams":{"A":{"a":1,"b":4},"B":{"a":4,"b":1},"C":{"a":2,"b":8},"D":{"a":8,"b":2}},"conditions":["nonSeqFull","nonSeqPartial","seqNoFeedback","seqFeedback"],"classroomPairings":[["A","B"],["C","D"]],"coinWeights":[0.2,0.5,0.8],"subjectId":"AOWW3URQNRJ6U","assignmentId":"3M0NZ3JDP2K7BJ92ZFNMCMONNGE5ZP","hitId":"3FJ2RVH25ZSYKBA8MWMNC8NVPF629N","url":"https://gershmanlab.com/experiments/alicia/teaching/experiment/?hitId=3FJ2RVH25ZSYKBA8MWMNC8NVPF629N&workerId=AOWW3URQNRJ6U&assignmentId=3M0NZ3JDP2K7BJ92ZFNMCMONNGE5ZP&a=DZ0M7&tp_a=DZ0M7&b=3M0NZ3JDP2K7BJ92ZFNMCMONNGE5ZP&tp_b=3M0NZ3JDP2K7BJ92ZFNMCMONNGE5ZP&c=365717&tp_c=365717","heads":0,"tails":13,"studentIndex":11,"studentTrueHypers":{"a":2,"b":8},"studentGuess":0.08695652173913043,"delta":0.11304347826086958,"totalExamples":13,"bonus":0,"bonusSoFar":1.1},{"rt":4590,"response":{"heads":"0","tails":"9"},"type":"response","condition":"nonSeqFull","trueTheta":0.2,"classrooms":["C","D"],"studentTrueClassroom":"C","exampleSet":"first","trial_type":"survey-html-form","trial_index":113,"time_elapsed":861342,"internal_node_id":"0.0-100.0-0.0","params":{"nStudents":24,"maxFlips":30,"completionMinutes":45,"basePay":8,"maxBonus":9,"perTrialBonus":0.5,"perTrialBonusThreshold":0.05,"exampleCost":0.01},"classroomParams":{"A":{"a":1,"b":4},"B":{"a":4,"b":1},"C":{"a":2,"b":8},"D":{"a":8,"b":2}},"conditions":["nonSeqFull","nonSeqPartial","seqNoFeedback","seqFeedback"],"classroomPairings":[["A","B"],["C","D"]],"coinWeights":[0.2,0.5,0.8],"subjectId":"AOWW3URQNRJ6U","assignmentId":"3M0NZ3JDP2K7BJ92ZFNMCMONNGE5ZP","hitId":"3FJ2RVH25ZSYKBA8MWMNC8NVPF629N","url":"https://gershmanlab.com/experiments/alicia/teaching/experiment/?hitId=3FJ2RVH25ZSYKBA8MWMNC8NVPF629N&workerId=AOWW3URQNRJ6U&assignmentId=3M0NZ3JDP2K7BJ92ZFNMCMONNGE5ZP&a=DZ0M7&tp_a=DZ0M7&b=3M0NZ3JDP2K7BJ92ZFNMCMONNGE5ZP&tp_b=3M0NZ3JDP2K7BJ92ZFNMCMONNGE5ZP&c=365717&tp_c=365717","heads":0,"tails":9,"studentIndex":12,"studentTrueHypers":{"a":2,"b":8},"studentGuess":0.10526315789473684,"delta":0.09473684210526317,"totalExamples":9,"bonus":0,"bonusSoFar":1.1},{"rt":10342,"response":{"heads":"0","tails":"12"},"type":"response","condition":"nonSeqFull","trueTheta":0.2,"classrooms":["A","B"],"studentTrueClassroom":"B","exampleSet":"first","trial_type":"survey-html-form","trial_index":119,"time_elapsed":887612,"internal_node_id":"0.0-106.0-0.0","params":{"nStudents":24,"maxFlips":30,"completionMinutes":45,"basePay":8,"maxBonus":9,"perTrialBonus":0.5,"perTrialBonusThreshold":0.05,"exampleCost":0.01},"classroomParams":{"A":{"a":1,"b":4},"B":{"a":4,"b":1},"C":{"a":2,"b":8},"D":{"a":8,"b":2}},"conditions":["nonSeqFull","nonSeqPartial","seqNoFeedback","seqFeedback"],"classroomPairings":[["A","B"],["C","D"]],"coinWeights":[0.2,0.5,0.8],"subjectId":"AOWW3URQNRJ6U","assignmentId":"3M0NZ3JDP2K7BJ92ZFNMCMONNGE5ZP","hitId":"3FJ2RVH25ZSYKBA8MWMNC8NVPF629N","url":"https://gershmanlab.com/experiments/alicia/teaching/experiment/?hitId=3FJ2RVH25ZSYKBA8MWMNC8NVPF629N&workerId=AOWW3URQNRJ6U&assignmentId=3M0NZ3JDP2K7BJ92ZFNMCMONNGE5ZP&a=DZ0M7&tp_a=DZ0M7&b=3M0NZ3JDP2K7BJ92ZFNMCMONNGE5ZP&tp_b=3M0NZ3JDP2K7BJ92ZFNMCMONNGE5ZP&c=365717&tp_c=365717","heads":0,"tails":12,"studentIndex":13,"studentTrueHypers":{"a":4,"b":1},"studentGuess":0.23529411764705882,"delta":0.03529411764705881,"totalExamples":12,"bonus":0.38,"bonusSoFar":1.48},{"rt":10269,"response":{"heads":"12","tails":"0"},"type":"response","condition":"seqFeedback","trueTheta":0.8,"classrooms":["C","D"],"studentTrueClassroom":"D","exampleSet":"first","trial_type":"survey-html-form","trial_index":125,"time_elapsed":931245,"internal_node_id":"0.0-112.0-0.0","params":{"nStudents":24,"maxFlips":30,"completionMinutes":45,"basePay":8,"maxBonus":9,"perTrialBonus":0.5,"perTrialBonusThreshold":0.05,"exampleCost":0.01},"classroomParams":{"A":{"a":1,"b":4},"B":{"a":4,"b":1},"C":{"a":2,"b":8},"D":{"a":8,"b":2}},"conditions":["nonSeqFull","nonSeqPartial","seqNoFeedback","seqFeedback"],"classroomPairings":[["A","B"],["C","D"]],"coinWeights":[0.2,0.5,0.8],"subjectId":"AOWW3URQNRJ6U","assignmentId":"3M0NZ3JDP2K7BJ92ZFNMCMONNGE5ZP","hitId":"3FJ2RVH25ZSYKBA8MWMNC8NVPF629N","url":"https://gershmanlab.com/experiments/alicia/teaching/experiment/?hitId=3FJ2RVH25ZSYKBA8MWMNC8NVPF629N&workerId=AOWW3URQNRJ6U&assignmentId=3M0NZ3JDP2K7BJ92ZFNMCMONNGE5ZP&a=DZ0M7&tp_a=DZ0M7&b=3M0NZ3JDP2K7BJ92ZFNMCMONNGE5ZP&tp_b=3M0NZ3JDP2K7BJ92ZFNMCMONNGE5ZP&c=365717&tp_c=365717","heads":12,"tails":0,"studentIndex":14,"studentTrueHypers":{"a":8,"b":2},"studentGuess":0.9090909090909091,"delta":0.10909090909090902,"totalExamples":12,"bonusSoFar":1.48},{"rt":14521,"response":{"heads":"8","tails":"2"},"type":"response","condition":"seqFeedback","trueTheta":0.8,"classrooms":["C","D"],"studentTrueClassroom":"D","exampleSet":"second","trial_type":"survey-html-form","trial_index":129,"time_elapsed":954501,"internal_node_id":"0.0-116.0-0.0","params":{"nStudents":24,"maxFlips":30,"completionMinutes":45,"basePay":8,"maxBonus":9,"perTrialBonus":0.5,"perTrialBonusThreshold":0.05,"exampleCost":0.01},"classroomParams":{"A":{"a":1,"b":4},"B":{"a":4,"b":1},"C":{"a":2,"b":8},"D":{"a":8,"b":2}},"conditions":["nonSeqFull","nonSeqPartial","seqNoFeedback","seqFeedback"],"classroomPairings":[["A","B"],["C","D"]],"coinWeights":[0.2,0.5,0.8],"subjectId":"AOWW3URQNRJ6U","assignmentId":"3M0NZ3JDP2K7BJ92ZFNMCMONNGE5ZP","hitId":"3FJ2RVH25ZSYKBA8MWMNC8NVPF629N","url":"https://gershmanlab.com/experiments/alicia/teaching/experiment/?hitId=3FJ2RVH25ZSYKBA8MWMNC8NVPF629N&workerId=AOWW3URQNRJ6U&assignmentId=3M0NZ3JDP2K7BJ92ZFNMCMONNGE5ZP&a=DZ0M7&tp_a=DZ0M7&b=3M0NZ3JDP2K7BJ92ZFNMCMONNGE5ZP&tp_b=3M0NZ3JDP2K7BJ92ZFNMCMONNGE5ZP&c=365717&tp_c=365717","firstResponseHeads":12,"firstResponseTails":0,"secondResponseHeads":8,"secondResponseTails":2,"totalHeads":20,"totalTails":2,"studentIndex":14,"studentTrueHypers":{"a":8,"b":2},"studentGuess":0.875,"delta":0.07499999999999996,"bonus":0,"bonusSoFar":1.48,"totalExamples":22},{"rt":11989,"response":{"heads":"10","tails":"10"},"type":"response","condition":"seqNoFeedback","trueTheta":0.5,"classrooms":["C","D"],"studentTrueClassroom":"C","exampleSet":"first","trial_type":"survey-html-form","trial_index":135,"time_elapsed":982807,"internal_node_id":"0.0-122.0-0.0","params":{"nStudents":24,"maxFlips":30,"completionMinutes":45,"basePay":8,"maxBonus":9,"perTrialBonus":0.5,"perTrialBonusThreshold":0.05,"exampleCost":0.01},"classroomParams":{"A":{"a":1,"b":4},"B":{"a":4,"b":1},"C":{"a":2,"b":8},"D":{"a":8,"b":2}},"conditions":["nonSeqFull","nonSeqPartial","seqNoFeedback","seqFeedback"],"classroomPairings":[["A","B"],["C","D"]],"coinWeights":[0.2,0.5,0.8],"subjectId":"AOWW3URQNRJ6U","assignmentId":"3M0NZ3JDP2K7BJ92ZFNMCMONNGE5ZP","hitId":"3FJ2RVH25ZSYKBA8MWMNC8NVPF629N","url":"https://gershmanlab.com/experiments/alicia/teaching/experiment/?hitId=3FJ2RVH25ZSYKBA8MWMNC8NVPF629N&workerId=AOWW3URQNRJ6U&assignmentId=3M0NZ3JDP2K7BJ92ZFNMCMONNGE5ZP&a=DZ0M7&tp_a=DZ0M7&b=3M0NZ3JDP2K7BJ92ZFNMCMONNGE5ZP&tp_b=3M0NZ3JDP2K7BJ92ZFNMCMONNGE5ZP&c=365717&tp_c=365717","heads":10,"tails":10,"studentIndex":15,"studentTrueHypers":{"a":2,"b":8},"studentGuess":0.4,"delta":0.09999999999999998,"totalExamples":20,"bonusSoFar":1.48},{"rt":4361,"response":{"heads":"10","tails":"10"},"type":"response","condition":"seqNoFeedback","trueTheta":0.5,"classrooms":["C","D"],"studentTrueClassroom":"C","exampleSet":"second","trial_type":"survey-html-form","trial_index":138,"time_elapsed":992924,"internal_node_id":"0.0-125.0-0.0","params":{"nStudents":24,"maxFlips":30,"completionMinutes":45,"basePay":8,"maxBonus":9,"perTrialBonus":0.5,"perTrialBonusThreshold":0.05,"exampleCost":0.01},"classroomParams":{"A":{"a":1,"b":4},"B":{"a":4,"b":1},"C":{"a":2,"b":8},"D":{"a":8,"b":2}},"conditions":["nonSeqFull","nonSeqPartial","seqNoFeedback","seqFeedback"],"classroomPairings":[["A","B"],["C","D"]],"coinWeights":[0.2,0.5,0.8],"subjectId":"AOWW3URQNRJ6U","assignmentId":"3M0NZ3JDP2K7BJ92ZFNMCMONNGE5ZP","hitId":"3FJ2RVH25ZSYKBA8MWMNC8NVPF629N","url":"https://gershmanlab.com/experiments/alicia/teaching/experiment/?hitId=3FJ2RVH25ZSYKBA8MWMNC8NVPF629N&workerId=AOWW3URQNRJ6U&assignmentId=3M0NZ3JDP2K7BJ92ZFNMCMONNGE5ZP&a=DZ0M7&tp_a=DZ0M7&b=3M0NZ3JDP2K7BJ92ZFNMCMONNGE5ZP&tp_b=3M0NZ3JDP2K7BJ92ZFNMCMONNGE5ZP&c=365717&tp_c=365717","firstResponseHeads":10,"firstResponseTails":10,"secondResponseHeads":10,"secondResponseTails":10,"totalHeads":20,"totalTails":20,"studentIndex":15,"studentTrueHypers":{"a":2,"b":8},"studentGuess":0.44,"delta":0.06,"bonus":0,"bonusSoFar":1.48,"totalExamples":40},{"rt":5459,"response":{"heads":"11","tails":"1"},"type":"response","condition":"seqNoFeedback","trueTheta":0.8,"classrooms":["A","B"],"studentTrueClassroom":"A","exampleSet":"first","trial_type":"survey-html-form","trial_index":144,"time_elapsed":1012976,"internal_node_id":"0.0-131.0-0.0","params":{"nStudents":24,"maxFlips":30,"completionMinutes":45,"basePay":8,"maxBonus":9,"perTrialBonus":0.5,"perTrialBonusThreshold":0.05,"exampleCost":0.01},"classroomParams":{"A":{"a":1,"b":4},"B":{"a":4,"b":1},"C":{"a":2,"b":8},"D":{"a":8,"b":2}},"conditions":["nonSeqFull","nonSeqPartial","seqNoFeedback","seqFeedback"],"classroomPairings":[["A","B"],["C","D"]],"coinWeights":[0.2,0.5,0.8],"subjectId":"AOWW3URQNRJ6U","assignmentId":"3M0NZ3JDP2K7BJ92ZFNMCMONNGE5ZP","hitId":"3FJ2RVH25ZSYKBA8MWMNC8NVPF629N","url":"https://gershmanlab.com/experiments/alicia/teaching/experiment/?hitId=3FJ2RVH25ZSYKBA8MWMNC8NVPF629N&workerId=AOWW3URQNRJ6U&assignmentId=3M0NZ3JDP2K7BJ92ZFNMCMONNGE5ZP&a=DZ0M7&tp_a=DZ0M7&b=3M0NZ3JDP2K7BJ92ZFNMCMONNGE5ZP&tp_b=3M0NZ3JDP2K7BJ92ZFNMCMONNGE5ZP&c=365717&tp_c=365717","heads":11,"tails":1,"studentIndex":16,"studentTrueHypers":{"a":1,"b":4},"studentGuess":0.7058823529411765,"delta":0.09411764705882353,"totalExamples":12,"bonusSoFar":1.48},{"rt":6604,"response":{"heads":"11","tails":"2"},"type":"response","condition":"seqNoFeedback","trueTheta":0.8,"classrooms":["A","B"],"studentTrueClassroom":"A","exampleSet":"second","trial_type":"survey-html-form","trial_index":147,"time_elapsed":1027585,"internal_node_id":"0.0-134.0-0.0","params":{"nStudents":24,"maxFlips":30,"completionMinutes":45,"basePay":8,"maxBonus":9,"perTrialBonus":0.5,"perTrialBonusThreshold":0.05,"exampleCost":0.01},"classroomParams":{"A":{"a":1,"b":4},"B":{"a":4,"b":1},"C":{"a":2,"b":8},"D":{"a":8,"b":2}},"conditions":["nonSeqFull","nonSeqPartial","seqNoFeedback","seqFeedback"],"classroomPairings":[["A","B"],["C","D"]],"coinWeights":[0.2,0.5,0.8],"subjectId":"AOWW3URQNRJ6U","assignmentId":"3M0NZ3JDP2K7BJ92ZFNMCMONNGE5ZP","hitId":"3FJ2RVH25ZSYKBA8MWMNC8NVPF629N","url":"https://gershmanlab.com/experiments/alicia/teaching/experiment/?hitId=3FJ2RVH25ZSYKBA8MWMNC8NVPF629N&workerId=AOWW3URQNRJ6U&assignmentId=3M0NZ3JDP2K7BJ92ZFNMCMONNGE5ZP&a=DZ0M7&tp_a=DZ0M7&b=3M0NZ3JDP2K7BJ92ZFNMCMONNGE5ZP&tp_b=3M0NZ3JDP2K7BJ92ZFNMCMONNGE5ZP&c=365717&tp_c=365717","firstResponseHeads":11,"firstResponseTails":1,"secondResponseHeads":11,"secondResponseTails":2,"totalHeads":22,"totalTails":3,"studentIndex":16,"studentTrueHypers":{"a":1,"b":4},"studentGuess":0.7666666666666667,"delta":0.033333333333333326,"bonus":0.25,"bonusSoFar":1.73,"totalExamples":25},{"rt":5455,"response":{"heads":"2","tails":"11"},"type":"response","condition":"nonSeqPartial","trueTheta":0.2,"classrooms":["A","B"],"studentTrueClassroom":"A","exampleSet":"first","trial_type":"survey-html-form","trial_index":153,"time_elapsed":1051231,"internal_node_id":"0.0-140.0-0.0","params":{"nStudents":24,"maxFlips":30,"completionMinutes":45,"basePay":8,"maxBonus":9,"perTrialBonus":0.5,"perTrialBonusThreshold":0.05,"exampleCost":0.01},"classroomParams":{"A":{"a":1,"b":4},"B":{"a":4,"b":1},"C":{"a":2,"b":8},"D":{"a":8,"b":2}},"conditions":["nonSeqFull","nonSeqPartial","seqNoFeedback","seqFeedback"],"classroomPairings":[["A","B"],["C","D"]],"coinWeights":[0.2,0.5,0.8],"subjectId":"AOWW3URQNRJ6U","assignmentId":"3M0NZ3JDP2K7BJ92ZFNMCMONNGE5ZP","hitId":"3FJ2RVH25ZSYKBA8MWMNC8NVPF629N","url":"https://gershmanlab.com/experiments/alicia/teaching/experiment/?hitId=3FJ2RVH25ZSYKBA8MWMNC8NVPF629N&workerId=AOWW3URQNRJ6U&assignmentId=3M0NZ3JDP2K7BJ92ZFNMCMONNGE5ZP&a=DZ0M7&tp_a=DZ0M7&b=3M0NZ3JDP2K7BJ92ZFNMCMONNGE5ZP&tp_b=3M0NZ3JDP2K7BJ92ZFNMCMONNGE5ZP&c=365717&tp_c=365717","heads":2,"tails":11,"studentIndex":17,"studentTrueHypers":{"a":1,"b":4},"studentGuess":0.16666666666666666,"delta":0.033333333333333354,"totalExamples":13,"bonus":0.37,"bonusSoFar":2.1},{"rt":6819,"response":{"heads":"12","tails":"2"},"type":"response","condition":"nonSeqFull","trueTheta":0.8,"classrooms":["C","D"],"studentTrueClassroom":"D","exampleSet":"first","trial_type":"survey-html-form","trial_index":159,"time_elapsed":1071186,"internal_node_id":"0.0-146.0-0.0","params":{"nStudents":24,"maxFlips":30,"completionMinutes":45,"basePay":8,"maxBonus":9,"perTrialBonus":0.5,"perTrialBonusThreshold":0.05,"exampleCost":0.01},"classroomParams":{"A":{"a":1,"b":4},"B":{"a":4,"b":1},"C":{"a":2,"b":8},"D":{"a":8,"b":2}},"conditions":["nonSeqFull","nonSeqPartial","seqNoFeedback","seqFeedback"],"classroomPairings":[["A","B"],["C","D"]],"coinWeights":[0.2,0.5,0.8],"subjectId":"AOWW3URQNRJ6U","assignmentId":"3M0NZ3JDP2K7BJ92ZFNMCMONNGE5ZP","hitId":"3FJ2RVH25ZSYKBA8MWMNC8NVPF629N","url":"https://gershmanlab.com/experiments/alicia/teaching/experiment/?hitId=3FJ2RVH25ZSYKBA8MWMNC8NVPF629N&workerId=AOWW3URQNRJ6U&assignmentId=3M0NZ3JDP2K7BJ92ZFNMCMONNGE5ZP&a=DZ0M7&tp_a=DZ0M7&b=3M0NZ3JDP2K7BJ92ZFNMCMONNGE5ZP&tp_b=3M0NZ3JDP2K7BJ92ZFNMCMONNGE5ZP&c=365717&tp_c=365717","heads":12,"tails":2,"studentIndex":18,"studentTrueHypers":{"a":8,"b":2},"studentGuess":0.8333333333333334,"delta":0.033333333333333326,"totalExamples":14,"bonus":0.36,"bonusSoFar":2.46},{"rt":17933,"response":{"heads":"13","tails":"7"},"type":"response","condition":"nonSeqFull","trueTheta":0.5,"classrooms":["C","D"],"studentTrueClassroom":"C","exampleSet":"first","trial_type":"survey-html-form","trial_index":165,"time_elapsed":1102419,"internal_node_id":"0.0-152.0-0.0","params":{"nStudents":24,"maxFlips":30,"completionMinutes":45,"basePay":8,"maxBonus":9,"perTrialBonus":0.5,"perTrialBonusThreshold":0.05,"exampleCost":0.01},"classroomParams":{"A":{"a":1,"b":4},"B":{"a":4,"b":1},"C":{"a":2,"b":8},"D":{"a":8,"b":2}},"conditions":["nonSeqFull","nonSeqPartial","seqNoFeedback","seqFeedback"],"classroomPairings":[["A","B"],["C","D"]],"coinWeights":[0.2,0.5,0.8],"subjectId":"AOWW3URQNRJ6U","assignmentId":"3M0NZ3JDP2K7BJ92ZFNMCMONNGE5ZP","hitId":"3FJ2RVH25ZSYKBA8MWMNC8NVPF629N","url":"https://gershmanlab.com/experiments/alicia/teaching/experiment/?hitId=3FJ2RVH25ZSYKBA8MWMNC8NVPF629N&workerId=AOWW3URQNRJ6U&assignmentId=3M0NZ3JDP2K7BJ92ZFNMCMONNGE5ZP&a=DZ0M7&tp_a=DZ0M7&b=3M0NZ3JDP2K7BJ92ZFNMCMONNGE5ZP&tp_b=3M0NZ3JDP2K7BJ92ZFNMCMONNGE5ZP&c=365717&tp_c=365717","heads":13,"tails":7,"studentIndex":19,"studentTrueHypers":{"a":2,"b":8},"studentGuess":0.5,"delta":0,"totalExamples":20,"bonus":0.3,"bonusSoFar":2.76},{"rt":32835,"response":{"heads":"2","tails":"10"},"type":"response","condition":"seqNoFeedback","trueTheta":0.2,"classrooms":["A","B"],"studentTrueClassroom":"B","exampleSet":"first","trial_type":"survey-html-form","trial_index":171,"time_elapsed":1148634,"internal_node_id":"0.0-158.0-0.0","params":{"nStudents":24,"maxFlips":30,"completionMinutes":45,"basePay":8,"maxBonus":9,"perTrialBonus":0.5,"perTrialBonusThreshold":0.05,"exampleCost":0.01},"classroomParams":{"A":{"a":1,"b":4},"B":{"a":4,"b":1},"C":{"a":2,"b":8},"D":{"a":8,"b":2}},"conditions":["nonSeqFull","nonSeqPartial","seqNoFeedback","seqFeedback"],"classroomPairings":[["A","B"],["C","D"]],"coinWeights":[0.2,0.5,0.8],"subjectId":"AOWW3URQNRJ6U","assignmentId":"3M0NZ3JDP2K7BJ92ZFNMCMONNGE5ZP","hitId":"3FJ2RVH25ZSYKBA8MWMNC8NVPF629N","url":"https://gershmanlab.com/experiments/alicia/teaching/experiment/?hitId=3FJ2RVH25ZSYKBA8MWMNC8NVPF629N&workerId=AOWW3URQNRJ6U&assignmentId=3M0NZ3JDP2K7BJ92ZFNMCMONNGE5ZP&a=DZ0M7&tp_a=DZ0M7&b=3M0NZ3JDP2K7BJ92ZFNMCMONNGE5ZP&tp_b=3M0NZ3JDP2K7BJ92ZFNMCMONNGE5ZP&c=365717&tp_c=365717","heads":2,"tails":10,"studentIndex":20,"studentTrueHypers":{"a":4,"b":1},"studentGuess":0.35294117647058826,"delta":0.15294117647058825,"totalExamples":12,"bonusSoFar":2.76},{"rt":12562,"response":{"heads":"2","tails":"11"},"type":"response","condition":"seqNoFeedback","trueTheta":0.2,"classrooms":["A","B"],"studentTrueClassroom":"B","exampleSet":"second","trial_type":"survey-html-form","trial_index":174,"time_elapsed":1167452,"internal_node_id":"0.0-161.0-0.0","params":{"nStudents":24,"maxFlips":30,"completionMinutes":45,"basePay":8,"maxBonus":9,"perTrialBonus":0.5,"perTrialBonusThreshold":0.05,"exampleCost":0.01},"classroomParams":{"A":{"a":1,"b":4},"B":{"a":4,"b":1},"C":{"a":2,"b":8},"D":{"a":8,"b":2}},"conditions":["nonSeqFull","nonSeqPartial","seqNoFeedback","seqFeedback"],"classroomPairings":[["A","B"],["C","D"]],"coinWeights":[0.2,0.5,0.8],"subjectId":"AOWW3URQNRJ6U","assignmentId":"3M0NZ3JDP2K7BJ92ZFNMCMONNGE5ZP","hitId":"3FJ2RVH25ZSYKBA8MWMNC8NVPF629N","url":"https://gershmanlab.com/experiments/alicia/teaching/experiment/?hitId=3FJ2RVH25ZSYKBA8MWMNC8NVPF629N&workerId=AOWW3URQNRJ6U&assignmentId=3M0NZ3JDP2K7BJ92ZFNMCMONNGE5ZP&a=DZ0M7&tp_a=DZ0M7&b=3M0NZ3JDP2K7BJ92ZFNMCMONNGE5ZP&tp_b=3M0NZ3JDP2K7BJ92ZFNMCMONNGE5ZP&c=365717&tp_c=365717","firstResponseHeads":2,"firstResponseTails":10,"secondResponseHeads":2,"secondResponseTails":11,"totalHeads":4,"totalTails":21,"studentIndex":20,"studentTrueHypers":{"a":4,"b":1},"studentGuess":0.26666666666666666,"delta":0.06666666666666665,"bonus":0,"bonusSoFar":2.76,"totalExamples":25},{"rt":5844,"response":{"heads":"10","tails":"2"},"type":"response","condition":"nonSeqFull","trueTheta":0.8,"classrooms":["A","B"],"studentTrueClassroom":"B","exampleSet":"first","trial_type":"survey-html-form","trial_index":180,"time_elapsed":1220651,"internal_node_id":"0.0-167.0-0.0","params":{"nStudents":24,"maxFlips":30,"completionMinutes":45,"basePay":8,"maxBonus":9,"perTrialBonus":0.5,"perTrialBonusThreshold":0.05,"exampleCost":0.01},"classroomParams":{"A":{"a":1,"b":4},"B":{"a":4,"b":1},"C":{"a":2,"b":8},"D":{"a":8,"b":2}},"conditions":["nonSeqFull","nonSeqPartial","seqNoFeedback","seqFeedback"],"classroomPairings":[["A","B"],["C","D"]],"coinWeights":[0.2,0.5,0.8],"subjectId":"AOWW3URQNRJ6U","assignmentId":"3M0NZ3JDP2K7BJ92ZFNMCMONNGE5ZP","hitId":"3FJ2RVH25ZSYKBA8MWMNC8NVPF629N","url":"https://gershmanlab.com/experiments/alicia/teaching/experiment/?hitId=3FJ2RVH25ZSYKBA8MWMNC8NVPF629N&workerId=AOWW3URQNRJ6U&assignmentId=3M0NZ3JDP2K7BJ92ZFNMCMONNGE5ZP&a=DZ0M7&tp_a=DZ0M7&b=3M0NZ3JDP2K7BJ92ZFNMCMONNGE5ZP&tp_b=3M0NZ3JDP2K7BJ92ZFNMCMONNGE5ZP&c=365717&tp_c=365717","heads":10,"tails":2,"studentIndex":21,"studentTrueHypers":{"a":4,"b":1},"studentGuess":0.8235294117647058,"delta":0.0235294117647058,"totalExamples":12,"bonus":0.38,"bonusSoFar":3.14},{"rt":7377,"response":{"heads":"7","tails":"7"},"type":"response","condition":"seqNoFeedback","trueTheta":0.5,"classrooms":["A","B"],"studentTrueClassroom":"B","exampleSet":"first","trial_type":"survey-html-form","trial_index":186,"time_elapsed":1330628,"internal_node_id":"0.0-173.0-0.0","params":{"nStudents":24,"maxFlips":30,"completionMinutes":45,"basePay":8,"maxBonus":9,"perTrialBonus":0.5,"perTrialBonusThreshold":0.05,"exampleCost":0.01},"classroomParams":{"A":{"a":1,"b":4},"B":{"a":4,"b":1},"C":{"a":2,"b":8},"D":{"a":8,"b":2}},"conditions":["nonSeqFull","nonSeqPartial","seqNoFeedback","seqFeedback"],"classroomPairings":[["A","B"],["C","D"]],"coinWeights":[0.2,0.5,0.8],"subjectId":"AOWW3URQNRJ6U","assignmentId":"3M0NZ3JDP2K7BJ92ZFNMCMONNGE5ZP","hitId":"3FJ2RVH25ZSYKBA8MWMNC8NVPF629N","url":"https://gershmanlab.com/experiments/alicia/teaching/experiment/?hitId=3FJ2RVH25ZSYKBA8MWMNC8NVPF629N&workerId=AOWW3URQNRJ6U&assignmentId=3M0NZ3JDP2K7BJ92ZFNMCMONNGE5ZP&a=DZ0M7&tp_a=DZ0M7&b=3M0NZ3JDP2K7BJ92ZFNMCMONNGE5ZP&tp_b=3M0NZ3JDP2K7BJ92ZFNMCMONNGE5ZP&c=365717&tp_c=365717","heads":7,"tails":7,"studentIndex":22,"studentTrueHypers":{"a":4,"b":1},"studentGuess":0.5789473684210527,"delta":0.07894736842105265,"totalExamples":14,"bonusSoFar":3.14},{"rt":5445,"response":{"heads":"7","tails":"6"},"type":"response","condition":"seqNoFeedback","trueTheta":0.5,"classrooms":["A","B"],"studentTrueClassroom":"B","exampleSet":"second","trial_type":"survey-html-form","trial_index":189,"time_elapsed":1343579,"internal_node_id":"0.0-176.0-0.0","params":{"nStudents":24,"maxFlips":30,"completionMinutes":45,"basePay":8,"maxBonus":9,"perTrialBonus":0.5,"perTrialBonusThreshold":0.05,"exampleCost":0.01},"classroomParams":{"A":{"a":1,"b":4},"B":{"a":4,"b":1},"C":{"a":2,"b":8},"D":{"a":8,"b":2}},"conditions":["nonSeqFull","nonSeqPartial","seqNoFeedback","seqFeedback"],"classroomPairings":[["A","B"],["C","D"]],"coinWeights":[0.2,0.5,0.8],"subjectId":"AOWW3URQNRJ6U","assignmentId":"3M0NZ3JDP2K7BJ92ZFNMCMONNGE5ZP","hitId":"3FJ2RVH25ZSYKBA8MWMNC8NVPF629N","url":"https://gershmanlab.com/experiments/alicia/teaching/experiment/?hitId=3FJ2RVH25ZSYKBA8MWMNC8NVPF629N&workerId=AOWW3URQNRJ6U&assignmentId=3M0NZ3JDP2K7BJ92ZFNMCMONNGE5ZP&a=DZ0M7&tp_a=DZ0M7&b=3M0NZ3JDP2K7BJ92ZFNMCMONNGE5ZP&tp_b=3M0NZ3JDP2K7BJ92ZFNMCMONNGE5ZP&c=365717&tp_c=365717","firstResponseHeads":7,"firstResponseTails":7,"secondResponseHeads":7,"secondResponseTails":6,"totalHeads":14,"totalTails":13,"studentIndex":22,"studentTrueHypers":{"a":4,"b":1},"studentGuess":0.5625,"delta":0.0625,"bonus":0,"bonusSoFar":3.14,"totalExamples":27},{"rt":5143,"response":{"heads":"8","tails":"6"},"type":"response","condition":"seqFeedback","trueTheta":0.5,"classrooms":["A","B"],"studentTrueClassroom":"A","exampleSet":"first","trial_type":"survey-html-form","trial_index":195,"time_elapsed":1360806,"internal_node_id":"0.0-182.0-0.0","params":{"nStudents":24,"maxFlips":30,"completionMinutes":45,"basePay":8,"maxBonus":9,"perTrialBonus":0.5,"perTrialBonusThreshold":0.05,"exampleCost":0.01},"classroomParams":{"A":{"a":1,"b":4},"B":{"a":4,"b":1},"C":{"a":2,"b":8},"D":{"a":8,"b":2}},"conditions":["nonSeqFull","nonSeqPartial","seqNoFeedback","seqFeedback"],"classroomPairings":[["A","B"],["C","D"]],"coinWeights":[0.2,0.5,0.8],"subjectId":"AOWW3URQNRJ6U","assignmentId":"3M0NZ3JDP2K7BJ92ZFNMCMONNGE5ZP","hitId":"3FJ2RVH25ZSYKBA8MWMNC8NVPF629N","url":"https://gershmanlab.com/experiments/alicia/teaching/experiment/?hitId=3FJ2RVH25ZSYKBA8MWMNC8NVPF629N&workerId=AOWW3URQNRJ6U&assignmentId=3M0NZ3JDP2K7BJ92ZFNMCMONNGE5ZP&a=DZ0M7&tp_a=DZ0M7&b=3M0NZ3JDP2K7BJ92ZFNMCMONNGE5ZP&tp_b=3M0NZ3JDP2K7BJ92ZFNMCMONNGE5ZP&c=365717&tp_c=365717","heads":8,"tails":6,"studentIndex":23,"studentTrueHypers":{"a":1,"b":4},"studentGuess":0.47368421052631576,"delta":0.026315789473684237,"totalExamples":14,"bonusSoFar":3.14},{"rt":6267,"response":{"heads":"8","tails":"6"},"type":"response","condition":"seqFeedback","trueTheta":0.5,"classrooms":["A","B"],"studentTrueClassroom":"A","exampleSet":"second","trial_type":"survey-html-form","trial_index":199,"time_elapsed":1379044,"internal_node_id":"0.0-186.0-0.0","params":{"nStudents":24,"maxFlips":30,"completionMinutes":45,"basePay":8,"maxBonus":9,"perTrialBonus":0.5,"perTrialBonusThreshold":0.05,"exampleCost":0.01},"classroomParams":{"A":{"a":1,"b":4},"B":{"a":4,"b":1},"C":{"a":2,"b":8},"D":{"a":8,"b":2}},"conditions":["nonSeqFull","nonSeqPartial","seqNoFeedback","seqFeedback"],"classroomPairings":[["A","B"],["C","D"]],"coinWeights":[0.2,0.5,0.8],"subjectId":"AOWW3URQNRJ6U","assignmentId":"3M0NZ3JDP2K7BJ92ZFNMCMONNGE5ZP","hitId":"3FJ2RVH25ZSYKBA8MWMNC8NVPF629N","url":"https://gershmanlab.com/experiments/alicia/teaching/experiment/?hitId=3FJ2RVH25ZSYKBA8MWMNC8NVPF629N&workerId=AOWW3URQNRJ6U&assignmentId=3M0NZ3JDP2K7BJ92ZFNMCMONNGE5ZP&a=DZ0M7&tp_a=DZ0M7&b=3M0NZ3JDP2K7BJ92ZFNMCMONNGE5ZP&tp_b=3M0NZ3JDP2K7BJ92ZFNMCMONNGE5ZP&c=365717&tp_c=365717","firstResponseHeads":8,"firstResponseTails":6,"secondResponseHeads":8,"secondResponseTails":6,"totalHeads":16,"totalTails":12,"studentIndex":23,"studentTrueHypers":{"a":1,"b":4},"studentGuess":0.5151515151515151,"delta":0.015151515151515138,"bonus":0.22,"bonusSoFar":3.36,"totalExamples":28},{"rt":17098,"response":{"gender":"male","age":"30","understood":"yes","comments":"No comments, thank you."},"type":"response","trial_type":"survey-html-form","trial_index":203,"time_elapsed":1404887,"internal_node_id":"0.0-191.0","params":{"nStudents":24,"maxFlips":30,"completionMinutes":45,"basePay":8,"maxBonus":9,"perTrialBonus":0.5,"perTrialBonusThreshold":0.05,"exampleCost":0.01},"classroomParams":{"A":{"a":1,"b":4},"B":{"a":4,"b":1},"C":{"a":2,"b":8},"D":{"a":8,"b":2}},"conditions":["nonSeqFull","nonSeqPartial","seqNoFeedback","seqFeedback"],"classroomPairings":[["A","B"],["C","D"]],"coinWeights":[0.2,0.5,0.8],"subjectId":"AOWW3URQNRJ6U","assignmentId":"3M0NZ3JDP2K7BJ92ZFNMCMONNGE5ZP","hitId":"3FJ2RVH25ZSYKBA8MWMNC8NVPF629N","url":"https://gershmanlab.com/experiments/alicia/teaching/experiment/?hitId=3FJ2RVH25ZSYKBA8MWMNC8NVPF629N&workerId=AOWW3URQNRJ6U&assignmentId=3M0NZ3JDP2K7BJ92ZFNMCMONNGE5ZP&a=DZ0M7&tp_a=DZ0M7&b=3M0NZ3JDP2K7BJ92ZFNMCMONNGE5ZP&tp_b=3M0NZ3JDP2K7BJ92ZFNMCMONNGE5ZP&c=365717&tp_c=365717","totalBonus":3.36}]