[{"rt":21534,"response":{"heads":"0","tails":"6"},"type":"response","condition":"nonSeqFull","trueTheta":0.5,"classrooms":["C","D"],"studentTrueClassroom":"D","exampleSet":"first","trial_type":"survey-html-form","trial_index":7,"time_elapsed":293795,"internal_node_id":"0.0-6.0-0.0","params":{"nStudents":24,"maxFlips":30,"completionMinutes":45,"basePay":8,"maxBonus":9,"perTrialBonus":0.5,"perTrialBonusThreshold":0.05,"exampleCost":0.01},"classroomParams":{"A":{"a":1,"b":4},"B":{"a":4,"b":1},"C":{"a":2,"b":8},"D":{"a":8,"b":2}},"conditions":["nonSeqFull","nonSeqPartial","seqNoFeedback","seqFeedback"],"classroomPairings":[["A","B"],["C","D"]],"coinWeights":[0.2,0.5,0.8],"subjectId":"ARLGZWN6W91WD","assignmentId":"3ZQIG0FLQF2KFIJCUJLSHGO4J2BVWV","hitId":"3FJ2RVH25ZSYKBA8MWMNC8NVPF629N","url":"https://gershmanlab.com/experiments/alicia/teaching/experiment/?hitId=3FJ2RVH25ZSYKBA8MWMNC8NVPF629N&workerId=ARLGZWN6W91WD&assignmentId=3ZQIG0FLQF2KFIJCUJLSHGO4J2BVWV&a=LGQZ7&tp_a=LGQZ7&b=3ZQIG0FLQF2KFIJCUJLSHGO4J2BVWV&tp_b=3ZQIG0FLQF2KFIJCUJLSHGO4J2BVWV&c=365717&tp_c=365717","heads":0,"tails":6,"studentIndex":0,"studentTrueHypers":{"a":8,"b":2},"studentGuess":0.5,"delta":0,"totalExamples":6,"bonus":0.44,"bonusSoFar":0.44},{"rt":18411,"response":{"heads":"3","tails":"3"},"type":"response","condition":"nonSeqPartial","trueTheta":0.5,"classrooms":["A","B"],"studentTrueClassroom":"B","exampleSet":"first","trial_type":"survey-html-form","trial_index":13,"time_elapsed":326651,"internal_node_id":"0.0-12.0-0.0","params":{"nStudents":24,"maxFlips":30,"completionMinutes":45,"basePay":8,"maxBonus":9,"perTrialBonus":0.5,"perTrialBonusThreshold":0.05,"exampleCost":0.01},"classroomParams":{"A":{"a":1,"b":4},"B":{"a":4,"b":1},"C":{"a":2,"b":8},"D":{"a":8,"b":2}},"conditions":["nonSeqFull","nonSeqPartial","seqNoFeedback","seqFeedback"],"classroomPairings":[["A","B"],["C","D"]],"coinWeights":[0.2,0.5,0.8],"subjectId":"ARLGZWN6W91WD","assignmentId":"3ZQIG0FLQF2KFIJCUJLSHGO4J2BVWV","hitId":"3FJ2RVH25ZSYKBA8MWMNC8NVPF629N","url":"https://gershmanlab.com/experiments/alicia/teaching/experiment/?hitId=3FJ2RVH25ZSYKBA8MWMNC8NVPF629N&workerId=ARLGZWN6W91WD&assignmentId=3ZQIG0FLQF2KFIJCUJLSHGO4J2BVWV&a=LGQZ7&tp_a=LGQZ7&b=3ZQIG0FLQF2KFIJCUJLSHGO4J2BVWV&tp_b=3ZQIG0FLQF2KFIJCUJLSHGO4J2BVWV&c=365717&tp_c=365717","heads":3,"tails":3,"studentIndex":1,"studentTrueHypers":{"a":4,"b":1},"studentGuess":0.6363636363636364,"delta":0.13636363636363635,"totalExamples":6,"bonus":0,"bonusSoFar":0.44},{"rt":8909,"response":{"heads":"0","tails":"3"},"type":"response","condition":"nonSeqFull","trueTheta":0.5,"classrooms":["A","B"],"studentTrueClassroom":"B","exampleSet":"first","trial_type":"survey-html-form","trial_index":19,"time_elapsed":363404,"internal_node_id":"0.0-18.0-0.0","params":{"nStudents":24,"maxFlips":30,"completionMinutes":45,"basePay":8,"maxBonus":9,"perTrialBonus":0.5,"perTrialBonusThreshold":0.05,"exampleCost":0.01},"classroomParams":{"A":{"a":1,"b":4},"B":{"a":4,"b":1},"C":{"a":2,"b":8},"D":{"a":8,"b":2}},"conditions":["nonSeqFull","nonSeqPartial","seqNoFeedback","seqFeedback"],"classroomPairings":[["A","B"],["C","D"]],"coinWeights":[0.2,0.5,0.8],"subjectId":"ARLGZWN6W91WD","assignmentId":"3ZQIG0FLQF2KFIJCUJLSHGO4J2BVWV","hitId":"3FJ2RVH25ZSYKBA8MWMNC8NVPF629N","url":"https://gershmanlab.com/experiments/alicia/teaching/experiment/?hitId=3FJ2RVH25ZSYKBA8MWMNC8NVPF629N&workerId=ARLGZWN6W91WD&assignmentId=3ZQIG0FLQF2KFIJCUJLSHGO4J2BVWV&a=LGQZ7&tp_a=LGQZ7&b=3ZQIG0FLQF2KFIJCUJLSHGO4J2BVWV&tp_b=3ZQIG0FLQF2KFIJCUJLSHGO4J2BVWV&c=365717&tp_c=365717","heads":0,"tails":3,"studentIndex":2,"studentTrueHypers":{"a":4,"b":1},"studentGuess":0.5,"delta":0,"totalExamples":3,"bonus":0.47,"bonusSoFar":0.91},{"rt":10660,"response":{"heads":"3","tails":"0"},"type":"response","condition":"seqFeedback","trueTheta":0.5,"classrooms":["C","D"],"studentTrueClassroom":"D","exampleSet":"first","trial_type":"survey-html-form","trial_index":25,"time_elapsed":391700,"internal_node_id":"0.0-24.0-0.0","params":{"nStudents":24,"maxFlips":30,"completionMinutes":45,"basePay":8,"maxBonus":9,"perTrialBonus":0.5,"perTrialBonusThreshold":0.05,"exampleCost":0.01},"classroomParams":{"A":{"a":1,"b":4},"B":{"a":4,"b":1},"C":{"a":2,"b":8},"D":{"a":8,"b":2}},"conditions":["nonSeqFull","nonSeqPartial","seqNoFeedback","seqFeedback"],"classroomPairings":[["A","B"],["C","D"]],"coinWeights":[0.2,0.5,0.8],"subjectId":"ARLGZWN6W91WD","assignmentId":"3ZQIG0FLQF2KFIJCUJLSHGO4J2BVWV","hitId":"3FJ2RVH25ZSYKBA8MWMNC8NVPF629N","url":"https://gershmanlab.com/experiments/alicia/teaching/experiment/?hitId=3FJ2RVH25ZSYKBA8MWMNC8NVPF629N&workerId=ARLGZWN6W91WD&assignmentId=3ZQIG0FLQF2KFIJCUJLSHGO4J2BVWV&a=LGQZ7&tp_a=LGQZ7&b=3ZQIG0FLQF2KFIJCUJLSHGO4J2BVWV&tp_b=3ZQIG0FLQF2KFIJCUJLSHGO4J2BVWV&c=365717&tp_c=365717","heads":3,"tails":0,"studentIndex":3,"studentTrueHypers":{"a":8,"b":2},"studentGuess":0.8461538461538461,"delta":0.34615384615384615,"totalExamples":3,"bonusSoFar":0.91},{"rt":3949,"response":{"heads":"3","tails":"3"},"type":"response","condition":"seqFeedback","trueTheta":0.5,"classrooms":["C","D"],"studentTrueClassroom":"D","exampleSet":"second","trial_type":"survey-html-form","trial_index":29,"time_elapsed":405093,"internal_node_id":"0.0-28.0-0.0","params":{"nStudents":24,"maxFlips":30,"completionMinutes":45,"basePay":8,"maxBonus":9,"perTrialBonus":0.5,"perTrialBonusThreshold":0.05,"exampleCost":0.01},"classroomParams":{"A":{"a":1,"b":4},"B":{"a":4,"b":1},"C":{"a":2,"b":8},"D":{"a":8,"b":2}},"conditions":["nonSeqFull","nonSeqPartial","seqNoFeedback","seqFeedback"],"classroomPairings":[["A","B"],["C","D"]],"coinWeights":[0.2,0.5,0.8],"subjectId":"ARLGZWN6W91WD","assignmentId":"3ZQIG0FLQF2KFIJCUJLSHGO4J2BVWV","hitId":"3FJ2RVH25ZSYKBA8MWMNC8NVPF629N","url":"https://gershmanlab.com/experiments/alicia/teaching/experiment/?hitId=3FJ2RVH25ZSYKBA8MWMNC8NVPF629N&workerId=ARLGZWN6W91WD&assignmentId=3ZQIG0FLQF2KFIJCUJLSHGO4J2BVWV&a=LGQZ7&tp_a=LGQZ7&b=3ZQIG0FLQF2KFIJCUJLSHGO4J2BVWV&tp_b=3ZQIG0FLQF2KFIJCUJLSHGO4J2BVWV&c=365717&tp_c=365717","firstResponseHeads":3,"firstResponseTails":0,"secondResponseHeads":3,"secondResponseTails":3,"totalHeads":6,"totalTails":3,"studentIndex":3,"studentTrueHypers":{"a":8,"b":2},"studentGuess":0.7368421052631579,"delta":0.23684210526315785,"bonus":0,"bonusSoFar":0.91,"totalExamples":9},{"rt":4487,"response":{"heads":"3","tails":"3"},"type":"response","condition":"seqNoFeedback","trueTheta":0.8,"classrooms":["C","D"],"studentTrueClassroom":"C","exampleSet":"first","trial_type":"survey-html-form","trial_index":35,"time_elapsed":434740,"internal_node_id":"0.0-34.0-0.0","params":{"nStudents":24,"maxFlips":30,"completionMinutes":45,"basePay":8,"maxBonus":9,"perTrialBonus":0.5,"perTrialBonusThreshold":0.05,"exampleCost":0.01},"classroomParams":{"A":{"a":1,"b":4},"B":{"a":4,"b":1},"C":{"a":2,"b":8},"D":{"a":8,"b":2}},"conditions":["nonSeqFull","nonSeqPartial","seqNoFeedback","seqFeedback"],"classroomPairings":[["A","B"],["C","D"]],"coinWeights":[0.2,0.5,0.8],"subjectId":"ARLGZWN6W91WD","assignmentId":"3ZQIG0FLQF2KFIJCUJLSHGO4J2BVWV","hitId":"3FJ2RVH25ZSYKBA8MWMNC8NVPF629N","url":"https://gershmanlab.com/experiments/alicia/teaching/experiment/?hitId=3FJ2RVH25ZSYKBA8MWMNC8NVPF629N&workerId=ARLGZWN6W91WD&assignmentId=3ZQIG0FLQF2KFIJCUJLSHGO4J2BVWV&a=LGQZ7&tp_a=LGQZ7&b=3ZQIG0FLQF2KFIJCUJLSHGO4J2BVWV&tp_b=3ZQIG0FLQF2KFIJCUJLSHGO4J2BVWV&c=365717&tp_c=365717","heads":3,"tails":3,"studentIndex":4,"studentTrueHypers":{"a":2,"b":8},"studentGuess":0.3125,"delta":0.48750000000000004,"totalExamples":6,"bonusSoFar":0.91},{"rt":4672,"response":{"heads":"3","tails":"3"},"type":"response","condition":"seqNoFeedback","trueTheta":0.8,"classrooms":["C","D"],"studentTrueClassroom":"C","exampleSet":"second","trial_type":"survey-html-form","trial_index":38,"time_elapsed":444945,"internal_node_id":"0.0-37.0-0.0","params":{"nStudents":24,"maxFlips":30,"completionMinutes":45,"basePay":8,"maxBonus":9,"perTrialBonus":0.5,"perTrialBonusThreshold":0.05,"exampleCost":0.01},"classroomParams":{"A":{"a":1,"b":4},"B":{"a":4,"b":1},"C":{"a":2,"b":8},"D":{"a":8,"b":2}},"conditions":["nonSeqFull","nonSeqPartial","seqNoFeedback","seqFeedback"],"classroomPairings":[["A","B"],["C","D"]],"coinWeights":[0.2,0.5,0.8],"subjectId":"ARLGZWN6W91WD","assignmentId":"3ZQIG0FLQF2KFIJCUJLSHGO4J2BVWV","hitId":"3FJ2RVH25ZSYKBA8MWMNC8NVPF629N","url":"https://gershmanlab.com/experiments/alicia/teaching/experiment/?hitId=3FJ2RVH25ZSYKBA8MWMNC8NVPF629N&workerId=ARLGZWN6W91WD&assignmentId=3ZQIG0FLQF2KFIJCUJLSHGO4J2BVWV&a=LGQZ7&tp_a=LGQZ7&b=3ZQIG0FLQF2KFIJCUJLSHGO4J2BVWV&tp_b=3ZQIG0FLQF2KFIJCUJLSHGO4J2BVWV&c=365717&tp_c=365717","firstResponseHeads":3,"firstResponseTails":3,"secondResponseHeads":3,"secondResponseTails":3,"totalHeads":6,"totalTails":6,"studentIndex":4,"studentTrueHypers":{"a":2,"b":8},"studentGuess":0.36363636363636365,"delta":0.4363636363636364,"bonus":0,"bonusSoFar":0.91,"totalExamples":12},{"rt":5719,"response":{"heads":"2","tails":"2"},"type":"response","condition":"seqFeedback","trueTheta":0.5,"classrooms":["A","B"],"studentTrueClassroom":"A","exampleSet":"first","trial_type":"survey-html-form","trial_index":44,"time_elapsed":464910,"internal_node_id":"0.0-43.0-0.0","params":{"nStudents":24,"maxFlips":30,"completionMinutes":45,"basePay":8,"maxBonus":9,"perTrialBonus":0.5,"perTrialBonusThreshold":0.05,"exampleCost":0.01},"classroomParams":{"A":{"a":1,"b":4},"B":{"a":4,"b":1},"C":{"a":2,"b":8},"D":{"a":8,"b":2}},"conditions":["nonSeqFull","nonSeqPartial","seqNoFeedback","seqFeedback"],"classroomPairings":[["A","B"],["C","D"]],"coinWeights":[0.2,0.5,0.8],"subjectId":"ARLGZWN6W91WD","assignmentId":"3ZQIG0FLQF2KFIJCUJLSHGO4J2BVWV","hitId":"3FJ2RVH25ZSYKBA8MWMNC8NVPF629N","url":"https://gershmanlab.com/experiments/alicia/teaching/experiment/?hitId=3FJ2RVH25ZSYKBA8MWMNC8NVPF629N&workerId=ARLGZWN6W91WD&assignmentId=3ZQIG0FLQF2KFIJCUJLSHGO4J2BVWV&a=LGQZ7&tp_a=LGQZ7&b=3ZQIG0FLQF2KFIJCUJLSHGO4J2BVWV&tp_b=3ZQIG0FLQF2KFIJCUJLSHGO4J2BVWV&c=365717&tp_c=365717","heads":2,"tails":2,"studentIndex":5,"studentTrueHypers":{"a":1,"b":4},"studentGuess":0.3333333333333333,"delta":0.16666666666666669,"totalExamples":4,"bonusSoFar":0.91},{"rt":3365,"response":{"heads":"2","tails":"2"},"type":"response","condition":"seqFeedback","trueTheta":0.5,"classrooms":["A","B"],"studentTrueClassroom":"A","exampleSet":"second","trial_type":"survey-html-form","trial_index":48,"time_elapsed":481006,"internal_node_id":"0.0-47.0-0.0","params":{"nStudents":24,"maxFlips":30,"completionMinutes":45,"basePay":8,"maxBonus":9,"perTrialBonus":0.5,"perTrialBonusThreshold":0.05,"exampleCost":0.01},"classroomParams":{"A":{"a":1,"b":4},"B":{"a":4,"b":1},"C":{"a":2,"b":8},"D":{"a":8,"b":2}},"conditions":["nonSeqFull","nonSeqPartial","seqNoFeedback","seqFeedback"],"classroomPairings":[["A","B"],["C","D"]],"coinWeights":[0.2,0.5,0.8],"subjectId":"ARLGZWN6W91WD","assignmentId":"3ZQIG0FLQF2KFIJCUJLSHGO4J2BVWV","hitId":"3FJ2RVH25ZSYKBA8MWMNC8NVPF629N","url":"https://gershmanlab.com/experiments/alicia/teaching/experiment/?hitId=3FJ2RVH25ZSYKBA8MWMNC8NVPF629N&workerId=ARLGZWN6W91WD&assignmentId=3ZQIG0FLQF2KFIJCUJLSHGO4J2BVWV&a=LGQZ7&tp_a=LGQZ7&b=3ZQIG0FLQF2KFIJCUJLSHGO4J2BVWV&tp_b=3ZQIG0FLQF2KFIJCUJLSHGO4J2BVWV&c=365717&tp_c=365717","firstResponseHeads":2,"firstResponseTails":2,"secondResponseHeads":2,"secondResponseTails":2,"totalHeads":4,"totalTails":4,"studentIndex":5,"studentTrueHypers":{"a":1,"b":4},"studentGuess":0.38461538461538464,"delta":0.11538461538461536,"bonus":0,"bonusSoFar":0.91,"totalExamples":8},{"rt":12233,"response":{"heads":"0","tails":"3"},"type":"response","condition":"nonSeqPartial","trueTheta":0.2,"classrooms":["A","B"],"studentTrueClassroom":"A","exampleSet":"first","trial_type":"survey-html-form","trial_index":54,"time_elapsed":513748,"internal_node_id":"0.0-53.0-0.0","params":{"nStudents":24,"maxFlips":30,"completionMinutes":45,"basePay":8,"maxBonus":9,"perTrialBonus":0.5,"perTrialBonusThreshold":0.05,"exampleCost":0.01},"classroomParams":{"A":{"a":1,"b":4},"B":{"a":4,"b":1},"C":{"a":2,"b":8},"D":{"a":8,"b":2}},"conditions":["nonSeqFull","nonSeqPartial","seqNoFeedback","seqFeedback"],"classroomPairings":[["A","B"],["C","D"]],"coinWeights":[0.2,0.5,0.8],"subjectId":"ARLGZWN6W91WD","assignmentId":"3ZQIG0FLQF2KFIJCUJLSHGO4J2BVWV","hitId":"3FJ2RVH25ZSYKBA8MWMNC8NVPF629N","url":"https://gershmanlab.com/experiments/alicia/teaching/experiment/?hitId=3FJ2RVH25ZSYKBA8MWMNC8NVPF629N&workerId=ARLGZWN6W91WD&assignmentId=3ZQIG0FLQF2KFIJCUJLSHGO4J2BVWV&a=LGQZ7&tp_a=LGQZ7&b=3ZQIG0FLQF2KFIJCUJLSHGO4J2BVWV&tp_b=3ZQIG0FLQF2KFIJCUJLSHGO4J2BVWV&c=365717&tp_c=365717","heads":0,"tails":3,"studentIndex":6,"studentTrueHypers":{"a":1,"b":4},"studentGuess":0.125,"delta":0.07500000000000001,"totalExamples":3,"bonus":0,"bonusSoFar":0.91},{"rt":7407,"response":{"heads":"0","tails":"3"},"type":"response","condition":"nonSeqPartial","trueTheta":0.2,"classrooms":["C","D"],"studentTrueClassroom":"C","exampleSet":"first","trial_type":"survey-html-form","trial_index":60,"time_elapsed":550015,"internal_node_id":"0.0-59.0-0.0","params":{"nStudents":24,"maxFlips":30,"completionMinutes":45,"basePay":8,"maxBonus":9,"perTrialBonus":0.5,"perTrialBonusThreshold":0.05,"exampleCost":0.01},"classroomParams":{"A":{"a":1,"b":4},"B":{"a":4,"b":1},"C":{"a":2,"b":8},"D":{"a":8,"b":2}},"conditions":["nonSeqFull","nonSeqPartial","seqNoFeedback","seqFeedback"],"classroomPairings":[["A","B"],["C","D"]],"coinWeights":[0.2,0.5,0.8],"subjectId":"ARLGZWN6W91WD","assignmentId":"3ZQIG0FLQF2KFIJCUJLSHGO4J2BVWV","hitId":"3FJ2RVH25ZSYKBA8MWMNC8NVPF629N","url":"https://gershmanlab.com/experiments/alicia/teaching/experiment/?hitId=3FJ2RVH25ZSYKBA8MWMNC8NVPF629N&workerId=ARLGZWN6W91WD&assignmentId=3ZQIG0FLQF2KFIJCUJLSHGO4J2BVWV&a=LGQZ7&tp_a=LGQZ7&b=3ZQIG0FLQF2KFIJCUJLSHGO4J2BVWV&tp_b=3ZQIG0FLQF2KFIJCUJLSHGO4J2BVWV&c=365717&tp_c=365717","heads":0,"tails":3,"studentIndex":7,"studentTrueHypers":{"a":2,"b":8},"studentGuess":0.15384615384615385,"delta":0.046153846153846156,"totalExamples":3,"bonus":0.47,"bonusSoFar":1.38},{"rt":7654,"response":{"heads":"2","tails":"2"},"type":"response","condition":"nonSeqPartial","trueTheta":0.5,"classrooms":["C","D"],"studentTrueClassroom":"C","exampleSet":"first","trial_type":"survey-html-form","trial_index":66,"time_elapsed":581061,"internal_node_id":"0.0-65.0-0.0","params":{"nStudents":24,"maxFlips":30,"completionMinutes":45,"basePay":8,"maxBonus":9,"perTrialBonus":0.5,"perTrialBonusThreshold":0.05,"exampleCost":0.01},"classroomParams":{"A":{"a":1,"b":4},"B":{"a":4,"b":1},"C":{"a":2,"b":8},"D":{"a":8,"b":2}},"conditions":["nonSeqFull","nonSeqPartial","seqNoFeedback","seqFeedback"],"classroomPairings":[["A","B"],["C","D"]],"coinWeights":[0.2,0.5,0.8],"subjectId":"ARLGZWN6W91WD","assignmentId":"3ZQIG0FLQF2KFIJCUJLSHGO4J2BVWV","hitId":"3FJ2RVH25ZSYKBA8MWMNC8NVPF629N","url":"https://gershmanlab.com/experiments/alicia/teaching/experiment/?hitId=3FJ2RVH25ZSYKBA8MWMNC8NVPF629N&workerId=ARLGZWN6W91WD&assignmentId=3ZQIG0FLQF2KFIJCUJLSHGO4J2BVWV&a=LGQZ7&tp_a=LGQZ7&b=3ZQIG0FLQF2KFIJCUJLSHGO4J2BVWV&tp_b=3ZQIG0FLQF2KFIJCUJLSHGO4J2BVWV&c=365717&tp_c=365717","heads":2,"tails":2,"studentIndex":8,"studentTrueHypers":{"a":2,"b":8},"studentGuess":0.2857142857142857,"delta":0.2142857142857143,"totalExamples":4,"bonus":0,"bonusSoFar":1.38},{"rt":5672,"response":{"heads":"2","tails":"2"},"type":"response","condition":"seqNoFeedback","trueTheta":0.5,"classrooms":["A","B"],"studentTrueClassroom":"A","exampleSet":"first","trial_type":"survey-html-form","trial_index":72,"time_elapsed":606402,"internal_node_id":"0.0-71.0-0.0","params":{"nStudents":24,"maxFlips":30,"completionMinutes":45,"basePay":8,"maxBonus":9,"perTrialBonus":0.5,"perTrialBonusThreshold":0.05,"exampleCost":0.01},"classroomParams":{"A":{"a":1,"b":4},"B":{"a":4,"b":1},"C":{"a":2,"b":8},"D":{"a":8,"b":2}},"conditions":["nonSeqFull","nonSeqPartial","seqNoFeedback","seqFeedback"],"classroomPairings":[["A","B"],["C","D"]],"coinWeights":[0.2,0.5,0.8],"subjectId":"ARLGZWN6W91WD","assignmentId":"3ZQIG0FLQF2KFIJCUJLSHGO4J2BVWV","hitId":"3FJ2RVH25ZSYKBA8MWMNC8NVPF629N","url":"https://gershmanlab.com/experiments/alicia/teaching/experiment/?hitId=3FJ2RVH25ZSYKBA8MWMNC8NVPF629N&workerId=ARLGZWN6W91WD&assignmentId=3ZQIG0FLQF2KFIJCUJLSHGO4J2BVWV&a=LGQZ7&tp_a=LGQZ7&b=3ZQIG0FLQF2KFIJCUJLSHGO4J2BVWV&tp_b=3ZQIG0FLQF2KFIJCUJLSHGO4J2BVWV&c=365717&tp_c=365717","heads":2,"tails":2,"studentIndex":9,"studentTrueHypers":{"a":1,"b":4},"studentGuess":0.3333333333333333,"delta":0.16666666666666669,"totalExamples":4,"bonusSoFar":1.38},{"rt":7312,"response":{"heads":"2","tails":"2"},"type":"response","condition":"seqNoFeedback","trueTheta":0.5,"classrooms":["A","B"],"studentTrueClassroom":"A","exampleSet":"second","trial_type":"survey-html-form","trial_index":75,"time_elapsed":619733,"internal_node_id":"0.0-74.0-0.0","params":{"nStudents":24,"maxFlips":30,"completionMinutes":45,"basePay":8,"maxBonus":9,"perTrialBonus":0.5,"perTrialBonusThreshold":0.05,"exampleCost":0.01},"classroomParams":{"A":{"a":1,"b":4},"B":{"a":4,"b":1},"C":{"a":2,"b":8},"D":{"a":8,"b":2}},"conditions":["nonSeqFull","nonSeqPartial","seqNoFeedback","seqFeedback"],"classroomPairings":[["A","B"],["C","D"]],"coinWeights":[0.2,0.5,0.8],"subjectId":"ARLGZWN6W91WD","assignmentId":"3ZQIG0FLQF2KFIJCUJLSHGO4J2BVWV","hitId":"3FJ2RVH25ZSYKBA8MWMNC8NVPF629N","url":"https://gershmanlab.com/experiments/alicia/teaching/experiment/?hitId=3FJ2RVH25ZSYKBA8MWMNC8NVPF629N&workerId=ARLGZWN6W91WD&assignmentId=3ZQIG0FLQF2KFIJCUJLSHGO4J2BVWV&a=LGQZ7&tp_a=LGQZ7&b=3ZQIG0FLQF2KFIJCUJLSHGO4J2BVWV&tp_b=3ZQIG0FLQF2KFIJCUJLSHGO4J2BVWV&c=365717&tp_c=365717","firstResponseHeads":2,"firstResponseTails":2,"secondResponseHeads":2,"secondResponseTails":2,"totalHeads":4,"totalTails":4,"studentIndex":9,"studentTrueHypers":{"a":1,"b":4},"studentGuess":0.38461538461538464,"delta":0.11538461538461536,"bonus":0,"bonusSoFar":1.38,"totalExamples":8},{"rt":4432,"response":{"heads":"0","tails":"3"},"type":"response","condition":"seqNoFeedback","trueTheta":0.2,"classrooms":["A","B"],"studentTrueClassroom":"B","exampleSet":"first","trial_type":"survey-html-form","trial_index":81,"time_elapsed":647805,"internal_node_id":"0.0-80.0-0.0","params":{"nStudents":24,"maxFlips":30,"completionMinutes":45,"basePay":8,"maxBonus":9,"perTrialBonus":0.5,"perTrialBonusThreshold":0.05,"exampleCost":0.01},"classroomParams":{"A":{"a":1,"b":4},"B":{"a":4,"b":1},"C":{"a":2,"b":8},"D":{"a":8,"b":2}},"conditions":["nonSeqFull","nonSeqPartial","seqNoFeedback","seqFeedback"],"classroomPairings":[["A","B"],["C","D"]],"coinWeights":[0.2,0.5,0.8],"subjectId":"ARLGZWN6W91WD","assignmentId":"3ZQIG0FLQF2KFIJCUJLSHGO4J2BVWV","hitId":"3FJ2RVH25ZSYKBA8MWMNC8NVPF629N","url":"https://gershmanlab.com/experiments/alicia/teaching/experiment/?hitId=3FJ2RVH25ZSYKBA8MWMNC8NVPF629N&workerId=ARLGZWN6W91WD&assignmentId=3ZQIG0FLQF2KFIJCUJLSHGO4J2BVWV&a=LGQZ7&tp_a=LGQZ7&b=3ZQIG0FLQF2KFIJCUJLSHGO4J2BVWV&tp_b=3ZQIG0FLQF2KFIJCUJLSHGO4J2BVWV&c=365717&tp_c=365717","heads":0,"tails":3,"studentIndex":10,"studentTrueHypers":{"a":4,"b":1},"studentGuess":0.5,"delta":0.3,"totalExamples":3,"bonusSoFar":1.38},{"rt":2916,"response":{"heads":"0","tails":"3"},"type":"response","condition":"seqNoFeedback","trueTheta":0.2,"classrooms":["A","B"],"studentTrueClassroom":"B","exampleSet":"second","trial_type":"survey-html-form","trial_index":84,"time_elapsed":656988,"internal_node_id":"0.0-83.0-0.0","params":{"nStudents":24,"maxFlips":30,"completionMinutes":45,"basePay":8,"maxBonus":9,"perTrialBonus":0.5,"perTrialBonusThreshold":0.05,"exampleCost":0.01},"classroomParams":{"A":{"a":1,"b":4},"B":{"a":4,"b":1},"C":{"a":2,"b":8},"D":{"a":8,"b":2}},"conditions":["nonSeqFull","nonSeqPartial","seqNoFeedback","seqFeedback"],"classroomPairings":[["A","B"],["C","D"]],"coinWeights":[0.2,0.5,0.8],"subjectId":"ARLGZWN6W91WD","assignmentId":"3ZQIG0FLQF2KFIJCUJLSHGO4J2BVWV","hitId":"3FJ2RVH25ZSYKBA8MWMNC8NVPF629N","url":"https://gershmanlab.com/experiments/alicia/teaching/experiment/?hitId=3FJ2RVH25ZSYKBA8MWMNC8NVPF629N&workerId=ARLGZWN6W91WD&assignmentId=3ZQIG0FLQF2KFIJCUJLSHGO4J2BVWV&a=LGQZ7&tp_a=LGQZ7&b=3ZQIG0FLQF2KFIJCUJLSHGO4J2BVWV&tp_b=3ZQIG0FLQF2KFIJCUJLSHGO4J2BVWV&c=365717&tp_c=365717","firstResponseHeads":0,"firstResponseTails":3,"secondResponseHeads":0,"secondResponseTails":3,"totalHeads":0,"totalTails":6,"studentIndex":10,"studentTrueHypers":{"a":4,"b":1},"studentGuess":0.36363636363636365,"delta":0.16363636363636364,"bonus":0,"bonusSoFar":1.38,"totalExamples":6},{"rt":10992,"response":{"heads":"8","tails":"0"},"type":"response","condition":"nonSeqFull","trueTheta":0.8,"classrooms":["A","B"],"studentTrueClassroom":"B","exampleSet":"first","trial_type":"survey-html-form","trial_index":90,"time_elapsed":681303,"internal_node_id":"0.0-89.0-0.0","params":{"nStudents":24,"maxFlips":30,"completionMinutes":45,"basePay":8,"maxBonus":9,"perTrialBonus":0.5,"perTrialBonusThreshold":0.05,"exampleCost":0.01},"classroomParams":{"A":{"a":1,"b":4},"B":{"a":4,"b":1},"C":{"a":2,"b":8},"D":{"a":8,"b":2}},"conditions":["nonSeqFull","nonSeqPartial","seqNoFeedback","seqFeedback"],"classroomPairings":[["A","B"],["C","D"]],"coinWeights":[0.2,0.5,0.8],"subjectId":"ARLGZWN6W91WD","assignmentId":"3ZQIG0FLQF2KFIJCUJLSHGO4J2BVWV","hitId":"3FJ2RVH25ZSYKBA8MWMNC8NVPF629N","url":"https://gershmanlab.com/experiments/alicia/teaching/experiment/?hitId=3FJ2RVH25ZSYKBA8MWMNC8NVPF629N&workerId=ARLGZWN6W91WD&assignmentId=3ZQIG0FLQF2KFIJCUJLSHGO4J2BVWV&a=LGQZ7&tp_a=LGQZ7&b=3ZQIG0FLQF2KFIJCUJLSHGO4J2BVWV&tp_b=3ZQIG0FLQF2KFIJCUJLSHGO4J2BVWV&c=365717&tp_c=365717","heads":8,"tails":0,"studentIndex":11,"studentTrueHypers":{"a":4,"b":1},"studentGuess":0.9230769230769231,"delta":0.12307692307692308,"totalExamples":8,"bonus":0,"bonusSoFar":1.38},{"rt":4573,"response":{"heads":"0","tails":"10"},"type":"response","condition":"seqFeedback","trueTheta":0.2,"classrooms":["A","B"],"studentTrueClassroom":"A","exampleSet":"first","trial_type":"survey-html-form","trial_index":96,"time_elapsed":700637,"internal_node_id":"0.0-95.0-0.0","params":{"nStudents":24,"maxFlips":30,"completionMinutes":45,"basePay":8,"maxBonus":9,"perTrialBonus":0.5,"perTrialBonusThreshold":0.05,"exampleCost":0.01},"classroomParams":{"A":{"a":1,"b":4},"B":{"a":4,"b":1},"C":{"a":2,"b":8},"D":{"a":8,"b":2}},"conditions":["nonSeqFull","nonSeqPartial","seqNoFeedback","seqFeedback"],"classroomPairings":[["A","B"],["C","D"]],"coinWeights":[0.2,0.5,0.8],"subjectId":"ARLGZWN6W91WD","assignmentId":"3ZQIG0FLQF2KFIJCUJLSHGO4J2BVWV","hitId":"3FJ2RVH25ZSYKBA8MWMNC8NVPF629N","url":"https://gershmanlab.com/experiments/alicia/teaching/experiment/?hitId=3FJ2RVH25ZSYKBA8MWMNC8NVPF629N&workerId=ARLGZWN6W91WD&assignmentId=3ZQIG0FLQF2KFIJCUJLSHGO4J2BVWV&a=LGQZ7&tp_a=LGQZ7&b=3ZQIG0FLQF2KFIJCUJLSHGO4J2BVWV&tp_b=3ZQIG0FLQF2KFIJCUJLSHGO4J2BVWV&c=365717&tp_c=365717","heads":0,"tails":10,"studentIndex":12,"studentTrueHypers":{"a":1,"b":4},"studentGuess":0.06666666666666667,"delta":0.13333333333333336,"totalExamples":10,"bonusSoFar":1.38},{"rt":6760,"response":{"heads":"0","tails":"2"},"type":"response","condition":"seqFeedback","trueTheta":0.2,"classrooms":["A","B"],"studentTrueClassroom":"A","exampleSet":"second","trial_type":"survey-html-form","trial_index":100,"time_elapsed":716570,"internal_node_id":"0.0-99.0-0.0","params":{"nStudents":24,"maxFlips":30,"completionMinutes":45,"basePay":8,"maxBonus":9,"perTrialBonus":0.5,"perTrialBonusThreshold":0.05,"exampleCost":0.01},"classroomParams":{"A":{"a":1,"b":4},"B":{"a":4,"b":1},"C":{"a":2,"b":8},"D":{"a":8,"b":2}},"conditions":["nonSeqFull","nonSeqPartial","seqNoFeedback","seqFeedback"],"classroomPairings":[["A","B"],["C","D"]],"coinWeights":[0.2,0.5,0.8],"subjectId":"ARLGZWN6W91WD","assignmentId":"3ZQIG0FLQF2KFIJCUJLSHGO4J2BVWV","hitId":"3FJ2RVH25ZSYKBA8MWMNC8NVPF629N","url":"https://gershmanlab.com/experiments/alicia/teaching/experiment/?hitId=3FJ2RVH25ZSYKBA8MWMNC8NVPF629N&workerId=ARLGZWN6W91WD&assignmentId=3ZQIG0FLQF2KFIJCUJLSHGO4J2BVWV&a=LGQZ7&tp_a=LGQZ7&b=3ZQIG0FLQF2KFIJCUJLSHGO4J2BVWV&tp_b=3ZQIG0FLQF2KFIJCUJLSHGO4J2BVWV&c=365717&tp_c=365717","firstResponseHeads":0,"firstResponseTails":10,"secondResponseHeads":0,"secondResponseTails":2,"totalHeads":0,"totalTails":12,"studentIndex":12,"studentTrueHypers":{"a":1,"b":4},"studentGuess":0.058823529411764705,"delta":0.1411764705882353,"bonus":0,"bonusSoFar":1.38,"totalExamples":12},{"rt":5488,"response":{"heads":"10","tails":"0"},"type":"response","condition":"nonSeqFull","trueTheta":0.8,"classrooms":["C","D"],"studentTrueClassroom":"C","exampleSet":"first","trial_type":"survey-html-form","trial_index":106,"time_elapsed":736269,"internal_node_id":"0.0-105.0-0.0","params":{"nStudents":24,"maxFlips":30,"completionMinutes":45,"basePay":8,"maxBonus":9,"perTrialBonus":0.5,"perTrialBonusThreshold":0.05,"exampleCost":0.01},"classroomParams":{"A":{"a":1,"b":4},"B":{"a":4,"b":1},"C":{"a":2,"b":8},"D":{"a":8,"b":2}},"conditions":["nonSeqFull","nonSeqPartial","seqNoFeedback","seqFeedback"],"classroomPairings":[["A","B"],["C","D"]],"coinWeights":[0.2,0.5,0.8],"subjectId":"ARLGZWN6W91WD","assignmentId":"3ZQIG0FLQF2KFIJCUJLSHGO4J2BVWV","hitId":"3FJ2RVH25ZSYKBA8MWMNC8NVPF629N","url":"https://gershmanlab.com/experiments/alicia/teaching/experiment/?hitId=3FJ2RVH25ZSYKBA8MWMNC8NVPF629N&workerId=ARLGZWN6W91WD&assignmentId=3ZQIG0FLQF2KFIJCUJLSHGO4J2BVWV&a=LGQZ7&tp_a=LGQZ7&b=3ZQIG0FLQF2KFIJCUJLSHGO4J2BVWV&tp_b=3ZQIG0FLQF2KFIJCUJLSHGO4J2BVWV&c=365717&tp_c=365717","heads":10,"tails":0,"studentIndex":13,"studentTrueHypers":{"a":2,"b":8},"studentGuess":0.6,"delta":0.20000000000000007,"totalExamples":10,"bonus":0,"bonusSoFar":1.38},{"rt":3622,"response":{"heads":"8","tails":"0"},"type":"response","condition":"nonSeqPartial","trueTheta":0.8,"classrooms":["A","B"],"studentTrueClassroom":"A","exampleSet":"first","trial_type":"survey-html-form","trial_index":112,"time_elapsed":756315,"internal_node_id":"0.0-111.0-0.0","params":{"nStudents":24,"maxFlips":30,"completionMinutes":45,"basePay":8,"maxBonus":9,"perTrialBonus":0.5,"perTrialBonusThreshold":0.05,"exampleCost":0.01},"classroomParams":{"A":{"a":1,"b":4},"B":{"a":4,"b":1},"C":{"a":2,"b":8},"D":{"a":8,"b":2}},"conditions":["nonSeqFull","nonSeqPartial","seqNoFeedback","seqFeedback"],"classroomPairings":[["A","B"],["C","D"]],"coinWeights":[0.2,0.5,0.8],"subjectId":"ARLGZWN6W91WD","assignmentId":"3ZQIG0FLQF2KFIJCUJLSHGO4J2BVWV","hitId":"3FJ2RVH25ZSYKBA8MWMNC8NVPF629N","url":"https://gershmanlab.com/experiments/alicia/teaching/experiment/?hitId=3FJ2RVH25ZSYKBA8MWMNC8NVPF629N&workerId=ARLGZWN6W91WD&assignmentId=3ZQIG0FLQF2KFIJCUJLSHGO4J2BVWV&a=LGQZ7&tp_a=LGQZ7&b=3ZQIG0FLQF2KFIJCUJLSHGO4J2BVWV&tp_b=3ZQIG0FLQF2KFIJCUJLSHGO4J2BVWV&c=365717&tp_c=365717","heads":8,"tails":0,"studentIndex":14,"studentTrueHypers":{"a":1,"b":4},"studentGuess":0.6923076923076923,"delta":0.10769230769230775,"totalExamples":8,"bonus":0,"bonusSoFar":1.38},{"rt":12663,"response":{"heads":"2","tails":"8"},"type":"response","condition":"nonSeqFull","trueTheta":0.2,"classrooms":["C","D"],"studentTrueClassroom":"C","exampleSet":"first","trial_type":"survey-html-form","trial_index":118,"time_elapsed":784194,"internal_node_id":"0.0-117.0-0.0","params":{"nStudents":24,"maxFlips":30,"completionMinutes":45,"basePay":8,"maxBonus":9,"perTrialBonus":0.5,"perTrialBonusThreshold":0.05,"exampleCost":0.01},"classroomParams":{"A":{"a":1,"b":4},"B":{"a":4,"b":1},"C":{"a":2,"b":8},"D":{"a":8,"b":2}},"conditions":["nonSeqFull","nonSeqPartial","seqNoFeedback","seqFeedback"],"classroomPairings":[["A","B"],["C","D"]],"coinWeights":[0.2,0.5,0.8],"subjectId":"ARLGZWN6W91WD","assignmentId":"3ZQIG0FLQF2KFIJCUJLSHGO4J2BVWV","hitId":"3FJ2RVH25ZSYKBA8MWMNC8NVPF629N","url":"https://gershmanlab.com/experiments/alicia/teaching/experiment/?hitId=3FJ2RVH25ZSYKBA8MWMNC8NVPF629N&workerId=ARLGZWN6W91WD&assignmentId=3ZQIG0FLQF2KFIJCUJLSHGO4J2BVWV&a=LGQZ7&tp_a=LGQZ7&b=3ZQIG0FLQF2KFIJCUJLSHGO4J2BVWV&tp_b=3ZQIG0FLQF2KFIJCUJLSHGO4J2BVWV&c=365717&tp_c=365717","heads":2,"tails":8,"studentIndex":15,"studentTrueHypers":{"a":2,"b":8},"studentGuess":0.2,"delta":0,"totalExamples":10,"bonus":0.4,"bonusSoFar":1.78},{"rt":3760,"response":{"heads":"5","tails":"5"},"type":"response","condition":"seqNoFeedback","trueTheta":0.5,"classrooms":["C","D"],"studentTrueClassroom":"D","exampleSet":"first","trial_type":"survey-html-form","trial_index":124,"time_elapsed":801476,"internal_node_id":"0.0-123.0-0.0","params":{"nStudents":24,"maxFlips":30,"completionMinutes":45,"basePay":8,"maxBonus":9,"perTrialBonus":0.5,"perTrialBonusThreshold":0.05,"exampleCost":0.01},"classroomParams":{"A":{"a":1,"b":4},"B":{"a":4,"b":1},"C":{"a":2,"b":8},"D":{"a":8,"b":2}},"conditions":["nonSeqFull","nonSeqPartial","seqNoFeedback","seqFeedback"],"classroomPairings":[["A","B"],["C","D"]],"coinWeights":[0.2,0.5,0.8],"subjectId":"ARLGZWN6W91WD","assignmentId":"3ZQIG0FLQF2KFIJCUJLSHGO4J2BVWV","hitId":"3FJ2RVH25ZSYKBA8MWMNC8NVPF629N","url":"https://gershmanlab.com/experiments/alicia/teaching/experiment/?hitId=3FJ2RVH25ZSYKBA8MWMNC8NVPF629N&workerId=ARLGZWN6W91WD&assignmentId=3ZQIG0FLQF2KFIJCUJLSHGO4J2BVWV&a=LGQZ7&tp_a=LGQZ7&b=3ZQIG0FLQF2KFIJCUJLSHGO4J2BVWV&tp_b=3ZQIG0FLQF2KFIJCUJLSHGO4J2BVWV&c=365717&tp_c=365717","heads":5,"tails":5,"studentIndex":16,"studentTrueHypers":{"a":8,"b":2},"studentGuess":0.65,"delta":0.15000000000000002,"totalExamples":10,"bonusSoFar":1.78},{"rt":6416,"response":{"heads":"5","tails":"5"},"type":"response","condition":"seqNoFeedback","trueTheta":0.5,"classrooms":["C","D"],"studentTrueClassroom":"D","exampleSet":"second","trial_type":"survey-html-form","trial_index":127,"time_elapsed":815168,"internal_node_id":"0.0-126.0-0.0","params":{"nStudents":24,"maxFlips":30,"completionMinutes":45,"basePay":8,"maxBonus":9,"perTrialBonus":0.5,"perTrialBonusThreshold":0.05,"exampleCost":0.01},"classroomParams":{"A":{"a":1,"b":4},"B":{"a":4,"b":1},"C":{"a":2,"b":8},"D":{"a":8,"b":2}},"conditions":["nonSeqFull","nonSeqPartial","seqNoFeedback","seqFeedback"],"classroomPairings":[["A","B"],["C","D"]],"coinWeights":[0.2,0.5,0.8],"subjectId":"ARLGZWN6W91WD","assignmentId":"3ZQIG0FLQF2KFIJCUJLSHGO4J2BVWV","hitId":"3FJ2RVH25ZSYKBA8MWMNC8NVPF629N","url":"https://gershmanlab.com/experiments/alicia/teaching/experiment/?hitId=3FJ2RVH25ZSYKBA8MWMNC8NVPF629N&workerId=ARLGZWN6W91WD&assignmentId=3ZQIG0FLQF2KFIJCUJLSHGO4J2BVWV&a=LGQZ7&tp_a=LGQZ7&b=3ZQIG0FLQF2KFIJCUJLSHGO4J2BVWV&tp_b=3ZQIG0FLQF2KFIJCUJLSHGO4J2BVWV&c=365717&tp_c=365717","firstResponseHeads":5,"firstResponseTails":5,"secondResponseHeads":5,"secondResponseTails":5,"totalHeads":10,"totalTails":10,"studentIndex":16,"studentTrueHypers":{"a":8,"b":2},"studentGuess":0.6,"delta":0.09999999999999998,"bonus":0,"bonusSoFar":1.78,"totalExamples":20},{"rt":4220,"response":{"heads":"8","tails":"2"},"type":"response","condition":"seqFeedback","trueTheta":0.8,"classrooms":["A","B"],"studentTrueClassroom":"A","exampleSet":"first","trial_type":"survey-html-form","trial_index":133,"time_elapsed":834075,"internal_node_id":"0.0-132.0-0.0","params":{"nStudents":24,"maxFlips":30,"completionMinutes":45,"basePay":8,"maxBonus":9,"perTrialBonus":0.5,"perTrialBonusThreshold":0.05,"exampleCost":0.01},"classroomParams":{"A":{"a":1,"b":4},"B":{"a":4,"b":1},"C":{"a":2,"b":8},"D":{"a":8,"b":2}},"conditions":["nonSeqFull","nonSeqPartial","seqNoFeedback","seqFeedback"],"classroomPairings":[["A","B"],["C","D"]],"coinWeights":[0.2,0.5,0.8],"subjectId":"ARLGZWN6W91WD","assignmentId":"3ZQIG0FLQF2KFIJCUJLSHGO4J2BVWV","hitId":"3FJ2RVH25ZSYKBA8MWMNC8NVPF629N","url":"https://gershmanlab.com/experiments/alicia/teaching/experiment/?hitId=3FJ2RVH25ZSYKBA8MWMNC8NVPF629N&workerId=ARLGZWN6W91WD&assignmentId=3ZQIG0FLQF2KFIJCUJLSHGO4J2BVWV&a=LGQZ7&tp_a=LGQZ7&b=3ZQIG0FLQF2KFIJCUJLSHGO4J2BVWV&tp_b=3ZQIG0FLQF2KFIJCUJLSHGO4J2BVWV&c=365717&tp_c=365717","heads":8,"tails":2,"studentIndex":17,"studentTrueHypers":{"a":1,"b":4},"studentGuess":0.6,"delta":0.20000000000000007,"totalExamples":10,"bonusSoFar":1.78},{"rt":11216,"response":{"heads":"2","tails":"8"},"type":"response","condition":"seqFeedback","trueTheta":0.8,"classrooms":["A","B"],"studentTrueClassroom":"A","exampleSet":"second","trial_type":"survey-html-form","trial_index":137,"time_elapsed":858665,"internal_node_id":"0.0-136.0-0.0","params":{"nStudents":24,"maxFlips":30,"completionMinutes":45,"basePay":8,"maxBonus":9,"perTrialBonus":0.5,"perTrialBonusThreshold":0.05,"exampleCost":0.01},"classroomParams":{"A":{"a":1,"b":4},"B":{"a":4,"b":1},"C":{"a":2,"b":8},"D":{"a":8,"b":2}},"conditions":["nonSeqFull","nonSeqPartial","seqNoFeedback","seqFeedback"],"classroomPairings":[["A","B"],["C","D"]],"coinWeights":[0.2,0.5,0.8],"subjectId":"ARLGZWN6W91WD","assignmentId":"3ZQIG0FLQF2KFIJCUJLSHGO4J2BVWV","hitId":"3FJ2RVH25ZSYKBA8MWMNC8NVPF629N","url":"https://gershmanlab.com/experiments/alicia/teaching/experiment/?hitId=3FJ2RVH25ZSYKBA8MWMNC8NVPF629N&workerId=ARLGZWN6W91WD&assignmentId=3ZQIG0FLQF2KFIJCUJLSHGO4J2BVWV&a=LGQZ7&tp_a=LGQZ7&b=3ZQIG0FLQF2KFIJCUJLSHGO4J2BVWV&tp_b=3ZQIG0FLQF2KFIJCUJLSHGO4J2BVWV&c=365717&tp_c=365717","firstResponseHeads":8,"firstResponseTails":2,"secondResponseHeads":2,"secondResponseTails":8,"totalHeads":10,"totalTails":10,"studentIndex":17,"studentTrueHypers":{"a":1,"b":4},"studentGuess":0.44,"delta":0.36000000000000004,"bonus":0,"bonusSoFar":1.78,"totalExamples":20},{"rt":9383,"response":{"heads":"8","tails":"2"},"type":"response","condition":"seqFeedback","trueTheta":0.8,"classrooms":["C","D"],"studentTrueClassroom":"C","exampleSet":"first","trial_type":"survey-html-form","trial_index":143,"time_elapsed":884567,"internal_node_id":"0.0-142.0-0.0","params":{"nStudents":24,"maxFlips":30,"completionMinutes":45,"basePay":8,"maxBonus":9,"perTrialBonus":0.5,"perTrialBonusThreshold":0.05,"exampleCost":0.01},"classroomParams":{"A":{"a":1,"b":4},"B":{"a":4,"b":1},"C":{"a":2,"b":8},"D":{"a":8,"b":2}},"conditions":["nonSeqFull","nonSeqPartial","seqNoFeedback","seqFeedback"],"classroomPairings":[["A","B"],["C","D"]],"coinWeights":[0.2,0.5,0.8],"subjectId":"ARLGZWN6W91WD","assignmentId":"3ZQIG0FLQF2KFIJCUJLSHGO4J2BVWV","hitId":"3FJ2RVH25ZSYKBA8MWMNC8NVPF629N","url":"https://gershmanlab.com/experiments/alicia/teaching/experiment/?hitId=3FJ2RVH25ZSYKBA8MWMNC8NVPF629N&workerId=ARLGZWN6W91WD&assignmentId=3ZQIG0FLQF2KFIJCUJLSHGO4J2BVWV&a=LGQZ7&tp_a=LGQZ7&b=3ZQIG0FLQF2KFIJCUJLSHGO4J2BVWV&tp_b=3ZQIG0FLQF2KFIJCUJLSHGO4J2BVWV&c=365717&tp_c=365717","heads":8,"tails":2,"studentIndex":18,"studentTrueHypers":{"a":2,"b":8},"studentGuess":0.5,"delta":0.30000000000000004,"totalExamples":10,"bonusSoFar":1.78},{"rt":3062,"response":{"heads":"8","tails":"2"},"type":"response","condition":"seqFeedback","trueTheta":0.8,"classrooms":["C","D"],"studentTrueClassroom":"C","exampleSet":"second","trial_type":"survey-html-form","trial_index":147,"time_elapsed":901527,"internal_node_id":"0.0-146.0-0.0","params":{"nStudents":24,"maxFlips":30,"completionMinutes":45,"basePay":8,"maxBonus":9,"perTrialBonus":0.5,"perTrialBonusThreshold":0.05,"exampleCost":0.01},"classroomParams":{"A":{"a":1,"b":4},"B":{"a":4,"b":1},"C":{"a":2,"b":8},"D":{"a":8,"b":2}},"conditions":["nonSeqFull","nonSeqPartial","seqNoFeedback","seqFeedback"],"classroomPairings":[["A","B"],["C","D"]],"coinWeights":[0.2,0.5,0.8],"subjectId":"ARLGZWN6W91WD","assignmentId":"3ZQIG0FLQF2KFIJCUJLSHGO4J2BVWV","hitId":"3FJ2RVH25ZSYKBA8MWMNC8NVPF629N","url":"https://gershmanlab.com/experiments/alicia/teaching/experiment/?hitId=3FJ2RVH25ZSYKBA8MWMNC8NVPF629N&workerId=ARLGZWN6W91WD&assignmentId=3ZQIG0FLQF2KFIJCUJLSHGO4J2BVWV&a=LGQZ7&tp_a=LGQZ7&b=3ZQIG0FLQF2KFIJCUJLSHGO4J2BVWV&tp_b=3ZQIG0FLQF2KFIJCUJLSHGO4J2BVWV&c=365717&tp_c=365717","firstResponseHeads":8,"firstResponseTails":2,"secondResponseHeads":8,"secondResponseTails":2,"totalHeads":16,"totalTails":4,"studentIndex":18,"studentTrueHypers":{"a":2,"b":8},"studentGuess":0.6,"delta":0.20000000000000007,"bonus":0,"bonusSoFar":1.78,"totalExamples":20},{"rt":10213,"response":{"heads":"2","tails":"8"},"type":"response","condition":"nonSeqFull","trueTheta":0.2,"classrooms":["A","B"],"studentTrueClassroom":"A","exampleSet":"first","trial_type":"survey-html-form","trial_index":153,"time_elapsed":934176,"internal_node_id":"0.0-152.0-0.0","params":{"nStudents":24,"maxFlips":30,"completionMinutes":45,"basePay":8,"maxBonus":9,"perTrialBonus":0.5,"perTrialBonusThreshold":0.05,"exampleCost":0.01},"classroomParams":{"A":{"a":1,"b":4},"B":{"a":4,"b":1},"C":{"a":2,"b":8},"D":{"a":8,"b":2}},"conditions":["nonSeqFull","nonSeqPartial","seqNoFeedback","seqFeedback"],"classroomPairings":[["A","B"],["C","D"]],"coinWeights":[0.2,0.5,0.8],"subjectId":"ARLGZWN6W91WD","assignmentId":"3ZQIG0FLQF2KFIJCUJLSHGO4J2BVWV","hitId":"3FJ2RVH25ZSYKBA8MWMNC8NVPF629N","url":"https://gershmanlab.com/experiments/alicia/teaching/experiment/?hitId=3FJ2RVH25ZSYKBA8MWMNC8NVPF629N&workerId=ARLGZWN6W91WD&assignmentId=3ZQIG0FLQF2KFIJCUJLSHGO4J2BVWV&a=LGQZ7&tp_a=LGQZ7&b=3ZQIG0FLQF2KFIJCUJLSHGO4J2BVWV&tp_b=3ZQIG0FLQF2KFIJCUJLSHGO4J2BVWV&c=365717&tp_c=365717","heads":2,"tails":8,"studentIndex":19,"studentTrueHypers":{"a":1,"b":4},"studentGuess":0.2,"delta":0,"totalExamples":10,"bonus":0.4,"bonusSoFar":2.18},{"rt":5652,"response":{"heads":"8","tails":"2"},"type":"response","condition":"seqNoFeedback","trueTheta":0.8,"classrooms":["A","B"],"studentTrueClassroom":"B","exampleSet":"first","trial_type":"survey-html-form","trial_index":159,"time_elapsed":959952,"internal_node_id":"0.0-158.0-0.0","params":{"nStudents":24,"maxFlips":30,"completionMinutes":45,"basePay":8,"maxBonus":9,"perTrialBonus":0.5,"perTrialBonusThreshold":0.05,"exampleCost":0.01},"classroomParams":{"A":{"a":1,"b":4},"B":{"a":4,"b":1},"C":{"a":2,"b":8},"D":{"a":8,"b":2}},"conditions":["nonSeqFull","nonSeqPartial","seqNoFeedback","seqFeedback"],"classroomPairings":[["A","B"],["C","D"]],"coinWeights":[0.2,0.5,0.8],"subjectId":"ARLGZWN6W91WD","assignmentId":"3ZQIG0FLQF2KFIJCUJLSHGO4J2BVWV","hitId":"3FJ2RVH25ZSYKBA8MWMNC8NVPF629N","url":"https://gershmanlab.com/experiments/alicia/teaching/experiment/?hitId=3FJ2RVH25ZSYKBA8MWMNC8NVPF629N&workerId=ARLGZWN6W91WD&assignmentId=3ZQIG0FLQF2KFIJCUJLSHGO4J2BVWV&a=LGQZ7&tp_a=LGQZ7&b=3ZQIG0FLQF2KFIJCUJLSHGO4J2BVWV&tp_b=3ZQIG0FLQF2KFIJCUJLSHGO4J2BVWV&c=365717&tp_c=365717","heads":8,"tails":2,"studentIndex":20,"studentTrueHypers":{"a":4,"b":1},"studentGuess":0.8,"delta":0,"totalExamples":10,"bonusSoFar":2.18},{"rt":7371,"response":{"heads":"8","tails":"2"},"type":"response","condition":"seqNoFeedback","trueTheta":0.8,"classrooms":["A","B"],"studentTrueClassroom":"B","exampleSet":"second","trial_type":"survey-html-form","trial_index":162,"time_elapsed":974352,"internal_node_id":"0.0-161.0-0.0","params":{"nStudents":24,"maxFlips":30,"completionMinutes":45,"basePay":8,"maxBonus":9,"perTrialBonus":0.5,"perTrialBonusThreshold":0.05,"exampleCost":0.01},"classroomParams":{"A":{"a":1,"b":4},"B":{"a":4,"b":1},"C":{"a":2,"b":8},"D":{"a":8,"b":2}},"conditions":["nonSeqFull","nonSeqPartial","seqNoFeedback","seqFeedback"],"classroomPairings":[["A","B"],["C","D"]],"coinWeights":[0.2,0.5,0.8],"subjectId":"ARLGZWN6W91WD","assignmentId":"3ZQIG0FLQF2KFIJCUJLSHGO4J2BVWV","hitId":"3FJ2RVH25ZSYKBA8MWMNC8NVPF629N","url":"https://gershmanlab.com/experiments/alicia/teaching/experiment/?hitId=3FJ2RVH25ZSYKBA8MWMNC8NVPF629N&workerId=ARLGZWN6W91WD&assignmentId=3ZQIG0FLQF2KFIJCUJLSHGO4J2BVWV&a=LGQZ7&tp_a=LGQZ7&b=3ZQIG0FLQF2KFIJCUJLSHGO4J2BVWV&tp_b=3ZQIG0FLQF2KFIJCUJLSHGO4J2BVWV&c=365717&tp_c=365717","firstResponseHeads":8,"firstResponseTails":2,"secondResponseHeads":8,"secondResponseTails":2,"totalHeads":16,"totalTails":4,"studentIndex":20,"studentTrueHypers":{"a":4,"b":1},"studentGuess":0.8,"delta":0,"bonus":0.3,"bonusSoFar":2.48,"totalExamples":20},{"rt":5216,"response":{"heads":"8","tails":"2"},"type":"response","condition":"nonSeqPartial","trueTheta":0.8,"classrooms":["C","D"],"studentTrueClassroom":"D","exampleSet":"first","trial_type":"survey-html-form","trial_index":168,"time_elapsed":993141,"internal_node_id":"0.0-167.0-0.0","params":{"nStudents":24,"maxFlips":30,"completionMinutes":45,"basePay":8,"maxBonus":9,"perTrialBonus":0.5,"perTrialBonusThreshold":0.05,"exampleCost":0.01},"classroomParams":{"A":{"a":1,"b":4},"B":{"a":4,"b":1},"C":{"a":2,"b":8},"D":{"a":8,"b":2}},"conditions":["nonSeqFull","nonSeqPartial","seqNoFeedback","seqFeedback"],"classroomPairings":[["A","B"],["C","D"]],"coinWeights":[0.2,0.5,0.8],"subjectId":"ARLGZWN6W91WD","assignmentId":"3ZQIG0FLQF2KFIJCUJLSHGO4J2BVWV","hitId":"3FJ2RVH25ZSYKBA8MWMNC8NVPF629N","url":"https://gershmanlab.com/experiments/alicia/teaching/experiment/?hitId=3FJ2RVH25ZSYKBA8MWMNC8NVPF629N&workerId=ARLGZWN6W91WD&assignmentId=3ZQIG0FLQF2KFIJCUJLSHGO4J2BVWV&a=LGQZ7&tp_a=LGQZ7&b=3ZQIG0FLQF2KFIJCUJLSHGO4J2BVWV&tp_b=3ZQIG0FLQF2KFIJCUJLSHGO4J2BVWV&c=365717&tp_c=365717","heads":8,"tails":2,"studentIndex":21,"studentTrueHypers":{"a":8,"b":2},"studentGuess":0.8,"delta":0,"totalExamples":10,"bonus":0.4,"bonusSoFar":2.88},{"rt":6338,"response":{"heads":"2","tails":"8"},"type":"response","condition":"seqFeedback","trueTheta":0.2,"classrooms":["C","D"],"studentTrueClassroom":"D","exampleSet":"first","trial_type":"survey-html-form","trial_index":174,"time_elapsed":1014011,"internal_node_id":"0.0-173.0-0.0","params":{"nStudents":24,"maxFlips":30,"completionMinutes":45,"basePay":8,"maxBonus":9,"perTrialBonus":0.5,"perTrialBonusThreshold":0.05,"exampleCost":0.01},"classroomParams":{"A":{"a":1,"b":4},"B":{"a":4,"b":1},"C":{"a":2,"b":8},"D":{"a":8,"b":2}},"conditions":["nonSeqFull","nonSeqPartial","seqNoFeedback","seqFeedback"],"classroomPairings":[["A","B"],["C","D"]],"coinWeights":[0.2,0.5,0.8],"subjectId":"ARLGZWN6W91WD","assignmentId":"3ZQIG0FLQF2KFIJCUJLSHGO4J2BVWV","hitId":"3FJ2RVH25ZSYKBA8MWMNC8NVPF629N","url":"https://gershmanlab.com/experiments/alicia/teaching/experiment/?hitId=3FJ2RVH25ZSYKBA8MWMNC8NVPF629N&workerId=ARLGZWN6W91WD&assignmentId=3ZQIG0FLQF2KFIJCUJLSHGO4J2BVWV&a=LGQZ7&tp_a=LGQZ7&b=3ZQIG0FLQF2KFIJCUJLSHGO4J2BVWV&tp_b=3ZQIG0FLQF2KFIJCUJLSHGO4J2BVWV&c=365717&tp_c=365717","heads":2,"tails":8,"studentIndex":22,"studentTrueHypers":{"a":8,"b":2},"studentGuess":0.5,"delta":0.3,"totalExamples":10,"bonusSoFar":2.88},{"rt":5101,"response":{"heads":"2","tails":"8"},"type":"response","condition":"seqFeedback","trueTheta":0.2,"classrooms":["C","D"],"studentTrueClassroom":"D","exampleSet":"second","trial_type":"survey-html-form","trial_index":178,"time_elapsed":1028262,"internal_node_id":"0.0-177.0-0.0","params":{"nStudents":24,"maxFlips":30,"completionMinutes":45,"basePay":8,"maxBonus":9,"perTrialBonus":0.5,"perTrialBonusThreshold":0.05,"exampleCost":0.01},"classroomParams":{"A":{"a":1,"b":4},"B":{"a":4,"b":1},"C":{"a":2,"b":8},"D":{"a":8,"b":2}},"conditions":["nonSeqFull","nonSeqPartial","seqNoFeedback","seqFeedback"],"classroomPairings":[["A","B"],["C","D"]],"coinWeights":[0.2,0.5,0.8],"subjectId":"ARLGZWN6W91WD","assignmentId":"3ZQIG0FLQF2KFIJCUJLSHGO4J2BVWV","hitId":"3FJ2RVH25ZSYKBA8MWMNC8NVPF629N","url":"https://gershmanlab.com/experiments/alicia/teaching/experiment/?hitId=3FJ2RVH25ZSYKBA8MWMNC8NVPF629N&workerId=ARLGZWN6W91WD&assignmentId=3ZQIG0FLQF2KFIJCUJLSHGO4J2BVWV&a=LGQZ7&tp_a=LGQZ7&b=3ZQIG0FLQF2KFIJCUJLSHGO4J2BVWV&tp_b=3ZQIG0FLQF2KFIJCUJLSHGO4J2BVWV&c=365717&tp_c=365717","firstResponseHeads":2,"firstResponseTails":8,"secondResponseHeads":2,"secondResponseTails":8,"totalHeads":4,"totalTails":16,"studentIndex":22,"studentTrueHypers":{"a":8,"b":2},"studentGuess":0.4,"delta":0.2,"bonus":0,"bonusSoFar":2.88,"totalExamples":20},{"rt":9686,"response":{"heads":"2","tails":"8"},"type":"response","condition":"seqNoFeedback","trueTheta":0.2,"classrooms":["C","D"],"studentTrueClassroom":"D","exampleSet":"first","trial_type":"survey-html-form","trial_index":184,"time_elapsed":1059909,"internal_node_id":"0.0-183.0-0.0","params":{"nStudents":24,"maxFlips":30,"completionMinutes":45,"basePay":8,"maxBonus":9,"perTrialBonus":0.5,"perTrialBonusThreshold":0.05,"exampleCost":0.01},"classroomParams":{"A":{"a":1,"b":4},"B":{"a":4,"b":1},"C":{"a":2,"b":8},"D":{"a":8,"b":2}},"conditions":["nonSeqFull","nonSeqPartial","seqNoFeedback","seqFeedback"],"classroomPairings":[["A","B"],["C","D"]],"coinWeights":[0.2,0.5,0.8],"subjectId":"ARLGZWN6W91WD","assignmentId":"3ZQIG0FLQF2KFIJCUJLSHGO4J2BVWV","hitId":"3FJ2RVH25ZSYKBA8MWMNC8NVPF629N","url":"https://gershmanlab.com/experiments/alicia/teaching/experiment/?hitId=3FJ2RVH25ZSYKBA8MWMNC8NVPF629N&workerId=ARLGZWN6W91WD&assignmentId=3ZQIG0FLQF2KFIJCUJLSHGO4J2BVWV&a=LGQZ7&tp_a=LGQZ7&b=3ZQIG0FLQF2KFIJCUJLSHGO4J2BVWV&tp_b=3ZQIG0FLQF2KFIJCUJLSHGO4J2BVWV&c=365717&tp_c=365717","heads":2,"tails":8,"studentIndex":23,"studentTrueHypers":{"a":8,"b":2},"studentGuess":0.5,"delta":0.3,"totalExamples":10,"bonusSoFar":2.88},{"rt":8462,"response":{"heads":"2","tails":"8"},"type":"response","condition":"seqNoFeedback","trueTheta":0.2,"classrooms":["C","D"],"studentTrueClassroom":"D","exampleSet":"second","trial_type":"survey-html-form","trial_index":187,"time_elapsed":1075393,"internal_node_id":"0.0-186.0-0.0","params":{"nStudents":24,"maxFlips":30,"completionMinutes":45,"basePay":8,"maxBonus":9,"perTrialBonus":0.5,"perTrialBonusThreshold":0.05,"exampleCost":0.01},"classroomParams":{"A":{"a":1,"b":4},"B":{"a":4,"b":1},"C":{"a":2,"b":8},"D":{"a":8,"b":2}},"conditions":["nonSeqFull","nonSeqPartial","seqNoFeedback","seqFeedback"],"classroomPairings":[["A","B"],["C","D"]],"coinWeights":[0.2,0.5,0.8],"subjectId":"ARLGZWN6W91WD","assignmentId":"3ZQIG0FLQF2KFIJCUJLSHGO4J2BVWV","hitId":"3FJ2RVH25ZSYKBA8MWMNC8NVPF629N","url":"https://gershmanlab.com/experiments/alicia/teaching/experiment/?hitId=3FJ2RVH25ZSYKBA8MWMNC8NVPF629N&workerId=ARLGZWN6W91WD&assignmentId=3ZQIG0FLQF2KFIJCUJLSHGO4J2BVWV&a=LGQZ7&tp_a=LGQZ7&b=3ZQIG0FLQF2KFIJCUJLSHGO4J2BVWV&tp_b=3ZQIG0FLQF2KFIJCUJLSHGO4J2BVWV&c=365717&tp_c=365717","firstResponseHeads":2,"firstResponseTails":8,"secondResponseHeads":2,"secondResponseTails":8,"totalHeads":4,"totalTails":16,"studentIndex":23,"studentTrueHypers":{"a":8,"b":2},"studentGuess":0.4,"delta":0.2,"bonus":0,"bonusSoFar":2.88,"totalExamples":20},{"rt":8173,"response":{"gender":"female","age":"34","understood":"yes","comments":""},"type":"response","trial_type":"survey-html-form","trial_index":191,"time_elapsed":1104219,"internal_node_id":"0.0-191.0","params":{"nStudents":24,"maxFlips":30,"completionMinutes":45,"basePay":8,"maxBonus":9,"perTrialBonus":0.5,"perTrialBonusThreshold":0.05,"exampleCost":0.01},"classroomParams":{"A":{"a":1,"b":4},"B":{"a":4,"b":1},"C":{"a":2,"b":8},"D":{"a":8,"b":2}},"conditions":["nonSeqFull","nonSeqPartial","seqNoFeedback","seqFeedback"],"classroomPairings":[["A","B"],["C","D"]],"coinWeights":[0.2,0.5,0.8],"subjectId":"ARLGZWN6W91WD","assignmentId":"3ZQIG0FLQF2KFIJCUJLSHGO4J2BVWV","hitId":"3FJ2RVH25ZSYKBA8MWMNC8NVPF629N","url":"https://gershmanlab.com/experiments/alicia/teaching/experiment/?hitId=3FJ2RVH25ZSYKBA8MWMNC8NVPF629N&workerId=ARLGZWN6W91WD&assignmentId=3ZQIG0FLQF2KFIJCUJLSHGO4J2BVWV&a=LGQZ7&tp_a=LGQZ7&b=3ZQIG0FLQF2KFIJCUJLSHGO4J2BVWV&tp_b=3ZQIG0FLQF2KFIJCUJLSHGO4J2BVWV&c=365717&tp_c=365717","totalBonus":2.88}]