[{"rt":76959,"response":{"heads":"1","tails":"4"},"type":"response","condition":"seqNoFeedback","trueTheta":0.2,"classrooms":["A","B"],"studentTrueClassroom":"B","exampleSet":"first","trial_type":"survey-html-form","trial_index":7,"time_elapsed":713774,"internal_node_id":"0.0-6.0-0.0","params":{"nStudents":24,"maxFlips":30,"completionMinutes":45,"basePay":8,"maxBonus":9,"perTrialBonus":0.5,"perTrialBonusThreshold":0.05,"exampleCost":0.01},"classroomParams":{"A":{"a":1,"b":4},"B":{"a":4,"b":1},"C":{"a":2,"b":8},"D":{"a":8,"b":2}},"conditions":["nonSeqFull","nonSeqPartial","seqNoFeedback","seqFeedback"],"classroomPairings":[["A","B"],["C","D"]],"coinWeights":[0.2,0.5,0.8],"subjectId":"ARYL3C6N9SVV1","assignmentId":"3N1FSUEFL6MMCZ06TSFFG2Z6Z3TD4F","hitId":"3UDTAB6HH6LRO17U79I9TKUGSHV90J","url":"https://gershmanlab.com/experiments/alicia/teaching/experiment/?hitId=3UDTAB6HH6LRO17U79I9TKUGSHV90J&workerId=ARYL3C6N9SVV1&assignmentId=3N1FSUEFL6MMCZ06TSFFG2Z6Z3TD4F&a=FS1N9&tp_a=FS1N9&b=3N1FSUEFL6MMCZ06TSFFG2Z6Z3TD4F&tp_b=3N1FSUEFL6MMCZ06TSFFG2Z6Z3TD4F&c=365799&tp_c=365799","heads":1,"tails":4,"studentIndex":0,"studentTrueHypers":{"a":4,"b":1},"studentGuess":0.5,"delta":0.3,"totalExamples":5,"bonusSoFar":0},{"rt":44577,"response":{"heads":"2","tails":"8"},"type":"response","condition":"seqNoFeedback","trueTheta":0.2,"classrooms":["A","B"],"studentTrueClassroom":"B","exampleSet":"second","trial_type":"survey-html-form","trial_index":10,"time_elapsed":765631,"internal_node_id":"0.0-9.0-0.0","params":{"nStudents":24,"maxFlips":30,"completionMinutes":45,"basePay":8,"maxBonus":9,"perTrialBonus":0.5,"perTrialBonusThreshold":0.05,"exampleCost":0.01},"classroomParams":{"A":{"a":1,"b":4},"B":{"a":4,"b":1},"C":{"a":2,"b":8},"D":{"a":8,"b":2}},"conditions":["nonSeqFull","nonSeqPartial","seqNoFeedback","seqFeedback"],"classroomPairings":[["A","B"],["C","D"]],"coinWeights":[0.2,0.5,0.8],"subjectId":"ARYL3C6N9SVV1","assignmentId":"3N1FSUEFL6MMCZ06TSFFG2Z6Z3TD4F","hitId":"3UDTAB6HH6LRO17U79I9TKUGSHV90J","url":"https://gershmanlab.com/experiments/alicia/teaching/experiment/?hitId=3UDTAB6HH6LRO17U79I9TKUGSHV90J&workerId=ARYL3C6N9SVV1&assignmentId=3N1FSUEFL6MMCZ06TSFFG2Z6Z3TD4F&a=FS1N9&tp_a=FS1N9&b=3N1FSUEFL6MMCZ06TSFFG2Z6Z3TD4F&tp_b=3N1FSUEFL6MMCZ06TSFFG2Z6Z3TD4F&c=365799&tp_c=365799","firstResponseHeads":1,"firstResponseTails":4,"secondResponseHeads":2,"secondResponseTails":8,"totalHeads":3,"totalTails":12,"studentIndex":0,"studentTrueHypers":{"a":4,"b":1},"studentGuess":0.35,"delta":0.14999999999999997,"bonus":0,"bonusSoFar":0,"totalExamples":15},{"rt":13928,"response":{"heads":"4","tails":"1"},"type":"response","condition":"seqNoFeedback","trueTheta":0.8,"classrooms":["A","B"],"studentTrueClassroom":"A","exampleSet":"first","trial_type":"survey-html-form","trial_index":16,"time_elapsed":806228,"internal_node_id":"0.0-15.0-0.0","params":{"nStudents":24,"maxFlips":30,"completionMinutes":45,"basePay":8,"maxBonus":9,"perTrialBonus":0.5,"perTrialBonusThreshold":0.05,"exampleCost":0.01},"classroomParams":{"A":{"a":1,"b":4},"B":{"a":4,"b":1},"C":{"a":2,"b":8},"D":{"a":8,"b":2}},"conditions":["nonSeqFull","nonSeqPartial","seqNoFeedback","seqFeedback"],"classroomPairings":[["A","B"],["C","D"]],"coinWeights":[0.2,0.5,0.8],"subjectId":"ARYL3C6N9SVV1","assignmentId":"3N1FSUEFL6MMCZ06TSFFG2Z6Z3TD4F","hitId":"3UDTAB6HH6LRO17U79I9TKUGSHV90J","url":"https://gershmanlab.com/experiments/alicia/teaching/experiment/?hitId=3UDTAB6HH6LRO17U79I9TKUGSHV90J&workerId=ARYL3C6N9SVV1&assignmentId=3N1FSUEFL6MMCZ06TSFFG2Z6Z3TD4F&a=FS1N9&tp_a=FS1N9&b=3N1FSUEFL6MMCZ06TSFFG2Z6Z3TD4F&tp_b=3N1FSUEFL6MMCZ06TSFFG2Z6Z3TD4F&c=365799&tp_c=365799","heads":4,"tails":1,"studentIndex":1,"studentTrueHypers":{"a":1,"b":4},"studentGuess":0.5,"delta":0.30000000000000004,"totalExamples":5,"bonusSoFar":0},{"rt":10087,"response":{"heads":"4","tails":"1"},"type":"response","condition":"seqNoFeedback","trueTheta":0.8,"classrooms":["A","B"],"studentTrueClassroom":"A","exampleSet":"second","trial_type":"survey-html-form","trial_index":19,"time_elapsed":823838,"internal_node_id":"0.0-18.0-0.0","params":{"nStudents":24,"maxFlips":30,"completionMinutes":45,"basePay":8,"maxBonus":9,"perTrialBonus":0.5,"perTrialBonusThreshold":0.05,"exampleCost":0.01},"classroomParams":{"A":{"a":1,"b":4},"B":{"a":4,"b":1},"C":{"a":2,"b":8},"D":{"a":8,"b":2}},"conditions":["nonSeqFull","nonSeqPartial","seqNoFeedback","seqFeedback"],"classroomPairings":[["A","B"],["C","D"]],"coinWeights":[0.2,0.5,0.8],"subjectId":"ARYL3C6N9SVV1","assignmentId":"3N1FSUEFL6MMCZ06TSFFG2Z6Z3TD4F","hitId":"3UDTAB6HH6LRO17U79I9TKUGSHV90J","url":"https://gershmanlab.com/experiments/alicia/teaching/experiment/?hitId=3UDTAB6HH6LRO17U79I9TKUGSHV90J&workerId=ARYL3C6N9SVV1&assignmentId=3N1FSUEFL6MMCZ06TSFFG2Z6Z3TD4F&a=FS1N9&tp_a=FS1N9&b=3N1FSUEFL6MMCZ06TSFFG2Z6Z3TD4F&tp_b=3N1FSUEFL6MMCZ06TSFFG2Z6Z3TD4F&c=365799&tp_c=365799","firstResponseHeads":4,"firstResponseTails":1,"secondResponseHeads":4,"secondResponseTails":1,"totalHeads":8,"totalTails":2,"studentIndex":1,"studentTrueHypers":{"a":1,"b":4},"studentGuess":0.6,"delta":0.20000000000000007,"bonus":0,"bonusSoFar":0,"totalExamples":10},{"rt":27182,"response":{"heads":"1","tails":"7"},"type":"response","condition":"nonSeqPartial","trueTheta":0.2,"classrooms":["A","B"],"studentTrueClassroom":"B","exampleSet":"first","trial_type":"survey-html-form","trial_index":25,"time_elapsed":869130,"internal_node_id":"0.0-24.0-0.0","params":{"nStudents":24,"maxFlips":30,"completionMinutes":45,"basePay":8,"maxBonus":9,"perTrialBonus":0.5,"perTrialBonusThreshold":0.05,"exampleCost":0.01},"classroomParams":{"A":{"a":1,"b":4},"B":{"a":4,"b":1},"C":{"a":2,"b":8},"D":{"a":8,"b":2}},"conditions":["nonSeqFull","nonSeqPartial","seqNoFeedback","seqFeedback"],"classroomPairings":[["A","B"],["C","D"]],"coinWeights":[0.2,0.5,0.8],"subjectId":"ARYL3C6N9SVV1","assignmentId":"3N1FSUEFL6MMCZ06TSFFG2Z6Z3TD4F","hitId":"3UDTAB6HH6LRO17U79I9TKUGSHV90J","url":"https://gershmanlab.com/experiments/alicia/teaching/experiment/?hitId=3UDTAB6HH6LRO17U79I9TKUGSHV90J&workerId=ARYL3C6N9SVV1&assignmentId=3N1FSUEFL6MMCZ06TSFFG2Z6Z3TD4F&a=FS1N9&tp_a=FS1N9&b=3N1FSUEFL6MMCZ06TSFFG2Z6Z3TD4F&tp_b=3N1FSUEFL6MMCZ06TSFFG2Z6Z3TD4F&c=365799&tp_c=365799","heads":1,"tails":7,"studentIndex":2,"studentTrueHypers":{"a":4,"b":1},"studentGuess":0.38461538461538464,"delta":0.18461538461538463,"totalExamples":8,"bonus":0,"bonusSoFar":0},{"rt":16279,"response":{"heads":"5","tails":"5"},"type":"response","condition":"seqNoFeedback","trueTheta":0.5,"classrooms":["C","D"],"studentTrueClassroom":"C","exampleSet":"first","trial_type":"survey-html-form","trial_index":31,"time_elapsed":905610,"internal_node_id":"0.0-30.0-0.0","params":{"nStudents":24,"maxFlips":30,"completionMinutes":45,"basePay":8,"maxBonus":9,"perTrialBonus":0.5,"perTrialBonusThreshold":0.05,"exampleCost":0.01},"classroomParams":{"A":{"a":1,"b":4},"B":{"a":4,"b":1},"C":{"a":2,"b":8},"D":{"a":8,"b":2}},"conditions":["nonSeqFull","nonSeqPartial","seqNoFeedback","seqFeedback"],"classroomPairings":[["A","B"],["C","D"]],"coinWeights":[0.2,0.5,0.8],"subjectId":"ARYL3C6N9SVV1","assignmentId":"3N1FSUEFL6MMCZ06TSFFG2Z6Z3TD4F","hitId":"3UDTAB6HH6LRO17U79I9TKUGSHV90J","url":"https://gershmanlab.com/experiments/alicia/teaching/experiment/?hitId=3UDTAB6HH6LRO17U79I9TKUGSHV90J&workerId=ARYL3C6N9SVV1&assignmentId=3N1FSUEFL6MMCZ06TSFFG2Z6Z3TD4F&a=FS1N9&tp_a=FS1N9&b=3N1FSUEFL6MMCZ06TSFFG2Z6Z3TD4F&tp_b=3N1FSUEFL6MMCZ06TSFFG2Z6Z3TD4F&c=365799&tp_c=365799","heads":5,"tails":5,"studentIndex":3,"studentTrueHypers":{"a":2,"b":8},"studentGuess":0.35,"delta":0.15000000000000002,"totalExamples":10,"bonusSoFar":0},{"rt":24701,"response":{"heads":"5","tails":"5"},"type":"response","condition":"seqNoFeedback","trueTheta":0.5,"classrooms":["C","D"],"studentTrueClassroom":"C","exampleSet":"second","trial_type":"survey-html-form","trial_index":34,"time_elapsed":937820,"internal_node_id":"0.0-33.0-0.0","params":{"nStudents":24,"maxFlips":30,"completionMinutes":45,"basePay":8,"maxBonus":9,"perTrialBonus":0.5,"perTrialBonusThreshold":0.05,"exampleCost":0.01},"classroomParams":{"A":{"a":1,"b":4},"B":{"a":4,"b":1},"C":{"a":2,"b":8},"D":{"a":8,"b":2}},"conditions":["nonSeqFull","nonSeqPartial","seqNoFeedback","seqFeedback"],"classroomPairings":[["A","B"],["C","D"]],"coinWeights":[0.2,0.5,0.8],"subjectId":"ARYL3C6N9SVV1","assignmentId":"3N1FSUEFL6MMCZ06TSFFG2Z6Z3TD4F","hitId":"3UDTAB6HH6LRO17U79I9TKUGSHV90J","url":"https://gershmanlab.com/experiments/alicia/teaching/experiment/?hitId=3UDTAB6HH6LRO17U79I9TKUGSHV90J&workerId=ARYL3C6N9SVV1&assignmentId=3N1FSUEFL6MMCZ06TSFFG2Z6Z3TD4F&a=FS1N9&tp_a=FS1N9&b=3N1FSUEFL6MMCZ06TSFFG2Z6Z3TD4F&tp_b=3N1FSUEFL6MMCZ06TSFFG2Z6Z3TD4F&c=365799&tp_c=365799","firstResponseHeads":5,"firstResponseTails":5,"secondResponseHeads":5,"secondResponseTails":5,"totalHeads":10,"totalTails":10,"studentIndex":3,"studentTrueHypers":{"a":2,"b":8},"studentGuess":0.4,"delta":0.09999999999999998,"bonus":0,"bonusSoFar":0,"totalExamples":20},{"rt":11770,"response":{"heads":"9","tails":"1"},"type":"response","condition":"seqNoFeedback","trueTheta":0.8,"classrooms":["C","D"],"studentTrueClassroom":"C","exampleSet":"first","trial_type":"survey-html-form","trial_index":40,"time_elapsed":968492,"internal_node_id":"0.0-39.0-0.0","params":{"nStudents":24,"maxFlips":30,"completionMinutes":45,"basePay":8,"maxBonus":9,"perTrialBonus":0.5,"perTrialBonusThreshold":0.05,"exampleCost":0.01},"classroomParams":{"A":{"a":1,"b":4},"B":{"a":4,"b":1},"C":{"a":2,"b":8},"D":{"a":8,"b":2}},"conditions":["nonSeqFull","nonSeqPartial","seqNoFeedback","seqFeedback"],"classroomPairings":[["A","B"],["C","D"]],"coinWeights":[0.2,0.5,0.8],"subjectId":"ARYL3C6N9SVV1","assignmentId":"3N1FSUEFL6MMCZ06TSFFG2Z6Z3TD4F","hitId":"3UDTAB6HH6LRO17U79I9TKUGSHV90J","url":"https://gershmanlab.com/experiments/alicia/teaching/experiment/?hitId=3UDTAB6HH6LRO17U79I9TKUGSHV90J&workerId=ARYL3C6N9SVV1&assignmentId=3N1FSUEFL6MMCZ06TSFFG2Z6Z3TD4F&a=FS1N9&tp_a=FS1N9&b=3N1FSUEFL6MMCZ06TSFFG2Z6Z3TD4F&tp_b=3N1FSUEFL6MMCZ06TSFFG2Z6Z3TD4F&c=365799&tp_c=365799","heads":9,"tails":1,"studentIndex":4,"studentTrueHypers":{"a":2,"b":8},"studentGuess":0.55,"delta":0.25,"totalExamples":10,"bonusSoFar":0},{"rt":9233,"response":{"heads":"9","tails":"1"},"type":"response","condition":"seqNoFeedback","trueTheta":0.8,"classrooms":["C","D"],"studentTrueClassroom":"C","exampleSet":"second","trial_type":"survey-html-form","trial_index":43,"time_elapsed":985746,"internal_node_id":"0.0-42.0-0.0","params":{"nStudents":24,"maxFlips":30,"completionMinutes":45,"basePay":8,"maxBonus":9,"perTrialBonus":0.5,"perTrialBonusThreshold":0.05,"exampleCost":0.01},"classroomParams":{"A":{"a":1,"b":4},"B":{"a":4,"b":1},"C":{"a":2,"b":8},"D":{"a":8,"b":2}},"conditions":["nonSeqFull","nonSeqPartial","seqNoFeedback","seqFeedback"],"classroomPairings":[["A","B"],["C","D"]],"coinWeights":[0.2,0.5,0.8],"subjectId":"ARYL3C6N9SVV1","assignmentId":"3N1FSUEFL6MMCZ06TSFFG2Z6Z3TD4F","hitId":"3UDTAB6HH6LRO17U79I9TKUGSHV90J","url":"https://gershmanlab.com/experiments/alicia/teaching/experiment/?hitId=3UDTAB6HH6LRO17U79I9TKUGSHV90J&workerId=ARYL3C6N9SVV1&assignmentId=3N1FSUEFL6MMCZ06TSFFG2Z6Z3TD4F&a=FS1N9&tp_a=FS1N9&b=3N1FSUEFL6MMCZ06TSFFG2Z6Z3TD4F&tp_b=3N1FSUEFL6MMCZ06TSFFG2Z6Z3TD4F&c=365799&tp_c=365799","firstResponseHeads":9,"firstResponseTails":1,"secondResponseHeads":9,"secondResponseTails":1,"totalHeads":18,"totalTails":2,"studentIndex":4,"studentTrueHypers":{"a":2,"b":8},"studentGuess":0.6666666666666666,"delta":0.13333333333333341,"bonus":0,"bonusSoFar":0,"totalExamples":20},{"rt":8139,"response":{"heads":"10","tails":"10"},"type":"response","condition":"nonSeqFull","trueTheta":0.5,"classrooms":["C","D"],"studentTrueClassroom":"C","exampleSet":"first","trial_type":"survey-html-form","trial_index":49,"time_elapsed":1007423,"internal_node_id":"0.0-48.0-0.0","params":{"nStudents":24,"maxFlips":30,"completionMinutes":45,"basePay":8,"maxBonus":9,"perTrialBonus":0.5,"perTrialBonusThreshold":0.05,"exampleCost":0.01},"classroomParams":{"A":{"a":1,"b":4},"B":{"a":4,"b":1},"C":{"a":2,"b":8},"D":{"a":8,"b":2}},"conditions":["nonSeqFull","nonSeqPartial","seqNoFeedback","seqFeedback"],"classroomPairings":[["A","B"],["C","D"]],"coinWeights":[0.2,0.5,0.8],"subjectId":"ARYL3C6N9SVV1","assignmentId":"3N1FSUEFL6MMCZ06TSFFG2Z6Z3TD4F","hitId":"3UDTAB6HH6LRO17U79I9TKUGSHV90J","url":"https://gershmanlab.com/experiments/alicia/teaching/experiment/?hitId=3UDTAB6HH6LRO17U79I9TKUGSHV90J&workerId=ARYL3C6N9SVV1&assignmentId=3N1FSUEFL6MMCZ06TSFFG2Z6Z3TD4F&a=FS1N9&tp_a=FS1N9&b=3N1FSUEFL6MMCZ06TSFFG2Z6Z3TD4F&tp_b=3N1FSUEFL6MMCZ06TSFFG2Z6Z3TD4F&c=365799&tp_c=365799","heads":10,"tails":10,"studentIndex":5,"studentTrueHypers":{"a":2,"b":8},"studentGuess":0.4,"delta":0.09999999999999998,"totalExamples":20,"bonus":0,"bonusSoFar":0},{"rt":10748,"response":{"heads":"9","tails":"1"},"type":"response","condition":"nonSeqPartial","trueTheta":0.8,"classrooms":["A","B"],"studentTrueClassroom":"B","exampleSet":"first","trial_type":"survey-html-form","trial_index":55,"time_elapsed":1036254,"internal_node_id":"0.0-54.0-0.0","params":{"nStudents":24,"maxFlips":30,"completionMinutes":45,"basePay":8,"maxBonus":9,"perTrialBonus":0.5,"perTrialBonusThreshold":0.05,"exampleCost":0.01},"classroomParams":{"A":{"a":1,"b":4},"B":{"a":4,"b":1},"C":{"a":2,"b":8},"D":{"a":8,"b":2}},"conditions":["nonSeqFull","nonSeqPartial","seqNoFeedback","seqFeedback"],"classroomPairings":[["A","B"],["C","D"]],"coinWeights":[0.2,0.5,0.8],"subjectId":"ARYL3C6N9SVV1","assignmentId":"3N1FSUEFL6MMCZ06TSFFG2Z6Z3TD4F","hitId":"3UDTAB6HH6LRO17U79I9TKUGSHV90J","url":"https://gershmanlab.com/experiments/alicia/teaching/experiment/?hitId=3UDTAB6HH6LRO17U79I9TKUGSHV90J&workerId=ARYL3C6N9SVV1&assignmentId=3N1FSUEFL6MMCZ06TSFFG2Z6Z3TD4F&a=FS1N9&tp_a=FS1N9&b=3N1FSUEFL6MMCZ06TSFFG2Z6Z3TD4F&tp_b=3N1FSUEFL6MMCZ06TSFFG2Z6Z3TD4F&c=365799&tp_c=365799","heads":9,"tails":1,"studentIndex":6,"studentTrueHypers":{"a":4,"b":1},"studentGuess":0.8666666666666667,"delta":0.06666666666666665,"totalExamples":10,"bonus":0,"bonusSoFar":0},{"rt":16852,"response":{"heads":"5","tails":"1"},"type":"response","condition":"seqFeedback","trueTheta":0.8,"classrooms":["C","D"],"studentTrueClassroom":"D","exampleSet":"first","trial_type":"survey-html-form","trial_index":61,"time_elapsed":1085548,"internal_node_id":"0.0-60.0-0.0","params":{"nStudents":24,"maxFlips":30,"completionMinutes":45,"basePay":8,"maxBonus":9,"perTrialBonus":0.5,"perTrialBonusThreshold":0.05,"exampleCost":0.01},"classroomParams":{"A":{"a":1,"b":4},"B":{"a":4,"b":1},"C":{"a":2,"b":8},"D":{"a":8,"b":2}},"conditions":["nonSeqFull","nonSeqPartial","seqNoFeedback","seqFeedback"],"classroomPairings":[["A","B"],["C","D"]],"coinWeights":[0.2,0.5,0.8],"subjectId":"ARYL3C6N9SVV1","assignmentId":"3N1FSUEFL6MMCZ06TSFFG2Z6Z3TD4F","hitId":"3UDTAB6HH6LRO17U79I9TKUGSHV90J","url":"https://gershmanlab.com/experiments/alicia/teaching/experiment/?hitId=3UDTAB6HH6LRO17U79I9TKUGSHV90J&workerId=ARYL3C6N9SVV1&assignmentId=3N1FSUEFL6MMCZ06TSFFG2Z6Z3TD4F&a=FS1N9&tp_a=FS1N9&b=3N1FSUEFL6MMCZ06TSFFG2Z6Z3TD4F&tp_b=3N1FSUEFL6MMCZ06TSFFG2Z6Z3TD4F&c=365799&tp_c=365799","heads":5,"tails":1,"studentIndex":7,"studentTrueHypers":{"a":8,"b":2},"studentGuess":0.8125,"delta":0.012499999999999956,"totalExamples":6,"bonusSoFar":0},{"rt":19944,"response":{"heads":"8","tails":"2"},"type":"response","condition":"seqFeedback","trueTheta":0.8,"classrooms":["C","D"],"studentTrueClassroom":"D","exampleSet":"second","trial_type":"survey-html-form","trial_index":65,"time_elapsed":1119859,"internal_node_id":"0.0-64.0-0.0","params":{"nStudents":24,"maxFlips":30,"completionMinutes":45,"basePay":8,"maxBonus":9,"perTrialBonus":0.5,"perTrialBonusThreshold":0.05,"exampleCost":0.01},"classroomParams":{"A":{"a":1,"b":4},"B":{"a":4,"b":1},"C":{"a":2,"b":8},"D":{"a":8,"b":2}},"conditions":["nonSeqFull","nonSeqPartial","seqNoFeedback","seqFeedback"],"classroomPairings":[["A","B"],["C","D"]],"coinWeights":[0.2,0.5,0.8],"subjectId":"ARYL3C6N9SVV1","assignmentId":"3N1FSUEFL6MMCZ06TSFFG2Z6Z3TD4F","hitId":"3UDTAB6HH6LRO17U79I9TKUGSHV90J","url":"https://gershmanlab.com/experiments/alicia/teaching/experiment/?hitId=3UDTAB6HH6LRO17U79I9TKUGSHV90J&workerId=ARYL3C6N9SVV1&assignmentId=3N1FSUEFL6MMCZ06TSFFG2Z6Z3TD4F&a=FS1N9&tp_a=FS1N9&b=3N1FSUEFL6MMCZ06TSFFG2Z6Z3TD4F&tp_b=3N1FSUEFL6MMCZ06TSFFG2Z6Z3TD4F&c=365799&tp_c=365799","firstResponseHeads":5,"firstResponseTails":1,"secondResponseHeads":8,"secondResponseTails":2,"totalHeads":13,"totalTails":3,"studentIndex":7,"studentTrueHypers":{"a":8,"b":2},"studentGuess":0.8076923076923077,"delta":0.007692307692307665,"bonus":0.34,"bonusSoFar":0.34,"totalExamples":16},{"rt":7568,"response":{"heads":"2","tails":"4"},"type":"response","condition":"nonSeqPartial","trueTheta":0.2,"classrooms":["C","D"],"studentTrueClassroom":"D","exampleSet":"first","trial_type":"survey-html-form","trial_index":71,"time_elapsed":1146109,"internal_node_id":"0.0-70.0-0.0","params":{"nStudents":24,"maxFlips":30,"completionMinutes":45,"basePay":8,"maxBonus":9,"perTrialBonus":0.5,"perTrialBonusThreshold":0.05,"exampleCost":0.01},"classroomParams":{"A":{"a":1,"b":4},"B":{"a":4,"b":1},"C":{"a":2,"b":8},"D":{"a":8,"b":2}},"conditions":["nonSeqFull","nonSeqPartial","seqNoFeedback","seqFeedback"],"classroomPairings":[["A","B"],["C","D"]],"coinWeights":[0.2,0.5,0.8],"subjectId":"ARYL3C6N9SVV1","assignmentId":"3N1FSUEFL6MMCZ06TSFFG2Z6Z3TD4F","hitId":"3UDTAB6HH6LRO17U79I9TKUGSHV90J","url":"https://gershmanlab.com/experiments/alicia/teaching/experiment/?hitId=3UDTAB6HH6LRO17U79I9TKUGSHV90J&workerId=ARYL3C6N9SVV1&assignmentId=3N1FSUEFL6MMCZ06TSFFG2Z6Z3TD4F&a=FS1N9&tp_a=FS1N9&b=3N1FSUEFL6MMCZ06TSFFG2Z6Z3TD4F&tp_b=3N1FSUEFL6MMCZ06TSFFG2Z6Z3TD4F&c=365799&tp_c=365799","heads":2,"tails":4,"studentIndex":8,"studentTrueHypers":{"a":8,"b":2},"studentGuess":0.625,"delta":0.425,"totalExamples":6,"bonus":0,"bonusSoFar":0.34},{"rt":30031,"response":{"heads":"2","tails":"2"},"type":"response","condition":"seqFeedback","trueTheta":0.5,"classrooms":["A","B"],"studentTrueClassroom":"B","exampleSet":"first","trial_type":"survey-html-form","trial_index":77,"time_elapsed":1191991,"internal_node_id":"0.0-76.0-0.0","params":{"nStudents":24,"maxFlips":30,"completionMinutes":45,"basePay":8,"maxBonus":9,"perTrialBonus":0.5,"perTrialBonusThreshold":0.05,"exampleCost":0.01},"classroomParams":{"A":{"a":1,"b":4},"B":{"a":4,"b":1},"C":{"a":2,"b":8},"D":{"a":8,"b":2}},"conditions":["nonSeqFull","nonSeqPartial","seqNoFeedback","seqFeedback"],"classroomPairings":[["A","B"],["C","D"]],"coinWeights":[0.2,0.5,0.8],"subjectId":"ARYL3C6N9SVV1","assignmentId":"3N1FSUEFL6MMCZ06TSFFG2Z6Z3TD4F","hitId":"3UDTAB6HH6LRO17U79I9TKUGSHV90J","url":"https://gershmanlab.com/experiments/alicia/teaching/experiment/?hitId=3UDTAB6HH6LRO17U79I9TKUGSHV90J&workerId=ARYL3C6N9SVV1&assignmentId=3N1FSUEFL6MMCZ06TSFFG2Z6Z3TD4F&a=FS1N9&tp_a=FS1N9&b=3N1FSUEFL6MMCZ06TSFFG2Z6Z3TD4F&tp_b=3N1FSUEFL6MMCZ06TSFFG2Z6Z3TD4F&c=365799&tp_c=365799","heads":2,"tails":2,"studentIndex":9,"studentTrueHypers":{"a":4,"b":1},"studentGuess":0.6666666666666666,"delta":0.16666666666666663,"totalExamples":4,"bonusSoFar":0.34},{"rt":6365,"response":{"heads":"2","tails":"2"},"type":"response","condition":"seqFeedback","trueTheta":0.5,"classrooms":["A","B"],"studentTrueClassroom":"B","exampleSet":"second","trial_type":"survey-html-form","trial_index":81,"time_elapsed":1209462,"internal_node_id":"0.0-80.0-0.0","params":{"nStudents":24,"maxFlips":30,"completionMinutes":45,"basePay":8,"maxBonus":9,"perTrialBonus":0.5,"perTrialBonusThreshold":0.05,"exampleCost":0.01},"classroomParams":{"A":{"a":1,"b":4},"B":{"a":4,"b":1},"C":{"a":2,"b":8},"D":{"a":8,"b":2}},"conditions":["nonSeqFull","nonSeqPartial","seqNoFeedback","seqFeedback"],"classroomPairings":[["A","B"],["C","D"]],"coinWeights":[0.2,0.5,0.8],"subjectId":"ARYL3C6N9SVV1","assignmentId":"3N1FSUEFL6MMCZ06TSFFG2Z6Z3TD4F","hitId":"3UDTAB6HH6LRO17U79I9TKUGSHV90J","url":"https://gershmanlab.com/experiments/alicia/teaching/experiment/?hitId=3UDTAB6HH6LRO17U79I9TKUGSHV90J&workerId=ARYL3C6N9SVV1&assignmentId=3N1FSUEFL6MMCZ06TSFFG2Z6Z3TD4F&a=FS1N9&tp_a=FS1N9&b=3N1FSUEFL6MMCZ06TSFFG2Z6Z3TD4F&tp_b=3N1FSUEFL6MMCZ06TSFFG2Z6Z3TD4F&c=365799&tp_c=365799","firstResponseHeads":2,"firstResponseTails":2,"secondResponseHeads":2,"secondResponseTails":2,"totalHeads":4,"totalTails":4,"studentIndex":9,"studentTrueHypers":{"a":4,"b":1},"studentGuess":0.6153846153846154,"delta":0.11538461538461542,"bonus":0,"bonusSoFar":0.34,"totalExamples":8},{"rt":5829,"response":{"heads":"5","tails":"5"},"type":"response","condition":"nonSeqFull","trueTheta":0.5,"classrooms":["A","B"],"studentTrueClassroom":"B","exampleSet":"first","trial_type":"survey-html-form","trial_index":87,"time_elapsed":1231093,"internal_node_id":"0.0-86.0-0.0","params":{"nStudents":24,"maxFlips":30,"completionMinutes":45,"basePay":8,"maxBonus":9,"perTrialBonus":0.5,"perTrialBonusThreshold":0.05,"exampleCost":0.01},"classroomParams":{"A":{"a":1,"b":4},"B":{"a":4,"b":1},"C":{"a":2,"b":8},"D":{"a":8,"b":2}},"conditions":["nonSeqFull","nonSeqPartial","seqNoFeedback","seqFeedback"],"classroomPairings":[["A","B"],["C","D"]],"coinWeights":[0.2,0.5,0.8],"subjectId":"ARYL3C6N9SVV1","assignmentId":"3N1FSUEFL6MMCZ06TSFFG2Z6Z3TD4F","hitId":"3UDTAB6HH6LRO17U79I9TKUGSHV90J","url":"https://gershmanlab.com/experiments/alicia/teaching/experiment/?hitId=3UDTAB6HH6LRO17U79I9TKUGSHV90J&workerId=ARYL3C6N9SVV1&assignmentId=3N1FSUEFL6MMCZ06TSFFG2Z6Z3TD4F&a=FS1N9&tp_a=FS1N9&b=3N1FSUEFL6MMCZ06TSFFG2Z6Z3TD4F&tp_b=3N1FSUEFL6MMCZ06TSFFG2Z6Z3TD4F&c=365799&tp_c=365799","heads":5,"tails":5,"studentIndex":10,"studentTrueHypers":{"a":4,"b":1},"studentGuess":0.6,"delta":0.09999999999999998,"totalExamples":10,"bonus":0,"bonusSoFar":0.34},{"rt":5899,"response":{"heads":"3","tails":"3"},"type":"response","condition":"seqFeedback","trueTheta":0.5,"classrooms":["C","D"],"studentTrueClassroom":"D","exampleSet":"first","trial_type":"survey-html-form","trial_index":93,"time_elapsed":1250153,"internal_node_id":"0.0-92.0-0.0","params":{"nStudents":24,"maxFlips":30,"completionMinutes":45,"basePay":8,"maxBonus":9,"perTrialBonus":0.5,"perTrialBonusThreshold":0.05,"exampleCost":0.01},"classroomParams":{"A":{"a":1,"b":4},"B":{"a":4,"b":1},"C":{"a":2,"b":8},"D":{"a":8,"b":2}},"conditions":["nonSeqFull","nonSeqPartial","seqNoFeedback","seqFeedback"],"classroomPairings":[["A","B"],["C","D"]],"coinWeights":[0.2,0.5,0.8],"subjectId":"ARYL3C6N9SVV1","assignmentId":"3N1FSUEFL6MMCZ06TSFFG2Z6Z3TD4F","hitId":"3UDTAB6HH6LRO17U79I9TKUGSHV90J","url":"https://gershmanlab.com/experiments/alicia/teaching/experiment/?hitId=3UDTAB6HH6LRO17U79I9TKUGSHV90J&workerId=ARYL3C6N9SVV1&assignmentId=3N1FSUEFL6MMCZ06TSFFG2Z6Z3TD4F&a=FS1N9&tp_a=FS1N9&b=3N1FSUEFL6MMCZ06TSFFG2Z6Z3TD4F&tp_b=3N1FSUEFL6MMCZ06TSFFG2Z6Z3TD4F&c=365799&tp_c=365799","heads":3,"tails":3,"studentIndex":11,"studentTrueHypers":{"a":8,"b":2},"studentGuess":0.6875,"delta":0.1875,"totalExamples":6,"bonusSoFar":0.34},{"rt":12034,"response":{"heads":"3","tails":"3"},"type":"response","condition":"seqFeedback","trueTheta":0.5,"classrooms":["C","D"],"studentTrueClassroom":"D","exampleSet":"second","trial_type":"survey-html-form","trial_index":97,"time_elapsed":1270844,"internal_node_id":"0.0-96.0-0.0","params":{"nStudents":24,"maxFlips":30,"completionMinutes":45,"basePay":8,"maxBonus":9,"perTrialBonus":0.5,"perTrialBonusThreshold":0.05,"exampleCost":0.01},"classroomParams":{"A":{"a":1,"b":4},"B":{"a":4,"b":1},"C":{"a":2,"b":8},"D":{"a":8,"b":2}},"conditions":["nonSeqFull","nonSeqPartial","seqNoFeedback","seqFeedback"],"classroomPairings":[["A","B"],["C","D"]],"coinWeights":[0.2,0.5,0.8],"subjectId":"ARYL3C6N9SVV1","assignmentId":"3N1FSUEFL6MMCZ06TSFFG2Z6Z3TD4F","hitId":"3UDTAB6HH6LRO17U79I9TKUGSHV90J","url":"https://gershmanlab.com/experiments/alicia/teaching/experiment/?hitId=3UDTAB6HH6LRO17U79I9TKUGSHV90J&workerId=ARYL3C6N9SVV1&assignmentId=3N1FSUEFL6MMCZ06TSFFG2Z6Z3TD4F&a=FS1N9&tp_a=FS1N9&b=3N1FSUEFL6MMCZ06TSFFG2Z6Z3TD4F&tp_b=3N1FSUEFL6MMCZ06TSFFG2Z6Z3TD4F&c=365799&tp_c=365799","firstResponseHeads":3,"firstResponseTails":3,"secondResponseHeads":3,"secondResponseTails":3,"totalHeads":6,"totalTails":6,"studentIndex":11,"studentTrueHypers":{"a":8,"b":2},"studentGuess":0.6363636363636364,"delta":0.13636363636363635,"bonus":0,"bonusSoFar":0.34,"totalExamples":12},{"rt":13060,"response":{"heads":"4","tails":"1"},"type":"response","condition":"seqFeedback","trueTheta":0.8,"classrooms":["A","B"],"studentTrueClassroom":"B","exampleSet":"first","trial_type":"survey-html-form","trial_index":103,"time_elapsed":1296546,"internal_node_id":"0.0-102.0-0.0","params":{"nStudents":24,"maxFlips":30,"completionMinutes":45,"basePay":8,"maxBonus":9,"perTrialBonus":0.5,"perTrialBonusThreshold":0.05,"exampleCost":0.01},"classroomParams":{"A":{"a":1,"b":4},"B":{"a":4,"b":1},"C":{"a":2,"b":8},"D":{"a":8,"b":2}},"conditions":["nonSeqFull","nonSeqPartial","seqNoFeedback","seqFeedback"],"classroomPairings":[["A","B"],["C","D"]],"coinWeights":[0.2,0.5,0.8],"subjectId":"ARYL3C6N9SVV1","assignmentId":"3N1FSUEFL6MMCZ06TSFFG2Z6Z3TD4F","hitId":"3UDTAB6HH6LRO17U79I9TKUGSHV90J","url":"https://gershmanlab.com/experiments/alicia/teaching/experiment/?hitId=3UDTAB6HH6LRO17U79I9TKUGSHV90J&workerId=ARYL3C6N9SVV1&assignmentId=3N1FSUEFL6MMCZ06TSFFG2Z6Z3TD4F&a=FS1N9&tp_a=FS1N9&b=3N1FSUEFL6MMCZ06TSFFG2Z6Z3TD4F&tp_b=3N1FSUEFL6MMCZ06TSFFG2Z6Z3TD4F&c=365799&tp_c=365799","heads":4,"tails":1,"studentIndex":12,"studentTrueHypers":{"a":4,"b":1},"studentGuess":0.8,"delta":0,"totalExamples":5,"bonusSoFar":0.34},{"rt":9822,"response":{"heads":"4","tails":"1"},"type":"response","condition":"seqFeedback","trueTheta":0.8,"classrooms":["A","B"],"studentTrueClassroom":"B","exampleSet":"second","trial_type":"survey-html-form","trial_index":107,"time_elapsed":1315466,"internal_node_id":"0.0-106.0-0.0","params":{"nStudents":24,"maxFlips":30,"completionMinutes":45,"basePay":8,"maxBonus":9,"perTrialBonus":0.5,"perTrialBonusThreshold":0.05,"exampleCost":0.01},"classroomParams":{"A":{"a":1,"b":4},"B":{"a":4,"b":1},"C":{"a":2,"b":8},"D":{"a":8,"b":2}},"conditions":["nonSeqFull","nonSeqPartial","seqNoFeedback","seqFeedback"],"classroomPairings":[["A","B"],["C","D"]],"coinWeights":[0.2,0.5,0.8],"subjectId":"ARYL3C6N9SVV1","assignmentId":"3N1FSUEFL6MMCZ06TSFFG2Z6Z3TD4F","hitId":"3UDTAB6HH6LRO17U79I9TKUGSHV90J","url":"https://gershmanlab.com/experiments/alicia/teaching/experiment/?hitId=3UDTAB6HH6LRO17U79I9TKUGSHV90J&workerId=ARYL3C6N9SVV1&assignmentId=3N1FSUEFL6MMCZ06TSFFG2Z6Z3TD4F&a=FS1N9&tp_a=FS1N9&b=3N1FSUEFL6MMCZ06TSFFG2Z6Z3TD4F&tp_b=3N1FSUEFL6MMCZ06TSFFG2Z6Z3TD4F&c=365799&tp_c=365799","firstResponseHeads":4,"firstResponseTails":1,"secondResponseHeads":4,"secondResponseTails":1,"totalHeads":8,"totalTails":2,"studentIndex":12,"studentTrueHypers":{"a":4,"b":1},"studentGuess":0.8,"delta":0,"bonus":0.4,"bonusSoFar":0.74,"totalExamples":10},{"rt":6178,"response":{"heads":"1","tails":"4"},"type":"response","condition":"seqFeedback","trueTheta":0.2,"classrooms":["C","D"],"studentTrueClassroom":"C","exampleSet":"first","trial_type":"survey-html-form","trial_index":113,"time_elapsed":1336446,"internal_node_id":"0.0-112.0-0.0","params":{"nStudents":24,"maxFlips":30,"completionMinutes":45,"basePay":8,"maxBonus":9,"perTrialBonus":0.5,"perTrialBonusThreshold":0.05,"exampleCost":0.01},"classroomParams":{"A":{"a":1,"b":4},"B":{"a":4,"b":1},"C":{"a":2,"b":8},"D":{"a":8,"b":2}},"conditions":["nonSeqFull","nonSeqPartial","seqNoFeedback","seqFeedback"],"classroomPairings":[["A","B"],["C","D"]],"coinWeights":[0.2,0.5,0.8],"subjectId":"ARYL3C6N9SVV1","assignmentId":"3N1FSUEFL6MMCZ06TSFFG2Z6Z3TD4F","hitId":"3UDTAB6HH6LRO17U79I9TKUGSHV90J","url":"https://gershmanlab.com/experiments/alicia/teaching/experiment/?hitId=3UDTAB6HH6LRO17U79I9TKUGSHV90J&workerId=ARYL3C6N9SVV1&assignmentId=3N1FSUEFL6MMCZ06TSFFG2Z6Z3TD4F&a=FS1N9&tp_a=FS1N9&b=3N1FSUEFL6MMCZ06TSFFG2Z6Z3TD4F&tp_b=3N1FSUEFL6MMCZ06TSFFG2Z6Z3TD4F&c=365799&tp_c=365799","heads":1,"tails":4,"studentIndex":13,"studentTrueHypers":{"a":2,"b":8},"studentGuess":0.2,"delta":0,"totalExamples":5,"bonusSoFar":0.74},{"rt":6344,"response":{"heads":"1","tails":"4"},"type":"response","condition":"seqFeedback","trueTheta":0.2,"classrooms":["C","D"],"studentTrueClassroom":"C","exampleSet":"second","trial_type":"survey-html-form","trial_index":117,"time_elapsed":1354307,"internal_node_id":"0.0-116.0-0.0","params":{"nStudents":24,"maxFlips":30,"completionMinutes":45,"basePay":8,"maxBonus":9,"perTrialBonus":0.5,"perTrialBonusThreshold":0.05,"exampleCost":0.01},"classroomParams":{"A":{"a":1,"b":4},"B":{"a":4,"b":1},"C":{"a":2,"b":8},"D":{"a":8,"b":2}},"conditions":["nonSeqFull","nonSeqPartial","seqNoFeedback","seqFeedback"],"classroomPairings":[["A","B"],["C","D"]],"coinWeights":[0.2,0.5,0.8],"subjectId":"ARYL3C6N9SVV1","assignmentId":"3N1FSUEFL6MMCZ06TSFFG2Z6Z3TD4F","hitId":"3UDTAB6HH6LRO17U79I9TKUGSHV90J","url":"https://gershmanlab.com/experiments/alicia/teaching/experiment/?hitId=3UDTAB6HH6LRO17U79I9TKUGSHV90J&workerId=ARYL3C6N9SVV1&assignmentId=3N1FSUEFL6MMCZ06TSFFG2Z6Z3TD4F&a=FS1N9&tp_a=FS1N9&b=3N1FSUEFL6MMCZ06TSFFG2Z6Z3TD4F&tp_b=3N1FSUEFL6MMCZ06TSFFG2Z6Z3TD4F&c=365799&tp_c=365799","firstResponseHeads":1,"firstResponseTails":4,"secondResponseHeads":1,"secondResponseTails":4,"totalHeads":2,"totalTails":8,"studentIndex":13,"studentTrueHypers":{"a":2,"b":8},"studentGuess":0.2,"delta":0,"bonus":0.4,"bonusSoFar":1.14,"totalExamples":10},{"rt":5970,"response":{"heads":"1","tails":"4"},"type":"response","condition":"nonSeqFull","trueTheta":0.2,"classrooms":["C","D"],"studentTrueClassroom":"D","exampleSet":"first","trial_type":"survey-html-form","trial_index":123,"time_elapsed":1376018,"internal_node_id":"0.0-122.0-0.0","params":{"nStudents":24,"maxFlips":30,"completionMinutes":45,"basePay":8,"maxBonus":9,"perTrialBonus":0.5,"perTrialBonusThreshold":0.05,"exampleCost":0.01},"classroomParams":{"A":{"a":1,"b":4},"B":{"a":4,"b":1},"C":{"a":2,"b":8},"D":{"a":8,"b":2}},"conditions":["nonSeqFull","nonSeqPartial","seqNoFeedback","seqFeedback"],"classroomPairings":[["A","B"],["C","D"]],"coinWeights":[0.2,0.5,0.8],"subjectId":"ARYL3C6N9SVV1","assignmentId":"3N1FSUEFL6MMCZ06TSFFG2Z6Z3TD4F","hitId":"3UDTAB6HH6LRO17U79I9TKUGSHV90J","url":"https://gershmanlab.com/experiments/alicia/teaching/experiment/?hitId=3UDTAB6HH6LRO17U79I9TKUGSHV90J&workerId=ARYL3C6N9SVV1&assignmentId=3N1FSUEFL6MMCZ06TSFFG2Z6Z3TD4F&a=FS1N9&tp_a=FS1N9&b=3N1FSUEFL6MMCZ06TSFFG2Z6Z3TD4F&tp_b=3N1FSUEFL6MMCZ06TSFFG2Z6Z3TD4F&c=365799&tp_c=365799","heads":1,"tails":4,"studentIndex":14,"studentTrueHypers":{"a":8,"b":2},"studentGuess":0.6,"delta":0.39999999999999997,"totalExamples":5,"bonus":0,"bonusSoFar":1.14},{"rt":4509,"response":{"heads":"2","tails":"2"},"type":"response","condition":"nonSeqPartial","trueTheta":0.5,"classrooms":["C","D"],"studentTrueClassroom":"C","exampleSet":"first","trial_type":"survey-html-form","trial_index":129,"time_elapsed":1392648,"internal_node_id":"0.0-128.0-0.0","params":{"nStudents":24,"maxFlips":30,"completionMinutes":45,"basePay":8,"maxBonus":9,"perTrialBonus":0.5,"perTrialBonusThreshold":0.05,"exampleCost":0.01},"classroomParams":{"A":{"a":1,"b":4},"B":{"a":4,"b":1},"C":{"a":2,"b":8},"D":{"a":8,"b":2}},"conditions":["nonSeqFull","nonSeqPartial","seqNoFeedback","seqFeedback"],"classroomPairings":[["A","B"],["C","D"]],"coinWeights":[0.2,0.5,0.8],"subjectId":"ARYL3C6N9SVV1","assignmentId":"3N1FSUEFL6MMCZ06TSFFG2Z6Z3TD4F","hitId":"3UDTAB6HH6LRO17U79I9TKUGSHV90J","url":"https://gershmanlab.com/experiments/alicia/teaching/experiment/?hitId=3UDTAB6HH6LRO17U79I9TKUGSHV90J&workerId=ARYL3C6N9SVV1&assignmentId=3N1FSUEFL6MMCZ06TSFFG2Z6Z3TD4F&a=FS1N9&tp_a=FS1N9&b=3N1FSUEFL6MMCZ06TSFFG2Z6Z3TD4F&tp_b=3N1FSUEFL6MMCZ06TSFFG2Z6Z3TD4F&c=365799&tp_c=365799","heads":2,"tails":2,"studentIndex":15,"studentTrueHypers":{"a":2,"b":8},"studentGuess":0.2857142857142857,"delta":0.2142857142857143,"totalExamples":4,"bonus":0,"bonusSoFar":1.14},{"rt":6357,"response":{"heads":"4","tails":"1"},"type":"response","condition":"nonSeqPartial","trueTheta":0.8,"classrooms":["C","D"],"studentTrueClassroom":"D","exampleSet":"first","trial_type":"survey-html-form","trial_index":135,"time_elapsed":1412228,"internal_node_id":"0.0-134.0-0.0","params":{"nStudents":24,"maxFlips":30,"completionMinutes":45,"basePay":8,"maxBonus":9,"perTrialBonus":0.5,"perTrialBonusThreshold":0.05,"exampleCost":0.01},"classroomParams":{"A":{"a":1,"b":4},"B":{"a":4,"b":1},"C":{"a":2,"b":8},"D":{"a":8,"b":2}},"conditions":["nonSeqFull","nonSeqPartial","seqNoFeedback","seqFeedback"],"classroomPairings":[["A","B"],["C","D"]],"coinWeights":[0.2,0.5,0.8],"subjectId":"ARYL3C6N9SVV1","assignmentId":"3N1FSUEFL6MMCZ06TSFFG2Z6Z3TD4F","hitId":"3UDTAB6HH6LRO17U79I9TKUGSHV90J","url":"https://gershmanlab.com/experiments/alicia/teaching/experiment/?hitId=3UDTAB6HH6LRO17U79I9TKUGSHV90J&workerId=ARYL3C6N9SVV1&assignmentId=3N1FSUEFL6MMCZ06TSFFG2Z6Z3TD4F&a=FS1N9&tp_a=FS1N9&b=3N1FSUEFL6MMCZ06TSFFG2Z6Z3TD4F&tp_b=3N1FSUEFL6MMCZ06TSFFG2Z6Z3TD4F&c=365799&tp_c=365799","heads":4,"tails":1,"studentIndex":16,"studentTrueHypers":{"a":8,"b":2},"studentGuess":0.8,"delta":0,"totalExamples":5,"bonus":0.45,"bonusSoFar":1.59},{"rt":5910,"response":{"heads":"2","tails":"2"},"type":"response","condition":"seqNoFeedback","trueTheta":0.5,"classrooms":["A","B"],"studentTrueClassroom":"B","exampleSet":"first","trial_type":"survey-html-form","trial_index":141,"time_elapsed":1431990,"internal_node_id":"0.0-140.0-0.0","params":{"nStudents":24,"maxFlips":30,"completionMinutes":45,"basePay":8,"maxBonus":9,"perTrialBonus":0.5,"perTrialBonusThreshold":0.05,"exampleCost":0.01},"classroomParams":{"A":{"a":1,"b":4},"B":{"a":4,"b":1},"C":{"a":2,"b":8},"D":{"a":8,"b":2}},"conditions":["nonSeqFull","nonSeqPartial","seqNoFeedback","seqFeedback"],"classroomPairings":[["A","B"],["C","D"]],"coinWeights":[0.2,0.5,0.8],"subjectId":"ARYL3C6N9SVV1","assignmentId":"3N1FSUEFL6MMCZ06TSFFG2Z6Z3TD4F","hitId":"3UDTAB6HH6LRO17U79I9TKUGSHV90J","url":"https://gershmanlab.com/experiments/alicia/teaching/experiment/?hitId=3UDTAB6HH6LRO17U79I9TKUGSHV90J&workerId=ARYL3C6N9SVV1&assignmentId=3N1FSUEFL6MMCZ06TSFFG2Z6Z3TD4F&a=FS1N9&tp_a=FS1N9&b=3N1FSUEFL6MMCZ06TSFFG2Z6Z3TD4F&tp_b=3N1FSUEFL6MMCZ06TSFFG2Z6Z3TD4F&c=365799&tp_c=365799","heads":2,"tails":2,"studentIndex":17,"studentTrueHypers":{"a":4,"b":1},"studentGuess":0.6666666666666666,"delta":0.16666666666666663,"totalExamples":4,"bonusSoFar":1.59},{"rt":8716,"response":{"heads":"2","tails":"2"},"type":"response","condition":"seqNoFeedback","trueTheta":0.5,"classrooms":["A","B"],"studentTrueClassroom":"B","exampleSet":"second","trial_type":"survey-html-form","trial_index":144,"time_elapsed":1446479,"internal_node_id":"0.0-143.0-0.0","params":{"nStudents":24,"maxFlips":30,"completionMinutes":45,"basePay":8,"maxBonus":9,"perTrialBonus":0.5,"perTrialBonusThreshold":0.05,"exampleCost":0.01},"classroomParams":{"A":{"a":1,"b":4},"B":{"a":4,"b":1},"C":{"a":2,"b":8},"D":{"a":8,"b":2}},"conditions":["nonSeqFull","nonSeqPartial","seqNoFeedback","seqFeedback"],"classroomPairings":[["A","B"],["C","D"]],"coinWeights":[0.2,0.5,0.8],"subjectId":"ARYL3C6N9SVV1","assignmentId":"3N1FSUEFL6MMCZ06TSFFG2Z6Z3TD4F","hitId":"3UDTAB6HH6LRO17U79I9TKUGSHV90J","url":"https://gershmanlab.com/experiments/alicia/teaching/experiment/?hitId=3UDTAB6HH6LRO17U79I9TKUGSHV90J&workerId=ARYL3C6N9SVV1&assignmentId=3N1FSUEFL6MMCZ06TSFFG2Z6Z3TD4F&a=FS1N9&tp_a=FS1N9&b=3N1FSUEFL6MMCZ06TSFFG2Z6Z3TD4F&tp_b=3N1FSUEFL6MMCZ06TSFFG2Z6Z3TD4F&c=365799&tp_c=365799","firstResponseHeads":2,"firstResponseTails":2,"secondResponseHeads":2,"secondResponseTails":2,"totalHeads":4,"totalTails":4,"studentIndex":17,"studentTrueHypers":{"a":4,"b":1},"studentGuess":0.6153846153846154,"delta":0.11538461538461542,"bonus":0,"bonusSoFar":1.59,"totalExamples":8},{"rt":7779,"response":{"heads":"3","tails":"3"},"type":"response","condition":"nonSeqPartial","trueTheta":0.5,"classrooms":["A","B"],"studentTrueClassroom":"A","exampleSet":"first","trial_type":"survey-html-form","trial_index":150,"time_elapsed":1467401,"internal_node_id":"0.0-149.0-0.0","params":{"nStudents":24,"maxFlips":30,"completionMinutes":45,"basePay":8,"maxBonus":9,"perTrialBonus":0.5,"perTrialBonusThreshold":0.05,"exampleCost":0.01},"classroomParams":{"A":{"a":1,"b":4},"B":{"a":4,"b":1},"C":{"a":2,"b":8},"D":{"a":8,"b":2}},"conditions":["nonSeqFull","nonSeqPartial","seqNoFeedback","seqFeedback"],"classroomPairings":[["A","B"],["C","D"]],"coinWeights":[0.2,0.5,0.8],"subjectId":"ARYL3C6N9SVV1","assignmentId":"3N1FSUEFL6MMCZ06TSFFG2Z6Z3TD4F","hitId":"3UDTAB6HH6LRO17U79I9TKUGSHV90J","url":"https://gershmanlab.com/experiments/alicia/teaching/experiment/?hitId=3UDTAB6HH6LRO17U79I9TKUGSHV90J&workerId=ARYL3C6N9SVV1&assignmentId=3N1FSUEFL6MMCZ06TSFFG2Z6Z3TD4F&a=FS1N9&tp_a=FS1N9&b=3N1FSUEFL6MMCZ06TSFFG2Z6Z3TD4F&tp_b=3N1FSUEFL6MMCZ06TSFFG2Z6Z3TD4F&c=365799&tp_c=365799","heads":3,"tails":3,"studentIndex":18,"studentTrueHypers":{"a":1,"b":4},"studentGuess":0.36363636363636365,"delta":0.13636363636363635,"totalExamples":6,"bonus":0,"bonusSoFar":1.59},{"rt":6329,"response":{"heads":"1","tails":"4"},"type":"response","condition":"seqNoFeedback","trueTheta":0.2,"classrooms":["C","D"],"studentTrueClassroom":"C","exampleSet":"first","trial_type":"survey-html-form","trial_index":156,"time_elapsed":1486861,"internal_node_id":"0.0-155.0-0.0","params":{"nStudents":24,"maxFlips":30,"completionMinutes":45,"basePay":8,"maxBonus":9,"perTrialBonus":0.5,"perTrialBonusThreshold":0.05,"exampleCost":0.01},"classroomParams":{"A":{"a":1,"b":4},"B":{"a":4,"b":1},"C":{"a":2,"b":8},"D":{"a":8,"b":2}},"conditions":["nonSeqFull","nonSeqPartial","seqNoFeedback","seqFeedback"],"classroomPairings":[["A","B"],["C","D"]],"coinWeights":[0.2,0.5,0.8],"subjectId":"ARYL3C6N9SVV1","assignmentId":"3N1FSUEFL6MMCZ06TSFFG2Z6Z3TD4F","hitId":"3UDTAB6HH6LRO17U79I9TKUGSHV90J","url":"https://gershmanlab.com/experiments/alicia/teaching/experiment/?hitId=3UDTAB6HH6LRO17U79I9TKUGSHV90J&workerId=ARYL3C6N9SVV1&assignmentId=3N1FSUEFL6MMCZ06TSFFG2Z6Z3TD4F&a=FS1N9&tp_a=FS1N9&b=3N1FSUEFL6MMCZ06TSFFG2Z6Z3TD4F&tp_b=3N1FSUEFL6MMCZ06TSFFG2Z6Z3TD4F&c=365799&tp_c=365799","heads":1,"tails":4,"studentIndex":19,"studentTrueHypers":{"a":2,"b":8},"studentGuess":0.2,"delta":0,"totalExamples":5,"bonusSoFar":1.59},{"rt":8759,"response":{"heads":"1","tails":"4"},"type":"response","condition":"seqNoFeedback","trueTheta":0.2,"classrooms":["C","D"],"studentTrueClassroom":"C","exampleSet":"second","trial_type":"survey-html-form","trial_index":159,"time_elapsed":1501651,"internal_node_id":"0.0-158.0-0.0","params":{"nStudents":24,"maxFlips":30,"completionMinutes":45,"basePay":8,"maxBonus":9,"perTrialBonus":0.5,"perTrialBonusThreshold":0.05,"exampleCost":0.01},"classroomParams":{"A":{"a":1,"b":4},"B":{"a":4,"b":1},"C":{"a":2,"b":8},"D":{"a":8,"b":2}},"conditions":["nonSeqFull","nonSeqPartial","seqNoFeedback","seqFeedback"],"classroomPairings":[["A","B"],["C","D"]],"coinWeights":[0.2,0.5,0.8],"subjectId":"ARYL3C6N9SVV1","assignmentId":"3N1FSUEFL6MMCZ06TSFFG2Z6Z3TD4F","hitId":"3UDTAB6HH6LRO17U79I9TKUGSHV90J","url":"https://gershmanlab.com/experiments/alicia/teaching/experiment/?hitId=3UDTAB6HH6LRO17U79I9TKUGSHV90J&workerId=ARYL3C6N9SVV1&assignmentId=3N1FSUEFL6MMCZ06TSFFG2Z6Z3TD4F&a=FS1N9&tp_a=FS1N9&b=3N1FSUEFL6MMCZ06TSFFG2Z6Z3TD4F&tp_b=3N1FSUEFL6MMCZ06TSFFG2Z6Z3TD4F&c=365799&tp_c=365799","firstResponseHeads":1,"firstResponseTails":4,"secondResponseHeads":1,"secondResponseTails":4,"totalHeads":2,"totalTails":8,"studentIndex":19,"studentTrueHypers":{"a":2,"b":8},"studentGuess":0.2,"delta":0,"bonus":0.4,"bonusSoFar":1.99,"totalExamples":10},{"rt":6189,"response":{"heads":"1","tails":"4"},"type":"response","condition":"nonSeqFull","trueTheta":0.2,"classrooms":["A","B"],"studentTrueClassroom":"B","exampleSet":"first","trial_type":"survey-html-form","trial_index":165,"time_elapsed":1519243,"internal_node_id":"0.0-164.0-0.0","params":{"nStudents":24,"maxFlips":30,"completionMinutes":45,"basePay":8,"maxBonus":9,"perTrialBonus":0.5,"perTrialBonusThreshold":0.05,"exampleCost":0.01},"classroomParams":{"A":{"a":1,"b":4},"B":{"a":4,"b":1},"C":{"a":2,"b":8},"D":{"a":8,"b":2}},"conditions":["nonSeqFull","nonSeqPartial","seqNoFeedback","seqFeedback"],"classroomPairings":[["A","B"],["C","D"]],"coinWeights":[0.2,0.5,0.8],"subjectId":"ARYL3C6N9SVV1","assignmentId":"3N1FSUEFL6MMCZ06TSFFG2Z6Z3TD4F","hitId":"3UDTAB6HH6LRO17U79I9TKUGSHV90J","url":"https://gershmanlab.com/experiments/alicia/teaching/experiment/?hitId=3UDTAB6HH6LRO17U79I9TKUGSHV90J&workerId=ARYL3C6N9SVV1&assignmentId=3N1FSUEFL6MMCZ06TSFFG2Z6Z3TD4F&a=FS1N9&tp_a=FS1N9&b=3N1FSUEFL6MMCZ06TSFFG2Z6Z3TD4F&tp_b=3N1FSUEFL6MMCZ06TSFFG2Z6Z3TD4F&c=365799&tp_c=365799","heads":1,"tails":4,"studentIndex":20,"studentTrueHypers":{"a":4,"b":1},"studentGuess":0.5,"delta":0.3,"totalExamples":5,"bonus":0,"bonusSoFar":1.99},{"rt":7890,"response":{"heads":"4","tails":"1"},"type":"response","condition":"nonSeqFull","trueTheta":0.8,"classrooms":["A","B"],"studentTrueClassroom":"B","exampleSet":"first","trial_type":"survey-html-form","trial_index":171,"time_elapsed":1539893,"internal_node_id":"0.0-170.0-0.0","params":{"nStudents":24,"maxFlips":30,"completionMinutes":45,"basePay":8,"maxBonus":9,"perTrialBonus":0.5,"perTrialBonusThreshold":0.05,"exampleCost":0.01},"classroomParams":{"A":{"a":1,"b":4},"B":{"a":4,"b":1},"C":{"a":2,"b":8},"D":{"a":8,"b":2}},"conditions":["nonSeqFull","nonSeqPartial","seqNoFeedback","seqFeedback"],"classroomPairings":[["A","B"],["C","D"]],"coinWeights":[0.2,0.5,0.8],"subjectId":"ARYL3C6N9SVV1","assignmentId":"3N1FSUEFL6MMCZ06TSFFG2Z6Z3TD4F","hitId":"3UDTAB6HH6LRO17U79I9TKUGSHV90J","url":"https://gershmanlab.com/experiments/alicia/teaching/experiment/?hitId=3UDTAB6HH6LRO17U79I9TKUGSHV90J&workerId=ARYL3C6N9SVV1&assignmentId=3N1FSUEFL6MMCZ06TSFFG2Z6Z3TD4F&a=FS1N9&tp_a=FS1N9&b=3N1FSUEFL6MMCZ06TSFFG2Z6Z3TD4F&tp_b=3N1FSUEFL6MMCZ06TSFFG2Z6Z3TD4F&c=365799&tp_c=365799","heads":4,"tails":1,"studentIndex":21,"studentTrueHypers":{"a":4,"b":1},"studentGuess":0.8,"delta":0,"totalExamples":5,"bonus":0.45,"bonusSoFar":2.44},{"rt":6799,"response":{"heads":"4","tails":"1"},"type":"response","condition":"nonSeqFull","trueTheta":0.8,"classrooms":["C","D"],"studentTrueClassroom":"C","exampleSet":"first","trial_type":"survey-html-form","trial_index":177,"time_elapsed":1559244,"internal_node_id":"0.0-176.0-0.0","params":{"nStudents":24,"maxFlips":30,"completionMinutes":45,"basePay":8,"maxBonus":9,"perTrialBonus":0.5,"perTrialBonusThreshold":0.05,"exampleCost":0.01},"classroomParams":{"A":{"a":1,"b":4},"B":{"a":4,"b":1},"C":{"a":2,"b":8},"D":{"a":8,"b":2}},"conditions":["nonSeqFull","nonSeqPartial","seqNoFeedback","seqFeedback"],"classroomPairings":[["A","B"],["C","D"]],"coinWeights":[0.2,0.5,0.8],"subjectId":"ARYL3C6N9SVV1","assignmentId":"3N1FSUEFL6MMCZ06TSFFG2Z6Z3TD4F","hitId":"3UDTAB6HH6LRO17U79I9TKUGSHV90J","url":"https://gershmanlab.com/experiments/alicia/teaching/experiment/?hitId=3UDTAB6HH6LRO17U79I9TKUGSHV90J&workerId=ARYL3C6N9SVV1&assignmentId=3N1FSUEFL6MMCZ06TSFFG2Z6Z3TD4F&a=FS1N9&tp_a=FS1N9&b=3N1FSUEFL6MMCZ06TSFFG2Z6Z3TD4F&tp_b=3N1FSUEFL6MMCZ06TSFFG2Z6Z3TD4F&c=365799&tp_c=365799","heads":4,"tails":1,"studentIndex":22,"studentTrueHypers":{"a":2,"b":8},"studentGuess":0.4,"delta":0.4,"totalExamples":5,"bonus":0,"bonusSoFar":2.44},{"rt":4780,"response":{"heads":"1","tails":"4"},"type":"response","condition":"seqFeedback","trueTheta":0.2,"classrooms":["A","B"],"studentTrueClassroom":"B","exampleSet":"first","trial_type":"survey-html-form","trial_index":183,"time_elapsed":1577215,"internal_node_id":"0.0-182.0-0.0","params":{"nStudents":24,"maxFlips":30,"completionMinutes":45,"basePay":8,"maxBonus":9,"perTrialBonus":0.5,"perTrialBonusThreshold":0.05,"exampleCost":0.01},"classroomParams":{"A":{"a":1,"b":4},"B":{"a":4,"b":1},"C":{"a":2,"b":8},"D":{"a":8,"b":2}},"conditions":["nonSeqFull","nonSeqPartial","seqNoFeedback","seqFeedback"],"classroomPairings":[["A","B"],["C","D"]],"coinWeights":[0.2,0.5,0.8],"subjectId":"ARYL3C6N9SVV1","assignmentId":"3N1FSUEFL6MMCZ06TSFFG2Z6Z3TD4F","hitId":"3UDTAB6HH6LRO17U79I9TKUGSHV90J","url":"https://gershmanlab.com/experiments/alicia/teaching/experiment/?hitId=3UDTAB6HH6LRO17U79I9TKUGSHV90J&workerId=ARYL3C6N9SVV1&assignmentId=3N1FSUEFL6MMCZ06TSFFG2Z6Z3TD4F&a=FS1N9&tp_a=FS1N9&b=3N1FSUEFL6MMCZ06TSFFG2Z6Z3TD4F&tp_b=3N1FSUEFL6MMCZ06TSFFG2Z6Z3TD4F&c=365799&tp_c=365799","heads":1,"tails":4,"studentIndex":23,"studentTrueHypers":{"a":4,"b":1},"studentGuess":0.5,"delta":0.3,"totalExamples":5,"bonusSoFar":2.44},{"rt":12336,"response":{"heads":"1","tails":"4"},"type":"response","condition":"seqFeedback","trueTheta":0.2,"classrooms":["A","B"],"studentTrueClassroom":"B","exampleSet":"second","trial_type":"survey-html-form","trial_index":187,"time_elapsed":1596366,"internal_node_id":"0.0-186.0-0.0","params":{"nStudents":24,"maxFlips":30,"completionMinutes":45,"basePay":8,"maxBonus":9,"perTrialBonus":0.5,"perTrialBonusThreshold":0.05,"exampleCost":0.01},"classroomParams":{"A":{"a":1,"b":4},"B":{"a":4,"b":1},"C":{"a":2,"b":8},"D":{"a":8,"b":2}},"conditions":["nonSeqFull","nonSeqPartial","seqNoFeedback","seqFeedback"],"classroomPairings":[["A","B"],["C","D"]],"coinWeights":[0.2,0.5,0.8],"subjectId":"ARYL3C6N9SVV1","assignmentId":"3N1FSUEFL6MMCZ06TSFFG2Z6Z3TD4F","hitId":"3UDTAB6HH6LRO17U79I9TKUGSHV90J","url":"https://gershmanlab.com/experiments/alicia/teaching/experiment/?hitId=3UDTAB6HH6LRO17U79I9TKUGSHV90J&workerId=ARYL3C6N9SVV1&assignmentId=3N1FSUEFL6MMCZ06TSFFG2Z6Z3TD4F&a=FS1N9&tp_a=FS1N9&b=3N1FSUEFL6MMCZ06TSFFG2Z6Z3TD4F&tp_b=3N1FSUEFL6MMCZ06TSFFG2Z6Z3TD4F&c=365799&tp_c=365799","firstResponseHeads":1,"firstResponseTails":4,"secondResponseHeads":1,"secondResponseTails":4,"totalHeads":2,"totalTails":8,"studentIndex":23,"studentTrueHypers":{"a":4,"b":1},"studentGuess":0.4,"delta":0.2,"bonus":0,"bonusSoFar":2.44,"totalExamples":10},{"rt":12045,"response":{"gender":"male","age":"31","understood":"yes","comments":""},"type":"response","trial_type":"survey-html-form","trial_index":191,"time_elapsed":1615678,"internal_node_id":"0.0-191.0","params":{"nStudents":24,"maxFlips":30,"completionMinutes":45,"basePay":8,"maxBonus":9,"perTrialBonus":0.5,"perTrialBonusThreshold":0.05,"exampleCost":0.01},"classroomParams":{"A":{"a":1,"b":4},"B":{"a":4,"b":1},"C":{"a":2,"b":8},"D":{"a":8,"b":2}},"conditions":["nonSeqFull","nonSeqPartial","seqNoFeedback","seqFeedback"],"classroomPairings":[["A","B"],["C","D"]],"coinWeights":[0.2,0.5,0.8],"subjectId":"ARYL3C6N9SVV1","assignmentId":"3N1FSUEFL6MMCZ06TSFFG2Z6Z3TD4F","hitId":"3UDTAB6HH6LRO17U79I9TKUGSHV90J","url":"https://gershmanlab.com/experiments/alicia/teaching/experiment/?hitId=3UDTAB6HH6LRO17U79I9TKUGSHV90J&workerId=ARYL3C6N9SVV1&assignmentId=3N1FSUEFL6MMCZ06TSFFG2Z6Z3TD4F&a=FS1N9&tp_a=FS1N9&b=3N1FSUEFL6MMCZ06TSFFG2Z6Z3TD4F&tp_b=3N1FSUEFL6MMCZ06TSFFG2Z6Z3TD4F&c=365799&tp_c=365799","totalBonus":2.44}]