[{"rt":12672,"response":{"heads":"24","tails":"20"},"type":"response","condition":"nonSeqFull","trueTheta":0.2,"classrooms":["A","B"],"studentTrueClassroom":"B","exampleSet":"first","trial_type":"survey-html-form","trial_index":28,"time_elapsed":1523485,"internal_node_id":"0.0-6.0-0.0","params":{"nStudents":24,"maxFlips":30,"completionMinutes":45,"basePay":8,"maxBonus":9,"perTrialBonus":0.5,"perTrialBonusThreshold":0.05,"exampleCost":0.01},"classroomParams":{"A":{"a":1,"b":4},"B":{"a":4,"b":1},"C":{"a":2,"b":8},"D":{"a":8,"b":2}},"conditions":["nonSeqFull","nonSeqPartial","seqNoFeedback","seqFeedback"],"classroomPairings":[["A","B"],["C","D"]],"coinWeights":[0.2,0.5,0.8],"subjectId":"AVFMTS8A5R4XK","assignmentId":"3VHP9MDGRO6M5NRHDDGNN0EF3TQFC5","hitId":"3J94SKDEKIB2MY6CGVTNWB9X0ALD5P","url":"https://gershmanlab.com/experiments/alicia/teaching/experiment/?hitId=3J94SKDEKIB2MY6CGVTNWB9X0ALD5P&workerId=AVFMTS8A5R4XK&assignmentId=3VHP9MDGRO6M5NRHDDGNN0EF3TQFC5&a=G9HV9&tp_a=G9HV9&b=3VHP9MDGRO6M5NRHDDGNN0EF3TQFC5&tp_b=3VHP9MDGRO6M5NRHDDGNN0EF3TQFC5&c=365799&tp_c=365799","heads":24,"tails":20,"studentIndex":0,"studentTrueHypers":{"a":4,"b":1},"studentGuess":0.5714285714285714,"delta":0.3714285714285714,"totalExamples":44,"bonus":0,"bonusSoFar":0},{"rt":42255,"response":{"heads":"2","tails":"4"},"type":"response","condition":"nonSeqFull","trueTheta":0.2,"classrooms":["A","B"],"studentTrueClassroom":"B","exampleSet":"first","trial_type":"survey-html-form","trial_index":29,"time_elapsed":1565744,"internal_node_id":"0.0-6.1-0.1","params":{"nStudents":24,"maxFlips":30,"completionMinutes":45,"basePay":8,"maxBonus":9,"perTrialBonus":0.5,"perTrialBonusThreshold":0.05,"exampleCost":0.01},"classroomParams":{"A":{"a":1,"b":4},"B":{"a":4,"b":1},"C":{"a":2,"b":8},"D":{"a":8,"b":2}},"conditions":["nonSeqFull","nonSeqPartial","seqNoFeedback","seqFeedback"],"classroomPairings":[["A","B"],["C","D"]],"coinWeights":[0.2,0.5,0.8],"subjectId":"AVFMTS8A5R4XK","assignmentId":"3VHP9MDGRO6M5NRHDDGNN0EF3TQFC5","hitId":"3J94SKDEKIB2MY6CGVTNWB9X0ALD5P","url":"https://gershmanlab.com/experiments/alicia/teaching/experiment/?hitId=3J94SKDEKIB2MY6CGVTNWB9X0ALD5P&workerId=AVFMTS8A5R4XK&assignmentId=3VHP9MDGRO6M5NRHDDGNN0EF3TQFC5&a=G9HV9&tp_a=G9HV9&b=3VHP9MDGRO6M5NRHDDGNN0EF3TQFC5&tp_b=3VHP9MDGRO6M5NRHDDGNN0EF3TQFC5&c=365799&tp_c=365799","heads":2,"tails":4,"studentIndex":0,"studentTrueHypers":{"a":4,"b":1},"studentGuess":0.5454545454545454,"delta":0.3454545454545454,"totalExamples":6,"bonus":0,"bonusSoFar":0},{"rt":143477,"response":{"heads":"6","tails":"7"},"type":"response","condition":"nonSeqPartial","trueTheta":0.2,"classrooms":["A","B"],"studentTrueClassroom":"B","exampleSet":"first","trial_type":"survey-html-form","trial_index":35,"time_elapsed":1740234,"internal_node_id":"0.0-12.0-0.0","params":{"nStudents":24,"maxFlips":30,"completionMinutes":45,"basePay":8,"maxBonus":9,"perTrialBonus":0.5,"perTrialBonusThreshold":0.05,"exampleCost":0.01},"classroomParams":{"A":{"a":1,"b":4},"B":{"a":4,"b":1},"C":{"a":2,"b":8},"D":{"a":8,"b":2}},"conditions":["nonSeqFull","nonSeqPartial","seqNoFeedback","seqFeedback"],"classroomPairings":[["A","B"],["C","D"]],"coinWeights":[0.2,0.5,0.8],"subjectId":"AVFMTS8A5R4XK","assignmentId":"3VHP9MDGRO6M5NRHDDGNN0EF3TQFC5","hitId":"3J94SKDEKIB2MY6CGVTNWB9X0ALD5P","url":"https://gershmanlab.com/experiments/alicia/teaching/experiment/?hitId=3J94SKDEKIB2MY6CGVTNWB9X0ALD5P&workerId=AVFMTS8A5R4XK&assignmentId=3VHP9MDGRO6M5NRHDDGNN0EF3TQFC5&a=G9HV9&tp_a=G9HV9&b=3VHP9MDGRO6M5NRHDDGNN0EF3TQFC5&tp_b=3VHP9MDGRO6M5NRHDDGNN0EF3TQFC5&c=365799&tp_c=365799","heads":6,"tails":7,"studentIndex":1,"studentTrueHypers":{"a":4,"b":1},"studentGuess":0.5555555555555556,"delta":0.35555555555555557,"totalExamples":13,"bonus":0,"bonusSoFar":0},{"rt":41077,"response":{"heads":"6","tails":"4"},"type":"response","condition":"nonSeqPartial","trueTheta":0.5,"classrooms":["A","B"],"studentTrueClassroom":"A","exampleSet":"first","trial_type":"survey-html-form","trial_index":41,"time_elapsed":1803385,"internal_node_id":"0.0-18.0-0.0","params":{"nStudents":24,"maxFlips":30,"completionMinutes":45,"basePay":8,"maxBonus":9,"perTrialBonus":0.5,"perTrialBonusThreshold":0.05,"exampleCost":0.01},"classroomParams":{"A":{"a":1,"b":4},"B":{"a":4,"b":1},"C":{"a":2,"b":8},"D":{"a":8,"b":2}},"conditions":["nonSeqFull","nonSeqPartial","seqNoFeedback","seqFeedback"],"classroomPairings":[["A","B"],["C","D"]],"coinWeights":[0.2,0.5,0.8],"subjectId":"AVFMTS8A5R4XK","assignmentId":"3VHP9MDGRO6M5NRHDDGNN0EF3TQFC5","hitId":"3J94SKDEKIB2MY6CGVTNWB9X0ALD5P","url":"https://gershmanlab.com/experiments/alicia/teaching/experiment/?hitId=3J94SKDEKIB2MY6CGVTNWB9X0ALD5P&workerId=AVFMTS8A5R4XK&assignmentId=3VHP9MDGRO6M5NRHDDGNN0EF3TQFC5&a=G9HV9&tp_a=G9HV9&b=3VHP9MDGRO6M5NRHDDGNN0EF3TQFC5&tp_b=3VHP9MDGRO6M5NRHDDGNN0EF3TQFC5&c=365799&tp_c=365799","heads":6,"tails":4,"studentIndex":2,"studentTrueHypers":{"a":1,"b":4},"studentGuess":0.4666666666666667,"delta":0.033333333333333326,"totalExamples":10,"bonus":0.4,"bonusSoFar":0.4},{"rt":8277,"response":{"heads":"6","tails":"5"},"type":"response","condition":"nonSeqFull","trueTheta":0.5,"classrooms":["A","B"],"studentTrueClassroom":"B","exampleSet":"first","trial_type":"survey-html-form","trial_index":47,"time_elapsed":1843948,"internal_node_id":"0.0-24.0-0.0","params":{"nStudents":24,"maxFlips":30,"completionMinutes":45,"basePay":8,"maxBonus":9,"perTrialBonus":0.5,"perTrialBonusThreshold":0.05,"exampleCost":0.01},"classroomParams":{"A":{"a":1,"b":4},"B":{"a":4,"b":1},"C":{"a":2,"b":8},"D":{"a":8,"b":2}},"conditions":["nonSeqFull","nonSeqPartial","seqNoFeedback","seqFeedback"],"classroomPairings":[["A","B"],["C","D"]],"coinWeights":[0.2,0.5,0.8],"subjectId":"AVFMTS8A5R4XK","assignmentId":"3VHP9MDGRO6M5NRHDDGNN0EF3TQFC5","hitId":"3J94SKDEKIB2MY6CGVTNWB9X0ALD5P","url":"https://gershmanlab.com/experiments/alicia/teaching/experiment/?hitId=3J94SKDEKIB2MY6CGVTNWB9X0ALD5P&workerId=AVFMTS8A5R4XK&assignmentId=3VHP9MDGRO6M5NRHDDGNN0EF3TQFC5&a=G9HV9&tp_a=G9HV9&b=3VHP9MDGRO6M5NRHDDGNN0EF3TQFC5&tp_b=3VHP9MDGRO6M5NRHDDGNN0EF3TQFC5&c=365799&tp_c=365799","heads":6,"tails":5,"studentIndex":3,"studentTrueHypers":{"a":4,"b":1},"studentGuess":0.625,"delta":0.125,"totalExamples":11,"bonus":0,"bonusSoFar":0.4},{"rt":12845,"response":{"heads":"6","tails":"4"},"type":"response","condition":"nonSeqFull","trueTheta":0.8,"classrooms":["A","B"],"studentTrueClassroom":"A","exampleSet":"first","trial_type":"survey-html-form","trial_index":53,"time_elapsed":1871097,"internal_node_id":"0.0-30.0-0.0","params":{"nStudents":24,"maxFlips":30,"completionMinutes":45,"basePay":8,"maxBonus":9,"perTrialBonus":0.5,"perTrialBonusThreshold":0.05,"exampleCost":0.01},"classroomParams":{"A":{"a":1,"b":4},"B":{"a":4,"b":1},"C":{"a":2,"b":8},"D":{"a":8,"b":2}},"conditions":["nonSeqFull","nonSeqPartial","seqNoFeedback","seqFeedback"],"classroomPairings":[["A","B"],["C","D"]],"coinWeights":[0.2,0.5,0.8],"subjectId":"AVFMTS8A5R4XK","assignmentId":"3VHP9MDGRO6M5NRHDDGNN0EF3TQFC5","hitId":"3J94SKDEKIB2MY6CGVTNWB9X0ALD5P","url":"https://gershmanlab.com/experiments/alicia/teaching/experiment/?hitId=3J94SKDEKIB2MY6CGVTNWB9X0ALD5P&workerId=AVFMTS8A5R4XK&assignmentId=3VHP9MDGRO6M5NRHDDGNN0EF3TQFC5&a=G9HV9&tp_a=G9HV9&b=3VHP9MDGRO6M5NRHDDGNN0EF3TQFC5&tp_b=3VHP9MDGRO6M5NRHDDGNN0EF3TQFC5&c=365799&tp_c=365799","heads":6,"tails":4,"studentIndex":4,"studentTrueHypers":{"a":1,"b":4},"studentGuess":0.4666666666666667,"delta":0.33333333333333337,"totalExamples":10,"bonus":0,"bonusSoFar":0.4},{"rt":13292,"response":{"heads":"6","tails":"4"},"type":"response","condition":"nonSeqFull","trueTheta":0.8,"classrooms":["C","D"],"studentTrueClassroom":"D","exampleSet":"first","trial_type":"survey-html-form","trial_index":59,"time_elapsed":1901092,"internal_node_id":"0.0-36.0-0.0","params":{"nStudents":24,"maxFlips":30,"completionMinutes":45,"basePay":8,"maxBonus":9,"perTrialBonus":0.5,"perTrialBonusThreshold":0.05,"exampleCost":0.01},"classroomParams":{"A":{"a":1,"b":4},"B":{"a":4,"b":1},"C":{"a":2,"b":8},"D":{"a":8,"b":2}},"conditions":["nonSeqFull","nonSeqPartial","seqNoFeedback","seqFeedback"],"classroomPairings":[["A","B"],["C","D"]],"coinWeights":[0.2,0.5,0.8],"subjectId":"AVFMTS8A5R4XK","assignmentId":"3VHP9MDGRO6M5NRHDDGNN0EF3TQFC5","hitId":"3J94SKDEKIB2MY6CGVTNWB9X0ALD5P","url":"https://gershmanlab.com/experiments/alicia/teaching/experiment/?hitId=3J94SKDEKIB2MY6CGVTNWB9X0ALD5P&workerId=AVFMTS8A5R4XK&assignmentId=3VHP9MDGRO6M5NRHDDGNN0EF3TQFC5&a=G9HV9&tp_a=G9HV9&b=3VHP9MDGRO6M5NRHDDGNN0EF3TQFC5&tp_b=3VHP9MDGRO6M5NRHDDGNN0EF3TQFC5&c=365799&tp_c=365799","heads":6,"tails":4,"studentIndex":5,"studentTrueHypers":{"a":8,"b":2},"studentGuess":0.7,"delta":0.10000000000000009,"totalExamples":10,"bonus":0,"bonusSoFar":0.4},{"rt":8308,"response":{"heads":"5","tails":"7"},"type":"response","condition":"nonSeqPartial","trueTheta":0.5,"classrooms":["C","D"],"studentTrueClassroom":"D","exampleSet":"first","trial_type":"survey-html-form","trial_index":65,"time_elapsed":1923868,"internal_node_id":"0.0-42.0-0.0","params":{"nStudents":24,"maxFlips":30,"completionMinutes":45,"basePay":8,"maxBonus":9,"perTrialBonus":0.5,"perTrialBonusThreshold":0.05,"exampleCost":0.01},"classroomParams":{"A":{"a":1,"b":4},"B":{"a":4,"b":1},"C":{"a":2,"b":8},"D":{"a":8,"b":2}},"conditions":["nonSeqFull","nonSeqPartial","seqNoFeedback","seqFeedback"],"classroomPairings":[["A","B"],["C","D"]],"coinWeights":[0.2,0.5,0.8],"subjectId":"AVFMTS8A5R4XK","assignmentId":"3VHP9MDGRO6M5NRHDDGNN0EF3TQFC5","hitId":"3J94SKDEKIB2MY6CGVTNWB9X0ALD5P","url":"https://gershmanlab.com/experiments/alicia/teaching/experiment/?hitId=3J94SKDEKIB2MY6CGVTNWB9X0ALD5P&workerId=AVFMTS8A5R4XK&assignmentId=3VHP9MDGRO6M5NRHDDGNN0EF3TQFC5&a=G9HV9&tp_a=G9HV9&b=3VHP9MDGRO6M5NRHDDGNN0EF3TQFC5&tp_b=3VHP9MDGRO6M5NRHDDGNN0EF3TQFC5&c=365799&tp_c=365799","heads":5,"tails":7,"studentIndex":6,"studentTrueHypers":{"a":8,"b":2},"studentGuess":0.5909090909090909,"delta":0.09090909090909094,"totalExamples":12,"bonus":0,"bonusSoFar":0.4},{"rt":7846,"response":{"heads":"7","tails":"3"},"type":"response","condition":"seqFeedback","trueTheta":0.2,"classrooms":["A","B"],"studentTrueClassroom":"A","exampleSet":"first","trial_type":"survey-html-form","trial_index":71,"time_elapsed":1945695,"internal_node_id":"0.0-48.0-0.0","params":{"nStudents":24,"maxFlips":30,"completionMinutes":45,"basePay":8,"maxBonus":9,"perTrialBonus":0.5,"perTrialBonusThreshold":0.05,"exampleCost":0.01},"classroomParams":{"A":{"a":1,"b":4},"B":{"a":4,"b":1},"C":{"a":2,"b":8},"D":{"a":8,"b":2}},"conditions":["nonSeqFull","nonSeqPartial","seqNoFeedback","seqFeedback"],"classroomPairings":[["A","B"],["C","D"]],"coinWeights":[0.2,0.5,0.8],"subjectId":"AVFMTS8A5R4XK","assignmentId":"3VHP9MDGRO6M5NRHDDGNN0EF3TQFC5","hitId":"3J94SKDEKIB2MY6CGVTNWB9X0ALD5P","url":"https://gershmanlab.com/experiments/alicia/teaching/experiment/?hitId=3J94SKDEKIB2MY6CGVTNWB9X0ALD5P&workerId=AVFMTS8A5R4XK&assignmentId=3VHP9MDGRO6M5NRHDDGNN0EF3TQFC5&a=G9HV9&tp_a=G9HV9&b=3VHP9MDGRO6M5NRHDDGNN0EF3TQFC5&tp_b=3VHP9MDGRO6M5NRHDDGNN0EF3TQFC5&c=365799&tp_c=365799","heads":7,"tails":3,"studentIndex":7,"studentTrueHypers":{"a":1,"b":4},"studentGuess":0.5333333333333333,"delta":0.3333333333333333,"totalExamples":10,"bonusSoFar":0.4},{"rt":10749,"response":{"heads":"7","tails":"6"},"type":"response","condition":"seqFeedback","trueTheta":0.2,"classrooms":["A","B"],"studentTrueClassroom":"A","exampleSet":"second","trial_type":"survey-html-form","trial_index":75,"time_elapsed":1964622,"internal_node_id":"0.0-52.0-0.0","params":{"nStudents":24,"maxFlips":30,"completionMinutes":45,"basePay":8,"maxBonus":9,"perTrialBonus":0.5,"perTrialBonusThreshold":0.05,"exampleCost":0.01},"classroomParams":{"A":{"a":1,"b":4},"B":{"a":4,"b":1},"C":{"a":2,"b":8},"D":{"a":8,"b":2}},"conditions":["nonSeqFull","nonSeqPartial","seqNoFeedback","seqFeedback"],"classroomPairings":[["A","B"],["C","D"]],"coinWeights":[0.2,0.5,0.8],"subjectId":"AVFMTS8A5R4XK","assignmentId":"3VHP9MDGRO6M5NRHDDGNN0EF3TQFC5","hitId":"3J94SKDEKIB2MY6CGVTNWB9X0ALD5P","url":"https://gershmanlab.com/experiments/alicia/teaching/experiment/?hitId=3J94SKDEKIB2MY6CGVTNWB9X0ALD5P&workerId=AVFMTS8A5R4XK&assignmentId=3VHP9MDGRO6M5NRHDDGNN0EF3TQFC5&a=G9HV9&tp_a=G9HV9&b=3VHP9MDGRO6M5NRHDDGNN0EF3TQFC5&tp_b=3VHP9MDGRO6M5NRHDDGNN0EF3TQFC5&c=365799&tp_c=365799","firstResponseHeads":7,"firstResponseTails":3,"secondResponseHeads":7,"secondResponseTails":6,"totalHeads":14,"totalTails":9,"studentIndex":7,"studentTrueHypers":{"a":1,"b":4},"studentGuess":0.5357142857142857,"delta":0.3357142857142857,"bonus":0,"bonusSoFar":0.4,"totalExamples":23},{"rt":8143,"response":{"heads":"9","tails":"10"},"type":"response","condition":"nonSeqFull","trueTheta":0.5,"classrooms":["C","D"],"studentTrueClassroom":"D","exampleSet":"first","trial_type":"survey-html-form","trial_index":81,"time_elapsed":1986372,"internal_node_id":"0.0-58.0-0.0","params":{"nStudents":24,"maxFlips":30,"completionMinutes":45,"basePay":8,"maxBonus":9,"perTrialBonus":0.5,"perTrialBonusThreshold":0.05,"exampleCost":0.01},"classroomParams":{"A":{"a":1,"b":4},"B":{"a":4,"b":1},"C":{"a":2,"b":8},"D":{"a":8,"b":2}},"conditions":["nonSeqFull","nonSeqPartial","seqNoFeedback","seqFeedback"],"classroomPairings":[["A","B"],["C","D"]],"coinWeights":[0.2,0.5,0.8],"subjectId":"AVFMTS8A5R4XK","assignmentId":"3VHP9MDGRO6M5NRHDDGNN0EF3TQFC5","hitId":"3J94SKDEKIB2MY6CGVTNWB9X0ALD5P","url":"https://gershmanlab.com/experiments/alicia/teaching/experiment/?hitId=3J94SKDEKIB2MY6CGVTNWB9X0ALD5P&workerId=AVFMTS8A5R4XK&assignmentId=3VHP9MDGRO6M5NRHDDGNN0EF3TQFC5&a=G9HV9&tp_a=G9HV9&b=3VHP9MDGRO6M5NRHDDGNN0EF3TQFC5&tp_b=3VHP9MDGRO6M5NRHDDGNN0EF3TQFC5&c=365799&tp_c=365799","heads":9,"tails":10,"studentIndex":8,"studentTrueHypers":{"a":8,"b":2},"studentGuess":0.5862068965517241,"delta":0.08620689655172409,"totalExamples":19,"bonus":0,"bonusSoFar":0.4},{"rt":9572,"response":{"heads":"3","tails":"3"},"type":"response","condition":"seqFeedback","trueTheta":0.5,"classrooms":["A","B"],"studentTrueClassroom":"B","exampleSet":"first","trial_type":"survey-html-form","trial_index":87,"time_elapsed":13712661,"internal_node_id":"0.0-64.0-0.0","params":{"nStudents":24,"maxFlips":30,"completionMinutes":45,"basePay":8,"maxBonus":9,"perTrialBonus":0.5,"perTrialBonusThreshold":0.05,"exampleCost":0.01},"classroomParams":{"A":{"a":1,"b":4},"B":{"a":4,"b":1},"C":{"a":2,"b":8},"D":{"a":8,"b":2}},"conditions":["nonSeqFull","nonSeqPartial","seqNoFeedback","seqFeedback"],"classroomPairings":[["A","B"],["C","D"]],"coinWeights":[0.2,0.5,0.8],"subjectId":"AVFMTS8A5R4XK","assignmentId":"3VHP9MDGRO6M5NRHDDGNN0EF3TQFC5","hitId":"3J94SKDEKIB2MY6CGVTNWB9X0ALD5P","url":"https://gershmanlab.com/experiments/alicia/teaching/experiment/?hitId=3J94SKDEKIB2MY6CGVTNWB9X0ALD5P&workerId=AVFMTS8A5R4XK&assignmentId=3VHP9MDGRO6M5NRHDDGNN0EF3TQFC5&a=G9HV9&tp_a=G9HV9&b=3VHP9MDGRO6M5NRHDDGNN0EF3TQFC5&tp_b=3VHP9MDGRO6M5NRHDDGNN0EF3TQFC5&c=365799&tp_c=365799","heads":3,"tails":3,"studentIndex":9,"studentTrueHypers":{"a":4,"b":1},"studentGuess":0.6363636363636364,"delta":0.13636363636363635,"totalExamples":6,"bonusSoFar":0.4},{"rt":13209,"response":{"heads":"6","tails":"4"},"type":"response","condition":"seqFeedback","trueTheta":0.5,"classrooms":["A","B"],"studentTrueClassroom":"B","exampleSet":"second","trial_type":"survey-html-form","trial_index":91,"time_elapsed":13733380,"internal_node_id":"0.0-68.0-0.0","params":{"nStudents":24,"maxFlips":30,"completionMinutes":45,"basePay":8,"maxBonus":9,"perTrialBonus":0.5,"perTrialBonusThreshold":0.05,"exampleCost":0.01},"classroomParams":{"A":{"a":1,"b":4},"B":{"a":4,"b":1},"C":{"a":2,"b":8},"D":{"a":8,"b":2}},"conditions":["nonSeqFull","nonSeqPartial","seqNoFeedback","seqFeedback"],"classroomPairings":[["A","B"],["C","D"]],"coinWeights":[0.2,0.5,0.8],"subjectId":"AVFMTS8A5R4XK","assignmentId":"3VHP9MDGRO6M5NRHDDGNN0EF3TQFC5","hitId":"3J94SKDEKIB2MY6CGVTNWB9X0ALD5P","url":"https://gershmanlab.com/experiments/alicia/teaching/experiment/?hitId=3J94SKDEKIB2MY6CGVTNWB9X0ALD5P&workerId=AVFMTS8A5R4XK&assignmentId=3VHP9MDGRO6M5NRHDDGNN0EF3TQFC5&a=G9HV9&tp_a=G9HV9&b=3VHP9MDGRO6M5NRHDDGNN0EF3TQFC5&tp_b=3VHP9MDGRO6M5NRHDDGNN0EF3TQFC5&c=365799&tp_c=365799","firstResponseHeads":3,"firstResponseTails":3,"secondResponseHeads":6,"secondResponseTails":4,"totalHeads":9,"totalTails":7,"studentIndex":9,"studentTrueHypers":{"a":4,"b":1},"studentGuess":0.6190476190476191,"delta":0.11904761904761907,"bonus":0,"bonusSoFar":0.4,"totalExamples":16},{"rt":8590,"response":{"heads":"4","tails":"6"},"type":"response","condition":"seqNoFeedback","trueTheta":0.5,"classrooms":["A","B"],"studentTrueClassroom":"B","exampleSet":"first","trial_type":"survey-html-form","trial_index":97,"time_elapsed":13752632,"internal_node_id":"0.0-74.0-0.0","params":{"nStudents":24,"maxFlips":30,"completionMinutes":45,"basePay":8,"maxBonus":9,"perTrialBonus":0.5,"perTrialBonusThreshold":0.05,"exampleCost":0.01},"classroomParams":{"A":{"a":1,"b":4},"B":{"a":4,"b":1},"C":{"a":2,"b":8},"D":{"a":8,"b":2}},"conditions":["nonSeqFull","nonSeqPartial","seqNoFeedback","seqFeedback"],"classroomPairings":[["A","B"],["C","D"]],"coinWeights":[0.2,0.5,0.8],"subjectId":"AVFMTS8A5R4XK","assignmentId":"3VHP9MDGRO6M5NRHDDGNN0EF3TQFC5","hitId":"3J94SKDEKIB2MY6CGVTNWB9X0ALD5P","url":"https://gershmanlab.com/experiments/alicia/teaching/experiment/?hitId=3J94SKDEKIB2MY6CGVTNWB9X0ALD5P&workerId=AVFMTS8A5R4XK&assignmentId=3VHP9MDGRO6M5NRHDDGNN0EF3TQFC5&a=G9HV9&tp_a=G9HV9&b=3VHP9MDGRO6M5NRHDDGNN0EF3TQFC5&tp_b=3VHP9MDGRO6M5NRHDDGNN0EF3TQFC5&c=365799&tp_c=365799","heads":4,"tails":6,"studentIndex":10,"studentTrueHypers":{"a":4,"b":1},"studentGuess":0.5333333333333333,"delta":0.033333333333333326,"totalExamples":10,"bonusSoFar":0.4},{"rt":9272,"response":{"heads":"8","tails":"9"},"type":"response","condition":"seqNoFeedback","trueTheta":0.5,"classrooms":["A","B"],"studentTrueClassroom":"B","exampleSet":"second","trial_type":"survey-html-form","trial_index":100,"time_elapsed":13769598,"internal_node_id":"0.0-77.0-0.0","params":{"nStudents":24,"maxFlips":30,"completionMinutes":45,"basePay":8,"maxBonus":9,"perTrialBonus":0.5,"perTrialBonusThreshold":0.05,"exampleCost":0.01},"classroomParams":{"A":{"a":1,"b":4},"B":{"a":4,"b":1},"C":{"a":2,"b":8},"D":{"a":8,"b":2}},"conditions":["nonSeqFull","nonSeqPartial","seqNoFeedback","seqFeedback"],"classroomPairings":[["A","B"],["C","D"]],"coinWeights":[0.2,0.5,0.8],"subjectId":"AVFMTS8A5R4XK","assignmentId":"3VHP9MDGRO6M5NRHDDGNN0EF3TQFC5","hitId":"3J94SKDEKIB2MY6CGVTNWB9X0ALD5P","url":"https://gershmanlab.com/experiments/alicia/teaching/experiment/?hitId=3J94SKDEKIB2MY6CGVTNWB9X0ALD5P&workerId=AVFMTS8A5R4XK&assignmentId=3VHP9MDGRO6M5NRHDDGNN0EF3TQFC5&a=G9HV9&tp_a=G9HV9&b=3VHP9MDGRO6M5NRHDDGNN0EF3TQFC5&tp_b=3VHP9MDGRO6M5NRHDDGNN0EF3TQFC5&c=365799&tp_c=365799","firstResponseHeads":4,"firstResponseTails":6,"secondResponseHeads":8,"secondResponseTails":9,"totalHeads":12,"totalTails":15,"studentIndex":10,"studentTrueHypers":{"a":4,"b":1},"studentGuess":0.5,"delta":0,"bonus":0.23,"bonusSoFar":0.63,"totalExamples":27},{"rt":6517,"response":{"heads":"7","tails":"1"},"type":"response","condition":"seqFeedback","trueTheta":0.2,"classrooms":["C","D"],"studentTrueClassroom":"D","exampleSet":"first","trial_type":"survey-html-form","trial_index":106,"time_elapsed":13788468,"internal_node_id":"0.0-83.0-0.0","params":{"nStudents":24,"maxFlips":30,"completionMinutes":45,"basePay":8,"maxBonus":9,"perTrialBonus":0.5,"perTrialBonusThreshold":0.05,"exampleCost":0.01},"classroomParams":{"A":{"a":1,"b":4},"B":{"a":4,"b":1},"C":{"a":2,"b":8},"D":{"a":8,"b":2}},"conditions":["nonSeqFull","nonSeqPartial","seqNoFeedback","seqFeedback"],"classroomPairings":[["A","B"],["C","D"]],"coinWeights":[0.2,0.5,0.8],"subjectId":"AVFMTS8A5R4XK","assignmentId":"3VHP9MDGRO6M5NRHDDGNN0EF3TQFC5","hitId":"3J94SKDEKIB2MY6CGVTNWB9X0ALD5P","url":"https://gershmanlab.com/experiments/alicia/teaching/experiment/?hitId=3J94SKDEKIB2MY6CGVTNWB9X0ALD5P&workerId=AVFMTS8A5R4XK&assignmentId=3VHP9MDGRO6M5NRHDDGNN0EF3TQFC5&a=G9HV9&tp_a=G9HV9&b=3VHP9MDGRO6M5NRHDDGNN0EF3TQFC5&tp_b=3VHP9MDGRO6M5NRHDDGNN0EF3TQFC5&c=365799&tp_c=365799","heads":7,"tails":1,"studentIndex":11,"studentTrueHypers":{"a":8,"b":2},"studentGuess":0.8333333333333334,"delta":0.6333333333333333,"totalExamples":8,"bonusSoFar":0.63},{"rt":8119,"response":{"heads":"6","tails":"6"},"type":"response","condition":"seqFeedback","trueTheta":0.2,"classrooms":["C","D"],"studentTrueClassroom":"D","exampleSet":"second","trial_type":"survey-html-form","trial_index":110,"time_elapsed":13804498,"internal_node_id":"0.0-87.0-0.0","params":{"nStudents":24,"maxFlips":30,"completionMinutes":45,"basePay":8,"maxBonus":9,"perTrialBonus":0.5,"perTrialBonusThreshold":0.05,"exampleCost":0.01},"classroomParams":{"A":{"a":1,"b":4},"B":{"a":4,"b":1},"C":{"a":2,"b":8},"D":{"a":8,"b":2}},"conditions":["nonSeqFull","nonSeqPartial","seqNoFeedback","seqFeedback"],"classroomPairings":[["A","B"],["C","D"]],"coinWeights":[0.2,0.5,0.8],"subjectId":"AVFMTS8A5R4XK","assignmentId":"3VHP9MDGRO6M5NRHDDGNN0EF3TQFC5","hitId":"3J94SKDEKIB2MY6CGVTNWB9X0ALD5P","url":"https://gershmanlab.com/experiments/alicia/teaching/experiment/?hitId=3J94SKDEKIB2MY6CGVTNWB9X0ALD5P&workerId=AVFMTS8A5R4XK&assignmentId=3VHP9MDGRO6M5NRHDDGNN0EF3TQFC5&a=G9HV9&tp_a=G9HV9&b=3VHP9MDGRO6M5NRHDDGNN0EF3TQFC5&tp_b=3VHP9MDGRO6M5NRHDDGNN0EF3TQFC5&c=365799&tp_c=365799","firstResponseHeads":7,"firstResponseTails":1,"secondResponseHeads":6,"secondResponseTails":6,"totalHeads":13,"totalTails":7,"studentIndex":11,"studentTrueHypers":{"a":8,"b":2},"studentGuess":0.7,"delta":0.49999999999999994,"bonus":0,"bonusSoFar":0.63,"totalExamples":20},{"rt":7381,"response":{"heads":"8","tails":"7"},"type":"response","condition":"seqNoFeedback","trueTheta":0.2,"classrooms":["C","D"],"studentTrueClassroom":"C","exampleSet":"first","trial_type":"survey-html-form","trial_index":116,"time_elapsed":13822087,"internal_node_id":"0.0-93.0-0.0","params":{"nStudents":24,"maxFlips":30,"completionMinutes":45,"basePay":8,"maxBonus":9,"perTrialBonus":0.5,"perTrialBonusThreshold":0.05,"exampleCost":0.01},"classroomParams":{"A":{"a":1,"b":4},"B":{"a":4,"b":1},"C":{"a":2,"b":8},"D":{"a":8,"b":2}},"conditions":["nonSeqFull","nonSeqPartial","seqNoFeedback","seqFeedback"],"classroomPairings":[["A","B"],["C","D"]],"coinWeights":[0.2,0.5,0.8],"subjectId":"AVFMTS8A5R4XK","assignmentId":"3VHP9MDGRO6M5NRHDDGNN0EF3TQFC5","hitId":"3J94SKDEKIB2MY6CGVTNWB9X0ALD5P","url":"https://gershmanlab.com/experiments/alicia/teaching/experiment/?hitId=3J94SKDEKIB2MY6CGVTNWB9X0ALD5P&workerId=AVFMTS8A5R4XK&assignmentId=3VHP9MDGRO6M5NRHDDGNN0EF3TQFC5&a=G9HV9&tp_a=G9HV9&b=3VHP9MDGRO6M5NRHDDGNN0EF3TQFC5&tp_b=3VHP9MDGRO6M5NRHDDGNN0EF3TQFC5&c=365799&tp_c=365799","heads":8,"tails":7,"studentIndex":12,"studentTrueHypers":{"a":2,"b":8},"studentGuess":0.4,"delta":0.2,"totalExamples":15,"bonusSoFar":0.63},{"rt":8594,"response":{"heads":"7","tails":"9"},"type":"response","condition":"seqNoFeedback","trueTheta":0.2,"classrooms":["C","D"],"studentTrueClassroom":"C","exampleSet":"second","trial_type":"survey-html-form","trial_index":119,"time_elapsed":13837188,"internal_node_id":"0.0-96.0-0.0","params":{"nStudents":24,"maxFlips":30,"completionMinutes":45,"basePay":8,"maxBonus":9,"perTrialBonus":0.5,"perTrialBonusThreshold":0.05,"exampleCost":0.01},"classroomParams":{"A":{"a":1,"b":4},"B":{"a":4,"b":1},"C":{"a":2,"b":8},"D":{"a":8,"b":2}},"conditions":["nonSeqFull","nonSeqPartial","seqNoFeedback","seqFeedback"],"classroomPairings":[["A","B"],["C","D"]],"coinWeights":[0.2,0.5,0.8],"subjectId":"AVFMTS8A5R4XK","assignmentId":"3VHP9MDGRO6M5NRHDDGNN0EF3TQFC5","hitId":"3J94SKDEKIB2MY6CGVTNWB9X0ALD5P","url":"https://gershmanlab.com/experiments/alicia/teaching/experiment/?hitId=3J94SKDEKIB2MY6CGVTNWB9X0ALD5P&workerId=AVFMTS8A5R4XK&assignmentId=3VHP9MDGRO6M5NRHDDGNN0EF3TQFC5&a=G9HV9&tp_a=G9HV9&b=3VHP9MDGRO6M5NRHDDGNN0EF3TQFC5&tp_b=3VHP9MDGRO6M5NRHDDGNN0EF3TQFC5&c=365799&tp_c=365799","firstResponseHeads":8,"firstResponseTails":7,"secondResponseHeads":7,"secondResponseTails":9,"totalHeads":15,"totalTails":16,"studentIndex":12,"studentTrueHypers":{"a":2,"b":8},"studentGuess":0.4146341463414634,"delta":0.21463414634146338,"bonus":0,"bonusSoFar":0.63,"totalExamples":31},{"rt":8295,"response":{"heads":"5","tails":"7"},"type":"response","condition":"nonSeqPartial","trueTheta":0.8,"classrooms":["C","D"],"studentTrueClassroom":"D","exampleSet":"first","trial_type":"survey-html-form","trial_index":125,"time_elapsed":13856923,"internal_node_id":"0.0-102.0-0.0","params":{"nStudents":24,"maxFlips":30,"completionMinutes":45,"basePay":8,"maxBonus":9,"perTrialBonus":0.5,"perTrialBonusThreshold":0.05,"exampleCost":0.01},"classroomParams":{"A":{"a":1,"b":4},"B":{"a":4,"b":1},"C":{"a":2,"b":8},"D":{"a":8,"b":2}},"conditions":["nonSeqFull","nonSeqPartial","seqNoFeedback","seqFeedback"],"classroomPairings":[["A","B"],["C","D"]],"coinWeights":[0.2,0.5,0.8],"subjectId":"AVFMTS8A5R4XK","assignmentId":"3VHP9MDGRO6M5NRHDDGNN0EF3TQFC5","hitId":"3J94SKDEKIB2MY6CGVTNWB9X0ALD5P","url":"https://gershmanlab.com/experiments/alicia/teaching/experiment/?hitId=3J94SKDEKIB2MY6CGVTNWB9X0ALD5P&workerId=AVFMTS8A5R4XK&assignmentId=3VHP9MDGRO6M5NRHDDGNN0EF3TQFC5&a=G9HV9&tp_a=G9HV9&b=3VHP9MDGRO6M5NRHDDGNN0EF3TQFC5&tp_b=3VHP9MDGRO6M5NRHDDGNN0EF3TQFC5&c=365799&tp_c=365799","heads":5,"tails":7,"studentIndex":13,"studentTrueHypers":{"a":8,"b":2},"studentGuess":0.5909090909090909,"delta":0.2090909090909091,"totalExamples":12,"bonus":0,"bonusSoFar":0.63},{"rt":9947,"response":{"heads":"5","tails":"7"},"type":"response","condition":"seqFeedback","trueTheta":0.8,"classrooms":["A","B"],"studentTrueClassroom":"B","exampleSet":"first","trial_type":"survey-html-form","trial_index":131,"time_elapsed":13878534,"internal_node_id":"0.0-108.0-0.0","params":{"nStudents":24,"maxFlips":30,"completionMinutes":45,"basePay":8,"maxBonus":9,"perTrialBonus":0.5,"perTrialBonusThreshold":0.05,"exampleCost":0.01},"classroomParams":{"A":{"a":1,"b":4},"B":{"a":4,"b":1},"C":{"a":2,"b":8},"D":{"a":8,"b":2}},"conditions":["nonSeqFull","nonSeqPartial","seqNoFeedback","seqFeedback"],"classroomPairings":[["A","B"],["C","D"]],"coinWeights":[0.2,0.5,0.8],"subjectId":"AVFMTS8A5R4XK","assignmentId":"3VHP9MDGRO6M5NRHDDGNN0EF3TQFC5","hitId":"3J94SKDEKIB2MY6CGVTNWB9X0ALD5P","url":"https://gershmanlab.com/experiments/alicia/teaching/experiment/?hitId=3J94SKDEKIB2MY6CGVTNWB9X0ALD5P&workerId=AVFMTS8A5R4XK&assignmentId=3VHP9MDGRO6M5NRHDDGNN0EF3TQFC5&a=G9HV9&tp_a=G9HV9&b=3VHP9MDGRO6M5NRHDDGNN0EF3TQFC5&tp_b=3VHP9MDGRO6M5NRHDDGNN0EF3TQFC5&c=365799&tp_c=365799","heads":5,"tails":7,"studentIndex":14,"studentTrueHypers":{"a":4,"b":1},"studentGuess":0.5294117647058824,"delta":0.2705882352941177,"totalExamples":12,"bonusSoFar":0.63},{"rt":9265,"response":{"heads":"7","tails":"6"},"type":"response","condition":"seqFeedback","trueTheta":0.8,"classrooms":["A","B"],"studentTrueClassroom":"B","exampleSet":"second","trial_type":"survey-html-form","trial_index":135,"time_elapsed":13897870,"internal_node_id":"0.0-112.0-0.0","params":{"nStudents":24,"maxFlips":30,"completionMinutes":45,"basePay":8,"maxBonus":9,"perTrialBonus":0.5,"perTrialBonusThreshold":0.05,"exampleCost":0.01},"classroomParams":{"A":{"a":1,"b":4},"B":{"a":4,"b":1},"C":{"a":2,"b":8},"D":{"a":8,"b":2}},"conditions":["nonSeqFull","nonSeqPartial","seqNoFeedback","seqFeedback"],"classroomPairings":[["A","B"],["C","D"]],"coinWeights":[0.2,0.5,0.8],"subjectId":"AVFMTS8A5R4XK","assignmentId":"3VHP9MDGRO6M5NRHDDGNN0EF3TQFC5","hitId":"3J94SKDEKIB2MY6CGVTNWB9X0ALD5P","url":"https://gershmanlab.com/experiments/alicia/teaching/experiment/?hitId=3J94SKDEKIB2MY6CGVTNWB9X0ALD5P&workerId=AVFMTS8A5R4XK&assignmentId=3VHP9MDGRO6M5NRHDDGNN0EF3TQFC5&a=G9HV9&tp_a=G9HV9&b=3VHP9MDGRO6M5NRHDDGNN0EF3TQFC5&tp_b=3VHP9MDGRO6M5NRHDDGNN0EF3TQFC5&c=365799&tp_c=365799","firstResponseHeads":5,"firstResponseTails":7,"secondResponseHeads":7,"secondResponseTails":6,"totalHeads":12,"totalTails":13,"studentIndex":14,"studentTrueHypers":{"a":4,"b":1},"studentGuess":0.5333333333333333,"delta":0.2666666666666667,"bonus":0,"bonusSoFar":0.63,"totalExamples":25},{"rt":7360,"response":{"heads":"7","tails":"5"},"type":"response","condition":"nonSeqPartial","trueTheta":0.2,"classrooms":["C","D"],"studentTrueClassroom":"C","exampleSet":"first","trial_type":"survey-html-form","trial_index":141,"time_elapsed":13915877,"internal_node_id":"0.0-118.0-0.0","params":{"nStudents":24,"maxFlips":30,"completionMinutes":45,"basePay":8,"maxBonus":9,"perTrialBonus":0.5,"perTrialBonusThreshold":0.05,"exampleCost":0.01},"classroomParams":{"A":{"a":1,"b":4},"B":{"a":4,"b":1},"C":{"a":2,"b":8},"D":{"a":8,"b":2}},"conditions":["nonSeqFull","nonSeqPartial","seqNoFeedback","seqFeedback"],"classroomPairings":[["A","B"],["C","D"]],"coinWeights":[0.2,0.5,0.8],"subjectId":"AVFMTS8A5R4XK","assignmentId":"3VHP9MDGRO6M5NRHDDGNN0EF3TQFC5","hitId":"3J94SKDEKIB2MY6CGVTNWB9X0ALD5P","url":"https://gershmanlab.com/experiments/alicia/teaching/experiment/?hitId=3J94SKDEKIB2MY6CGVTNWB9X0ALD5P&workerId=AVFMTS8A5R4XK&assignmentId=3VHP9MDGRO6M5NRHDDGNN0EF3TQFC5&a=G9HV9&tp_a=G9HV9&b=3VHP9MDGRO6M5NRHDDGNN0EF3TQFC5&tp_b=3VHP9MDGRO6M5NRHDDGNN0EF3TQFC5&c=365799&tp_c=365799","heads":7,"tails":5,"studentIndex":15,"studentTrueHypers":{"a":2,"b":8},"studentGuess":0.4090909090909091,"delta":0.2090909090909091,"totalExamples":12,"bonus":0,"bonusSoFar":0.63},{"rt":7720,"response":{"heads":"8","tails":"5"},"type":"response","condition":"seqNoFeedback","trueTheta":0.8,"classrooms":["C","D"],"studentTrueClassroom":"D","exampleSet":"first","trial_type":"survey-html-form","trial_index":147,"time_elapsed":13935359,"internal_node_id":"0.0-124.0-0.0","params":{"nStudents":24,"maxFlips":30,"completionMinutes":45,"basePay":8,"maxBonus":9,"perTrialBonus":0.5,"perTrialBonusThreshold":0.05,"exampleCost":0.01},"classroomParams":{"A":{"a":1,"b":4},"B":{"a":4,"b":1},"C":{"a":2,"b":8},"D":{"a":8,"b":2}},"conditions":["nonSeqFull","nonSeqPartial","seqNoFeedback","seqFeedback"],"classroomPairings":[["A","B"],["C","D"]],"coinWeights":[0.2,0.5,0.8],"subjectId":"AVFMTS8A5R4XK","assignmentId":"3VHP9MDGRO6M5NRHDDGNN0EF3TQFC5","hitId":"3J94SKDEKIB2MY6CGVTNWB9X0ALD5P","url":"https://gershmanlab.com/experiments/alicia/teaching/experiment/?hitId=3J94SKDEKIB2MY6CGVTNWB9X0ALD5P&workerId=AVFMTS8A5R4XK&assignmentId=3VHP9MDGRO6M5NRHDDGNN0EF3TQFC5&a=G9HV9&tp_a=G9HV9&b=3VHP9MDGRO6M5NRHDDGNN0EF3TQFC5&tp_b=3VHP9MDGRO6M5NRHDDGNN0EF3TQFC5&c=365799&tp_c=365799","heads":8,"tails":5,"studentIndex":16,"studentTrueHypers":{"a":8,"b":2},"studentGuess":0.6956521739130435,"delta":0.10434782608695659,"totalExamples":13,"bonusSoFar":0.63},{"rt":9427,"response":{"heads":"6","tails":"4"},"type":"response","condition":"seqNoFeedback","trueTheta":0.8,"classrooms":["C","D"],"studentTrueClassroom":"D","exampleSet":"second","trial_type":"survey-html-form","trial_index":150,"time_elapsed":13951541,"internal_node_id":"0.0-127.0-0.0","params":{"nStudents":24,"maxFlips":30,"completionMinutes":45,"basePay":8,"maxBonus":9,"perTrialBonus":0.5,"perTrialBonusThreshold":0.05,"exampleCost":0.01},"classroomParams":{"A":{"a":1,"b":4},"B":{"a":4,"b":1},"C":{"a":2,"b":8},"D":{"a":8,"b":2}},"conditions":["nonSeqFull","nonSeqPartial","seqNoFeedback","seqFeedback"],"classroomPairings":[["A","B"],["C","D"]],"coinWeights":[0.2,0.5,0.8],"subjectId":"AVFMTS8A5R4XK","assignmentId":"3VHP9MDGRO6M5NRHDDGNN0EF3TQFC5","hitId":"3J94SKDEKIB2MY6CGVTNWB9X0ALD5P","url":"https://gershmanlab.com/experiments/alicia/teaching/experiment/?hitId=3J94SKDEKIB2MY6CGVTNWB9X0ALD5P&workerId=AVFMTS8A5R4XK&assignmentId=3VHP9MDGRO6M5NRHDDGNN0EF3TQFC5&a=G9HV9&tp_a=G9HV9&b=3VHP9MDGRO6M5NRHDDGNN0EF3TQFC5&tp_b=3VHP9MDGRO6M5NRHDDGNN0EF3TQFC5&c=365799&tp_c=365799","firstResponseHeads":8,"firstResponseTails":5,"secondResponseHeads":6,"secondResponseTails":4,"totalHeads":14,"totalTails":9,"studentIndex":16,"studentTrueHypers":{"a":8,"b":2},"studentGuess":0.6666666666666666,"delta":0.13333333333333341,"bonus":0,"bonusSoFar":0.63,"totalExamples":23},{"rt":7337,"response":{"heads":"4","tails":"4"},"type":"response","condition":"seqFeedback","trueTheta":0.8,"classrooms":["C","D"],"studentTrueClassroom":"D","exampleSet":"first","trial_type":"survey-html-form","trial_index":156,"time_elapsed":13969476,"internal_node_id":"0.0-133.0-0.0","params":{"nStudents":24,"maxFlips":30,"completionMinutes":45,"basePay":8,"maxBonus":9,"perTrialBonus":0.5,"perTrialBonusThreshold":0.05,"exampleCost":0.01},"classroomParams":{"A":{"a":1,"b":4},"B":{"a":4,"b":1},"C":{"a":2,"b":8},"D":{"a":8,"b":2}},"conditions":["nonSeqFull","nonSeqPartial","seqNoFeedback","seqFeedback"],"classroomPairings":[["A","B"],["C","D"]],"coinWeights":[0.2,0.5,0.8],"subjectId":"AVFMTS8A5R4XK","assignmentId":"3VHP9MDGRO6M5NRHDDGNN0EF3TQFC5","hitId":"3J94SKDEKIB2MY6CGVTNWB9X0ALD5P","url":"https://gershmanlab.com/experiments/alicia/teaching/experiment/?hitId=3J94SKDEKIB2MY6CGVTNWB9X0ALD5P&workerId=AVFMTS8A5R4XK&assignmentId=3VHP9MDGRO6M5NRHDDGNN0EF3TQFC5&a=G9HV9&tp_a=G9HV9&b=3VHP9MDGRO6M5NRHDDGNN0EF3TQFC5&tp_b=3VHP9MDGRO6M5NRHDDGNN0EF3TQFC5&c=365799&tp_c=365799","heads":4,"tails":4,"studentIndex":17,"studentTrueHypers":{"a":8,"b":2},"studentGuess":0.6666666666666666,"delta":0.13333333333333341,"totalExamples":8,"bonusSoFar":0.63},{"rt":10845,"response":{"heads":"10","tails":"9"},"type":"response","condition":"seqFeedback","trueTheta":0.8,"classrooms":["C","D"],"studentTrueClassroom":"D","exampleSet":"second","trial_type":"survey-html-form","trial_index":160,"time_elapsed":13986872,"internal_node_id":"0.0-137.0-0.0","params":{"nStudents":24,"maxFlips":30,"completionMinutes":45,"basePay":8,"maxBonus":9,"perTrialBonus":0.5,"perTrialBonusThreshold":0.05,"exampleCost":0.01},"classroomParams":{"A":{"a":1,"b":4},"B":{"a":4,"b":1},"C":{"a":2,"b":8},"D":{"a":8,"b":2}},"conditions":["nonSeqFull","nonSeqPartial","seqNoFeedback","seqFeedback"],"classroomPairings":[["A","B"],["C","D"]],"coinWeights":[0.2,0.5,0.8],"subjectId":"AVFMTS8A5R4XK","assignmentId":"3VHP9MDGRO6M5NRHDDGNN0EF3TQFC5","hitId":"3J94SKDEKIB2MY6CGVTNWB9X0ALD5P","url":"https://gershmanlab.com/experiments/alicia/teaching/experiment/?hitId=3J94SKDEKIB2MY6CGVTNWB9X0ALD5P&workerId=AVFMTS8A5R4XK&assignmentId=3VHP9MDGRO6M5NRHDDGNN0EF3TQFC5&a=G9HV9&tp_a=G9HV9&b=3VHP9MDGRO6M5NRHDDGNN0EF3TQFC5&tp_b=3VHP9MDGRO6M5NRHDDGNN0EF3TQFC5&c=365799&tp_c=365799","firstResponseHeads":4,"firstResponseTails":4,"secondResponseHeads":10,"secondResponseTails":9,"totalHeads":14,"totalTails":13,"studentIndex":17,"studentTrueHypers":{"a":8,"b":2},"studentGuess":0.5945945945945946,"delta":0.20540540540540542,"bonus":0,"bonusSoFar":0.63,"totalExamples":27},{"rt":5417,"response":{"heads":"0","tails":"3"},"type":"response","condition":"nonSeqFull","trueTheta":0.2,"classrooms":["C","D"],"studentTrueClassroom":"C","exampleSet":"first","trial_type":"survey-html-form","trial_index":166,"time_elapsed":14006001,"internal_node_id":"0.0-143.0-0.0","params":{"nStudents":24,"maxFlips":30,"completionMinutes":45,"basePay":8,"maxBonus":9,"perTrialBonus":0.5,"perTrialBonusThreshold":0.05,"exampleCost":0.01},"classroomParams":{"A":{"a":1,"b":4},"B":{"a":4,"b":1},"C":{"a":2,"b":8},"D":{"a":8,"b":2}},"conditions":["nonSeqFull","nonSeqPartial","seqNoFeedback","seqFeedback"],"classroomPairings":[["A","B"],["C","D"]],"coinWeights":[0.2,0.5,0.8],"subjectId":"AVFMTS8A5R4XK","assignmentId":"3VHP9MDGRO6M5NRHDDGNN0EF3TQFC5","hitId":"3J94SKDEKIB2MY6CGVTNWB9X0ALD5P","url":"https://gershmanlab.com/experiments/alicia/teaching/experiment/?hitId=3J94SKDEKIB2MY6CGVTNWB9X0ALD5P&workerId=AVFMTS8A5R4XK&assignmentId=3VHP9MDGRO6M5NRHDDGNN0EF3TQFC5&a=G9HV9&tp_a=G9HV9&b=3VHP9MDGRO6M5NRHDDGNN0EF3TQFC5&tp_b=3VHP9MDGRO6M5NRHDDGNN0EF3TQFC5&c=365799&tp_c=365799","heads":0,"tails":3,"studentIndex":18,"studentTrueHypers":{"a":2,"b":8},"studentGuess":0.15384615384615385,"delta":0.046153846153846156,"totalExamples":3,"bonus":0.47,"bonusSoFar":1.1},{"rt":2047,"response":{"heads":"0","tails":"0"},"type":"response","condition":"seqNoFeedback","trueTheta":0.2,"classrooms":["A","B"],"studentTrueClassroom":"B","exampleSet":"first","trial_type":"survey-html-form","trial_index":172,"time_elapsed":14021118,"internal_node_id":"0.0-149.0-0.0","params":{"nStudents":24,"maxFlips":30,"completionMinutes":45,"basePay":8,"maxBonus":9,"perTrialBonus":0.5,"perTrialBonusThreshold":0.05,"exampleCost":0.01},"classroomParams":{"A":{"a":1,"b":4},"B":{"a":4,"b":1},"C":{"a":2,"b":8},"D":{"a":8,"b":2}},"conditions":["nonSeqFull","nonSeqPartial","seqNoFeedback","seqFeedback"],"classroomPairings":[["A","B"],["C","D"]],"coinWeights":[0.2,0.5,0.8],"subjectId":"AVFMTS8A5R4XK","assignmentId":"3VHP9MDGRO6M5NRHDDGNN0EF3TQFC5","hitId":"3J94SKDEKIB2MY6CGVTNWB9X0ALD5P","url":"https://gershmanlab.com/experiments/alicia/teaching/experiment/?hitId=3J94SKDEKIB2MY6CGVTNWB9X0ALD5P&workerId=AVFMTS8A5R4XK&assignmentId=3VHP9MDGRO6M5NRHDDGNN0EF3TQFC5&a=G9HV9&tp_a=G9HV9&b=3VHP9MDGRO6M5NRHDDGNN0EF3TQFC5&tp_b=3VHP9MDGRO6M5NRHDDGNN0EF3TQFC5&c=365799&tp_c=365799","heads":0,"tails":0,"studentIndex":19,"studentTrueHypers":{"a":4,"b":1},"studentGuess":0.8,"delta":0.6000000000000001,"totalExamples":0,"bonusSoFar":1.1},{"rt":950,"response":{"heads":"0","tails":"0"},"type":"response","condition":"seqNoFeedback","trueTheta":0.2,"classrooms":["A","B"],"studentTrueClassroom":"B","exampleSet":"first","trial_type":"survey-html-form","trial_index":173,"time_elapsed":14022069,"internal_node_id":"0.0-149.1-0.1","params":{"nStudents":24,"maxFlips":30,"completionMinutes":45,"basePay":8,"maxBonus":9,"perTrialBonus":0.5,"perTrialBonusThreshold":0.05,"exampleCost":0.01},"classroomParams":{"A":{"a":1,"b":4},"B":{"a":4,"b":1},"C":{"a":2,"b":8},"D":{"a":8,"b":2}},"conditions":["nonSeqFull","nonSeqPartial","seqNoFeedback","seqFeedback"],"classroomPairings":[["A","B"],["C","D"]],"coinWeights":[0.2,0.5,0.8],"subjectId":"AVFMTS8A5R4XK","assignmentId":"3VHP9MDGRO6M5NRHDDGNN0EF3TQFC5","hitId":"3J94SKDEKIB2MY6CGVTNWB9X0ALD5P","url":"https://gershmanlab.com/experiments/alicia/teaching/experiment/?hitId=3J94SKDEKIB2MY6CGVTNWB9X0ALD5P&workerId=AVFMTS8A5R4XK&assignmentId=3VHP9MDGRO6M5NRHDDGNN0EF3TQFC5&a=G9HV9&tp_a=G9HV9&b=3VHP9MDGRO6M5NRHDDGNN0EF3TQFC5&tp_b=3VHP9MDGRO6M5NRHDDGNN0EF3TQFC5&c=365799&tp_c=365799","heads":0,"tails":0,"studentIndex":19,"studentTrueHypers":{"a":4,"b":1},"studentGuess":0.8,"delta":0.6000000000000001,"totalExamples":0,"bonusSoFar":1.1},{"rt":8669,"response":{"heads":"0","tails":"6"},"type":"response","condition":"seqNoFeedback","trueTheta":0.2,"classrooms":["A","B"],"studentTrueClassroom":"B","exampleSet":"first","trial_type":"survey-html-form","trial_index":174,"time_elapsed":14030740,"internal_node_id":"0.0-149.2-0.2","params":{"nStudents":24,"maxFlips":30,"completionMinutes":45,"basePay":8,"maxBonus":9,"perTrialBonus":0.5,"perTrialBonusThreshold":0.05,"exampleCost":0.01},"classroomParams":{"A":{"a":1,"b":4},"B":{"a":4,"b":1},"C":{"a":2,"b":8},"D":{"a":8,"b":2}},"conditions":["nonSeqFull","nonSeqPartial","seqNoFeedback","seqFeedback"],"classroomPairings":[["A","B"],["C","D"]],"coinWeights":[0.2,0.5,0.8],"subjectId":"AVFMTS8A5R4XK","assignmentId":"3VHP9MDGRO6M5NRHDDGNN0EF3TQFC5","hitId":"3J94SKDEKIB2MY6CGVTNWB9X0ALD5P","url":"https://gershmanlab.com/experiments/alicia/teaching/experiment/?hitId=3J94SKDEKIB2MY6CGVTNWB9X0ALD5P&workerId=AVFMTS8A5R4XK&assignmentId=3VHP9MDGRO6M5NRHDDGNN0EF3TQFC5&a=G9HV9&tp_a=G9HV9&b=3VHP9MDGRO6M5NRHDDGNN0EF3TQFC5&tp_b=3VHP9MDGRO6M5NRHDDGNN0EF3TQFC5&c=365799&tp_c=365799","heads":0,"tails":6,"studentIndex":19,"studentTrueHypers":{"a":4,"b":1},"studentGuess":0.36363636363636365,"delta":0.16363636363636364,"totalExamples":6,"bonusSoFar":1.1},{"rt":4873,"response":{"heads":"7","tails":"0"},"type":"response","condition":"seqNoFeedback","trueTheta":0.2,"classrooms":["A","B"],"studentTrueClassroom":"B","exampleSet":"second","trial_type":"survey-html-form","trial_index":177,"time_elapsed":14040868,"internal_node_id":"0.0-152.0-0.0","params":{"nStudents":24,"maxFlips":30,"completionMinutes":45,"basePay":8,"maxBonus":9,"perTrialBonus":0.5,"perTrialBonusThreshold":0.05,"exampleCost":0.01},"classroomParams":{"A":{"a":1,"b":4},"B":{"a":4,"b":1},"C":{"a":2,"b":8},"D":{"a":8,"b":2}},"conditions":["nonSeqFull","nonSeqPartial","seqNoFeedback","seqFeedback"],"classroomPairings":[["A","B"],["C","D"]],"coinWeights":[0.2,0.5,0.8],"subjectId":"AVFMTS8A5R4XK","assignmentId":"3VHP9MDGRO6M5NRHDDGNN0EF3TQFC5","hitId":"3J94SKDEKIB2MY6CGVTNWB9X0ALD5P","url":"https://gershmanlab.com/experiments/alicia/teaching/experiment/?hitId=3J94SKDEKIB2MY6CGVTNWB9X0ALD5P&workerId=AVFMTS8A5R4XK&assignmentId=3VHP9MDGRO6M5NRHDDGNN0EF3TQFC5&a=G9HV9&tp_a=G9HV9&b=3VHP9MDGRO6M5NRHDDGNN0EF3TQFC5&tp_b=3VHP9MDGRO6M5NRHDDGNN0EF3TQFC5&c=365799&tp_c=365799","firstResponseHeads":0,"firstResponseTails":0,"secondResponseHeads":7,"secondResponseTails":0,"totalHeads":7,"totalTails":0,"studentIndex":19,"studentTrueHypers":{"a":4,"b":1},"studentGuess":0.9166666666666666,"delta":0.7166666666666666,"bonus":0,"bonusSoFar":1.1,"totalExamples":7},{"rt":4663,"response":{"heads":"5","tails":"0"},"type":"response","condition":"seqNoFeedback","trueTheta":0.8,"classrooms":["A","B"],"studentTrueClassroom":"B","exampleSet":"first","trial_type":"survey-html-form","trial_index":183,"time_elapsed":14059714,"internal_node_id":"0.0-158.0-0.0","params":{"nStudents":24,"maxFlips":30,"completionMinutes":45,"basePay":8,"maxBonus":9,"perTrialBonus":0.5,"perTrialBonusThreshold":0.05,"exampleCost":0.01},"classroomParams":{"A":{"a":1,"b":4},"B":{"a":4,"b":1},"C":{"a":2,"b":8},"D":{"a":8,"b":2}},"conditions":["nonSeqFull","nonSeqPartial","seqNoFeedback","seqFeedback"],"classroomPairings":[["A","B"],["C","D"]],"coinWeights":[0.2,0.5,0.8],"subjectId":"AVFMTS8A5R4XK","assignmentId":"3VHP9MDGRO6M5NRHDDGNN0EF3TQFC5","hitId":"3J94SKDEKIB2MY6CGVTNWB9X0ALD5P","url":"https://gershmanlab.com/experiments/alicia/teaching/experiment/?hitId=3J94SKDEKIB2MY6CGVTNWB9X0ALD5P&workerId=AVFMTS8A5R4XK&assignmentId=3VHP9MDGRO6M5NRHDDGNN0EF3TQFC5&a=G9HV9&tp_a=G9HV9&b=3VHP9MDGRO6M5NRHDDGNN0EF3TQFC5&tp_b=3VHP9MDGRO6M5NRHDDGNN0EF3TQFC5&c=365799&tp_c=365799","heads":5,"tails":0,"studentIndex":20,"studentTrueHypers":{"a":4,"b":1},"studentGuess":0.9,"delta":0.09999999999999998,"totalExamples":5,"bonusSoFar":1.1},{"rt":5198,"response":{"heads":"0","tails":"6"},"type":"response","condition":"seqNoFeedback","trueTheta":0.8,"classrooms":["A","B"],"studentTrueClassroom":"B","exampleSet":"second","trial_type":"survey-html-form","trial_index":186,"time_elapsed":14071919,"internal_node_id":"0.0-161.0-0.0","params":{"nStudents":24,"maxFlips":30,"completionMinutes":45,"basePay":8,"maxBonus":9,"perTrialBonus":0.5,"perTrialBonusThreshold":0.05,"exampleCost":0.01},"classroomParams":{"A":{"a":1,"b":4},"B":{"a":4,"b":1},"C":{"a":2,"b":8},"D":{"a":8,"b":2}},"conditions":["nonSeqFull","nonSeqPartial","seqNoFeedback","seqFeedback"],"classroomPairings":[["A","B"],["C","D"]],"coinWeights":[0.2,0.5,0.8],"subjectId":"AVFMTS8A5R4XK","assignmentId":"3VHP9MDGRO6M5NRHDDGNN0EF3TQFC5","hitId":"3J94SKDEKIB2MY6CGVTNWB9X0ALD5P","url":"https://gershmanlab.com/experiments/alicia/teaching/experiment/?hitId=3J94SKDEKIB2MY6CGVTNWB9X0ALD5P&workerId=AVFMTS8A5R4XK&assignmentId=3VHP9MDGRO6M5NRHDDGNN0EF3TQFC5&a=G9HV9&tp_a=G9HV9&b=3VHP9MDGRO6M5NRHDDGNN0EF3TQFC5&tp_b=3VHP9MDGRO6M5NRHDDGNN0EF3TQFC5&c=365799&tp_c=365799","firstResponseHeads":5,"firstResponseTails":0,"secondResponseHeads":0,"secondResponseTails":6,"totalHeads":5,"totalTails":6,"studentIndex":20,"studentTrueHypers":{"a":4,"b":1},"studentGuess":0.5625,"delta":0.23750000000000004,"bonus":0,"bonusSoFar":1.1,"totalExamples":11},{"rt":3599,"response":{"heads":"1","tails":"0"},"type":"response","condition":"nonSeqPartial","trueTheta":0.8,"classrooms":["A","B"],"studentTrueClassroom":"B","exampleSet":"first","trial_type":"survey-html-form","trial_index":192,"time_elapsed":14089325,"internal_node_id":"0.0-167.0-0.0","params":{"nStudents":24,"maxFlips":30,"completionMinutes":45,"basePay":8,"maxBonus":9,"perTrialBonus":0.5,"perTrialBonusThreshold":0.05,"exampleCost":0.01},"classroomParams":{"A":{"a":1,"b":4},"B":{"a":4,"b":1},"C":{"a":2,"b":8},"D":{"a":8,"b":2}},"conditions":["nonSeqFull","nonSeqPartial","seqNoFeedback","seqFeedback"],"classroomPairings":[["A","B"],["C","D"]],"coinWeights":[0.2,0.5,0.8],"subjectId":"AVFMTS8A5R4XK","assignmentId":"3VHP9MDGRO6M5NRHDDGNN0EF3TQFC5","hitId":"3J94SKDEKIB2MY6CGVTNWB9X0ALD5P","url":"https://gershmanlab.com/experiments/alicia/teaching/experiment/?hitId=3J94SKDEKIB2MY6CGVTNWB9X0ALD5P&workerId=AVFMTS8A5R4XK&assignmentId=3VHP9MDGRO6M5NRHDDGNN0EF3TQFC5&a=G9HV9&tp_a=G9HV9&b=3VHP9MDGRO6M5NRHDDGNN0EF3TQFC5&tp_b=3VHP9MDGRO6M5NRHDDGNN0EF3TQFC5&c=365799&tp_c=365799","heads":1,"tails":0,"studentIndex":21,"studentTrueHypers":{"a":4,"b":1},"studentGuess":0.8333333333333334,"delta":0.033333333333333326,"totalExamples":1,"bonus":0.49,"bonusSoFar":1.59},{"rt":7781,"response":{"heads":"3","tails":"2"},"type":"response","condition":"seqFeedback","trueTheta":0.5,"classrooms":["C","D"],"studentTrueClassroom":"C","exampleSet":"first","trial_type":"survey-html-form","trial_index":198,"time_elapsed":14109418,"internal_node_id":"0.0-173.0-0.0","params":{"nStudents":24,"maxFlips":30,"completionMinutes":45,"basePay":8,"maxBonus":9,"perTrialBonus":0.5,"perTrialBonusThreshold":0.05,"exampleCost":0.01},"classroomParams":{"A":{"a":1,"b":4},"B":{"a":4,"b":1},"C":{"a":2,"b":8},"D":{"a":8,"b":2}},"conditions":["nonSeqFull","nonSeqPartial","seqNoFeedback","seqFeedback"],"classroomPairings":[["A","B"],["C","D"]],"coinWeights":[0.2,0.5,0.8],"subjectId":"AVFMTS8A5R4XK","assignmentId":"3VHP9MDGRO6M5NRHDDGNN0EF3TQFC5","hitId":"3J94SKDEKIB2MY6CGVTNWB9X0ALD5P","url":"https://gershmanlab.com/experiments/alicia/teaching/experiment/?hitId=3J94SKDEKIB2MY6CGVTNWB9X0ALD5P&workerId=AVFMTS8A5R4XK&assignmentId=3VHP9MDGRO6M5NRHDDGNN0EF3TQFC5&a=G9HV9&tp_a=G9HV9&b=3VHP9MDGRO6M5NRHDDGNN0EF3TQFC5&tp_b=3VHP9MDGRO6M5NRHDDGNN0EF3TQFC5&c=365799&tp_c=365799","heads":3,"tails":2,"studentIndex":22,"studentTrueHypers":{"a":2,"b":8},"studentGuess":0.3333333333333333,"delta":0.16666666666666669,"totalExamples":5,"bonusSoFar":1.59},{"rt":5415,"response":{"heads":"3","tails":"2"},"type":"response","condition":"seqFeedback","trueTheta":0.5,"classrooms":["C","D"],"studentTrueClassroom":"C","exampleSet":"second","trial_type":"survey-html-form","trial_index":202,"time_elapsed":14122337,"internal_node_id":"0.0-177.0-0.0","params":{"nStudents":24,"maxFlips":30,"completionMinutes":45,"basePay":8,"maxBonus":9,"perTrialBonus":0.5,"perTrialBonusThreshold":0.05,"exampleCost":0.01},"classroomParams":{"A":{"a":1,"b":4},"B":{"a":4,"b":1},"C":{"a":2,"b":8},"D":{"a":8,"b":2}},"conditions":["nonSeqFull","nonSeqPartial","seqNoFeedback","seqFeedback"],"classroomPairings":[["A","B"],["C","D"]],"coinWeights":[0.2,0.5,0.8],"subjectId":"AVFMTS8A5R4XK","assignmentId":"3VHP9MDGRO6M5NRHDDGNN0EF3TQFC5","hitId":"3J94SKDEKIB2MY6CGVTNWB9X0ALD5P","url":"https://gershmanlab.com/experiments/alicia/teaching/experiment/?hitId=3J94SKDEKIB2MY6CGVTNWB9X0ALD5P&workerId=AVFMTS8A5R4XK&assignmentId=3VHP9MDGRO6M5NRHDDGNN0EF3TQFC5&a=G9HV9&tp_a=G9HV9&b=3VHP9MDGRO6M5NRHDDGNN0EF3TQFC5&tp_b=3VHP9MDGRO6M5NRHDDGNN0EF3TQFC5&c=365799&tp_c=365799","firstResponseHeads":3,"firstResponseTails":2,"secondResponseHeads":3,"secondResponseTails":2,"totalHeads":6,"totalTails":4,"studentIndex":22,"studentTrueHypers":{"a":2,"b":8},"studentGuess":0.4,"delta":0.09999999999999998,"bonus":0,"bonusSoFar":1.59,"totalExamples":10},{"rt":8334,"response":{"heads":"16","tails":"14"},"type":"response","condition":"seqNoFeedback","trueTheta":0.5,"classrooms":["C","D"],"studentTrueClassroom":"C","exampleSet":"first","trial_type":"survey-html-form","trial_index":208,"time_elapsed":14142391,"internal_node_id":"0.0-183.0-0.0","params":{"nStudents":24,"maxFlips":30,"completionMinutes":45,"basePay":8,"maxBonus":9,"perTrialBonus":0.5,"perTrialBonusThreshold":0.05,"exampleCost":0.01},"classroomParams":{"A":{"a":1,"b":4},"B":{"a":4,"b":1},"C":{"a":2,"b":8},"D":{"a":8,"b":2}},"conditions":["nonSeqFull","nonSeqPartial","seqNoFeedback","seqFeedback"],"classroomPairings":[["A","B"],["C","D"]],"coinWeights":[0.2,0.5,0.8],"subjectId":"AVFMTS8A5R4XK","assignmentId":"3VHP9MDGRO6M5NRHDDGNN0EF3TQFC5","hitId":"3J94SKDEKIB2MY6CGVTNWB9X0ALD5P","url":"https://gershmanlab.com/experiments/alicia/teaching/experiment/?hitId=3J94SKDEKIB2MY6CGVTNWB9X0ALD5P&workerId=AVFMTS8A5R4XK&assignmentId=3VHP9MDGRO6M5NRHDDGNN0EF3TQFC5&a=G9HV9&tp_a=G9HV9&b=3VHP9MDGRO6M5NRHDDGNN0EF3TQFC5&tp_b=3VHP9MDGRO6M5NRHDDGNN0EF3TQFC5&c=365799&tp_c=365799","heads":16,"tails":14,"studentIndex":23,"studentTrueHypers":{"a":2,"b":8},"studentGuess":0.45,"delta":0.04999999999999999,"totalExamples":30,"bonusSoFar":1.59},{"rt":6822,"response":{"heads":"12","tails":"15"},"type":"response","condition":"seqNoFeedback","trueTheta":0.5,"classrooms":["C","D"],"studentTrueClassroom":"C","exampleSet":"second","trial_type":"survey-html-form","trial_index":211,"time_elapsed":14155470,"internal_node_id":"0.0-186.0-0.0","params":{"nStudents":24,"maxFlips":30,"completionMinutes":45,"basePay":8,"maxBonus":9,"perTrialBonus":0.5,"perTrialBonusThreshold":0.05,"exampleCost":0.01},"classroomParams":{"A":{"a":1,"b":4},"B":{"a":4,"b":1},"C":{"a":2,"b":8},"D":{"a":8,"b":2}},"conditions":["nonSeqFull","nonSeqPartial","seqNoFeedback","seqFeedback"],"classroomPairings":[["A","B"],["C","D"]],"coinWeights":[0.2,0.5,0.8],"subjectId":"AVFMTS8A5R4XK","assignmentId":"3VHP9MDGRO6M5NRHDDGNN0EF3TQFC5","hitId":"3J94SKDEKIB2MY6CGVTNWB9X0ALD5P","url":"https://gershmanlab.com/experiments/alicia/teaching/experiment/?hitId=3J94SKDEKIB2MY6CGVTNWB9X0ALD5P&workerId=AVFMTS8A5R4XK&assignmentId=3VHP9MDGRO6M5NRHDDGNN0EF3TQFC5&a=G9HV9&tp_a=G9HV9&b=3VHP9MDGRO6M5NRHDDGNN0EF3TQFC5&tp_b=3VHP9MDGRO6M5NRHDDGNN0EF3TQFC5&c=365799&tp_c=365799","firstResponseHeads":16,"firstResponseTails":14,"secondResponseHeads":12,"secondResponseTails":15,"totalHeads":28,"totalTails":29,"studentIndex":23,"studentTrueHypers":{"a":2,"b":8},"studentGuess":0.44776119402985076,"delta":0.05223880597014924,"bonus":0,"bonusSoFar":1.59,"totalExamples":57},{"rt":15558,"response":{"gender":"male","age":"29","understood":"yes","comments":"good"},"type":"response","trial_type":"survey-html-form","trial_index":215,"time_elapsed":14178490,"internal_node_id":"0.0-191.0","params":{"nStudents":24,"maxFlips":30,"completionMinutes":45,"basePay":8,"maxBonus":9,"perTrialBonus":0.5,"perTrialBonusThreshold":0.05,"exampleCost":0.01},"classroomParams":{"A":{"a":1,"b":4},"B":{"a":4,"b":1},"C":{"a":2,"b":8},"D":{"a":8,"b":2}},"conditions":["nonSeqFull","nonSeqPartial","seqNoFeedback","seqFeedback"],"classroomPairings":[["A","B"],["C","D"]],"coinWeights":[0.2,0.5,0.8],"subjectId":"AVFMTS8A5R4XK","assignmentId":"3VHP9MDGRO6M5NRHDDGNN0EF3TQFC5","hitId":"3J94SKDEKIB2MY6CGVTNWB9X0ALD5P","url":"https://gershmanlab.com/experiments/alicia/teaching/experiment/?hitId=3J94SKDEKIB2MY6CGVTNWB9X0ALD5P&workerId=AVFMTS8A5R4XK&assignmentId=3VHP9MDGRO6M5NRHDDGNN0EF3TQFC5&a=G9HV9&tp_a=G9HV9&b=3VHP9MDGRO6M5NRHDDGNN0EF3TQFC5&tp_b=3VHP9MDGRO6M5NRHDDGNN0EF3TQFC5&c=365799&tp_c=365799","totalBonus":1.59}]