[{"rt":17523,"stimulus":"Welcome to the experiment. Press any key to begin.","response":" ","trial_type":"html-keyboard-response","trial_index":0,"time_elapsed":17570,"internal_node_id":"0.0-0.0","params":{"nStudents":24,"maxFlips":30,"completionMinutes":45,"basePay":8,"maxBonus":9,"perTrialBonus":0.5,"perTrialBonusThreshold":0.1,"exampleCost":0.01},"classroomParams":{"A":{"a":1,"b":4},"B":{"a":4,"b":1},"C":{"a":2,"b":8},"D":{"a":8,"b":2}},"conditions":["nonSeqFull","nonSeqPartial","seqNoFeedback","seqFeedback"],"classroomPairings":[["A","B"],["C","D"]],"coinWeights":[0.2,0.5,0.8],"subjectId":"A10BH9PYCYUKDJ","assignmentId":"32XVDSJFP0JFDFRW27VU6DP2NJPM25","hitId":"3YGE63DIN8J20XK20KS1742RQF60WK","url":"https://gershmanlab.com/experiments/alicia/teaching/experiment/?hitId=3YGE63DIN8J20XK20KS1742RQF60WK&workerId=A10BH9PYCYUKDJ&assignmentId=32XVDSJFP0JFDFRW27VU6DP2NJPM25&a=FDX28&tp_a=FDX28&b=32XVDSJFP0JFDFRW27VU6DP2NJPM25&tp_b=32XVDSJFP0JFDFRW27VU6DP2NJPM25&c=365198&tp_c=365198"},{"rt":16517,"stimulus":"\n        <h3>Please read this consent agreement carefully before deciding whether to participate in this experiment.</h3>\n        <p><b>Purpose of the research:</b> To examine how people teach effectively.</p>\n        <p><b>What you will do in this research:</b> You will teach students the weights of different coins.</p>\n        <p><b>Time required:</b> This experiment will take 45 minutes to complete.</p>\n        <p><b>Risks:</b> There are no anticipated risks associated with participating in this study.             The effects of participating should be comparable to those you would experience from viewing a computer monitor             and using a mouse and keyboard for the duration of the experiment.</p>\n        <p><b>Benefits:</b> The study provides important information about the nature of teaching.</p>\n        <p><b>Compensation:</b> You will receive <b>$8</b> for completing the experiment and a performance bonus of up to <b>$9</b>.</p>\n        <p><b>Confidentiality:</b> Your participation in this study will remain confidential.             No personally identifiable information will be associated with your data.             Your de-identified data may be shared with other researchers and used in future projects.</p>\n        <p><b>Participation and withdrawal:</b> Your participation in this study is completely voluntary and             you may refuse to participate or you may choose to withdraw at any time without penalty or loss of\n            benefits to which you are otherwise entitled.</p>\n        <p><b>How to contact the researcher:</b> If you have questions or concerns about your participation            or payment, or want to request a summary of research findings, please contact\n            Alicia Chen, aliciachen@college.harvard.edu.</p>\n        <p><b>Whom to contact about your rights in this research:</b> For questions, concerns, suggestions,             or complaints that have not been or cannot be addressed by the researcher, or to report             research-related harm, please contact the Committee on the Use of Human Subjects in Research at Harvard University,             1414 Massachusetts Avenue, Second Floor, Cambridge, MA 02138. Phone: 617-496-2847. Email: cuhs@fas.harvard.edu.</p>\n        ","response":0,"trial_type":"html-button-response","trial_index":1,"time_elapsed":34091,"internal_node_id":"0.0-1.0","params":{"nStudents":24,"maxFlips":30,"completionMinutes":45,"basePay":8,"maxBonus":9,"perTrialBonus":0.5,"perTrialBonusThreshold":0.1,"exampleCost":0.01},"classroomParams":{"A":{"a":1,"b":4},"B":{"a":4,"b":1},"C":{"a":2,"b":8},"D":{"a":8,"b":2}},"conditions":["nonSeqFull","nonSeqPartial","seqNoFeedback","seqFeedback"],"classroomPairings":[["A","B"],["C","D"]],"coinWeights":[0.2,0.5,0.8],"subjectId":"A10BH9PYCYUKDJ","assignmentId":"32XVDSJFP0JFDFRW27VU6DP2NJPM25","hitId":"3YGE63DIN8J20XK20KS1742RQF60WK","url":"https://gershmanlab.com/experiments/alicia/teaching/experiment/?hitId=3YGE63DIN8J20XK20KS1742RQF60WK&workerId=A10BH9PYCYUKDJ&assignmentId=32XVDSJFP0JFDFRW27VU6DP2NJPM25&a=FDX28&tp_a=FDX28&b=32XVDSJFP0JFDFRW27VU6DP2NJPM25&tp_b=32XVDSJFP0JFDFRW27VU6DP2NJPM25&c=365198&tp_c=365198"},{"view_history":[{"page_index":0,"viewing_time":10201},{"page_index":1,"viewing_time":4234},{"page_index":2,"viewing_time":52110},{"page_index":3,"viewing_time":32500},{"page_index":4,"viewing_time":17129},{"page_index":5,"viewing_time":113168},{"page_index":6,"viewing_time":59170}],"rt":288516,"trial_type":"instructions","trial_index":2,"time_elapsed":322609,"internal_node_id":"0.0-2.0-0.0","params":{"nStudents":24,"maxFlips":30,"completionMinutes":45,"basePay":8,"maxBonus":9,"perTrialBonus":0.5,"perTrialBonusThreshold":0.1,"exampleCost":0.01},"classroomParams":{"A":{"a":1,"b":4},"B":{"a":4,"b":1},"C":{"a":2,"b":8},"D":{"a":8,"b":2}},"conditions":["nonSeqFull","nonSeqPartial","seqNoFeedback","seqFeedback"],"classroomPairings":[["A","B"],["C","D"]],"coinWeights":[0.2,0.5,0.8],"subjectId":"A10BH9PYCYUKDJ","assignmentId":"32XVDSJFP0JFDFRW27VU6DP2NJPM25","hitId":"3YGE63DIN8J20XK20KS1742RQF60WK","url":"https://gershmanlab.com/experiments/alicia/teaching/experiment/?hitId=3YGE63DIN8J20XK20KS1742RQF60WK&workerId=A10BH9PYCYUKDJ&assignmentId=32XVDSJFP0JFDFRW27VU6DP2NJPM25&a=FDX28&tp_a=FDX28&b=32XVDSJFP0JFDFRW27VU6DP2NJPM25&tp_b=32XVDSJFP0JFDFRW27VU6DP2NJPM25&c=365198&tp_c=365198"},{"rt":67005,"response":{"Q0":"Students in different classrooms will have seen a different number of heads and tails before seeing the examples you select for them.","Q1":"By teaching efficiently and accurately/helpfully at the same time (because each example I give to the student costs money!).","Q2":"The coin lands heads 90% of the time.","Q3":"No, I will teach a <b>new</b> student each time.","Q4":"The students are also on the same alien planet as you, where coins can be unfair.","Q5":"Based on the student's second (and final) guess."},"question_order":[0,5,1,4,3,2],"trial_type":"survey-multi-choice","trial_index":3,"time_elapsed":389620,"internal_node_id":"0.0-2.0-1.0","params":{"nStudents":24,"maxFlips":30,"completionMinutes":45,"basePay":8,"maxBonus":9,"perTrialBonus":0.5,"perTrialBonusThreshold":0.1,"exampleCost":0.01},"classroomParams":{"A":{"a":1,"b":4},"B":{"a":4,"b":1},"C":{"a":2,"b":8},"D":{"a":8,"b":2}},"conditions":["nonSeqFull","nonSeqPartial","seqNoFeedback","seqFeedback"],"classroomPairings":[["A","B"],["C","D"]],"coinWeights":[0.2,0.5,0.8],"subjectId":"A10BH9PYCYUKDJ","assignmentId":"32XVDSJFP0JFDFRW27VU6DP2NJPM25","hitId":"3YGE63DIN8J20XK20KS1742RQF60WK","url":"https://gershmanlab.com/experiments/alicia/teaching/experiment/?hitId=3YGE63DIN8J20XK20KS1742RQF60WK&workerId=A10BH9PYCYUKDJ&assignmentId=32XVDSJFP0JFDFRW27VU6DP2NJPM25&a=FDX28&tp_a=FDX28&b=32XVDSJFP0JFDFRW27VU6DP2NJPM25&tp_b=32XVDSJFP0JFDFRW27VU6DP2NJPM25&c=365198&tp_c=365198","pass":true},{"rt":null,"stimulus":"<div style=\"font-size:30px;\">Congrats on passing the comprehension quiz! The experiment will begin in a few seconds.</div>","response":null,"trial_type":"html-keyboard-response","trial_index":4,"time_elapsed":392630,"internal_node_id":"0.0-3.0","params":{"nStudents":24,"maxFlips":30,"completionMinutes":45,"basePay":8,"maxBonus":9,"perTrialBonus":0.5,"perTrialBonusThreshold":0.1,"exampleCost":0.01},"classroomParams":{"A":{"a":1,"b":4},"B":{"a":4,"b":1},"C":{"a":2,"b":8},"D":{"a":8,"b":2}},"conditions":["nonSeqFull","nonSeqPartial","seqNoFeedback","seqFeedback"],"classroomPairings":[["A","B"],["C","D"]],"coinWeights":[0.2,0.5,0.8],"subjectId":"A10BH9PYCYUKDJ","assignmentId":"32XVDSJFP0JFDFRW27VU6DP2NJPM25","hitId":"3YGE63DIN8J20XK20KS1742RQF60WK","url":"https://gershmanlab.com/experiments/alicia/teaching/experiment/?hitId=3YGE63DIN8J20XK20KS1742RQF60WK&workerId=A10BH9PYCYUKDJ&assignmentId=32XVDSJFP0JFDFRW27VU6DP2NJPM25&a=FDX28&tp_a=FDX28&b=32XVDSJFP0JFDFRW27VU6DP2NJPM25&tp_b=32XVDSJFP0JFDFRW27VU6DP2NJPM25&c=365198&tp_c=365198"},{"rt":null,"stimulus":"<div style=\"font-size:50px;\">First student</div>","response":null,"trial_type":"html-keyboard-response","trial_index":5,"time_elapsed":395633,"internal_node_id":"0.0-4.0","params":{"nStudents":24,"maxFlips":30,"completionMinutes":45,"basePay":8,"maxBonus":9,"perTrialBonus":0.5,"perTrialBonusThreshold":0.1,"exampleCost":0.01},"classroomParams":{"A":{"a":1,"b":4},"B":{"a":4,"b":1},"C":{"a":2,"b":8},"D":{"a":8,"b":2}},"conditions":["nonSeqFull","nonSeqPartial","seqNoFeedback","seqFeedback"],"classroomPairings":[["A","B"],["C","D"]],"coinWeights":[0.2,0.5,0.8],"subjectId":"A10BH9PYCYUKDJ","assignmentId":"32XVDSJFP0JFDFRW27VU6DP2NJPM25","hitId":"3YGE63DIN8J20XK20KS1742RQF60WK","url":"https://gershmanlab.com/experiments/alicia/teaching/experiment/?hitId=3YGE63DIN8J20XK20KS1742RQF60WK&workerId=A10BH9PYCYUKDJ&assignmentId=32XVDSJFP0JFDFRW27VU6DP2NJPM25&a=FDX28&tp_a=FDX28&b=32XVDSJFP0JFDFRW27VU6DP2NJPM25&tp_b=32XVDSJFP0JFDFRW27VU6DP2NJPM25&c=365198&tp_c=365198"},{"rt":20483,"stimulus":"\n            <h4 style=\"color:Orange;\">Student 1</h4>\n            <h2>The weight of your coin is <b style=\"color:Tomato;\">0.5</b>.</h2>\n            <p>In this block, you will be giving <b>one</b> set of examples to Student 1.</p>\n                <p>You will receive feedback at the end of the block.</p>\n            ","response":0,"trial_type":"html-button-response","trial_index":6,"time_elapsed":416119,"internal_node_id":"0.0-5.0","params":{"nStudents":24,"maxFlips":30,"completionMinutes":45,"basePay":8,"maxBonus":9,"perTrialBonus":0.5,"perTrialBonusThreshold":0.1,"exampleCost":0.01},"classroomParams":{"A":{"a":1,"b":4},"B":{"a":4,"b":1},"C":{"a":2,"b":8},"D":{"a":8,"b":2}},"conditions":["nonSeqFull","nonSeqPartial","seqNoFeedback","seqFeedback"],"classroomPairings":[["A","B"],["C","D"]],"coinWeights":[0.2,0.5,0.8],"subjectId":"A10BH9PYCYUKDJ","assignmentId":"32XVDSJFP0JFDFRW27VU6DP2NJPM25","hitId":"3YGE63DIN8J20XK20KS1742RQF60WK","url":"https://gershmanlab.com/experiments/alicia/teaching/experiment/?hitId=3YGE63DIN8J20XK20KS1742RQF60WK&workerId=A10BH9PYCYUKDJ&assignmentId=32XVDSJFP0JFDFRW27VU6DP2NJPM25&a=FDX28&tp_a=FDX28&b=32XVDSJFP0JFDFRW27VU6DP2NJPM25&tp_b=32XVDSJFP0JFDFRW27VU6DP2NJPM25&c=365198&tp_c=365198"},{"rt":44403,"response":{"heads":"5","tails":"5"},"type":"response","condition":"nonSeqPartial","trueTheta":0.5,"classrooms":["C","D"],"studentTrueClassroom":"D","exampleSet":"first","trial_type":"survey-html-form","trial_index":7,"time_elapsed":460526,"internal_node_id":"0.0-6.0-0.0","params":{"nStudents":24,"maxFlips":30,"completionMinutes":45,"basePay":8,"maxBonus":9,"perTrialBonus":0.5,"perTrialBonusThreshold":0.1,"exampleCost":0.01},"classroomParams":{"A":{"a":1,"b":4},"B":{"a":4,"b":1},"C":{"a":2,"b":8},"D":{"a":8,"b":2}},"conditions":["nonSeqFull","nonSeqPartial","seqNoFeedback","seqFeedback"],"classroomPairings":[["A","B"],["C","D"]],"coinWeights":[0.2,0.5,0.8],"subjectId":"A10BH9PYCYUKDJ","assignmentId":"32XVDSJFP0JFDFRW27VU6DP2NJPM25","hitId":"3YGE63DIN8J20XK20KS1742RQF60WK","url":"https://gershmanlab.com/experiments/alicia/teaching/experiment/?hitId=3YGE63DIN8J20XK20KS1742RQF60WK&workerId=A10BH9PYCYUKDJ&assignmentId=32XVDSJFP0JFDFRW27VU6DP2NJPM25&a=FDX28&tp_a=FDX28&b=32XVDSJFP0JFDFRW27VU6DP2NJPM25&tp_b=32XVDSJFP0JFDFRW27VU6DP2NJPM25&c=365198&tp_c=365198","heads":5,"tails":5,"studentIndex":0,"studentTrueHypers":{"a":8,"b":2},"studentGuess":0.65,"delta":0.15000000000000002,"totalExamples":10,"bonus":0,"bonusSoFar":0},{"rt":null,"stimulus":"Sending examples to student... ","response":null,"trial_type":"html-keyboard-response","trial_index":8,"time_elapsed":462036,"internal_node_id":"0.0-7.0","params":{"nStudents":24,"maxFlips":30,"completionMinutes":45,"basePay":8,"maxBonus":9,"perTrialBonus":0.5,"perTrialBonusThreshold":0.1,"exampleCost":0.01},"classroomParams":{"A":{"a":1,"b":4},"B":{"a":4,"b":1},"C":{"a":2,"b":8},"D":{"a":8,"b":2}},"conditions":["nonSeqFull","nonSeqPartial","seqNoFeedback","seqFeedback"],"classroomPairings":[["A","B"],["C","D"]],"coinWeights":[0.2,0.5,0.8],"subjectId":"A10BH9PYCYUKDJ","assignmentId":"32XVDSJFP0JFDFRW27VU6DP2NJPM25","hitId":"3YGE63DIN8J20XK20KS1742RQF60WK","url":"https://gershmanlab.com/experiments/alicia/teaching/experiment/?hitId=3YGE63DIN8J20XK20KS1742RQF60WK&workerId=A10BH9PYCYUKDJ&assignmentId=32XVDSJFP0JFDFRW27VU6DP2NJPM25&a=FDX28&tp_a=FDX28&b=32XVDSJFP0JFDFRW27VU6DP2NJPM25&tp_b=32XVDSJFP0JFDFRW27VU6DP2NJPM25&c=365198&tp_c=365198"},{"rt":null,"stimulus":"Examples sent to student! Waiting for student...","response":null,"trial_type":"html-keyboard-response","trial_index":9,"time_elapsed":466539,"internal_node_id":"0.0-8.0","params":{"nStudents":24,"maxFlips":30,"completionMinutes":45,"basePay":8,"maxBonus":9,"perTrialBonus":0.5,"perTrialBonusThreshold":0.1,"exampleCost":0.01},"classroomParams":{"A":{"a":1,"b":4},"B":{"a":4,"b":1},"C":{"a":2,"b":8},"D":{"a":8,"b":2}},"conditions":["nonSeqFull","nonSeqPartial","seqNoFeedback","seqFeedback"],"classroomPairings":[["A","B"],["C","D"]],"coinWeights":[0.2,0.5,0.8],"subjectId":"A10BH9PYCYUKDJ","assignmentId":"32XVDSJFP0JFDFRW27VU6DP2NJPM25","hitId":"3YGE63DIN8J20XK20KS1742RQF60WK","url":"https://gershmanlab.com/experiments/alicia/teaching/experiment/?hitId=3YGE63DIN8J20XK20KS1742RQF60WK&workerId=A10BH9PYCYUKDJ&assignmentId=32XVDSJFP0JFDFRW27VU6DP2NJPM25&a=FDX28&tp_a=FDX28&b=32XVDSJFP0JFDFRW27VU6DP2NJPM25&tp_b=32XVDSJFP0JFDFRW27VU6DP2NJPM25&c=365198&tp_c=365198"},{"rt":8676,"stimulus":"\n                <p>Student's guess for coin weight: <b style=\"color:Tomato;\">0.65</b></p>\n                <p>You received a bonus of <b>$0</b>. Total bonus so far: <b>$0.00</b></b></p>\n                <p> Press any key to continue.</p>\n                ","response":" ","trial_type":"html-keyboard-response","trial_index":10,"time_elapsed":475218,"internal_node_id":"0.0-9.0","params":{"nStudents":24,"maxFlips":30,"completionMinutes":45,"basePay":8,"maxBonus":9,"perTrialBonus":0.5,"perTrialBonusThreshold":0.1,"exampleCost":0.01},"classroomParams":{"A":{"a":1,"b":4},"B":{"a":4,"b":1},"C":{"a":2,"b":8},"D":{"a":8,"b":2}},"conditions":["nonSeqFull","nonSeqPartial","seqNoFeedback","seqFeedback"],"classroomPairings":[["A","B"],["C","D"]],"coinWeights":[0.2,0.5,0.8],"subjectId":"A10BH9PYCYUKDJ","assignmentId":"32XVDSJFP0JFDFRW27VU6DP2NJPM25","hitId":"3YGE63DIN8J20XK20KS1742RQF60WK","url":"https://gershmanlab.com/experiments/alicia/teaching/experiment/?hitId=3YGE63DIN8J20XK20KS1742RQF60WK&workerId=A10BH9PYCYUKDJ&assignmentId=32XVDSJFP0JFDFRW27VU6DP2NJPM25&a=FDX28&tp_a=FDX28&b=32XVDSJFP0JFDFRW27VU6DP2NJPM25&tp_b=32XVDSJFP0JFDFRW27VU6DP2NJPM25&c=365198&tp_c=365198"},{"rt":null,"stimulus":"<div style=\"font-size:60px;\">Next student</div>","response":null,"trial_type":"html-keyboard-response","trial_index":11,"time_elapsed":477471,"internal_node_id":"0.0-10.0-0.0","params":{"nStudents":24,"maxFlips":30,"completionMinutes":45,"basePay":8,"maxBonus":9,"perTrialBonus":0.5,"perTrialBonusThreshold":0.1,"exampleCost":0.01},"classroomParams":{"A":{"a":1,"b":4},"B":{"a":4,"b":1},"C":{"a":2,"b":8},"D":{"a":8,"b":2}},"conditions":["nonSeqFull","nonSeqPartial","seqNoFeedback","seqFeedback"],"classroomPairings":[["A","B"],["C","D"]],"coinWeights":[0.2,0.5,0.8],"subjectId":"A10BH9PYCYUKDJ","assignmentId":"32XVDSJFP0JFDFRW27VU6DP2NJPM25","hitId":"3YGE63DIN8J20XK20KS1742RQF60WK","url":"https://gershmanlab.com/experiments/alicia/teaching/experiment/?hitId=3YGE63DIN8J20XK20KS1742RQF60WK&workerId=A10BH9PYCYUKDJ&assignmentId=32XVDSJFP0JFDFRW27VU6DP2NJPM25&a=FDX28&tp_a=FDX28&b=32XVDSJFP0JFDFRW27VU6DP2NJPM25&tp_b=32XVDSJFP0JFDFRW27VU6DP2NJPM25&c=365198&tp_c=365198"},{"rt":35678,"stimulus":"\n            <h4 style=\"color:Orange;\">Student 2</h4>\n            <h2>The weight of your coin is <b style=\"color:Tomato;\">0.2</b>.</h2>\n            <p>In this block, you will be giving <b>one</b> set of examples to Student 2.</p>\n                <p>You will receive feedback at the end of the block.</p>\n            ","response":0,"trial_type":"html-button-response","trial_index":12,"time_elapsed":513151,"internal_node_id":"0.0-11.0","params":{"nStudents":24,"maxFlips":30,"completionMinutes":45,"basePay":8,"maxBonus":9,"perTrialBonus":0.5,"perTrialBonusThreshold":0.1,"exampleCost":0.01},"classroomParams":{"A":{"a":1,"b":4},"B":{"a":4,"b":1},"C":{"a":2,"b":8},"D":{"a":8,"b":2}},"conditions":["nonSeqFull","nonSeqPartial","seqNoFeedback","seqFeedback"],"classroomPairings":[["A","B"],["C","D"]],"coinWeights":[0.2,0.5,0.8],"subjectId":"A10BH9PYCYUKDJ","assignmentId":"32XVDSJFP0JFDFRW27VU6DP2NJPM25","hitId":"3YGE63DIN8J20XK20KS1742RQF60WK","url":"https://gershmanlab.com/experiments/alicia/teaching/experiment/?hitId=3YGE63DIN8J20XK20KS1742RQF60WK&workerId=A10BH9PYCYUKDJ&assignmentId=32XVDSJFP0JFDFRW27VU6DP2NJPM25&a=FDX28&tp_a=FDX28&b=32XVDSJFP0JFDFRW27VU6DP2NJPM25&tp_b=32XVDSJFP0JFDFRW27VU6DP2NJPM25&c=365198&tp_c=365198"},{"rt":15631,"response":{"heads":"0","tails":"1"},"type":"response","condition":"nonSeqPartial","trueTheta":0.2,"classrooms":["C","D"],"studentTrueClassroom":"D","exampleSet":"first","trial_type":"survey-html-form","trial_index":13,"time_elapsed":528790,"internal_node_id":"0.0-12.0-0.0","params":{"nStudents":24,"maxFlips":30,"completionMinutes":45,"basePay":8,"maxBonus":9,"perTrialBonus":0.5,"perTrialBonusThreshold":0.1,"exampleCost":0.01},"classroomParams":{"A":{"a":1,"b":4},"B":{"a":4,"b":1},"C":{"a":2,"b":8},"D":{"a":8,"b":2}},"conditions":["nonSeqFull","nonSeqPartial","seqNoFeedback","seqFeedback"],"classroomPairings":[["A","B"],["C","D"]],"coinWeights":[0.2,0.5,0.8],"subjectId":"A10BH9PYCYUKDJ","assignmentId":"32XVDSJFP0JFDFRW27VU6DP2NJPM25","hitId":"3YGE63DIN8J20XK20KS1742RQF60WK","url":"https://gershmanlab.com/experiments/alicia/teaching/experiment/?hitId=3YGE63DIN8J20XK20KS1742RQF60WK&workerId=A10BH9PYCYUKDJ&assignmentId=32XVDSJFP0JFDFRW27VU6DP2NJPM25&a=FDX28&tp_a=FDX28&b=32XVDSJFP0JFDFRW27VU6DP2NJPM25&tp_b=32XVDSJFP0JFDFRW27VU6DP2NJPM25&c=365198&tp_c=365198","heads":0,"tails":1,"studentIndex":1,"studentTrueHypers":{"a":8,"b":2},"studentGuess":0.7272727272727273,"delta":0.5272727272727273,"totalExamples":1,"bonus":0,"bonusSoFar":0},{"rt":null,"stimulus":"Sending examples to student... ","response":null,"trial_type":"html-keyboard-response","trial_index":14,"time_elapsed":530044,"internal_node_id":"0.0-13.0","params":{"nStudents":24,"maxFlips":30,"completionMinutes":45,"basePay":8,"maxBonus":9,"perTrialBonus":0.5,"perTrialBonusThreshold":0.1,"exampleCost":0.01},"classroomParams":{"A":{"a":1,"b":4},"B":{"a":4,"b":1},"C":{"a":2,"b":8},"D":{"a":8,"b":2}},"conditions":["nonSeqFull","nonSeqPartial","seqNoFeedback","seqFeedback"],"classroomPairings":[["A","B"],["C","D"]],"coinWeights":[0.2,0.5,0.8],"subjectId":"A10BH9PYCYUKDJ","assignmentId":"32XVDSJFP0JFDFRW27VU6DP2NJPM25","hitId":"3YGE63DIN8J20XK20KS1742RQF60WK","url":"https://gershmanlab.com/experiments/alicia/teaching/experiment/?hitId=3YGE63DIN8J20XK20KS1742RQF60WK&workerId=A10BH9PYCYUKDJ&assignmentId=32XVDSJFP0JFDFRW27VU6DP2NJPM25&a=FDX28&tp_a=FDX28&b=32XVDSJFP0JFDFRW27VU6DP2NJPM25&tp_b=32XVDSJFP0JFDFRW27VU6DP2NJPM25&c=365198&tp_c=365198"},{"rt":null,"stimulus":"Examples sent to student! Waiting for student...","response":null,"trial_type":"html-keyboard-response","trial_index":15,"time_elapsed":535046,"internal_node_id":"0.0-14.0","params":{"nStudents":24,"maxFlips":30,"completionMinutes":45,"basePay":8,"maxBonus":9,"perTrialBonus":0.5,"perTrialBonusThreshold":0.1,"exampleCost":0.01},"classroomParams":{"A":{"a":1,"b":4},"B":{"a":4,"b":1},"C":{"a":2,"b":8},"D":{"a":8,"b":2}},"conditions":["nonSeqFull","nonSeqPartial","seqNoFeedback","seqFeedback"],"classroomPairings":[["A","B"],["C","D"]],"coinWeights":[0.2,0.5,0.8],"subjectId":"A10BH9PYCYUKDJ","assignmentId":"32XVDSJFP0JFDFRW27VU6DP2NJPM25","hitId":"3YGE63DIN8J20XK20KS1742RQF60WK","url":"https://gershmanlab.com/experiments/alicia/teaching/experiment/?hitId=3YGE63DIN8J20XK20KS1742RQF60WK&workerId=A10BH9PYCYUKDJ&assignmentId=32XVDSJFP0JFDFRW27VU6DP2NJPM25&a=FDX28&tp_a=FDX28&b=32XVDSJFP0JFDFRW27VU6DP2NJPM25&tp_b=32XVDSJFP0JFDFRW27VU6DP2NJPM25&c=365198&tp_c=365198"},{"rt":5942,"stimulus":"\n                <p>Student's guess for coin weight: <b style=\"color:Tomato;\">0.73</b></p>\n                <p>You received a bonus of <b>$0</b>. Total bonus so far: <b>$0.00</b></b></p>\n                <p> Press any key to continue.</p>\n                ","response":" ","trial_type":"html-keyboard-response","trial_index":16,"time_elapsed":540990,"internal_node_id":"0.0-15.0","params":{"nStudents":24,"maxFlips":30,"completionMinutes":45,"basePay":8,"maxBonus":9,"perTrialBonus":0.5,"perTrialBonusThreshold":0.1,"exampleCost":0.01},"classroomParams":{"A":{"a":1,"b":4},"B":{"a":4,"b":1},"C":{"a":2,"b":8},"D":{"a":8,"b":2}},"conditions":["nonSeqFull","nonSeqPartial","seqNoFeedback","seqFeedback"],"classroomPairings":[["A","B"],["C","D"]],"coinWeights":[0.2,0.5,0.8],"subjectId":"A10BH9PYCYUKDJ","assignmentId":"32XVDSJFP0JFDFRW27VU6DP2NJPM25","hitId":"3YGE63DIN8J20XK20KS1742RQF60WK","url":"https://gershmanlab.com/experiments/alicia/teaching/experiment/?hitId=3YGE63DIN8J20XK20KS1742RQF60WK&workerId=A10BH9PYCYUKDJ&assignmentId=32XVDSJFP0JFDFRW27VU6DP2NJPM25&a=FDX28&tp_a=FDX28&b=32XVDSJFP0JFDFRW27VU6DP2NJPM25&tp_b=32XVDSJFP0JFDFRW27VU6DP2NJPM25&c=365198&tp_c=365198"},{"rt":null,"stimulus":"<div style=\"font-size:60px;\">Next student</div>","response":null,"trial_type":"html-keyboard-response","trial_index":17,"time_elapsed":542992,"internal_node_id":"0.0-16.0-0.0","params":{"nStudents":24,"maxFlips":30,"completionMinutes":45,"basePay":8,"maxBonus":9,"perTrialBonus":0.5,"perTrialBonusThreshold":0.1,"exampleCost":0.01},"classroomParams":{"A":{"a":1,"b":4},"B":{"a":4,"b":1},"C":{"a":2,"b":8},"D":{"a":8,"b":2}},"conditions":["nonSeqFull","nonSeqPartial","seqNoFeedback","seqFeedback"],"classroomPairings":[["A","B"],["C","D"]],"coinWeights":[0.2,0.5,0.8],"subjectId":"A10BH9PYCYUKDJ","assignmentId":"32XVDSJFP0JFDFRW27VU6DP2NJPM25","hitId":"3YGE63DIN8J20XK20KS1742RQF60WK","url":"https://gershmanlab.com/experiments/alicia/teaching/experiment/?hitId=3YGE63DIN8J20XK20KS1742RQF60WK&workerId=A10BH9PYCYUKDJ&assignmentId=32XVDSJFP0JFDFRW27VU6DP2NJPM25&a=FDX28&tp_a=FDX28&b=32XVDSJFP0JFDFRW27VU6DP2NJPM25&tp_b=32XVDSJFP0JFDFRW27VU6DP2NJPM25&c=365198&tp_c=365198"},{"rt":12368,"stimulus":"\n            <h4 style=\"color:Orange;\">Student 3</h4>\n            <h2>The weight of your coin is <b style=\"color:Tomato;\">0.2</b>.</h2>\n            <p>In this block, you will be giving <b>one</b> set of examples to Student 3.</p>\n                <p>You will receive feedback at the end of the block.</p>\n            ","response":0,"trial_type":"html-button-response","trial_index":18,"time_elapsed":555362,"internal_node_id":"0.0-17.0","params":{"nStudents":24,"maxFlips":30,"completionMinutes":45,"basePay":8,"maxBonus":9,"perTrialBonus":0.5,"perTrialBonusThreshold":0.1,"exampleCost":0.01},"classroomParams":{"A":{"a":1,"b":4},"B":{"a":4,"b":1},"C":{"a":2,"b":8},"D":{"a":8,"b":2}},"conditions":["nonSeqFull","nonSeqPartial","seqNoFeedback","seqFeedback"],"classroomPairings":[["A","B"],["C","D"]],"coinWeights":[0.2,0.5,0.8],"subjectId":"A10BH9PYCYUKDJ","assignmentId":"32XVDSJFP0JFDFRW27VU6DP2NJPM25","hitId":"3YGE63DIN8J20XK20KS1742RQF60WK","url":"https://gershmanlab.com/experiments/alicia/teaching/experiment/?hitId=3YGE63DIN8J20XK20KS1742RQF60WK&workerId=A10BH9PYCYUKDJ&assignmentId=32XVDSJFP0JFDFRW27VU6DP2NJPM25&a=FDX28&tp_a=FDX28&b=32XVDSJFP0JFDFRW27VU6DP2NJPM25&tp_b=32XVDSJFP0JFDFRW27VU6DP2NJPM25&c=365198&tp_c=365198"},{"rt":30004,"response":{"heads":"3","tails":"1"},"type":"response","condition":"nonSeqFull","trueTheta":0.2,"classrooms":["C","D"],"studentTrueClassroom":"D","exampleSet":"first","trial_type":"survey-html-form","trial_index":19,"time_elapsed":585369,"internal_node_id":"0.0-18.0-0.0","params":{"nStudents":24,"maxFlips":30,"completionMinutes":45,"basePay":8,"maxBonus":9,"perTrialBonus":0.5,"perTrialBonusThreshold":0.1,"exampleCost":0.01},"classroomParams":{"A":{"a":1,"b":4},"B":{"a":4,"b":1},"C":{"a":2,"b":8},"D":{"a":8,"b":2}},"conditions":["nonSeqFull","nonSeqPartial","seqNoFeedback","seqFeedback"],"classroomPairings":[["A","B"],["C","D"]],"coinWeights":[0.2,0.5,0.8],"subjectId":"A10BH9PYCYUKDJ","assignmentId":"32XVDSJFP0JFDFRW27VU6DP2NJPM25","hitId":"3YGE63DIN8J20XK20KS1742RQF60WK","url":"https://gershmanlab.com/experiments/alicia/teaching/experiment/?hitId=3YGE63DIN8J20XK20KS1742RQF60WK&workerId=A10BH9PYCYUKDJ&assignmentId=32XVDSJFP0JFDFRW27VU6DP2NJPM25&a=FDX28&tp_a=FDX28&b=32XVDSJFP0JFDFRW27VU6DP2NJPM25&tp_b=32XVDSJFP0JFDFRW27VU6DP2NJPM25&c=365198&tp_c=365198","heads":3,"tails":1,"studentIndex":2,"studentTrueHypers":{"a":8,"b":2},"studentGuess":0.7857142857142857,"delta":0.5857142857142856,"totalExamples":4,"bonus":0,"bonusSoFar":0},{"rt":null,"stimulus":"Sending examples to student... ","response":null,"trial_type":"html-keyboard-response","trial_index":20,"time_elapsed":587372,"internal_node_id":"0.0-19.0","params":{"nStudents":24,"maxFlips":30,"completionMinutes":45,"basePay":8,"maxBonus":9,"perTrialBonus":0.5,"perTrialBonusThreshold":0.1,"exampleCost":0.01},"classroomParams":{"A":{"a":1,"b":4},"B":{"a":4,"b":1},"C":{"a":2,"b":8},"D":{"a":8,"b":2}},"conditions":["nonSeqFull","nonSeqPartial","seqNoFeedback","seqFeedback"],"classroomPairings":[["A","B"],["C","D"]],"coinWeights":[0.2,0.5,0.8],"subjectId":"A10BH9PYCYUKDJ","assignmentId":"32XVDSJFP0JFDFRW27VU6DP2NJPM25","hitId":"3YGE63DIN8J20XK20KS1742RQF60WK","url":"https://gershmanlab.com/experiments/alicia/teaching/experiment/?hitId=3YGE63DIN8J20XK20KS1742RQF60WK&workerId=A10BH9PYCYUKDJ&assignmentId=32XVDSJFP0JFDFRW27VU6DP2NJPM25&a=FDX28&tp_a=FDX28&b=32XVDSJFP0JFDFRW27VU6DP2NJPM25&tp_b=32XVDSJFP0JFDFRW27VU6DP2NJPM25&c=365198&tp_c=365198"},{"rt":null,"stimulus":"Examples sent to student! Waiting for student...","response":null,"trial_type":"html-keyboard-response","trial_index":21,"time_elapsed":591374,"internal_node_id":"0.0-20.0","params":{"nStudents":24,"maxFlips":30,"completionMinutes":45,"basePay":8,"maxBonus":9,"perTrialBonus":0.5,"perTrialBonusThreshold":0.1,"exampleCost":0.01},"classroomParams":{"A":{"a":1,"b":4},"B":{"a":4,"b":1},"C":{"a":2,"b":8},"D":{"a":8,"b":2}},"conditions":["nonSeqFull","nonSeqPartial","seqNoFeedback","seqFeedback"],"classroomPairings":[["A","B"],["C","D"]],"coinWeights":[0.2,0.5,0.8],"subjectId":"A10BH9PYCYUKDJ","assignmentId":"32XVDSJFP0JFDFRW27VU6DP2NJPM25","hitId":"3YGE63DIN8J20XK20KS1742RQF60WK","url":"https://gershmanlab.com/experiments/alicia/teaching/experiment/?hitId=3YGE63DIN8J20XK20KS1742RQF60WK&workerId=A10BH9PYCYUKDJ&assignmentId=32XVDSJFP0JFDFRW27VU6DP2NJPM25&a=FDX28&tp_a=FDX28&b=32XVDSJFP0JFDFRW27VU6DP2NJPM25&tp_b=32XVDSJFP0JFDFRW27VU6DP2NJPM25&c=365198&tp_c=365198"},{"rt":8891,"stimulus":"\n                <p>Student's guess for coin weight: <b style=\"color:Tomato;\">0.79</b></p>\n                <p>You received a bonus of <b>$0</b>. Total bonus so far: <b>$0.00</b></b></p>\n                <p> Press any key to continue.</p>\n                ","response":" ","trial_type":"html-keyboard-response","trial_index":22,"time_elapsed":600266,"internal_node_id":"0.0-21.0","params":{"nStudents":24,"maxFlips":30,"completionMinutes":45,"basePay":8,"maxBonus":9,"perTrialBonus":0.5,"perTrialBonusThreshold":0.1,"exampleCost":0.01},"classroomParams":{"A":{"a":1,"b":4},"B":{"a":4,"b":1},"C":{"a":2,"b":8},"D":{"a":8,"b":2}},"conditions":["nonSeqFull","nonSeqPartial","seqNoFeedback","seqFeedback"],"classroomPairings":[["A","B"],["C","D"]],"coinWeights":[0.2,0.5,0.8],"subjectId":"A10BH9PYCYUKDJ","assignmentId":"32XVDSJFP0JFDFRW27VU6DP2NJPM25","hitId":"3YGE63DIN8J20XK20KS1742RQF60WK","url":"https://gershmanlab.com/experiments/alicia/teaching/experiment/?hitId=3YGE63DIN8J20XK20KS1742RQF60WK&workerId=A10BH9PYCYUKDJ&assignmentId=32XVDSJFP0JFDFRW27VU6DP2NJPM25&a=FDX28&tp_a=FDX28&b=32XVDSJFP0JFDFRW27VU6DP2NJPM25&tp_b=32XVDSJFP0JFDFRW27VU6DP2NJPM25&c=365198&tp_c=365198"},{"rt":null,"stimulus":"<div style=\"font-size:60px;\">Next student</div>","response":null,"trial_type":"html-keyboard-response","trial_index":23,"time_elapsed":602768,"internal_node_id":"0.0-22.0-0.0","params":{"nStudents":24,"maxFlips":30,"completionMinutes":45,"basePay":8,"maxBonus":9,"perTrialBonus":0.5,"perTrialBonusThreshold":0.1,"exampleCost":0.01},"classroomParams":{"A":{"a":1,"b":4},"B":{"a":4,"b":1},"C":{"a":2,"b":8},"D":{"a":8,"b":2}},"conditions":["nonSeqFull","nonSeqPartial","seqNoFeedback","seqFeedback"],"classroomPairings":[["A","B"],["C","D"]],"coinWeights":[0.2,0.5,0.8],"subjectId":"A10BH9PYCYUKDJ","assignmentId":"32XVDSJFP0JFDFRW27VU6DP2NJPM25","hitId":"3YGE63DIN8J20XK20KS1742RQF60WK","url":"https://gershmanlab.com/experiments/alicia/teaching/experiment/?hitId=3YGE63DIN8J20XK20KS1742RQF60WK&workerId=A10BH9PYCYUKDJ&assignmentId=32XVDSJFP0JFDFRW27VU6DP2NJPM25&a=FDX28&tp_a=FDX28&b=32XVDSJFP0JFDFRW27VU6DP2NJPM25&tp_b=32XVDSJFP0JFDFRW27VU6DP2NJPM25&c=365198&tp_c=365198"},{"rt":11050,"stimulus":"\n            <h4 style=\"color:Orange;\">Student 4</h4>\n            <h2>The weight of your coin is <b style=\"color:Tomato;\">0.5</b>.</h2>\n            <p>In this block, you will be giving <b>one</b> set of examples to Student 4.</p>\n                <p>You will receive feedback at the end of the block.</p>\n            ","response":0,"trial_type":"html-button-response","trial_index":24,"time_elapsed":613823,"internal_node_id":"0.0-23.0","params":{"nStudents":24,"maxFlips":30,"completionMinutes":45,"basePay":8,"maxBonus":9,"perTrialBonus":0.5,"perTrialBonusThreshold":0.1,"exampleCost":0.01},"classroomParams":{"A":{"a":1,"b":4},"B":{"a":4,"b":1},"C":{"a":2,"b":8},"D":{"a":8,"b":2}},"conditions":["nonSeqFull","nonSeqPartial","seqNoFeedback","seqFeedback"],"classroomPairings":[["A","B"],["C","D"]],"coinWeights":[0.2,0.5,0.8],"subjectId":"A10BH9PYCYUKDJ","assignmentId":"32XVDSJFP0JFDFRW27VU6DP2NJPM25","hitId":"3YGE63DIN8J20XK20KS1742RQF60WK","url":"https://gershmanlab.com/experiments/alicia/teaching/experiment/?hitId=3YGE63DIN8J20XK20KS1742RQF60WK&workerId=A10BH9PYCYUKDJ&assignmentId=32XVDSJFP0JFDFRW27VU6DP2NJPM25&a=FDX28&tp_a=FDX28&b=32XVDSJFP0JFDFRW27VU6DP2NJPM25&tp_b=32XVDSJFP0JFDFRW27VU6DP2NJPM25&c=365198&tp_c=365198"},{"rt":41613,"response":{"heads":"15","tails":"15"},"type":"response","condition":"nonSeqFull","trueTheta":0.5,"classrooms":["A","B"],"studentTrueClassroom":"B","exampleSet":"first","trial_type":"survey-html-form","trial_index":25,"time_elapsed":655439,"internal_node_id":"0.0-24.0-0.0","params":{"nStudents":24,"maxFlips":30,"completionMinutes":45,"basePay":8,"maxBonus":9,"perTrialBonus":0.5,"perTrialBonusThreshold":0.1,"exampleCost":0.01},"classroomParams":{"A":{"a":1,"b":4},"B":{"a":4,"b":1},"C":{"a":2,"b":8},"D":{"a":8,"b":2}},"conditions":["nonSeqFull","nonSeqPartial","seqNoFeedback","seqFeedback"],"classroomPairings":[["A","B"],["C","D"]],"coinWeights":[0.2,0.5,0.8],"subjectId":"A10BH9PYCYUKDJ","assignmentId":"32XVDSJFP0JFDFRW27VU6DP2NJPM25","hitId":"3YGE63DIN8J20XK20KS1742RQF60WK","url":"https://gershmanlab.com/experiments/alicia/teaching/experiment/?hitId=3YGE63DIN8J20XK20KS1742RQF60WK&workerId=A10BH9PYCYUKDJ&assignmentId=32XVDSJFP0JFDFRW27VU6DP2NJPM25&a=FDX28&tp_a=FDX28&b=32XVDSJFP0JFDFRW27VU6DP2NJPM25&tp_b=32XVDSJFP0JFDFRW27VU6DP2NJPM25&c=365198&tp_c=365198","heads":15,"tails":15,"studentIndex":3,"studentTrueHypers":{"a":4,"b":1},"studentGuess":0.5428571428571428,"delta":0.042857142857142816,"totalExamples":30,"bonus":0.2,"bonusSoFar":0.2},{"rt":null,"stimulus":"Sending examples to student... ","response":null,"trial_type":"html-keyboard-response","trial_index":26,"time_elapsed":656695,"internal_node_id":"0.0-25.0","params":{"nStudents":24,"maxFlips":30,"completionMinutes":45,"basePay":8,"maxBonus":9,"perTrialBonus":0.5,"perTrialBonusThreshold":0.1,"exampleCost":0.01},"classroomParams":{"A":{"a":1,"b":4},"B":{"a":4,"b":1},"C":{"a":2,"b":8},"D":{"a":8,"b":2}},"conditions":["nonSeqFull","nonSeqPartial","seqNoFeedback","seqFeedback"],"classroomPairings":[["A","B"],["C","D"]],"coinWeights":[0.2,0.5,0.8],"subjectId":"A10BH9PYCYUKDJ","assignmentId":"32XVDSJFP0JFDFRW27VU6DP2NJPM25","hitId":"3YGE63DIN8J20XK20KS1742RQF60WK","url":"https://gershmanlab.com/experiments/alicia/teaching/experiment/?hitId=3YGE63DIN8J20XK20KS1742RQF60WK&workerId=A10BH9PYCYUKDJ&assignmentId=32XVDSJFP0JFDFRW27VU6DP2NJPM25&a=FDX28&tp_a=FDX28&b=32XVDSJFP0JFDFRW27VU6DP2NJPM25&tp_b=32XVDSJFP0JFDFRW27VU6DP2NJPM25&c=365198&tp_c=365198"},{"rt":null,"stimulus":"Examples sent to student! Waiting for student...","response":null,"trial_type":"html-keyboard-response","trial_index":27,"time_elapsed":662197,"internal_node_id":"0.0-26.0","params":{"nStudents":24,"maxFlips":30,"completionMinutes":45,"basePay":8,"maxBonus":9,"perTrialBonus":0.5,"perTrialBonusThreshold":0.1,"exampleCost":0.01},"classroomParams":{"A":{"a":1,"b":4},"B":{"a":4,"b":1},"C":{"a":2,"b":8},"D":{"a":8,"b":2}},"conditions":["nonSeqFull","nonSeqPartial","seqNoFeedback","seqFeedback"],"classroomPairings":[["A","B"],["C","D"]],"coinWeights":[0.2,0.5,0.8],"subjectId":"A10BH9PYCYUKDJ","assignmentId":"32XVDSJFP0JFDFRW27VU6DP2NJPM25","hitId":"3YGE63DIN8J20XK20KS1742RQF60WK","url":"https://gershmanlab.com/experiments/alicia/teaching/experiment/?hitId=3YGE63DIN8J20XK20KS1742RQF60WK&workerId=A10BH9PYCYUKDJ&assignmentId=32XVDSJFP0JFDFRW27VU6DP2NJPM25&a=FDX28&tp_a=FDX28&b=32XVDSJFP0JFDFRW27VU6DP2NJPM25&tp_b=32XVDSJFP0JFDFRW27VU6DP2NJPM25&c=365198&tp_c=365198"},{"rt":2960,"stimulus":"\n                <p>Student's guess for coin weight: <b style=\"color:Tomato;\">0.54</b></p>\n                <p>You received a bonus of <b>$0.2</b>. Total bonus so far: <b>$0.20</b></b></p>\n                <p> Press any key to continue.</p>\n                ","response":" ","trial_type":"html-keyboard-response","trial_index":28,"time_elapsed":665159,"internal_node_id":"0.0-27.0","params":{"nStudents":24,"maxFlips":30,"completionMinutes":45,"basePay":8,"maxBonus":9,"perTrialBonus":0.5,"perTrialBonusThreshold":0.1,"exampleCost":0.01},"classroomParams":{"A":{"a":1,"b":4},"B":{"a":4,"b":1},"C":{"a":2,"b":8},"D":{"a":8,"b":2}},"conditions":["nonSeqFull","nonSeqPartial","seqNoFeedback","seqFeedback"],"classroomPairings":[["A","B"],["C","D"]],"coinWeights":[0.2,0.5,0.8],"subjectId":"A10BH9PYCYUKDJ","assignmentId":"32XVDSJFP0JFDFRW27VU6DP2NJPM25","hitId":"3YGE63DIN8J20XK20KS1742RQF60WK","url":"https://gershmanlab.com/experiments/alicia/teaching/experiment/?hitId=3YGE63DIN8J20XK20KS1742RQF60WK&workerId=A10BH9PYCYUKDJ&assignmentId=32XVDSJFP0JFDFRW27VU6DP2NJPM25&a=FDX28&tp_a=FDX28&b=32XVDSJFP0JFDFRW27VU6DP2NJPM25&tp_b=32XVDSJFP0JFDFRW27VU6DP2NJPM25&c=365198&tp_c=365198"},{"rt":null,"stimulus":"<div style=\"font-size:60px;\">Next student</div>","response":null,"trial_type":"html-keyboard-response","trial_index":29,"time_elapsed":667161,"internal_node_id":"0.0-28.0-0.0","params":{"nStudents":24,"maxFlips":30,"completionMinutes":45,"basePay":8,"maxBonus":9,"perTrialBonus":0.5,"perTrialBonusThreshold":0.1,"exampleCost":0.01},"classroomParams":{"A":{"a":1,"b":4},"B":{"a":4,"b":1},"C":{"a":2,"b":8},"D":{"a":8,"b":2}},"conditions":["nonSeqFull","nonSeqPartial","seqNoFeedback","seqFeedback"],"classroomPairings":[["A","B"],["C","D"]],"coinWeights":[0.2,0.5,0.8],"subjectId":"A10BH9PYCYUKDJ","assignmentId":"32XVDSJFP0JFDFRW27VU6DP2NJPM25","hitId":"3YGE63DIN8J20XK20KS1742RQF60WK","url":"https://gershmanlab.com/experiments/alicia/teaching/experiment/?hitId=3YGE63DIN8J20XK20KS1742RQF60WK&workerId=A10BH9PYCYUKDJ&assignmentId=32XVDSJFP0JFDFRW27VU6DP2NJPM25&a=FDX28&tp_a=FDX28&b=32XVDSJFP0JFDFRW27VU6DP2NJPM25&tp_b=32XVDSJFP0JFDFRW27VU6DP2NJPM25&c=365198&tp_c=365198"},{"rt":7061,"stimulus":"\n            <h4 style=\"color:Orange;\">Student 5</h4>\n            <h2>The weight of your coin is <b style=\"color:Tomato;\">0.8</b>.</h2>\n            <p>In this block, you will be giving <b>two</b> sets of examples to Student 5.</p>\n                <p>You will receive feedback at the end of the block.</p>\n            ","response":0,"trial_type":"html-button-response","trial_index":30,"time_elapsed":674224,"internal_node_id":"0.0-29.0","params":{"nStudents":24,"maxFlips":30,"completionMinutes":45,"basePay":8,"maxBonus":9,"perTrialBonus":0.5,"perTrialBonusThreshold":0.1,"exampleCost":0.01},"classroomParams":{"A":{"a":1,"b":4},"B":{"a":4,"b":1},"C":{"a":2,"b":8},"D":{"a":8,"b":2}},"conditions":["nonSeqFull","nonSeqPartial","seqNoFeedback","seqFeedback"],"classroomPairings":[["A","B"],["C","D"]],"coinWeights":[0.2,0.5,0.8],"subjectId":"A10BH9PYCYUKDJ","assignmentId":"32XVDSJFP0JFDFRW27VU6DP2NJPM25","hitId":"3YGE63DIN8J20XK20KS1742RQF60WK","url":"https://gershmanlab.com/experiments/alicia/teaching/experiment/?hitId=3YGE63DIN8J20XK20KS1742RQF60WK&workerId=A10BH9PYCYUKDJ&assignmentId=32XVDSJFP0JFDFRW27VU6DP2NJPM25&a=FDX28&tp_a=FDX28&b=32XVDSJFP0JFDFRW27VU6DP2NJPM25&tp_b=32XVDSJFP0JFDFRW27VU6DP2NJPM25&c=365198&tp_c=365198"},{"rt":26471,"response":{"heads":"20","tails":"10"},"type":"response","condition":"seqNoFeedback","trueTheta":0.8,"classrooms":["C","D"],"studentTrueClassroom":"D","exampleSet":"first","trial_type":"survey-html-form","trial_index":31,"time_elapsed":700699,"internal_node_id":"0.0-30.0-0.0","params":{"nStudents":24,"maxFlips":30,"completionMinutes":45,"basePay":8,"maxBonus":9,"perTrialBonus":0.5,"perTrialBonusThreshold":0.1,"exampleCost":0.01},"classroomParams":{"A":{"a":1,"b":4},"B":{"a":4,"b":1},"C":{"a":2,"b":8},"D":{"a":8,"b":2}},"conditions":["nonSeqFull","nonSeqPartial","seqNoFeedback","seqFeedback"],"classroomPairings":[["A","B"],["C","D"]],"coinWeights":[0.2,0.5,0.8],"subjectId":"A10BH9PYCYUKDJ","assignmentId":"32XVDSJFP0JFDFRW27VU6DP2NJPM25","hitId":"3YGE63DIN8J20XK20KS1742RQF60WK","url":"https://gershmanlab.com/experiments/alicia/teaching/experiment/?hitId=3YGE63DIN8J20XK20KS1742RQF60WK&workerId=A10BH9PYCYUKDJ&assignmentId=32XVDSJFP0JFDFRW27VU6DP2NJPM25&a=FDX28&tp_a=FDX28&b=32XVDSJFP0JFDFRW27VU6DP2NJPM25&tp_b=32XVDSJFP0JFDFRW27VU6DP2NJPM25&c=365198&tp_c=365198","heads":20,"tails":10,"studentIndex":4,"studentTrueHypers":{"a":8,"b":2},"studentGuess":0.7,"delta":0.10000000000000009,"totalExamples":30,"bonusSoFar":0.2},{"rt":null,"stimulus":"Sending examples to student... ","response":null,"trial_type":"html-keyboard-response","trial_index":32,"time_elapsed":702702,"internal_node_id":"0.0-31.0","params":{"nStudents":24,"maxFlips":30,"completionMinutes":45,"basePay":8,"maxBonus":9,"perTrialBonus":0.5,"perTrialBonusThreshold":0.1,"exampleCost":0.01},"classroomParams":{"A":{"a":1,"b":4},"B":{"a":4,"b":1},"C":{"a":2,"b":8},"D":{"a":8,"b":2}},"conditions":["nonSeqFull","nonSeqPartial","seqNoFeedback","seqFeedback"],"classroomPairings":[["A","B"],["C","D"]],"coinWeights":[0.2,0.5,0.8],"subjectId":"A10BH9PYCYUKDJ","assignmentId":"32XVDSJFP0JFDFRW27VU6DP2NJPM25","hitId":"3YGE63DIN8J20XK20KS1742RQF60WK","url":"https://gershmanlab.com/experiments/alicia/teaching/experiment/?hitId=3YGE63DIN8J20XK20KS1742RQF60WK&workerId=A10BH9PYCYUKDJ&assignmentId=32XVDSJFP0JFDFRW27VU6DP2NJPM25&a=FDX28&tp_a=FDX28&b=32XVDSJFP0JFDFRW27VU6DP2NJPM25&tp_b=32XVDSJFP0JFDFRW27VU6DP2NJPM25&c=365198&tp_c=365198"},{"rt":null,"stimulus":"Examples sent to student! Waiting for student...","response":null,"trial_type":"html-keyboard-response","trial_index":33,"time_elapsed":707703,"internal_node_id":"0.0-32.0","params":{"nStudents":24,"maxFlips":30,"completionMinutes":45,"basePay":8,"maxBonus":9,"perTrialBonus":0.5,"perTrialBonusThreshold":0.1,"exampleCost":0.01},"classroomParams":{"A":{"a":1,"b":4},"B":{"a":4,"b":1},"C":{"a":2,"b":8},"D":{"a":8,"b":2}},"conditions":["nonSeqFull","nonSeqPartial","seqNoFeedback","seqFeedback"],"classroomPairings":[["A","B"],["C","D"]],"coinWeights":[0.2,0.5,0.8],"subjectId":"A10BH9PYCYUKDJ","assignmentId":"32XVDSJFP0JFDFRW27VU6DP2NJPM25","hitId":"3YGE63DIN8J20XK20KS1742RQF60WK","url":"https://gershmanlab.com/experiments/alicia/teaching/experiment/?hitId=3YGE63DIN8J20XK20KS1742RQF60WK&workerId=A10BH9PYCYUKDJ&assignmentId=32XVDSJFP0JFDFRW27VU6DP2NJPM25&a=FDX28&tp_a=FDX28&b=32XVDSJFP0JFDFRW27VU6DP2NJPM25&tp_b=32XVDSJFP0JFDFRW27VU6DP2NJPM25&c=365198&tp_c=365198"},{"rt":31058,"response":{"heads":"30","tails":"0"},"type":"response","condition":"seqNoFeedback","trueTheta":0.8,"classrooms":["C","D"],"studentTrueClassroom":"D","exampleSet":"second","trial_type":"survey-html-form","trial_index":34,"time_elapsed":738763,"internal_node_id":"0.0-33.0-0.0","params":{"nStudents":24,"maxFlips":30,"completionMinutes":45,"basePay":8,"maxBonus":9,"perTrialBonus":0.5,"perTrialBonusThreshold":0.1,"exampleCost":0.01},"classroomParams":{"A":{"a":1,"b":4},"B":{"a":4,"b":1},"C":{"a":2,"b":8},"D":{"a":8,"b":2}},"conditions":["nonSeqFull","nonSeqPartial","seqNoFeedback","seqFeedback"],"classroomPairings":[["A","B"],["C","D"]],"coinWeights":[0.2,0.5,0.8],"subjectId":"A10BH9PYCYUKDJ","assignmentId":"32XVDSJFP0JFDFRW27VU6DP2NJPM25","hitId":"3YGE63DIN8J20XK20KS1742RQF60WK","url":"https://gershmanlab.com/experiments/alicia/teaching/experiment/?hitId=3YGE63DIN8J20XK20KS1742RQF60WK&workerId=A10BH9PYCYUKDJ&assignmentId=32XVDSJFP0JFDFRW27VU6DP2NJPM25&a=FDX28&tp_a=FDX28&b=32XVDSJFP0JFDFRW27VU6DP2NJPM25&tp_b=32XVDSJFP0JFDFRW27VU6DP2NJPM25&c=365198&tp_c=365198","firstResponseHeads":20,"firstResponseTails":10,"secondResponseHeads":30,"secondResponseTails":0,"studentIndex":4,"studentTrueHypers":{"a":8,"b":2},"studentGuess":0.8285714285714286,"delta":0.02857142857142858,"bonus":0,"bonusSoFar":0.2,"totalExamples":60},{"rt":null,"stimulus":"Sending examples to student... ","response":null,"trial_type":"html-keyboard-response","trial_index":35,"time_elapsed":740016,"internal_node_id":"0.0-34.0","params":{"nStudents":24,"maxFlips":30,"completionMinutes":45,"basePay":8,"maxBonus":9,"perTrialBonus":0.5,"perTrialBonusThreshold":0.1,"exampleCost":0.01},"classroomParams":{"A":{"a":1,"b":4},"B":{"a":4,"b":1},"C":{"a":2,"b":8},"D":{"a":8,"b":2}},"conditions":["nonSeqFull","nonSeqPartial","seqNoFeedback","seqFeedback"],"classroomPairings":[["A","B"],["C","D"]],"coinWeights":[0.2,0.5,0.8],"subjectId":"A10BH9PYCYUKDJ","assignmentId":"32XVDSJFP0JFDFRW27VU6DP2NJPM25","hitId":"3YGE63DIN8J20XK20KS1742RQF60WK","url":"https://gershmanlab.com/experiments/alicia/teaching/experiment/?hitId=3YGE63DIN8J20XK20KS1742RQF60WK&workerId=A10BH9PYCYUKDJ&assignmentId=32XVDSJFP0JFDFRW27VU6DP2NJPM25&a=FDX28&tp_a=FDX28&b=32XVDSJFP0JFDFRW27VU6DP2NJPM25&tp_b=32XVDSJFP0JFDFRW27VU6DP2NJPM25&c=365198&tp_c=365198"},{"rt":null,"stimulus":"Examples sent to student! Waiting for student...","response":null,"trial_type":"html-keyboard-response","trial_index":36,"time_elapsed":745018,"internal_node_id":"0.0-35.0","params":{"nStudents":24,"maxFlips":30,"completionMinutes":45,"basePay":8,"maxBonus":9,"perTrialBonus":0.5,"perTrialBonusThreshold":0.1,"exampleCost":0.01},"classroomParams":{"A":{"a":1,"b":4},"B":{"a":4,"b":1},"C":{"a":2,"b":8},"D":{"a":8,"b":2}},"conditions":["nonSeqFull","nonSeqPartial","seqNoFeedback","seqFeedback"],"classroomPairings":[["A","B"],["C","D"]],"coinWeights":[0.2,0.5,0.8],"subjectId":"A10BH9PYCYUKDJ","assignmentId":"32XVDSJFP0JFDFRW27VU6DP2NJPM25","hitId":"3YGE63DIN8J20XK20KS1742RQF60WK","url":"https://gershmanlab.com/experiments/alicia/teaching/experiment/?hitId=3YGE63DIN8J20XK20KS1742RQF60WK&workerId=A10BH9PYCYUKDJ&assignmentId=32XVDSJFP0JFDFRW27VU6DP2NJPM25&a=FDX28&tp_a=FDX28&b=32XVDSJFP0JFDFRW27VU6DP2NJPM25&tp_b=32XVDSJFP0JFDFRW27VU6DP2NJPM25&c=365198&tp_c=365198"},{"rt":3935,"stimulus":"\n                <p>Student 5's first guess for coin weight: <b style=\"color:Tomato\";>0.70</b></p>\n                <p>Student 5's second guess for coin weight: <b style=\"color:Tomato\";>0.83</b></p>\n                <p>You received a bonus of <b>$0.00</b> based on the student's second guess.</p>\n                <p>Total bonus so far: <b>$0.20</b></p>\n                <p>Press any key to continue.</p>\n                ","response":" ","trial_type":"html-keyboard-response","trial_index":37,"time_elapsed":748957,"internal_node_id":"0.0-36.0","params":{"nStudents":24,"maxFlips":30,"completionMinutes":45,"basePay":8,"maxBonus":9,"perTrialBonus":0.5,"perTrialBonusThreshold":0.1,"exampleCost":0.01},"classroomParams":{"A":{"a":1,"b":4},"B":{"a":4,"b":1},"C":{"a":2,"b":8},"D":{"a":8,"b":2}},"conditions":["nonSeqFull","nonSeqPartial","seqNoFeedback","seqFeedback"],"classroomPairings":[["A","B"],["C","D"]],"coinWeights":[0.2,0.5,0.8],"subjectId":"A10BH9PYCYUKDJ","assignmentId":"32XVDSJFP0JFDFRW27VU6DP2NJPM25","hitId":"3YGE63DIN8J20XK20KS1742RQF60WK","url":"https://gershmanlab.com/experiments/alicia/teaching/experiment/?hitId=3YGE63DIN8J20XK20KS1742RQF60WK&workerId=A10BH9PYCYUKDJ&assignmentId=32XVDSJFP0JFDFRW27VU6DP2NJPM25&a=FDX28&tp_a=FDX28&b=32XVDSJFP0JFDFRW27VU6DP2NJPM25&tp_b=32XVDSJFP0JFDFRW27VU6DP2NJPM25&c=365198&tp_c=365198"},{"rt":null,"stimulus":"<div style=\"font-size:60px;\">Next student</div>","response":null,"trial_type":"html-keyboard-response","trial_index":38,"time_elapsed":751458,"internal_node_id":"0.0-37.0-0.0","params":{"nStudents":24,"maxFlips":30,"completionMinutes":45,"basePay":8,"maxBonus":9,"perTrialBonus":0.5,"perTrialBonusThreshold":0.1,"exampleCost":0.01},"classroomParams":{"A":{"a":1,"b":4},"B":{"a":4,"b":1},"C":{"a":2,"b":8},"D":{"a":8,"b":2}},"conditions":["nonSeqFull","nonSeqPartial","seqNoFeedback","seqFeedback"],"classroomPairings":[["A","B"],["C","D"]],"coinWeights":[0.2,0.5,0.8],"subjectId":"A10BH9PYCYUKDJ","assignmentId":"32XVDSJFP0JFDFRW27VU6DP2NJPM25","hitId":"3YGE63DIN8J20XK20KS1742RQF60WK","url":"https://gershmanlab.com/experiments/alicia/teaching/experiment/?hitId=3YGE63DIN8J20XK20KS1742RQF60WK&workerId=A10BH9PYCYUKDJ&assignmentId=32XVDSJFP0JFDFRW27VU6DP2NJPM25&a=FDX28&tp_a=FDX28&b=32XVDSJFP0JFDFRW27VU6DP2NJPM25&tp_b=32XVDSJFP0JFDFRW27VU6DP2NJPM25&c=365198&tp_c=365198"},{"rt":3898,"stimulus":"\n            <h4 style=\"color:Orange;\">Student 6</h4>\n            <h2>The weight of your coin is <b style=\"color:Tomato;\">0.8</b>.</h2>\n            <p>In this block, you will be giving <b>two</b> sets of examples to Student 6.</p>\n                <p>You will see the student's guess after the first set of examples. You will also receive feedback at the end of the block.</p>\n            ","response":0,"trial_type":"html-button-response","trial_index":39,"time_elapsed":755360,"internal_node_id":"0.0-38.0","params":{"nStudents":24,"maxFlips":30,"completionMinutes":45,"basePay":8,"maxBonus":9,"perTrialBonus":0.5,"perTrialBonusThreshold":0.1,"exampleCost":0.01},"classroomParams":{"A":{"a":1,"b":4},"B":{"a":4,"b":1},"C":{"a":2,"b":8},"D":{"a":8,"b":2}},"conditions":["nonSeqFull","nonSeqPartial","seqNoFeedback","seqFeedback"],"classroomPairings":[["A","B"],["C","D"]],"coinWeights":[0.2,0.5,0.8],"subjectId":"A10BH9PYCYUKDJ","assignmentId":"32XVDSJFP0JFDFRW27VU6DP2NJPM25","hitId":"3YGE63DIN8J20XK20KS1742RQF60WK","url":"https://gershmanlab.com/experiments/alicia/teaching/experiment/?hitId=3YGE63DIN8J20XK20KS1742RQF60WK&workerId=A10BH9PYCYUKDJ&assignmentId=32XVDSJFP0JFDFRW27VU6DP2NJPM25&a=FDX28&tp_a=FDX28&b=32XVDSJFP0JFDFRW27VU6DP2NJPM25&tp_b=32XVDSJFP0JFDFRW27VU6DP2NJPM25&c=365198&tp_c=365198"},{"rt":11833,"response":{"heads":"20","tails":"10"},"type":"response","condition":"seqFeedback","trueTheta":0.8,"classrooms":["C","D"],"studentTrueClassroom":"C","exampleSet":"first","trial_type":"survey-html-form","trial_index":40,"time_elapsed":767200,"internal_node_id":"0.0-39.0-0.0","params":{"nStudents":24,"maxFlips":30,"completionMinutes":45,"basePay":8,"maxBonus":9,"perTrialBonus":0.5,"perTrialBonusThreshold":0.1,"exampleCost":0.01},"classroomParams":{"A":{"a":1,"b":4},"B":{"a":4,"b":1},"C":{"a":2,"b":8},"D":{"a":8,"b":2}},"conditions":["nonSeqFull","nonSeqPartial","seqNoFeedback","seqFeedback"],"classroomPairings":[["A","B"],["C","D"]],"coinWeights":[0.2,0.5,0.8],"subjectId":"A10BH9PYCYUKDJ","assignmentId":"32XVDSJFP0JFDFRW27VU6DP2NJPM25","hitId":"3YGE63DIN8J20XK20KS1742RQF60WK","url":"https://gershmanlab.com/experiments/alicia/teaching/experiment/?hitId=3YGE63DIN8J20XK20KS1742RQF60WK&workerId=A10BH9PYCYUKDJ&assignmentId=32XVDSJFP0JFDFRW27VU6DP2NJPM25&a=FDX28&tp_a=FDX28&b=32XVDSJFP0JFDFRW27VU6DP2NJPM25&tp_b=32XVDSJFP0JFDFRW27VU6DP2NJPM25&c=365198&tp_c=365198","heads":20,"tails":10,"studentIndex":5,"studentTrueHypers":{"a":2,"b":8},"studentGuess":0.55,"delta":0.25,"totalExamples":30,"bonusSoFar":0.2},{"rt":null,"stimulus":"Sending examples to student... ","response":null,"trial_type":"html-keyboard-response","trial_index":41,"time_elapsed":768953,"internal_node_id":"0.0-40.0","params":{"nStudents":24,"maxFlips":30,"completionMinutes":45,"basePay":8,"maxBonus":9,"perTrialBonus":0.5,"perTrialBonusThreshold":0.1,"exampleCost":0.01},"classroomParams":{"A":{"a":1,"b":4},"B":{"a":4,"b":1},"C":{"a":2,"b":8},"D":{"a":8,"b":2}},"conditions":["nonSeqFull","nonSeqPartial","seqNoFeedback","seqFeedback"],"classroomPairings":[["A","B"],["C","D"]],"coinWeights":[0.2,0.5,0.8],"subjectId":"A10BH9PYCYUKDJ","assignmentId":"32XVDSJFP0JFDFRW27VU6DP2NJPM25","hitId":"3YGE63DIN8J20XK20KS1742RQF60WK","url":"https://gershmanlab.com/experiments/alicia/teaching/experiment/?hitId=3YGE63DIN8J20XK20KS1742RQF60WK&workerId=A10BH9PYCYUKDJ&assignmentId=32XVDSJFP0JFDFRW27VU6DP2NJPM25&a=FDX28&tp_a=FDX28&b=32XVDSJFP0JFDFRW27VU6DP2NJPM25&tp_b=32XVDSJFP0JFDFRW27VU6DP2NJPM25&c=365198&tp_c=365198"},{"rt":null,"stimulus":"Examples sent to student! Waiting for student...","response":null,"trial_type":"html-keyboard-response","trial_index":42,"time_elapsed":774455,"internal_node_id":"0.0-41.0","params":{"nStudents":24,"maxFlips":30,"completionMinutes":45,"basePay":8,"maxBonus":9,"perTrialBonus":0.5,"perTrialBonusThreshold":0.1,"exampleCost":0.01},"classroomParams":{"A":{"a":1,"b":4},"B":{"a":4,"b":1},"C":{"a":2,"b":8},"D":{"a":8,"b":2}},"conditions":["nonSeqFull","nonSeqPartial","seqNoFeedback","seqFeedback"],"classroomPairings":[["A","B"],["C","D"]],"coinWeights":[0.2,0.5,0.8],"subjectId":"A10BH9PYCYUKDJ","assignmentId":"32XVDSJFP0JFDFRW27VU6DP2NJPM25","hitId":"3YGE63DIN8J20XK20KS1742RQF60WK","url":"https://gershmanlab.com/experiments/alicia/teaching/experiment/?hitId=3YGE63DIN8J20XK20KS1742RQF60WK&workerId=A10BH9PYCYUKDJ&assignmentId=32XVDSJFP0JFDFRW27VU6DP2NJPM25&a=FDX28&tp_a=FDX28&b=32XVDSJFP0JFDFRW27VU6DP2NJPM25&tp_b=32XVDSJFP0JFDFRW27VU6DP2NJPM25&c=365198&tp_c=365198"},{"rt":4092,"stimulus":"\n                <p>Student's guess for coin weight: <b style=\"color:Tomato;\">0.55</b></p>\n                <p></b></p>\n                <p>You will now send another set of examples to your student. Press any key to continue.</p>\n                ","response":" ","trial_type":"html-keyboard-response","trial_index":43,"time_elapsed":778548,"internal_node_id":"0.0-42.0","params":{"nStudents":24,"maxFlips":30,"completionMinutes":45,"basePay":8,"maxBonus":9,"perTrialBonus":0.5,"perTrialBonusThreshold":0.1,"exampleCost":0.01},"classroomParams":{"A":{"a":1,"b":4},"B":{"a":4,"b":1},"C":{"a":2,"b":8},"D":{"a":8,"b":2}},"conditions":["nonSeqFull","nonSeqPartial","seqNoFeedback","seqFeedback"],"classroomPairings":[["A","B"],["C","D"]],"coinWeights":[0.2,0.5,0.8],"subjectId":"A10BH9PYCYUKDJ","assignmentId":"32XVDSJFP0JFDFRW27VU6DP2NJPM25","hitId":"3YGE63DIN8J20XK20KS1742RQF60WK","url":"https://gershmanlab.com/experiments/alicia/teaching/experiment/?hitId=3YGE63DIN8J20XK20KS1742RQF60WK&workerId=A10BH9PYCYUKDJ&assignmentId=32XVDSJFP0JFDFRW27VU6DP2NJPM25&a=FDX28&tp_a=FDX28&b=32XVDSJFP0JFDFRW27VU6DP2NJPM25&tp_b=32XVDSJFP0JFDFRW27VU6DP2NJPM25&c=365198&tp_c=365198"},{"rt":28553,"response":{"heads":"25","tails":"5"},"type":"response","condition":"seqFeedback","trueTheta":0.8,"classrooms":["C","D"],"studentTrueClassroom":"C","exampleSet":"second","trial_type":"survey-html-form","trial_index":44,"time_elapsed":807105,"internal_node_id":"0.0-43.0-0.0","params":{"nStudents":24,"maxFlips":30,"completionMinutes":45,"basePay":8,"maxBonus":9,"perTrialBonus":0.5,"perTrialBonusThreshold":0.1,"exampleCost":0.01},"classroomParams":{"A":{"a":1,"b":4},"B":{"a":4,"b":1},"C":{"a":2,"b":8},"D":{"a":8,"b":2}},"conditions":["nonSeqFull","nonSeqPartial","seqNoFeedback","seqFeedback"],"classroomPairings":[["A","B"],["C","D"]],"coinWeights":[0.2,0.5,0.8],"subjectId":"A10BH9PYCYUKDJ","assignmentId":"32XVDSJFP0JFDFRW27VU6DP2NJPM25","hitId":"3YGE63DIN8J20XK20KS1742RQF60WK","url":"https://gershmanlab.com/experiments/alicia/teaching/experiment/?hitId=3YGE63DIN8J20XK20KS1742RQF60WK&workerId=A10BH9PYCYUKDJ&assignmentId=32XVDSJFP0JFDFRW27VU6DP2NJPM25&a=FDX28&tp_a=FDX28&b=32XVDSJFP0JFDFRW27VU6DP2NJPM25&tp_b=32XVDSJFP0JFDFRW27VU6DP2NJPM25&c=365198&tp_c=365198","firstResponseHeads":20,"firstResponseTails":10,"secondResponseHeads":25,"secondResponseTails":5,"studentIndex":5,"studentTrueHypers":{"a":2,"b":8},"studentGuess":0.6714285714285714,"delta":0.12857142857142867,"bonus":0,"bonusSoFar":0.2,"totalExamples":60},{"rt":null,"stimulus":"Sending examples to student... ","response":null,"trial_type":"html-keyboard-response","trial_index":45,"time_elapsed":808610,"internal_node_id":"0.0-44.0","params":{"nStudents":24,"maxFlips":30,"completionMinutes":45,"basePay":8,"maxBonus":9,"perTrialBonus":0.5,"perTrialBonusThreshold":0.1,"exampleCost":0.01},"classroomParams":{"A":{"a":1,"b":4},"B":{"a":4,"b":1},"C":{"a":2,"b":8},"D":{"a":8,"b":2}},"conditions":["nonSeqFull","nonSeqPartial","seqNoFeedback","seqFeedback"],"classroomPairings":[["A","B"],["C","D"]],"coinWeights":[0.2,0.5,0.8],"subjectId":"A10BH9PYCYUKDJ","assignmentId":"32XVDSJFP0JFDFRW27VU6DP2NJPM25","hitId":"3YGE63DIN8J20XK20KS1742RQF60WK","url":"https://gershmanlab.com/experiments/alicia/teaching/experiment/?hitId=3YGE63DIN8J20XK20KS1742RQF60WK&workerId=A10BH9PYCYUKDJ&assignmentId=32XVDSJFP0JFDFRW27VU6DP2NJPM25&a=FDX28&tp_a=FDX28&b=32XVDSJFP0JFDFRW27VU6DP2NJPM25&tp_b=32XVDSJFP0JFDFRW27VU6DP2NJPM25&c=365198&tp_c=365198"},{"rt":null,"stimulus":"Examples sent to student! Waiting for student...","response":null,"trial_type":"html-keyboard-response","trial_index":46,"time_elapsed":814112,"internal_node_id":"0.0-45.0","params":{"nStudents":24,"maxFlips":30,"completionMinutes":45,"basePay":8,"maxBonus":9,"perTrialBonus":0.5,"perTrialBonusThreshold":0.1,"exampleCost":0.01},"classroomParams":{"A":{"a":1,"b":4},"B":{"a":4,"b":1},"C":{"a":2,"b":8},"D":{"a":8,"b":2}},"conditions":["nonSeqFull","nonSeqPartial","seqNoFeedback","seqFeedback"],"classroomPairings":[["A","B"],["C","D"]],"coinWeights":[0.2,0.5,0.8],"subjectId":"A10BH9PYCYUKDJ","assignmentId":"32XVDSJFP0JFDFRW27VU6DP2NJPM25","hitId":"3YGE63DIN8J20XK20KS1742RQF60WK","url":"https://gershmanlab.com/experiments/alicia/teaching/experiment/?hitId=3YGE63DIN8J20XK20KS1742RQF60WK&workerId=A10BH9PYCYUKDJ&assignmentId=32XVDSJFP0JFDFRW27VU6DP2NJPM25&a=FDX28&tp_a=FDX28&b=32XVDSJFP0JFDFRW27VU6DP2NJPM25&tp_b=32XVDSJFP0JFDFRW27VU6DP2NJPM25&c=365198&tp_c=365198"},{"rt":1739,"stimulus":"\n                <p>Student 6's first guess for coin weight: <b style=\"color:Tomato\";>0.55</b></p>\n                <p>Student 6's second guess for coin weight: <b style=\"color:Tomato\";>0.67</b></p>\n                <p>You received a bonus of <b>$0.00</b> based on the student's second guess.</p>\n                <p>Total bonus so far: <b>$0.20</b></p>\n                <p>Press any key to continue.</p>\n                ","response":" ","trial_type":"html-keyboard-response","trial_index":47,"time_elapsed":815853,"internal_node_id":"0.0-46.0","params":{"nStudents":24,"maxFlips":30,"completionMinutes":45,"basePay":8,"maxBonus":9,"perTrialBonus":0.5,"perTrialBonusThreshold":0.1,"exampleCost":0.01},"classroomParams":{"A":{"a":1,"b":4},"B":{"a":4,"b":1},"C":{"a":2,"b":8},"D":{"a":8,"b":2}},"conditions":["nonSeqFull","nonSeqPartial","seqNoFeedback","seqFeedback"],"classroomPairings":[["A","B"],["C","D"]],"coinWeights":[0.2,0.5,0.8],"subjectId":"A10BH9PYCYUKDJ","assignmentId":"32XVDSJFP0JFDFRW27VU6DP2NJPM25","hitId":"3YGE63DIN8J20XK20KS1742RQF60WK","url":"https://gershmanlab.com/experiments/alicia/teaching/experiment/?hitId=3YGE63DIN8J20XK20KS1742RQF60WK&workerId=A10BH9PYCYUKDJ&assignmentId=32XVDSJFP0JFDFRW27VU6DP2NJPM25&a=FDX28&tp_a=FDX28&b=32XVDSJFP0JFDFRW27VU6DP2NJPM25&tp_b=32XVDSJFP0JFDFRW27VU6DP2NJPM25&c=365198&tp_c=365198"},{"rt":null,"stimulus":"<div style=\"font-size:60px;\">Next student</div>","response":null,"trial_type":"html-keyboard-response","trial_index":48,"time_elapsed":818856,"internal_node_id":"0.0-47.0-0.0","params":{"nStudents":24,"maxFlips":30,"completionMinutes":45,"basePay":8,"maxBonus":9,"perTrialBonus":0.5,"perTrialBonusThreshold":0.1,"exampleCost":0.01},"classroomParams":{"A":{"a":1,"b":4},"B":{"a":4,"b":1},"C":{"a":2,"b":8},"D":{"a":8,"b":2}},"conditions":["nonSeqFull","nonSeqPartial","seqNoFeedback","seqFeedback"],"classroomPairings":[["A","B"],["C","D"]],"coinWeights":[0.2,0.5,0.8],"subjectId":"A10BH9PYCYUKDJ","assignmentId":"32XVDSJFP0JFDFRW27VU6DP2NJPM25","hitId":"3YGE63DIN8J20XK20KS1742RQF60WK","url":"https://gershmanlab.com/experiments/alicia/teaching/experiment/?hitId=3YGE63DIN8J20XK20KS1742RQF60WK&workerId=A10BH9PYCYUKDJ&assignmentId=32XVDSJFP0JFDFRW27VU6DP2NJPM25&a=FDX28&tp_a=FDX28&b=32XVDSJFP0JFDFRW27VU6DP2NJPM25&tp_b=32XVDSJFP0JFDFRW27VU6DP2NJPM25&c=365198&tp_c=365198"},{"rt":8430,"stimulus":"\n            <h4 style=\"color:Orange;\">Student 7</h4>\n            <h2>The weight of your coin is <b style=\"color:Tomato;\">0.2</b>.</h2>\n            <p>In this block, you will be giving <b>two</b> sets of examples to Student 7.</p>\n                <p>You will see the student's guess after the first set of examples. You will also receive feedback at the end of the block.</p>\n            ","response":0,"trial_type":"html-button-response","trial_index":49,"time_elapsed":827289,"internal_node_id":"0.0-48.0","params":{"nStudents":24,"maxFlips":30,"completionMinutes":45,"basePay":8,"maxBonus":9,"perTrialBonus":0.5,"perTrialBonusThreshold":0.1,"exampleCost":0.01},"classroomParams":{"A":{"a":1,"b":4},"B":{"a":4,"b":1},"C":{"a":2,"b":8},"D":{"a":8,"b":2}},"conditions":["nonSeqFull","nonSeqPartial","seqNoFeedback","seqFeedback"],"classroomPairings":[["A","B"],["C","D"]],"coinWeights":[0.2,0.5,0.8],"subjectId":"A10BH9PYCYUKDJ","assignmentId":"32XVDSJFP0JFDFRW27VU6DP2NJPM25","hitId":"3YGE63DIN8J20XK20KS1742RQF60WK","url":"https://gershmanlab.com/experiments/alicia/teaching/experiment/?hitId=3YGE63DIN8J20XK20KS1742RQF60WK&workerId=A10BH9PYCYUKDJ&assignmentId=32XVDSJFP0JFDFRW27VU6DP2NJPM25&a=FDX28&tp_a=FDX28&b=32XVDSJFP0JFDFRW27VU6DP2NJPM25&tp_b=32XVDSJFP0JFDFRW27VU6DP2NJPM25&c=365198&tp_c=365198"},{"rt":13437,"response":{"heads":"5","tails":"25"},"type":"response","condition":"seqFeedback","trueTheta":0.2,"classrooms":["A","B"],"studentTrueClassroom":"A","exampleSet":"first","trial_type":"survey-html-form","trial_index":50,"time_elapsed":840729,"internal_node_id":"0.0-49.0-0.0","params":{"nStudents":24,"maxFlips":30,"completionMinutes":45,"basePay":8,"maxBonus":9,"perTrialBonus":0.5,"perTrialBonusThreshold":0.1,"exampleCost":0.01},"classroomParams":{"A":{"a":1,"b":4},"B":{"a":4,"b":1},"C":{"a":2,"b":8},"D":{"a":8,"b":2}},"conditions":["nonSeqFull","nonSeqPartial","seqNoFeedback","seqFeedback"],"classroomPairings":[["A","B"],["C","D"]],"coinWeights":[0.2,0.5,0.8],"subjectId":"A10BH9PYCYUKDJ","assignmentId":"32XVDSJFP0JFDFRW27VU6DP2NJPM25","hitId":"3YGE63DIN8J20XK20KS1742RQF60WK","url":"https://gershmanlab.com/experiments/alicia/teaching/experiment/?hitId=3YGE63DIN8J20XK20KS1742RQF60WK&workerId=A10BH9PYCYUKDJ&assignmentId=32XVDSJFP0JFDFRW27VU6DP2NJPM25&a=FDX28&tp_a=FDX28&b=32XVDSJFP0JFDFRW27VU6DP2NJPM25&tp_b=32XVDSJFP0JFDFRW27VU6DP2NJPM25&c=365198&tp_c=365198","heads":5,"tails":25,"studentIndex":6,"studentTrueHypers":{"a":1,"b":4},"studentGuess":0.17142857142857143,"delta":0.02857142857142858,"totalExamples":30,"bonusSoFar":0.2},{"rt":null,"stimulus":"Sending examples to student... ","response":null,"trial_type":"html-keyboard-response","trial_index":51,"time_elapsed":842231,"internal_node_id":"0.0-50.0","params":{"nStudents":24,"maxFlips":30,"completionMinutes":45,"basePay":8,"maxBonus":9,"perTrialBonus":0.5,"perTrialBonusThreshold":0.1,"exampleCost":0.01},"classroomParams":{"A":{"a":1,"b":4},"B":{"a":4,"b":1},"C":{"a":2,"b":8},"D":{"a":8,"b":2}},"conditions":["nonSeqFull","nonSeqPartial","seqNoFeedback","seqFeedback"],"classroomPairings":[["A","B"],["C","D"]],"coinWeights":[0.2,0.5,0.8],"subjectId":"A10BH9PYCYUKDJ","assignmentId":"32XVDSJFP0JFDFRW27VU6DP2NJPM25","hitId":"3YGE63DIN8J20XK20KS1742RQF60WK","url":"https://gershmanlab.com/experiments/alicia/teaching/experiment/?hitId=3YGE63DIN8J20XK20KS1742RQF60WK&workerId=A10BH9PYCYUKDJ&assignmentId=32XVDSJFP0JFDFRW27VU6DP2NJPM25&a=FDX28&tp_a=FDX28&b=32XVDSJFP0JFDFRW27VU6DP2NJPM25&tp_b=32XVDSJFP0JFDFRW27VU6DP2NJPM25&c=365198&tp_c=365198"},{"rt":null,"stimulus":"Examples sent to student! Waiting for student...","response":null,"trial_type":"html-keyboard-response","trial_index":52,"time_elapsed":846233,"internal_node_id":"0.0-51.0","params":{"nStudents":24,"maxFlips":30,"completionMinutes":45,"basePay":8,"maxBonus":9,"perTrialBonus":0.5,"perTrialBonusThreshold":0.1,"exampleCost":0.01},"classroomParams":{"A":{"a":1,"b":4},"B":{"a":4,"b":1},"C":{"a":2,"b":8},"D":{"a":8,"b":2}},"conditions":["nonSeqFull","nonSeqPartial","seqNoFeedback","seqFeedback"],"classroomPairings":[["A","B"],["C","D"]],"coinWeights":[0.2,0.5,0.8],"subjectId":"A10BH9PYCYUKDJ","assignmentId":"32XVDSJFP0JFDFRW27VU6DP2NJPM25","hitId":"3YGE63DIN8J20XK20KS1742RQF60WK","url":"https://gershmanlab.com/experiments/alicia/teaching/experiment/?hitId=3YGE63DIN8J20XK20KS1742RQF60WK&workerId=A10BH9PYCYUKDJ&assignmentId=32XVDSJFP0JFDFRW27VU6DP2NJPM25&a=FDX28&tp_a=FDX28&b=32XVDSJFP0JFDFRW27VU6DP2NJPM25&tp_b=32XVDSJFP0JFDFRW27VU6DP2NJPM25&c=365198&tp_c=365198"},{"rt":3108,"stimulus":"\n                <p>Student's guess for coin weight: <b style=\"color:Tomato;\">0.17</b></p>\n                <p></b></p>\n                <p>You will now send another set of examples to your student. Press any key to continue.</p>\n                ","response":" ","trial_type":"html-keyboard-response","trial_index":53,"time_elapsed":849343,"internal_node_id":"0.0-52.0","params":{"nStudents":24,"maxFlips":30,"completionMinutes":45,"basePay":8,"maxBonus":9,"perTrialBonus":0.5,"perTrialBonusThreshold":0.1,"exampleCost":0.01},"classroomParams":{"A":{"a":1,"b":4},"B":{"a":4,"b":1},"C":{"a":2,"b":8},"D":{"a":8,"b":2}},"conditions":["nonSeqFull","nonSeqPartial","seqNoFeedback","seqFeedback"],"classroomPairings":[["A","B"],["C","D"]],"coinWeights":[0.2,0.5,0.8],"subjectId":"A10BH9PYCYUKDJ","assignmentId":"32XVDSJFP0JFDFRW27VU6DP2NJPM25","hitId":"3YGE63DIN8J20XK20KS1742RQF60WK","url":"https://gershmanlab.com/experiments/alicia/teaching/experiment/?hitId=3YGE63DIN8J20XK20KS1742RQF60WK&workerId=A10BH9PYCYUKDJ&assignmentId=32XVDSJFP0JFDFRW27VU6DP2NJPM25&a=FDX28&tp_a=FDX28&b=32XVDSJFP0JFDFRW27VU6DP2NJPM25&tp_b=32XVDSJFP0JFDFRW27VU6DP2NJPM25&c=365198&tp_c=365198"},{"rt":18541,"response":{"heads":"1","tails":"29"},"type":"response","condition":"seqFeedback","trueTheta":0.2,"classrooms":["A","B"],"studentTrueClassroom":"A","exampleSet":"second","trial_type":"survey-html-form","trial_index":54,"time_elapsed":867888,"internal_node_id":"0.0-53.0-0.0","params":{"nStudents":24,"maxFlips":30,"completionMinutes":45,"basePay":8,"maxBonus":9,"perTrialBonus":0.5,"perTrialBonusThreshold":0.1,"exampleCost":0.01},"classroomParams":{"A":{"a":1,"b":4},"B":{"a":4,"b":1},"C":{"a":2,"b":8},"D":{"a":8,"b":2}},"conditions":["nonSeqFull","nonSeqPartial","seqNoFeedback","seqFeedback"],"classroomPairings":[["A","B"],["C","D"]],"coinWeights":[0.2,0.5,0.8],"subjectId":"A10BH9PYCYUKDJ","assignmentId":"32XVDSJFP0JFDFRW27VU6DP2NJPM25","hitId":"3YGE63DIN8J20XK20KS1742RQF60WK","url":"https://gershmanlab.com/experiments/alicia/teaching/experiment/?hitId=3YGE63DIN8J20XK20KS1742RQF60WK&workerId=A10BH9PYCYUKDJ&assignmentId=32XVDSJFP0JFDFRW27VU6DP2NJPM25&a=FDX28&tp_a=FDX28&b=32XVDSJFP0JFDFRW27VU6DP2NJPM25&tp_b=32XVDSJFP0JFDFRW27VU6DP2NJPM25&c=365198&tp_c=365198","firstResponseHeads":5,"firstResponseTails":25,"secondResponseHeads":1,"secondResponseTails":29,"studentIndex":6,"studentTrueHypers":{"a":1,"b":4},"studentGuess":0.1076923076923077,"delta":0.09230769230769231,"bonus":0,"bonusSoFar":0.2,"totalExamples":60},{"rt":null,"stimulus":"Sending examples to student... ","response":null,"trial_type":"html-keyboard-response","trial_index":55,"time_elapsed":869891,"internal_node_id":"0.0-54.0","params":{"nStudents":24,"maxFlips":30,"completionMinutes":45,"basePay":8,"maxBonus":9,"perTrialBonus":0.5,"perTrialBonusThreshold":0.1,"exampleCost":0.01},"classroomParams":{"A":{"a":1,"b":4},"B":{"a":4,"b":1},"C":{"a":2,"b":8},"D":{"a":8,"b":2}},"conditions":["nonSeqFull","nonSeqPartial","seqNoFeedback","seqFeedback"],"classroomPairings":[["A","B"],["C","D"]],"coinWeights":[0.2,0.5,0.8],"subjectId":"A10BH9PYCYUKDJ","assignmentId":"32XVDSJFP0JFDFRW27VU6DP2NJPM25","hitId":"3YGE63DIN8J20XK20KS1742RQF60WK","url":"https://gershmanlab.com/experiments/alicia/teaching/experiment/?hitId=3YGE63DIN8J20XK20KS1742RQF60WK&workerId=A10BH9PYCYUKDJ&assignmentId=32XVDSJFP0JFDFRW27VU6DP2NJPM25&a=FDX28&tp_a=FDX28&b=32XVDSJFP0JFDFRW27VU6DP2NJPM25&tp_b=32XVDSJFP0JFDFRW27VU6DP2NJPM25&c=365198&tp_c=365198"},{"rt":null,"stimulus":"Examples sent to student! Waiting for student...","response":null,"trial_type":"html-keyboard-response","trial_index":56,"time_elapsed":873893,"internal_node_id":"0.0-55.0","params":{"nStudents":24,"maxFlips":30,"completionMinutes":45,"basePay":8,"maxBonus":9,"perTrialBonus":0.5,"perTrialBonusThreshold":0.1,"exampleCost":0.01},"classroomParams":{"A":{"a":1,"b":4},"B":{"a":4,"b":1},"C":{"a":2,"b":8},"D":{"a":8,"b":2}},"conditions":["nonSeqFull","nonSeqPartial","seqNoFeedback","seqFeedback"],"classroomPairings":[["A","B"],["C","D"]],"coinWeights":[0.2,0.5,0.8],"subjectId":"A10BH9PYCYUKDJ","assignmentId":"32XVDSJFP0JFDFRW27VU6DP2NJPM25","hitId":"3YGE63DIN8J20XK20KS1742RQF60WK","url":"https://gershmanlab.com/experiments/alicia/teaching/experiment/?hitId=3YGE63DIN8J20XK20KS1742RQF60WK&workerId=A10BH9PYCYUKDJ&assignmentId=32XVDSJFP0JFDFRW27VU6DP2NJPM25&a=FDX28&tp_a=FDX28&b=32XVDSJFP0JFDFRW27VU6DP2NJPM25&tp_b=32XVDSJFP0JFDFRW27VU6DP2NJPM25&c=365198&tp_c=365198"},{"rt":5808,"stimulus":"\n                <p>Student 7's first guess for coin weight: <b style=\"color:Tomato\";>0.17</b></p>\n                <p>Student 7's second guess for coin weight: <b style=\"color:Tomato\";>0.11</b></p>\n                <p>You received a bonus of <b>$0.00</b> based on the student's second guess.</p>\n                <p>Total bonus so far: <b>$0.20</b></p>\n                <p>Press any key to continue.</p>\n                ","response":" ","trial_type":"html-keyboard-response","trial_index":57,"time_elapsed":879704,"internal_node_id":"0.0-56.0","params":{"nStudents":24,"maxFlips":30,"completionMinutes":45,"basePay":8,"maxBonus":9,"perTrialBonus":0.5,"perTrialBonusThreshold":0.1,"exampleCost":0.01},"classroomParams":{"A":{"a":1,"b":4},"B":{"a":4,"b":1},"C":{"a":2,"b":8},"D":{"a":8,"b":2}},"conditions":["nonSeqFull","nonSeqPartial","seqNoFeedback","seqFeedback"],"classroomPairings":[["A","B"],["C","D"]],"coinWeights":[0.2,0.5,0.8],"subjectId":"A10BH9PYCYUKDJ","assignmentId":"32XVDSJFP0JFDFRW27VU6DP2NJPM25","hitId":"3YGE63DIN8J20XK20KS1742RQF60WK","url":"https://gershmanlab.com/experiments/alicia/teaching/experiment/?hitId=3YGE63DIN8J20XK20KS1742RQF60WK&workerId=A10BH9PYCYUKDJ&assignmentId=32XVDSJFP0JFDFRW27VU6DP2NJPM25&a=FDX28&tp_a=FDX28&b=32XVDSJFP0JFDFRW27VU6DP2NJPM25&tp_b=32XVDSJFP0JFDFRW27VU6DP2NJPM25&c=365198&tp_c=365198"},{"rt":null,"stimulus":"<div style=\"font-size:60px;\">Next student</div>","response":null,"trial_type":"html-keyboard-response","trial_index":58,"time_elapsed":881957,"internal_node_id":"0.0-57.0-0.0","params":{"nStudents":24,"maxFlips":30,"completionMinutes":45,"basePay":8,"maxBonus":9,"perTrialBonus":0.5,"perTrialBonusThreshold":0.1,"exampleCost":0.01},"classroomParams":{"A":{"a":1,"b":4},"B":{"a":4,"b":1},"C":{"a":2,"b":8},"D":{"a":8,"b":2}},"conditions":["nonSeqFull","nonSeqPartial","seqNoFeedback","seqFeedback"],"classroomPairings":[["A","B"],["C","D"]],"coinWeights":[0.2,0.5,0.8],"subjectId":"A10BH9PYCYUKDJ","assignmentId":"32XVDSJFP0JFDFRW27VU6DP2NJPM25","hitId":"3YGE63DIN8J20XK20KS1742RQF60WK","url":"https://gershmanlab.com/experiments/alicia/teaching/experiment/?hitId=3YGE63DIN8J20XK20KS1742RQF60WK&workerId=A10BH9PYCYUKDJ&assignmentId=32XVDSJFP0JFDFRW27VU6DP2NJPM25&a=FDX28&tp_a=FDX28&b=32XVDSJFP0JFDFRW27VU6DP2NJPM25&tp_b=32XVDSJFP0JFDFRW27VU6DP2NJPM25&c=365198&tp_c=365198"},{"rt":5134,"stimulus":"\n            <h4 style=\"color:Orange;\">Student 8</h4>\n            <h2>The weight of your coin is <b style=\"color:Tomato;\">0.2</b>.</h2>\n            <p>In this block, you will be giving <b>two</b> sets of examples to Student 8.</p>\n                <p>You will receive feedback at the end of the block.</p>\n            ","response":0,"trial_type":"html-button-response","trial_index":59,"time_elapsed":887093,"internal_node_id":"0.0-58.0","params":{"nStudents":24,"maxFlips":30,"completionMinutes":45,"basePay":8,"maxBonus":9,"perTrialBonus":0.5,"perTrialBonusThreshold":0.1,"exampleCost":0.01},"classroomParams":{"A":{"a":1,"b":4},"B":{"a":4,"b":1},"C":{"a":2,"b":8},"D":{"a":8,"b":2}},"conditions":["nonSeqFull","nonSeqPartial","seqNoFeedback","seqFeedback"],"classroomPairings":[["A","B"],["C","D"]],"coinWeights":[0.2,0.5,0.8],"subjectId":"A10BH9PYCYUKDJ","assignmentId":"32XVDSJFP0JFDFRW27VU6DP2NJPM25","hitId":"3YGE63DIN8J20XK20KS1742RQF60WK","url":"https://gershmanlab.com/experiments/alicia/teaching/experiment/?hitId=3YGE63DIN8J20XK20KS1742RQF60WK&workerId=A10BH9PYCYUKDJ&assignmentId=32XVDSJFP0JFDFRW27VU6DP2NJPM25&a=FDX28&tp_a=FDX28&b=32XVDSJFP0JFDFRW27VU6DP2NJPM25&tp_b=32XVDSJFP0JFDFRW27VU6DP2NJPM25&c=365198&tp_c=365198"},{"rt":11318,"response":{"heads":"2","tails":"10"},"type":"response","condition":"seqNoFeedback","trueTheta":0.2,"classrooms":["C","D"],"studentTrueClassroom":"D","exampleSet":"first","trial_type":"survey-html-form","trial_index":60,"time_elapsed":898413,"internal_node_id":"0.0-59.0-0.0","params":{"nStudents":24,"maxFlips":30,"completionMinutes":45,"basePay":8,"maxBonus":9,"perTrialBonus":0.5,"perTrialBonusThreshold":0.1,"exampleCost":0.01},"classroomParams":{"A":{"a":1,"b":4},"B":{"a":4,"b":1},"C":{"a":2,"b":8},"D":{"a":8,"b":2}},"conditions":["nonSeqFull","nonSeqPartial","seqNoFeedback","seqFeedback"],"classroomPairings":[["A","B"],["C","D"]],"coinWeights":[0.2,0.5,0.8],"subjectId":"A10BH9PYCYUKDJ","assignmentId":"32XVDSJFP0JFDFRW27VU6DP2NJPM25","hitId":"3YGE63DIN8J20XK20KS1742RQF60WK","url":"https://gershmanlab.com/experiments/alicia/teaching/experiment/?hitId=3YGE63DIN8J20XK20KS1742RQF60WK&workerId=A10BH9PYCYUKDJ&assignmentId=32XVDSJFP0JFDFRW27VU6DP2NJPM25&a=FDX28&tp_a=FDX28&b=32XVDSJFP0JFDFRW27VU6DP2NJPM25&tp_b=32XVDSJFP0JFDFRW27VU6DP2NJPM25&c=365198&tp_c=365198","heads":2,"tails":10,"studentIndex":7,"studentTrueHypers":{"a":8,"b":2},"studentGuess":0.45454545454545453,"delta":0.2545454545454545,"totalExamples":12,"bonusSoFar":0.2},{"rt":null,"stimulus":"Sending examples to student... ","response":null,"trial_type":"html-keyboard-response","trial_index":61,"time_elapsed":900169,"internal_node_id":"0.0-60.0","params":{"nStudents":24,"maxFlips":30,"completionMinutes":45,"basePay":8,"maxBonus":9,"perTrialBonus":0.5,"perTrialBonusThreshold":0.1,"exampleCost":0.01},"classroomParams":{"A":{"a":1,"b":4},"B":{"a":4,"b":1},"C":{"a":2,"b":8},"D":{"a":8,"b":2}},"conditions":["nonSeqFull","nonSeqPartial","seqNoFeedback","seqFeedback"],"classroomPairings":[["A","B"],["C","D"]],"coinWeights":[0.2,0.5,0.8],"subjectId":"A10BH9PYCYUKDJ","assignmentId":"32XVDSJFP0JFDFRW27VU6DP2NJPM25","hitId":"3YGE63DIN8J20XK20KS1742RQF60WK","url":"https://gershmanlab.com/experiments/alicia/teaching/experiment/?hitId=3YGE63DIN8J20XK20KS1742RQF60WK&workerId=A10BH9PYCYUKDJ&assignmentId=32XVDSJFP0JFDFRW27VU6DP2NJPM25&a=FDX28&tp_a=FDX28&b=32XVDSJFP0JFDFRW27VU6DP2NJPM25&tp_b=32XVDSJFP0JFDFRW27VU6DP2NJPM25&c=365198&tp_c=365198"},{"rt":null,"stimulus":"Examples sent to student! Waiting for student...","response":null,"trial_type":"html-keyboard-response","trial_index":62,"time_elapsed":905671,"internal_node_id":"0.0-61.0","params":{"nStudents":24,"maxFlips":30,"completionMinutes":45,"basePay":8,"maxBonus":9,"perTrialBonus":0.5,"perTrialBonusThreshold":0.1,"exampleCost":0.01},"classroomParams":{"A":{"a":1,"b":4},"B":{"a":4,"b":1},"C":{"a":2,"b":8},"D":{"a":8,"b":2}},"conditions":["nonSeqFull","nonSeqPartial","seqNoFeedback","seqFeedback"],"classroomPairings":[["A","B"],["C","D"]],"coinWeights":[0.2,0.5,0.8],"subjectId":"A10BH9PYCYUKDJ","assignmentId":"32XVDSJFP0JFDFRW27VU6DP2NJPM25","hitId":"3YGE63DIN8J20XK20KS1742RQF60WK","url":"https://gershmanlab.com/experiments/alicia/teaching/experiment/?hitId=3YGE63DIN8J20XK20KS1742RQF60WK&workerId=A10BH9PYCYUKDJ&assignmentId=32XVDSJFP0JFDFRW27VU6DP2NJPM25&a=FDX28&tp_a=FDX28&b=32XVDSJFP0JFDFRW27VU6DP2NJPM25&tp_b=32XVDSJFP0JFDFRW27VU6DP2NJPM25&c=365198&tp_c=365198"},{"rt":7953,"response":{"heads":"1","tails":"2"},"type":"response","condition":"seqNoFeedback","trueTheta":0.2,"classrooms":["C","D"],"studentTrueClassroom":"D","exampleSet":"second","trial_type":"survey-html-form","trial_index":63,"time_elapsed":913627,"internal_node_id":"0.0-62.0-0.0","params":{"nStudents":24,"maxFlips":30,"completionMinutes":45,"basePay":8,"maxBonus":9,"perTrialBonus":0.5,"perTrialBonusThreshold":0.1,"exampleCost":0.01},"classroomParams":{"A":{"a":1,"b":4},"B":{"a":4,"b":1},"C":{"a":2,"b":8},"D":{"a":8,"b":2}},"conditions":["nonSeqFull","nonSeqPartial","seqNoFeedback","seqFeedback"],"classroomPairings":[["A","B"],["C","D"]],"coinWeights":[0.2,0.5,0.8],"subjectId":"A10BH9PYCYUKDJ","assignmentId":"32XVDSJFP0JFDFRW27VU6DP2NJPM25","hitId":"3YGE63DIN8J20XK20KS1742RQF60WK","url":"https://gershmanlab.com/experiments/alicia/teaching/experiment/?hitId=3YGE63DIN8J20XK20KS1742RQF60WK&workerId=A10BH9PYCYUKDJ&assignmentId=32XVDSJFP0JFDFRW27VU6DP2NJPM25&a=FDX28&tp_a=FDX28&b=32XVDSJFP0JFDFRW27VU6DP2NJPM25&tp_b=32XVDSJFP0JFDFRW27VU6DP2NJPM25&c=365198&tp_c=365198","firstResponseHeads":2,"firstResponseTails":10,"secondResponseHeads":1,"secondResponseTails":2,"studentIndex":7,"studentTrueHypers":{"a":8,"b":2},"studentGuess":0.44,"delta":0.24,"bonus":0,"bonusSoFar":0.2,"totalExamples":15},{"rt":null,"stimulus":"Sending examples to student... ","response":null,"trial_type":"html-keyboard-response","trial_index":64,"time_elapsed":915629,"internal_node_id":"0.0-63.0","params":{"nStudents":24,"maxFlips":30,"completionMinutes":45,"basePay":8,"maxBonus":9,"perTrialBonus":0.5,"perTrialBonusThreshold":0.1,"exampleCost":0.01},"classroomParams":{"A":{"a":1,"b":4},"B":{"a":4,"b":1},"C":{"a":2,"b":8},"D":{"a":8,"b":2}},"conditions":["nonSeqFull","nonSeqPartial","seqNoFeedback","seqFeedback"],"classroomPairings":[["A","B"],["C","D"]],"coinWeights":[0.2,0.5,0.8],"subjectId":"A10BH9PYCYUKDJ","assignmentId":"32XVDSJFP0JFDFRW27VU6DP2NJPM25","hitId":"3YGE63DIN8J20XK20KS1742RQF60WK","url":"https://gershmanlab.com/experiments/alicia/teaching/experiment/?hitId=3YGE63DIN8J20XK20KS1742RQF60WK&workerId=A10BH9PYCYUKDJ&assignmentId=32XVDSJFP0JFDFRW27VU6DP2NJPM25&a=FDX28&tp_a=FDX28&b=32XVDSJFP0JFDFRW27VU6DP2NJPM25&tp_b=32XVDSJFP0JFDFRW27VU6DP2NJPM25&c=365198&tp_c=365198"},{"rt":null,"stimulus":"Examples sent to student! Waiting for student...","response":null,"trial_type":"html-keyboard-response","trial_index":65,"time_elapsed":920131,"internal_node_id":"0.0-64.0","params":{"nStudents":24,"maxFlips":30,"completionMinutes":45,"basePay":8,"maxBonus":9,"perTrialBonus":0.5,"perTrialBonusThreshold":0.1,"exampleCost":0.01},"classroomParams":{"A":{"a":1,"b":4},"B":{"a":4,"b":1},"C":{"a":2,"b":8},"D":{"a":8,"b":2}},"conditions":["nonSeqFull","nonSeqPartial","seqNoFeedback","seqFeedback"],"classroomPairings":[["A","B"],["C","D"]],"coinWeights":[0.2,0.5,0.8],"subjectId":"A10BH9PYCYUKDJ","assignmentId":"32XVDSJFP0JFDFRW27VU6DP2NJPM25","hitId":"3YGE63DIN8J20XK20KS1742RQF60WK","url":"https://gershmanlab.com/experiments/alicia/teaching/experiment/?hitId=3YGE63DIN8J20XK20KS1742RQF60WK&workerId=A10BH9PYCYUKDJ&assignmentId=32XVDSJFP0JFDFRW27VU6DP2NJPM25&a=FDX28&tp_a=FDX28&b=32XVDSJFP0JFDFRW27VU6DP2NJPM25&tp_b=32XVDSJFP0JFDFRW27VU6DP2NJPM25&c=365198&tp_c=365198"},{"rt":7534,"stimulus":"\n                <p>Student 8's first guess for coin weight: <b style=\"color:Tomato\";>0.45</b></p>\n                <p>Student 8's second guess for coin weight: <b style=\"color:Tomato\";>0.44</b></p>\n                <p>You received a bonus of <b>$0.00</b> based on the student's second guess.</p>\n                <p>Total bonus so far: <b>$0.20</b></p>\n                <p>Press any key to continue.</p>\n                ","response":" ","trial_type":"html-keyboard-response","trial_index":66,"time_elapsed":927667,"internal_node_id":"0.0-65.0","params":{"nStudents":24,"maxFlips":30,"completionMinutes":45,"basePay":8,"maxBonus":9,"perTrialBonus":0.5,"perTrialBonusThreshold":0.1,"exampleCost":0.01},"classroomParams":{"A":{"a":1,"b":4},"B":{"a":4,"b":1},"C":{"a":2,"b":8},"D":{"a":8,"b":2}},"conditions":["nonSeqFull","nonSeqPartial","seqNoFeedback","seqFeedback"],"classroomPairings":[["A","B"],["C","D"]],"coinWeights":[0.2,0.5,0.8],"subjectId":"A10BH9PYCYUKDJ","assignmentId":"32XVDSJFP0JFDFRW27VU6DP2NJPM25","hitId":"3YGE63DIN8J20XK20KS1742RQF60WK","url":"https://gershmanlab.com/experiments/alicia/teaching/experiment/?hitId=3YGE63DIN8J20XK20KS1742RQF60WK&workerId=A10BH9PYCYUKDJ&assignmentId=32XVDSJFP0JFDFRW27VU6DP2NJPM25&a=FDX28&tp_a=FDX28&b=32XVDSJFP0JFDFRW27VU6DP2NJPM25&tp_b=32XVDSJFP0JFDFRW27VU6DP2NJPM25&c=365198&tp_c=365198"},{"rt":null,"stimulus":"<div style=\"font-size:60px;\">Next student</div>","response":null,"trial_type":"html-keyboard-response","trial_index":67,"time_elapsed":929668,"internal_node_id":"0.0-66.0-0.0","params":{"nStudents":24,"maxFlips":30,"completionMinutes":45,"basePay":8,"maxBonus":9,"perTrialBonus":0.5,"perTrialBonusThreshold":0.1,"exampleCost":0.01},"classroomParams":{"A":{"a":1,"b":4},"B":{"a":4,"b":1},"C":{"a":2,"b":8},"D":{"a":8,"b":2}},"conditions":["nonSeqFull","nonSeqPartial","seqNoFeedback","seqFeedback"],"classroomPairings":[["A","B"],["C","D"]],"coinWeights":[0.2,0.5,0.8],"subjectId":"A10BH9PYCYUKDJ","assignmentId":"32XVDSJFP0JFDFRW27VU6DP2NJPM25","hitId":"3YGE63DIN8J20XK20KS1742RQF60WK","url":"https://gershmanlab.com/experiments/alicia/teaching/experiment/?hitId=3YGE63DIN8J20XK20KS1742RQF60WK&workerId=A10BH9PYCYUKDJ&assignmentId=32XVDSJFP0JFDFRW27VU6DP2NJPM25&a=FDX28&tp_a=FDX28&b=32XVDSJFP0JFDFRW27VU6DP2NJPM25&tp_b=32XVDSJFP0JFDFRW27VU6DP2NJPM25&c=365198&tp_c=365198"},{"rt":3988,"stimulus":"\n            <h4 style=\"color:Orange;\">Student 9</h4>\n            <h2>The weight of your coin is <b style=\"color:Tomato;\">0.5</b>.</h2>\n            <p>In this block, you will be giving <b>two</b> sets of examples to Student 9.</p>\n                <p>You will see the student's guess after the first set of examples. You will also receive feedback at the end of the block.</p>\n            ","response":0,"trial_type":"html-button-response","trial_index":68,"time_elapsed":933658,"internal_node_id":"0.0-67.0","params":{"nStudents":24,"maxFlips":30,"completionMinutes":45,"basePay":8,"maxBonus":9,"perTrialBonus":0.5,"perTrialBonusThreshold":0.1,"exampleCost":0.01},"classroomParams":{"A":{"a":1,"b":4},"B":{"a":4,"b":1},"C":{"a":2,"b":8},"D":{"a":8,"b":2}},"conditions":["nonSeqFull","nonSeqPartial","seqNoFeedback","seqFeedback"],"classroomPairings":[["A","B"],["C","D"]],"coinWeights":[0.2,0.5,0.8],"subjectId":"A10BH9PYCYUKDJ","assignmentId":"32XVDSJFP0JFDFRW27VU6DP2NJPM25","hitId":"3YGE63DIN8J20XK20KS1742RQF60WK","url":"https://gershmanlab.com/experiments/alicia/teaching/experiment/?hitId=3YGE63DIN8J20XK20KS1742RQF60WK&workerId=A10BH9PYCYUKDJ&assignmentId=32XVDSJFP0JFDFRW27VU6DP2NJPM25&a=FDX28&tp_a=FDX28&b=32XVDSJFP0JFDFRW27VU6DP2NJPM25&tp_b=32XVDSJFP0JFDFRW27VU6DP2NJPM25&c=365198&tp_c=365198"},{"rt":4208,"response":{"heads":"1","tails":"1"},"type":"response","condition":"seqFeedback","trueTheta":0.5,"classrooms":["C","D"],"studentTrueClassroom":"C","exampleSet":"first","trial_type":"survey-html-form","trial_index":69,"time_elapsed":937869,"internal_node_id":"0.0-68.0-0.0","params":{"nStudents":24,"maxFlips":30,"completionMinutes":45,"basePay":8,"maxBonus":9,"perTrialBonus":0.5,"perTrialBonusThreshold":0.1,"exampleCost":0.01},"classroomParams":{"A":{"a":1,"b":4},"B":{"a":4,"b":1},"C":{"a":2,"b":8},"D":{"a":8,"b":2}},"conditions":["nonSeqFull","nonSeqPartial","seqNoFeedback","seqFeedback"],"classroomPairings":[["A","B"],["C","D"]],"coinWeights":[0.2,0.5,0.8],"subjectId":"A10BH9PYCYUKDJ","assignmentId":"32XVDSJFP0JFDFRW27VU6DP2NJPM25","hitId":"3YGE63DIN8J20XK20KS1742RQF60WK","url":"https://gershmanlab.com/experiments/alicia/teaching/experiment/?hitId=3YGE63DIN8J20XK20KS1742RQF60WK&workerId=A10BH9PYCYUKDJ&assignmentId=32XVDSJFP0JFDFRW27VU6DP2NJPM25&a=FDX28&tp_a=FDX28&b=32XVDSJFP0JFDFRW27VU6DP2NJPM25&tp_b=32XVDSJFP0JFDFRW27VU6DP2NJPM25&c=365198&tp_c=365198","heads":1,"tails":1,"studentIndex":8,"studentTrueHypers":{"a":2,"b":8},"studentGuess":0.25,"delta":0.25,"totalExamples":2,"bonusSoFar":0.2},{"rt":null,"stimulus":"Sending examples to student... ","response":null,"trial_type":"html-keyboard-response","trial_index":70,"time_elapsed":939871,"internal_node_id":"0.0-69.0","params":{"nStudents":24,"maxFlips":30,"completionMinutes":45,"basePay":8,"maxBonus":9,"perTrialBonus":0.5,"perTrialBonusThreshold":0.1,"exampleCost":0.01},"classroomParams":{"A":{"a":1,"b":4},"B":{"a":4,"b":1},"C":{"a":2,"b":8},"D":{"a":8,"b":2}},"conditions":["nonSeqFull","nonSeqPartial","seqNoFeedback","seqFeedback"],"classroomPairings":[["A","B"],["C","D"]],"coinWeights":[0.2,0.5,0.8],"subjectId":"A10BH9PYCYUKDJ","assignmentId":"32XVDSJFP0JFDFRW27VU6DP2NJPM25","hitId":"3YGE63DIN8J20XK20KS1742RQF60WK","url":"https://gershmanlab.com/experiments/alicia/teaching/experiment/?hitId=3YGE63DIN8J20XK20KS1742RQF60WK&workerId=A10BH9PYCYUKDJ&assignmentId=32XVDSJFP0JFDFRW27VU6DP2NJPM25&a=FDX28&tp_a=FDX28&b=32XVDSJFP0JFDFRW27VU6DP2NJPM25&tp_b=32XVDSJFP0JFDFRW27VU6DP2NJPM25&c=365198&tp_c=365198"},{"rt":null,"stimulus":"Examples sent to student! Waiting for student...","response":null,"trial_type":"html-keyboard-response","trial_index":71,"time_elapsed":945373,"internal_node_id":"0.0-70.0","params":{"nStudents":24,"maxFlips":30,"completionMinutes":45,"basePay":8,"maxBonus":9,"perTrialBonus":0.5,"perTrialBonusThreshold":0.1,"exampleCost":0.01},"classroomParams":{"A":{"a":1,"b":4},"B":{"a":4,"b":1},"C":{"a":2,"b":8},"D":{"a":8,"b":2}},"conditions":["nonSeqFull","nonSeqPartial","seqNoFeedback","seqFeedback"],"classroomPairings":[["A","B"],["C","D"]],"coinWeights":[0.2,0.5,0.8],"subjectId":"A10BH9PYCYUKDJ","assignmentId":"32XVDSJFP0JFDFRW27VU6DP2NJPM25","hitId":"3YGE63DIN8J20XK20KS1742RQF60WK","url":"https://gershmanlab.com/experiments/alicia/teaching/experiment/?hitId=3YGE63DIN8J20XK20KS1742RQF60WK&workerId=A10BH9PYCYUKDJ&assignmentId=32XVDSJFP0JFDFRW27VU6DP2NJPM25&a=FDX28&tp_a=FDX28&b=32XVDSJFP0JFDFRW27VU6DP2NJPM25&tp_b=32XVDSJFP0JFDFRW27VU6DP2NJPM25&c=365198&tp_c=365198"},{"rt":1494,"stimulus":"\n                <p>Student's guess for coin weight: <b style=\"color:Tomato;\">0.25</b></p>\n                <p></b></p>\n                <p>You will now send another set of examples to your student. Press any key to continue.</p>\n                ","response":" ","trial_type":"html-keyboard-response","trial_index":72,"time_elapsed":946868,"internal_node_id":"0.0-71.0","params":{"nStudents":24,"maxFlips":30,"completionMinutes":45,"basePay":8,"maxBonus":9,"perTrialBonus":0.5,"perTrialBonusThreshold":0.1,"exampleCost":0.01},"classroomParams":{"A":{"a":1,"b":4},"B":{"a":4,"b":1},"C":{"a":2,"b":8},"D":{"a":8,"b":2}},"conditions":["nonSeqFull","nonSeqPartial","seqNoFeedback","seqFeedback"],"classroomPairings":[["A","B"],["C","D"]],"coinWeights":[0.2,0.5,0.8],"subjectId":"A10BH9PYCYUKDJ","assignmentId":"32XVDSJFP0JFDFRW27VU6DP2NJPM25","hitId":"3YGE63DIN8J20XK20KS1742RQF60WK","url":"https://gershmanlab.com/experiments/alicia/teaching/experiment/?hitId=3YGE63DIN8J20XK20KS1742RQF60WK&workerId=A10BH9PYCYUKDJ&assignmentId=32XVDSJFP0JFDFRW27VU6DP2NJPM25&a=FDX28&tp_a=FDX28&b=32XVDSJFP0JFDFRW27VU6DP2NJPM25&tp_b=32XVDSJFP0JFDFRW27VU6DP2NJPM25&c=365198&tp_c=365198"},{"rt":5115,"response":{"heads":"1","tails":"1"},"type":"response","condition":"seqFeedback","trueTheta":0.5,"classrooms":["C","D"],"studentTrueClassroom":"C","exampleSet":"second","trial_type":"survey-html-form","trial_index":73,"time_elapsed":951985,"internal_node_id":"0.0-72.0-0.0","params":{"nStudents":24,"maxFlips":30,"completionMinutes":45,"basePay":8,"maxBonus":9,"perTrialBonus":0.5,"perTrialBonusThreshold":0.1,"exampleCost":0.01},"classroomParams":{"A":{"a":1,"b":4},"B":{"a":4,"b":1},"C":{"a":2,"b":8},"D":{"a":8,"b":2}},"conditions":["nonSeqFull","nonSeqPartial","seqNoFeedback","seqFeedback"],"classroomPairings":[["A","B"],["C","D"]],"coinWeights":[0.2,0.5,0.8],"subjectId":"A10BH9PYCYUKDJ","assignmentId":"32XVDSJFP0JFDFRW27VU6DP2NJPM25","hitId":"3YGE63DIN8J20XK20KS1742RQF60WK","url":"https://gershmanlab.com/experiments/alicia/teaching/experiment/?hitId=3YGE63DIN8J20XK20KS1742RQF60WK&workerId=A10BH9PYCYUKDJ&assignmentId=32XVDSJFP0JFDFRW27VU6DP2NJPM25&a=FDX28&tp_a=FDX28&b=32XVDSJFP0JFDFRW27VU6DP2NJPM25&tp_b=32XVDSJFP0JFDFRW27VU6DP2NJPM25&c=365198&tp_c=365198","firstResponseHeads":1,"firstResponseTails":1,"secondResponseHeads":1,"secondResponseTails":1,"studentIndex":8,"studentTrueHypers":{"a":2,"b":8},"studentGuess":0.2857142857142857,"delta":0.2142857142857143,"bonus":0,"bonusSoFar":0.2,"totalExamples":4},{"rt":null,"stimulus":"Sending examples to student... ","response":null,"trial_type":"html-keyboard-response","trial_index":74,"time_elapsed":953237,"internal_node_id":"0.0-73.0","params":{"nStudents":24,"maxFlips":30,"completionMinutes":45,"basePay":8,"maxBonus":9,"perTrialBonus":0.5,"perTrialBonusThreshold":0.1,"exampleCost":0.01},"classroomParams":{"A":{"a":1,"b":4},"B":{"a":4,"b":1},"C":{"a":2,"b":8},"D":{"a":8,"b":2}},"conditions":["nonSeqFull","nonSeqPartial","seqNoFeedback","seqFeedback"],"classroomPairings":[["A","B"],["C","D"]],"coinWeights":[0.2,0.5,0.8],"subjectId":"A10BH9PYCYUKDJ","assignmentId":"32XVDSJFP0JFDFRW27VU6DP2NJPM25","hitId":"3YGE63DIN8J20XK20KS1742RQF60WK","url":"https://gershmanlab.com/experiments/alicia/teaching/experiment/?hitId=3YGE63DIN8J20XK20KS1742RQF60WK&workerId=A10BH9PYCYUKDJ&assignmentId=32XVDSJFP0JFDFRW27VU6DP2NJPM25&a=FDX28&tp_a=FDX28&b=32XVDSJFP0JFDFRW27VU6DP2NJPM25&tp_b=32XVDSJFP0JFDFRW27VU6DP2NJPM25&c=365198&tp_c=365198"},{"rt":null,"stimulus":"Examples sent to student! Waiting for student...","response":null,"trial_type":"html-keyboard-response","trial_index":75,"time_elapsed":959239,"internal_node_id":"0.0-74.0","params":{"nStudents":24,"maxFlips":30,"completionMinutes":45,"basePay":8,"maxBonus":9,"perTrialBonus":0.5,"perTrialBonusThreshold":0.1,"exampleCost":0.01},"classroomParams":{"A":{"a":1,"b":4},"B":{"a":4,"b":1},"C":{"a":2,"b":8},"D":{"a":8,"b":2}},"conditions":["nonSeqFull","nonSeqPartial","seqNoFeedback","seqFeedback"],"classroomPairings":[["A","B"],["C","D"]],"coinWeights":[0.2,0.5,0.8],"subjectId":"A10BH9PYCYUKDJ","assignmentId":"32XVDSJFP0JFDFRW27VU6DP2NJPM25","hitId":"3YGE63DIN8J20XK20KS1742RQF60WK","url":"https://gershmanlab.com/experiments/alicia/teaching/experiment/?hitId=3YGE63DIN8J20XK20KS1742RQF60WK&workerId=A10BH9PYCYUKDJ&assignmentId=32XVDSJFP0JFDFRW27VU6DP2NJPM25&a=FDX28&tp_a=FDX28&b=32XVDSJFP0JFDFRW27VU6DP2NJPM25&tp_b=32XVDSJFP0JFDFRW27VU6DP2NJPM25&c=365198&tp_c=365198"},{"rt":2167,"stimulus":"\n                <p>Student 9's first guess for coin weight: <b style=\"color:Tomato\";>0.25</b></p>\n                <p>Student 9's second guess for coin weight: <b style=\"color:Tomato\";>0.29</b></p>\n                <p>You received a bonus of <b>$0.00</b> based on the student's second guess.</p>\n                <p>Total bonus so far: <b>$0.20</b></p>\n                <p>Press any key to continue.</p>\n                ","response":" ","trial_type":"html-keyboard-response","trial_index":76,"time_elapsed":961408,"internal_node_id":"0.0-75.0","params":{"nStudents":24,"maxFlips":30,"completionMinutes":45,"basePay":8,"maxBonus":9,"perTrialBonus":0.5,"perTrialBonusThreshold":0.1,"exampleCost":0.01},"classroomParams":{"A":{"a":1,"b":4},"B":{"a":4,"b":1},"C":{"a":2,"b":8},"D":{"a":8,"b":2}},"conditions":["nonSeqFull","nonSeqPartial","seqNoFeedback","seqFeedback"],"classroomPairings":[["A","B"],["C","D"]],"coinWeights":[0.2,0.5,0.8],"subjectId":"A10BH9PYCYUKDJ","assignmentId":"32XVDSJFP0JFDFRW27VU6DP2NJPM25","hitId":"3YGE63DIN8J20XK20KS1742RQF60WK","url":"https://gershmanlab.com/experiments/alicia/teaching/experiment/?hitId=3YGE63DIN8J20XK20KS1742RQF60WK&workerId=A10BH9PYCYUKDJ&assignmentId=32XVDSJFP0JFDFRW27VU6DP2NJPM25&a=FDX28&tp_a=FDX28&b=32XVDSJFP0JFDFRW27VU6DP2NJPM25&tp_b=32XVDSJFP0JFDFRW27VU6DP2NJPM25&c=365198&tp_c=365198"},{"rt":null,"stimulus":"<div style=\"font-size:60px;\">Next student</div>","response":null,"trial_type":"html-keyboard-response","trial_index":77,"time_elapsed":963409,"internal_node_id":"0.0-76.0-0.0","params":{"nStudents":24,"maxFlips":30,"completionMinutes":45,"basePay":8,"maxBonus":9,"perTrialBonus":0.5,"perTrialBonusThreshold":0.1,"exampleCost":0.01},"classroomParams":{"A":{"a":1,"b":4},"B":{"a":4,"b":1},"C":{"a":2,"b":8},"D":{"a":8,"b":2}},"conditions":["nonSeqFull","nonSeqPartial","seqNoFeedback","seqFeedback"],"classroomPairings":[["A","B"],["C","D"]],"coinWeights":[0.2,0.5,0.8],"subjectId":"A10BH9PYCYUKDJ","assignmentId":"32XVDSJFP0JFDFRW27VU6DP2NJPM25","hitId":"3YGE63DIN8J20XK20KS1742RQF60WK","url":"https://gershmanlab.com/experiments/alicia/teaching/experiment/?hitId=3YGE63DIN8J20XK20KS1742RQF60WK&workerId=A10BH9PYCYUKDJ&assignmentId=32XVDSJFP0JFDFRW27VU6DP2NJPM25&a=FDX28&tp_a=FDX28&b=32XVDSJFP0JFDFRW27VU6DP2NJPM25&tp_b=32XVDSJFP0JFDFRW27VU6DP2NJPM25&c=365198&tp_c=365198"},{"rt":2716,"stimulus":"\n            <h4 style=\"color:Orange;\">Student 10</h4>\n            <h2>The weight of your coin is <b style=\"color:Tomato;\">0.8</b>.</h2>\n            <p>In this block, you will be giving <b>one</b> set of examples to Student 10.</p>\n                <p>You will receive feedback at the end of the block.</p>\n            ","response":0,"trial_type":"html-button-response","trial_index":78,"time_elapsed":966128,"internal_node_id":"0.0-77.0","params":{"nStudents":24,"maxFlips":30,"completionMinutes":45,"basePay":8,"maxBonus":9,"perTrialBonus":0.5,"perTrialBonusThreshold":0.1,"exampleCost":0.01},"classroomParams":{"A":{"a":1,"b":4},"B":{"a":4,"b":1},"C":{"a":2,"b":8},"D":{"a":8,"b":2}},"conditions":["nonSeqFull","nonSeqPartial","seqNoFeedback","seqFeedback"],"classroomPairings":[["A","B"],["C","D"]],"coinWeights":[0.2,0.5,0.8],"subjectId":"A10BH9PYCYUKDJ","assignmentId":"32XVDSJFP0JFDFRW27VU6DP2NJPM25","hitId":"3YGE63DIN8J20XK20KS1742RQF60WK","url":"https://gershmanlab.com/experiments/alicia/teaching/experiment/?hitId=3YGE63DIN8J20XK20KS1742RQF60WK&workerId=A10BH9PYCYUKDJ&assignmentId=32XVDSJFP0JFDFRW27VU6DP2NJPM25&a=FDX28&tp_a=FDX28&b=32XVDSJFP0JFDFRW27VU6DP2NJPM25&tp_b=32XVDSJFP0JFDFRW27VU6DP2NJPM25&c=365198&tp_c=365198"},{"rt":4821,"response":{"heads":"30","tails":"0"},"type":"response","condition":"nonSeqPartial","trueTheta":0.8,"classrooms":["A","B"],"studentTrueClassroom":"B","exampleSet":"first","trial_type":"survey-html-form","trial_index":79,"time_elapsed":970951,"internal_node_id":"0.0-78.0-0.0","params":{"nStudents":24,"maxFlips":30,"completionMinutes":45,"basePay":8,"maxBonus":9,"perTrialBonus":0.5,"perTrialBonusThreshold":0.1,"exampleCost":0.01},"classroomParams":{"A":{"a":1,"b":4},"B":{"a":4,"b":1},"C":{"a":2,"b":8},"D":{"a":8,"b":2}},"conditions":["nonSeqFull","nonSeqPartial","seqNoFeedback","seqFeedback"],"classroomPairings":[["A","B"],["C","D"]],"coinWeights":[0.2,0.5,0.8],"subjectId":"A10BH9PYCYUKDJ","assignmentId":"32XVDSJFP0JFDFRW27VU6DP2NJPM25","hitId":"3YGE63DIN8J20XK20KS1742RQF60WK","url":"https://gershmanlab.com/experiments/alicia/teaching/experiment/?hitId=3YGE63DIN8J20XK20KS1742RQF60WK&workerId=A10BH9PYCYUKDJ&assignmentId=32XVDSJFP0JFDFRW27VU6DP2NJPM25&a=FDX28&tp_a=FDX28&b=32XVDSJFP0JFDFRW27VU6DP2NJPM25&tp_b=32XVDSJFP0JFDFRW27VU6DP2NJPM25&c=365198&tp_c=365198","heads":30,"tails":0,"studentIndex":9,"studentTrueHypers":{"a":4,"b":1},"studentGuess":0.9714285714285714,"delta":0.17142857142857137,"totalExamples":30,"bonus":0,"bonusSoFar":0.2},{"rt":null,"stimulus":"Sending examples to student... ","response":null,"trial_type":"html-keyboard-response","trial_index":80,"time_elapsed":972704,"internal_node_id":"0.0-79.0","params":{"nStudents":24,"maxFlips":30,"completionMinutes":45,"basePay":8,"maxBonus":9,"perTrialBonus":0.5,"perTrialBonusThreshold":0.1,"exampleCost":0.01},"classroomParams":{"A":{"a":1,"b":4},"B":{"a":4,"b":1},"C":{"a":2,"b":8},"D":{"a":8,"b":2}},"conditions":["nonSeqFull","nonSeqPartial","seqNoFeedback","seqFeedback"],"classroomPairings":[["A","B"],["C","D"]],"coinWeights":[0.2,0.5,0.8],"subjectId":"A10BH9PYCYUKDJ","assignmentId":"32XVDSJFP0JFDFRW27VU6DP2NJPM25","hitId":"3YGE63DIN8J20XK20KS1742RQF60WK","url":"https://gershmanlab.com/experiments/alicia/teaching/experiment/?hitId=3YGE63DIN8J20XK20KS1742RQF60WK&workerId=A10BH9PYCYUKDJ&assignmentId=32XVDSJFP0JFDFRW27VU6DP2NJPM25&a=FDX28&tp_a=FDX28&b=32XVDSJFP0JFDFRW27VU6DP2NJPM25&tp_b=32XVDSJFP0JFDFRW27VU6DP2NJPM25&c=365198&tp_c=365198"},{"rt":null,"stimulus":"Examples sent to student! Waiting for student...","response":null,"trial_type":"html-keyboard-response","trial_index":81,"time_elapsed":977706,"internal_node_id":"0.0-80.0","params":{"nStudents":24,"maxFlips":30,"completionMinutes":45,"basePay":8,"maxBonus":9,"perTrialBonus":0.5,"perTrialBonusThreshold":0.1,"exampleCost":0.01},"classroomParams":{"A":{"a":1,"b":4},"B":{"a":4,"b":1},"C":{"a":2,"b":8},"D":{"a":8,"b":2}},"conditions":["nonSeqFull","nonSeqPartial","seqNoFeedback","seqFeedback"],"classroomPairings":[["A","B"],["C","D"]],"coinWeights":[0.2,0.5,0.8],"subjectId":"A10BH9PYCYUKDJ","assignmentId":"32XVDSJFP0JFDFRW27VU6DP2NJPM25","hitId":"3YGE63DIN8J20XK20KS1742RQF60WK","url":"https://gershmanlab.com/experiments/alicia/teaching/experiment/?hitId=3YGE63DIN8J20XK20KS1742RQF60WK&workerId=A10BH9PYCYUKDJ&assignmentId=32XVDSJFP0JFDFRW27VU6DP2NJPM25&a=FDX28&tp_a=FDX28&b=32XVDSJFP0JFDFRW27VU6DP2NJPM25&tp_b=32XVDSJFP0JFDFRW27VU6DP2NJPM25&c=365198&tp_c=365198"},{"rt":3408,"stimulus":"\n                <p>Student's guess for coin weight: <b style=\"color:Tomato;\">0.97</b></p>\n                <p>You received a bonus of <b>$0</b>. Total bonus so far: <b>$0.20</b></b></p>\n                <p> Press any key to continue.</p>\n                ","response":" ","trial_type":"html-keyboard-response","trial_index":82,"time_elapsed":981115,"internal_node_id":"0.0-81.0","params":{"nStudents":24,"maxFlips":30,"completionMinutes":45,"basePay":8,"maxBonus":9,"perTrialBonus":0.5,"perTrialBonusThreshold":0.1,"exampleCost":0.01},"classroomParams":{"A":{"a":1,"b":4},"B":{"a":4,"b":1},"C":{"a":2,"b":8},"D":{"a":8,"b":2}},"conditions":["nonSeqFull","nonSeqPartial","seqNoFeedback","seqFeedback"],"classroomPairings":[["A","B"],["C","D"]],"coinWeights":[0.2,0.5,0.8],"subjectId":"A10BH9PYCYUKDJ","assignmentId":"32XVDSJFP0JFDFRW27VU6DP2NJPM25","hitId":"3YGE63DIN8J20XK20KS1742RQF60WK","url":"https://gershmanlab.com/experiments/alicia/teaching/experiment/?hitId=3YGE63DIN8J20XK20KS1742RQF60WK&workerId=A10BH9PYCYUKDJ&assignmentId=32XVDSJFP0JFDFRW27VU6DP2NJPM25&a=FDX28&tp_a=FDX28&b=32XVDSJFP0JFDFRW27VU6DP2NJPM25&tp_b=32XVDSJFP0JFDFRW27VU6DP2NJPM25&c=365198&tp_c=365198"},{"rt":null,"stimulus":"<div style=\"font-size:60px;\">Next student</div>","response":null,"trial_type":"html-keyboard-response","trial_index":83,"time_elapsed":984117,"internal_node_id":"0.0-82.0-0.0","params":{"nStudents":24,"maxFlips":30,"completionMinutes":45,"basePay":8,"maxBonus":9,"perTrialBonus":0.5,"perTrialBonusThreshold":0.1,"exampleCost":0.01},"classroomParams":{"A":{"a":1,"b":4},"B":{"a":4,"b":1},"C":{"a":2,"b":8},"D":{"a":8,"b":2}},"conditions":["nonSeqFull","nonSeqPartial","seqNoFeedback","seqFeedback"],"classroomPairings":[["A","B"],["C","D"]],"coinWeights":[0.2,0.5,0.8],"subjectId":"A10BH9PYCYUKDJ","assignmentId":"32XVDSJFP0JFDFRW27VU6DP2NJPM25","hitId":"3YGE63DIN8J20XK20KS1742RQF60WK","url":"https://gershmanlab.com/experiments/alicia/teaching/experiment/?hitId=3YGE63DIN8J20XK20KS1742RQF60WK&workerId=A10BH9PYCYUKDJ&assignmentId=32XVDSJFP0JFDFRW27VU6DP2NJPM25&a=FDX28&tp_a=FDX28&b=32XVDSJFP0JFDFRW27VU6DP2NJPM25&tp_b=32XVDSJFP0JFDFRW27VU6DP2NJPM25&c=365198&tp_c=365198"},{"rt":2265,"stimulus":"\n            <h4 style=\"color:Orange;\">Student 11</h4>\n            <h2>The weight of your coin is <b style=\"color:Tomato;\">0.8</b>.</h2>\n            <p>In this block, you will be giving <b>one</b> set of examples to Student 11.</p>\n                <p>You will receive feedback at the end of the block.</p>\n            ","response":0,"trial_type":"html-button-response","trial_index":84,"time_elapsed":986384,"internal_node_id":"0.0-83.0","params":{"nStudents":24,"maxFlips":30,"completionMinutes":45,"basePay":8,"maxBonus":9,"perTrialBonus":0.5,"perTrialBonusThreshold":0.1,"exampleCost":0.01},"classroomParams":{"A":{"a":1,"b":4},"B":{"a":4,"b":1},"C":{"a":2,"b":8},"D":{"a":8,"b":2}},"conditions":["nonSeqFull","nonSeqPartial","seqNoFeedback","seqFeedback"],"classroomPairings":[["A","B"],["C","D"]],"coinWeights":[0.2,0.5,0.8],"subjectId":"A10BH9PYCYUKDJ","assignmentId":"32XVDSJFP0JFDFRW27VU6DP2NJPM25","hitId":"3YGE63DIN8J20XK20KS1742RQF60WK","url":"https://gershmanlab.com/experiments/alicia/teaching/experiment/?hitId=3YGE63DIN8J20XK20KS1742RQF60WK&workerId=A10BH9PYCYUKDJ&assignmentId=32XVDSJFP0JFDFRW27VU6DP2NJPM25&a=FDX28&tp_a=FDX28&b=32XVDSJFP0JFDFRW27VU6DP2NJPM25&tp_b=32XVDSJFP0JFDFRW27VU6DP2NJPM25&c=365198&tp_c=365198"},{"rt":6749,"response":{"heads":"10","tails":"1"},"type":"response","condition":"nonSeqFull","trueTheta":0.8,"classrooms":["A","B"],"studentTrueClassroom":"B","exampleSet":"first","trial_type":"survey-html-form","trial_index":85,"time_elapsed":993136,"internal_node_id":"0.0-84.0-0.0","params":{"nStudents":24,"maxFlips":30,"completionMinutes":45,"basePay":8,"maxBonus":9,"perTrialBonus":0.5,"perTrialBonusThreshold":0.1,"exampleCost":0.01},"classroomParams":{"A":{"a":1,"b":4},"B":{"a":4,"b":1},"C":{"a":2,"b":8},"D":{"a":8,"b":2}},"conditions":["nonSeqFull","nonSeqPartial","seqNoFeedback","seqFeedback"],"classroomPairings":[["A","B"],["C","D"]],"coinWeights":[0.2,0.5,0.8],"subjectId":"A10BH9PYCYUKDJ","assignmentId":"32XVDSJFP0JFDFRW27VU6DP2NJPM25","hitId":"3YGE63DIN8J20XK20KS1742RQF60WK","url":"https://gershmanlab.com/experiments/alicia/teaching/experiment/?hitId=3YGE63DIN8J20XK20KS1742RQF60WK&workerId=A10BH9PYCYUKDJ&assignmentId=32XVDSJFP0JFDFRW27VU6DP2NJPM25&a=FDX28&tp_a=FDX28&b=32XVDSJFP0JFDFRW27VU6DP2NJPM25&tp_b=32XVDSJFP0JFDFRW27VU6DP2NJPM25&c=365198&tp_c=365198","heads":10,"tails":1,"studentIndex":10,"studentTrueHypers":{"a":4,"b":1},"studentGuess":0.875,"delta":0.07499999999999996,"totalExamples":11,"bonus":0.39,"bonusSoFar":0.59},{"rt":null,"stimulus":"Sending examples to student... ","response":null,"trial_type":"html-keyboard-response","trial_index":86,"time_elapsed":995140,"internal_node_id":"0.0-85.0","params":{"nStudents":24,"maxFlips":30,"completionMinutes":45,"basePay":8,"maxBonus":9,"perTrialBonus":0.5,"perTrialBonusThreshold":0.1,"exampleCost":0.01},"classroomParams":{"A":{"a":1,"b":4},"B":{"a":4,"b":1},"C":{"a":2,"b":8},"D":{"a":8,"b":2}},"conditions":["nonSeqFull","nonSeqPartial","seqNoFeedback","seqFeedback"],"classroomPairings":[["A","B"],["C","D"]],"coinWe