[{"rt":2831,"stimulus":"Welcome to the experiment. Press any key to begin.","response":" ","trial_type":"html-keyboard-response","trial_index":0,"time_elapsed":2858,"internal_node_id":"0.0-0.0","params":{"nStudents":24,"maxFlips":30,"completionMinutes":45,"basePay":8,"maxBonus":9,"perTrialBonus":0.5,"perTrialBonusThreshold":0.1,"exampleCost":0.01},"classroomParams":{"A":{"a":1,"b":4},"B":{"a":4,"b":1},"C":{"a":2,"b":8},"D":{"a":8,"b":2}},"conditions":["nonSeqFull","nonSeqPartial","seqNoFeedback","seqFeedback"],"classroomPairings":[["A","B"],["C","D"]],"coinWeights":[0.2,0.5,0.8],"subjectId":"A10HW8JXM17XLD","assignmentId":"3T3IWE1XG790ITJ1DFM7O9IXXXZQTO","hitId":"341H3G5YF006USP7B7C868W97H9Z08","url":"https://gershmanlab.com/experiments/alicia/teaching/experiment/?hitId=341H3G5YF006USP7B7C868W97H9Z08&workerId=A10HW8JXM17XLD&assignmentId=3T3IWE1XG790ITJ1DFM7O9IXXXZQTO&a=XW3T8&tp_a=XW3T8&b=3T3IWE1XG790ITJ1DFM7O9IXXXZQTO&tp_b=3T3IWE1XG790ITJ1DFM7O9IXXXZQTO&c=365198&tp_c=365198"},{"rt":18832,"stimulus":"\n        <h3>Please read this consent agreement carefully before deciding whether to participate in this experiment.</h3>\n        <p><b>Purpose of the research:</b> To examine how people teach effectively.</p>\n        <p><b>What you will do in this research:</b> You will teach students the weights of different coins.</p>\n        <p><b>Time required:</b> This experiment will take 45 minutes to complete.</p>\n        <p><b>Risks:</b> There are no anticipated risks associated with participating in this study.             The effects of participating should be comparable to those you would experience from viewing a computer monitor             and using a mouse and keyboard for the duration of the experiment.</p>\n        <p><b>Benefits:</b> The study provides important information about the nature of teaching.</p>\n        <p><b>Compensation:</b> You will receive <b>$8</b> for completing the experiment and a performance bonus of up to <b>$9</b>.</p>\n        <p><b>Confidentiality:</b> Your participation in this study will remain confidential.             No personally identifiable information will be associated with your data.             Your de-identified data may be shared with other researchers and used in future projects.</p>\n        <p><b>Participation and withdrawal:</b> Your participation in this study is completely voluntary and             you may refuse to participate or you may choose to withdraw at any time without penalty or loss of\n            benefits to which you are otherwise entitled.</p>\n        <p><b>How to contact the researcher:</b> If you have questions or concerns about your participation            or payment, or want to request a summary of research findings, please contact\n            Alicia Chen, aliciachen@college.harvard.edu.</p>\n        <p><b>Whom to contact about your rights in this research:</b> For questions, concerns, suggestions,             or complaints that have not been or cannot be addressed by the researcher, or to report             research-related harm, please contact the Committee on the Use of Human Subjects in Research at Harvard University,             1414 Massachusetts Avenue, Second Floor, Cambridge, MA 02138. Phone: 617-496-2847. Email: cuhs@fas.harvard.edu.</p>\n        ","response":0,"trial_type":"html-button-response","trial_index":1,"time_elapsed":21694,"internal_node_id":"0.0-1.0","params":{"nStudents":24,"maxFlips":30,"completionMinutes":45,"basePay":8,"maxBonus":9,"perTrialBonus":0.5,"perTrialBonusThreshold":0.1,"exampleCost":0.01},"classroomParams":{"A":{"a":1,"b":4},"B":{"a":4,"b":1},"C":{"a":2,"b":8},"D":{"a":8,"b":2}},"conditions":["nonSeqFull","nonSeqPartial","seqNoFeedback","seqFeedback"],"classroomPairings":[["A","B"],["C","D"]],"coinWeights":[0.2,0.5,0.8],"subjectId":"A10HW8JXM17XLD","assignmentId":"3T3IWE1XG790ITJ1DFM7O9IXXXZQTO","hitId":"341H3G5YF006USP7B7C868W97H9Z08","url":"https://gershmanlab.com/experiments/alicia/teaching/experiment/?hitId=341H3G5YF006USP7B7C868W97H9Z08&workerId=A10HW8JXM17XLD&assignmentId=3T3IWE1XG790ITJ1DFM7O9IXXXZQTO&a=XW3T8&tp_a=XW3T8&b=3T3IWE1XG790ITJ1DFM7O9IXXXZQTO&tp_b=3T3IWE1XG790ITJ1DFM7O9IXXXZQTO&c=365198&tp_c=365198"},{"view_history":[{"page_index":0,"viewing_time":6865},{"page_index":1,"viewing_time":4951},{"page_index":2,"viewing_time":102708},{"page_index":3,"viewing_time":45338},{"page_index":4,"viewing_time":32273},{"page_index":5,"viewing_time":64014},{"page_index":6,"viewing_time":71585}],"rt":327734,"trial_type":"instructions","trial_index":2,"time_elapsed":349428,"internal_node_id":"0.0-2.0-0.0","params":{"nStudents":24,"maxFlips":30,"completionMinutes":45,"basePay":8,"maxBonus":9,"perTrialBonus":0.5,"perTrialBonusThreshold":0.1,"exampleCost":0.01},"classroomParams":{"A":{"a":1,"b":4},"B":{"a":4,"b":1},"C":{"a":2,"b":8},"D":{"a":8,"b":2}},"conditions":["nonSeqFull","nonSeqPartial","seqNoFeedback","seqFeedback"],"classroomPairings":[["A","B"],["C","D"]],"coinWeights":[0.2,0.5,0.8],"subjectId":"A10HW8JXM17XLD","assignmentId":"3T3IWE1XG790ITJ1DFM7O9IXXXZQTO","hitId":"341H3G5YF006USP7B7C868W97H9Z08","url":"https://gershmanlab.com/experiments/alicia/teaching/experiment/?hitId=341H3G5YF006USP7B7C868W97H9Z08&workerId=A10HW8JXM17XLD&assignmentId=3T3IWE1XG790ITJ1DFM7O9IXXXZQTO&a=XW3T8&tp_a=XW3T8&b=3T3IWE1XG790ITJ1DFM7O9IXXXZQTO&tp_b=3T3IWE1XG790ITJ1DFM7O9IXXXZQTO&c=365198&tp_c=365198"},{"rt":197314,"response":{"Q0":"Students in different classrooms will have seen a different number of heads and tails before seeing the examples you select for them.","Q1":"By teaching efficiently and accurately/helpfully at the same time (because each example I give to the student costs money!).","Q2":"The coin lands heads 90% of the time.","Q3":"Yes, I might encounter the same student twice.","Q4":"The students are also on the same alien planet as you, where coins can be unfair.","Q5":"Based on the student's second (and final) guess."},"question_order":[2,1,3,4,5,0],"trial_type":"survey-multi-choice","trial_index":3,"time_elapsed":546744,"internal_node_id":"0.0-2.0-1.0","params":{"nStudents":24,"maxFlips":30,"completionMinutes":45,"basePay":8,"maxBonus":9,"perTrialBonus":0.5,"perTrialBonusThreshold":0.1,"exampleCost":0.01},"classroomParams":{"A":{"a":1,"b":4},"B":{"a":4,"b":1},"C":{"a":2,"b":8},"D":{"a":8,"b":2}},"conditions":["nonSeqFull","nonSeqPartial","seqNoFeedback","seqFeedback"],"classroomPairings":[["A","B"],["C","D"]],"coinWeights":[0.2,0.5,0.8],"subjectId":"A10HW8JXM17XLD","assignmentId":"3T3IWE1XG790ITJ1DFM7O9IXXXZQTO","hitId":"341H3G5YF006USP7B7C868W97H9Z08","url":"https://gershmanlab.com/experiments/alicia/teaching/experiment/?hitId=341H3G5YF006USP7B7C868W97H9Z08&workerId=A10HW8JXM17XLD&assignmentId=3T3IWE1XG790ITJ1DFM7O9IXXXZQTO&a=XW3T8&tp_a=XW3T8&b=3T3IWE1XG790ITJ1DFM7O9IXXXZQTO&tp_b=3T3IWE1XG790ITJ1DFM7O9IXXXZQTO&c=365198&tp_c=365198","pass":false},{"rt":5553,"stimulus":"Oops, you have missed question(s) on the comprehension check! We'll show you the instructions again.","response":0,"trial_type":"html-button-response","trial_index":4,"time_elapsed":552301,"internal_node_id":"0.0-2.0-2.0-0.0","params":{"nStudents":24,"maxFlips":30,"completionMinutes":45,"basePay":8,"maxBonus":9,"perTrialBonus":0.5,"perTrialBonusThreshold":0.1,"exampleCost":0.01},"classroomParams":{"A":{"a":1,"b":4},"B":{"a":4,"b":1},"C":{"a":2,"b":8},"D":{"a":8,"b":2}},"conditions":["nonSeqFull","nonSeqPartial","seqNoFeedback","seqFeedback"],"classroomPairings":[["A","B"],["C","D"]],"coinWeights":[0.2,0.5,0.8],"subjectId":"A10HW8JXM17XLD","assignmentId":"3T3IWE1XG790ITJ1DFM7O9IXXXZQTO","hitId":"341H3G5YF006USP7B7C868W97H9Z08","url":"https://gershmanlab.com/experiments/alicia/teaching/experiment/?hitId=341H3G5YF006USP7B7C868W97H9Z08&workerId=A10HW8JXM17XLD&assignmentId=3T3IWE1XG790ITJ1DFM7O9IXXXZQTO&a=XW3T8&tp_a=XW3T8&b=3T3IWE1XG790ITJ1DFM7O9IXXXZQTO&tp_b=3T3IWE1XG790ITJ1DFM7O9IXXXZQTO&c=365198&tp_c=365198"},{"view_history":[{"page_index":0,"viewing_time":5347},{"page_index":1,"viewing_time":1840},{"page_index":2,"viewing_time":15550},{"page_index":3,"viewing_time":19848},{"page_index":4,"viewing_time":10351},{"page_index":5,"viewing_time":18501},{"page_index":6,"viewing_time":12488}],"rt":83926,"trial_type":"instructions","trial_index":5,"time_elapsed":636229,"internal_node_id":"0.0-2.1-0.1","params":{"nStudents":24,"maxFlips":30,"completionMinutes":45,"basePay":8,"maxBonus":9,"perTrialBonus":0.5,"perTrialBonusThreshold":0.1,"exampleCost":0.01},"classroomParams":{"A":{"a":1,"b":4},"B":{"a":4,"b":1},"C":{"a":2,"b":8},"D":{"a":8,"b":2}},"conditions":["nonSeqFull","nonSeqPartial","seqNoFeedback","seqFeedback"],"classroomPairings":[["A","B"],["C","D"]],"coinWeights":[0.2,0.5,0.8],"subjectId":"A10HW8JXM17XLD","assignmentId":"3T3IWE1XG790ITJ1DFM7O9IXXXZQTO","hitId":"341H3G5YF006USP7B7C868W97H9Z08","url":"https://gershmanlab.com/experiments/alicia/teaching/experiment/?hitId=341H3G5YF006USP7B7C868W97H9Z08&workerId=A10HW8JXM17XLD&assignmentId=3T3IWE1XG790ITJ1DFM7O9IXXXZQTO&a=XW3T8&tp_a=XW3T8&b=3T3IWE1XG790ITJ1DFM7O9IXXXZQTO&tp_b=3T3IWE1XG790ITJ1DFM7O9IXXXZQTO&c=365198&tp_c=365198"},{"rt":51180,"response":{"Q0":"Students in different classrooms have seen a different proportion of fair and unfair coins before seeing the examples you select for them.","Q1":"By teaching efficiently and accurately/helpfully at the same time (because each example I give to the student costs money!).","Q2":"The coin lands heads 90% of the time.","Q3":"Yes, I might encounter the same student twice.","Q4":"The students are also on the same alien planet as you, where coins can be unfair.","Q5":"Based on the student's second (and final) guess."},"question_order":[2,5,3,4,0,1],"trial_type":"survey-multi-choice","trial_index":6,"time_elapsed":687411,"internal_node_id":"0.0-2.1-1.1","params":{"nStudents":24,"maxFlips":30,"completionMinutes":45,"basePay":8,"maxBonus":9,"perTrialBonus":0.5,"perTrialBonusThreshold":0.1,"exampleCost":0.01},"classroomParams":{"A":{"a":1,"b":4},"B":{"a":4,"b":1},"C":{"a":2,"b":8},"D":{"a":8,"b":2}},"conditions":["nonSeqFull","nonSeqPartial","seqNoFeedback","seqFeedback"],"classroomPairings":[["A","B"],["C","D"]],"coinWeights":[0.2,0.5,0.8],"subjectId":"A10HW8JXM17XLD","assignmentId":"3T3IWE1XG790ITJ1DFM7O9IXXXZQTO","hitId":"341H3G5YF006USP7B7C868W97H9Z08","url":"https://gershmanlab.com/experiments/alicia/teaching/experiment/?hitId=341H3G5YF006USP7B7C868W97H9Z08&workerId=A10HW8JXM17XLD&assignmentId=3T3IWE1XG790ITJ1DFM7O9IXXXZQTO&a=XW3T8&tp_a=XW3T8&b=3T3IWE1XG790ITJ1DFM7O9IXXXZQTO&tp_b=3T3IWE1XG790ITJ1DFM7O9IXXXZQTO&c=365198&tp_c=365198","pass":false},{"rt":10334,"stimulus":"Oops, you have missed question(s) on the comprehension check! We'll show you the instructions again.","response":0,"trial_type":"html-button-response","trial_index":7,"time_elapsed":697749,"internal_node_id":"0.0-2.1-2.1-0.1","params":{"nStudents":24,"maxFlips":30,"completionMinutes":45,"basePay":8,"maxBonus":9,"perTrialBonus":0.5,"perTrialBonusThreshold":0.1,"exampleCost":0.01},"classroomParams":{"A":{"a":1,"b":4},"B":{"a":4,"b":1},"C":{"a":2,"b":8},"D":{"a":8,"b":2}},"conditions":["nonSeqFull","nonSeqPartial","seqNoFeedback","seqFeedback"],"classroomPairings":[["A","B"],["C","D"]],"coinWeights":[0.2,0.5,0.8],"subjectId":"A10HW8JXM17XLD","assignmentId":"3T3IWE1XG790ITJ1DFM7O9IXXXZQTO","hitId":"341H3G5YF006USP7B7C868W97H9Z08","url":"https://gershmanlab.com/experiments/alicia/teaching/experiment/?hitId=341H3G5YF006USP7B7C868W97H9Z08&workerId=A10HW8JXM17XLD&assignmentId=3T3IWE1XG790ITJ1DFM7O9IXXXZQTO&a=XW3T8&tp_a=XW3T8&b=3T3IWE1XG790ITJ1DFM7O9IXXXZQTO&tp_b=3T3IWE1XG790ITJ1DFM7O9IXXXZQTO&c=365198&tp_c=365198"},{"view_history":[{"page_index":0,"viewing_time":3852},{"page_index":1,"viewing_time":1383},{"page_index":2,"viewing_time":2261},{"page_index":3,"viewing_time":1841},{"page_index":4,"viewing_time":3310},{"page_index":5,"viewing_time":1507},{"page_index":6,"viewing_time":12165}],"rt":26319,"trial_type":"instructions","trial_index":8,"time_elapsed":724068,"internal_node_id":"0.0-2.2-0.2","params":{"nStudents":24,"maxFlips":30,"completionMinutes":45,"basePay":8,"maxBonus":9,"perTrialBonus":0.5,"perTrialBonusThreshold":0.1,"exampleCost":0.01},"classroomParams":{"A":{"a":1,"b":4},"B":{"a":4,"b":1},"C":{"a":2,"b":8},"D":{"a":8,"b":2}},"conditions":["nonSeqFull","nonSeqPartial","seqNoFeedback","seqFeedback"],"classroomPairings":[["A","B"],["C","D"]],"coinWeights":[0.2,0.5,0.8],"subjectId":"A10HW8JXM17XLD","assignmentId":"3T3IWE1XG790ITJ1DFM7O9IXXXZQTO","hitId":"341H3G5YF006USP7B7C868W97H9Z08","url":"https://gershmanlab.com/experiments/alicia/teaching/experiment/?hitId=341H3G5YF006USP7B7C868W97H9Z08&workerId=A10HW8JXM17XLD&assignmentId=3T3IWE1XG790ITJ1DFM7O9IXXXZQTO&a=XW3T8&tp_a=XW3T8&b=3T3IWE1XG790ITJ1DFM7O9IXXXZQTO&tp_b=3T3IWE1XG790ITJ1DFM7O9IXXXZQTO&c=365198&tp_c=365198"},{"rt":99969,"response":{"Q0":"Students in different classrooms will have seen a different number of heads and tails before seeing the examples you select for them.","Q1":"By teaching efficiently and accurately/helpfully at the same time (because each example I give to the student costs money!).","Q2":"The coin lands heads 90% of the time.","Q3":"No, I will teach a <b>new</b> student each time.","Q4":"The students are also on the same alien planet as you, where coins can be unfair.","Q5":"Based on the student's second (and final) guess."},"question_order":[2,1,0,3,4,5],"trial_type":"survey-multi-choice","trial_index":9,"time_elapsed":824039,"internal_node_id":"0.0-2.2-1.2","params":{"nStudents":24,"maxFlips":30,"completionMinutes":45,"basePay":8,"maxBonus":9,"perTrialBonus":0.5,"perTrialBonusThreshold":0.1,"exampleCost":0.01},"classroomParams":{"A":{"a":1,"b":4},"B":{"a":4,"b":1},"C":{"a":2,"b":8},"D":{"a":8,"b":2}},"conditions":["nonSeqFull","nonSeqPartial","seqNoFeedback","seqFeedback"],"classroomPairings":[["A","B"],["C","D"]],"coinWeights":[0.2,0.5,0.8],"subjectId":"A10HW8JXM17XLD","assignmentId":"3T3IWE1XG790ITJ1DFM7O9IXXXZQTO","hitId":"341H3G5YF006USP7B7C868W97H9Z08","url":"https://gershmanlab.com/experiments/alicia/teaching/experiment/?hitId=341H3G5YF006USP7B7C868W97H9Z08&workerId=A10HW8JXM17XLD&assignmentId=3T3IWE1XG790ITJ1DFM7O9IXXXZQTO&a=XW3T8&tp_a=XW3T8&b=3T3IWE1XG790ITJ1DFM7O9IXXXZQTO&tp_b=3T3IWE1XG790ITJ1DFM7O9IXXXZQTO&c=365198&tp_c=365198","pass":true},{"rt":null,"stimulus":"<div style=\"font-size:30px;\">Congrats on passing the comprehension quiz! The experiment will begin in a few seconds.</div>","response":null,"trial_type":"html-keyboard-response","trial_index":10,"time_elapsed":827047,"internal_node_id":"0.0-3.0","params":{"nStudents":24,"maxFlips":30,"completionMinutes":45,"basePay":8,"maxBonus":9,"perTrialBonus":0.5,"perTrialBonusThreshold":0.1,"exampleCost":0.01},"classroomParams":{"A":{"a":1,"b":4},"B":{"a":4,"b":1},"C":{"a":2,"b":8},"D":{"a":8,"b":2}},"conditions":["nonSeqFull","nonSeqPartial","seqNoFeedback","seqFeedback"],"classroomPairings":[["A","B"],["C","D"]],"coinWeights":[0.2,0.5,0.8],"subjectId":"A10HW8JXM17XLD","assignmentId":"3T3IWE1XG790ITJ1DFM7O9IXXXZQTO","hitId":"341H3G5YF006USP7B7C868W97H9Z08","url":"https://gershmanlab.com/experiments/alicia/teaching/experiment/?hitId=341H3G5YF006USP7B7C868W97H9Z08&workerId=A10HW8JXM17XLD&assignmentId=3T3IWE1XG790ITJ1DFM7O9IXXXZQTO&a=XW3T8&tp_a=XW3T8&b=3T3IWE1XG790ITJ1DFM7O9IXXXZQTO&tp_b=3T3IWE1XG790ITJ1DFM7O9IXXXZQTO&c=365198&tp_c=365198"},{"rt":null,"stimulus":"<div style=\"font-size:50px;\">First student</div>","response":null,"trial_type":"html-keyboard-response","trial_index":11,"time_elapsed":830054,"internal_node_id":"0.0-4.0","params":{"nStudents":24,"maxFlips":30,"completionMinutes":45,"basePay":8,"maxBonus":9,"perTrialBonus":0.5,"perTrialBonusThreshold":0.1,"exampleCost":0.01},"classroomParams":{"A":{"a":1,"b":4},"B":{"a":4,"b":1},"C":{"a":2,"b":8},"D":{"a":8,"b":2}},"conditions":["nonSeqFull","nonSeqPartial","seqNoFeedback","seqFeedback"],"classroomPairings":[["A","B"],["C","D"]],"coinWeights":[0.2,0.5,0.8],"subjectId":"A10HW8JXM17XLD","assignmentId":"3T3IWE1XG790ITJ1DFM7O9IXXXZQTO","hitId":"341H3G5YF006USP7B7C868W97H9Z08","url":"https://gershmanlab.com/experiments/alicia/teaching/experiment/?hitId=341H3G5YF006USP7B7C868W97H9Z08&workerId=A10HW8JXM17XLD&assignmentId=3T3IWE1XG790ITJ1DFM7O9IXXXZQTO&a=XW3T8&tp_a=XW3T8&b=3T3IWE1XG790ITJ1DFM7O9IXXXZQTO&tp_b=3T3IWE1XG790ITJ1DFM7O9IXXXZQTO&c=365198&tp_c=365198"},{"rt":15707,"stimulus":"\n            <h4 style=\"color:Orange;\">Student 1</h4>\n            <h2>The weight of your coin is <b style=\"color:Tomato;\">0.2</b>.</h2>\n            <p>In this block, you will be giving <b>one</b> set of examples to Student 1.</p>\n                <p>You will receive feedback at the end of the block.</p>\n            ","response":0,"trial_type":"html-button-response","trial_index":12,"time_elapsed":845762,"internal_node_id":"0.0-5.0","params":{"nStudents":24,"maxFlips":30,"completionMinutes":45,"basePay":8,"maxBonus":9,"perTrialBonus":0.5,"perTrialBonusThreshold":0.1,"exampleCost":0.01},"classroomParams":{"A":{"a":1,"b":4},"B":{"a":4,"b":1},"C":{"a":2,"b":8},"D":{"a":8,"b":2}},"conditions":["nonSeqFull","nonSeqPartial","seqNoFeedback","seqFeedback"],"classroomPairings":[["A","B"],["C","D"]],"coinWeights":[0.2,0.5,0.8],"subjectId":"A10HW8JXM17XLD","assignmentId":"3T3IWE1XG790ITJ1DFM7O9IXXXZQTO","hitId":"341H3G5YF006USP7B7C868W97H9Z08","url":"https://gershmanlab.com/experiments/alicia/teaching/experiment/?hitId=341H3G5YF006USP7B7C868W97H9Z08&workerId=A10HW8JXM17XLD&assignmentId=3T3IWE1XG790ITJ1DFM7O9IXXXZQTO&a=XW3T8&tp_a=XW3T8&b=3T3IWE1XG790ITJ1DFM7O9IXXXZQTO&tp_b=3T3IWE1XG790ITJ1DFM7O9IXXXZQTO&c=365198&tp_c=365198"},{"rt":155732,"response":{"heads":"1","tails":"4"},"type":"response","condition":"nonSeqFull","trueTheta":0.2,"classrooms":["A","B"],"studentTrueClassroom":"B","exampleSet":"first","trial_type":"survey-html-form","trial_index":13,"time_elapsed":1001497,"internal_node_id":"0.0-6.0-0.0","params":{"nStudents":24,"maxFlips":30,"completionMinutes":45,"basePay":8,"maxBonus":9,"perTrialBonus":0.5,"perTrialBonusThreshold":0.1,"exampleCost":0.01},"classroomParams":{"A":{"a":1,"b":4},"B":{"a":4,"b":1},"C":{"a":2,"b":8},"D":{"a":8,"b":2}},"conditions":["nonSeqFull","nonSeqPartial","seqNoFeedback","seqFeedback"],"classroomPairings":[["A","B"],["C","D"]],"coinWeights":[0.2,0.5,0.8],"subjectId":"A10HW8JXM17XLD","assignmentId":"3T3IWE1XG790ITJ1DFM7O9IXXXZQTO","hitId":"341H3G5YF006USP7B7C868W97H9Z08","url":"https://gershmanlab.com/experiments/alicia/teaching/experiment/?hitId=341H3G5YF006USP7B7C868W97H9Z08&workerId=A10HW8JXM17XLD&assignmentId=3T3IWE1XG790ITJ1DFM7O9IXXXZQTO&a=XW3T8&tp_a=XW3T8&b=3T3IWE1XG790ITJ1DFM7O9IXXXZQTO&tp_b=3T3IWE1XG790ITJ1DFM7O9IXXXZQTO&c=365198&tp_c=365198","heads":1,"tails":4,"studentIndex":0,"studentTrueHypers":{"a":4,"b":1},"studentGuess":0.5,"delta":0.3,"totalExamples":5,"bonus":0,"bonusSoFar":0},{"rt":null,"stimulus":"Sending examples to student... ","response":null,"trial_type":"html-keyboard-response","trial_index":14,"time_elapsed":1003001,"internal_node_id":"0.0-7.0","params":{"nStudents":24,"maxFlips":30,"completionMinutes":45,"basePay":8,"maxBonus":9,"perTrialBonus":0.5,"perTrialBonusThreshold":0.1,"exampleCost":0.01},"classroomParams":{"A":{"a":1,"b":4},"B":{"a":4,"b":1},"C":{"a":2,"b":8},"D":{"a":8,"b":2}},"conditions":["nonSeqFull","nonSeqPartial","seqNoFeedback","seqFeedback"],"classroomPairings":[["A","B"],["C","D"]],"coinWeights":[0.2,0.5,0.8],"subjectId":"A10HW8JXM17XLD","assignmentId":"3T3IWE1XG790ITJ1DFM7O9IXXXZQTO","hitId":"341H3G5YF006USP7B7C868W97H9Z08","url":"https://gershmanlab.com/experiments/alicia/teaching/experiment/?hitId=341H3G5YF006USP7B7C868W97H9Z08&workerId=A10HW8JXM17XLD&assignmentId=3T3IWE1XG790ITJ1DFM7O9IXXXZQTO&a=XW3T8&tp_a=XW3T8&b=3T3IWE1XG790ITJ1DFM7O9IXXXZQTO&tp_b=3T3IWE1XG790ITJ1DFM7O9IXXXZQTO&c=365198&tp_c=365198"},{"rt":null,"stimulus":"Examples sent to student! Waiting for student...","response":null,"trial_type":"html-keyboard-response","trial_index":15,"time_elapsed":1007015,"internal_node_id":"0.0-8.0","params":{"nStudents":24,"maxFlips":30,"completionMinutes":45,"basePay":8,"maxBonus":9,"perTrialBonus":0.5,"perTrialBonusThreshold":0.1,"exampleCost":0.01},"classroomParams":{"A":{"a":1,"b":4},"B":{"a":4,"b":1},"C":{"a":2,"b":8},"D":{"a":8,"b":2}},"conditions":["nonSeqFull","nonSeqPartial","seqNoFeedback","seqFeedback"],"classroomPairings":[["A","B"],["C","D"]],"coinWeights":[0.2,0.5,0.8],"subjectId":"A10HW8JXM17XLD","assignmentId":"3T3IWE1XG790ITJ1DFM7O9IXXXZQTO","hitId":"341H3G5YF006USP7B7C868W97H9Z08","url":"https://gershmanlab.com/experiments/alicia/teaching/experiment/?hitId=341H3G5YF006USP7B7C868W97H9Z08&workerId=A10HW8JXM17XLD&assignmentId=3T3IWE1XG790ITJ1DFM7O9IXXXZQTO&a=XW3T8&tp_a=XW3T8&b=3T3IWE1XG790ITJ1DFM7O9IXXXZQTO&tp_b=3T3IWE1XG790ITJ1DFM7O9IXXXZQTO&c=365198&tp_c=365198"},{"rt":22340,"stimulus":"\n                <p>Student's guess for coin weight: <b style=\"color:Tomato;\">0.50</b></p>\n                <p>You received a bonus of <b>$0</b>. Total bonus so far: <b>$0.00</b></b></p>\n                <p> Press any key to continue.</p>\n                ","response":"meta","trial_type":"html-keyboard-response","trial_index":16,"time_elapsed":1029357,"internal_node_id":"0.0-9.0","params":{"nStudents":24,"maxFlips":30,"completionMinutes":45,"basePay":8,"maxBonus":9,"perTrialBonus":0.5,"perTrialBonusThreshold":0.1,"exampleCost":0.01},"classroomParams":{"A":{"a":1,"b":4},"B":{"a":4,"b":1},"C":{"a":2,"b":8},"D":{"a":8,"b":2}},"conditions":["nonSeqFull","nonSeqPartial","seqNoFeedback","seqFeedback"],"classroomPairings":[["A","B"],["C","D"]],"coinWeights":[0.2,0.5,0.8],"subjectId":"A10HW8JXM17XLD","assignmentId":"3T3IWE1XG790ITJ1DFM7O9IXXXZQTO","hitId":"341H3G5YF006USP7B7C868W97H9Z08","url":"https://gershmanlab.com/experiments/alicia/teaching/experiment/?hitId=341H3G5YF006USP7B7C868W97H9Z08&workerId=A10HW8JXM17XLD&assignmentId=3T3IWE1XG790ITJ1DFM7O9IXXXZQTO&a=XW3T8&tp_a=XW3T8&b=3T3IWE1XG790ITJ1DFM7O9IXXXZQTO&tp_b=3T3IWE1XG790ITJ1DFM7O9IXXXZQTO&c=365198&tp_c=365198"},{"rt":null,"stimulus":"<div style=\"font-size:60px;\">Next student</div>","response":null,"trial_type":"html-keyboard-response","trial_index":17,"time_elapsed":1031617,"internal_node_id":"0.0-10.0-0.0","params":{"nStudents":24,"maxFlips":30,"completionMinutes":45,"basePay":8,"maxBonus":9,"perTrialBonus":0.5,"perTrialBonusThreshold":0.1,"exampleCost":0.01},"classroomParams":{"A":{"a":1,"b":4},"B":{"a":4,"b":1},"C":{"a":2,"b":8},"D":{"a":8,"b":2}},"conditions":["nonSeqFull","nonSeqPartial","seqNoFeedback","seqFeedback"],"classroomPairings":[["A","B"],["C","D"]],"coinWeights":[0.2,0.5,0.8],"subjectId":"A10HW8JXM17XLD","assignmentId":"3T3IWE1XG790ITJ1DFM7O9IXXXZQTO","hitId":"341H3G5YF006USP7B7C868W97H9Z08","url":"https://gershmanlab.com/experiments/alicia/teaching/experiment/?hitId=341H3G5YF006USP7B7C868W97H9Z08&workerId=A10HW8JXM17XLD&assignmentId=3T3IWE1XG790ITJ1DFM7O9IXXXZQTO&a=XW3T8&tp_a=XW3T8&b=3T3IWE1XG790ITJ1DFM7O9IXXXZQTO&tp_b=3T3IWE1XG790ITJ1DFM7O9IXXXZQTO&c=365198&tp_c=365198"},{"rt":9096,"stimulus":"\n            <h4 style=\"color:Orange;\">Student 2</h4>\n            <h2>The weight of your coin is <b style=\"color:Tomato;\">0.5</b>.</h2>\n            <p>In this block, you will be giving <b>two</b> sets of examples to Student 2.</p>\n                <p>You will receive feedback at the end of the block.</p>\n            ","response":0,"trial_type":"html-button-response","trial_index":18,"time_elapsed":1040714,"internal_node_id":"0.0-11.0","params":{"nStudents":24,"maxFlips":30,"completionMinutes":45,"basePay":8,"maxBonus":9,"perTrialBonus":0.5,"perTrialBonusThreshold":0.1,"exampleCost":0.01},"classroomParams":{"A":{"a":1,"b":4},"B":{"a":4,"b":1},"C":{"a":2,"b":8},"D":{"a":8,"b":2}},"conditions":["nonSeqFull","nonSeqPartial","seqNoFeedback","seqFeedback"],"classroomPairings":[["A","B"],["C","D"]],"coinWeights":[0.2,0.5,0.8],"subjectId":"A10HW8JXM17XLD","assignmentId":"3T3IWE1XG790ITJ1DFM7O9IXXXZQTO","hitId":"341H3G5YF006USP7B7C868W97H9Z08","url":"https://gershmanlab.com/experiments/alicia/teaching/experiment/?hitId=341H3G5YF006USP7B7C868W97H9Z08&workerId=A10HW8JXM17XLD&assignmentId=3T3IWE1XG790ITJ1DFM7O9IXXXZQTO&a=XW3T8&tp_a=XW3T8&b=3T3IWE1XG790ITJ1DFM7O9IXXXZQTO&tp_b=3T3IWE1XG790ITJ1DFM7O9IXXXZQTO&c=365198&tp_c=365198"},{"rt":144382,"response":{"heads":"8","tails":"2"},"type":"response","condition":"seqNoFeedback","trueTheta":0.5,"classrooms":["C","D"],"studentTrueClassroom":"D","exampleSet":"first","trial_type":"survey-html-form","trial_index":19,"time_elapsed":1185098,"internal_node_id":"0.0-12.0-0.0","params":{"nStudents":24,"maxFlips":30,"completionMinutes":45,"basePay":8,"maxBonus":9,"perTrialBonus":0.5,"perTrialBonusThreshold":0.1,"exampleCost":0.01},"classroomParams":{"A":{"a":1,"b":4},"B":{"a":4,"b":1},"C":{"a":2,"b":8},"D":{"a":8,"b":2}},"conditions":["nonSeqFull","nonSeqPartial","seqNoFeedback","seqFeedback"],"classroomPairings":[["A","B"],["C","D"]],"coinWeights":[0.2,0.5,0.8],"subjectId":"A10HW8JXM17XLD","assignmentId":"3T3IWE1XG790ITJ1DFM7O9IXXXZQTO","hitId":"341H3G5YF006USP7B7C868W97H9Z08","url":"https://gershmanlab.com/experiments/alicia/teaching/experiment/?hitId=341H3G5YF006USP7B7C868W97H9Z08&workerId=A10HW8JXM17XLD&assignmentId=3T3IWE1XG790ITJ1DFM7O9IXXXZQTO&a=XW3T8&tp_a=XW3T8&b=3T3IWE1XG790ITJ1DFM7O9IXXXZQTO&tp_b=3T3IWE1XG790ITJ1DFM7O9IXXXZQTO&c=365198&tp_c=365198","heads":8,"tails":2,"studentIndex":1,"studentTrueHypers":{"a":8,"b":2},"studentGuess":0.8,"delta":0.30000000000000004,"totalExamples":10,"bonusSoFar":0},{"rt":null,"stimulus":"Sending examples to student... ","response":null,"trial_type":"html-keyboard-response","trial_index":20,"time_elapsed":1187112,"internal_node_id":"0.0-13.0","params":{"nStudents":24,"maxFlips":30,"completionMinutes":45,"basePay":8,"maxBonus":9,"perTrialBonus":0.5,"perTrialBonusThreshold":0.1,"exampleCost":0.01},"classroomParams":{"A":{"a":1,"b":4},"B":{"a":4,"b":1},"C":{"a":2,"b":8},"D":{"a":8,"b":2}},"conditions":["nonSeqFull","nonSeqPartial","seqNoFeedback","seqFeedback"],"classroomPairings":[["A","B"],["C","D"]],"coinWeights":[0.2,0.5,0.8],"subjectId":"A10HW8JXM17XLD","assignmentId":"3T3IWE1XG790ITJ1DFM7O9IXXXZQTO","hitId":"341H3G5YF006USP7B7C868W97H9Z08","url":"https://gershmanlab.com/experiments/alicia/teaching/experiment/?hitId=341H3G5YF006USP7B7C868W97H9Z08&workerId=A10HW8JXM17XLD&assignmentId=3T3IWE1XG790ITJ1DFM7O9IXXXZQTO&a=XW3T8&tp_a=XW3T8&b=3T3IWE1XG790ITJ1DFM7O9IXXXZQTO&tp_b=3T3IWE1XG790ITJ1DFM7O9IXXXZQTO&c=365198&tp_c=365198"},{"rt":null,"stimulus":"Examples sent to student! Waiting for student...","response":null,"trial_type":"html-keyboard-response","trial_index":21,"time_elapsed":1193125,"internal_node_id":"0.0-14.0","params":{"nStudents":24,"maxFlips":30,"completionMinutes":45,"basePay":8,"maxBonus":9,"perTrialBonus":0.5,"perTrialBonusThreshold":0.1,"exampleCost":0.01},"classroomParams":{"A":{"a":1,"b":4},"B":{"a":4,"b":1},"C":{"a":2,"b":8},"D":{"a":8,"b":2}},"conditions":["nonSeqFull","nonSeqPartial","seqNoFeedback","seqFeedback"],"classroomPairings":[["A","B"],["C","D"]],"coinWeights":[0.2,0.5,0.8],"subjectId":"A10HW8JXM17XLD","assignmentId":"3T3IWE1XG790ITJ1DFM7O9IXXXZQTO","hitId":"341H3G5YF006USP7B7C868W97H9Z08","url":"https://gershmanlab.com/experiments/alicia/teaching/experiment/?hitId=341H3G5YF006USP7B7C868W97H9Z08&workerId=A10HW8JXM17XLD&assignmentId=3T3IWE1XG790ITJ1DFM7O9IXXXZQTO&a=XW3T8&tp_a=XW3T8&b=3T3IWE1XG790ITJ1DFM7O9IXXXZQTO&tp_b=3T3IWE1XG790ITJ1DFM7O9IXXXZQTO&c=365198&tp_c=365198"},{"rt":16899,"response":{"heads":"2","tails":"8"},"type":"response","condition":"seqNoFeedback","trueTheta":0.5,"classrooms":["C","D"],"studentTrueClassroom":"D","exampleSet":"second","trial_type":"survey-html-form","trial_index":22,"time_elapsed":1210025,"internal_node_id":"0.0-15.0-0.0","params":{"nStudents":24,"maxFlips":30,"completionMinutes":45,"basePay":8,"maxBonus":9,"perTrialBonus":0.5,"perTrialBonusThreshold":0.1,"exampleCost":0.01},"classroomParams":{"A":{"a":1,"b":4},"B":{"a":4,"b":1},"C":{"a":2,"b":8},"D":{"a":8,"b":2}},"conditions":["nonSeqFull","nonSeqPartial","seqNoFeedback","seqFeedback"],"classroomPairings":[["A","B"],["C","D"]],"coinWeights":[0.2,0.5,0.8],"subjectId":"A10HW8JXM17XLD","assignmentId":"3T3IWE1XG790ITJ1DFM7O9IXXXZQTO","hitId":"341H3G5YF006USP7B7C868W97H9Z08","url":"https://gershmanlab.com/experiments/alicia/teaching/experiment/?hitId=341H3G5YF006USP7B7C868W97H9Z08&workerId=A10HW8JXM17XLD&assignmentId=3T3IWE1XG790ITJ1DFM7O9IXXXZQTO&a=XW3T8&tp_a=XW3T8&b=3T3IWE1XG790ITJ1DFM7O9IXXXZQTO&tp_b=3T3IWE1XG790ITJ1DFM7O9IXXXZQTO&c=365198&tp_c=365198","firstResponseHeads":8,"firstResponseTails":2,"secondResponseHeads":2,"secondResponseTails":8,"studentIndex":1,"studentTrueHypers":{"a":8,"b":2},"studentGuess":0.6,"delta":0.09999999999999998,"bonus":0.3,"bonusSoFar":0.3,"totalExamples":20},{"rt":null,"stimulus":"Sending examples to student... ","response":null,"trial_type":"html-keyboard-response","trial_index":23,"time_elapsed":1211792,"internal_node_id":"0.0-16.0","params":{"nStudents":24,"maxFlips":30,"completionMinutes":45,"basePay":8,"maxBonus":9,"perTrialBonus":0.5,"perTrialBonusThreshold":0.1,"exampleCost":0.01},"classroomParams":{"A":{"a":1,"b":4},"B":{"a":4,"b":1},"C":{"a":2,"b":8},"D":{"a":8,"b":2}},"conditions":["nonSeqFull","nonSeqPartial","seqNoFeedback","seqFeedback"],"classroomPairings":[["A","B"],["C","D"]],"coinWeights":[0.2,0.5,0.8],"subjectId":"A10HW8JXM17XLD","assignmentId":"3T3IWE1XG790ITJ1DFM7O9IXXXZQTO","hitId":"341H3G5YF006USP7B7C868W97H9Z08","url":"https://gershmanlab.com/experiments/alicia/teaching/experiment/?hitId=341H3G5YF006USP7B7C868W97H9Z08&workerId=A10HW8JXM17XLD&assignmentId=3T3IWE1XG790ITJ1DFM7O9IXXXZQTO&a=XW3T8&tp_a=XW3T8&b=3T3IWE1XG790ITJ1DFM7O9IXXXZQTO&tp_b=3T3IWE1XG790ITJ1DFM7O9IXXXZQTO&c=365198&tp_c=365198"},{"rt":null,"stimulus":"Examples sent to student! Waiting for student...","response":null,"trial_type":"html-keyboard-response","trial_index":24,"time_elapsed":1217306,"internal_node_id":"0.0-17.0","params":{"nStudents":24,"maxFlips":30,"completionMinutes":45,"basePay":8,"maxBonus":9,"perTrialBonus":0.5,"perTrialBonusThreshold":0.1,"exampleCost":0.01},"classroomParams":{"A":{"a":1,"b":4},"B":{"a":4,"b":1},"C":{"a":2,"b":8},"D":{"a":8,"b":2}},"conditions":["nonSeqFull","nonSeqPartial","seqNoFeedback","seqFeedback"],"classroomPairings":[["A","B"],["C","D"]],"coinWeights":[0.2,0.5,0.8],"subjectId":"A10HW8JXM17XLD","assignmentId":"3T3IWE1XG790ITJ1DFM7O9IXXXZQTO","hitId":"341H3G5YF006USP7B7C868W97H9Z08","url":"https://gershmanlab.com/experiments/alicia/teaching/experiment/?hitId=341H3G5YF006USP7B7C868W97H9Z08&workerId=A10HW8JXM17XLD&assignmentId=3T3IWE1XG790ITJ1DFM7O9IXXXZQTO&a=XW3T8&tp_a=XW3T8&b=3T3IWE1XG790ITJ1DFM7O9IXXXZQTO&tp_b=3T3IWE1XG790ITJ1DFM7O9IXXXZQTO&c=365198&tp_c=365198"},{"rt":15642,"stimulus":"\n                <p>Student 2's first guess for coin weight: <b style=\"color:Tomato\";>0.80</b></p>\n                <p>Student 2's second guess for coin weight: <b style=\"color:Tomato\";>0.60</b></p>\n                <p>You received a bonus of <b>$0.30</b> based on the student's second guess.</p>\n                <p>Total bonus so far: <b>$0.30</b></p>\n                <p>Press any key to continue.</p>\n                ","response":" ","trial_type":"html-keyboard-response","trial_index":25,"time_elapsed":1232950,"internal_node_id":"0.0-18.0","params":{"nStudents":24,"maxFlips":30,"completionMinutes":45,"basePay":8,"maxBonus":9,"perTrialBonus":0.5,"perTrialBonusThreshold":0.1,"exampleCost":0.01},"classroomParams":{"A":{"a":1,"b":4},"B":{"a":4,"b":1},"C":{"a":2,"b":8},"D":{"a":8,"b":2}},"conditions":["nonSeqFull","nonSeqPartial","seqNoFeedback","seqFeedback"],"classroomPairings":[["A","B"],["C","D"]],"coinWeights":[0.2,0.5,0.8],"subjectId":"A10HW8JXM17XLD","assignmentId":"3T3IWE1XG790ITJ1DFM7O9IXXXZQTO","hitId":"341H3G5YF006USP7B7C868W97H9Z08","url":"https://gershmanlab.com/experiments/alicia/teaching/experiment/?hitId=341H3G5YF006USP7B7C868W97H9Z08&workerId=A10HW8JXM17XLD&assignmentId=3T3IWE1XG790ITJ1DFM7O9IXXXZQTO&a=XW3T8&tp_a=XW3T8&b=3T3IWE1XG790ITJ1DFM7O9IXXXZQTO&tp_b=3T3IWE1XG790ITJ1DFM7O9IXXXZQTO&c=365198&tp_c=365198"},{"rt":null,"stimulus":"<div style=\"font-size:60px;\">Next student</div>","response":null,"trial_type":"html-keyboard-response","trial_index":26,"time_elapsed":1235956,"internal_node_id":"0.0-19.0-0.0","params":{"nStudents":24,"maxFlips":30,"completionMinutes":45,"basePay":8,"maxBonus":9,"perTrialBonus":0.5,"perTrialBonusThreshold":0.1,"exampleCost":0.01},"classroomParams":{"A":{"a":1,"b":4},"B":{"a":4,"b":1},"C":{"a":2,"b":8},"D":{"a":8,"b":2}},"conditions":["nonSeqFull","nonSeqPartial","seqNoFeedback","seqFeedback"],"classroomPairings":[["A","B"],["C","D"]],"coinWeights":[0.2,0.5,0.8],"subjectId":"A10HW8JXM17XLD","assignmentId":"3T3IWE1XG790ITJ1DFM7O9IXXXZQTO","hitId":"341H3G5YF006USP7B7C868W97H9Z08","url":"https://gershmanlab.com/experiments/alicia/teaching/experiment/?hitId=341H3G5YF006USP7B7C868W97H9Z08&workerId=A10HW8JXM17XLD&assignmentId=3T3IWE1XG790ITJ1DFM7O9IXXXZQTO&a=XW3T8&tp_a=XW3T8&b=3T3IWE1XG790ITJ1DFM7O9IXXXZQTO&tp_b=3T3IWE1XG790ITJ1DFM7O9IXXXZQTO&c=365198&tp_c=365198"},{"rt":10683,"stimulus":"\n            <h4 style=\"color:Orange;\">Student 3</h4>\n            <h2>The weight of your coin is <b style=\"color:Tomato;\">0.2</b>.</h2>\n            <p>In this block, you will be giving <b>two</b> sets of examples to Student 3.</p>\n                <p>You will see the student's guess after the first set of examples. You will also receive feedback at the end of the block.</p>\n            ","response":0,"trial_type":"html-button-response","trial_index":27,"time_elapsed":1246640,"internal_node_id":"0.0-20.0","params":{"nStudents":24,"maxFlips":30,"completionMinutes":45,"basePay":8,"maxBonus":9,"perTrialBonus":0.5,"perTrialBonusThreshold":0.1,"exampleCost":0.01},"classroomParams":{"A":{"a":1,"b":4},"B":{"a":4,"b":1},"C":{"a":2,"b":8},"D":{"a":8,"b":2}},"conditions":["nonSeqFull","nonSeqPartial","seqNoFeedback","seqFeedback"],"classroomPairings":[["A","B"],["C","D"]],"coinWeights":[0.2,0.5,0.8],"subjectId":"A10HW8JXM17XLD","assignmentId":"3T3IWE1XG790ITJ1DFM7O9IXXXZQTO","hitId":"341H3G5YF006USP7B7C868W97H9Z08","url":"https://gershmanlab.com/experiments/alicia/teaching/experiment/?hitId=341H3G5YF006USP7B7C868W97H9Z08&workerId=A10HW8JXM17XLD&assignmentId=3T3IWE1XG790ITJ1DFM7O9IXXXZQTO&a=XW3T8&tp_a=XW3T8&b=3T3IWE1XG790ITJ1DFM7O9IXXXZQTO&tp_b=3T3IWE1XG790ITJ1DFM7O9IXXXZQTO&c=365198&tp_c=365198"},{"rt":87158,"response":{"heads":"1","tails":"4"},"type":"response","condition":"seqFeedback","trueTheta":0.2,"classrooms":["A","B"],"studentTrueClassroom":"B","exampleSet":"first","trial_type":"survey-html-form","trial_index":28,"time_elapsed":1333799,"internal_node_id":"0.0-21.0-0.0","params":{"nStudents":24,"maxFlips":30,"completionMinutes":45,"basePay":8,"maxBonus":9,"perTrialBonus":0.5,"perTrialBonusThreshold":0.1,"exampleCost":0.01},"classroomParams":{"A":{"a":1,"b":4},"B":{"a":4,"b":1},"C":{"a":2,"b":8},"D":{"a":8,"b":2}},"conditions":["nonSeqFull","nonSeqPartial","seqNoFeedback","seqFeedback"],"classroomPairings":[["A","B"],["C","D"]],"coinWeights":[0.2,0.5,0.8],"subjectId":"A10HW8JXM17XLD","assignmentId":"3T3IWE1XG790ITJ1DFM7O9IXXXZQTO","hitId":"341H3G5YF006USP7B7C868W97H9Z08","url":"https://gershmanlab.com/experiments/alicia/teaching/experiment/?hitId=341H3G5YF006USP7B7C868W97H9Z08&workerId=A10HW8JXM17XLD&assignmentId=3T3IWE1XG790ITJ1DFM7O9IXXXZQTO&a=XW3T8&tp_a=XW3T8&b=3T3IWE1XG790ITJ1DFM7O9IXXXZQTO&tp_b=3T3IWE1XG790ITJ1DFM7O9IXXXZQTO&c=365198&tp_c=365198","heads":1,"tails":4,"studentIndex":2,"studentTrueHypers":{"a":4,"b":1},"studentGuess":0.5,"delta":0.3,"totalExamples":5,"bonusSoFar":0.3},{"rt":null,"stimulus":"Sending examples to student... ","response":null,"trial_type":"html-keyboard-response","trial_index":29,"time_elapsed":1335814,"internal_node_id":"0.0-22.0","params":{"nStudents":24,"maxFlips":30,"completionMinutes":45,"basePay":8,"maxBonus":9,"perTrialBonus":0.5,"perTrialBonusThreshold":0.1,"exampleCost":0.01},"classroomParams":{"A":{"a":1,"b":4},"B":{"a":4,"b":1},"C":{"a":2,"b":8},"D":{"a":8,"b":2}},"conditions":["nonSeqFull","nonSeqPartial","seqNoFeedback","seqFeedback"],"classroomPairings":[["A","B"],["C","D"]],"coinWeights":[0.2,0.5,0.8],"subjectId":"A10HW8JXM17XLD","assignmentId":"3T3IWE1XG790ITJ1DFM7O9IXXXZQTO","hitId":"341H3G5YF006USP7B7C868W97H9Z08","url":"https://gershmanlab.com/experiments/alicia/teaching/experiment/?hitId=341H3G5YF006USP7B7C868W97H9Z08&workerId=A10HW8JXM17XLD&assignmentId=3T3IWE1XG790ITJ1DFM7O9IXXXZQTO&a=XW3T8&tp_a=XW3T8&b=3T3IWE1XG790ITJ1DFM7O9IXXXZQTO&tp_b=3T3IWE1XG790ITJ1DFM7O9IXXXZQTO&c=365198&tp_c=365198"},{"rt":null,"stimulus":"Examples sent to student! Waiting for student...","response":null,"trial_type":"html-keyboard-response","trial_index":30,"time_elapsed":1340828,"internal_node_id":"0.0-23.0","params":{"nStudents":24,"maxFlips":30,"completionMinutes":45,"basePay":8,"maxBonus":9,"perTrialBonus":0.5,"perTrialBonusThreshold":0.1,"exampleCost":0.01},"classroomParams":{"A":{"a":1,"b":4},"B":{"a":4,"b":1},"C":{"a":2,"b":8},"D":{"a":8,"b":2}},"conditions":["nonSeqFull","nonSeqPartial","seqNoFeedback","seqFeedback"],"classroomPairings":[["A","B"],["C","D"]],"coinWeights":[0.2,0.5,0.8],"subjectId":"A10HW8JXM17XLD","assignmentId":"3T3IWE1XG790ITJ1DFM7O9IXXXZQTO","hitId":"341H3G5YF006USP7B7C868W97H9Z08","url":"https://gershmanlab.com/experiments/alicia/teaching/experiment/?hitId=341H3G5YF006USP7B7C868W97H9Z08&workerId=A10HW8JXM17XLD&assignmentId=3T3IWE1XG790ITJ1DFM7O9IXXXZQTO&a=XW3T8&tp_a=XW3T8&b=3T3IWE1XG790ITJ1DFM7O9IXXXZQTO&tp_b=3T3IWE1XG790ITJ1DFM7O9IXXXZQTO&c=365198&tp_c=365198"},{"rt":19532,"stimulus":"\n                <p>Student's guess for coin weight: <b style=\"color:Tomato;\">0.50</b></p>\n                <p></b></p>\n                <p>You will now send another set of examples to your student. Press any key to continue.</p>\n                ","response":"meta","trial_type":"html-keyboard-response","trial_index":31,"time_elapsed":1360361,"internal_node_id":"0.0-24.0","params":{"nStudents":24,"maxFlips":30,"completionMinutes":45,"basePay":8,"maxBonus":9,"perTrialBonus":0.5,"perTrialBonusThreshold":0.1,"exampleCost":0.01},"classroomParams":{"A":{"a":1,"b":4},"B":{"a":4,"b":1},"C":{"a":2,"b":8},"D":{"a":8,"b":2}},"conditions":["nonSeqFull","nonSeqPartial","seqNoFeedback","seqFeedback"],"classroomPairings":[["A","B"],["C","D"]],"coinWeights":[0.2,0.5,0.8],"subjectId":"A10HW8JXM17XLD","assignmentId":"3T3IWE1XG790ITJ1DFM7O9IXXXZQTO","hitId":"341H3G5YF006USP7B7C868W97H9Z08","url":"https://gershmanlab.com/experiments/alicia/teaching/experiment/?hitId=341H3G5YF006USP7B7C868W97H9Z08&workerId=A10HW8JXM17XLD&assignmentId=3T3IWE1XG790ITJ1DFM7O9IXXXZQTO&a=XW3T8&tp_a=XW3T8&b=3T3IWE1XG790ITJ1DFM7O9IXXXZQTO&tp_b=3T3IWE1XG790ITJ1DFM7O9IXXXZQTO&c=365198&tp_c=365198"},{"rt":62564,"response":{"heads":"1","tails":"4"},"type":"response","condition":"seqFeedback","trueTheta":0.2,"classrooms":["A","B"],"studentTrueClassroom":"B","exampleSet":"second","trial_type":"survey-html-form","trial_index":32,"time_elapsed":1422928,"internal_node_id":"0.0-25.0-0.0","params":{"nStudents":24,"maxFlips":30,"completionMinutes":45,"basePay":8,"maxBonus":9,"perTrialBonus":0.5,"perTrialBonusThreshold":0.1,"exampleCost":0.01},"classroomParams":{"A":{"a":1,"b":4},"B":{"a":4,"b":1},"C":{"a":2,"b":8},"D":{"a":8,"b":2}},"conditions":["nonSeqFull","nonSeqPartial","seqNoFeedback","seqFeedback"],"classroomPairings":[["A","B"],["C","D"]],"coinWeights":[0.2,0.5,0.8],"subjectId":"A10HW8JXM17XLD","assignmentId":"3T3IWE1XG790ITJ1DFM7O9IXXXZQTO","hitId":"341H3G5YF006USP7B7C868W97H9Z08","url":"https://gershmanlab.com/experiments/alicia/teaching/experiment/?hitId=341H3G5YF006USP7B7C868W97H9Z08&workerId=A10HW8JXM17XLD&assignmentId=3T3IWE1XG790ITJ1DFM7O9IXXXZQTO&a=XW3T8&tp_a=XW3T8&b=3T3IWE1XG790ITJ1DFM7O9IXXXZQTO&tp_b=3T3IWE1XG790ITJ1DFM7O9IXXXZQTO&c=365198&tp_c=365198","firstResponseHeads":1,"firstResponseTails":4,"secondResponseHeads":1,"secondResponseTails":4,"studentIndex":2,"studentTrueHypers":{"a":4,"b":1},"studentGuess":0.4,"delta":0.2,"bonus":0,"bonusSoFar":0.3,"totalExamples":10},{"rt":null,"stimulus":"Sending examples to student... ","response":null,"trial_type":"html-keyboard-response","trial_index":33,"time_elapsed":1424942,"internal_node_id":"0.0-26.0","params":{"nStudents":24,"maxFlips":30,"completionMinutes":45,"basePay":8,"maxBonus":9,"perTrialBonus":0.5,"perTrialBonusThreshold":0.1,"exampleCost":0.01},"classroomParams":{"A":{"a":1,"b":4},"B":{"a":4,"b":1},"C":{"a":2,"b":8},"D":{"a":8,"b":2}},"conditions":["nonSeqFull","nonSeqPartial","seqNoFeedback","seqFeedback"],"classroomPairings":[["A","B"],["C","D"]],"coinWeights":[0.2,0.5,0.8],"subjectId":"A10HW8JXM17XLD","assignmentId":"3T3IWE1XG790ITJ1DFM7O9IXXXZQTO","hitId":"341H3G5YF006USP7B7C868W97H9Z08","url":"https://gershmanlab.com/experiments/alicia/teaching/experiment/?hitId=341H3G5YF006USP7B7C868W97H9Z08&workerId=A10HW8JXM17XLD&assignmentId=3T3IWE1XG790ITJ1DFM7O9IXXXZQTO&a=XW3T8&tp_a=XW3T8&b=3T3IWE1XG790ITJ1DFM7O9IXXXZQTO&tp_b=3T3IWE1XG790ITJ1DFM7O9IXXXZQTO&c=365198&tp_c=365198"},{"rt":null,"stimulus":"Examples sent to student! Waiting for student...","response":null,"trial_type":"html-keyboard-response","trial_index":34,"time_elapsed":1429454,"internal_node_id":"0.0-27.0","params":{"nStudents":24,"maxFlips":30,"completionMinutes":45,"basePay":8,"maxBonus":9,"perTrialBonus":0.5,"perTrialBonusThreshold":0.1,"exampleCost":0.01},"classroomParams":{"A":{"a":1,"b":4},"B":{"a":4,"b":1},"C":{"a":2,"b":8},"D":{"a":8,"b":2}},"conditions":["nonSeqFull","nonSeqPartial","seqNoFeedback","seqFeedback"],"classroomPairings":[["A","B"],["C","D"]],"coinWeights":[0.2,0.5,0.8],"subjectId":"A10HW8JXM17XLD","assignmentId":"3T3IWE1XG790ITJ1DFM7O9IXXXZQTO","hitId":"341H3G5YF006USP7B7C868W97H9Z08","url":"https://gershmanlab.com/experiments/alicia/teaching/experiment/?hitId=341H3G5YF006USP7B7C868W97H9Z08&workerId=A10HW8JXM17XLD&assignmentId=3T3IWE1XG790ITJ1DFM7O9IXXXZQTO&a=XW3T8&tp_a=XW3T8&b=3T3IWE1XG790ITJ1DFM7O9IXXXZQTO&tp_b=3T3IWE1XG790ITJ1DFM7O9IXXXZQTO&c=365198&tp_c=365198"},{"rt":3396,"stimulus":"\n                <p>Student 3's first guess for coin weight: <b style=\"color:Tomato\";>0.50</b></p>\n                <p>Student 3's second guess for coin weight: <b style=\"color:Tomato\";>0.40</b></p>\n                <p>You received a bonus of <b>$0.00</b> based on the student's second guess.</p>\n                <p>Total bonus so far: <b>$0.30</b></p>\n                <p>Press any key to continue.</p>\n                ","response":"meta","trial_type":"html-keyboard-response","trial_index":35,"time_elapsed":1432850,"internal_node_id":"0.0-28.0","params":{"nStudents":24,"maxFlips":30,"completionMinutes":45,"basePay":8,"maxBonus":9,"perTrialBonus":0.5,"perTrialBonusThreshold":0.1,"exampleCost":0.01},"classroomParams":{"A":{"a":1,"b":4},"B":{"a":4,"b":1},"C":{"a":2,"b":8},"D":{"a":8,"b":2}},"conditions":["nonSeqFull","nonSeqPartial","seqNoFeedback","seqFeedback"],"classroomPairings":[["A","B"],["C","D"]],"coinWeights":[0.2,0.5,0.8],"subjectId":"A10HW8JXM17XLD","assignmentId":"3T3IWE1XG790ITJ1DFM7O9IXXXZQTO","hitId":"341H3G5YF006USP7B7C868W97H9Z08","url":"https://gershmanlab.com/experiments/alicia/teaching/experiment/?hitId=341H3G5YF006USP7B7C868W97H9Z08&workerId=A10HW8JXM17XLD&assignmentId=3T3IWE1XG790ITJ1DFM7O9IXXXZQTO&a=XW3T8&tp_a=XW3T8&b=3T3IWE1XG790ITJ1DFM7O9IXXXZQTO&tp_b=3T3IWE1XG790ITJ1DFM7O9IXXXZQTO&c=365198&tp_c=365198"},{"rt":null,"stimulus":"<div style=\"font-size:60px;\">Next student</div>","response":null,"trial_type":"html-keyboard-response","trial_index":36,"time_elapsed":1435361,"internal_node_id":"0.0-29.0-0.0","params":{"nStudents":24,"maxFlips":30,"completionMinutes":45,"basePay":8,"maxBonus":9,"perTrialBonus":0.5,"perTrialBonusThreshold":0.1,"exampleCost":0.01},"classroomParams":{"A":{"a":1,"b":4},"B":{"a":4,"b":1},"C":{"a":2,"b":8},"D":{"a":8,"b":2}},"conditions":["nonSeqFull","nonSeqPartial","seqNoFeedback","seqFeedback"],"classroomPairings":[["A","B"],["C","D"]],"coinWeights":[0.2,0.5,0.8],"subjectId":"A10HW8JXM17XLD","assignmentId":"3T3IWE1XG790ITJ1DFM7O9IXXXZQTO","hitId":"341H3G5YF006USP7B7C868W97H9Z08","url":"https://gershmanlab.com/experiments/alicia/teaching/experiment/?hitId=341H3G5YF006USP7B7C868W97H9Z08&workerId=A10HW8JXM17XLD&assignmentId=3T3IWE1XG790ITJ1DFM7O9IXXXZQTO&a=XW3T8&tp_a=XW3T8&b=3T3IWE1XG790ITJ1DFM7O9IXXXZQTO&tp_b=3T3IWE1XG790ITJ1DFM7O9IXXXZQTO&c=365198&tp_c=365198"},{"rt":10049,"stimulus":"\n            <h4 style=\"color:Orange;\">Student 4</h4>\n            <h2>The weight of your coin is <b style=\"color:Tomato;\">0.8</b>.</h2>\n            <p>In this block, you will be giving <b>two</b> sets of examples to Student 4.</p>\n                <p>You will receive feedback at the end of the block.</p>\n            ","response":0,"trial_type":"html-button-response","trial_index":37,"time_elapsed":1445411,"internal_node_id":"0.0-30.0","params":{"nStudents":24,"maxFlips":30,"completionMinutes":45,"basePay":8,"maxBonus":9,"perTrialBonus":0.5,"perTrialBonusThreshold":0.1,"exampleCost":0.01},"classroomParams":{"A":{"a":1,"b":4},"B":{"a":4,"b":1},"C":{"a":2,"b":8},"D":{"a":8,"b":2}},"conditions":["nonSeqFull","nonSeqPartial","seqNoFeedback","seqFeedback"],"classroomPairings":[["A","B"],["C","D"]],"coinWeights":[0.2,0.5,0.8],"subjectId":"A10HW8JXM17XLD","assignmentId":"3T3IWE1XG790ITJ1DFM7O9IXXXZQTO","hitId":"341H3G5YF006USP7B7C868W97H9Z08","url":"https://gershmanlab.com/experiments/alicia/teaching/experiment/?hitId=341H3G5YF006USP7B7C868W97H9Z08&workerId=A10HW8JXM17XLD&assignmentId=3T3IWE1XG790ITJ1DFM7O9IXXXZQTO&a=XW3T8&tp_a=XW3T8&b=3T3IWE1XG790ITJ1DFM7O9IXXXZQTO&tp_b=3T3IWE1XG790ITJ1DFM7O9IXXXZQTO&c=365198&tp_c=365198"},{"rt":62600,"response":{"heads":"4","tails":"1"},"type":"response","condition":"seqNoFeedback","trueTheta":0.8,"classrooms":["A","B"],"studentTrueClassroom":"A","exampleSet":"first","trial_type":"survey-html-form","trial_index":38,"time_elapsed":1508012,"internal_node_id":"0.0-31.0-0.0","params":{"nStudents":24,"maxFlips":30,"completionMinutes":45,"basePay":8,"maxBonus":9,"perTrialBonus":0.5,"perTrialBonusThreshold":0.1,"exampleCost":0.01},"classroomParams":{"A":{"a":1,"b":4},"B":{"a":4,"b":1},"C":{"a":2,"b":8},"D":{"a":8,"b":2}},"conditions":["nonSeqFull","nonSeqPartial","seqNoFeedback","seqFeedback"],"classroomPairings":[["A","B"],["C","D"]],"coinWeights":[0.2,0.5,0.8],"subjectId":"A10HW8JXM17XLD","assignmentId":"3T3IWE1XG790ITJ1DFM7O9IXXXZQTO","hitId":"341H3G5YF006USP7B7C868W97H9Z08","url":"https://gershmanlab.com/experiments/alicia/teaching/experiment/?hitId=341H3G5YF006USP7B7C868W97H9Z08&workerId=A10HW8JXM17XLD&assignmentId=3T3IWE1XG790ITJ1DFM7O9IXXXZQTO&a=XW3T8&tp_a=XW3T8&b=3T3IWE1XG790ITJ1DFM7O9IXXXZQTO&tp_b=3T3IWE1XG790ITJ1DFM7O9IXXXZQTO&c=365198&tp_c=365198","heads":4,"tails":1,"studentIndex":3,"studentTrueHypers":{"a":1,"b":4},"studentGuess":0.5,"delta":0.30000000000000004,"totalExamples":5,"bonusSoFar":0.3},{"rt":null,"stimulus":"Sending examples to student... ","response":null,"trial_type":"html-keyboard-response","trial_index":39,"time_elapsed":1509774,"internal_node_id":"0.0-32.0","params":{"nStudents":24,"maxFlips":30,"completionMinutes":45,"basePay":8,"maxBonus":9,"perTrialBonus":0.5,"perTrialBonusThreshold":0.1,"exampleCost":0.01},"classroomParams":{"A":{"a":1,"b":4},"B":{"a":4,"b":1},"C":{"a":2,"b":8},"D":{"a":8,"b":2}},"conditions":["nonSeqFull","nonSeqPartial","seqNoFeedback","seqFeedback"],"classroomPairings":[["A","B"],["C","D"]],"coinWeights":[0.2,0.5,0.8],"subjectId":"A10HW8JXM17XLD","assignmentId":"3T3IWE1XG790ITJ1DFM7O9IXXXZQTO","hitId":"341H3G5YF006USP7B7C868W97H9Z08","url":"https://gershmanlab.com/experiments/alicia/teaching/experiment/?hitId=341H3G5YF006USP7B7C868W97H9Z08&workerId=A10HW8JXM17XLD&assignmentId=3T3IWE1XG790ITJ1DFM7O9IXXXZQTO&a=XW3T8&tp_a=XW3T8&b=3T3IWE1XG790ITJ1DFM7O9IXXXZQTO&tp_b=3T3IWE1XG790ITJ1DFM7O9IXXXZQTO&c=365198&tp_c=365198"},{"rt":null,"stimulus":"Examples sent to student! Waiting for student...","response":null,"trial_type":"html-keyboard-response","trial_index":40,"time_elapsed":1513790,"internal_node_id":"0.0-33.0","params":{"nStudents":24,"maxFlips":30,"completionMinutes":45,"basePay":8,"maxBonus":9,"perTrialBonus":0.5,"perTrialBonusThreshold":0.1,"exampleCost":0.01},"classroomParams":{"A":{"a":1,"b":4},"B":{"a":4,"b":1},"C":{"a":2,"b":8},"D":{"a":8,"b":2}},"conditions":["nonSeqFull","nonSeqPartial","seqNoFeedback","seqFeedback"],"classroomPairings":[["A","B"],["C","D"]],"coinWeights":[0.2,0.5,0.8],"subjectId":"A10HW8JXM17XLD","assignmentId":"3T3IWE1XG790ITJ1DFM7O9IXXXZQTO","hitId":"341H3G5YF006USP7B7C868W97H9Z08","url":"https://gershmanlab.com/experiments/alicia/teaching/experiment/?hitId=341H3G5YF006USP7B7C868W97H9Z08&workerId=A10HW8JXM17XLD&assignmentId=3T3IWE1XG790ITJ1DFM7O9IXXXZQTO&a=XW3T8&tp_a=XW3T8&b=3T3IWE1XG790ITJ1DFM7O9IXXXZQTO&tp_b=3T3IWE1XG790ITJ1DFM7O9IXXXZQTO&c=365198&tp_c=365198"},{"rt":15358,"response":{"heads":"4","tails":"1"},"type":"response","condition":"seqNoFeedback","trueTheta":0.8,"classrooms":["A","B"],"studentTrueClassroom":"A","exampleSet":"second","trial_type":"survey-html-form","trial_index":41,"time_elapsed":1529150,"internal_node_id":"0.0-34.0-0.0","params":{"nStudents":24,"maxFlips":30,"completionMinutes":45,"basePay":8,"maxBonus":9,"perTrialBonus":0.5,"perTrialBonusThreshold":0.1,"exampleCost":0.01},"classroomParams":{"A":{"a":1,"b":4},"B":{"a":4,"b":1},"C":{"a":2,"b":8},"D":{"a":8,"b":2}},"conditions":["nonSeqFull","nonSeqPartial","seqNoFeedback","seqFeedback"],"classroomPairings":[["A","B"],["C","D"]],"coinWeights":[0.2,0.5,0.8],"subjectId":"A10HW8JXM17XLD","assignmentId":"3T3IWE1XG790ITJ1DFM7O9IXXXZQTO","hitId":"341H3G5YF006USP7B7C868W97H9Z08","url":"https://gershmanlab.com/experiments/alicia/teaching/experiment/?hitId=341H3G5YF006USP7B7C868W97H9Z08&workerId=A10HW8JXM17XLD&assignmentId=3T3IWE1XG790ITJ1DFM7O9IXXXZQTO&a=XW3T8&tp_a=XW3T8&b=3T3IWE1XG790ITJ1DFM7O9IXXXZQTO&tp_b=3T3IWE1XG790ITJ1DFM7O9IXXXZQTO&c=365198&tp_c=365198","firstResponseHeads":4,"firstResponseTails":1,"secondResponseHeads":4,"secondResponseTails":1,"studentIndex":3,"studentTrueHypers":{"a":1,"b":4},"studentGuess":0.6,"delta":0.20000000000000007,"bonus":0,"bonusSoFar":0.3,"totalExamples":10},{"rt":null,"stimulus":"Sending examples to student... ","response":null,"trial_type":"html-keyboard-response","trial_index":42,"time_elapsed":1530907,"internal_node_id":"0.0-35.0","params":{"nStudents":24,"maxFlips":30,"completionMinutes":45,"basePay":8,"maxBonus":9,"perTrialBonus":0.5,"perTrialBonusThreshold":0.1,"exampleCost":0.01},"classroomParams":{"A":{"a":1,"b":4},"B":{"a":4,"b":1},"C":{"a":2,"b":8},"D":{"a":8,"b":2}},"conditions":["nonSeqFull","nonSeqPartial","seqNoFeedback","seqFeedback"],"classroomPairings":[["A","B"],["C","D"]],"coinWeights":[0.2,0.5,0.8],"subjectId":"A10HW8JXM17XLD","assignmentId":"3T3IWE1XG790ITJ1DFM7O9IXXXZQTO","hitId":"341H3G5YF006USP7B7C868W97H9Z08","url":"https://gershmanlab.com/experiments/alicia/teaching/experiment/?hitId=341H3G5YF006USP7B7C868W97H9Z08&workerId=A10HW8JXM17XLD&assignmentId=3T3IWE1XG790ITJ1DFM7O9IXXXZQTO&a=XW3T8&tp_a=XW3T8&b=3T3IWE1XG790ITJ1DFM7O9IXXXZQTO&tp_b=3T3IWE1XG790ITJ1DFM7O9IXXXZQTO&c=365198&tp_c=365198"},{"rt":null,"stimulus":"Examples sent to student! Waiting for student...","response":null,"trial_type":"html-keyboard-response","trial_index":43,"time_elapsed":1536421,"internal_node_id":"0.0-36.0","params":{"nStudents":24,"maxFlips":30,"completionMinutes":45,"basePay":8,"maxBonus":9,"perTrialBonus":0.5,"perTrialBonusThreshold":0.1,"exampleCost":0.01},"classroomParams":{"A":{"a":1,"b":4},"B":{"a":4,"b":1},"C":{"a":2,"b":8},"D":{"a":8,"b":2}},"conditions":["nonSeqFull","nonSeqPartial","seqNoFeedback","seqFeedback"],"classroomPairings":[["A","B"],["C","D"]],"coinWeights":[0.2,0.5,0.8],"subjectId":"A10HW8JXM17XLD","assignmentId":"3T3IWE1XG790ITJ1DFM7O9IXXXZQTO","hitId":"341H3G5YF006USP7B7C868W97H9Z08","url":"https://gershmanlab.com/experiments/alicia/teaching/experiment/?hitId=341H3G5YF006USP7B7C868W97H9Z08&workerId=A10HW8JXM17XLD&assignmentId=3T3IWE1XG790ITJ1DFM7O9IXXXZQTO&a=XW3T8&tp_a=XW3T8&b=3T3IWE1XG790ITJ1DFM7O9IXXXZQTO&tp_b=3T3IWE1XG790ITJ1DFM7O9IXXXZQTO&c=365198&tp_c=365198"},{"rt":13011,"stimulus":"\n                <p>Student 4's first guess for coin weight: <b style=\"color:Tomato\";>0.50</b></p>\n                <p>Student 4's second guess for coin weight: <b style=\"color:Tomato\";>0.60</b></p>\n                <p>You received a bonus of <b>$0.00</b> based on the student's second guess.</p>\n                <p>Total bonus so far: <b>$0.30</b></p>\n                <p>Press any key to continue.</p>\n                ","response":"meta","trial_type":"html-keyboard-response","trial_index":44,"time_elapsed":1549433,"internal_node_id":"0.0-37.0","params":{"nStudents":24,"maxFlips":30,"completionMinutes":45,"basePay":8,"maxBonus":9,"perTrialBonus":0.5,"perTrialBonusThreshold":0.1,"exampleCost":0.01},"classroomParams":{"A":{"a":1,"b":4},"B":{"a":4,"b":1},"C":{"a":2,"b":8},"D":{"a":8,"b":2}},"conditions":["nonSeqFull","nonSeqPartial","seqNoFeedback","seqFeedback"],"classroomPairings":[["A","B"],["C","D"]],"coinWeights":[0.2,0.5,0.8],"subjectId":"A10HW8JXM17XLD","assignmentId":"3T3IWE1XG790ITJ1DFM7O9IXXXZQTO","hitId":"341H3G5YF006USP7B7C868W97H9Z08","url":"https://gershmanlab.com/experiments/alicia/teaching/experiment/?hitId=341H3G5YF006USP7B7C868W97H9Z08&workerId=A10HW8JXM17XLD&assignmentId=3T3IWE1XG790ITJ1DFM7O9IXXXZQTO&a=XW3T8&tp_a=XW3T8&b=3T3IWE1XG790ITJ1DFM7O9IXXXZQTO&tp_b=3T3IWE1XG790ITJ1DFM7O9IXXXZQTO&c=365198&tp_c=365198"},{"rt":null,"stimulus":"<div style=\"font-size:60px;\">Next student</div>","response":null,"trial_type":"html-keyboard-response","trial_index":45,"time_elapsed":1551447,"internal_node_id":"0.0-38.0-0.0","params":{"nStudents":24,"maxFlips":30,"completionMinutes":45,"basePay":8,"maxBonus":9,"perTrialBonus":0.5,"perTrialBonusThreshold":0.1,"exampleCost":0.01},"classroomParams":{"A":{"a":1,"b":4},"B":{"a":4,"b":1},"C":{"a":2,"b":8},"D":{"a":8,"b":2}},"conditions":["nonSeqFull","nonSeqPartial","seqNoFeedback","seqFeedback"],"classroomPairings":[["A","B"],["C","D"]],"coinWeights":[0.2,0.5,0.8],"subjectId":"A10HW8JXM17XLD","assignmentId":"3T3IWE1XG790ITJ1DFM7O9IXXXZQTO","hitId":"341H3G5YF006USP7B7C868W97H9Z08","url":"https://gershmanlab.com/experiments/alicia/teaching/experiment/?hitId=341H3G5YF006USP7B7C868W97H9Z08&workerId=A10HW8JXM17XLD&assignmentId=3T3IWE1XG790ITJ1DFM7O9IXXXZQTO&a=XW3T8&tp_a=XW3T8&b=3T3IWE1XG790ITJ1DFM7O9IXXXZQTO&tp_b=3T3IWE1XG790ITJ1DFM7O9IXXXZQTO&c=365198&tp_c=365198"},{"rt":4607,"stimulus":"\n            <h4 style=\"color:Orange;\">Student 5</h4>\n            <h2>The weight of your coin is <b style=\"color:Tomato;\">0.8</b>.</h2>\n            <p>In this block, you will be giving <b>one</b> set of examples to Student 5.</p>\n                <p>You will receive feedback at the end of the block.</p>\n            ","response":0,"trial_type":"html-button-response","trial_index":46,"time_elapsed":1556055,"internal_node_id":"0.0-39.0","params":{"nStudents":24,"maxFlips":30,"completionMinutes":45,"basePay":8,"maxBonus":9,"perTrialBonus":0.5,"perTrialBonusThreshold":0.1,"exampleCost":0.01},"classroomParams":{"A":{"a":1,"b":4},"B":{"a":4,"b":1},"C":{"a":2,"b":8},"D":{"a":8,"b":2}},"conditions":["nonSeqFull","nonSeqPartial","seqNoFeedback","seqFeedback"],"classroomPairings":[["A","B"],["C","D"]],"coinWeights":[0.2,0.5,0.8],"subjectId":"A10HW8JXM17XLD","assignmentId":"3T3IWE1XG790ITJ1DFM7O9IXXXZQTO","hitId":"341H3G5YF006USP7B7C868W97H9Z08","url":"https://gershmanlab.com/experiments/alicia/teaching/experiment/?hitId=341H3G5YF006USP7B7C868W97H9Z08&workerId=A10HW8JXM17XLD&assignmentId=3T3IWE1XG790ITJ1DFM7O9IXXXZQTO&a=XW3T8&tp_a=XW3T8&b=3T3IWE1XG790ITJ1DFM7O9IXXXZQTO&tp_b=3T3IWE1XG790ITJ1DFM7O9IXXXZQTO&c=365198&tp_c=365198"},{"rt":18045,"response":{"heads":"4","tails":"1"},"type":"response","condition":"nonSeqFull","trueTheta":0.8,"classrooms":["A","B"],"studentTrueClassroom":"B","exampleSet":"first","trial_type":"survey-html-form","trial_index":47,"time_elapsed":1574102,"internal_node_id":"0.0-40.0-0.0","params":{"nStudents":24,"maxFlips":30,"completionMinutes":45,"basePay":8,"maxBonus":9,"perTrialBonus":0.5,"perTrialBonusThreshold":0.1,"exampleCost":0.01},"classroomParams":{"A":{"a":1,"b":4},"B":{"a":4,"b":1},"C":{"a":2,"b":8},"D":{"a":8,"b":2}},"conditions":["nonSeqFull","nonSeqPartial","seqNoFeedback","seqFeedback"],"classroomPairings":[["A","B"],["C","D"]],"coinWeights":[0.2,0.5,0.8],"subjectId":"A10HW8JXM17XLD","assignmentId":"3T3IWE1XG790ITJ1DFM7O9IXXXZQTO","hitId":"341H3G5YF006USP7B7C868W97H9Z08","url":"https://gershmanlab.com/experiments/alicia/teaching/experiment/?hitId=341H3G5YF006USP7B7C868W97H9Z08&workerId=A10HW8JXM17XLD&assignmentId=3T3IWE1XG790ITJ1DFM7O9IXXXZQTO&a=XW3T8&tp_a=XW3T8&b=3T3IWE1XG790ITJ1DFM7O9IXXXZQTO&tp_b=3T3IWE1XG790ITJ1DFM7O9IXXXZQTO&c=365198&tp_c=365198","heads":4,"tails":1,"studentIndex":4,"studentTrueHypers":{"a":4,"b":1},"studentGuess":0.8,"delta":0,"totalExamples":5,"bonus":0.45,"bonusSoFar":0.75},{"rt":null,"stimulus":"Sending examples to student... ","response":null,"trial_type":"html-keyboard-response","trial_index":48,"time_elapsed":1576112,"internal_node_id":"0.0-41.0","params":{"nStudents":24,"maxFlips":30,"completionMinutes":45,"basePay":8,"maxBonus":9,"perTrialBonus":0.5,"perTrialBonusThreshold":0.1,"exampleCost":0.01},"classroomParams":{"A":{"a":1,"b":4},"B":{"a":4,"b":1},"C":{"a":2,"b":8},"D":{"a":8,"b":2}},"conditions":["nonSeqFull","nonSeqPartial","seqNoFeedback","seqFeedback"],"classroomPairings":[["A","B"],["C","D"]],"coinWeights":[0.2,0.5,0.8],"subjectId":"A10HW8JXM17XLD","assignmentId":"3T3IWE1XG790ITJ1DFM7O9IXXXZQTO","hitId":"341H3G5YF006USP7B7C868W97H9Z08","url":"https://gershmanlab.com/experiments/alicia/teaching/experiment/?hitId=341H3G5YF006USP7B7C868W97H9Z08&workerId=A10HW8JXM17XLD&assignmentId=3T3IWE1XG790ITJ1DFM7O9IXXXZQTO&a=XW3T8&tp_a=XW3T8&b=3T3IWE1XG790ITJ1DFM7O9IXXXZQTO&tp_b=3T3IWE1XG790ITJ1DFM7O9IXXXZQTO&c=365198&tp_c=365198"},{"rt":null,"stimulus":"Examples sent to student! Waiting for student...","response":null,"trial_type":"html-keyboard-response","trial_index":49,"time_elapsed":1580127,"internal_node_id":"0.0-42.0","params":{"nStudents":24,"maxFlips":30,"completionMinutes":45,"basePay":8,"maxBonus":9,"perTrialBonus":0.5,"perTrialBonusThreshold":0.1,"exampleCost":0.01},"classroomParams":{"A":{"a":1,"b":4},"B":{"a":4,"b":1},"C":{"a":2,"b":8},"D":{"a":8,"b":2}},"conditions":["nonSeqFull","nonSeqPartial","seqNoFeedback","seqFeedback"],"classroomPairings":[["A","B"],["C","D"]],"coinWeights":[0.2,0.5,0.8],"subjectId":"A10HW8JXM17XLD","assignmentId":"3T3IWE1XG790ITJ1DFM7O9IXXXZQTO","hitId":"341H3G5YF006USP7B7C868W97H9Z08","url":"https://gershmanlab.com/experiments/alicia/teaching/experiment/?hitId=341H3G5YF006USP7B7C868W97H9Z08&workerId=A10HW8JXM17XLD&assignmentId=3T3IWE1XG790ITJ1DFM7O9IXXXZQTO&a=XW3T8&tp_a=XW3T8&b=3T3IWE1XG790ITJ1DFM7O9IXXXZQTO&tp_b=3T3IWE1XG790ITJ1DFM7O9IXXXZQTO&c=365198&tp_c=365198"},{"rt":4189,"stimulus":"\n                <p>Student's guess for coin weight: <b style=\"color:Tomato;\">0.80</b></p>\n                <p>You received a bonus of <b>$0.45</b>. Total bonus so far: <b>$0.75</b></b></p>\n                <p> Press any key to continue.</p>\n                ","response":" ","trial_type":"html-keyboard-response","trial_index":50,"time_elapsed":1584317,"internal_node_id":"0.0-43.0","params":{"nStudents":24,"maxFlips":30,"completionMinutes":45,"basePay":8,"maxBonus":9,"perTrialBonus":0.5,"perTrialBonusThreshold":0.1,"exampleCost":0.01},"classroomParams":{"A":{"a":1,"b":4},"B":{"a":4,"b":1},"C":{"a":2,"b":8},"D":{"a":8,"b":2}},"conditions":["nonSeqFull","nonSeqPartial","seqNoFeedback","seqFeedback"],"classroomPairings":[["A","B"],["C","D"]],"coinWeights":[0.2,0.5,0.8],"subjectId":"A10HW8JXM17XLD","assignmentId":"3T3IWE1XG790ITJ1DFM7O9IXXXZQTO","hitId":"341H3G5YF006USP7B7C868W97H9Z08","url":"https://gershmanlab.com/experiments/alicia/teaching/experiment/?hitId=341H3G5YF006USP7B7C868W97H9Z08&workerId=A10HW8JXM17XLD&assignmentId=3T3IWE1XG790ITJ1DFM7O9IXXXZQTO&a=XW3T8&tp_a=XW3T8&b=3T3IWE1XG790ITJ1DFM7O9IXXXZQTO&tp_b=3T3IWE1XG790ITJ1DFM7O9IXXXZQTO&c=365198&tp_c=365198"},{"rt":null,"stimulus":"<div style=\"font-size:60px;\">Next student</div>","response":null,"trial_type":"html-keyboard-response","trial_index":51,"time_elapsed":1586579,"internal_node_id":"0.0-44.0-0.0","params":{"nStudents":24,"maxFlips":30,"completionMinutes":45,"basePay":8,"maxBonus":9,"perTrialBonus":0.5,"perTrialBonusThreshold":0.1,"exampleCost":0.01},"classroomParams":{"A":{"a":1,"b":4},"B":{"a":4,"b":1},"C":{"a":2,"b":8},"D":{"a":8,"b":2}},"conditions":["nonSeqFull","nonSeqPartial","seqNoFeedback","seqFeedback"],"classroomPairings":[["A","B"],["C","D"]],"coinWeights":[0.2,0.5,0.8],"subjectId":"A10HW8JXM17XLD","assignmentId":"3T3IWE1XG790ITJ1DFM7O9IXXXZQTO","hitId":"341H3G5YF006USP7B7C868W97H9Z08","url":"https://gershmanlab.com/experiments/alicia/teaching/experiment/?hitId=341H3G5YF006USP7B7C868W97H9Z08&workerId=A10HW8JXM17XLD&assignmentId=3T3IWE1XG790ITJ1DFM7O9IXXXZQTO&a=XW3T8&tp_a=XW3T8&b=3T3IWE1XG790ITJ1DFM7O9IXXXZQTO&tp_b=3T3IWE1XG790ITJ1DFM7O9IXXXZQTO&c=365198&tp_c=365198"},{"rt":9078,"stimulus":"\n            <h4 style=\"color:Orange;\">Student 6</h4>\n            <h2>The weight of your coin is <b style=\"color:Tomato;\">0.5</b>.</h2>\n            <p>In this block, you will be giving <b>one</b> set of examples to Student 6.</p>\n                <p>You will receive feedback at the end of the block.</p>\n            ","response":0,"trial_type":"html-button-response","trial_index":52,"time_elapsed":1595658,"internal_node_id":"0.0-45.0","params":{"nStudents":24,"maxFlips":30,"completionMinutes":45,"basePay":8,"maxBonus":9,"perTrialBonus":0.5,"perTrialBonusThreshold":0.1,"exampleCost":0.01},"classroomParams":{"A":{"a":1,"b":4},"B":{"a":4,"b":1},"C":{"a":2,"b":8},"D":{"a":8,"b":2}},"conditions":["nonSeqFull","nonSeqPartial","seqNoFeedback","seqFeedback"],"classroomPairings":[["A","B"],["C","D"]],"coinWeights":[0.2,0.5,0.8],"subjectId":"A10HW8JXM17XLD","assignmentId":"3T3IWE1XG790ITJ1DFM7O9IXXXZQTO","hitId":"341H3G5YF006USP7B7C868W97H9Z08","url":"https://gershmanlab.com/experiments/alicia/teaching/experiment/?hitId=341H3G5YF006USP7B7C868W97H9Z08&workerId=A10HW8JXM17XLD&assignmentId=3T3IWE1XG790ITJ1DFM7O9IXXXZQTO&a=XW3T8&tp_a=XW3T8&b=3T3IWE1XG790ITJ1DFM7O9IXXXZQTO&tp_b=3T3IWE1XG790ITJ1DFM7O9IXXXZQTO&c=365198&tp_c=365198"},{"rt":128430,"response":{"heads":"6","tails":"4"},"type":"response","condition":"nonSeqPartial","trueTheta":0.5,"classrooms":["C","D"],"studentTrueClassroom":"D","exampleSet":"first","trial_type":"survey-html-form","trial_index":53,"time_elapsed":1724089,"internal_node_id":"0.0-46.0-0.0","params":{"nStudents":24,"maxFlips":30,"completionMinutes":45,"basePay":8,"maxBonus":9,"perTrialBonus":0.5,"perTrialBonusThreshold":0.1,"exampleCost":0.01},"classroomParams":{"A":{"a":1,"b":4},"B":{"a":4,"b":1},"C":{"a":2,"b":8},"D":{"a":8,"b":2}},"conditions":["nonSeqFull","nonSeqPartial","seqNoFeedback","seqFeedback"],"classroomPairings":[["A","B"],["C","D"]],"coinWeights":[0.2,0.5,0.8],"subjectId":"A10HW8JXM17XLD","assignmentId":"3T3IWE1XG790ITJ1DFM7O9IXXXZQTO","hitId":"341H3G5YF006USP7B7C868W97H9Z08","url":"https://gershmanlab.com/experiments/alicia/teaching/experiment/?hitId=341H3G5YF006USP7B7C868W97H9Z08&workerId=A10HW8JXM17XLD&assignmentId=3T3IWE1XG790ITJ1DFM7O9IXXXZQTO&a=XW3T8&tp_a=XW3T8&b=3T3IWE1XG790ITJ1DFM7O9IXXXZQTO&tp_b=3T3IWE1XG790ITJ1DFM7O9IXXXZQTO&c=365198&tp_c=365198","heads":6,"tails":4,"studentIndex":5,"studentTrueHypers":{"a":8,"b":2},"studentGuess":0.7,"delta":0.19999999999999996,"totalExamples":10,"bonus":0,"bonusSoFar":0.75},{"rt":null,"stimulus":"Sending examples to student... ","response":null,"trial_type":"html-keyboard-response","trial_index":54,"time_elapsed":1725345,"internal_node_id":"0.0-47.0","params":{"nStudents":24,"maxFlips":30,"completionMinutes":45,"basePay":8,"maxBonus":9,"perTrialBonus":0.5,"perTrialBonusThreshold":0.1,"exampleCost":0.01},"classroomParams":{"A":{"a":1,"b":4},"B":{"a":4,"b":1},"C":{"a":2,"b":8},"D":{"a":8,"b":2}},"conditions":["nonSeqFull","nonSeqPartial","seqNoFeedback","seqFeedback"],"classroomPairings":[["A","B"],["C","D"]],"coinWeights":[0.2,0.5,0.8],"subjectId":"A10HW8JXM17XLD","assignmentId":"3T3IWE1XG790ITJ1DFM7O9IXXXZQTO","hitId":"341H3G5YF006USP7B7C868W97H9Z08","url":"https://gershmanlab.com/experiments/alicia/teaching/experiment/?hitId=341H3G5YF006USP7B7C868W97H9Z08&workerId=A10HW8JXM17XLD&assignmentId=3T3IWE1XG790ITJ1DFM7O9IXXXZQTO&a=XW3T8&tp_a=XW3T8&b=3T3IWE1XG790ITJ1DFM7O9IXXXZQTO&tp_b=3T3IWE1XG790ITJ1DFM7O9IXXXZQTO&c=365198&tp_c=365198"},{"rt":null,"stimulus":"Examples sent to student! Waiting for student...","response":null,"trial_type":"html-keyboard-response","trial_index":55,"time_elapsed":1730359,"internal_node_id":"0.0-48.0","params":{"nStudents":24,"maxFlips":30,"completionMinutes":45,"basePay":8,"maxBonus":9,"perTrialBonus":0.5,"perTrialBonusThreshold":0.1,"exampleCost":0.01},"classroomParams":{"A":{"a":1,"b":4},"B":{"a":4,"b":1},"C":{"a":2,"b":8},"D":{"a":8,"b":2}},"conditions":["nonSeqFull","nonSeqPartial","seqNoFeedback","seqFeedback"],"classroomPairings":[["A","B"],["C","D"]],"coinWeights":[0.2,0.5,0.8],"subjectId":"A10HW8JXM17XLD","assignmentId":"3T3IWE1XG790ITJ1DFM7O9IXXXZQTO","hitId":"341H3G5YF006USP7B7C868W97H9Z08","url":"https://gershmanlab.com/experiments/alicia/teaching/experiment/?hitId=341H3G5YF006USP7B7C868W97H9Z08&workerId=A10HW8JXM17XLD&assignmentId=3T3IWE1XG790ITJ1DFM7O9IXXXZQTO&a=XW3T8&tp_a=XW3T8&b=3T3IWE1XG790ITJ1DFM7O9IXXXZQTO&tp_b=3T3IWE1XG790ITJ1DFM7O9IXXXZQTO&c=365198&tp_c=365198"},{"rt":14335,"stimulus":"\n                <p>Student's guess for coin weight: <b style=\"color:Tomato;\">0.70</b></p>\n                <p>You received a bonus of <b>$0</b>. Total bonus so far: <b>$0.75</b></b></p>\n                <p> Press any key to continue.</p>\n                ","response":" ","trial_type":"html-keyboard-response","trial_index":56,"time_elapsed":1744694,"internal_node_id":"0.0-49.0","params":{"nStudents":24,"maxFlips":30,"completionMinutes":45,"basePay":8,"maxBonus":9,"perTrialBonus":0.5,"perTrialBonusThreshold":0.1,"exampleCost":0.01},"classroomParams":{"A":{"a":1,"b":4},"B":{"a":4,"b":1},"C":{"a":2,"b":8},"D":{"a":8,"b":2}},"conditions":["nonSeqFull","nonSeqPartial","seqNoFeedback","seqFeedback"],"classroomPairings":[["A","B"],["C","D"]],"coinWeights":[0.2,0.5,0.8],"subjectId":"A10HW8JXM17XLD","assignmentId":"3T3IWE1XG790ITJ1DFM7O9IXXXZQTO","hitId":"341H3G5YF006USP7B7C868W97H9Z08","url":"https://gershmanlab.com/experiments/alicia/teaching/experiment/?hitId=341H3G5YF006USP7B7C868W97H9Z08&workerId=A10HW8JXM17XLD&assignmentId=3T3IWE1XG790ITJ1DFM7O9IXXXZQTO&a=XW3T8&tp_a=XW3T8&b=3T3IWE1XG790ITJ1DFM7O9IXXXZQTO&tp_b=3T3IWE1XG790ITJ1DFM7O9IXXXZQTO&c=365198&tp_c=365198"},{"rt":null,"stimulus":"<div style=\"font-size:60px;\">Next student</div>","response":null,"trial_type":"html-keyboard-response","trial_index":57,"time_elapsed":1747197,"internal_node_id":"0.0-50.0-0.0","params":{"nStudents":24,"maxFlips":30,"completionMinutes":45,"basePay":8,"maxBonus":9,"perTrialBonus":0.5,"perTrialBonusThreshold":0.1,"exampleCost":0.01},"classroomParams":{"A":{"a":1,"b":4},"B":{"a":4,"b":1},"C":{"a":2,"b":8},"D":{"a":8,"b":2}},"conditions":["nonSeqFull","nonSeqPartial","seqNoFeedback","seqFeedback"],"classroomPairings":[["A","B"],["C","D"]],"coinWeights":[0.2,0.5,0.8],"subjectId":"A10HW8JXM17XLD","assignmentId":"3T3IWE1XG790ITJ1DFM7O9IXXXZQTO","hitId":"341H3G5YF006USP7B7C868W97H9Z08","url":"https://gershmanlab.com/experiments/alicia/teaching/experiment/?hitId=341H3G5YF006USP7B7C868W97H9Z08&workerId=A10HW8JXM17XLD&assignmentId=3T3IWE1XG790ITJ1DFM7O9IXXXZQTO&a=XW3T8&tp_a=XW3T8&b=3T3IWE1XG790ITJ1DFM7O9IXXXZQTO&tp_b=3T3IWE1XG790ITJ1DFM7O9IXXXZQTO&c=365198&tp_c=365198"},{"rt":6056,"stimulus":"\n            <h4 style=\"color:Orange;\">Student 7</h4>\n            <h2>The weight of your coin is <b style=\"color:Tomato;\">0.8</b>.</h2>\n            <p>In this block, you will be giving <b>two</b> sets of examples to Student 7.</p>\n                <p>You will see the student's guess after the first set of examples. You will also receive feedback at the end of the block.</p>\n            ","response":0,"trial_type":"html-button-response","trial_index":58,"time_elapsed":1753254,"internal_node_id":"0.0-51.0","params":{"nStudents":24,"maxFlips":30,"completionMinutes":45,"basePay":8,"maxBonus":9,"perTrialBonus":0.5,"perTrialBonusThreshold":0.1,"exampleCost":0.01},"classroomParams":{"A":{"a":1,"b":4},"B":{"a":4,"b":1},"C":{"a":2,"b":8},"D":{"a":8,"b":2}},"conditions":["nonSeqFull","nonSeqPartial","seqNoFeedback","seqFeedback"],"classroomPairings":[["A","B"],["C","D"]],"coinWeights":[0.2,0.5,0.8],"subjectId":"A10HW8JXM17XLD","assignmentId":"3T3IWE1XG790ITJ1DFM7O9IXXXZQTO","hitId":"341H3G5YF006USP7B7C868W97H9Z08","url":"https://gershmanlab.com/experiments/alicia/teaching/experiment/?hitId=341H3G5YF006USP7B7C868W97H9Z08&workerId=A10HW8JXM17XLD&assignmentId=3T3IWE1XG790ITJ1DFM7O9IXXXZQTO&a=XW3T8&tp_a=XW3T8&b=3T3IWE1XG790ITJ1DFM7O9IXXXZQTO&tp_b=3T3IWE1XG790ITJ1DFM7O9IXXXZQTO&c=365198&tp_c=365198"},{"rt":43887,"response":{"heads":"4","tails":"1"},"type":"response","condition":"seqFeedback","trueTheta":0.8,"classrooms":["A","B"],"studentTrueClassroom":"A","exampleSet":"first","trial_type":"survey-html-form","trial_index":59,"time_elapsed":1797143,"internal_node_id":"0.0-52.0-0.0","params":{"nStudents":24,"maxFlips":30,"completionMinutes":45,"basePay":8,"maxBonus":9,"perTrialBonus":0.5,"perTrialBonusThreshold":0.1,"exampleCost":0.01},"classroomParams":{"A":{"a":1,"b":4},"B":{"a":4,"b":1},"C":{"a":2,"b":8},"D":{"a":8,"b":2}},"conditions":["nonSeqFull","nonSeqPartial","seqNoFeedback","seqFeedback"],"classroomPairings":[["A","B"],["C","D"]],"coinWeights":[0.2,0.5,0.8],"subjectId":"A10HW8JXM17XLD","assignmentId":"3T3IWE1XG790ITJ1DFM7O9IXXXZQTO","hitId":"341H3G5YF006USP7B7C868W97H9Z08","url":"https://gershmanlab.com/experiments/alicia/teaching/experiment/?hitId=341H3G5YF006USP7B7C868W97H9Z08&workerId=A10HW8JXM17XLD&assignmentId=3T3IWE1XG790ITJ1DFM7O9IXXXZQTO&a=XW3T8&tp_a=XW3T8&b=3T3IWE1XG790ITJ1DFM7O9IXXXZQTO&tp_b=3T3IWE1XG790ITJ1DFM7O9IXXXZQTO&c=365198&tp_c=365198","heads":4,"tails":1,"studentIndex":6,"studentTrueHypers":{"a":1,"b":4},"studentGuess":0.5,"delta":0.30000000000000004,"totalExamples":5,"bonusSoFar":0.75},{"rt":null,"stimulus":"Sending examples to student... ","response":null,"trial_type":"html-keyboard-response","trial_index":60,"time_elapsed":1798408,"internal_node_id":"0.0-53.0","params":{"nStudents":24,"maxFlips":30,"completionMinutes":45,"basePay":8,"maxBonus":9,"perTrialBonus":0.5,"perTrialBonusThreshold":0.1,"exampleCost":0.01},"classroomParams":{"A":{"a":1,"b":4},"B":{"a":4,"b":1},"C":{"a":2,"b":8},"D":{"a":8,"b":2}},"conditions":["nonSeqFull","nonSeqPartial","seqNoFeedback","seqFeedback"],"classroomPairings":[["A","B"],["C","D"]],"coinWeights":[0.2,0.5,0.8],"subjectId":"A10HW8JXM17XLD","assignmentId":"3T3IWE1XG790ITJ1DFM7O9IXXXZQTO","hitId":"341H3G5YF006USP7B7C868W97H9Z08","url":"https://gershmanlab.com/experiments/alicia/teaching/experiment/?hitId=341H3G5YF006USP7B7C868W97H9Z08&workerId=A10HW8JXM17XLD&assignmentId=3T3IWE1XG790ITJ1DFM7O9IXXXZQTO&a=XW3T8&tp_a=XW3T8&b=3T3IWE1XG790ITJ1DFM7O9IXXXZQTO&tp_b=3T3IWE1XG790ITJ1DFM7O9IXXXZQTO&c=365198&tp_c=365198"},{"rt":null,"stimulus":"Examples sent to student! Waiting for student...","response":null,"trial_type":"html-keyboard-response","trial_index":61,"time_elapsed":1803415,"internal_node_id":"0.0-54.0","params":{"nStudents":24,"maxFlips":30,"completionMinutes":45,"basePay":8,"maxBonus":9,"perTrialBonus":0.5,"perTrialBonusThreshold":0.1,"exampleCost":0.01},"classroomParams":{"A":{"a":1,"b":4},"B":{"a":4,"b":1},"C":{"a":2,"b":8},"D":{"a":8,"b":2}},"conditions":["nonSeqFull","nonSeqPartial","seqNoFeedback","seqFeedback"],"classroomPairings":[["A","B"],["C","D"]],"coinWeights":[0.2,0.5,0.8],"subjectId":"A10HW8JXM17XLD","assignmentId":"3T3IWE1XG790ITJ1DFM7O9IXXXZQTO","hitId":"341H3G5YF006USP7B7C868W97H9Z08","url":"https://gershmanlab.com/experiments/alicia/teaching/experiment/?hitId=341H3G5YF006USP7B7C868W97H9Z08&workerId=A10HW8JXM17XLD&assignmentId=3T3IWE1XG790ITJ1DFM7O9IXXXZQTO&a=XW3T8&tp_a=XW3T8&b=3T3IWE1XG790ITJ1DFM7O9IXXXZQTO&tp_b=3T3IWE1XG790ITJ1DFM7O9IXXXZQTO&c=365198&tp_c=365198"},{"rt":24370,"stimulus":"\n                <p>Student's guess for coin weight: <b style=\"color:Tomato;\">0.50</b></p>\n                <p></b></p>\n                <p>You will now send another set of examples to your student. Press any key to continue.</p>\n                ","response":" ","trial_type":"html-keyboard-response","trial_index":62,"time_elapsed":1827786,"internal_node_id":"0.0-55.0","params":{"nStudents":24,"maxFlips":30,"completionMinutes":45,"basePay":8,"maxBonus":9,"perTrialBonus":0.5,"perTrialBonusThreshold":0.1,"exampleCost":0.01},"classroomParams":{"A":{"a":1,"b":4},"B":{"a":4,"b":1},"C":{"a":2,"b":8},"D":{"a":8,"b":2}},"conditions":["nonSeqFull","nonSeqPartial","seqNoFeedback","seqFeedback"],"classroomPairings":[["A","B"],["C","D"]],"coinWeights":[0.2,0.5,0.8],"subjectId":"A10HW8JXM17XLD","assignmentId":"3T3IWE1XG790ITJ1DFM7O9IXXXZQTO","hitId":"341H3G5YF006USP7B7C868W97H9Z08","url":"https://gershmanlab.com/experiments/alicia/teaching/experiment/?hitId=341H3G5YF006USP7B7C868W97H9Z08&workerId=A10HW8JXM17XLD&assignmentId=3T3IWE1XG790ITJ1DFM7O9IXXXZQTO&a=XW3T8&tp_a=XW3T8&b=3T3IWE1XG790ITJ1DFM7O9IXXXZQTO&tp_b=3T3IWE1XG790ITJ1DFM7O9IXXXZQTO&c=365198&tp_c=365198"},{"rt":262674,"response":{"heads":"1","tails":"4"},"type":"response","condition":"seqFeedback","trueTheta":0.8,"classrooms":["A","B"],"studentTrueClassroom":"A","exampleSet":"second","trial_type":"survey-html-form","trial_index":63,"time_elapsed":2090462,"internal_node_id":"0.0-56.0-0.0","params":{"nStudents":24,"maxFlips":30,"completionMinutes":45,"basePay":8,"maxBonus":9,"perTrialBonus":0.5,"perTrialBonusThreshold":0.1,"exampleCost":0.01},"classroomParams":{"A":{"a":1,"b":4},"B":{"a":4,"b":1},"C":{"a":2,"b":8},"D":{"a":8,"b":2}},"conditions":["nonSeqFull","nonSeqPartial","seqNoFeedback","seqFeedback"],"classroomPairings":[["A","B"],["C","D"]],"coinWeights":[0.2,0.5,0.8],"subjectId":"A10HW8JXM17XLD","assignmentId":"3T3IWE1XG790ITJ1DFM7O9IXXXZQTO","hitId":"341H3G5YF006USP7B7C868W97H9Z08","url":"https://gershmanlab.com/experiments/alicia/teaching/experiment/?hitId=341H3G5YF006USP7B7C868W97H9Z08&workerId=A10HW8JXM17XLD&assignmentId=3T3IWE1XG790ITJ1DFM7O9IXXXZQTO&a=XW3T8&tp_a=XW3T8&b=3T3IWE1XG790ITJ1DFM7O9IXXXZQTO&tp_b=3T3IWE1XG790ITJ1DFM7O9IXXXZQTO&c=365198&tp_c=365198","firstResponseHeads":4,"firstResponseTails":1,"secondResponseHeads":1,"secondResponseTails":4,"studentIndex":6,"studentTrueHypers":{"a":1,"b":4},"studentGuess":0.4,"delta":0.4,"bonus":0,"bonusSoFar":0.75,"totalExamples":10},{"rt":null,"stimulus":"Sending examples to student... ","response":null,"trial_type":"html-keyboard-response","trial_index":64,"time_elapsed":2091713,"internal_node_id":"0.0-57.0","params":{"nStudents":24,"maxFlips":30,"completionMinutes":45,"basePay":8,"maxBonus":9,"perTrialBonus":0.5,"perTrialBonusThreshold":0.1,"exampleCost":0.01},"classroomParams":{"A":{"a":1,"b":4},"B":{"a":4,"b":1},"C":{"a":2,"b":8},"D":{"a":8,"b":2}},"conditions":["nonSeqFull","nonSeqPartial","seqNoFeedback","seqFeedback"],"classroomPairings":[["A","B"],["C","D"]],"coinWeights":[0.2,0.5,0.8],"subjectId":"A10HW8JXM17XLD","assignmentId":"3T3IWE1XG790ITJ1DFM7O9IXXXZQTO","hitId":"341H3G5YF006USP7B7C868W97H9Z08","url":"https://gershmanlab.com/experiments/alicia/teaching/experiment/?hitId=341H3G5YF006USP7B7C868W97H9Z08&workerId=A10HW8JXM17XLD&assignmentId=3T3IWE1XG790ITJ1DFM7O9IXXXZQTO&a=XW3T8&tp_a=XW3T8&b=3T3IWE1XG790ITJ1DFM7O9IXXXZQTO&tp_b=3T3IWE1XG790ITJ1DFM7O9IXXXZQTO&c=365198&tp_c=365198"},{"rt":null,"stimulus":"Examples sent to student! Waiting for student...","response":null,"trial_type":"html-keyboard-response","trial_index":65,"time_elapsed":2096228,"internal_node_id":"0.0-58.0","params":{"nStudents":24,"maxFlips":30,"completionMinutes":45,"basePay":8,"maxBonus":9,"perTrialBonus":0.5,"perTrialBonusThreshold":0.1,"exampleCost":0.01},"classroomParams":{"A":{"a":1,"b":4},"B":{"a":4,"b":1},"C":{"a":2,"b":8},"D":{"a":8,"b":2}},"conditions":["nonSeqFull","nonSeqPartial","seqNoFeedback","seqFeedback"],"classroomPairings":[["A","B"],["C","D"]],"coinWeights":[0.2,0.5,0.8],"subjectId":"A10HW8JXM17XLD","assignmentId":"3T3IWE1XG790ITJ1DFM7O9IXXXZQTO","hitId":"341H3G5YF006USP7B7C868W97H9Z08","url":"https://gershmanlab.com/experiments/alicia/teaching/experiment/?hitId=341H3G5YF006USP7B7C868W97H9Z08&workerId=A10HW8JXM17XLD&assignmentId=3T3IWE1XG790ITJ1DFM7O9IXXXZQTO&a=XW3T8&tp_a=XW3T8&b=3T3IWE1XG790ITJ1DFM7O9IXXXZQTO&tp_b=3T3IWE1XG790ITJ1DFM7O9IXXXZQTO&c=365198&tp_c=365198"},{"rt":4036,"stimulus":"\n                <p>Student 7's first guess for coin weight: <b style=\"color:Tomato\";>0.50</b></p>\n                <p>Student 7's second guess for coin weight: <b style=\"color:Tomato\";>0.40</b></p>\n                <p>You received a bonus of <b>$0.00</b> based on the student's second guess.</p>\n                <p>Total bonus so far: <b>$0.75</b></p>\n                <p>Press any key to continue.</p>\n                ","response":" ","trial_type":"html-keyboard-response","trial_index":66,"time_elapsed":2100266,"internal_node_id":"0.0-59.0","params":{"nStudents":24,"maxFlips":30,"completionMinutes":45,"basePay":8,"maxBonus":9,"perTrialBonus":0.5,"perTrialBonusThreshold":0.1,"exampleCost":0.01},"classroomParams":{"A":{"a":1,"b":4},"B":{"a":4,"b":1},"C":{"a":2,"b":8},"D":{"a":8,"b":2}},"conditions":["nonSeqFull","nonSeqPartial","seqNoFeedback","seqFeedback"],"classroomPairings":[["A","B"],["C","D"]],"coinWeights":[0.2,0.5,0.8],"subjectId":"A10HW8JXM17XLD","assignmentId":"3T3IWE1XG790ITJ1DFM7O9IXXXZQTO","hitId":"341H3G5YF006USP7B7C868W97H9Z08","url":"https://gershmanlab.com/experiments/alicia/teaching/experiment/?hitId=341H3G5YF006USP7B7C868W97H9Z08&workerId=A10HW8JXM17XLD&assignmentId=3T3IWE1XG790ITJ1DFM7O9IXXXZQTO&a=XW3T8&tp_a=XW3T8&b=3T3IWE1XG790ITJ1DFM7O9IXXXZQTO&tp_b=3T3IWE1XG790ITJ1DFM7O9IXXXZQTO&c=365198&tp_c=365198"},{"rt":null,"stimulus":"<div style=\"font-size:60px;\">Next student</div>","response":null,"trial_type":"html-keyboard-response","trial_index":67,"time_elapsed":2102774,"internal_node_id":"0.0-60.0-0.0","params":{"nStudents":24,"maxFlips":30,"completionMinutes":45,"basePay":8,"maxBonus":9,"perTrialBonus":0.5,"perTrialBonusThreshold":0.1,"exampleCost":0.01},"classroomParams":{"A":{"a":1,"b":4},"B":{"a":4,"b":1},"C":{"a":2,"b":8},"D":{"a":8,"b":2}},"conditions":["nonSeqFull","nonSeqPartial","seqNoFeedback","seqFeedback"],"classroomPairings":[["A","B"],["C","D"]],"coinWeights":[0.2,0.5,0.8],"subjectId":"A10HW8JXM17XLD","assignmentId":"3T3IWE1XG790ITJ1DFM7O9IXXXZQTO","hitId":"341H3G5YF006USP7B7C868W97H9Z08","url":"https://gershmanlab.com/experiments/alicia/teaching/experiment/?hitId=341H3G5YF006USP7B7C868W97H9Z08&workerId=A10HW8JXM17XLD&assignmentId=3T3IWE1XG790ITJ1DFM7O9IXXXZQTO&a=XW3T8&tp_a=XW3T8&b=3T3IWE1XG790ITJ1DFM7O9IXXXZQTO&tp_b=3T3IWE1XG790ITJ1DFM7O9IXXXZQTO&c=365198&tp_c=365198"},{"rt":18061,"stimulus":"\n            <h4 style=\"color:Orange;\">Student 8</h4>\n            <h2>The weight of your coin is <b style=\"color:Tomato;\">0.2</b>.</h2>\n            <p>In this block, you will be giving <b>two</b> sets of examples to Student 8.</p>\n                <p>You will receive feedback at the end of the block.</p>\n            ","response":0,"trial_type":"html-button-response","trial_index":68,"time_elapsed":2120837,"internal_node_id":"0.0-61.0","params":{"nStudents":24,"maxFlips":30,"completionMinutes":45,"basePay":8,"maxBonus":9,"perTrialBonus":0.5,"perTrialBonusThreshold":0.1,"exampleCost":0.01},"classroomParams":{"A":{"a":1,"b":4},"B":{"a":4,"b":1},"C":{"a":2,"b":8},"D":{"a":8,"b":2}},"conditions":["nonSeqFull","nonSeqPartial","seqNoFeedback","seqFeedback"],"classroomPairings":[["A","B"],["C","D"]],"coinWeights":[0.2,0.5,0.8],"subjectId":"A10HW8JXM17XLD","assignmentId":"3T3IWE1XG790ITJ1DFM7O9IXXXZQTO","hitId":"341H3G5YF006USP7B7C868W97H9Z08","url":"https://gershmanlab.com/experiments/alicia/teaching/experiment/?hitId=341H3G5YF006USP7B7C868W97H9Z08&workerId=A10HW8JXM17XLD&assignmentId=3T3IWE1XG790ITJ1DFM7O9IXXXZQTO&a=XW3T8&tp_a=XW3T8&b=3T3IWE1XG790ITJ1DFM7O9IXXXZQTO&tp_b=3T3IWE1XG790ITJ1DFM7O9IXXXZQTO&c=365198&tp_c=365198"},{"rt":20838,"response":{"heads":"2","tails":"8"},"type":"response","condition":"seqNoFeedback","trueTheta":0.2,"classrooms":["C","D"],"studentTrueClassroom":"D","exampleSet":"first","trial_type":"survey-html-form","trial_index":69,"time_elapsed":2141676,"internal_node_id":"0.0-62.0-0.0","params":{"nStudents":24,"maxFlips":30,"completionMinutes":45,"basePay":8,"maxBonus":9,"perTrialBonus":0.5,"perTrialBonusThreshold":0.1,"exampleCost":0.01},"classroomParams":{"A":{"a":1,"b":4},"B":{"a":4,"b":1},"C":{"a":2,"b":8},"D":{"a":8,"b":2}},"conditions":["nonSeqFull","nonSeqPartial","seqNoFeedback","seqFeedback"],"classroomPairings":[["A","B"],["C","D"]],"coinWeights":[0.2,0.5,0.8],"subjectId":"A10HW8JXM17XLD","assignmentId":"3T3IWE1XG790ITJ1DFM7O9IXXXZQTO","hitId":"341H3G5YF006USP7B7C868W97H9Z08","url":"https://gershmanlab.com/experiments/alicia/teaching/experiment/?hitId=341H3G5YF006USP7B7C868W97H9Z08&workerId=A10HW8JXM17XLD&assignmentId=3T3IWE1XG790ITJ1DFM7O9IXXXZQTO&a=XW3T8&tp_a=XW3T8&b=3T3IWE1XG790ITJ1DFM7O9IXXXZQTO&tp_b=3T3IWE1XG790ITJ1DFM7O9IXXXZQTO&c=365198&tp_c=365198","heads":2,"tails":8,"studentIndex":7,"studentTrueHypers":{"a":8,"b":2},"studentGuess":0.5,"delta":0.3,"totalExamples":10,"bonusSoFar":0.75},{"rt":null,"stimulus":"Sending examples to student... ","response":null,"trial_type":"html-keyboard-response","trial_index":70,"time_elapsed":2143181,"internal_node_id":"0.0-63.0","params":{"nStudents":24,"maxFlips":30,"completionMinutes":45,"basePay":8,"maxBonus":9,"perTrialBonus":0.5,"perTrialBonusThreshold":0.1,"exampleCost":0.01},"classroomParams":{"A":{"a":1,"b":4},"B":{"a":4,"b":1},"C":{"a":2,"b":8},"D":{"a":8,"b":2}},"conditions":["nonSeqFull","nonSeqPartial","seqNoFeedback","seqFeedback"],"classroomPairings":[["A","B"],["C","D"]],"coinWeights":[0.2,0.5,0.8],"subjectId":"A10HW8JXM17XLD","assignmentId":"3T3IWE1XG790ITJ1DFM7O9IXXXZQTO","hitId":"341H3G5YF006USP7B7C868W97H9Z08","url":"https://gershmanlab.com/experiments/alicia/teaching/experiment/?hitId=341H3G5YF006USP7B7C868W97H9Z08&workerId=A10HW8JXM17XLD&assignmentId=3T3IWE1XG790ITJ1DFM7O9IXXXZQTO&a=XW3T8&tp_a=XW3T8&b=3T3IWE1XG790ITJ1DFM7O9IXXXZQTO&tp_b=3T3IWE1XG790ITJ1DFM7O9IXXXZQTO&c=365198&tp_c=365198"},{"rt":null,"stimulus":"Examples sent to student! Waiting for student...","response":null,"trial_type":"html-keyboard-response","trial_index":71,"time_elapsed":2148695,"internal_node_id":"0.0-64.0","params":{"nStudents":24,"maxFlips":30,"completionMinutes":45,"basePay":8,"maxBonus":9,"perTrialBonus":0.5,"perTrialBonusThreshold":0.1,"exampleCost":0.01},"classroomParams":{"A":{"a":1,"b":4},"B":{"a":4,"b":1},"C":{"a":2,"b":8},"D":{"a":8,"b":2}},"conditions":["nonSeqFull","nonSeqPartial","seqNoFeedback","seqFeedback"],"classroomPairings":[["A","B"],["C","D"]],"coinWeights":[0.2,0.5,0.8],"subjectId":"A10HW8JXM17XLD","assignmentId":"3T3IWE1XG790ITJ1DFM7O9IXXXZQTO","hitId":"341H3G5YF006USP7B7C868W97H9Z08","url":"https://gershmanlab.com/experiments/alicia/teaching/experiment/?hitId=341H3G5YF006USP7B7C868W97H9Z08&workerId=A10HW8JXM17XLD&assignmentId=3T3IWE1XG790ITJ1DFM7O9IXXXZQTO&a=XW3T8&tp_a=XW3T8&b=3T3IWE1XG790ITJ1DFM7O9IXXXZQTO&tp_b=3T3IWE1XG790ITJ1DFM7O9IXXXZQTO&c=365198&tp_c=365198"},{"rt":61907,"response":{"heads":"4","tails":"16"},"type":"response","condition":"seqNoFeedback","trueTheta":0.2,"classrooms":["C","D"],"studentTrueClassroom":"D","exampleSet":"second","trial_type":"survey-html-form","trial_index":72,"time_elapsed":2210603,"internal_node_id":"0.0-65.0-0.0","params":{"nStudents":24,"maxFlips":30,"completionMinutes":45,"basePay":8,"maxBonus":9,"perTrialBonus":0.5,"perTrialBonusThreshold":0.1,"exampleCost":0.01},"classroomParams":{"A":{"a":1,"b":4},"B":{"a":4,"b":1},"C":{"a":2,"b":8},"D":{"a":8,"b":2}},"conditions":["nonSeqFull","nonSeqPartial","seqNoFeedback","seqFeedback"],"classroomPairings":[["A","B"],["C","D"]],"coinWeights":[0.2,0.5,0.8],"subjectId":"A10HW8JXM17XLD","assignmentId":"3T3IWE1XG790ITJ1DFM7O9IXXXZQTO","hitId":"341H3G5YF006USP7B7C868W97H9Z08","url":"https://gershmanlab.com/experiments/alicia/teaching/experiment/?hitId=341H3G5YF006USP7B7C868W97H9Z08&workerId=A10HW8JXM17XLD&assignmentId=3T3IWE1XG790ITJ1DFM7O9IXXXZQTO&a=XW3T8&tp_a=XW3T8&b=3T3IWE1XG790ITJ1DFM7O9IXXXZQTO&tp_b=3T3IWE1XG790ITJ1DFM7O9IXXXZQTO&c=365198&tp_c=365198","firstResponseHeads":2,"firstResponseTails":8,"secondResponseHeads":4,"secondResponseTails":16,"studentIndex":7,"studentTrueHypers":{"a":8,"b":2},"studentGuess":0.35,"delta":0.14999999999999997,"bonus":0,"bonusSoFar":0.75,"totalExamples":30},{"rt":null,"stimulus":"Sending examples to student... ","response":null,"trial_type":"html-keyboard-response","trial_index":73,"time_elapsed":2212361,"internal_node_id":"0.0-66.0","params":{"nStudents":24,"maxFlips":30,"completionMinutes":45,"basePay":8,"maxBonus":9,"perTrialBonus":0.5,"perTrialBonusThreshold":0.1,"exampleCost":0.01},"classroomParams":{"A":{"a":1,"b":4},"B":{"a":4,"b":1},"C":{"a":2,"b":8},"D":{"a":8,"b":2}},"conditions":["nonSeqFull","nonSeqPartial","seqNoFeedback","seqFeedback"],"classroomPairings":[["A","B"],["C","D"]],"coinWeights":[0.2,0.5,0.8],"subjectId":"A10HW8JXM17XLD","assignmentId":"3T3IWE1XG790ITJ1DFM7O9IXXXZQTO","hitId":"341H3G5YF006USP7B7C868W97H9Z08","url":"https://gershmanlab.com/experiments/alicia/teaching/experiment/?hitId=341H3G5YF006USP7B7C868W97H9Z08&workerId=A10HW8JXM17XLD&assignmentId=3T3IWE1XG790ITJ1DFM7O9IXXXZQTO&a=XW3T8&tp_a=XW3T8&b=3T3IWE1XG790ITJ1DFM7O9IXXXZQTO&tp_b=3T3IWE1XG790ITJ1DFM7O9IXXXZQTO&c=365198&tp_c=365198"},{"rt":null,"stimulus":"Examples sent to student! Waiting for student...","response":null,"trial_type":"html-keyboard-response","trial_index":74,"time_elapsed":2216877,"internal_node_id":"0.0-67.0","params":{"nStudents":24,"maxFlips":30,"completionMinutes":45,"basePay":8,"maxBonus":9,"perTrialBonus":0.5,"perTrialBonusThreshold":0.1,"exampleCost":0.01},"classroomParams":{"A":{"a":1,"b":4},"B":{"a":4,"b":1},"C":{"a":2,"b":8},"D":{"a":8,"b":2}},"conditions":["nonSeqFull","nonSeqPartial","seqNoFeedback","seqFeedback"],"classroomPairings":[["A","B"],["C","D"]],"coinWeights":[0.2,0.5,0.8],"subjectId":"A10HW8JXM17XLD","assignmentId":"3T3IWE1XG790ITJ1DFM7O9IXXXZQTO","hitId":"341H3G5YF006USP7B7C868W97H9Z08","url":"https://gershmanlab.com/experiments/alicia/teaching/experiment/?hitId=341H3G5YF006USP7B7C868W97H9Z08&workerId=A10HW8JXM17XLD&assignmentId=3T3IWE1XG790ITJ1DFM7O9IXXXZQTO&a=XW3T8&tp_a=XW3T8&b=3T3IWE1XG790ITJ1DFM7O9IXXXZQTO&tp_b=3T3IWE1XG790ITJ1DFM7O9IXXXZQTO&c=365198&tp_c=365198"},{"rt":6078,"stimulus":"\n                <p>Student 8's first guess for coin weight: <b style=\"color:Tomato\";>0.50</b></p>\n                <p>Student 8's second guess for coin weight: <b style=\"color:Tomato\";>0.35</b></p>\n                <p>You received a bonus of <b>$0.00</b> based on the student's second guess.</p>\n                <p>Total bonus so far: <b>$0.75</b></p>\n                <p>Press any key to continue.</p>\n                ","response":" ","trial_type":"html-keyboard-response","trial_index":75,"time_elapsed":2222957,"internal_node_id":"0.0-68.0","params":{"nStudents":24,"maxFlips":30,"completionMinutes":45,"basePay":8,"maxBonus":9,"perTrialBonus":0.5,"perTrialBonusThreshold":0.1,"exampleCost":0.01},"classroomParams":{"A":{"a":1,"b":4},"B":{"a":4,"b":1},"C":{"a":2,"b":8},"D":{"a":8,"b":2}},"conditions":["nonSeqFull","nonSeqPartial","seqNoFeedback","seqFeedback"],"classroomPairings":[["A","B"],["C","D"]],"coinWeights":[0.2,0.5,0.8],"subjectId":"A10HW8JXM17XLD","assignmentId":"3T3IWE1XG790ITJ1DFM7O9IXXXZQTO","hitId":"341H3G5YF006USP7B7C868W97H9Z08","url":"https://gershmanlab.com/experiments/alicia/teaching/experiment/?hitId=341H3G5YF006USP7B7C868W97H9Z08&workerId=A10HW8JXM17XLD&assignmentId=3T3IWE1XG790ITJ1DFM7O9IXXXZQTO&a=XW3T8&tp_a=XW3T8&b=3T3IWE1XG790ITJ1DFM7O9IXXXZQTO&tp_b=3T3IWE1XG790ITJ1DFM7O9IXXXZQTO&c=365198&tp_c=365198"},{"rt":null,"stimulus":"<div style=\"font-size:60px;\">Next student</div>","response":null,"trial_type":"html-keyboard-response","trial_index":76,"time_elapsed":2225216,"internal_node_id":"0.0-69.0-0.0","params":{"nStudents":24,"maxFlips":30,"completionMinutes":45,"basePay":8,"maxBonus":9,"perTrialBonus":0.5,"perTrialBonusThreshold":0.1,"exampleCost":0.01},"classroomParams":{"A":{"a":1,"b":4},"B":{"a":4,"b":1},"C":{"a":2,"b":8},"D":{"a":8,"b":2}},"conditions":["nonSeqFull","nonSeqPartial","seqNoFeedback","seqFeedback"],"classroomPairings":[["A","B"],["C","D"]],"coinWeights":[0.2,0.5,0.8],"subjectId":"A10HW8JXM17XLD","assignmentId":"3T3IWE1XG790ITJ1DFM7O9IXXXZQTO","hitId":"341H3G5YF006USP7B7C868W97H9Z08","url":"https://gershmanlab.com/experiments/alicia/teaching/experiment/?hitId=341H3G5YF006USP7B7C868W97H9Z08&workerId=A10HW8JXM17XLD&assignmentId=3T3IWE1XG790ITJ1DFM7O9IXXXZQTO&a=XW3T8&tp_a=XW3T8&b=3T3IWE1XG790ITJ1DFM7O9IXXXZQTO&tp_b=3T3IWE1XG790ITJ1DFM7O9IXXXZQTO&c=365198&tp_c=365198"},{"rt":10857,"stimulus":"\n            <h4 style=\"color:Orange;\">Student 9</h4>\n            <h2>The weight of your coin is <b style=\"color:Tomato;\">0.5</b>.</h2>\n            <p>In this block, you will be giving <b>two</b> sets of examples to Student 9.</p>\n                <p>You will see the student's guess after the first set of examples. You will also receive feedback at the end of the block.</p>\n            ","response":0,"trial_type":"html-button-response","trial_index":77,"time_elapsed":2236074,"internal_node_id":"0.0-70.0","params":{"nStudents":24,"maxFlips":30,"completionMinutes":45,"basePay":8,"maxBonus":9,"perTrialBonus":0.5,"perTrialBonusThreshold":0.1,"exampleCost":0.01},"classroomParams":{"A":{"a":1,"b":4},"B":{"a":4,"b":1},"C":{"a":2,"b":8},"D":{"a":8,"b":2}},"conditions":["nonSeqFull","nonSeqPartial","seqNoFeedback","seqFeedback"],"classroomPairings":[["A","B"],["C","D"]],"coinWeights":[0.2,0.5,0.8],"subjectId":"A10HW8JXM17XLD","assignmentId":"3T3IWE1XG790ITJ1DFM7O9IXXXZQTO","hitId":"341H3G5YF006USP7B7C868W97H9Z08","url":"https://gershmanlab.com/experiments/alicia/teaching/experiment/?hitId=341H3G5YF006USP7B7C868W97H9Z08&workerId=A10HW8JXM17XLD&assignmentId=3T3IWE1XG790ITJ1DFM7O9IXXXZQTO&a=XW3T8&tp_a=XW3T8&b=3T3IWE1XG790ITJ1DFM7O9IXXXZQTO&tp_b=3T3IWE1XG790ITJ1DFM7O9IXXXZQTO&c=365198&tp_c=365198"},{"rt":116013,"response":{"heads":"6","tails":"4"},"type":"response","condition":"seqFeedback","trueTheta":0.5,"classrooms":["A","B"],"studentTrueClassroom":"B","exampleSet":"first","trial_type":"survey-html-form","trial_index":78,"time_elapsed":2352089,"internal_node_id":"0.0-71.0-0.0","params":{"nStudents":24,"maxFlips":30,"completionMinutes":45,"basePay":8,"maxBonus":9,"perTrialBonus":0.5,"perTrialBonusThreshold":0.1,"exampleCost":0.01},"classroomParams":{"A":{"a":1,"b":4},"B":{"a":4,"b":1},"C":{"a":2,"b":8},"D":{"a":8,"b":2}},"conditions":["nonSeqFull","nonSeqPartial","seqNoFeedback","seqFeedback"],"classroomPairings":[["A","B"],["C","D"]],"coinWeights":[0.2,0.5,0.8],"subjectId":"A10HW8JXM17XLD","assignmentId":"3T3IWE1XG790ITJ1DFM7O9IXXXZQTO","hitId":"341H3G5YF006USP7B7C868W97H9Z08","url":"https://gershmanlab.com/experiments/alicia/teaching/experiment/?hitId=341H3G5YF006USP7B7C868W97H9Z08&workerId=A10HW8JXM17XLD&assignmentId=3T3IWE1XG790ITJ1DFM7O9IXXXZQTO&a=XW3T8&tp_a=XW3T8&b=3T3IWE1XG790ITJ1DFM7O9IXXXZQTO&tp_b=3T3IWE1XG790ITJ1DFM7O9IXXXZQTO&c=365198&tp_c=365198","heads":6,"tails":4,"studentIndex":8,"studentTrueHypers":{"a":4,"b":1},"studentGuess":0.6666666666666666,"delta":0.16666666666666663,"totalExamples":10,"bonusSoFar":0.75},{"rt":null,"stimulus":"Sending examples to student... ","response":null,"trial_type":"html-keyboard-response","trial_index":79,"time_elapsed":2353847,"internal_node_id":"0.0-72.0","params":{"nStudents":24,"maxFlips":30,"completionMinutes":45,"basePay":8,"maxBonus":9,"perTrialBonus":0.5,"perTrialBonusThreshold":0.1,"exampleCost":0.01},"classroomParams":{"A":{"a":1,"b":4},"B":{"a":4,"b":1},"C":{"a":2,"b":8},"D":{"a":8,"b":2}},"conditions":["nonSeqFull","nonSeqPartial","seqNoFeedback","seqFeedback"],"classroomPairings":[["A","B"],["C","D"]],"coinWeights":[0.2,0.5,0.8],"subjectId":"A10HW8JXM17XLD","assignmentId":"3T3IWE1XG790ITJ1DFM7O9IXXXZQTO","hitId":"341H3G5YF006USP7B7C868W97H9Z08","url":"https://gershmanlab.com/experiments/alicia/teaching/experiment/?hitId=341H3G5YF006USP7B7C868W97H9Z08&workerId=A10HW8JXM17XLD&assignmentId=3T3IWE1XG790ITJ1DFM7O9IXXXZQTO&a=XW3T8&tp_a=XW3T8&b=3T3IWE1XG790ITJ1DFM7O9IXXXZQTO&tp_b=3T3IWE1XG790ITJ1DFM7O9IXXXZQTO&c=365198&tp_c=365198"},{"rt":null,"stimulus":"Examples sent to student! Waiting for student...","response":null,"trial_type":"html-keyboard-response","trial_index":80,"time_elapsed":2358861,"internal_node_id":"0.0-73.0","params":{"nStudents":24,"maxFlips":30,"completionMinutes":45,"basePay":8,"maxBonus":9,"perTrialBonus":0.5,"perTrialBonusThreshold":0.1,"exampleCost":0.01},"classroomParams":{"A":{"a":1,"b":4},"B":{"a":4,"b":1},"C":{"a":2,"b":8},"D":{"a":8,"b":2}},"conditions":["nonSeqFull","nonSeqPartial","seqNoFeedback","seqFeedback"],"classroomPairings":[["A","B"],["C","D"]],"coinWeights":[0.2,0.5,0.8],"subjectId":"A10HW8JXM17XLD","assignmentId":"3T3IWE1XG790ITJ1DFM7O9IXXXZQTO","hitId":"341H3G5YF006USP7B7C868W97H9Z08","url":"https://gershmanlab.com/experiments/alicia/teaching/experiment/?hitId=341H3G5YF006USP7B7C868W97H9Z08&workerId=A10HW8JXM17XLD&assignmentId=3T3IWE1XG790ITJ1DFM7O9IXXXZQTO&a=XW3T8&tp_a=XW3T8&b=3T3IWE1XG790ITJ1DFM7O9IXXXZQTO&tp_b=3T3IWE1XG790ITJ1DFM7O9IXXXZQTO&c=365198&tp_c=365198"},{"rt":9539,"stimulus":"\n                <p>Student's guess for coin weight: <b style=\"color:Tomato;\">0.67</b></p>\n                <p></b></p>\n                <p>You will now send another set of examples to your student. Press any key to continue.</p>\n                ","response":" ","trial_type":"html-keyboard-response","trial_index":81,"time_elapsed":2368402,"internal_node_id":"0.0-74.0","params":{"nStudents":24,"maxFlips":30,"completionMinutes":45,"basePay":8,"maxBonus":9,"perTrialBonus":0.5,"perTrialBonusThreshold":0.1,"exampleCost":0.01},"classroomParams":{"A":{"a":1,"b":4},"B":{"a":4,"b":1},"C":{"a":2,"b":8},"D":{"a":8,"b":2}},"conditions":["nonSeqFull","nonSeqPartial","seqNoFeedback","seqFeedback"],"classroomPairings":[["A","B"],["C","D"]],"coinWeights":[0.2,0.5,0.8],"subjectId":"A10HW8JXM17XLD","assignmentId":"3T3IWE1XG790ITJ1DFM7O9IXXXZQTO","hitId":"341H3G5YF006USP7B7C868W97H9Z08","url":"https://gershmanlab.com/experiments/alicia/teaching/experiment/?hitId=341H3G5YF006USP7B7C868W97H9Z08&workerId=A10HW8JXM17XLD&assignmentId=3T3IWE1XG790ITJ1DFM7O9IXXXZQTO&a=XW3T8&tp_a=XW3T8&b=3T3IWE1XG790ITJ1DFM7O9IXXXZQTO&tp_b=3T3IWE1XG790ITJ1DFM7O9IXXXZQTO&c=365198&tp_c=365198"},{"rt":113031,"response":{"heads":"1","tails":"10"},"type":"response","condition":"seqFeedback","trueTheta":0.5,"classrooms":["A","B"],"studentTrueClassroom":"B","exampleSet":"second","trial_type":"survey-html-form","trial_index":82,"time_elapsed":2481434,"internal_node_id":"0.0-75.0-0.0","params":{"nStudents":24,"maxFlips":30,"completionMinutes":45,"basePay":8,"maxBonus":9,"perTrialBonus":0.5,"perTrialBonusThreshold":0.1,"exampleCost":0.01},"classroomParams":{"A":{"a":1,"b":4},"B":{"a":4,"b":1},"C":{"a":2,"b":8},"D":{"a":8,"b":2}},"conditions":["nonSeqFull","nonSeqPartial","seqNoFeedback","seqFeedback"],"classroomPairings":[["A","B"],["C","D"]],"coinWeights":[0.2,0.5,0.8],"subjectId":"A10HW8JXM17XLD","assignmentId":"3T3IWE1XG790ITJ1DFM7O9IXXXZQTO","hitId":"341H3G5YF006USP7B7C868W97H9Z08","url":"https://gershmanlab.com/experiments/alicia/teaching/experiment/?hitId=341H3G5YF006USP7B7C868W97H9Z08&workerId=A10HW8JXM17XLD&assignmentId=3T3IWE1XG790ITJ1DFM7O9IXXXZQTO&a=XW3T8&tp_a=XW3T8&b=3T3IWE1XG790ITJ1DFM7O9IXXXZQTO&tp_b=3T3IWE1XG790ITJ1DFM7O9IXXXZQTO&c=365198&tp_c=365198","firstResponseHeads":6,"firstResponseTails":4,"secondResponseHeads":1,"secondResponseTails":10,"studentIndex":8,"studentTrueHypers":{"a":4,"b":1},"studentGuess":0.4230769230769231,"delta":0.07692307692307693,"bonus":0.29,"bonusSoFar":1.04,"totalExamples":21},{"rt":null,"stimulus":"Sending examples to student... ","response":null,"trial_type":"html-keyboard-response","trial_index":83,"time_elapsed":2482696,"internal_node_id":"0.0-76.0","params":{"nStudents":24,"maxFlips":30,"completionMinutes":45,"basePay":8,"maxBonus":9,"perTrialBonus":0.5,"perTrialBonusThreshold":0.1,"exampleCost":0.01},"classroomParams":{"A":{"a":1,"b":4},"B":{"a":4,"b":1},"C":{"a":2,"b":8},"D":{"a":8,"b":2}},"conditions":["nonSeqFull","nonSeqPartial","seqNoFeedback","seqFeedback"],"classroomPairings":[["A","B"],["C","D"]],"coinWeights":[0.2,0.5,0.8],"subjectId":"A10HW8JXM17XLD","assignmentId":"3T3IWE1XG790ITJ1DFM7O9IXXXZQTO","hitId":"341H3G5YF006USP7B7C868W97H9Z08","url":"https://gershmanlab.com/experiments/alicia/teaching/experiment/?hitId=341H3G5YF006USP7B7C868W97H9Z08&workerId=A10HW8JXM17XLD&assignmentId=3T3IWE1XG790ITJ1DFM7O9IXXXZQTO&a=XW3T8&tp_a=XW3T8&b=3T3IWE1XG790ITJ1DFM7O9IXXXZQTO&tp_b=3T3IWE1XG790ITJ1DFM7O9IXXXZQTO&c=365198&tp_c=365198"},{"rt":null,"stimulus":"Examples sent to student! Waiting for student...","response":null,"trial_type":"html-keyboard-response","trial_index":84,"time_elapsed":2487711,"internal_node_id":"0.0-77.0","params":{"nStudents":24,"maxFlips":30,"completionMinutes":45,"basePay":8,"maxBonus":9,"perTrialBonus":0.5,"perTrialBonusThreshold":0.1,"exampleCost":0.01},"classroomParams":{"A":{"a":1,"b":4},"B":{"a":4,"b":1},"C":{"a":2,"b":8},"D":{"a":8,"b":2}},"conditions":["nonSeqFull","nonSeqPartial","seqNoFeedback","seqFeedback"],"classroomPairings":[["A","B"],["C","D"]],"coinWeights":[0.2,0.5,0.8],"subjectId":"A10HW8JXM17XLD","assignmentId":"3T3IWE1XG790ITJ1DFM7O9IXXXZQTO","hitId":"341H3G5YF006USP7B7C868W97H9Z08","url":"https://gershmanlab.com/experiments/alicia/teaching/experiment/?hitId=341H3G5YF006USP7B7C868W97H9Z08&workerId=A10HW8JXM17XLD&assignmentId=3T3IWE1XG790ITJ1DFM7O9IXXXZQTO&a=XW3T8&tp_a=XW3T8&b=3T3IWE1XG790ITJ1DFM7O9IXXXZQTO&tp_b=3T3IWE1XG790ITJ1DFM7O9IXXXZQTO&c=365198&tp_c=365198"},{"rt":6923,"stimulus":"\n                <p>Student 9's first guess for coin weight: <b style=\"color:Tomato\";>0.67</b></p>\n                <p>Student 9's second guess for coin weight: <b style=\"color:Tomato\";>0.42</b></p>\n                <p>You received a bonus of <b>$0.29</b> based on the student's second guess.</p>\n                <p>Total bonus so far: <b>$1.04</b></p>\n                <p>Press any key to continue.</p>\n                ","response":" ","trial_type":"html-keyboard-response","trial_index":85,"time_elapsed":2494636,"internal_node_id":"0.0-78.0","params":{"nStudents":24,"maxFlips":30,"completionMinutes":45,"basePay":8,"maxBonus":9,"perTrialBonus":0.5,"perTrialBonusThreshold":0.1,"exampleCost":0.01},"classroomParams":{"A":{"a":1,"b":4},"B":{"a":4,"b":1},"C":{"a":2,"b":8},"D":{"a":8,"b":2}},"conditions":["nonSeqFull","nonSeqPartial","seqNoFeedback","seqFeedback"],"classroomPairings":[["A","B"],["C","D"]],"coinWeights":[0.2,0.5,0.8],"subjectId":"A10HW8JXM17XLD","assignmentId":"3T3IWE1XG790ITJ1DFM7O9IXXXZQTO","hitId":"341H3G5YF006USP7B7C868W97H9Z08","url":"https://gershmanlab.com/experiments/alicia/teaching/experiment/?hitId=341H3G5YF006USP7B7C868W97H9Z08&workerId=A10HW8JXM17XLD&assignmentId=3T3IWE1XG790ITJ1DFM7O9IXXXZQTO&a=XW3T8&tp_a=XW3T8&b=3T3IWE1XG790ITJ1DFM7O