[{"rt":null,"stimulus":"Welcome to the experiment. Press any key to begin.","response":null,"trial_type":"html-keyboard-response","trial_index":0,"time_elapsed":30011,"internal_node_id":"0.0-0.0","params":{"nStudents":24,"maxFlips":30,"completionMinutes":45,"basePay":8,"maxBonus":9,"perTrialBonus":0.5,"perTrialBonusThreshold":0.1,"exampleCost":0.01},"classroomParams":{"A":{"a":1,"b":4},"B":{"a":4,"b":1},"C":{"a":2,"b":8},"D":{"a":8,"b":2}},"conditions":["nonSeqFull","nonSeqPartial","seqNoFeedback","seqFeedback"],"classroomPairings":[["A","B"],["C","D"]],"coinWeights":[0.2,0.5,0.8],"subjectId":"A12FTSX85NQ8N9","assignmentId":"3VJ40NV2QJ9XXH6LY2U3Z4NXIWHTOJ","hitId":"3H6W48L9F4B5OEOMH57RM53ZYNHWPM","url":"https://gershmanlab.com/experiments/alicia/teaching/experiment/?hitId=3H6W48L9F4B5OEOMH57RM53ZYNHWPM&workerId=A12FTSX85NQ8N9&assignmentId=3VJ40NV2QJ9XXH6LY2U3Z4NXIWHTOJ&a=20JV8&tp_a=20JV8&b=3VJ40NV2QJ9XXH6LY2U3Z4NXIWHTOJ&tp_b=3VJ40NV2QJ9XXH6LY2U3Z4NXIWHTOJ&c=365198&tp_c=365198"},{"rt":271757,"stimulus":"\n        <h3>Please read this consent agreement carefully before deciding whether to participate in this experiment.</h3>\n        <p><b>Purpose of the research:</b> To examine how people teach effectively.</p>\n        <p><b>What you will do in this research:</b> You will teach students the weights of different coins.</p>\n        <p><b>Time required:</b> This experiment will take 45 minutes to complete.</p>\n        <p><b>Risks:</b> There are no anticipated risks associated with participating in this study.             The effects of participating should be comparable to those you would experience from viewing a computer monitor             and using a mouse and keyboard for the duration of the experiment.</p>\n        <p><b>Benefits:</b> The study provides important information about the nature of teaching.</p>\n        <p><b>Compensation:</b> You will receive <b>$8</b> for completing the experiment and a performance bonus of up to <b>$9</b>.</p>\n        <p><b>Confidentiality:</b> Your participation in this study will remain confidential.             No personally identifiable information will be associated with your data.             Your de-identified data may be shared with other researchers and used in future projects.</p>\n        <p><b>Participation and withdrawal:</b> Your participation in this study is completely voluntary and             you may refuse to participate or you may choose to withdraw at any time without penalty or loss of\n            benefits to which you are otherwise entitled.</p>\n        <p><b>How to contact the researcher:</b> If you have questions or concerns about your participation            or payment, or want to request a summary of research findings, please contact\n            Alicia Chen, aliciachen@college.harvard.edu.</p>\n        <p><b>Whom to contact about your rights in this research:</b> For questions, concerns, suggestions,             or complaints that have not been or cannot be addressed by the researcher, or to report             research-related harm, please contact the Committee on the Use of Human Subjects in Research at Harvard University,             1414 Massachusetts Avenue, Second Floor, Cambridge, MA 02138. Phone: 617-496-2847. Email: cuhs@fas.harvard.edu.</p>\n        ","response":0,"trial_type":"html-button-response","trial_index":1,"time_elapsed":301770,"internal_node_id":"0.0-1.0","params":{"nStudents":24,"maxFlips":30,"completionMinutes":45,"basePay":8,"maxBonus":9,"perTrialBonus":0.5,"perTrialBonusThreshold":0.1,"exampleCost":0.01},"classroomParams":{"A":{"a":1,"b":4},"B":{"a":4,"b":1},"C":{"a":2,"b":8},"D":{"a":8,"b":2}},"conditions":["nonSeqFull","nonSeqPartial","seqNoFeedback","seqFeedback"],"classroomPairings":[["A","B"],["C","D"]],"coinWeights":[0.2,0.5,0.8],"subjectId":"A12FTSX85NQ8N9","assignmentId":"3VJ40NV2QJ9XXH6LY2U3Z4NXIWHTOJ","hitId":"3H6W48L9F4B5OEOMH57RM53ZYNHWPM","url":"https://gershmanlab.com/experiments/alicia/teaching/experiment/?hitId=3H6W48L9F4B5OEOMH57RM53ZYNHWPM&workerId=A12FTSX85NQ8N9&assignmentId=3VJ40NV2QJ9XXH6LY2U3Z4NXIWHTOJ&a=20JV8&tp_a=20JV8&b=3VJ40NV2QJ9XXH6LY2U3Z4NXIWHTOJ&tp_b=3VJ40NV2QJ9XXH6LY2U3Z4NXIWHTOJ&c=365198&tp_c=365198"},{"view_history":[{"page_index":0,"viewing_time":3110},{"page_index":1,"viewing_time":3854},{"page_index":2,"viewing_time":46203},{"page_index":3,"viewing_time":19182},{"page_index":4,"viewing_time":10680},{"page_index":5,"viewing_time":22149},{"page_index":6,"viewing_time":27137}],"rt":132314,"trial_type":"instructions","trial_index":2,"time_elapsed":434086,"internal_node_id":"0.0-2.0-0.0","params":{"nStudents":24,"maxFlips":30,"completionMinutes":45,"basePay":8,"maxBonus":9,"perTrialBonus":0.5,"perTrialBonusThreshold":0.1,"exampleCost":0.01},"classroomParams":{"A":{"a":1,"b":4},"B":{"a":4,"b":1},"C":{"a":2,"b":8},"D":{"a":8,"b":2}},"conditions":["nonSeqFull","nonSeqPartial","seqNoFeedback","seqFeedback"],"classroomPairings":[["A","B"],["C","D"]],"coinWeights":[0.2,0.5,0.8],"subjectId":"A12FTSX85NQ8N9","assignmentId":"3VJ40NV2QJ9XXH6LY2U3Z4NXIWHTOJ","hitId":"3H6W48L9F4B5OEOMH57RM53ZYNHWPM","url":"https://gershmanlab.com/experiments/alicia/teaching/experiment/?hitId=3H6W48L9F4B5OEOMH57RM53ZYNHWPM&workerId=A12FTSX85NQ8N9&assignmentId=3VJ40NV2QJ9XXH6LY2U3Z4NXIWHTOJ&a=20JV8&tp_a=20JV8&b=3VJ40NV2QJ9XXH6LY2U3Z4NXIWHTOJ&tp_b=3VJ40NV2QJ9XXH6LY2U3Z4NXIWHTOJ&c=365198&tp_c=365198"},{"rt":57422,"response":{"Q0":"Students in different classrooms will have seen a different number of heads and tails before seeing the examples you select for them.","Q1":"By teaching efficiently and accurately/helpfully at the same time (because each example I give to the student costs money!).","Q2":"The coin lands heads 90% of the time.","Q3":"No, I will teach a <b>new</b> student each time.","Q4":"The students are also on the same alien planet as you, where coins can be unfair.","Q5":"Based on the student's second (and final) guess."},"question_order":[0,1,3,4,5,2],"trial_type":"survey-multi-choice","trial_index":3,"time_elapsed":491514,"internal_node_id":"0.0-2.0-1.0","params":{"nStudents":24,"maxFlips":30,"completionMinutes":45,"basePay":8,"maxBonus":9,"perTrialBonus":0.5,"perTrialBonusThreshold":0.1,"exampleCost":0.01},"classroomParams":{"A":{"a":1,"b":4},"B":{"a":4,"b":1},"C":{"a":2,"b":8},"D":{"a":8,"b":2}},"conditions":["nonSeqFull","nonSeqPartial","seqNoFeedback","seqFeedback"],"classroomPairings":[["A","B"],["C","D"]],"coinWeights":[0.2,0.5,0.8],"subjectId":"A12FTSX85NQ8N9","assignmentId":"3VJ40NV2QJ9XXH6LY2U3Z4NXIWHTOJ","hitId":"3H6W48L9F4B5OEOMH57RM53ZYNHWPM","url":"https://gershmanlab.com/experiments/alicia/teaching/experiment/?hitId=3H6W48L9F4B5OEOMH57RM53ZYNHWPM&workerId=A12FTSX85NQ8N9&assignmentId=3VJ40NV2QJ9XXH6LY2U3Z4NXIWHTOJ&a=20JV8&tp_a=20JV8&b=3VJ40NV2QJ9XXH6LY2U3Z4NXIWHTOJ&tp_b=3VJ40NV2QJ9XXH6LY2U3Z4NXIWHTOJ&c=365198&tp_c=365198","pass":true},{"rt":null,"stimulus":"<div style=\"font-size:30px;\">Congrats on passing the comprehension quiz! The experiment will begin in a few seconds.</div>","response":null,"trial_type":"html-keyboard-response","trial_index":4,"time_elapsed":494521,"internal_node_id":"0.0-3.0","params":{"nStudents":24,"maxFlips":30,"completionMinutes":45,"basePay":8,"maxBonus":9,"perTrialBonus":0.5,"perTrialBonusThreshold":0.1,"exampleCost":0.01},"classroomParams":{"A":{"a":1,"b":4},"B":{"a":4,"b":1},"C":{"a":2,"b":8},"D":{"a":8,"b":2}},"conditions":["nonSeqFull","nonSeqPartial","seqNoFeedback","seqFeedback"],"classroomPairings":[["A","B"],["C","D"]],"coinWeights":[0.2,0.5,0.8],"subjectId":"A12FTSX85NQ8N9","assignmentId":"3VJ40NV2QJ9XXH6LY2U3Z4NXIWHTOJ","hitId":"3H6W48L9F4B5OEOMH57RM53ZYNHWPM","url":"https://gershmanlab.com/experiments/alicia/teaching/experiment/?hitId=3H6W48L9F4B5OEOMH57RM53ZYNHWPM&workerId=A12FTSX85NQ8N9&assignmentId=3VJ40NV2QJ9XXH6LY2U3Z4NXIWHTOJ&a=20JV8&tp_a=20JV8&b=3VJ40NV2QJ9XXH6LY2U3Z4NXIWHTOJ&tp_b=3VJ40NV2QJ9XXH6LY2U3Z4NXIWHTOJ&c=365198&tp_c=365198"},{"rt":null,"stimulus":"<div style=\"font-size:50px;\">First student</div>","response":null,"trial_type":"html-keyboard-response","trial_index":5,"time_elapsed":497534,"internal_node_id":"0.0-4.0","params":{"nStudents":24,"maxFlips":30,"completionMinutes":45,"basePay":8,"maxBonus":9,"perTrialBonus":0.5,"perTrialBonusThreshold":0.1,"exampleCost":0.01},"classroomParams":{"A":{"a":1,"b":4},"B":{"a":4,"b":1},"C":{"a":2,"b":8},"D":{"a":8,"b":2}},"conditions":["nonSeqFull","nonSeqPartial","seqNoFeedback","seqFeedback"],"classroomPairings":[["A","B"],["C","D"]],"coinWeights":[0.2,0.5,0.8],"subjectId":"A12FTSX85NQ8N9","assignmentId":"3VJ40NV2QJ9XXH6LY2U3Z4NXIWHTOJ","hitId":"3H6W48L9F4B5OEOMH57RM53ZYNHWPM","url":"https://gershmanlab.com/experiments/alicia/teaching/experiment/?hitId=3H6W48L9F4B5OEOMH57RM53ZYNHWPM&workerId=A12FTSX85NQ8N9&assignmentId=3VJ40NV2QJ9XXH6LY2U3Z4NXIWHTOJ&a=20JV8&tp_a=20JV8&b=3VJ40NV2QJ9XXH6LY2U3Z4NXIWHTOJ&tp_b=3VJ40NV2QJ9XXH6LY2U3Z4NXIWHTOJ&c=365198&tp_c=365198"},{"rt":13059,"stimulus":"\n            <h4 style=\"color:Orange;\">Student 1</h4>\n            <h2>The weight of your coin is <b style=\"color:Tomato;\">0.8</b>.</h2>\n            <p>In this block, you will be giving <b>one</b> set of examples to Student 1.</p>\n                <p>You will receive feedback at the end of the block.</p>\n            ","response":0,"trial_type":"html-button-response","trial_index":6,"time_elapsed":510595,"internal_node_id":"0.0-5.0","params":{"nStudents":24,"maxFlips":30,"completionMinutes":45,"basePay":8,"maxBonus":9,"perTrialBonus":0.5,"perTrialBonusThreshold":0.1,"exampleCost":0.01},"classroomParams":{"A":{"a":1,"b":4},"B":{"a":4,"b":1},"C":{"a":2,"b":8},"D":{"a":8,"b":2}},"conditions":["nonSeqFull","nonSeqPartial","seqNoFeedback","seqFeedback"],"classroomPairings":[["A","B"],["C","D"]],"coinWeights":[0.2,0.5,0.8],"subjectId":"A12FTSX85NQ8N9","assignmentId":"3VJ40NV2QJ9XXH6LY2U3Z4NXIWHTOJ","hitId":"3H6W48L9F4B5OEOMH57RM53ZYNHWPM","url":"https://gershmanlab.com/experiments/alicia/teaching/experiment/?hitId=3H6W48L9F4B5OEOMH57RM53ZYNHWPM&workerId=A12FTSX85NQ8N9&assignmentId=3VJ40NV2QJ9XXH6LY2U3Z4NXIWHTOJ&a=20JV8&tp_a=20JV8&b=3VJ40NV2QJ9XXH6LY2U3Z4NXIWHTOJ&tp_b=3VJ40NV2QJ9XXH6LY2U3Z4NXIWHTOJ&c=365198&tp_c=365198"},{"rt":19604,"response":{"heads":"3","tails":"2"},"type":"response","condition":"nonSeqFull","trueTheta":0.8,"classrooms":["C","D"],"studentTrueClassroom":"D","exampleSet":"first","trial_type":"survey-html-form","trial_index":7,"time_elapsed":530205,"internal_node_id":"0.0-6.0-0.0","params":{"nStudents":24,"maxFlips":30,"completionMinutes":45,"basePay":8,"maxBonus":9,"perTrialBonus":0.5,"perTrialBonusThreshold":0.1,"exampleCost":0.01},"classroomParams":{"A":{"a":1,"b":4},"B":{"a":4,"b":1},"C":{"a":2,"b":8},"D":{"a":8,"b":2}},"conditions":["nonSeqFull","nonSeqPartial","seqNoFeedback","seqFeedback"],"classroomPairings":[["A","B"],["C","D"]],"coinWeights":[0.2,0.5,0.8],"subjectId":"A12FTSX85NQ8N9","assignmentId":"3VJ40NV2QJ9XXH6LY2U3Z4NXIWHTOJ","hitId":"3H6W48L9F4B5OEOMH57RM53ZYNHWPM","url":"https://gershmanlab.com/experiments/alicia/teaching/experiment/?hitId=3H6W48L9F4B5OEOMH57RM53ZYNHWPM&workerId=A12FTSX85NQ8N9&assignmentId=3VJ40NV2QJ9XXH6LY2U3Z4NXIWHTOJ&a=20JV8&tp_a=20JV8&b=3VJ40NV2QJ9XXH6LY2U3Z4NXIWHTOJ&tp_b=3VJ40NV2QJ9XXH6LY2U3Z4NXIWHTOJ&c=365198&tp_c=365198","heads":3,"tails":2,"studentIndex":0,"studentTrueHypers":{"a":8,"b":2},"studentGuess":0.7333333333333333,"delta":0.06666666666666676,"totalExamples":5,"bonus":0.45,"bonusSoFar":0.45},{"rt":null,"stimulus":"Sending examples to student... ","response":null,"trial_type":"html-keyboard-response","trial_index":8,"time_elapsed":531473,"internal_node_id":"0.0-7.0","params":{"nStudents":24,"maxFlips":30,"completionMinutes":45,"basePay":8,"maxBonus":9,"perTrialBonus":0.5,"perTrialBonusThreshold":0.1,"exampleCost":0.01},"classroomParams":{"A":{"a":1,"b":4},"B":{"a":4,"b":1},"C":{"a":2,"b":8},"D":{"a":8,"b":2}},"conditions":["nonSeqFull","nonSeqPartial","seqNoFeedback","seqFeedback"],"classroomPairings":[["A","B"],["C","D"]],"coinWeights":[0.2,0.5,0.8],"subjectId":"A12FTSX85NQ8N9","assignmentId":"3VJ40NV2QJ9XXH6LY2U3Z4NXIWHTOJ","hitId":"3H6W48L9F4B5OEOMH57RM53ZYNHWPM","url":"https://gershmanlab.com/experiments/alicia/teaching/experiment/?hitId=3H6W48L9F4B5OEOMH57RM53ZYNHWPM&workerId=A12FTSX85NQ8N9&assignmentId=3VJ40NV2QJ9XXH6LY2U3Z4NXIWHTOJ&a=20JV8&tp_a=20JV8&b=3VJ40NV2QJ9XXH6LY2U3Z4NXIWHTOJ&tp_b=3VJ40NV2QJ9XXH6LY2U3Z4NXIWHTOJ&c=365198&tp_c=365198"},{"rt":null,"stimulus":"Examples sent to student! Waiting for student...","response":null,"trial_type":"html-keyboard-response","trial_index":9,"time_elapsed":536486,"internal_node_id":"0.0-8.0","params":{"nStudents":24,"maxFlips":30,"completionMinutes":45,"basePay":8,"maxBonus":9,"perTrialBonus":0.5,"perTrialBonusThreshold":0.1,"exampleCost":0.01},"classroomParams":{"A":{"a":1,"b":4},"B":{"a":4,"b":1},"C":{"a":2,"b":8},"D":{"a":8,"b":2}},"conditions":["nonSeqFull","nonSeqPartial","seqNoFeedback","seqFeedback"],"classroomPairings":[["A","B"],["C","D"]],"coinWeights":[0.2,0.5,0.8],"subjectId":"A12FTSX85NQ8N9","assignmentId":"3VJ40NV2QJ9XXH6LY2U3Z4NXIWHTOJ","hitId":"3H6W48L9F4B5OEOMH57RM53ZYNHWPM","url":"https://gershmanlab.com/experiments/alicia/teaching/experiment/?hitId=3H6W48L9F4B5OEOMH57RM53ZYNHWPM&workerId=A12FTSX85NQ8N9&assignmentId=3VJ40NV2QJ9XXH6LY2U3Z4NXIWHTOJ&a=20JV8&tp_a=20JV8&b=3VJ40NV2QJ9XXH6LY2U3Z4NXIWHTOJ&tp_b=3VJ40NV2QJ9XXH6LY2U3Z4NXIWHTOJ&c=365198&tp_c=365198"},{"rt":4718,"stimulus":"\n                <p>Student's guess for coin weight: <b style=\"color:Tomato;\">0.73</b></p>\n                <p>You received a bonus of <b>$0.45</b>. Total bonus so far: <b>$0.45</b></b></p>\n                <p> Press any key to continue.</p>\n                ","response":" ","trial_type":"html-keyboard-response","trial_index":10,"time_elapsed":541208,"internal_node_id":"0.0-9.0","params":{"nStudents":24,"maxFlips":30,"completionMinutes":45,"basePay":8,"maxBonus":9,"perTrialBonus":0.5,"perTrialBonusThreshold":0.1,"exampleCost":0.01},"classroomParams":{"A":{"a":1,"b":4},"B":{"a":4,"b":1},"C":{"a":2,"b":8},"D":{"a":8,"b":2}},"conditions":["nonSeqFull","nonSeqPartial","seqNoFeedback","seqFeedback"],"classroomPairings":[["A","B"],["C","D"]],"coinWeights":[0.2,0.5,0.8],"subjectId":"A12FTSX85NQ8N9","assignmentId":"3VJ40NV2QJ9XXH6LY2U3Z4NXIWHTOJ","hitId":"3H6W48L9F4B5OEOMH57RM53ZYNHWPM","url":"https://gershmanlab.com/experiments/alicia/teaching/experiment/?hitId=3H6W48L9F4B5OEOMH57RM53ZYNHWPM&workerId=A12FTSX85NQ8N9&assignmentId=3VJ40NV2QJ9XXH6LY2U3Z4NXIWHTOJ&a=20JV8&tp_a=20JV8&b=3VJ40NV2QJ9XXH6LY2U3Z4NXIWHTOJ&tp_b=3VJ40NV2QJ9XXH6LY2U3Z4NXIWHTOJ&c=365198&tp_c=365198"},{"rt":null,"stimulus":"<div style=\"font-size:60px;\">Next student</div>","response":null,"trial_type":"html-keyboard-response","trial_index":11,"time_elapsed":543712,"internal_node_id":"0.0-10.0-0.0","params":{"nStudents":24,"maxFlips":30,"completionMinutes":45,"basePay":8,"maxBonus":9,"perTrialBonus":0.5,"perTrialBonusThreshold":0.1,"exampleCost":0.01},"classroomParams":{"A":{"a":1,"b":4},"B":{"a":4,"b":1},"C":{"a":2,"b":8},"D":{"a":8,"b":2}},"conditions":["nonSeqFull","nonSeqPartial","seqNoFeedback","seqFeedback"],"classroomPairings":[["A","B"],["C","D"]],"coinWeights":[0.2,0.5,0.8],"subjectId":"A12FTSX85NQ8N9","assignmentId":"3VJ40NV2QJ9XXH6LY2U3Z4NXIWHTOJ","hitId":"3H6W48L9F4B5OEOMH57RM53ZYNHWPM","url":"https://gershmanlab.com/experiments/alicia/teaching/experiment/?hitId=3H6W48L9F4B5OEOMH57RM53ZYNHWPM&workerId=A12FTSX85NQ8N9&assignmentId=3VJ40NV2QJ9XXH6LY2U3Z4NXIWHTOJ&a=20JV8&tp_a=20JV8&b=3VJ40NV2QJ9XXH6LY2U3Z4NXIWHTOJ&tp_b=3VJ40NV2QJ9XXH6LY2U3Z4NXIWHTOJ&c=365198&tp_c=365198"},{"rt":4521,"stimulus":"\n            <h4 style=\"color:Orange;\">Student 2</h4>\n            <h2>The weight of your coin is <b style=\"color:Tomato;\">0.5</b>.</h2>\n            <p>In this block, you will be giving <b>one</b> set of examples to Student 2.</p>\n                <p>You will receive feedback at the end of the block.</p>\n            ","response":0,"trial_type":"html-button-response","trial_index":12,"time_elapsed":548235,"internal_node_id":"0.0-11.0","params":{"nStudents":24,"maxFlips":30,"completionMinutes":45,"basePay":8,"maxBonus":9,"perTrialBonus":0.5,"perTrialBonusThreshold":0.1,"exampleCost":0.01},"classroomParams":{"A":{"a":1,"b":4},"B":{"a":4,"b":1},"C":{"a":2,"b":8},"D":{"a":8,"b":2}},"conditions":["nonSeqFull","nonSeqPartial","seqNoFeedback","seqFeedback"],"classroomPairings":[["A","B"],["C","D"]],"coinWeights":[0.2,0.5,0.8],"subjectId":"A12FTSX85NQ8N9","assignmentId":"3VJ40NV2QJ9XXH6LY2U3Z4NXIWHTOJ","hitId":"3H6W48L9F4B5OEOMH57RM53ZYNHWPM","url":"https://gershmanlab.com/experiments/alicia/teaching/experiment/?hitId=3H6W48L9F4B5OEOMH57RM53ZYNHWPM&workerId=A12FTSX85NQ8N9&assignmentId=3VJ40NV2QJ9XXH6LY2U3Z4NXIWHTOJ&a=20JV8&tp_a=20JV8&b=3VJ40NV2QJ9XXH6LY2U3Z4NXIWHTOJ&tp_b=3VJ40NV2QJ9XXH6LY2U3Z4NXIWHTOJ&c=365198&tp_c=365198"},{"rt":17663,"response":{"heads":"5","tails":"5"},"type":"response","condition":"nonSeqPartial","trueTheta":0.5,"classrooms":["A","B"],"studentTrueClassroom":"A","exampleSet":"first","trial_type":"survey-html-form","trial_index":13,"time_elapsed":565904,"internal_node_id":"0.0-12.0-0.0","params":{"nStudents":24,"maxFlips":30,"completionMinutes":45,"basePay":8,"maxBonus":9,"perTrialBonus":0.5,"perTrialBonusThreshold":0.1,"exampleCost":0.01},"classroomParams":{"A":{"a":1,"b":4},"B":{"a":4,"b":1},"C":{"a":2,"b":8},"D":{"a":8,"b":2}},"conditions":["nonSeqFull","nonSeqPartial","seqNoFeedback","seqFeedback"],"classroomPairings":[["A","B"],["C","D"]],"coinWeights":[0.2,0.5,0.8],"subjectId":"A12FTSX85NQ8N9","assignmentId":"3VJ40NV2QJ9XXH6LY2U3Z4NXIWHTOJ","hitId":"3H6W48L9F4B5OEOMH57RM53ZYNHWPM","url":"https://gershmanlab.com/experiments/alicia/teaching/experiment/?hitId=3H6W48L9F4B5OEOMH57RM53ZYNHWPM&workerId=A12FTSX85NQ8N9&assignmentId=3VJ40NV2QJ9XXH6LY2U3Z4NXIWHTOJ&a=20JV8&tp_a=20JV8&b=3VJ40NV2QJ9XXH6LY2U3Z4NXIWHTOJ&tp_b=3VJ40NV2QJ9XXH6LY2U3Z4NXIWHTOJ&c=365198&tp_c=365198","heads":5,"tails":5,"studentIndex":1,"studentTrueHypers":{"a":1,"b":4},"studentGuess":0.4,"delta":0.09999999999999998,"totalExamples":10,"bonus":0.4,"bonusSoFar":0.85},{"rt":null,"stimulus":"Sending examples to student... ","response":null,"trial_type":"html-keyboard-response","trial_index":14,"time_elapsed":567168,"internal_node_id":"0.0-13.0","params":{"nStudents":24,"maxFlips":30,"completionMinutes":45,"basePay":8,"maxBonus":9,"perTrialBonus":0.5,"perTrialBonusThreshold":0.1,"exampleCost":0.01},"classroomParams":{"A":{"a":1,"b":4},"B":{"a":4,"b":1},"C":{"a":2,"b":8},"D":{"a":8,"b":2}},"conditions":["nonSeqFull","nonSeqPartial","seqNoFeedback","seqFeedback"],"classroomPairings":[["A","B"],["C","D"]],"coinWeights":[0.2,0.5,0.8],"subjectId":"A12FTSX85NQ8N9","assignmentId":"3VJ40NV2QJ9XXH6LY2U3Z4NXIWHTOJ","hitId":"3H6W48L9F4B5OEOMH57RM53ZYNHWPM","url":"https://gershmanlab.com/experiments/alicia/teaching/experiment/?hitId=3H6W48L9F4B5OEOMH57RM53ZYNHWPM&workerId=A12FTSX85NQ8N9&assignmentId=3VJ40NV2QJ9XXH6LY2U3Z4NXIWHTOJ&a=20JV8&tp_a=20JV8&b=3VJ40NV2QJ9XXH6LY2U3Z4NXIWHTOJ&tp_b=3VJ40NV2QJ9XXH6LY2U3Z4NXIWHTOJ&c=365198&tp_c=365198"},{"rt":null,"stimulus":"Examples sent to student! Waiting for student...","response":null,"trial_type":"html-keyboard-response","trial_index":15,"time_elapsed":573180,"internal_node_id":"0.0-14.0","params":{"nStudents":24,"maxFlips":30,"completionMinutes":45,"basePay":8,"maxBonus":9,"perTrialBonus":0.5,"perTrialBonusThreshold":0.1,"exampleCost":0.01},"classroomParams":{"A":{"a":1,"b":4},"B":{"a":4,"b":1},"C":{"a":2,"b":8},"D":{"a":8,"b":2}},"conditions":["nonSeqFull","nonSeqPartial","seqNoFeedback","seqFeedback"],"classroomPairings":[["A","B"],["C","D"]],"coinWeights":[0.2,0.5,0.8],"subjectId":"A12FTSX85NQ8N9","assignmentId":"3VJ40NV2QJ9XXH6LY2U3Z4NXIWHTOJ","hitId":"3H6W48L9F4B5OEOMH57RM53ZYNHWPM","url":"https://gershmanlab.com/experiments/alicia/teaching/experiment/?hitId=3H6W48L9F4B5OEOMH57RM53ZYNHWPM&workerId=A12FTSX85NQ8N9&assignmentId=3VJ40NV2QJ9XXH6LY2U3Z4NXIWHTOJ&a=20JV8&tp_a=20JV8&b=3VJ40NV2QJ9XXH6LY2U3Z4NXIWHTOJ&tp_b=3VJ40NV2QJ9XXH6LY2U3Z4NXIWHTOJ&c=365198&tp_c=365198"},{"rt":2665,"stimulus":"\n                <p>Student's guess for coin weight: <b style=\"color:Tomato;\">0.40</b></p>\n                <p>You received a bonus of <b>$0.4</b>. Total bonus so far: <b>$0.85</b></b></p>\n                <p> Press any key to continue.</p>\n                ","response":" ","trial_type":"html-keyboard-response","trial_index":16,"time_elapsed":575845,"internal_node_id":"0.0-15.0","params":{"nStudents":24,"maxFlips":30,"completionMinutes":45,"basePay":8,"maxBonus":9,"perTrialBonus":0.5,"perTrialBonusThreshold":0.1,"exampleCost":0.01},"classroomParams":{"A":{"a":1,"b":4},"B":{"a":4,"b":1},"C":{"a":2,"b":8},"D":{"a":8,"b":2}},"conditions":["nonSeqFull","nonSeqPartial","seqNoFeedback","seqFeedback"],"classroomPairings":[["A","B"],["C","D"]],"coinWeights":[0.2,0.5,0.8],"subjectId":"A12FTSX85NQ8N9","assignmentId":"3VJ40NV2QJ9XXH6LY2U3Z4NXIWHTOJ","hitId":"3H6W48L9F4B5OEOMH57RM53ZYNHWPM","url":"https://gershmanlab.com/experiments/alicia/teaching/experiment/?hitId=3H6W48L9F4B5OEOMH57RM53ZYNHWPM&workerId=A12FTSX85NQ8N9&assignmentId=3VJ40NV2QJ9XXH6LY2U3Z4NXIWHTOJ&a=20JV8&tp_a=20JV8&b=3VJ40NV2QJ9XXH6LY2U3Z4NXIWHTOJ&tp_b=3VJ40NV2QJ9XXH6LY2U3Z4NXIWHTOJ&c=365198&tp_c=365198"},{"rt":null,"stimulus":"<div style=\"font-size:60px;\">Next student</div>","response":null,"trial_type":"html-keyboard-response","trial_index":17,"time_elapsed":578350,"internal_node_id":"0.0-16.0-0.0","params":{"nStudents":24,"maxFlips":30,"completionMinutes":45,"basePay":8,"maxBonus":9,"perTrialBonus":0.5,"perTrialBonusThreshold":0.1,"exampleCost":0.01},"classroomParams":{"A":{"a":1,"b":4},"B":{"a":4,"b":1},"C":{"a":2,"b":8},"D":{"a":8,"b":2}},"conditions":["nonSeqFull","nonSeqPartial","seqNoFeedback","seqFeedback"],"classroomPairings":[["A","B"],["C","D"]],"coinWeights":[0.2,0.5,0.8],"subjectId":"A12FTSX85NQ8N9","assignmentId":"3VJ40NV2QJ9XXH6LY2U3Z4NXIWHTOJ","hitId":"3H6W48L9F4B5OEOMH57RM53ZYNHWPM","url":"https://gershmanlab.com/experiments/alicia/teaching/experiment/?hitId=3H6W48L9F4B5OEOMH57RM53ZYNHWPM&workerId=A12FTSX85NQ8N9&assignmentId=3VJ40NV2QJ9XXH6LY2U3Z4NXIWHTOJ&a=20JV8&tp_a=20JV8&b=3VJ40NV2QJ9XXH6LY2U3Z4NXIWHTOJ&tp_b=3VJ40NV2QJ9XXH6LY2U3Z4NXIWHTOJ&c=365198&tp_c=365198"},{"rt":3466,"stimulus":"\n            <h4 style=\"color:Orange;\">Student 3</h4>\n            <h2>The weight of your coin is <b style=\"color:Tomato;\">0.8</b>.</h2>\n            <p>In this block, you will be giving <b>two</b> sets of examples to Student 3.</p>\n                <p>You will see the student's guess after the first set of examples. You will also receive feedback at the end of the block.</p>\n            ","response":0,"trial_type":"html-button-response","trial_index":18,"time_elapsed":581817,"internal_node_id":"0.0-17.0","params":{"nStudents":24,"maxFlips":30,"completionMinutes":45,"basePay":8,"maxBonus":9,"perTrialBonus":0.5,"perTrialBonusThreshold":0.1,"exampleCost":0.01},"classroomParams":{"A":{"a":1,"b":4},"B":{"a":4,"b":1},"C":{"a":2,"b":8},"D":{"a":8,"b":2}},"conditions":["nonSeqFull","nonSeqPartial","seqNoFeedback","seqFeedback"],"classroomPairings":[["A","B"],["C","D"]],"coinWeights":[0.2,0.5,0.8],"subjectId":"A12FTSX85NQ8N9","assignmentId":"3VJ40NV2QJ9XXH6LY2U3Z4NXIWHTOJ","hitId":"3H6W48L9F4B5OEOMH57RM53ZYNHWPM","url":"https://gershmanlab.com/experiments/alicia/teaching/experiment/?hitId=3H6W48L9F4B5OEOMH57RM53ZYNHWPM&workerId=A12FTSX85NQ8N9&assignmentId=3VJ40NV2QJ9XXH6LY2U3Z4NXIWHTOJ&a=20JV8&tp_a=20JV8&b=3VJ40NV2QJ9XXH6LY2U3Z4NXIWHTOJ&tp_b=3VJ40NV2QJ9XXH6LY2U3Z4NXIWHTOJ&c=365198&tp_c=365198"},{"rt":13038,"response":{"heads":"3","tails":"2"},"type":"response","condition":"seqFeedback","trueTheta":0.8,"classrooms":["A","B"],"studentTrueClassroom":"B","exampleSet":"first","trial_type":"survey-html-form","trial_index":19,"time_elapsed":594856,"internal_node_id":"0.0-18.0-0.0","params":{"nStudents":24,"maxFlips":30,"completionMinutes":45,"basePay":8,"maxBonus":9,"perTrialBonus":0.5,"perTrialBonusThreshold":0.1,"exampleCost":0.01},"classroomParams":{"A":{"a":1,"b":4},"B":{"a":4,"b":1},"C":{"a":2,"b":8},"D":{"a":8,"b":2}},"conditions":["nonSeqFull","nonSeqPartial","seqNoFeedback","seqFeedback"],"classroomPairings":[["A","B"],["C","D"]],"coinWeights":[0.2,0.5,0.8],"subjectId":"A12FTSX85NQ8N9","assignmentId":"3VJ40NV2QJ9XXH6LY2U3Z4NXIWHTOJ","hitId":"3H6W48L9F4B5OEOMH57RM53ZYNHWPM","url":"https://gershmanlab.com/experiments/alicia/teaching/experiment/?hitId=3H6W48L9F4B5OEOMH57RM53ZYNHWPM&workerId=A12FTSX85NQ8N9&assignmentId=3VJ40NV2QJ9XXH6LY2U3Z4NXIWHTOJ&a=20JV8&tp_a=20JV8&b=3VJ40NV2QJ9XXH6LY2U3Z4NXIWHTOJ&tp_b=3VJ40NV2QJ9XXH6LY2U3Z4NXIWHTOJ&c=365198&tp_c=365198","heads":3,"tails":2,"studentIndex":2,"studentTrueHypers":{"a":4,"b":1},"studentGuess":0.7,"delta":0.10000000000000009,"totalExamples":5,"bonusSoFar":0.85},{"rt":null,"stimulus":"Sending examples to student... ","response":null,"trial_type":"html-keyboard-response","trial_index":20,"time_elapsed":596624,"internal_node_id":"0.0-19.0","params":{"nStudents":24,"maxFlips":30,"completionMinutes":45,"basePay":8,"maxBonus":9,"perTrialBonus":0.5,"perTrialBonusThreshold":0.1,"exampleCost":0.01},"classroomParams":{"A":{"a":1,"b":4},"B":{"a":4,"b":1},"C":{"a":2,"b":8},"D":{"a":8,"b":2}},"conditions":["nonSeqFull","nonSeqPartial","seqNoFeedback","seqFeedback"],"classroomPairings":[["A","B"],["C","D"]],"coinWeights":[0.2,0.5,0.8],"subjectId":"A12FTSX85NQ8N9","assignmentId":"3VJ40NV2QJ9XXH6LY2U3Z4NXIWHTOJ","hitId":"3H6W48L9F4B5OEOMH57RM53ZYNHWPM","url":"https://gershmanlab.com/experiments/alicia/teaching/experiment/?hitId=3H6W48L9F4B5OEOMH57RM53ZYNHWPM&workerId=A12FTSX85NQ8N9&assignmentId=3VJ40NV2QJ9XXH6LY2U3Z4NXIWHTOJ&a=20JV8&tp_a=20JV8&b=3VJ40NV2QJ9XXH6LY2U3Z4NXIWHTOJ&tp_b=3VJ40NV2QJ9XXH6LY2U3Z4NXIWHTOJ&c=365198&tp_c=365198"},{"rt":null,"stimulus":"Examples sent to student! Waiting for student...","response":null,"trial_type":"html-keyboard-response","trial_index":21,"time_elapsed":602137,"internal_node_id":"0.0-20.0","params":{"nStudents":24,"maxFlips":30,"completionMinutes":45,"basePay":8,"maxBonus":9,"perTrialBonus":0.5,"perTrialBonusThreshold":0.1,"exampleCost":0.01},"classroomParams":{"A":{"a":1,"b":4},"B":{"a":4,"b":1},"C":{"a":2,"b":8},"D":{"a":8,"b":2}},"conditions":["nonSeqFull","nonSeqPartial","seqNoFeedback","seqFeedback"],"classroomPairings":[["A","B"],["C","D"]],"coinWeights":[0.2,0.5,0.8],"subjectId":"A12FTSX85NQ8N9","assignmentId":"3VJ40NV2QJ9XXH6LY2U3Z4NXIWHTOJ","hitId":"3H6W48L9F4B5OEOMH57RM53ZYNHWPM","url":"https://gershmanlab.com/experiments/alicia/teaching/experiment/?hitId=3H6W48L9F4B5OEOMH57RM53ZYNHWPM&workerId=A12FTSX85NQ8N9&assignmentId=3VJ40NV2QJ9XXH6LY2U3Z4NXIWHTOJ&a=20JV8&tp_a=20JV8&b=3VJ40NV2QJ9XXH6LY2U3Z4NXIWHTOJ&tp_b=3VJ40NV2QJ9XXH6LY2U3Z4NXIWHTOJ&c=365198&tp_c=365198"},{"rt":1386,"stimulus":"\n                <p>Student's guess for coin weight: <b style=\"color:Tomato;\">0.70</b></p>\n                <p></b></p>\n                <p>You will now send another set of examples to your student. Press any key to continue.</p>\n                ","response":" ","trial_type":"html-keyboard-response","trial_index":22,"time_elapsed":603525,"internal_node_id":"0.0-21.0","params":{"nStudents":24,"maxFlips":30,"completionMinutes":45,"basePay":8,"maxBonus":9,"perTrialBonus":0.5,"perTrialBonusThreshold":0.1,"exampleCost":0.01},"classroomParams":{"A":{"a":1,"b":4},"B":{"a":4,"b":1},"C":{"a":2,"b":8},"D":{"a":8,"b":2}},"conditions":["nonSeqFull","nonSeqPartial","seqNoFeedback","seqFeedback"],"classroomPairings":[["A","B"],["C","D"]],"coinWeights":[0.2,0.5,0.8],"subjectId":"A12FTSX85NQ8N9","assignmentId":"3VJ40NV2QJ9XXH6LY2U3Z4NXIWHTOJ","hitId":"3H6W48L9F4B5OEOMH57RM53ZYNHWPM","url":"https://gershmanlab.com/experiments/alicia/teaching/experiment/?hitId=3H6W48L9F4B5OEOMH57RM53ZYNHWPM&workerId=A12FTSX85NQ8N9&assignmentId=3VJ40NV2QJ9XXH6LY2U3Z4NXIWHTOJ&a=20JV8&tp_a=20JV8&b=3VJ40NV2QJ9XXH6LY2U3Z4NXIWHTOJ&tp_b=3VJ40NV2QJ9XXH6LY2U3Z4NXIWHTOJ&c=365198&tp_c=365198"},{"rt":7674,"response":{"heads":"3","tails":"2"},"type":"response","condition":"seqFeedback","trueTheta":0.8,"classrooms":["A","B"],"studentTrueClassroom":"B","exampleSet":"second","trial_type":"survey-html-form","trial_index":23,"time_elapsed":611200,"internal_node_id":"0.0-22.0-0.0","params":{"nStudents":24,"maxFlips":30,"completionMinutes":45,"basePay":8,"maxBonus":9,"perTrialBonus":0.5,"perTrialBonusThreshold":0.1,"exampleCost":0.01},"classroomParams":{"A":{"a":1,"b":4},"B":{"a":4,"b":1},"C":{"a":2,"b":8},"D":{"a":8,"b":2}},"conditions":["nonSeqFull","nonSeqPartial","seqNoFeedback","seqFeedback"],"classroomPairings":[["A","B"],["C","D"]],"coinWeights":[0.2,0.5,0.8],"subjectId":"A12FTSX85NQ8N9","assignmentId":"3VJ40NV2QJ9XXH6LY2U3Z4NXIWHTOJ","hitId":"3H6W48L9F4B5OEOMH57RM53ZYNHWPM","url":"https://gershmanlab.com/experiments/alicia/teaching/experiment/?hitId=3H6W48L9F4B5OEOMH57RM53ZYNHWPM&workerId=A12FTSX85NQ8N9&assignmentId=3VJ40NV2QJ9XXH6LY2U3Z4NXIWHTOJ&a=20JV8&tp_a=20JV8&b=3VJ40NV2QJ9XXH6LY2U3Z4NXIWHTOJ&tp_b=3VJ40NV2QJ9XXH6LY2U3Z4NXIWHTOJ&c=365198&tp_c=365198","firstResponseHeads":3,"firstResponseTails":2,"secondResponseHeads":3,"secondResponseTails":2,"studentIndex":2,"studentTrueHypers":{"a":4,"b":1},"studentGuess":0.6666666666666666,"delta":0.13333333333333341,"bonus":0,"bonusSoFar":0.85,"totalExamples":10},{"rt":null,"stimulus":"Sending examples to student... ","response":null,"trial_type":"html-keyboard-response","trial_index":24,"time_elapsed":612719,"internal_node_id":"0.0-23.0","params":{"nStudents":24,"maxFlips":30,"completionMinutes":45,"basePay":8,"maxBonus":9,"perTrialBonus":0.5,"perTrialBonusThreshold":0.1,"exampleCost":0.01},"classroomParams":{"A":{"a":1,"b":4},"B":{"a":4,"b":1},"C":{"a":2,"b":8},"D":{"a":8,"b":2}},"conditions":["nonSeqFull","nonSeqPartial","seqNoFeedback","seqFeedback"],"classroomPairings":[["A","B"],["C","D"]],"coinWeights":[0.2,0.5,0.8],"subjectId":"A12FTSX85NQ8N9","assignmentId":"3VJ40NV2QJ9XXH6LY2U3Z4NXIWHTOJ","hitId":"3H6W48L9F4B5OEOMH57RM53ZYNHWPM","url":"https://gershmanlab.com/experiments/alicia/teaching/experiment/?hitId=3H6W48L9F4B5OEOMH57RM53ZYNHWPM&workerId=A12FTSX85NQ8N9&assignmentId=3VJ40NV2QJ9XXH6LY2U3Z4NXIWHTOJ&a=20JV8&tp_a=20JV8&b=3VJ40NV2QJ9XXH6LY2U3Z4NXIWHTOJ&tp_b=3VJ40NV2QJ9XXH6LY2U3Z4NXIWHTOJ&c=365198&tp_c=365198"},{"rt":null,"stimulus":"Examples sent to student! Waiting for student...","response":null,"trial_type":"html-keyboard-response","trial_index":25,"time_elapsed":616727,"internal_node_id":"0.0-24.0","params":{"nStudents":24,"maxFlips":30,"completionMinutes":45,"basePay":8,"maxBonus":9,"perTrialBonus":0.5,"perTrialBonusThreshold":0.1,"exampleCost":0.01},"classroomParams":{"A":{"a":1,"b":4},"B":{"a":4,"b":1},"C":{"a":2,"b":8},"D":{"a":8,"b":2}},"conditions":["nonSeqFull","nonSeqPartial","seqNoFeedback","seqFeedback"],"classroomPairings":[["A","B"],["C","D"]],"coinWeights":[0.2,0.5,0.8],"subjectId":"A12FTSX85NQ8N9","assignmentId":"3VJ40NV2QJ9XXH6LY2U3Z4NXIWHTOJ","hitId":"3H6W48L9F4B5OEOMH57RM53ZYNHWPM","url":"https://gershmanlab.com/experiments/alicia/teaching/experiment/?hitId=3H6W48L9F4B5OEOMH57RM53ZYNHWPM&workerId=A12FTSX85NQ8N9&assignmentId=3VJ40NV2QJ9XXH6LY2U3Z4NXIWHTOJ&a=20JV8&tp_a=20JV8&b=3VJ40NV2QJ9XXH6LY2U3Z4NXIWHTOJ&tp_b=3VJ40NV2QJ9XXH6LY2U3Z4NXIWHTOJ&c=365198&tp_c=365198"},{"rt":4004,"stimulus":"\n                <p>Student 3's first guess for coin weight: <b style=\"color:Tomato\";>0.70</b></p>\n                <p>Student 3's second guess for coin weight: <b style=\"color:Tomato\";>0.67</b></p>\n                <p>You received a bonus of <b>$0.00</b> based on the student's second guess.</p>\n                <p>Total bonus so far: <b>$0.85</b></p>\n                <p>Press any key to continue.</p>\n                ","response":" ","trial_type":"html-keyboard-response","trial_index":26,"time_elapsed":620733,"internal_node_id":"0.0-25.0","params":{"nStudents":24,"maxFlips":30,"completionMinutes":45,"basePay":8,"maxBonus":9,"perTrialBonus":0.5,"perTrialBonusThreshold":0.1,"exampleCost":0.01},"classroomParams":{"A":{"a":1,"b":4},"B":{"a":4,"b":1},"C":{"a":2,"b":8},"D":{"a":8,"b":2}},"conditions":["nonSeqFull","nonSeqPartial","seqNoFeedback","seqFeedback"],"classroomPairings":[["A","B"],["C","D"]],"coinWeights":[0.2,0.5,0.8],"subjectId":"A12FTSX85NQ8N9","assignmentId":"3VJ40NV2QJ9XXH6LY2U3Z4NXIWHTOJ","hitId":"3H6W48L9F4B5OEOMH57RM53ZYNHWPM","url":"https://gershmanlab.com/experiments/alicia/teaching/experiment/?hitId=3H6W48L9F4B5OEOMH57RM53ZYNHWPM&workerId=A12FTSX85NQ8N9&assignmentId=3VJ40NV2QJ9XXH6LY2U3Z4NXIWHTOJ&a=20JV8&tp_a=20JV8&b=3VJ40NV2QJ9XXH6LY2U3Z4NXIWHTOJ&tp_b=3VJ40NV2QJ9XXH6LY2U3Z4NXIWHTOJ&c=365198&tp_c=365198"},{"rt":null,"stimulus":"<div style=\"font-size:60px;\">Next student</div>","response":null,"trial_type":"html-keyboard-response","trial_index":27,"time_elapsed":623249,"internal_node_id":"0.0-26.0-0.0","params":{"nStudents":24,"maxFlips":30,"completionMinutes":45,"basePay":8,"maxBonus":9,"perTrialBonus":0.5,"perTrialBonusThreshold":0.1,"exampleCost":0.01},"classroomParams":{"A":{"a":1,"b":4},"B":{"a":4,"b":1},"C":{"a":2,"b":8},"D":{"a":8,"b":2}},"conditions":["nonSeqFull","nonSeqPartial","seqNoFeedback","seqFeedback"],"classroomPairings":[["A","B"],["C","D"]],"coinWeights":[0.2,0.5,0.8],"subjectId":"A12FTSX85NQ8N9","assignmentId":"3VJ40NV2QJ9XXH6LY2U3Z4NXIWHTOJ","hitId":"3H6W48L9F4B5OEOMH57RM53ZYNHWPM","url":"https://gershmanlab.com/experiments/alicia/teaching/experiment/?hitId=3H6W48L9F4B5OEOMH57RM53ZYNHWPM&workerId=A12FTSX85NQ8N9&assignmentId=3VJ40NV2QJ9XXH6LY2U3Z4NXIWHTOJ&a=20JV8&tp_a=20JV8&b=3VJ40NV2QJ9XXH6LY2U3Z4NXIWHTOJ&tp_b=3VJ40NV2QJ9XXH6LY2U3Z4NXIWHTOJ&c=365198&tp_c=365198"},{"rt":2266,"stimulus":"\n            <h4 style=\"color:Orange;\">Student 4</h4>\n            <h2>The weight of your coin is <b style=\"color:Tomato;\">0.5</b>.</h2>\n            <p>In this block, you will be giving <b>one</b> set of examples to Student 4.</p>\n                <p>You will receive feedback at the end of the block.</p>\n            ","response":0,"trial_type":"html-button-response","trial_index":28,"time_elapsed":625516,"internal_node_id":"0.0-27.0","params":{"nStudents":24,"maxFlips":30,"completionMinutes":45,"basePay":8,"maxBonus":9,"perTrialBonus":0.5,"perTrialBonusThreshold":0.1,"exampleCost":0.01},"classroomParams":{"A":{"a":1,"b":4},"B":{"a":4,"b":1},"C":{"a":2,"b":8},"D":{"a":8,"b":2}},"conditions":["nonSeqFull","nonSeqPartial","seqNoFeedback","seqFeedback"],"classroomPairings":[["A","B"],["C","D"]],"coinWeights":[0.2,0.5,0.8],"subjectId":"A12FTSX85NQ8N9","assignmentId":"3VJ40NV2QJ9XXH6LY2U3Z4NXIWHTOJ","hitId":"3H6W48L9F4B5OEOMH57RM53ZYNHWPM","url":"https://gershmanlab.com/experiments/alicia/teaching/experiment/?hitId=3H6W48L9F4B5OEOMH57RM53ZYNHWPM&workerId=A12FTSX85NQ8N9&assignmentId=3VJ40NV2QJ9XXH6LY2U3Z4NXIWHTOJ&a=20JV8&tp_a=20JV8&b=3VJ40NV2QJ9XXH6LY2U3Z4NXIWHTOJ&tp_b=3VJ40NV2QJ9XXH6LY2U3Z4NXIWHTOJ&c=365198&tp_c=365198"},{"rt":6408,"response":{"heads":"5","tails":"5"},"type":"response","condition":"nonSeqPartial","trueTheta":0.5,"classrooms":["C","D"],"studentTrueClassroom":"C","exampleSet":"first","trial_type":"survey-html-form","trial_index":29,"time_elapsed":631925,"internal_node_id":"0.0-28.0-0.0","params":{"nStudents":24,"maxFlips":30,"completionMinutes":45,"basePay":8,"maxBonus":9,"perTrialBonus":0.5,"perTrialBonusThreshold":0.1,"exampleCost":0.01},"classroomParams":{"A":{"a":1,"b":4},"B":{"a":4,"b":1},"C":{"a":2,"b":8},"D":{"a":8,"b":2}},"conditions":["nonSeqFull","nonSeqPartial","seqNoFeedback","seqFeedback"],"classroomPairings":[["A","B"],["C","D"]],"coinWeights":[0.2,0.5,0.8],"subjectId":"A12FTSX85NQ8N9","assignmentId":"3VJ40NV2QJ9XXH6LY2U3Z4NXIWHTOJ","hitId":"3H6W48L9F4B5OEOMH57RM53ZYNHWPM","url":"https://gershmanlab.com/experiments/alicia/teaching/experiment/?hitId=3H6W48L9F4B5OEOMH57RM53ZYNHWPM&workerId=A12FTSX85NQ8N9&assignmentId=3VJ40NV2QJ9XXH6LY2U3Z4NXIWHTOJ&a=20JV8&tp_a=20JV8&b=3VJ40NV2QJ9XXH6LY2U3Z4NXIWHTOJ&tp_b=3VJ40NV2QJ9XXH6LY2U3Z4NXIWHTOJ&c=365198&tp_c=365198","heads":5,"tails":5,"studentIndex":3,"studentTrueHypers":{"a":2,"b":8},"studentGuess":0.35,"delta":0.15000000000000002,"totalExamples":10,"bonus":0,"bonusSoFar":0.85},{"rt":null,"stimulus":"Sending examples to student... ","response":null,"trial_type":"html-keyboard-response","trial_index":30,"time_elapsed":633725,"internal_node_id":"0.0-29.0","params":{"nStudents":24,"maxFlips":30,"completionMinutes":45,"basePay":8,"maxBonus":9,"perTrialBonus":0.5,"perTrialBonusThreshold":0.1,"exampleCost":0.01},"classroomParams":{"A":{"a":1,"b":4},"B":{"a":4,"b":1},"C":{"a":2,"b":8},"D":{"a":8,"b":2}},"conditions":["nonSeqFull","nonSeqPartial","seqNoFeedback","seqFeedback"],"classroomPairings":[["A","B"],["C","D"]],"coinWeights":[0.2,0.5,0.8],"subjectId":"A12FTSX85NQ8N9","assignmentId":"3VJ40NV2QJ9XXH6LY2U3Z4NXIWHTOJ","hitId":"3H6W48L9F4B5OEOMH57RM53ZYNHWPM","url":"https://gershmanlab.com/experiments/alicia/teaching/experiment/?hitId=3H6W48L9F4B5OEOMH57RM53ZYNHWPM&workerId=A12FTSX85NQ8N9&assignmentId=3VJ40NV2QJ9XXH6LY2U3Z4NXIWHTOJ&a=20JV8&tp_a=20JV8&b=3VJ40NV2QJ9XXH6LY2U3Z4NXIWHTOJ&tp_b=3VJ40NV2QJ9XXH6LY2U3Z4NXIWHTOJ&c=365198&tp_c=365198"},{"rt":null,"stimulus":"Examples sent to student! Waiting for student...","response":null,"trial_type":"html-keyboard-response","trial_index":31,"time_elapsed":638239,"internal_node_id":"0.0-30.0","params":{"nStudents":24,"maxFlips":30,"completionMinutes":45,"basePay":8,"maxBonus":9,"perTrialBonus":0.5,"perTrialBonusThreshold":0.1,"exampleCost":0.01},"classroomParams":{"A":{"a":1,"b":4},"B":{"a":4,"b":1},"C":{"a":2,"b":8},"D":{"a":8,"b":2}},"conditions":["nonSeqFull","nonSeqPartial","seqNoFeedback","seqFeedback"],"classroomPairings":[["A","B"],["C","D"]],"coinWeights":[0.2,0.5,0.8],"subjectId":"A12FTSX85NQ8N9","assignmentId":"3VJ40NV2QJ9XXH6LY2U3Z4NXIWHTOJ","hitId":"3H6W48L9F4B5OEOMH57RM53ZYNHWPM","url":"https://gershmanlab.com/experiments/alicia/teaching/experiment/?hitId=3H6W48L9F4B5OEOMH57RM53ZYNHWPM&workerId=A12FTSX85NQ8N9&assignmentId=3VJ40NV2QJ9XXH6LY2U3Z4NXIWHTOJ&a=20JV8&tp_a=20JV8&b=3VJ40NV2QJ9XXH6LY2U3Z4NXIWHTOJ&tp_b=3VJ40NV2QJ9XXH6LY2U3Z4NXIWHTOJ&c=365198&tp_c=365198"},{"rt":2289,"stimulus":"\n                <p>Student's guess for coin weight: <b style=\"color:Tomato;\">0.35</b></p>\n                <p>You received a bonus of <b>$0</b>. Total bonus so far: <b>$0.85</b></b></p>\n                <p> Press any key to continue.</p>\n                ","response":" ","trial_type":"html-keyboard-response","trial_index":32,"time_elapsed":640530,"internal_node_id":"0.0-31.0","params":{"nStudents":24,"maxFlips":30,"completionMinutes":45,"basePay":8,"maxBonus":9,"perTrialBonus":0.5,"perTrialBonusThreshold":0.1,"exampleCost":0.01},"classroomParams":{"A":{"a":1,"b":4},"B":{"a":4,"b":1},"C":{"a":2,"b":8},"D":{"a":8,"b":2}},"conditions":["nonSeqFull","nonSeqPartial","seqNoFeedback","seqFeedback"],"classroomPairings":[["A","B"],["C","D"]],"coinWeights":[0.2,0.5,0.8],"subjectId":"A12FTSX85NQ8N9","assignmentId":"3VJ40NV2QJ9XXH6LY2U3Z4NXIWHTOJ","hitId":"3H6W48L9F4B5OEOMH57RM53ZYNHWPM","url":"https://gershmanlab.com/experiments/alicia/teaching/experiment/?hitId=3H6W48L9F4B5OEOMH57RM53ZYNHWPM&workerId=A12FTSX85NQ8N9&assignmentId=3VJ40NV2QJ9XXH6LY2U3Z4NXIWHTOJ&a=20JV8&tp_a=20JV8&b=3VJ40NV2QJ9XXH6LY2U3Z4NXIWHTOJ&tp_b=3VJ40NV2QJ9XXH6LY2U3Z4NXIWHTOJ&c=365198&tp_c=365198"},{"rt":null,"stimulus":"<div style=\"font-size:60px;\">Next student</div>","response":null,"trial_type":"html-keyboard-response","trial_index":33,"time_elapsed":643539,"internal_node_id":"0.0-32.0-0.0","params":{"nStudents":24,"maxFlips":30,"completionMinutes":45,"basePay":8,"maxBonus":9,"perTrialBonus":0.5,"perTrialBonusThreshold":0.1,"exampleCost":0.01},"classroomParams":{"A":{"a":1,"b":4},"B":{"a":4,"b":1},"C":{"a":2,"b":8},"D":{"a":8,"b":2}},"conditions":["nonSeqFull","nonSeqPartial","seqNoFeedback","seqFeedback"],"classroomPairings":[["A","B"],["C","D"]],"coinWeights":[0.2,0.5,0.8],"subjectId":"A12FTSX85NQ8N9","assignmentId":"3VJ40NV2QJ9XXH6LY2U3Z4NXIWHTOJ","hitId":"3H6W48L9F4B5OEOMH57RM53ZYNHWPM","url":"https://gershmanlab.com/experiments/alicia/teaching/experiment/?hitId=3H6W48L9F4B5OEOMH57RM53ZYNHWPM&workerId=A12FTSX85NQ8N9&assignmentId=3VJ40NV2QJ9XXH6LY2U3Z4NXIWHTOJ&a=20JV8&tp_a=20JV8&b=3VJ40NV2QJ9XXH6LY2U3Z4NXIWHTOJ&tp_b=3VJ40NV2QJ9XXH6LY2U3Z4NXIWHTOJ&c=365198&tp_c=365198"},{"rt":2754,"stimulus":"\n            <h4 style=\"color:Orange;\">Student 5</h4>\n            <h2>The weight of your coin is <b style=\"color:Tomato;\">0.5</b>.</h2>\n            <p>In this block, you will be giving <b>two</b> sets of examples to Student 5.</p>\n                <p>You will see the student's guess after the first set of examples. You will also receive feedback at the end of the block.</p>\n            ","response":0,"trial_type":"html-button-response","trial_index":34,"time_elapsed":646295,"internal_node_id":"0.0-33.0","params":{"nStudents":24,"maxFlips":30,"completionMinutes":45,"basePay":8,"maxBonus":9,"perTrialBonus":0.5,"perTrialBonusThreshold":0.1,"exampleCost":0.01},"classroomParams":{"A":{"a":1,"b":4},"B":{"a":4,"b":1},"C":{"a":2,"b":8},"D":{"a":8,"b":2}},"conditions":["nonSeqFull","nonSeqPartial","seqNoFeedback","seqFeedback"],"classroomPairings":[["A","B"],["C","D"]],"coinWeights":[0.2,0.5,0.8],"subjectId":"A12FTSX85NQ8N9","assignmentId":"3VJ40NV2QJ9XXH6LY2U3Z4NXIWHTOJ","hitId":"3H6W48L9F4B5OEOMH57RM53ZYNHWPM","url":"https://gershmanlab.com/experiments/alicia/teaching/experiment/?hitId=3H6W48L9F4B5OEOMH57RM53ZYNHWPM&workerId=A12FTSX85NQ8N9&assignmentId=3VJ40NV2QJ9XXH6LY2U3Z4NXIWHTOJ&a=20JV8&tp_a=20JV8&b=3VJ40NV2QJ9XXH6LY2U3Z4NXIWHTOJ&tp_b=3VJ40NV2QJ9XXH6LY2U3Z4NXIWHTOJ&c=365198&tp_c=365198"},{"rt":8458,"response":{"heads":"5","tails":"5"},"type":"response","condition":"seqFeedback","trueTheta":0.5,"classrooms":["C","D"],"studentTrueClassroom":"D","exampleSet":"first","trial_type":"survey-html-form","trial_index":35,"time_elapsed":654755,"internal_node_id":"0.0-34.0-0.0","params":{"nStudents":24,"maxFlips":30,"completionMinutes":45,"basePay":8,"maxBonus":9,"perTrialBonus":0.5,"perTrialBonusThreshold":0.1,"exampleCost":0.01},"classroomParams":{"A":{"a":1,"b":4},"B":{"a":4,"b":1},"C":{"a":2,"b":8},"D":{"a":8,"b":2}},"conditions":["nonSeqFull","nonSeqPartial","seqNoFeedback","seqFeedback"],"classroomPairings":[["A","B"],["C","D"]],"coinWeights":[0.2,0.5,0.8],"subjectId":"A12FTSX85NQ8N9","assignmentId":"3VJ40NV2QJ9XXH6LY2U3Z4NXIWHTOJ","hitId":"3H6W48L9F4B5OEOMH57RM53ZYNHWPM","url":"https://gershmanlab.com/experiments/alicia/teaching/experiment/?hitId=3H6W48L9F4B5OEOMH57RM53ZYNHWPM&workerId=A12FTSX85NQ8N9&assignmentId=3VJ40NV2QJ9XXH6LY2U3Z4NXIWHTOJ&a=20JV8&tp_a=20JV8&b=3VJ40NV2QJ9XXH6LY2U3Z4NXIWHTOJ&tp_b=3VJ40NV2QJ9XXH6LY2U3Z4NXIWHTOJ&c=365198&tp_c=365198","heads":5,"tails":5,"studentIndex":4,"studentTrueHypers":{"a":8,"b":2},"studentGuess":0.65,"delta":0.15000000000000002,"totalExamples":10,"bonusSoFar":0.85},{"rt":null,"stimulus":"Sending examples to student... ","response":null,"trial_type":"html-keyboard-response","trial_index":36,"time_elapsed":656516,"internal_node_id":"0.0-35.0","params":{"nStudents":24,"maxFlips":30,"completionMinutes":45,"basePay":8,"maxBonus":9,"perTrialBonus":0.5,"perTrialBonusThreshold":0.1,"exampleCost":0.01},"classroomParams":{"A":{"a":1,"b":4},"B":{"a":4,"b":1},"C":{"a":2,"b":8},"D":{"a":8,"b":2}},"conditions":["nonSeqFull","nonSeqPartial","seqNoFeedback","seqFeedback"],"classroomPairings":[["A","B"],["C","D"]],"coinWeights":[0.2,0.5,0.8],"subjectId":"A12FTSX85NQ8N9","assignmentId":"3VJ40NV2QJ9XXH6LY2U3Z4NXIWHTOJ","hitId":"3H6W48L9F4B5OEOMH57RM53ZYNHWPM","url":"https://gershmanlab.com/experiments/alicia/teaching/experiment/?hitId=3H6W48L9F4B5OEOMH57RM53ZYNHWPM&workerId=A12FTSX85NQ8N9&assignmentId=3VJ40NV2QJ9XXH6LY2U3Z4NXIWHTOJ&a=20JV8&tp_a=20JV8&b=3VJ40NV2QJ9XXH6LY2U3Z4NXIWHTOJ&tp_b=3VJ40NV2QJ9XXH6LY2U3Z4NXIWHTOJ&c=365198&tp_c=365198"},{"rt":null,"stimulus":"Examples sent to student! Waiting for student...","response":null,"trial_type":"html-keyboard-response","trial_index":37,"time_elapsed":661526,"internal_node_id":"0.0-36.0","params":{"nStudents":24,"maxFlips":30,"completionMinutes":45,"basePay":8,"maxBonus":9,"perTrialBonus":0.5,"perTrialBonusThreshold":0.1,"exampleCost":0.01},"classroomParams":{"A":{"a":1,"b":4},"B":{"a":4,"b":1},"C":{"a":2,"b":8},"D":{"a":8,"b":2}},"conditions":["nonSeqFull","nonSeqPartial","seqNoFeedback","seqFeedback"],"classroomPairings":[["A","B"],["C","D"]],"coinWeights":[0.2,0.5,0.8],"subjectId":"A12FTSX85NQ8N9","assignmentId":"3VJ40NV2QJ9XXH6LY2U3Z4NXIWHTOJ","hitId":"3H6W48L9F4B5OEOMH57RM53ZYNHWPM","url":"https://gershmanlab.com/experiments/alicia/teaching/experiment/?hitId=3H6W48L9F4B5OEOMH57RM53ZYNHWPM&workerId=A12FTSX85NQ8N9&assignmentId=3VJ40NV2QJ9XXH6LY2U3Z4NXIWHTOJ&a=20JV8&tp_a=20JV8&b=3VJ40NV2QJ9XXH6LY2U3Z4NXIWHTOJ&tp_b=3VJ40NV2QJ9XXH6LY2U3Z4NXIWHTOJ&c=365198&tp_c=365198"},{"rt":2508,"stimulus":"\n                <p>Student's guess for coin weight: <b style=\"color:Tomato;\">0.65</b></p>\n                <p></b></p>\n                <p>You will now send another set of examples to your student. Press any key to continue.</p>\n                ","response":" ","trial_type":"html-keyboard-response","trial_index":38,"time_elapsed":664036,"internal_node_id":"0.0-37.0","params":{"nStudents":24,"maxFlips":30,"completionMinutes":45,"basePay":8,"maxBonus":9,"perTrialBonus":0.5,"perTrialBonusThreshold":0.1,"exampleCost":0.01},"classroomParams":{"A":{"a":1,"b":4},"B":{"a":4,"b":1},"C":{"a":2,"b":8},"D":{"a":8,"b":2}},"conditions":["nonSeqFull","nonSeqPartial","seqNoFeedback","seqFeedback"],"classroomPairings":[["A","B"],["C","D"]],"coinWeights":[0.2,0.5,0.8],"subjectId":"A12FTSX85NQ8N9","assignmentId":"3VJ40NV2QJ9XXH6LY2U3Z4NXIWHTOJ","hitId":"3H6W48L9F4B5OEOMH57RM53ZYNHWPM","url":"https://gershmanlab.com/experiments/alicia/teaching/experiment/?hitId=3H6W48L9F4B5OEOMH57RM53ZYNHWPM&workerId=A12FTSX85NQ8N9&assignmentId=3VJ40NV2QJ9XXH6LY2U3Z4NXIWHTOJ&a=20JV8&tp_a=20JV8&b=3VJ40NV2QJ9XXH6LY2U3Z4NXIWHTOJ&tp_b=3VJ40NV2QJ9XXH6LY2U3Z4NXIWHTOJ&c=365198&tp_c=365198"},{"rt":3204,"response":{"heads":"5","tails":"5"},"type":"response","condition":"seqFeedback","trueTheta":0.5,"classrooms":["C","D"],"studentTrueClassroom":"D","exampleSet":"second","trial_type":"survey-html-form","trial_index":39,"time_elapsed":667242,"internal_node_id":"0.0-38.0-0.0","params":{"nStudents":24,"maxFlips":30,"completionMinutes":45,"basePay":8,"maxBonus":9,"perTrialBonus":0.5,"perTrialBonusThreshold":0.1,"exampleCost":0.01},"classroomParams":{"A":{"a":1,"b":4},"B":{"a":4,"b":1},"C":{"a":2,"b":8},"D":{"a":8,"b":2}},"conditions":["nonSeqFull","nonSeqPartial","seqNoFeedback","seqFeedback"],"classroomPairings":[["A","B"],["C","D"]],"coinWeights":[0.2,0.5,0.8],"subjectId":"A12FTSX85NQ8N9","assignmentId":"3VJ40NV2QJ9XXH6LY2U3Z4NXIWHTOJ","hitId":"3H6W48L9F4B5OEOMH57RM53ZYNHWPM","url":"https://gershmanlab.com/experiments/alicia/teaching/experiment/?hitId=3H6W48L9F4B5OEOMH57RM53ZYNHWPM&workerId=A12FTSX85NQ8N9&assignmentId=3VJ40NV2QJ9XXH6LY2U3Z4NXIWHTOJ&a=20JV8&tp_a=20JV8&b=3VJ40NV2QJ9XXH6LY2U3Z4NXIWHTOJ&tp_b=3VJ40NV2QJ9XXH6LY2U3Z4NXIWHTOJ&c=365198&tp_c=365198","firstResponseHeads":5,"firstResponseTails":5,"secondResponseHeads":5,"secondResponseTails":5,"studentIndex":4,"studentTrueHypers":{"a":8,"b":2},"studentGuess":0.6,"delta":0.09999999999999998,"bonus":0.3,"bonusSoFar":1.15,"totalExamples":20},{"rt":null,"stimulus":"Sending examples to student... ","response":null,"trial_type":"html-keyboard-response","trial_index":40,"time_elapsed":668497,"internal_node_id":"0.0-39.0","params":{"nStudents":24,"maxFlips":30,"completionMinutes":45,"basePay":8,"maxBonus":9,"perTrialBonus":0.5,"perTrialBonusThreshold":0.1,"exampleCost":0.01},"classroomParams":{"A":{"a":1,"b":4},"B":{"a":4,"b":1},"C":{"a":2,"b":8},"D":{"a":8,"b":2}},"conditions":["nonSeqFull","nonSeqPartial","seqNoFeedback","seqFeedback"],"classroomPairings":[["A","B"],["C","D"]],"coinWeights":[0.2,0.5,0.8],"subjectId":"A12FTSX85NQ8N9","assignmentId":"3VJ40NV2QJ9XXH6LY2U3Z4NXIWHTOJ","hitId":"3H6W48L9F4B5OEOMH57RM53ZYNHWPM","url":"https://gershmanlab.com/experiments/alicia/teaching/experiment/?hitId=3H6W48L9F4B5OEOMH57RM53ZYNHWPM&workerId=A12FTSX85NQ8N9&assignmentId=3VJ40NV2QJ9XXH6LY2U3Z4NXIWHTOJ&a=20JV8&tp_a=20JV8&b=3VJ40NV2QJ9XXH6LY2U3Z4NXIWHTOJ&tp_b=3VJ40NV2QJ9XXH6LY2U3Z4NXIWHTOJ&c=365198&tp_c=365198"},{"rt":null,"stimulus":"Examples sent to student! Waiting for student...","response":null,"trial_type":"html-keyboard-response","trial_index":41,"time_elapsed":674007,"internal_node_id":"0.0-40.0","params":{"nStudents":24,"maxFlips":30,"completionMinutes":45,"basePay":8,"maxBonus":9,"perTrialBonus":0.5,"perTrialBonusThreshold":0.1,"exampleCost":0.01},"classroomParams":{"A":{"a":1,"b":4},"B":{"a":4,"b":1},"C":{"a":2,"b":8},"D":{"a":8,"b":2}},"conditions":["nonSeqFull","nonSeqPartial","seqNoFeedback","seqFeedback"],"classroomPairings":[["A","B"],["C","D"]],"coinWeights":[0.2,0.5,0.8],"subjectId":"A12FTSX85NQ8N9","assignmentId":"3VJ40NV2QJ9XXH6LY2U3Z4NXIWHTOJ","hitId":"3H6W48L9F4B5OEOMH57RM53ZYNHWPM","url":"https://gershmanlab.com/experiments/alicia/teaching/experiment/?hitId=3H6W48L9F4B5OEOMH57RM53ZYNHWPM&workerId=A12FTSX85NQ8N9&assignmentId=3VJ40NV2QJ9XXH6LY2U3Z4NXIWHTOJ&a=20JV8&tp_a=20JV8&b=3VJ40NV2QJ9XXH6LY2U3Z4NXIWHTOJ&tp_b=3VJ40NV2QJ9XXH6LY2U3Z4NXIWHTOJ&c=365198&tp_c=365198"},{"rt":3555,"stimulus":"\n                <p>Student 5's first guess for coin weight: <b style=\"color:Tomato\";>0.65</b></p>\n                <p>Student 5's second guess for coin weight: <b style=\"color:Tomato\";>0.60</b></p>\n                <p>You received a bonus of <b>$0.30</b> based on the student's second guess.</p>\n                <p>Total bonus so far: <b>$1.15</b></p>\n                <p>Press any key to continue.</p>\n                ","response":" ","trial_type":"html-keyboard-response","trial_index":42,"time_elapsed":677564,"internal_node_id":"0.0-41.0","params":{"nStudents":24,"maxFlips":30,"completionMinutes":45,"basePay":8,"maxBonus":9,"perTrialBonus":0.5,"perTrialBonusThreshold":0.1,"exampleCost":0.01},"classroomParams":{"A":{"a":1,"b":4},"B":{"a":4,"b":1},"C":{"a":2,"b":8},"D":{"a":8,"b":2}},"conditions":["nonSeqFull","nonSeqPartial","seqNoFeedback","seqFeedback"],"classroomPairings":[["A","B"],["C","D"]],"coinWeights":[0.2,0.5,0.8],"subjectId":"A12FTSX85NQ8N9","assignmentId":"3VJ40NV2QJ9XXH6LY2U3Z4NXIWHTOJ","hitId":"3H6W48L9F4B5OEOMH57RM53ZYNHWPM","url":"https://gershmanlab.com/experiments/alicia/teaching/experiment/?hitId=3H6W48L9F4B5OEOMH57RM53ZYNHWPM&workerId=A12FTSX85NQ8N9&assignmentId=3VJ40NV2QJ9XXH6LY2U3Z4NXIWHTOJ&a=20JV8&tp_a=20JV8&b=3VJ40NV2QJ9XXH6LY2U3Z4NXIWHTOJ&tp_b=3VJ40NV2QJ9XXH6LY2U3Z4NXIWHTOJ&c=365198&tp_c=365198"},{"rt":null,"stimulus":"<div style=\"font-size:60px;\">Next student</div>","response":null,"trial_type":"html-keyboard-response","trial_index":43,"time_elapsed":679831,"internal_node_id":"0.0-42.0-0.0","params":{"nStudents":24,"maxFlips":30,"completionMinutes":45,"basePay":8,"maxBonus":9,"perTrialBonus":0.5,"perTrialBonusThreshold":0.1,"exampleCost":0.01},"classroomParams":{"A":{"a":1,"b":4},"B":{"a":4,"b":1},"C":{"a":2,"b":8},"D":{"a":8,"b":2}},"conditions":["nonSeqFull","nonSeqPartial","seqNoFeedback","seqFeedback"],"classroomPairings":[["A","B"],["C","D"]],"coinWeights":[0.2,0.5,0.8],"subjectId":"A12FTSX85NQ8N9","assignmentId":"3VJ40NV2QJ9XXH6LY2U3Z4NXIWHTOJ","hitId":"3H6W48L9F4B5OEOMH57RM53ZYNHWPM","url":"https://gershmanlab.com/experiments/alicia/teaching/experiment/?hitId=3H6W48L9F4B5OEOMH57RM53ZYNHWPM&workerId=A12FTSX85NQ8N9&assignmentId=3VJ40NV2QJ9XXH6LY2U3Z4NXIWHTOJ&a=20JV8&tp_a=20JV8&b=3VJ40NV2QJ9XXH6LY2U3Z4NXIWHTOJ&tp_b=3VJ40NV2QJ9XXH6LY2U3Z4NXIWHTOJ&c=365198&tp_c=365198"},{"rt":5864,"stimulus":"\n            <h4 style=\"color:Orange;\">Student 6</h4>\n            <h2>The weight of your coin is <b style=\"color:Tomato;\">0.2</b>.</h2>\n            <p>In this block, you will be giving <b>one</b> set of examples to Student 6.</p>\n                <p>You will receive feedback at the end of the block.</p>\n            ","response":0,"trial_type":"html-button-response","trial_index":44,"time_elapsed":685696,"internal_node_id":"0.0-43.0","params":{"nStudents":24,"maxFlips":30,"completionMinutes":45,"basePay":8,"maxBonus":9,"perTrialBonus":0.5,"perTrialBonusThreshold":0.1,"exampleCost":0.01},"classroomParams":{"A":{"a":1,"b":4},"B":{"a":4,"b":1},"C":{"a":2,"b":8},"D":{"a":8,"b":2}},"conditions":["nonSeqFull","nonSeqPartial","seqNoFeedback","seqFeedback"],"classroomPairings":[["A","B"],["C","D"]],"coinWeights":[0.2,0.5,0.8],"subjectId":"A12FTSX85NQ8N9","assignmentId":"3VJ40NV2QJ9XXH6LY2U3Z4NXIWHTOJ","hitId":"3H6W48L9F4B5OEOMH57RM53ZYNHWPM","url":"https://gershmanlab.com/experiments/alicia/teaching/experiment/?hitId=3H6W48L9F4B5OEOMH57RM53ZYNHWPM&workerId=A12FTSX85NQ8N9&assignmentId=3VJ40NV2QJ9XXH6LY2U3Z4NXIWHTOJ&a=20JV8&tp_a=20JV8&b=3VJ40NV2QJ9XXH6LY2U3Z4NXIWHTOJ&tp_b=3VJ40NV2QJ9XXH6LY2U3Z4NXIWHTOJ&c=365198&tp_c=365198"},{"rt":13010,"response":{"heads":"2","tails":"8"},"type":"response","condition":"nonSeqPartial","trueTheta":0.2,"classrooms":["A","B"],"studentTrueClassroom":"A","exampleSet":"first","trial_type":"survey-html-form","trial_index":45,"time_elapsed":698799,"internal_node_id":"0.0-44.0-0.0","params":{"nStudents":24,"maxFlips":30,"completionMinutes":45,"basePay":8,"maxBonus":9,"perTrialBonus":0.5,"perTrialBonusThreshold":0.1,"exampleCost":0.01},"classroomParams":{"A":{"a":1,"b":4},"B":{"a":4,"b":1},"C":{"a":2,"b":8},"D":{"a":8,"b":2}},"conditions":["nonSeqFull","nonSeqPartial","seqNoFeedback","seqFeedback"],"classroomPairings":[["A","B"],["C","D"]],"coinWeights":[0.2,0.5,0.8],"subjectId":"A12FTSX85NQ8N9","assignmentId":"3VJ40NV2QJ9XXH6LY2U3Z4NXIWHTOJ","hitId":"3H6W48L9F4B5OEOMH57RM53ZYNHWPM","url":"https://gershmanlab.com/experiments/alicia/teaching/experiment/?hitId=3H6W48L9F4B5OEOMH57RM53ZYNHWPM&workerId=A12FTSX85NQ8N9&assignmentId=3VJ40NV2QJ9XXH6LY2U3Z4NXIWHTOJ&a=20JV8&tp_a=20JV8&b=3VJ40NV2QJ9XXH6LY2U3Z4NXIWHTOJ&tp_b=3VJ40NV2QJ9XXH6LY2U3Z4NXIWHTOJ&c=365198&tp_c=365198","heads":2,"tails":8,"studentIndex":5,"studentTrueHypers":{"a":1,"b":4},"studentGuess":0.2,"delta":0,"totalExamples":10,"bonus":0.4,"bonusSoFar":1.55},{"rt":null,"stimulus":"Sending examples to student... ","response":null,"trial_type":"html-keyboard-response","trial_index":46,"time_elapsed":700314,"internal_node_id":"0.0-45.0","params":{"nStudents":24,"maxFlips":30,"completionMinutes":45,"basePay":8,"maxBonus":9,"perTrialBonus":0.5,"perTrialBonusThreshold":0.1,"exampleCost":0.01},"classroomParams":{"A":{"a":1,"b":4},"B":{"a":4,"b":1},"C":{"a":2,"b":8},"D":{"a":8,"b":2}},"conditions":["nonSeqFull","nonSeqPartial","seqNoFeedback","seqFeedback"],"classroomPairings":[["A","B"],["C","D"]],"coinWeights":[0.2,0.5,0.8],"subjectId":"A12FTSX85NQ8N9","assignmentId":"3VJ40NV2QJ9XXH6LY2U3Z4NXIWHTOJ","hitId":"3H6W48L9F4B5OEOMH57RM53ZYNHWPM","url":"https://gershmanlab.com/experiments/alicia/teaching/experiment/?hitId=3H6W48L9F4B5OEOMH57RM53ZYNHWPM&workerId=A12FTSX85NQ8N9&assignmentId=3VJ40NV2QJ9XXH6LY2U3Z4NXIWHTOJ&a=20JV8&tp_a=20JV8&b=3VJ40NV2QJ9XXH6LY2U3Z4NXIWHTOJ&tp_b=3VJ40NV2QJ9XXH6LY2U3Z4NXIWHTOJ&c=365198&tp_c=365198"},{"rt":null,"stimulus":"Examples sent to student! Waiting for student...","response":null,"trial_type":"html-keyboard-response","trial_index":47,"time_elapsed":704826,"internal_node_id":"0.0-46.0","params":{"nStudents":24,"maxFlips":30,"completionMinutes":45,"basePay":8,"maxBonus":9,"perTrialBonus":0.5,"perTrialBonusThreshold":0.1,"exampleCost":0.01},"classroomParams":{"A":{"a":1,"b":4},"B":{"a":4,"b":1},"C":{"a":2,"b":8},"D":{"a":8,"b":2}},"conditions":["nonSeqFull","nonSeqPartial","seqNoFeedback","seqFeedback"],"classroomPairings":[["A","B"],["C","D"]],"coinWeights":[0.2,0.5,0.8],"subjectId":"A12FTSX85NQ8N9","assignmentId":"3VJ40NV2QJ9XXH6LY2U3Z4NXIWHTOJ","hitId":"3H6W48L9F4B5OEOMH57RM53ZYNHWPM","url":"https://gershmanlab.com/experiments/alicia/teaching/experiment/?hitId=3H6W48L9F4B5OEOMH57RM53ZYNHWPM&workerId=A12FTSX85NQ8N9&assignmentId=3VJ40NV2QJ9XXH6LY2U3Z4NXIWHTOJ&a=20JV8&tp_a=20JV8&b=3VJ40NV2QJ9XXH6LY2U3Z4NXIWHTOJ&tp_b=3VJ40NV2QJ9XXH6LY2U3Z4NXIWHTOJ&c=365198&tp_c=365198"},{"rt":4836,"stimulus":"\n                <p>Student's guess for coin weight: <b style=\"color:Tomato;\">0.20</b></p>\n                <p>You received a bonus of <b>$0.4</b>. Total bonus so far: <b>$1.55</b></b></p>\n                <p> Press any key to continue.</p>\n                ","response":" ","trial_type":"html-keyboard-response","trial_index":48,"time_elapsed":709662,"internal_node_id":"0.0-47.0","params":{"nStudents":24,"maxFlips":30,"completionMinutes":45,"basePay":8,"maxBonus":9,"perTrialBonus":0.5,"perTrialBonusThreshold":0.1,"exampleCost":0.01},"classroomParams":{"A":{"a":1,"b":4},"B":{"a":4,"b":1},"C":{"a":2,"b":8},"D":{"a":8,"b":2}},"conditions":["nonSeqFull","nonSeqPartial","seqNoFeedback","seqFeedback"],"classroomPairings":[["A","B"],["C","D"]],"coinWeights":[0.2,0.5,0.8],"subjectId":"A12FTSX85NQ8N9","assignmentId":"3VJ40NV2QJ9XXH6LY2U3Z4NXIWHTOJ","hitId":"3H6W48L9F4B5OEOMH57RM53ZYNHWPM","url":"https://gershmanlab.com/experiments/alicia/teaching/experiment/?hitId=3H6W48L9F4B5OEOMH57RM53ZYNHWPM&workerId=A12FTSX85NQ8N9&assignmentId=3VJ40NV2QJ9XXH6LY2U3Z4NXIWHTOJ&a=20JV8&tp_a=20JV8&b=3VJ40NV2QJ9XXH6LY2U3Z4NXIWHTOJ&tp_b=3VJ40NV2QJ9XXH6LY2U3Z4NXIWHTOJ&c=365198&tp_c=365198"},{"rt":null,"stimulus":"<div style=\"font-size:60px;\">Next student</div>","response":null,"trial_type":"html-keyboard-response","trial_index":49,"time_elapsed":711675,"internal_node_id":"0.0-48.0-0.0","params":{"nStudents":24,"maxFlips":30,"completionMinutes":45,"basePay":8,"maxBonus":9,"perTrialBonus":0.5,"perTrialBonusThreshold":0.1,"exampleCost":0.01},"classroomParams":{"A":{"a":1,"b":4},"B":{"a":4,"b":1},"C":{"a":2,"b":8},"D":{"a":8,"b":2}},"conditions":["nonSeqFull","nonSeqPartial","seqNoFeedback","seqFeedback"],"classroomPairings":[["A","B"],["C","D"]],"coinWeights":[0.2,0.5,0.8],"subjectId":"A12FTSX85NQ8N9","assignmentId":"3VJ40NV2QJ9XXH6LY2U3Z4NXIWHTOJ","hitId":"3H6W48L9F4B5OEOMH57RM53ZYNHWPM","url":"https://gershmanlab.com/experiments/alicia/teaching/experiment/?hitId=3H6W48L9F4B5OEOMH57RM53ZYNHWPM&workerId=A12FTSX85NQ8N9&assignmentId=3VJ40NV2QJ9XXH6LY2U3Z4NXIWHTOJ&a=20JV8&tp_a=20JV8&b=3VJ40NV2QJ9XXH6LY2U3Z4NXIWHTOJ&tp_b=3VJ40NV2QJ9XXH6LY2U3Z4NXIWHTOJ&c=365198&tp_c=365198"},{"rt":2598,"stimulus":"\n            <h4 style=\"color:Orange;\">Student 7</h4>\n            <h2>The weight of your coin is <b style=\"color:Tomato;\">0.8</b>.</h2>\n            <p>In this block, you will be giving <b>two</b> sets of examples to Student 7.</p>\n                <p>You will receive feedback at the end of the block.</p>\n            ","response":0,"trial_type":"html-button-response","trial_index":50,"time_elapsed":714276,"internal_node_id":"0.0-49.0","params":{"nStudents":24,"maxFlips":30,"completionMinutes":45,"basePay":8,"maxBonus":9,"perTrialBonus":0.5,"perTrialBonusThreshold":0.1,"exampleCost":0.01},"classroomParams":{"A":{"a":1,"b":4},"B":{"a":4,"b":1},"C":{"a":2,"b":8},"D":{"a":8,"b":2}},"conditions":["nonSeqFull","nonSeqPartial","seqNoFeedback","seqFeedback"],"classroomPairings":[["A","B"],["C","D"]],"coinWeights":[0.2,0.5,0.8],"subjectId":"A12FTSX85NQ8N9","assignmentId":"3VJ40NV2QJ9XXH6LY2U3Z4NXIWHTOJ","hitId":"3H6W48L9F4B5OEOMH57RM53ZYNHWPM","url":"https://gershmanlab.com/experiments/alicia/teaching/experiment/?hitId=3H6W48L9F4B5OEOMH57RM53ZYNHWPM&workerId=A12FTSX85NQ8N9&assignmentId=3VJ40NV2QJ9XXH6LY2U3Z4NXIWHTOJ&a=20JV8&tp_a=20JV8&b=3VJ40NV2QJ9XXH6LY2U3Z4NXIWHTOJ&tp_b=3VJ40NV2QJ9XXH6LY2U3Z4NXIWHTOJ&c=365198&tp_c=365198"},{"rt":15764,"response":{"heads":"8","tails":"2"},"type":"response","condition":"seqNoFeedback","trueTheta":0.8,"classrooms":["C","D"],"studentTrueClassroom":"D","exampleSet":"first","trial_type":"survey-html-form","trial_index":51,"time_elapsed":730041,"internal_node_id":"0.0-50.0-0.0","params":{"nStudents":24,"maxFlips":30,"completionMinutes":45,"basePay":8,"maxBonus":9,"perTrialBonus":0.5,"perTrialBonusThreshold":0.1,"exampleCost":0.01},"classroomParams":{"A":{"a":1,"b":4},"B":{"a":4,"b":1},"C":{"a":2,"b":8},"D":{"a":8,"b":2}},"conditions":["nonSeqFull","nonSeqPartial","seqNoFeedback","seqFeedback"],"classroomPairings":[["A","B"],["C","D"]],"coinWeights":[0.2,0.5,0.8],"subjectId":"A12FTSX85NQ8N9","assignmentId":"3VJ40NV2QJ9XXH6LY2U3Z4NXIWHTOJ","hitId":"3H6W48L9F4B5OEOMH57RM53ZYNHWPM","url":"https://gershmanlab.com/experiments/alicia/teaching/experiment/?hitId=3H6W48L9F4B5OEOMH57RM53ZYNHWPM&workerId=A12FTSX85NQ8N9&assignmentId=3VJ40NV2QJ9XXH6LY2U3Z4NXIWHTOJ&a=20JV8&tp_a=20JV8&b=3VJ40NV2QJ9XXH6LY2U3Z4NXIWHTOJ&tp_b=3VJ40NV2QJ9XXH6LY2U3Z4NXIWHTOJ&c=365198&tp_c=365198","heads":8,"tails":2,"studentIndex":6,"studentTrueHypers":{"a":8,"b":2},"studentGuess":0.8,"delta":0,"totalExamples":10,"bonusSoFar":1.55},{"rt":null,"stimulus":"Sending examples to student... ","response":null,"trial_type":"html-keyboard-response","trial_index":52,"time_elapsed":731806,"internal_node_id":"0.0-51.0","params":{"nStudents":24,"maxFlips":30,"completionMinutes":45,"basePay":8,"maxBonus":9,"perTrialBonus":0.5,"perTrialBonusThreshold":0.1,"exampleCost":0.01},"classroomParams":{"A":{"a":1,"b":4},"B":{"a":4,"b":1},"C":{"a":2,"b":8},"D":{"a":8,"b":2}},"conditions":["nonSeqFull","nonSeqPartial","seqNoFeedback","seqFeedback"],"classroomPairings":[["A","B"],["C","D"]],"coinWeights":[0.2,0.5,0.8],"subjectId":"A12FTSX85NQ8N9","assignmentId":"3VJ40NV2QJ9XXH6LY2U3Z4NXIWHTOJ","hitId":"3H6W48L9F4B5OEOMH57RM53ZYNHWPM","url":"https://gershmanlab.com/experiments/alicia/teaching/experiment/?hitId=3H6W48L9F4B5OEOMH57RM53ZYNHWPM&workerId=A12FTSX85NQ8N9&assignmentId=3VJ40NV2QJ9XXH6LY2U3Z4NXIWHTOJ&a=20JV8&tp_a=20JV8&b=3VJ40NV2QJ9XXH6LY2U3Z4NXIWHTOJ&tp_b=3VJ40NV2QJ9XXH6LY2U3Z4NXIWHTOJ&c=365198&tp_c=365198"},{"rt":null,"stimulus":"Examples sent to student! Waiting for student...","response":null,"trial_type":"html-keyboard-response","trial_index":53,"time_elapsed":736310,"internal_node_id":"0.0-52.0","params":{"nStudents":24,"maxFlips":30,"completionMinutes":45,"basePay":8,"maxBonus":9,"perTrialBonus":0.5,"perTrialBonusThreshold":0.1,"exampleCost":0.01},"classroomParams":{"A":{"a":1,"b":4},"B":{"a":4,"b":1},"C":{"a":2,"b":8},"D":{"a":8,"b":2}},"conditions":["nonSeqFull","nonSeqPartial","seqNoFeedback","seqFeedback"],"classroomPairings":[["A","B"],["C","D"]],"coinWeights":[0.2,0.5,0.8],"subjectId":"A12FTSX85NQ8N9","assignmentId":"3VJ40NV2QJ9XXH6LY2U3Z4NXIWHTOJ","hitId":"3H6W48L9F4B5OEOMH57RM53ZYNHWPM","url":"https://gershmanlab.com/experiments/alicia/teaching/experiment/?hitId=3H6W48L9F4B5OEOMH57RM53ZYNHWPM&workerId=A12FTSX85NQ8N9&assignmentId=3VJ40NV2QJ9XXH6LY2U3Z4NXIWHTOJ&a=20JV8&tp_a=20JV8&b=3VJ40NV2QJ9XXH6LY2U3Z4NXIWHTOJ&tp_b=3VJ40NV2QJ9XXH6LY2U3Z4NXIWHTOJ&c=365198&tp_c=365198"},{"rt":12289,"response":{"heads":"3","tails":"2"},"type":"response","condition":"seqNoFeedback","trueTheta":0.8,"classrooms":["C","D"],"studentTrueClassroom":"D","exampleSet":"second","trial_type":"survey-html-form","trial_index":54,"time_elapsed":748601,"internal_node_id":"0.0-53.0-0.0","params":{"nStudents":24,"maxFlips":30,"completionMinutes":45,"basePay":8,"maxBonus":9,"perTrialBonus":0.5,"perTrialBonusThreshold":0.1,"exampleCost":0.01},"classroomParams":{"A":{"a":1,"b":4},"B":{"a":4,"b":1},"C":{"a":2,"b":8},"D":{"a":8,"b":2}},"conditions":["nonSeqFull","nonSeqPartial","seqNoFeedback","seqFeedback"],"classroomPairings":[["A","B"],["C","D"]],"coinWeights":[0.2,0.5,0.8],"subjectId":"A12FTSX85NQ8N9","assignmentId":"3VJ40NV2QJ9XXH6LY2U3Z4NXIWHTOJ","hitId":"3H6W48L9F4B5OEOMH57RM53ZYNHWPM","url":"https://gershmanlab.com/experiments/alicia/teaching/experiment/?hitId=3H6W48L9F4B5OEOMH57RM53ZYNHWPM&workerId=A12FTSX85NQ8N9&assignmentId=3VJ40NV2QJ9XXH6LY2U3Z4NXIWHTOJ&a=20JV8&tp_a=20JV8&b=3VJ40NV2QJ9XXH6LY2U3Z4NXIWHTOJ&tp_b=3VJ40NV2QJ9XXH6LY2U3Z4NXIWHTOJ&c=365198&tp_c=365198","firstResponseHeads":8,"firstResponseTails":2,"secondResponseHeads":3,"secondResponseTails":2,"studentIndex":6,"studentTrueHypers":{"a":8,"b":2},"studentGuess":0.76,"delta":0.040000000000000036,"bonus":0.35,"bonusSoFar":1.9,"totalExamples":15},{"rt":null,"stimulus":"Sending examples to student... ","response":null,"trial_type":"html-keyboard-response","trial_index":55,"time_elapsed":750606,"internal_node_id":"0.0-54.0","params":{"nStudents":24,"maxFlips":30,"completionMinutes":45,"basePay":8,"maxBonus":9,"perTrialBonus":0.5,"perTrialBonusThreshold":0.1,"exampleCost":0.01},"classroomParams":{"A":{"a":1,"b":4},"B":{"a":4,"b":1},"C":{"a":2,"b":8},"D":{"a":8,"b":2}},"conditions":["nonSeqFull","nonSeqPartial","seqNoFeedback","seqFeedback"],"classroomPairings":[["A","B"],["C","D"]],"coinWeights":[0.2,0.5,0.8],"subjectId":"A12FTSX85NQ8N9","assignmentId":"3VJ40NV2QJ9XXH6LY2U3Z4NXIWHTOJ","hitId":"3H6W48L9F4B5OEOMH57RM53ZYNHWPM","url":"https://gershmanlab.com/experiments/alicia/teaching/experiment/?hitId=3H6W48L9F4B5OEOMH57RM53ZYNHWPM&workerId=A12FTSX85NQ8N9&assignmentId=3VJ40NV2QJ9XXH6LY2U3Z4NXIWHTOJ&a=20JV8&tp_a=20JV8&b=3VJ40NV2QJ9XXH6LY2U3Z4NXIWHTOJ&tp_b=3VJ40NV2QJ9XXH6LY2U3Z4NXIWHTOJ&c=365198&tp_c=365198"},{"rt":null,"stimulus":"Examples sent to student! Waiting for student...","response":null,"trial_type":"html-keyboard-response","trial_index":56,"time_elapsed":755206,"internal_node_id":"0.0-55.0","params":{"nStudents":24,"maxFlips":30,"completionMinutes":45,"basePay":8,"maxBonus":9,"perTrialBonus":0.5,"perTrialBonusThreshold":0.1,"exampleCost":0.01},"classroomParams":{"A":{"a":1,"b":4},"B":{"a":4,"b":1},"C":{"a":2,"b":8},"D":{"a":8,"b":2}},"conditions":["nonSeqFull","nonSeqPartial","seqNoFeedback","seqFeedback"],"classroomPairings":[["A","B"],["C","D"]],"coinWeights":[0.2,0.5,0.8],"subjectId":"A12FTSX85NQ8N9","assignmentId":"3VJ40NV2QJ9XXH6LY2U3Z4NXIWHTOJ","hitId":"3H6W48L9F4B5OEOMH57RM53ZYNHWPM","url":"https://gershmanlab.com/experiments/alicia/teaching/experiment/?hitId=3H6W48L9F4B5OEOMH57RM53ZYNHWPM&workerId=A12FTSX85NQ8N9&assignmentId=3VJ40NV2QJ9XXH6LY2U3Z4NXIWHTOJ&a=20JV8&tp_a=20JV8&b=3VJ40NV2QJ9XXH6LY2U3Z4NXIWHTOJ&tp_b=3VJ40NV2QJ9XXH6LY2U3Z4NXIWHTOJ&c=365198&tp_c=365198"},{"rt":3989,"stimulus":"\n                <p>Student 7's first guess for coin weight: <b style=\"color:Tomato\";>0.80</b></p>\n                <p>Student 7's second guess for coin weight: <b style=\"color:Tomato\";>0.76</b></p>\n                <p>You received a bonus of <b>$0.35</b> based on the student's second guess.</p>\n                <p>Total bonus so far: <b>$1.90</b></p>\n                <p>Press any key to continue.</p>\n                ","response":" ","trial_type":"html-keyboard-response","trial_index":57,"time_elapsed":759197,"internal_node_id":"0.0-56.0","params":{"nStudents":24,"maxFlips":30,"completionMinutes":45,"basePay":8,"maxBonus":9,"perTrialBonus":0.5,"perTrialBonusThreshold":0.1,"exampleCost":0.01},"classroomParams":{"A":{"a":1,"b":4},"B":{"a":4,"b":1},"C":{"a":2,"b":8},"D":{"a":8,"b":2}},"conditions":["nonSeqFull","nonSeqPartial","seqNoFeedback","seqFeedback"],"classroomPairings":[["A","B"],["C","D"]],"coinWeights":[0.2,0.5,0.8],"subjectId":"A12FTSX85NQ8N9","assignmentId":"3VJ40NV2QJ9XXH6LY2U3Z4NXIWHTOJ","hitId":"3H6W48L9F4B5OEOMH57RM53ZYNHWPM","url":"https://gershmanlab.com/experiments/alicia/teaching/experiment/?hitId=3H6W48L9F4B5OEOMH57RM53ZYNHWPM&workerId=A12FTSX85NQ8N9&assignmentId=3VJ40NV2QJ9XXH6LY2U3Z4NXIWHTOJ&a=20JV8&tp_a=20JV8&b=3VJ40NV2QJ9XXH6LY2U3Z4NXIWHTOJ&tp_b=3VJ40NV2QJ9XXH6LY2U3Z4NXIWHTOJ&c=365198&tp_c=365198"},{"rt":null,"stimulus":"<div style=\"font-size:60px;\">Next student</div>","response":null,"trial_type":"html-keyboard-response","trial_index":58,"time_elapsed":761707,"internal_node_id":"0.0-57.0-0.0","params":{"nStudents":24,"maxFlips":30,"completionMinutes":45,"basePay":8,"maxBonus":9,"perTrialBonus":0.5,"perTrialBonusThreshold":0.1,"exampleCost":0.01},"classroomParams":{"A":{"a":1,"b":4},"B":{"a":4,"b":1},"C":{"a":2,"b":8},"D":{"a":8,"b":2}},"conditions":["nonSeqFull","nonSeqPartial","seqNoFeedback","seqFeedback"],"classroomPairings":[["A","B"],["C","D"]],"coinWeights":[0.2,0.5,0.8],"subjectId":"A12FTSX85NQ8N9","assignmentId":"3VJ40NV2QJ9XXH6LY2U3Z4NXIWHTOJ","hitId":"3H6W48L9F4B5OEOMH57RM53ZYNHWPM","url":"https://gershmanlab.com/experiments/alicia/teaching/experiment/?hitId=3H6W48L9F4B5OEOMH57RM53ZYNHWPM&workerId=A12FTSX85NQ8N9&assignmentId=3VJ40NV2QJ9XXH6LY2U3Z4NXIWHTOJ&a=20JV8&tp_a=20JV8&b=3VJ40NV2QJ9XXH6LY2U3Z4NXIWHTOJ&tp_b=3VJ40NV2QJ9XXH6LY2U3Z4NXIWHTOJ&c=365198&tp_c=365198"},{"rt":3133,"stimulus":"\n            <h4 style=\"color:Orange;\">Student 8</h4>\n            <h2>The weight of your coin is <b style=\"color:Tomato;\">0.2</b>.</h2>\n            <p>In this block, you will be giving <b>two</b> sets of examples to Student 8.</p>\n                <p>You will receive feedback at the end of the block.</p>\n            ","response":0,"trial_type":"html-button-response","trial_index":59,"time_elapsed":764841,"internal_node_id":"0.0-58.0","params":{"nStudents":24,"maxFlips":30,"completionMinutes":45,"basePay":8,"maxBonus":9,"perTrialBonus":0.5,"perTrialBonusThreshold":0.1,"exampleCost":0.01},"classroomParams":{"A":{"a":1,"b":4},"B":{"a":4,"b":1},"C":{"a":2,"b":8},"D":{"a":8,"b":2}},"conditions":["nonSeqFull","nonSeqPartial","seqNoFeedback","seqFeedback"],"classroomPairings":[["A","B"],["C","D"]],"coinWeights":[0.2,0.5,0.8],"subjectId":"A12FTSX85NQ8N9","assignmentId":"3VJ40NV2QJ9XXH6LY2U3Z4NXIWHTOJ","hitId":"3H6W48L9F4B5OEOMH57RM53ZYNHWPM","url":"https://gershmanlab.com/experiments/alicia/teaching/experiment/?hitId=3H6W48L9F4B5OEOMH57RM53ZYNHWPM&workerId=A12FTSX85NQ8N9&assignmentId=3VJ40NV2QJ9XXH6LY2U3Z4NXIWHTOJ&a=20JV8&tp_a=20JV8&b=3VJ40NV2QJ9XXH6LY2U3Z4NXIWHTOJ&tp_b=3VJ40NV2QJ9XXH6LY2U3Z4NXIWHTOJ&c=365198&tp_c=365198"},{"rt":4009,"response":{"heads":"2","tails":"8"},"type":"response","condition":"seqNoFeedback","trueTheta":0.2,"classrooms":["C","D"],"studentTrueClassroom":"D","exampleSet":"first","trial_type":"survey-html-form","trial_index":60,"time_elapsed":768851,"internal_node_id":"0.0-59.0-0.0","params":{"nStudents":24,"maxFlips":30,"completionMinutes":45,"basePay":8,"maxBonus":9,"perTrialBonus":0.5,"perTrialBonusThreshold":0.1,"exampleCost":0.01},"classroomParams":{"A":{"a":1,"b":4},"B":{"a":4,"b":1},"C":{"a":2,"b":8},"D":{"a":8,"b":2}},"conditions":["nonSeqFull","nonSeqPartial","seqNoFeedback","seqFeedback"],"classroomPairings":[["A","B"],["C","D"]],"coinWeights":[0.2,0.5,0.8],"subjectId":"A12FTSX85NQ8N9","assignmentId":"3VJ40NV2QJ9XXH6LY2U3Z4NXIWHTOJ","hitId":"3H6W48L9F4B5OEOMH57RM53ZYNHWPM","url":"https://gershmanlab.com/experiments/alicia/teaching/experiment/?hitId=3H6W48L9F4B5OEOMH57RM53ZYNHWPM&workerId=A12FTSX85NQ8N9&assignmentId=3VJ40NV2QJ9XXH6LY2U3Z4NXIWHTOJ&a=20JV8&tp_a=20JV8&b=3VJ40NV2QJ9XXH6LY2U3Z4NXIWHTOJ&tp_b=3VJ40NV2QJ9XXH6LY2U3Z4NXIWHTOJ&c=365198&tp_c=365198","heads":2,"tails":8,"studentIndex":7,"studentTrueHypers":{"a":8,"b":2},"studentGuess":0.5,"delta":0.3,"totalExamples":10,"bonusSoFar":1.9},{"rt":null,"stimulus":"Sending examples to student... ","response":null,"trial_type":"html-keyboard-response","trial_index":61,"time_elapsed":770356,"internal_node_id":"0.0-60.0","params":{"nStudents":24,"maxFlips":30,"completionMinutes":45,"basePay":8,"maxBonus":9,"perTrialBonus":0.5,"perTrialBonusThreshold":0.1,"exampleCost":0.01},"classroomParams":{"A":{"a":1,"b":4},"B":{"a":4,"b":1},"C":{"a":2,"b":8},"D":{"a":8,"b":2}},"conditions":["nonSeqFull","nonSeqPartial","seqNoFeedback","seqFeedback"],"classroomPairings":[["A","B"],["C","D"]],"coinWeights":[0.2,0.5,0.8],"subjectId":"A12FTSX85NQ8N9","assignmentId":"3VJ40NV2QJ9XXH6LY2U3Z4NXIWHTOJ","hitId":"3H6W48L9F4B5OEOMH57RM53ZYNHWPM","url":"https://gershmanlab.com/experiments/alicia/teaching/experiment/?hitId=3H6W48L9F4B5OEOMH57RM53ZYNHWPM&workerId=A12FTSX85NQ8N9&assignmentId=3VJ40NV2QJ9XXH6LY2U3Z4NXIWHTOJ&a=20JV8&tp_a=20JV8&b=3VJ40NV2QJ9XXH6LY2U3Z4NXIWHTOJ&tp_b=3VJ40NV2QJ9XXH6LY2U3Z4NXIWHTOJ&c=365198&tp_c=365198"},{"rt":null,"stimulus":"Examples sent to student! Waiting for student...","response":null,"trial_type":"html-keyboard-response","trial_index":62,"time_elapsed":775365,"internal_node_id":"0.0-61.0","params":{"nStudents":24,"maxFlips":30,"completionMinutes":45,"basePay":8,"maxBonus":9,"perTrialBonus":0.5,"perTrialBonusThreshold":0.1,"exampleCost":0.01},"classroomParams":{"A":{"a":1,"b":4},"B":{"a":4,"b":1},"C":{"a":2,"b":8},"D":{"a":8,"b":2}},"conditions":["nonSeqFull","nonSeqPartial","seqNoFeedback","seqFeedback"],"classroomPairings":[["A","B"],["C","D"]],"coinWeights":[0.2,0.5,0.8],"subjectId":"A12FTSX85NQ8N9","assignmentId":"3VJ40NV2QJ9XXH6LY2U3Z4NXIWHTOJ","hitId":"3H6W48L9F4B5OEOMH57RM53ZYNHWPM","url":"https://gershmanlab.com/experiments/alicia/teaching/experiment/?hitId=3H6W48L9F4B5OEOMH57RM53ZYNHWPM&workerId=A12FTSX85NQ8N9&assignmentId=3VJ40NV2QJ9XXH6LY2U3Z4NXIWHTOJ&a=20JV8&tp_a=20JV8&b=3VJ40NV2QJ9XXH6LY2U3Z4NXIWHTOJ&tp_b=3VJ40NV2QJ9XXH6LY2U3Z4NXIWHTOJ&c=365198&tp_c=365198"},{"rt":6012,"response":{"heads":"2","tails":"8"},"type":"response","condition":"seqNoFeedback","trueTheta":0.2,"classrooms":["C","D"],"studentTrueClassroom":"D","exampleSet":"second","trial_type":"survey-html-form","trial_index":63,"time_elapsed":781379,"internal_node_id":"0.0-62.0-0.0","params":{"nStudents":24,"maxFlips":30,"completionMinutes":45,"basePay":8,"maxBonus":9,"perTrialBonus":0.5,"perTrialBonusThreshold":0.1,"exampleCost":0.01},"classroomParams":{"A":{"a":1,"b":4},"B":{"a":4,"b":1},"C":{"a":2,"b":8},"D":{"a":8,"b":2}},"conditions":["nonSeqFull","nonSeqPartial","seqNoFeedback","seqFeedback"],"classroomPairings":[["A","B"],["C","D"]],"coinWeights":[0.2,0.5,0.8],"subjectId":"A12FTSX85NQ8N9","assignmentId":"3VJ40NV2QJ9XXH6LY2U3Z4NXIWHTOJ","hitId":"3H6W48L9F4B5OEOMH57RM53ZYNHWPM","url":"https://gershmanlab.com/experiments/alicia/teaching/experiment/?hitId=3H6W48L9F4B5OEOMH57RM53ZYNHWPM&workerId=A12FTSX85NQ8N9&assignmentId=3VJ40NV2QJ9XXH6LY2U3Z4NXIWHTOJ&a=20JV8&tp_a=20JV8&b=3VJ40NV2QJ9XXH6LY2U3Z4NXIWHTOJ&tp_b=3VJ40NV2QJ9XXH6LY2U3Z4NXIWHTOJ&c=365198&tp_c=365198","firstResponseHeads":2,"firstResponseTails":8,"secondResponseHeads":2,"secondResponseTails":8,"studentIndex":7,"studentTrueHypers":{"a":8,"b":2},"studentGuess":0.4,"delta":0.2,"bonus":0,"bonusSoFar":1.9,"totalExamples":20},{"rt":null,"stimulus":"Sending examples to student... ","response":null,"trial_type":"html-keyboard-response","trial_index":64,"time_elapsed":782884,"internal_node_id":"0.0-63.0","params":{"nStudents":24,"maxFlips":30,"completionMinutes":45,"basePay":8,"maxBonus":9,"perTrialBonus":0.5,"perTrialBonusThreshold":0.1,"exampleCost":0.01},"classroomParams":{"A":{"a":1,"b":4},"B":{"a":4,"b":1},"C":{"a":2,"b":8},"D":{"a":8,"b":2}},"conditions":["nonSeqFull","nonSeqPartial","seqNoFeedback","seqFeedback"],"classroomPairings":[["A","B"],["C","D"]],"coinWeights":[0.2,0.5,0.8],"subjectId":"A12FTSX85NQ8N9","assignmentId":"3VJ40NV2QJ9XXH6LY2U3Z4NXIWHTOJ","hitId":"3H6W48L9F4B5OEOMH57RM53ZYNHWPM","url":"https://gershmanlab.com/experiments/alicia/teaching/experiment/?hitId=3H6W48L9F4B5OEOMH57RM53ZYNHWPM&workerId=A12FTSX85NQ8N9&assignmentId=3VJ40NV2QJ9XXH6LY2U3Z4NXIWHTOJ&a=20JV8&tp_a=20JV8&b=3VJ40NV2QJ9XXH6LY2U3Z4NXIWHTOJ&tp_b=3VJ40NV2QJ9XXH6LY2U3Z4NXIWHTOJ&c=365198&tp_c=365198"},{"rt":null,"stimulus":"Examples sent to student! Waiting for student...","response":null,"trial_type":"html-keyboard-response","trial_index":65,"time_elapsed":787894,"internal_node_id":"0.0-64.0","params":{"nStudents":24,"maxFlips":30,"completionMinutes":45,"basePay":8,"maxBonus":9,"perTrialBonus":0.5,"perTrialBonusThreshold":0.1,"exampleCost":0.01},"classroomParams":{"A":{"a":1,"b":4},"B":{"a":4,"b":1},"C":{"a":2,"b":8},"D":{"a":8,"b":2}},"conditions":["nonSeqFull","nonSeqPartial","seqNoFeedback","seqFeedback"],"classroomPairings":[["A","B"],["C","D"]],"coinWeights":[0.2,0.5,0.8],"subjectId":"A12FTSX85NQ8N9","assignmentId":"3VJ40NV2QJ9XXH6LY2U3Z4NXIWHTOJ","hitId":"3H6W48L9F4B5OEOMH57RM53ZYNHWPM","url":"https://gershmanlab.com/experiments/alicia/teaching/experiment/?hitId=3H6W48L9F4B5OEOMH57RM53ZYNHWPM&workerId=A12FTSX85NQ8N9&assignmentId=3VJ40NV2QJ9XXH6LY2U3Z4NXIWHTOJ&a=20JV8&tp_a=20JV8&b=3VJ40NV2QJ9XXH6LY2U3Z4NXIWHTOJ&tp_b=3VJ40NV2QJ9XXH6LY2U3Z4NXIWHTOJ&c=365198&tp_c=365198"},{"rt":2956,"stimulus":"\n                <p>Student 8's first guess for coin weight: <b style=\"color:Tomato\";>0.50</b></p>\n                <p>Student 8's second guess for coin weight: <b style=\"color:Tomato\";>0.40</b></p>\n                <p>You received a bonus of <b>$0.00</b> based on the student's second guess.</p>\n                <p>Total bonus so far: <b>$1.90</b></p>\n                <p>Press any key to continue.</p>\n                ","response":" ","trial_type":"html-keyboard-response","trial_index":66,"time_elapsed":790852,"internal_node_id":"0.0-65.0","params":{"nStudents":24,"maxFlips":30,"completionMinutes":45,"basePay":8,"maxBonus":9,"perTrialBonus":0.5,"perTrialBonusThreshold":0.1,"exampleCost":0.01},"classroomParams":{"A":{"a":1,"b":4},"B":{"a":4,"b":1},"C":{"a":2,"b":8},"D":{"a":8,"b":2}},"conditions":["nonSeqFull","nonSeqPartial","seqNoFeedback","seqFeedback"],"classroomPairings":[["A","B"],["C","D"]],"coinWeights":[0.2,0.5,0.8],"subjectId":"A12FTSX85NQ8N9","assignmentId":"3VJ40NV2QJ9XXH6LY2U3Z4NXIWHTOJ","hitId":"3H6W48L9F4B5OEOMH57RM53ZYNHWPM","url":"https://gershmanlab.com/experiments/alicia/teaching/experiment/?hitId=3H6W48L9F4B5OEOMH57RM53ZYNHWPM&workerId=A12FTSX85NQ8N9&assignmentId=3VJ40NV2QJ9XXH6LY2U3Z4NXIWHTOJ&a=20JV8&tp_a=20JV8&b=3VJ40NV2QJ9XXH6LY2U3Z4NXIWHTOJ&tp_b=3VJ40NV2QJ9XXH6LY2U3Z4NXIWHTOJ&c=365198&tp_c=365198"},{"rt":null,"stimulus":"<div style=\"font-size:60px;\">Next student</div>","response":null,"trial_type":"html-keyboard-response","trial_index":67,"time_elapsed":792865,"internal_node_id":"0.0-66.0-0.0","params":{"nStudents":24,"maxFlips":30,"completionMinutes":45,"basePay":8,"maxBonus":9,"perTrialBonus":0.5,"perTrialBonusThreshold":0.1,"exampleCost":0.01},"classroomParams":{"A":{"a":1,"b":4},"B":{"a":4,"b":1},"C":{"a":2,"b":8},"D":{"a":8,"b":2}},"conditions":["nonSeqFull","nonSeqPartial","seqNoFeedback","seqFeedback"],"classroomPairings":[["A","B"],["C","D"]],"coinWeights":[0.2,0.5,0.8],"subjectId":"A12FTSX85NQ8N9","assignmentId":"3VJ40NV2QJ9XXH6LY2U3Z4NXIWHTOJ","hitId":"3H6W48L9F4B5OEOMH57RM53ZYNHWPM","url":"https://gershmanlab.com/experiments/alicia/teaching/experiment/?hitId=3H6W48L9F4B5OEOMH57RM53ZYNHWPM&workerId=A12FTSX85NQ8N9&assignmentId=3VJ40NV2QJ9XXH6LY2U3Z4NXIWHTOJ&a=20JV8&tp_a=20JV8&b=3VJ40NV2QJ9XXH6LY2U3Z4NXIWHTOJ&tp_b=3VJ40NV2QJ9XXH6LY2U3Z4NXIWHTOJ&c=365198&tp_c=365198"},{"rt":1242,"stimulus":"\n            <h4 style=\"color:Orange;\">Student 9</h4>\n            <h2>The weight of your coin is <b style=\"color:Tomato;\">0.8</b>.</h2>\n            <p>In this block, you will be giving <b>one</b> set of examples to Student 9.</p>\n                <p>You will receive feedback at the end of the block.</p>\n            ","response":0,"trial_type":"html-button-response","trial_index":68,"time_elapsed":794108,"internal_node_id":"0.0-67.0","params":{"nStudents":24,"maxFlips":30,"completionMinutes":45,"basePay":8,"maxBonus":9,"perTrialBonus":0.5,"perTrialBonusThreshold":0.1,"exampleCost":0.01},"classroomParams":{"A":{"a":1,"b":4},"B":{"a":4,"b":1},"C":{"a":2,"b":8},"D":{"a":8,"b":2}},"conditions":["nonSeqFull","nonSeqPartial","seqNoFeedback","seqFeedback"],"classroomPairings":[["A","B"],["C","D"]],"coinWeights":[0.2,0.5,0.8],"subjectId":"A12FTSX85NQ8N9","assignmentId":"3VJ40NV2QJ9XXH6LY2U3Z4NXIWHTOJ","hitId":"3H6W48L9F4B5OEOMH57RM53ZYNHWPM","url":"https://gershmanlab.com/experiments/alicia/teaching/experiment/?hitId=3H6W48L9F4B5OEOMH57RM53ZYNHWPM&workerId=A12FTSX85NQ8N9&assignmentId=3VJ40NV2QJ9XXH6LY2U3Z4NXIWHTOJ&a=20JV8&tp_a=20JV8&b=3VJ40NV2QJ9XXH6LY2U3Z4NXIWHTOJ&tp_b=3VJ40NV2QJ9XXH6LY2U3Z4NXIWHTOJ&c=365198&tp_c=365198"},{"rt":5199,"response":{"heads":"8","tails":"2"},"type":"response","condition":"nonSeqPartial","trueTheta":0.8,"classrooms":["C","D"],"studentTrueClassroom":"D","exampleSet":"first","trial_type":"survey-html-form","trial_index":69,"time_elapsed":799308,"internal_node_id":"0.0-68.0-0.0","params":{"nStudents":24,"maxFlips":30,"completionMinutes":45,"basePay":8,"maxBonus":9,"perTrialBonus":0.5,"perTrialBonusThreshold":0.1,"exampleCost":0.01},"classroomParams":{"A":{"a":1,"b":4},"B":{"a":4,"b":1},"C":{"a":2,"b":8},"D":{"a":8,"b":2}},"conditions":["nonSeqFull","nonSeqPartial","seqNoFeedback","seqFeedback"],"classroomPairings":[["A","B"],["C","D"]],"coinWeights":[0.2,0.5,0.8],"subjectId":"A12FTSX85NQ8N9","assignmentId":"3VJ40NV2QJ9XXH6LY2U3Z4NXIWHTOJ","hitId":"3H6W48L9F4B5OEOMH57RM53ZYNHWPM","url":"https://gershmanlab.com/experiments/alicia/teaching/experiment/?hitId=3H6W48L9F4B5OEOMH57RM53ZYNHWPM&workerId=A12FTSX85NQ8N9&assignmentId=3VJ40NV2QJ9XXH6LY2U3Z4NXIWHTOJ&a=20JV8&tp_a=20JV8&b=3VJ40NV2QJ9XXH6LY2U3Z4NXIWHTOJ&tp_b=3VJ40NV2QJ9XXH6LY2U3Z4NXIWHTOJ&c=365198&tp_c=365198","heads":8,"tails":2,"studentIndex":8,"studentTrueHypers":{"a":8,"b":2},"studentGuess":0.8,"delta":0,"totalExamples":10,"bonus":0.4,"bonusSoFar":2.3},{"rt":null,"stimulus":"Sending examples to student... ","response":null,"trial_type":"html-keyboard-response","trial_index":70,"time_elapsed":801069,"internal_node_id":"0.0-69.0","params":{"nStudents":24,"maxFlips":30,"completionMinutes":45,"basePay":8,"maxBonus":9,"perTrialBonus":0.5,"perTrialBonusThreshold":0.1,"exampleCost":0.01},"classroomParams":{"A":{"a":1,"b":4},"B":{"a":4,"b":1},"C":{"a":2,"b":8},"D":{"a":8,"b":2}},"conditions":["nonSeqFull","nonSeqPartial","seqNoFeedback","seqFeedback"],"classroomPairings":[["A","B"],["C","D"]],"coinWeights":[0.2,0.5,0.8],"subjectId":"A12FTSX85NQ8N9","assignmentId":"3VJ40NV2QJ9XXH6LY2U3Z4NXIWHTOJ","hitId":"3H6W48L9F4B5OEOMH57RM53ZYNHWPM","url":"https://gershmanlab.com/experiments/alicia/teaching/experiment/?hitId=3H6W48L9F4B5OEOMH57RM53ZYNHWPM&workerId=A12FTSX85NQ8N9&assignmentId=3VJ40NV2QJ9XXH6LY2U3Z4NXIWHTOJ&a=20JV8&tp_a=20JV8&b=3VJ40NV2QJ9XXH6LY2U3Z4NXIWHTOJ&tp_b=3VJ40NV2QJ9XXH6LY2U3Z4NXIWHTOJ&c=365198&tp_c=365198"},{"rt":null,"stimulus":"Examples sent to student! Waiting for student...","response":null,"trial_type":"html-keyboard-response","trial_index":71,"time_elapsed":805578,"internal_node_id":"0.0-70.0","params":{"nStudents":24,"maxFlips":30,"completionMinutes":45,"basePay":8,"maxBonus":9,"perTrialBonus":0.5,"perTrialBonusThreshold":0.1,"exampleCost":0.01},"classroomParams":{"A":{"a":1,"b":4},"B":{"a":4,"b":1},"C":{"a":2,"b":8},"D":{"a":8,"b":2}},"conditions":["nonSeqFull","nonSeqPartial","seqNoFeedback","seqFeedback"],"classroomPairings":[["A","B"],["C","D"]],"coinWeights":[0.2,0.5,0.8],"subjectId":"A12FTSX85NQ8N9","assignmentId":"3VJ40NV2QJ9XXH6LY2U3Z4NXIWHTOJ","hitId":"3H6W48L9F4B5OEOMH57RM53ZYNHWPM","url":"https://gershmanlab.com/experiments/alicia/teaching/experiment/?hitId=3H6W48L9F4B5OEOMH57RM53ZYNHWPM&workerId=A12FTSX85NQ8N9&assignmentId=3VJ40NV2QJ9XXH6LY2U3Z4NXIWHTOJ&a=20JV8&tp_a=20JV8&b=3VJ40NV2QJ9XXH6LY2U3Z4NXIWHTOJ&tp_b=3VJ40NV2QJ9XXH6LY2U3Z4NXIWHTOJ&c=365198&tp_c=365198"},{"rt":4639,"stimulus":"\n                <p>Student's guess for coin weight: <b style=\"color:Tomato;\">0.80</b></p>\n                <p>You received a bonus of <b>$0.4</b>. Total bonus so far: <b>$2.30</b></b></p>\n                <p> Press any key to continue.</p>\n                ","response":" ","trial_type":"html-keyboard-response","trial_index":72,"time_elapsed":810218,"internal_node_id":"0.0-71.0","params":{"nStudents":24,"maxFlips":30,"completionMinutes":45,"basePay":8,"maxBonus":9,"perTrialBonus":0.5,"perTrialBonusThreshold":0.1,"exampleCost":0.01},"classroomParams":{"A":{"a":1,"b":4},"B":{"a":4,"b":1},"C":{"a":2,"b":8},"D":{"a":8,"b":2}},"conditions":["nonSeqFull","nonSeqPartial","seqNoFeedback","seqFeedback"],"classroomPairings":[["A","B"],["C","D"]],"coinWeights":[0.2,0.5,0.8],"subjectId":"A12FTSX85NQ8N9","assignmentId":"3VJ40NV2QJ9XXH6LY2U3Z4NXIWHTOJ","hitId":"3H6W48L9F4B5OEOMH57RM53ZYNHWPM","url":"https://gershmanlab.com/experiments/alicia/teaching/experiment/?hitId=3H6W48L9F4B5OEOMH57RM53ZYNHWPM&workerId=A12FTSX85NQ8N9&assignmentId=3VJ40NV2QJ9XXH6LY2U3Z4NXIWHTOJ&a=20JV8&tp_a=20JV8&b=3VJ40NV2QJ9XXH6LY2U3Z4NXIWHTOJ&tp_b=3VJ40NV2QJ9XXH6LY2U3Z4NXIWHTOJ&c=365198&tp_c=365198"},{"rt":null,"stimulus":"<div style=\"font-size:60px;\">Next student</div>","response":null,"trial_type":"html-keyboard-response","trial_index":73,"time_elapsed":812477,"internal_node_id":"0.0-72.0-0.0","params":{"nStudents":24,"maxFlips":30,"completionMinutes":45,"basePay":8,"maxBonus":9,"perTrialBonus":0.5,"perTrialBonusThreshold":0.1,"exampleCost":0.01},"classroomParams":{"A":{"a":1,"b":4},"B":{"a":4,"b":1},"C":{"a":2,"b":8},"D":{"a":8,"b":2}},"conditions":["nonSeqFull","nonSeqPartial","seqNoFeedback","seqFeedback"],"classroomPairings":[["A","B"],["C","D"]],"coinWeights":[0.2,0.5,0.8],"subjectId":"A12FTSX85NQ8N9","assignmentId":"3VJ40NV2QJ9XXH6LY2U3Z4NXIWHTOJ","hitId":"3H6W48L9F4B5OEOMH57RM53ZYNHWPM","url":"https://gershmanlab.com/experiments/alicia/teaching/experiment/?hitId=3H6W48L9F4B5OEOMH57RM53ZYNHWPM&workerId=A12FTSX85NQ8N9&assignmentId=3VJ40NV2QJ9XXH6LY2U3Z4NXIWHTOJ&a=20JV8&tp_a=20JV8&b=3VJ40NV2QJ9XXH6LY2U3Z4NXIWHTOJ&tp_b=3VJ40NV2QJ9XXH6LY2U3Z4NXIWHTOJ&c=365198&tp_c=365198"},{"rt":4003,"stimulus":"\n            <h4 style=\"color:Orange;\">Student 10</h4>\n            <h2>The weight of your coin is <b style=\"color:Tomato;\">0.8</b>.</h2>\n            <p>In this block, you will be giving <b>one</b> set of examples to Student 10.</p>\n                <p>You will receive feedback at the end of the block.</p>\n            ","response":0,"trial_type":"html-button-response","trial_index":74,"time_elapsed":816573,"internal_node_id":"0.0-73.0","params":{"nStudents":24,"maxFlips":30,"completionMinutes":45,"basePay":8,"maxBonus":9,"perTrialBonus":0.5,"perTrialBonusThreshold":0.1,"exampleCost":0.01},"classroomParams":{"A":{"a":1,"b":4},"B":{"a":4,"b":1},"C":{"a":2,"b":8},"D":{"a":8,"b":2}},"conditions":["nonSeqFull","nonSeqPartial","seqNoFeedback","seqFeedback"],"classroomPairings":[["A","B"],["C","D"]],"coinWeights":[0.2,0.5,0.8],"subjectId":"A12FTSX85NQ8N9","assignmentId":"3VJ40NV2QJ9XXH6LY2U3Z4NXIWHTOJ","hitId":"3H6W48L9F4B5OEOMH57RM53ZYNHWPM","url":"https://gershmanlab.com/experiments/alicia/teaching/experiment/?hitId=3H6W48L9F4B5OEOMH57RM53ZYNHWPM&workerId=A12FTSX85NQ8N9&assignmentId=3VJ40NV2QJ9XXH6LY2U3Z4NXIWHTOJ&a=20JV8&tp_a=20JV8&b=3VJ40NV2QJ9XXH6LY2U3Z4NXIWHTOJ&tp_b=3VJ40NV2QJ9XXH6LY2U3Z4NXIWHTOJ&c=365198&tp_c=365198"},{"rt":6410,"response":{"heads":"8","tails":"2"},"type":"response","condition":"nonSeqPartial","trueTheta":0.8,"classrooms":["A","B"],"studentTrueClassroom":"B","exampleSet":"first","trial_type":"survey-html-form","trial_index":75,"time_elapsed":822985,"internal_node_id":"0.0-74.0-0.0","params":{"nStudents":24,"maxFlips":30,"completionMinutes":45,"basePay":8,"maxBonus":9,"perTrialBonus":0.5,"perTrialBonusThreshold":0.1,"exampleCost":0.01},"classroomParams":{"A":{"a":1,"b":4},"B":{"a":4,"b":1},"C":{"a":2,"b":8},"D":{"a":8,"b":2}},"conditions":["nonSeqFull","nonSeqPartial","seqNoFeedback","seqFeedback"],"classroomPairings":[["A","B"],["C","D"]],"coinWeights":[0.2,0.5,0.8],"subjectId":"A12FTSX85NQ8N9","assignmentId":"3VJ40NV2QJ9XXH6LY2U3Z4NXIWHTOJ","hitId":"3H6W48L9F4B5OEOMH57RM53ZYNHWPM","url":"https://gershmanlab.com/experiments/alicia/teaching/experiment/?hitId=3H6W48L9F4B5OEOMH57RM53ZYNHWPM&workerId=A12FTSX85NQ8N9&assignmentId=3VJ40NV2QJ9XXH6LY2U3Z4NXIWHTOJ&a=20JV8&tp_a=20JV8&b=3VJ40NV2QJ9XXH6LY2U3Z4NXIWHTOJ&tp_b=3VJ40NV2QJ9XXH6LY2U3Z4NXIWHTOJ&c=365198&tp_c=365198","heads":8,"tails":2,"studentIndex":9,"studentTrueHypers":{"a":4,"b":1},"studentGuess":0.8,"delta":0,"totalExamples":10,"bonus":0.4,"bonusSoFar":2.7},{"rt":null,"stimulus":"Sending examples to student... ","response":null,"trial_type":"html-keyboard-response","trial_index":76,"time_elapsed":824239,"internal_node_id":"0.0-75.0","params":{"nStudents":24,"maxFlips":30,"completionMinutes":45,"basePay":8,"maxBonus":9,"perTrialBonus":0.5,"perTrialBonusThreshold":0.1,"exampleCost":0.01},"classroomParams":{"A":{"a":1,"b":4},"B":{"a":4,"b":1},"C":{"a":2,"b":8},"D":{"a":8,"b":2}},"conditions":["nonSeqFull","nonSeqPartial","seqNoFeedback","seqFeedback"],"classroomPairings":[["A","B"],["C","D"]],"coinWeights":[0.2,0.5,0.8],"subjectId":"A12FTSX85NQ8N9","assignmentId":"3VJ40NV2QJ9XXH6LY2U3Z4NXIWHTOJ","hitId":"3H6W48L9F4B5OEOMH57RM53ZYNHWPM","url":"https://gershmanlab.com/experiments/alicia/teaching/experiment/?hitId=3H6W48L9F4B5OEOMH57RM53ZYNHWPM&workerId=A12FTSX85NQ8N9&assignmentId=3VJ40NV2QJ9XXH6LY2U3Z4NXIWHTOJ&a=20JV8&tp_a=20JV8&b=3VJ40NV2QJ9XXH6LY2U3Z4NXIWHTOJ&tp_b=3VJ40NV2QJ9XXH6LY2U3Z4NXIWHTOJ&c=365198&tp_c=365198"},{"rt":null,"stimulus":"Examples sent to student! Waiting for student...","response":null,"trial_type":"html-keyboard-response","trial_index":77,"time_elapsed":830244,"internal_node_id":"0.0-76.0","params":{"nStudents":24,"maxFlips":30,"completionMinutes":45,"basePay":8,"maxBonus":9,"perTrialBonus":0.5,"perTrialBonusThreshold":0.1,"exampleCost":0.01},"classroomParams":{"A":{"a":1,"b":4},"B":{"a":4,"b":1},"C":{"a":2,"b":8},"D":{"a":8,"b":2}},"conditions":["nonSeqFull","nonSeqPartial","seqNoFeedback","seqFeedback"],"classroomPairings":[["A","B"],["C","D"]],"coinWeights":[0.2,0.5,0.8],"subjectId":"A12FTSX85NQ8N9","assignmentId":"3VJ40NV2QJ9XXH6LY2U3Z4NXIWHTOJ","hitId":"3H6W48L9F4B5OEOMH57RM53ZYNHWPM","url":"https://gershmanlab.com/experiments/alicia/teaching/experiment/?hitId=3H6W48L9F4B5OEOMH57RM53ZYNHWPM&workerId=A12FTSX85NQ8N9&assignmentId=3VJ40NV2QJ9XXH6LY2U3Z4NXIWHTOJ&a=20JV8&tp_a=20JV8&b=3VJ40NV2QJ9XXH6LY2U3Z4NXIWHTOJ&tp_b=3VJ40NV2QJ9XXH6LY2U3Z4NXIWHTOJ&c=365198&tp_c=365198"},{"rt":2883,"stimulus":"\n                <p>Student's guess for coin weight: <b style=\"color:Tomato;\">0.80</b></p>\n                <p>You received a bonus of <b>$0.4</b>. Total bonus so far: <b>$2.70</b></b></p>\n                <p> Press any key to continue.</p>\n                ","response":" ","trial_type":"html-keyboard-response","trial_index":78,"time_elapsed":833128,"internal_node_id":"0.0-77.0","params":{"nStudents":24,"maxFlips":30,"completionMinutes":45,"basePay":8,"maxBonus":9,"perTrialBonus":0.5,"perTrialBonusThreshold":0.1,"exampleCost":0.01},"classroomParams":{"A":{"a":1,"b":4},"B":{"a":4,"b":1},"C":{"a":2,"b":8},"D":{"a":8,"b":2}},"conditions":["nonSeqFull","nonSeqPartial","seqNoFeedback","seqFeedback"],"classroomPairings":[["A","B"],["C","D"]],"coinWeights":[0.2,0.5,0.8],"subjectId":"A12FTSX85NQ8N9","assignmentId":"3VJ40NV2QJ9XXH6LY2U3Z4NXIWHTOJ","hitId":"3H6W48L9F4B5OEOMH57RM53ZYNHWPM","url":"https://gershmanlab.com/experiments/alicia/teaching/experiment/?hitId=3H6W48L9F4B5OEOMH57RM53ZYNHWPM&workerId=A12FTSX85NQ8N9&assignmentId=3VJ40NV2QJ9XXH6LY2U3Z4NXIWHTOJ&a=20JV8&tp_a=20JV8&b=3VJ40NV2QJ9XXH6LY2U3Z4NXIWHTOJ&tp_b=3VJ40NV2QJ9XXH6LY2U3Z4NXIWHTOJ&c=365198&tp_c=365198"},{"rt":null,"stimulus":"<div style=\"font-size:60px;\">Next student</div>","response":null,"trial_type":"html-keyboard-response","trial_index":79,"time_elapsed":835637,"internal_node_id":"0.0-78.0-0.0","params":{"nStudents":24,"maxFlips":30,"completionMinutes":45,"basePay":8,"maxBonus":9,"perTrialBonus":0.5,"perTrialBonusThreshold":0.1,"exampleCost":0.01},"classroomParams":{"A":{"a":1,"b":4},"B":{"a":4,"b":1},"C":{"a":2,"b":8},"D":{"a":8,"b":2}},"conditions":["nonSeqFull","nonSeqPartial","seqNoFeedback","seqFeedback"],"classroomPairings":[["A","B"],["C","D"]],"coinWeights":[0.2,0.5,0.8],"subjectId":"A12FTSX85NQ8N9","assignmentId":"3VJ40NV2QJ9XXH6LY2U3Z4NXIWHTOJ","hitId":"3H6W48L9F4B5OEOMH57RM53ZYNHWPM","url":"https://gershmanlab.com/experiments/alicia/teaching/experiment/?hitId=3H6W48L9F4B5OEOMH57RM53ZYNHWPM&workerId=A12FTSX85NQ8N9&assignmentId=3VJ40NV2QJ9XXH6LY2U3Z4NXIWHTOJ&a=20JV8&tp_a=20JV8&b=3VJ40NV2QJ9XXH6LY2U3Z4NXIWHTOJ&tp_b=3VJ40NV2QJ9XXH6LY2U3Z4NXIWHTOJ&c=365198&tp_c=365198"},{"rt":2189,"stimulus":"\n            <h4 style=\"color:Orange;\">Student 11</h4>\n            <h2>The weight of your coin is <b style=\"color:Tomato;\">0.8</b>.</h2>\n            <p>In this block, you will be giving <b>one</b> set of examples to Student 11.</p>\n                <p>You will receive feedback at the end of the block.</p>\n            ","response":0,"trial_type":"html-button-response","trial_index":80,"time_elapsed":837828,"internal_node_id":"0.0-79.0","params":{"nStudents":24,"maxFlips":30,"completionMinutes":45,"basePay":8,"maxBonus":9,"perTrialBonus":0.5,"perTrialBonusThreshold":0.1,"exampleCost":0.01},"classroomParams":{"A":{"a":1,"b":4},"B":{"a":4,"b":1},"C":{"a":2,"b":8},"D":{"a":8,"b":2}},"conditions":["nonSeqFull","nonSeqPartial","seqNoFeedback","seqFeedback"],"classroomPairings":[["A","B"],["C","D"]],"coinWeights":[0.2,0.5,0.8],"subjectId":"A12FTSX85NQ8N9","assignmentId":"3VJ40NV2QJ9XXH6LY2U3Z4NXIWHTOJ","hitId":"3H6W48L9F4B5OEOMH57RM53ZYNHWPM","url":"https://gershmanlab.com/experiments/alicia/teaching/experiment/?hitId=3H6W48L9F4B5OEOMH57RM53ZYNHWPM&workerId=A12FTSX85NQ8N9&assignmentId=3VJ40NV2QJ9XXH6LY2U3Z4NXIWHTOJ&a=20JV8&tp_a=20JV8&b=3VJ40NV2QJ9XXH6LY2U3Z4NXIWHTOJ&tp_b=3VJ40NV2QJ9XXH6LY2U3Z4NXIWHTOJ&c=365198&tp_c=365198"},{"rt":12169,"response":{"heads":"8","tails":"2"},"type":"response","condition":"nonSeqFull","trueTheta":0.8,"classrooms":["A","B"],"studentTrueClassroom":"B","exampleSet":"first","trial_type":"survey-html-form","trial_index":81,"time_elapsed":849998,"internal_node_id":"0.0-80.0-0.0","params":{"nStudents":24,"maxFlips":30,"completionMinutes":45,"basePay":8,"maxBonus":9,"perTrialBonus":0.5,"perTrialBonusThreshold":0.1,"exampleCost":0.01},"classroomParams":{"A":{"a":1,"b":4},"B":{"a":4,"b":1},"C":{"a":2,"b":8},"D":{"a":8,"b":2}},"conditions":["nonSeqFull","nonSeqPartial","seqNoFeedback","seqFeedback"],"classroomPairings":[["A","B"],["C","D"]],"coinWeights":[0.2,0.5,0.8],"subjectId":"A12FTSX85NQ8N9","assignmentId":"3VJ40NV2QJ9XXH6LY2U3Z4NXIWHTOJ","hitId":"3H6W48L9F4B5OEOMH57RM53ZYNHWPM","url":"https://gershmanlab.com/experiments/alicia/teaching/experiment/?hitId=3H6W48L9F4B5OEOMH57RM53ZYNHWPM&workerId=A12FTSX85NQ8N9&assignmentId=3VJ40NV2QJ9XXH6LY2U3Z4NXIWHTOJ&a=20JV8&tp_a=20JV8&b=3VJ40NV2QJ9XXH6LY2U3Z4NXIWHTOJ&tp_b=3VJ40NV2QJ9XXH6LY2U3Z4NXIWHTOJ&c=365198&tp_c=365198","heads":8,"tails":2,"studentIndex":10,"studentTrueHypers":{"a":4,"b":1},"studentGuess":0.8,"delta":0,"totalExamples":10,"bonus":0.4,"bonusSoFar":3.1},{"rt":null,"stimulus":"Sending examples to student... ","response":null,"trial_type":"html-keyboard-response","trial_index":82,"time_elapsed":852005,"internal_node_id":"0.0-81.0","params":{"nStudents":24,"maxFlips":30,"completionMinutes":45,"basePay":8,"maxBonus":9,"perTrialBonus":0.5,"perTrialBonusThreshold":0.1,"exampleCost":0.01},"classroomParams":{"A":{"a":1,"b":4},"B":{"a":4,"b":1},"C":{"a":2,"b":8},"D":{"a":8,"b":2}},"conditions":["nonSeqFull","nonSeqPartial","seqNoFeedback","seqFeedback"],"classroomPairings":[["A","B"],["C","D"]],"coinWeights":[0.2,0.5,0.8],"subjectId":"A12FTSX85NQ8N9","assignmentId":"3VJ40NV2QJ9XXH6LY2U3Z4NXIWHTOJ","hitId":"3H6W48L9F4B5OEOMH57RM53ZYNHWPM","url":"https://gershmanlab.com/experiments/alicia/teaching/experiment/?hitId=3H6W48L9F4B5OEOMH57RM53ZYNHWPM&workerId=A12FTSX85NQ8N9&assignmentId=3VJ40NV2QJ9XXH6LY2U3Z4NXIWHTOJ&a=20JV8&tp_a=20JV8&b=3VJ40NV2QJ9XXH6LY2U3Z4NXIWHTOJ&tp_b=3VJ40NV2QJ9XXH6LY2U3Z4NXIWHTOJ&c=365198&tp_c=365198"},{"rt":null,"stimulus":"Examples sent to student! Waiting for student...","response":null,"trial_type":"html-keyboard-response","trial_index":83,"time_elapsed":856012,"internal_node_id":"0.0-82.0","params":{"nStudents":24,"maxFlips":30,"completionMinutes":45,"basePay":8,"maxBonus":9,"perTrialBonus":0.5,"perTrialBonusThreshold":0.1,"exampleCost":0.01},"classroomParams":{"A":{"a":1,"b":4},"B":{"a":4,"b":1},"C":{"a":2,"b":8},"D":{"a":8,"b":2}},"conditions":["nonSeqFull","nonSeqPartial","seqNoFeedback","seqFeedback"],"classroomPairings":[["A","B"],["C","D"]],"coinWeights":[0.2,0.5,0.8],"subjectId":"A12FTSX85NQ8N9","assignmentId":"3VJ40NV2QJ9XXH6LY2U3Z4NXIWHTOJ","hitId":"3H6W48L9F4B5OEOMH57RM53ZYNHWPM","url":"https://gershmanlab.com/experiments/alicia/teaching/experiment/?hitId=3H6W48L9F4B5OEOMH57RM53ZYNHWPM&workerId=A12FTSX85NQ8N9&assignmentId=3VJ40NV2QJ9XXH6LY2U3Z4NXIWHTOJ&a=20JV8&tp_a=20JV8&b=3VJ40NV2QJ9XXH6LY2U3Z4NXIWHTOJ&tp_b=3VJ40NV2QJ9XXH6LY2U3Z4NXIWHTOJ&c=365198&tp_c=365198"},{"rt":1505,"stimulus":"\n                <p>Student's guess for coin weight: <b style=\"color:Tomato;\">0.80</b></p>\n                <p>You received a bonus of <b>$0.4</b>. Total bonus so far: <b>$3.10</b></b></p>\n                <p> Press any key to continue.</p>\n                ","response":" ","trial_type":"html-keyboard-response","trial_index":84,"time_elapsed":857518,"internal_node_id":"0.0-83.0","params":{"nStudents":24,"maxFlips":30,"completionMinutes":45,"basePay":8,"maxBonus":9,"perTrialBonus":0.5,"perTrialBonusThreshold":0.1,"exampleCost":0.01},"classroomParams":{"A":{"a":1,"b":4},"B":{"a":4,"b":1},"C":{"a":2,"b":8},"D":{"a":8,"b":2}},"conditions":["nonSeqFull","nonSeqPartial","seqNoFeedback","seqFeedback"],"classroomPairings":[["A","B"],["C","D"]],"coinWeights":[0.2,0.5,0.8],"subjectId":"A12FTSX85NQ8N9","assignmentId":"3VJ40NV2QJ9XXH6LY2U3Z4NXIWHTOJ","hitId":"3H6W48L9F4B5OEOMH57RM53ZYNHWPM","url":"https://gershmanlab.com/experiments/alicia/teaching/experiment/?hitId=3H6W48L9F4B5OEOMH57RM53ZYNHWPM&workerId=A12FTSX85NQ8N9&assignmentId=3VJ40NV2QJ9XXH6LY2U3Z4NXIWHTOJ&a=20JV8&tp_a=20JV8&b=3VJ40NV2QJ9XXH6LY2U3Z4NXIWHTOJ&tp_b=3VJ40NV2QJ9XXH6LY2U3Z4NXIWHTOJ&c=365198&tp_c=365198"},{"rt":null,"stimulus":"<div style=\"font-size:60px;\">Next student</div>","response":null,"trial_type":"html-keyboard-response","trial_index":85,"time_elapsed":860021,"internal_node_id":"0.0-84.0-0.0","params":{"nStudents":24,"maxFlips":30,"completionMinutes":45,"basePay":8,"maxBonus":9,"perTrialBonus":0.5,"perTrialBonusThreshold":0.1,"exampleCost":0.01},"classroomParams":{"A":{"a":1,"b":4},"B":{"a":4,"b":1},"C":{"a":2,"b":8},"D":{"a":8,"b":2}},"conditions":["nonSeqFull","nonSeqPartial","seqNoFeedback","seqFeedback"],"classroomPairings":[["A","B"],["C","D"]],"coinWeights":[0.2,0.5,0.8],"subjectId":"A12FTSX85NQ8N9","assignmentId":"3VJ40NV2QJ9XXH6LY2U3Z4NXIWHTOJ","hitId":"3H6W48L9F4B5OEOMH57RM53ZYNHWPM","url":"https://gershmanlab.com/experiments/alicia/teaching/experiment/?hitId=3H6W48L9F4B5OEOMH57RM53ZYNHWPM&workerId=A12FTSX85NQ8N9&assignmentId=3VJ40NV2QJ9XXH6LY2U3Z4NXIWHTOJ&a=20JV8&tp_a=20JV8&b=3VJ40NV2QJ9XXH6LY2U3Z4NXIWHTOJ&tp_b=3VJ40NV2QJ9XXH6LY2U3Z4NXIWHTOJ&c=365198&tp_c=365198"},{"rt":2146,"stimulus":"\n            <h4 style=\"color:Orange;\">Student 12</h4>\n            <h2>The weight of your coin is <b style=\"color:Tomato;\">0.2</b>.</h2>\n            <p>In this block, you will be giving <b>two</b> sets of examples to Student 12.</p>\n                <p>You will receive feedback at the end of the block.</p>\n            ","response":0,"trial_type":"html-button-response","trial_index":86,"time_elapsed":862168,"internal_node_id":"0.0-85.0","params":{"nStudents":24,"maxFlips":30,"completionMinutes":45,"basePay":8,"maxBonus":9,"perTrialBonus":0.5,"perTrialBonusThreshold":0.1,"exampleCost":0.01},"classroomParams":{"A":{"a":1,"b":4},"B":{"a":4,"b":1},"C":{"a":2,"b":8},"D":{"a":8,"b":2}},"conditions":["nonSeqFull","nonSeqPartial","seqNoFeedback","seqFeedback"],"classroomPairings":[["A","B"],["C","D"]],"coinWeights":[0.2,0.5,0.8],"subjectId":"A12FTSX85NQ8N9","assignmentId":"3VJ40NV2QJ9XXH6LY2U3Z4NXIWHTOJ","hitId":"3H6W48L9F4B5OEOMH57RM53ZYNHWPM","url":"https://gershmanlab.com/experiments/alicia/teaching/experiment/?hitId=3H6W48L9F4B5OEOMH57RM53ZYNHWPM&workerId=A12FTSX85NQ8N9&assignmentId=3VJ40NV2QJ9XXH6LY2U3Z4NXIWHTOJ&a=20JV8&tp_a=20JV8&b=3VJ40NV2QJ9XXH6LY2U3Z4NXIWHTOJ&tp_b=3VJ40NV2QJ9XXH6LY2U3Z4NXIWHTOJ&c=365198&tp_c=365198"},{"rt":5559,"respo