[{"rt":5032,"stimulus":"Welcome to the experiment. Press any key to begin.","response":" ","trial_type":"html-keyboard-response","trial_index":0,"time_elapsed":5049,"internal_node_id":"0.0-0.0","params":{"nStudents":24,"maxFlips":30,"completionMinutes":45,"basePay":8,"maxBonus":9,"perTrialBonus":0.5,"perTrialBonusThreshold":0.1,"exampleCost":0.01},"classroomParams":{"A":{"a":1,"b":4},"B":{"a":4,"b":1},"C":{"a":2,"b":8},"D":{"a":8,"b":2}},"conditions":["nonSeqFull","nonSeqPartial","seqNoFeedback","seqFeedback"],"classroomPairings":[["A","B"],["C","D"]],"coinWeights":[0.2,0.5,0.8],"subjectId":"A163XFZG5BI0XU","assignmentId":"39U1BHVTDMD8BSDZF4ABB1PMN5M3TZ","hitId":"3QGHA0EA0JM3KKNCY0PQRLYAHJ3BWH","url":"https://gershmanlab.com/experiments/alicia/teaching/experiment/?hitId=3QGHA0EA0JM3KKNCY0PQRLYAHJ3BWH&workerId=A163XFZG5BI0XU&assignmentId=39U1BHVTDMD8BSDZF4ABB1PMN5M3TZ&a=TBU98&tp_a=TBU98&b=39U1BHVTDMD8BSDZF4ABB1PMN5M3TZ&tp_b=39U1BHVTDMD8BSDZF4ABB1PMN5M3TZ&c=365198&tp_c=365198"},{"rt":10157,"stimulus":"\n        <h3>Please read this consent agreement carefully before deciding whether to participate in this experiment.</h3>\n        <p><b>Purpose of the research:</b> To examine how people teach effectively.</p>\n        <p><b>What you will do in this research:</b> You will teach students the weights of different coins.</p>\n        <p><b>Time required:</b> This experiment will take 45 minutes to complete.</p>\n        <p><b>Risks:</b> There are no anticipated risks associated with participating in this study.             The effects of participating should be comparable to those you would experience from viewing a computer monitor             and using a mouse and keyboard for the duration of the experiment.</p>\n        <p><b>Benefits:</b> The study provides important information about the nature of teaching.</p>\n        <p><b>Compensation:</b> You will receive <b>$8</b> for completing the experiment and a performance bonus of up to <b>$9</b>.</p>\n        <p><b>Confidentiality:</b> Your participation in this study will remain confidential.             No personally identifiable information will be associated with your data.             Your de-identified data may be shared with other researchers and used in future projects.</p>\n        <p><b>Participation and withdrawal:</b> Your participation in this study is completely voluntary and             you may refuse to participate or you may choose to withdraw at any time without penalty or loss of\n            benefits to which you are otherwise entitled.</p>\n        <p><b>How to contact the researcher:</b> If you have questions or concerns about your participation            or payment, or want to request a summary of research findings, please contact\n            Alicia Chen, aliciachen@college.harvard.edu.</p>\n        <p><b>Whom to contact about your rights in this research:</b> For questions, concerns, suggestions,             or complaints that have not been or cannot be addressed by the researcher, or to report             research-related harm, please contact the Committee on the Use of Human Subjects in Research at Harvard University,             1414 Massachusetts Avenue, Second Floor, Cambridge, MA 02138. Phone: 617-496-2847. Email: cuhs@fas.harvard.edu.</p>\n        ","response":0,"trial_type":"html-button-response","trial_index":1,"time_elapsed":15209,"internal_node_id":"0.0-1.0","params":{"nStudents":24,"maxFlips":30,"completionMinutes":45,"basePay":8,"maxBonus":9,"perTrialBonus":0.5,"perTrialBonusThreshold":0.1,"exampleCost":0.01},"classroomParams":{"A":{"a":1,"b":4},"B":{"a":4,"b":1},"C":{"a":2,"b":8},"D":{"a":8,"b":2}},"conditions":["nonSeqFull","nonSeqPartial","seqNoFeedback","seqFeedback"],"classroomPairings":[["A","B"],["C","D"]],"coinWeights":[0.2,0.5,0.8],"subjectId":"A163XFZG5BI0XU","assignmentId":"39U1BHVTDMD8BSDZF4ABB1PMN5M3TZ","hitId":"3QGHA0EA0JM3KKNCY0PQRLYAHJ3BWH","url":"https://gershmanlab.com/experiments/alicia/teaching/experiment/?hitId=3QGHA0EA0JM3KKNCY0PQRLYAHJ3BWH&workerId=A163XFZG5BI0XU&assignmentId=39U1BHVTDMD8BSDZF4ABB1PMN5M3TZ&a=TBU98&tp_a=TBU98&b=39U1BHVTDMD8BSDZF4ABB1PMN5M3TZ&tp_b=39U1BHVTDMD8BSDZF4ABB1PMN5M3TZ&c=365198&tp_c=365198"},{"view_history":[{"page_index":0,"viewing_time":7368},{"page_index":1,"viewing_time":4694},{"page_index":2,"viewing_time":29820},{"page_index":3,"viewing_time":24689},{"page_index":4,"viewing_time":7260},{"page_index":5,"viewing_time":26155},{"page_index":6,"viewing_time":69956}],"rt":169941,"trial_type":"instructions","trial_index":2,"time_elapsed":185151,"internal_node_id":"0.0-2.0-0.0","params":{"nStudents":24,"maxFlips":30,"completionMinutes":45,"basePay":8,"maxBonus":9,"perTrialBonus":0.5,"perTrialBonusThreshold":0.1,"exampleCost":0.01},"classroomParams":{"A":{"a":1,"b":4},"B":{"a":4,"b":1},"C":{"a":2,"b":8},"D":{"a":8,"b":2}},"conditions":["nonSeqFull","nonSeqPartial","seqNoFeedback","seqFeedback"],"classroomPairings":[["A","B"],["C","D"]],"coinWeights":[0.2,0.5,0.8],"subjectId":"A163XFZG5BI0XU","assignmentId":"39U1BHVTDMD8BSDZF4ABB1PMN5M3TZ","hitId":"3QGHA0EA0JM3KKNCY0PQRLYAHJ3BWH","url":"https://gershmanlab.com/experiments/alicia/teaching/experiment/?hitId=3QGHA0EA0JM3KKNCY0PQRLYAHJ3BWH&workerId=A163XFZG5BI0XU&assignmentId=39U1BHVTDMD8BSDZF4ABB1PMN5M3TZ&a=TBU98&tp_a=TBU98&b=39U1BHVTDMD8BSDZF4ABB1PMN5M3TZ&tp_b=39U1BHVTDMD8BSDZF4ABB1PMN5M3TZ&c=365198&tp_c=365198"},{"rt":48588,"response":{"Q0":"Students in different classrooms will have seen a different number of heads and tails before seeing the examples you select for them.","Q1":"By teaching efficiently and accurately/helpfully at the same time (because each example I give to the student costs money!).","Q2":"The coin lands heads 90% of the time.","Q3":"Yes, I might encounter the same student twice.","Q4":"The students are also on the same alien planet as you, where coins can be unfair.","Q5":"Based on the student's second (and final) guess."},"question_order":[4,2,3,1,0,5],"trial_type":"survey-multi-choice","trial_index":3,"time_elapsed":233741,"internal_node_id":"0.0-2.0-1.0","params":{"nStudents":24,"maxFlips":30,"completionMinutes":45,"basePay":8,"maxBonus":9,"perTrialBonus":0.5,"perTrialBonusThreshold":0.1,"exampleCost":0.01},"classroomParams":{"A":{"a":1,"b":4},"B":{"a":4,"b":1},"C":{"a":2,"b":8},"D":{"a":8,"b":2}},"conditions":["nonSeqFull","nonSeqPartial","seqNoFeedback","seqFeedback"],"classroomPairings":[["A","B"],["C","D"]],"coinWeights":[0.2,0.5,0.8],"subjectId":"A163XFZG5BI0XU","assignmentId":"39U1BHVTDMD8BSDZF4ABB1PMN5M3TZ","hitId":"3QGHA0EA0JM3KKNCY0PQRLYAHJ3BWH","url":"https://gershmanlab.com/experiments/alicia/teaching/experiment/?hitId=3QGHA0EA0JM3KKNCY0PQRLYAHJ3BWH&workerId=A163XFZG5BI0XU&assignmentId=39U1BHVTDMD8BSDZF4ABB1PMN5M3TZ&a=TBU98&tp_a=TBU98&b=39U1BHVTDMD8BSDZF4ABB1PMN5M3TZ&tp_b=39U1BHVTDMD8BSDZF4ABB1PMN5M3TZ&c=365198&tp_c=365198","pass":false},{"rt":4586,"stimulus":"Oops, you have missed question(s) on the comprehension check! We'll show you the instructions again.","response":0,"trial_type":"html-button-response","trial_index":4,"time_elapsed":238330,"internal_node_id":"0.0-2.0-2.0-0.0","params":{"nStudents":24,"maxFlips":30,"completionMinutes":45,"basePay":8,"maxBonus":9,"perTrialBonus":0.5,"perTrialBonusThreshold":0.1,"exampleCost":0.01},"classroomParams":{"A":{"a":1,"b":4},"B":{"a":4,"b":1},"C":{"a":2,"b":8},"D":{"a":8,"b":2}},"conditions":["nonSeqFull","nonSeqPartial","seqNoFeedback","seqFeedback"],"classroomPairings":[["A","B"],["C","D"]],"coinWeights":[0.2,0.5,0.8],"subjectId":"A163XFZG5BI0XU","assignmentId":"39U1BHVTDMD8BSDZF4ABB1PMN5M3TZ","hitId":"3QGHA0EA0JM3KKNCY0PQRLYAHJ3BWH","url":"https://gershmanlab.com/experiments/alicia/teaching/experiment/?hitId=3QGHA0EA0JM3KKNCY0PQRLYAHJ3BWH&workerId=A163XFZG5BI0XU&assignmentId=39U1BHVTDMD8BSDZF4ABB1PMN5M3TZ&a=TBU98&tp_a=TBU98&b=39U1BHVTDMD8BSDZF4ABB1PMN5M3TZ&tp_b=39U1BHVTDMD8BSDZF4ABB1PMN5M3TZ&c=365198&tp_c=365198"},{"view_history":[{"page_index":0,"viewing_time":4320},{"page_index":1,"viewing_time":2614},{"page_index":2,"viewing_time":21954},{"page_index":3,"viewing_time":4314},{"page_index":2,"viewing_time":7301},{"page_index":3,"viewing_time":8391},{"page_index":4,"viewing_time":16618},{"page_index":5,"viewing_time":18528},{"page_index":6,"viewing_time":18867}],"rt":102908,"trial_type":"instructions","trial_index":5,"time_elapsed":341240,"internal_node_id":"0.0-2.1-0.1","params":{"nStudents":24,"maxFlips":30,"completionMinutes":45,"basePay":8,"maxBonus":9,"perTrialBonus":0.5,"perTrialBonusThreshold":0.1,"exampleCost":0.01},"classroomParams":{"A":{"a":1,"b":4},"B":{"a":4,"b":1},"C":{"a":2,"b":8},"D":{"a":8,"b":2}},"conditions":["nonSeqFull","nonSeqPartial","seqNoFeedback","seqFeedback"],"classroomPairings":[["A","B"],["C","D"]],"coinWeights":[0.2,0.5,0.8],"subjectId":"A163XFZG5BI0XU","assignmentId":"39U1BHVTDMD8BSDZF4ABB1PMN5M3TZ","hitId":"3QGHA0EA0JM3KKNCY0PQRLYAHJ3BWH","url":"https://gershmanlab.com/experiments/alicia/teaching/experiment/?hitId=3QGHA0EA0JM3KKNCY0PQRLYAHJ3BWH&workerId=A163XFZG5BI0XU&assignmentId=39U1BHVTDMD8BSDZF4ABB1PMN5M3TZ&a=TBU98&tp_a=TBU98&b=39U1BHVTDMD8BSDZF4ABB1PMN5M3TZ&tp_b=39U1BHVTDMD8BSDZF4ABB1PMN5M3TZ&c=365198&tp_c=365198"},{"rt":38937,"response":{"Q0":"Students in different classrooms will have seen a different number of heads and tails before seeing the examples you select for them.","Q1":"By teaching efficiently and accurately/helpfully at the same time (because each example I give to the student costs money!).","Q2":"The coin lands heads 90% of the time.","Q3":"No, I will teach a <b>new</b> student each time.","Q4":"The students are also on the same alien planet as you, where coins can be unfair.","Q5":"Based on the student's second (and final) guess."},"question_order":[1,4,3,0,5,2],"trial_type":"survey-multi-choice","trial_index":6,"time_elapsed":380180,"internal_node_id":"0.0-2.1-1.1","params":{"nStudents":24,"maxFlips":30,"completionMinutes":45,"basePay":8,"maxBonus":9,"perTrialBonus":0.5,"perTrialBonusThreshold":0.1,"exampleCost":0.01},"classroomParams":{"A":{"a":1,"b":4},"B":{"a":4,"b":1},"C":{"a":2,"b":8},"D":{"a":8,"b":2}},"conditions":["nonSeqFull","nonSeqPartial","seqNoFeedback","seqFeedback"],"classroomPairings":[["A","B"],["C","D"]],"coinWeights":[0.2,0.5,0.8],"subjectId":"A163XFZG5BI0XU","assignmentId":"39U1BHVTDMD8BSDZF4ABB1PMN5M3TZ","hitId":"3QGHA0EA0JM3KKNCY0PQRLYAHJ3BWH","url":"https://gershmanlab.com/experiments/alicia/teaching/experiment/?hitId=3QGHA0EA0JM3KKNCY0PQRLYAHJ3BWH&workerId=A163XFZG5BI0XU&assignmentId=39U1BHVTDMD8BSDZF4ABB1PMN5M3TZ&a=TBU98&tp_a=TBU98&b=39U1BHVTDMD8BSDZF4ABB1PMN5M3TZ&tp_b=39U1BHVTDMD8BSDZF4ABB1PMN5M3TZ&c=365198&tp_c=365198","pass":true},{"rt":null,"stimulus":"<div style=\"font-size:30px;\">Congrats on passing the comprehension quiz! The experiment will begin in a few seconds.</div>","response":null,"trial_type":"html-keyboard-response","trial_index":7,"time_elapsed":383185,"internal_node_id":"0.0-3.0","params":{"nStudents":24,"maxFlips":30,"completionMinutes":45,"basePay":8,"maxBonus":9,"perTrialBonus":0.5,"perTrialBonusThreshold":0.1,"exampleCost":0.01},"classroomParams":{"A":{"a":1,"b":4},"B":{"a":4,"b":1},"C":{"a":2,"b":8},"D":{"a":8,"b":2}},"conditions":["nonSeqFull","nonSeqPartial","seqNoFeedback","seqFeedback"],"classroomPairings":[["A","B"],["C","D"]],"coinWeights":[0.2,0.5,0.8],"subjectId":"A163XFZG5BI0XU","assignmentId":"39U1BHVTDMD8BSDZF4ABB1PMN5M3TZ","hitId":"3QGHA0EA0JM3KKNCY0PQRLYAHJ3BWH","url":"https://gershmanlab.com/experiments/alicia/teaching/experiment/?hitId=3QGHA0EA0JM3KKNCY0PQRLYAHJ3BWH&workerId=A163XFZG5BI0XU&assignmentId=39U1BHVTDMD8BSDZF4ABB1PMN5M3TZ&a=TBU98&tp_a=TBU98&b=39U1BHVTDMD8BSDZF4ABB1PMN5M3TZ&tp_b=39U1BHVTDMD8BSDZF4ABB1PMN5M3TZ&c=365198&tp_c=365198"},{"rt":null,"stimulus":"<div style=\"font-size:50px;\">First student</div>","response":null,"trial_type":"html-keyboard-response","trial_index":8,"time_elapsed":386187,"internal_node_id":"0.0-4.0","params":{"nStudents":24,"maxFlips":30,"completionMinutes":45,"basePay":8,"maxBonus":9,"perTrialBonus":0.5,"perTrialBonusThreshold":0.1,"exampleCost":0.01},"classroomParams":{"A":{"a":1,"b":4},"B":{"a":4,"b":1},"C":{"a":2,"b":8},"D":{"a":8,"b":2}},"conditions":["nonSeqFull","nonSeqPartial","seqNoFeedback","seqFeedback"],"classroomPairings":[["A","B"],["C","D"]],"coinWeights":[0.2,0.5,0.8],"subjectId":"A163XFZG5BI0XU","assignmentId":"39U1BHVTDMD8BSDZF4ABB1PMN5M3TZ","hitId":"3QGHA0EA0JM3KKNCY0PQRLYAHJ3BWH","url":"https://gershmanlab.com/experiments/alicia/teaching/experiment/?hitId=3QGHA0EA0JM3KKNCY0PQRLYAHJ3BWH&workerId=A163XFZG5BI0XU&assignmentId=39U1BHVTDMD8BSDZF4ABB1PMN5M3TZ&a=TBU98&tp_a=TBU98&b=39U1BHVTDMD8BSDZF4ABB1PMN5M3TZ&tp_b=39U1BHVTDMD8BSDZF4ABB1PMN5M3TZ&c=365198&tp_c=365198"},{"rt":8274,"stimulus":"\n            <h4 style=\"color:Orange;\">Student 1</h4>\n            <h2>The weight of your coin is <b style=\"color:Tomato;\">0.5</b>.</h2>\n            <p>In this block, you will be giving <b>two</b> sets of examples to Student 1.</p>\n                <p>You will receive feedback at the end of the block.</p>\n            ","response":0,"trial_type":"html-button-response","trial_index":9,"time_elapsed":394462,"internal_node_id":"0.0-5.0","params":{"nStudents":24,"maxFlips":30,"completionMinutes":45,"basePay":8,"maxBonus":9,"perTrialBonus":0.5,"perTrialBonusThreshold":0.1,"exampleCost":0.01},"classroomParams":{"A":{"a":1,"b":4},"B":{"a":4,"b":1},"C":{"a":2,"b":8},"D":{"a":8,"b":2}},"conditions":["nonSeqFull","nonSeqPartial","seqNoFeedback","seqFeedback"],"classroomPairings":[["A","B"],["C","D"]],"coinWeights":[0.2,0.5,0.8],"subjectId":"A163XFZG5BI0XU","assignmentId":"39U1BHVTDMD8BSDZF4ABB1PMN5M3TZ","hitId":"3QGHA0EA0JM3KKNCY0PQRLYAHJ3BWH","url":"https://gershmanlab.com/experiments/alicia/teaching/experiment/?hitId=3QGHA0EA0JM3KKNCY0PQRLYAHJ3BWH&workerId=A163XFZG5BI0XU&assignmentId=39U1BHVTDMD8BSDZF4ABB1PMN5M3TZ&a=TBU98&tp_a=TBU98&b=39U1BHVTDMD8BSDZF4ABB1PMN5M3TZ&tp_b=39U1BHVTDMD8BSDZF4ABB1PMN5M3TZ&c=365198&tp_c=365198"},{"rt":39005,"response":{"heads":"2","tails":"2"},"type":"response","condition":"seqNoFeedback","trueTheta":0.5,"classrooms":["A","B"],"studentTrueClassroom":"B","exampleSet":"first","trial_type":"survey-html-form","trial_index":10,"time_elapsed":433468,"internal_node_id":"0.0-6.0-0.0","params":{"nStudents":24,"maxFlips":30,"completionMinutes":45,"basePay":8,"maxBonus":9,"perTrialBonus":0.5,"perTrialBonusThreshold":0.1,"exampleCost":0.01},"classroomParams":{"A":{"a":1,"b":4},"B":{"a":4,"b":1},"C":{"a":2,"b":8},"D":{"a":8,"b":2}},"conditions":["nonSeqFull","nonSeqPartial","seqNoFeedback","seqFeedback"],"classroomPairings":[["A","B"],["C","D"]],"coinWeights":[0.2,0.5,0.8],"subjectId":"A163XFZG5BI0XU","assignmentId":"39U1BHVTDMD8BSDZF4ABB1PMN5M3TZ","hitId":"3QGHA0EA0JM3KKNCY0PQRLYAHJ3BWH","url":"https://gershmanlab.com/experiments/alicia/teaching/experiment/?hitId=3QGHA0EA0JM3KKNCY0PQRLYAHJ3BWH&workerId=A163XFZG5BI0XU&assignmentId=39U1BHVTDMD8BSDZF4ABB1PMN5M3TZ&a=TBU98&tp_a=TBU98&b=39U1BHVTDMD8BSDZF4ABB1PMN5M3TZ&tp_b=39U1BHVTDMD8BSDZF4ABB1PMN5M3TZ&c=365198&tp_c=365198","heads":2,"tails":2,"studentIndex":0,"studentTrueHypers":{"a":4,"b":1},"studentGuess":0.6666666666666666,"delta":0.16666666666666663,"totalExamples":4,"bonusSoFar":0},{"rt":null,"stimulus":"Sending examples to student... ","response":null,"trial_type":"html-keyboard-response","trial_index":11,"time_elapsed":434720,"internal_node_id":"0.0-7.0","params":{"nStudents":24,"maxFlips":30,"completionMinutes":45,"basePay":8,"maxBonus":9,"perTrialBonus":0.5,"perTrialBonusThreshold":0.1,"exampleCost":0.01},"classroomParams":{"A":{"a":1,"b":4},"B":{"a":4,"b":1},"C":{"a":2,"b":8},"D":{"a":8,"b":2}},"conditions":["nonSeqFull","nonSeqPartial","seqNoFeedback","seqFeedback"],"classroomPairings":[["A","B"],["C","D"]],"coinWeights":[0.2,0.5,0.8],"subjectId":"A163XFZG5BI0XU","assignmentId":"39U1BHVTDMD8BSDZF4ABB1PMN5M3TZ","hitId":"3QGHA0EA0JM3KKNCY0PQRLYAHJ3BWH","url":"https://gershmanlab.com/experiments/alicia/teaching/experiment/?hitId=3QGHA0EA0JM3KKNCY0PQRLYAHJ3BWH&workerId=A163XFZG5BI0XU&assignmentId=39U1BHVTDMD8BSDZF4ABB1PMN5M3TZ&a=TBU98&tp_a=TBU98&b=39U1BHVTDMD8BSDZF4ABB1PMN5M3TZ&tp_b=39U1BHVTDMD8BSDZF4ABB1PMN5M3TZ&c=365198&tp_c=365198"},{"rt":null,"stimulus":"Examples sent to student! Waiting for student...","response":null,"trial_type":"html-keyboard-response","trial_index":12,"time_elapsed":440722,"internal_node_id":"0.0-8.0","params":{"nStudents":24,"maxFlips":30,"completionMinutes":45,"basePay":8,"maxBonus":9,"perTrialBonus":0.5,"perTrialBonusThreshold":0.1,"exampleCost":0.01},"classroomParams":{"A":{"a":1,"b":4},"B":{"a":4,"b":1},"C":{"a":2,"b":8},"D":{"a":8,"b":2}},"conditions":["nonSeqFull","nonSeqPartial","seqNoFeedback","seqFeedback"],"classroomPairings":[["A","B"],["C","D"]],"coinWeights":[0.2,0.5,0.8],"subjectId":"A163XFZG5BI0XU","assignmentId":"39U1BHVTDMD8BSDZF4ABB1PMN5M3TZ","hitId":"3QGHA0EA0JM3KKNCY0PQRLYAHJ3BWH","url":"https://gershmanlab.com/experiments/alicia/teaching/experiment/?hitId=3QGHA0EA0JM3KKNCY0PQRLYAHJ3BWH&workerId=A163XFZG5BI0XU&assignmentId=39U1BHVTDMD8BSDZF4ABB1PMN5M3TZ&a=TBU98&tp_a=TBU98&b=39U1BHVTDMD8BSDZF4ABB1PMN5M3TZ&tp_b=39U1BHVTDMD8BSDZF4ABB1PMN5M3TZ&c=365198&tp_c=365198"},{"rt":28508,"response":{"heads":"2","tails":"2"},"type":"response","condition":"seqNoFeedback","trueTheta":0.5,"classrooms":["A","B"],"studentTrueClassroom":"B","exampleSet":"second","trial_type":"survey-html-form","trial_index":13,"time_elapsed":469231,"internal_node_id":"0.0-9.0-0.0","params":{"nStudents":24,"maxFlips":30,"completionMinutes":45,"basePay":8,"maxBonus":9,"perTrialBonus":0.5,"perTrialBonusThreshold":0.1,"exampleCost":0.01},"classroomParams":{"A":{"a":1,"b":4},"B":{"a":4,"b":1},"C":{"a":2,"b":8},"D":{"a":8,"b":2}},"conditions":["nonSeqFull","nonSeqPartial","seqNoFeedback","seqFeedback"],"classroomPairings":[["A","B"],["C","D"]],"coinWeights":[0.2,0.5,0.8],"subjectId":"A163XFZG5BI0XU","assignmentId":"39U1BHVTDMD8BSDZF4ABB1PMN5M3TZ","hitId":"3QGHA0EA0JM3KKNCY0PQRLYAHJ3BWH","url":"https://gershmanlab.com/experiments/alicia/teaching/experiment/?hitId=3QGHA0EA0JM3KKNCY0PQRLYAHJ3BWH&workerId=A163XFZG5BI0XU&assignmentId=39U1BHVTDMD8BSDZF4ABB1PMN5M3TZ&a=TBU98&tp_a=TBU98&b=39U1BHVTDMD8BSDZF4ABB1PMN5M3TZ&tp_b=39U1BHVTDMD8BSDZF4ABB1PMN5M3TZ&c=365198&tp_c=365198","firstResponseHeads":2,"firstResponseTails":2,"secondResponseHeads":2,"secondResponseTails":2,"studentIndex":0,"studentTrueHypers":{"a":4,"b":1},"studentGuess":0.6153846153846154,"delta":0.11538461538461542,"bonus":0,"bonusSoFar":0,"totalExamples":8},{"rt":null,"stimulus":"Sending examples to student... ","response":null,"trial_type":"html-keyboard-response","trial_index":14,"time_elapsed":471233,"internal_node_id":"0.0-10.0","params":{"nStudents":24,"maxFlips":30,"completionMinutes":45,"basePay":8,"maxBonus":9,"perTrialBonus":0.5,"perTrialBonusThreshold":0.1,"exampleCost":0.01},"classroomParams":{"A":{"a":1,"b":4},"B":{"a":4,"b":1},"C":{"a":2,"b":8},"D":{"a":8,"b":2}},"conditions":["nonSeqFull","nonSeqPartial","seqNoFeedback","seqFeedback"],"classroomPairings":[["A","B"],["C","D"]],"coinWeights":[0.2,0.5,0.8],"subjectId":"A163XFZG5BI0XU","assignmentId":"39U1BHVTDMD8BSDZF4ABB1PMN5M3TZ","hitId":"3QGHA0EA0JM3KKNCY0PQRLYAHJ3BWH","url":"https://gershmanlab.com/experiments/alicia/teaching/experiment/?hitId=3QGHA0EA0JM3KKNCY0PQRLYAHJ3BWH&workerId=A163XFZG5BI0XU&assignmentId=39U1BHVTDMD8BSDZF4ABB1PMN5M3TZ&a=TBU98&tp_a=TBU98&b=39U1BHVTDMD8BSDZF4ABB1PMN5M3TZ&tp_b=39U1BHVTDMD8BSDZF4ABB1PMN5M3TZ&c=365198&tp_c=365198"},{"rt":null,"stimulus":"Examples sent to student! Waiting for student...","response":null,"trial_type":"html-keyboard-response","trial_index":15,"time_elapsed":476734,"internal_node_id":"0.0-11.0","params":{"nStudents":24,"maxFlips":30,"completionMinutes":45,"basePay":8,"maxBonus":9,"perTrialBonus":0.5,"perTrialBonusThreshold":0.1,"exampleCost":0.01},"classroomParams":{"A":{"a":1,"b":4},"B":{"a":4,"b":1},"C":{"a":2,"b":8},"D":{"a":8,"b":2}},"conditions":["nonSeqFull","nonSeqPartial","seqNoFeedback","seqFeedback"],"classroomPairings":[["A","B"],["C","D"]],"coinWeights":[0.2,0.5,0.8],"subjectId":"A163XFZG5BI0XU","assignmentId":"39U1BHVTDMD8BSDZF4ABB1PMN5M3TZ","hitId":"3QGHA0EA0JM3KKNCY0PQRLYAHJ3BWH","url":"https://gershmanlab.com/experiments/alicia/teaching/experiment/?hitId=3QGHA0EA0JM3KKNCY0PQRLYAHJ3BWH&workerId=A163XFZG5BI0XU&assignmentId=39U1BHVTDMD8BSDZF4ABB1PMN5M3TZ&a=TBU98&tp_a=TBU98&b=39U1BHVTDMD8BSDZF4ABB1PMN5M3TZ&tp_b=39U1BHVTDMD8BSDZF4ABB1PMN5M3TZ&c=365198&tp_c=365198"},{"rt":10467,"stimulus":"\n                <p>Student 1's first guess for coin weight: <b style=\"color:Tomato\";>0.67</b></p>\n                <p>Student 1's second guess for coin weight: <b style=\"color:Tomato\";>0.62</b></p>\n                <p>You received a bonus of <b>$0.00</b> based on the student's second guess.</p>\n                <p>Total bonus so far: <b>$0.00</b></p>\n                <p>Press any key to continue.</p>\n                ","response":" ","trial_type":"html-keyboard-response","trial_index":16,"time_elapsed":487203,"internal_node_id":"0.0-12.0","params":{"nStudents":24,"maxFlips":30,"completionMinutes":45,"basePay":8,"maxBonus":9,"perTrialBonus":0.5,"perTrialBonusThreshold":0.1,"exampleCost":0.01},"classroomParams":{"A":{"a":1,"b":4},"B":{"a":4,"b":1},"C":{"a":2,"b":8},"D":{"a":8,"b":2}},"conditions":["nonSeqFull","nonSeqPartial","seqNoFeedback","seqFeedback"],"classroomPairings":[["A","B"],["C","D"]],"coinWeights":[0.2,0.5,0.8],"subjectId":"A163XFZG5BI0XU","assignmentId":"39U1BHVTDMD8BSDZF4ABB1PMN5M3TZ","hitId":"3QGHA0EA0JM3KKNCY0PQRLYAHJ3BWH","url":"https://gershmanlab.com/experiments/alicia/teaching/experiment/?hitId=3QGHA0EA0JM3KKNCY0PQRLYAHJ3BWH&workerId=A163XFZG5BI0XU&assignmentId=39U1BHVTDMD8BSDZF4ABB1PMN5M3TZ&a=TBU98&tp_a=TBU98&b=39U1BHVTDMD8BSDZF4ABB1PMN5M3TZ&tp_b=39U1BHVTDMD8BSDZF4ABB1PMN5M3TZ&c=365198&tp_c=365198"},{"rt":null,"stimulus":"<div style=\"font-size:60px;\">Next student</div>","response":null,"trial_type":"html-keyboard-response","trial_index":17,"time_elapsed":490204,"internal_node_id":"0.0-13.0-0.0","params":{"nStudents":24,"maxFlips":30,"completionMinutes":45,"basePay":8,"maxBonus":9,"perTrialBonus":0.5,"perTrialBonusThreshold":0.1,"exampleCost":0.01},"classroomParams":{"A":{"a":1,"b":4},"B":{"a":4,"b":1},"C":{"a":2,"b":8},"D":{"a":8,"b":2}},"conditions":["nonSeqFull","nonSeqPartial","seqNoFeedback","seqFeedback"],"classroomPairings":[["A","B"],["C","D"]],"coinWeights":[0.2,0.5,0.8],"subjectId":"A163XFZG5BI0XU","assignmentId":"39U1BHVTDMD8BSDZF4ABB1PMN5M3TZ","hitId":"3QGHA0EA0JM3KKNCY0PQRLYAHJ3BWH","url":"https://gershmanlab.com/experiments/alicia/teaching/experiment/?hitId=3QGHA0EA0JM3KKNCY0PQRLYAHJ3BWH&workerId=A163XFZG5BI0XU&assignmentId=39U1BHVTDMD8BSDZF4ABB1PMN5M3TZ&a=TBU98&tp_a=TBU98&b=39U1BHVTDMD8BSDZF4ABB1PMN5M3TZ&tp_b=39U1BHVTDMD8BSDZF4ABB1PMN5M3TZ&c=365198&tp_c=365198"},{"rt":4739,"stimulus":"\n            <h4 style=\"color:Orange;\">Student 2</h4>\n            <h2>The weight of your coin is <b style=\"color:Tomato;\">0.5</b>.</h2>\n            <p>In this block, you will be giving <b>two</b> sets of examples to Student 2.</p>\n                <p>You will receive feedback at the end of the block.</p>\n            ","response":0,"trial_type":"html-button-response","trial_index":18,"time_elapsed":494944,"internal_node_id":"0.0-14.0","params":{"nStudents":24,"maxFlips":30,"completionMinutes":45,"basePay":8,"maxBonus":9,"perTrialBonus":0.5,"perTrialBonusThreshold":0.1,"exampleCost":0.01},"classroomParams":{"A":{"a":1,"b":4},"B":{"a":4,"b":1},"C":{"a":2,"b":8},"D":{"a":8,"b":2}},"conditions":["nonSeqFull","nonSeqPartial","seqNoFeedback","seqFeedback"],"classroomPairings":[["A","B"],["C","D"]],"coinWeights":[0.2,0.5,0.8],"subjectId":"A163XFZG5BI0XU","assignmentId":"39U1BHVTDMD8BSDZF4ABB1PMN5M3TZ","hitId":"3QGHA0EA0JM3KKNCY0PQRLYAHJ3BWH","url":"https://gershmanlab.com/experiments/alicia/teaching/experiment/?hitId=3QGHA0EA0JM3KKNCY0PQRLYAHJ3BWH&workerId=A163XFZG5BI0XU&assignmentId=39U1BHVTDMD8BSDZF4ABB1PMN5M3TZ&a=TBU98&tp_a=TBU98&b=39U1BHVTDMD8BSDZF4ABB1PMN5M3TZ&tp_b=39U1BHVTDMD8BSDZF4ABB1PMN5M3TZ&c=365198&tp_c=365198"},{"rt":13840,"response":{"heads":"5","tails":"5"},"type":"response","condition":"seqNoFeedback","trueTheta":0.5,"classrooms":["C","D"],"studentTrueClassroom":"D","exampleSet":"first","trial_type":"survey-html-form","trial_index":19,"time_elapsed":508785,"internal_node_id":"0.0-15.0-0.0","params":{"nStudents":24,"maxFlips":30,"completionMinutes":45,"basePay":8,"maxBonus":9,"perTrialBonus":0.5,"perTrialBonusThreshold":0.1,"exampleCost":0.01},"classroomParams":{"A":{"a":1,"b":4},"B":{"a":4,"b":1},"C":{"a":2,"b":8},"D":{"a":8,"b":2}},"conditions":["nonSeqFull","nonSeqPartial","seqNoFeedback","seqFeedback"],"classroomPairings":[["A","B"],["C","D"]],"coinWeights":[0.2,0.5,0.8],"subjectId":"A163XFZG5BI0XU","assignmentId":"39U1BHVTDMD8BSDZF4ABB1PMN5M3TZ","hitId":"3QGHA0EA0JM3KKNCY0PQRLYAHJ3BWH","url":"https://gershmanlab.com/experiments/alicia/teaching/experiment/?hitId=3QGHA0EA0JM3KKNCY0PQRLYAHJ3BWH&workerId=A163XFZG5BI0XU&assignmentId=39U1BHVTDMD8BSDZF4ABB1PMN5M3TZ&a=TBU98&tp_a=TBU98&b=39U1BHVTDMD8BSDZF4ABB1PMN5M3TZ&tp_b=39U1BHVTDMD8BSDZF4ABB1PMN5M3TZ&c=365198&tp_c=365198","heads":5,"tails":5,"studentIndex":1,"studentTrueHypers":{"a":8,"b":2},"studentGuess":0.65,"delta":0.15000000000000002,"totalExamples":10,"bonusSoFar":0},{"rt":null,"stimulus":"Sending examples to student... ","response":null,"trial_type":"html-keyboard-response","trial_index":20,"time_elapsed":510536,"internal_node_id":"0.0-16.0","params":{"nStudents":24,"maxFlips":30,"completionMinutes":45,"basePay":8,"maxBonus":9,"perTrialBonus":0.5,"perTrialBonusThreshold":0.1,"exampleCost":0.01},"classroomParams":{"A":{"a":1,"b":4},"B":{"a":4,"b":1},"C":{"a":2,"b":8},"D":{"a":8,"b":2}},"conditions":["nonSeqFull","nonSeqPartial","seqNoFeedback","seqFeedback"],"classroomPairings":[["A","B"],["C","D"]],"coinWeights":[0.2,0.5,0.8],"subjectId":"A163XFZG5BI0XU","assignmentId":"39U1BHVTDMD8BSDZF4ABB1PMN5M3TZ","hitId":"3QGHA0EA0JM3KKNCY0PQRLYAHJ3BWH","url":"https://gershmanlab.com/experiments/alicia/teaching/experiment/?hitId=3QGHA0EA0JM3KKNCY0PQRLYAHJ3BWH&workerId=A163XFZG5BI0XU&assignmentId=39U1BHVTDMD8BSDZF4ABB1PMN5M3TZ&a=TBU98&tp_a=TBU98&b=39U1BHVTDMD8BSDZF4ABB1PMN5M3TZ&tp_b=39U1BHVTDMD8BSDZF4ABB1PMN5M3TZ&c=365198&tp_c=365198"},{"rt":null,"stimulus":"Examples sent to student! Waiting for student...","response":null,"trial_type":"html-keyboard-response","trial_index":21,"time_elapsed":516537,"internal_node_id":"0.0-17.0","params":{"nStudents":24,"maxFlips":30,"completionMinutes":45,"basePay":8,"maxBonus":9,"perTrialBonus":0.5,"perTrialBonusThreshold":0.1,"exampleCost":0.01},"classroomParams":{"A":{"a":1,"b":4},"B":{"a":4,"b":1},"C":{"a":2,"b":8},"D":{"a":8,"b":2}},"conditions":["nonSeqFull","nonSeqPartial","seqNoFeedback","seqFeedback"],"classroomPairings":[["A","B"],["C","D"]],"coinWeights":[0.2,0.5,0.8],"subjectId":"A163XFZG5BI0XU","assignmentId":"39U1BHVTDMD8BSDZF4ABB1PMN5M3TZ","hitId":"3QGHA0EA0JM3KKNCY0PQRLYAHJ3BWH","url":"https://gershmanlab.com/experiments/alicia/teaching/experiment/?hitId=3QGHA0EA0JM3KKNCY0PQRLYAHJ3BWH&workerId=A163XFZG5BI0XU&assignmentId=39U1BHVTDMD8BSDZF4ABB1PMN5M3TZ&a=TBU98&tp_a=TBU98&b=39U1BHVTDMD8BSDZF4ABB1PMN5M3TZ&tp_b=39U1BHVTDMD8BSDZF4ABB1PMN5M3TZ&c=365198&tp_c=365198"},{"rt":8732,"response":{"heads":"7","tails":"7"},"type":"response","condition":"seqNoFeedback","trueTheta":0.5,"classrooms":["C","D"],"studentTrueClassroom":"D","exampleSet":"second","trial_type":"survey-html-form","trial_index":22,"time_elapsed":525271,"internal_node_id":"0.0-18.0-0.0","params":{"nStudents":24,"maxFlips":30,"completionMinutes":45,"basePay":8,"maxBonus":9,"perTrialBonus":0.5,"perTrialBonusThreshold":0.1,"exampleCost":0.01},"classroomParams":{"A":{"a":1,"b":4},"B":{"a":4,"b":1},"C":{"a":2,"b":8},"D":{"a":8,"b":2}},"conditions":["nonSeqFull","nonSeqPartial","seqNoFeedback","seqFeedback"],"classroomPairings":[["A","B"],["C","D"]],"coinWeights":[0.2,0.5,0.8],"subjectId":"A163XFZG5BI0XU","assignmentId":"39U1BHVTDMD8BSDZF4ABB1PMN5M3TZ","hitId":"3QGHA0EA0JM3KKNCY0PQRLYAHJ3BWH","url":"https://gershmanlab.com/experiments/alicia/teaching/experiment/?hitId=3QGHA0EA0JM3KKNCY0PQRLYAHJ3BWH&workerId=A163XFZG5BI0XU&assignmentId=39U1BHVTDMD8BSDZF4ABB1PMN5M3TZ&a=TBU98&tp_a=TBU98&b=39U1BHVTDMD8BSDZF4ABB1PMN5M3TZ&tp_b=39U1BHVTDMD8BSDZF4ABB1PMN5M3TZ&c=365198&tp_c=365198","firstResponseHeads":5,"firstResponseTails":5,"secondResponseHeads":7,"secondResponseTails":7,"studentIndex":1,"studentTrueHypers":{"a":8,"b":2},"studentGuess":0.5882352941176471,"delta":0.08823529411764708,"bonus":0.26,"bonusSoFar":0.26,"totalExamples":24},{"rt":null,"stimulus":"Sending examples to student... ","response":null,"trial_type":"html-keyboard-response","trial_index":23,"time_elapsed":526772,"internal_node_id":"0.0-19.0","params":{"nStudents":24,"maxFlips":30,"completionMinutes":45,"basePay":8,"maxBonus":9,"perTrialBonus":0.5,"perTrialBonusThreshold":0.1,"exampleCost":0.01},"classroomParams":{"A":{"a":1,"b":4},"B":{"a":4,"b":1},"C":{"a":2,"b":8},"D":{"a":8,"b":2}},"conditions":["nonSeqFull","nonSeqPartial","seqNoFeedback","seqFeedback"],"classroomPairings":[["A","B"],["C","D"]],"coinWeights":[0.2,0.5,0.8],"subjectId":"A163XFZG5BI0XU","assignmentId":"39U1BHVTDMD8BSDZF4ABB1PMN5M3TZ","hitId":"3QGHA0EA0JM3KKNCY0PQRLYAHJ3BWH","url":"https://gershmanlab.com/experiments/alicia/teaching/experiment/?hitId=3QGHA0EA0JM3KKNCY0PQRLYAHJ3BWH&workerId=A163XFZG5BI0XU&assignmentId=39U1BHVTDMD8BSDZF4ABB1PMN5M3TZ&a=TBU98&tp_a=TBU98&b=39U1BHVTDMD8BSDZF4ABB1PMN5M3TZ&tp_b=39U1BHVTDMD8BSDZF4ABB1PMN5M3TZ&c=365198&tp_c=365198"},{"rt":null,"stimulus":"Examples sent to student! Waiting for student...","response":null,"trial_type":"html-keyboard-response","trial_index":24,"time_elapsed":531274,"internal_node_id":"0.0-20.0","params":{"nStudents":24,"maxFlips":30,"completionMinutes":45,"basePay":8,"maxBonus":9,"perTrialBonus":0.5,"perTrialBonusThreshold":0.1,"exampleCost":0.01},"classroomParams":{"A":{"a":1,"b":4},"B":{"a":4,"b":1},"C":{"a":2,"b":8},"D":{"a":8,"b":2}},"conditions":["nonSeqFull","nonSeqPartial","seqNoFeedback","seqFeedback"],"classroomPairings":[["A","B"],["C","D"]],"coinWeights":[0.2,0.5,0.8],"subjectId":"A163XFZG5BI0XU","assignmentId":"39U1BHVTDMD8BSDZF4ABB1PMN5M3TZ","hitId":"3QGHA0EA0JM3KKNCY0PQRLYAHJ3BWH","url":"https://gershmanlab.com/experiments/alicia/teaching/experiment/?hitId=3QGHA0EA0JM3KKNCY0PQRLYAHJ3BWH&workerId=A163XFZG5BI0XU&assignmentId=39U1BHVTDMD8BSDZF4ABB1PMN5M3TZ&a=TBU98&tp_a=TBU98&b=39U1BHVTDMD8BSDZF4ABB1PMN5M3TZ&tp_b=39U1BHVTDMD8BSDZF4ABB1PMN5M3TZ&c=365198&tp_c=365198"},{"rt":10480,"stimulus":"\n                <p>Student 2's first guess for coin weight: <b style=\"color:Tomato\";>0.65</b></p>\n                <p>Student 2's second guess for coin weight: <b style=\"color:Tomato\";>0.59</b></p>\n                <p>You received a bonus of <b>$0.26</b> based on the student's second guess.</p>\n                <p>Total bonus so far: <b>$0.26</b></p>\n                <p>Press any key to continue.</p>\n                ","response":" ","trial_type":"html-keyboard-response","trial_index":25,"time_elapsed":541756,"internal_node_id":"0.0-21.0","params":{"nStudents":24,"maxFlips":30,"completionMinutes":45,"basePay":8,"maxBonus":9,"perTrialBonus":0.5,"perTrialBonusThreshold":0.1,"exampleCost":0.01},"classroomParams":{"A":{"a":1,"b":4},"B":{"a":4,"b":1},"C":{"a":2,"b":8},"D":{"a":8,"b":2}},"conditions":["nonSeqFull","nonSeqPartial","seqNoFeedback","seqFeedback"],"classroomPairings":[["A","B"],["C","D"]],"coinWeights":[0.2,0.5,0.8],"subjectId":"A163XFZG5BI0XU","assignmentId":"39U1BHVTDMD8BSDZF4ABB1PMN5M3TZ","hitId":"3QGHA0EA0JM3KKNCY0PQRLYAHJ3BWH","url":"https://gershmanlab.com/experiments/alicia/teaching/experiment/?hitId=3QGHA0EA0JM3KKNCY0PQRLYAHJ3BWH&workerId=A163XFZG5BI0XU&assignmentId=39U1BHVTDMD8BSDZF4ABB1PMN5M3TZ&a=TBU98&tp_a=TBU98&b=39U1BHVTDMD8BSDZF4ABB1PMN5M3TZ&tp_b=39U1BHVTDMD8BSDZF4ABB1PMN5M3TZ&c=365198&tp_c=365198"},{"rt":null,"stimulus":"<div style=\"font-size:60px;\">Next student</div>","response":null,"trial_type":"html-keyboard-response","trial_index":26,"time_elapsed":544257,"internal_node_id":"0.0-22.0-0.0","params":{"nStudents":24,"maxFlips":30,"completionMinutes":45,"basePay":8,"maxBonus":9,"perTrialBonus":0.5,"perTrialBonusThreshold":0.1,"exampleCost":0.01},"classroomParams":{"A":{"a":1,"b":4},"B":{"a":4,"b":1},"C":{"a":2,"b":8},"D":{"a":8,"b":2}},"conditions":["nonSeqFull","nonSeqPartial","seqNoFeedback","seqFeedback"],"classroomPairings":[["A","B"],["C","D"]],"coinWeights":[0.2,0.5,0.8],"subjectId":"A163XFZG5BI0XU","assignmentId":"39U1BHVTDMD8BSDZF4ABB1PMN5M3TZ","hitId":"3QGHA0EA0JM3KKNCY0PQRLYAHJ3BWH","url":"https://gershmanlab.com/experiments/alicia/teaching/experiment/?hitId=3QGHA0EA0JM3KKNCY0PQRLYAHJ3BWH&workerId=A163XFZG5BI0XU&assignmentId=39U1BHVTDMD8BSDZF4ABB1PMN5M3TZ&a=TBU98&tp_a=TBU98&b=39U1BHVTDMD8BSDZF4ABB1PMN5M3TZ&tp_b=39U1BHVTDMD8BSDZF4ABB1PMN5M3TZ&c=365198&tp_c=365198"},{"rt":5317,"stimulus":"\n            <h4 style=\"color:Orange;\">Student 3</h4>\n            <h2>The weight of your coin is <b style=\"color:Tomato;\">0.8</b>.</h2>\n            <p>In this block, you will be giving <b>one</b> set of examples to Student 3.</p>\n                <p>You will receive feedback at the end of the block.</p>\n            ","response":0,"trial_type":"html-button-response","trial_index":27,"time_elapsed":549574,"internal_node_id":"0.0-23.0","params":{"nStudents":24,"maxFlips":30,"completionMinutes":45,"basePay":8,"maxBonus":9,"perTrialBonus":0.5,"perTrialBonusThreshold":0.1,"exampleCost":0.01},"classroomParams":{"A":{"a":1,"b":4},"B":{"a":4,"b":1},"C":{"a":2,"b":8},"D":{"a":8,"b":2}},"conditions":["nonSeqFull","nonSeqPartial","seqNoFeedback","seqFeedback"],"classroomPairings":[["A","B"],["C","D"]],"coinWeights":[0.2,0.5,0.8],"subjectId":"A163XFZG5BI0XU","assignmentId":"39U1BHVTDMD8BSDZF4ABB1PMN5M3TZ","hitId":"3QGHA0EA0JM3KKNCY0PQRLYAHJ3BWH","url":"https://gershmanlab.com/experiments/alicia/teaching/experiment/?hitId=3QGHA0EA0JM3KKNCY0PQRLYAHJ3BWH&workerId=A163XFZG5BI0XU&assignmentId=39U1BHVTDMD8BSDZF4ABB1PMN5M3TZ&a=TBU98&tp_a=TBU98&b=39U1BHVTDMD8BSDZF4ABB1PMN5M3TZ&tp_b=39U1BHVTDMD8BSDZF4ABB1PMN5M3TZ&c=365198&tp_c=365198"},{"rt":16694,"response":{"heads":"8","tails":"2"},"type":"response","condition":"nonSeqPartial","trueTheta":0.8,"classrooms":["A","B"],"studentTrueClassroom":"B","exampleSet":"first","trial_type":"survey-html-form","trial_index":28,"time_elapsed":566269,"internal_node_id":"0.0-24.0-0.0","params":{"nStudents":24,"maxFlips":30,"completionMinutes":45,"basePay":8,"maxBonus":9,"perTrialBonus":0.5,"perTrialBonusThreshold":0.1,"exampleCost":0.01},"classroomParams":{"A":{"a":1,"b":4},"B":{"a":4,"b":1},"C":{"a":2,"b":8},"D":{"a":8,"b":2}},"conditions":["nonSeqFull","nonSeqPartial","seqNoFeedback","seqFeedback"],"classroomPairings":[["A","B"],["C","D"]],"coinWeights":[0.2,0.5,0.8],"subjectId":"A163XFZG5BI0XU","assignmentId":"39U1BHVTDMD8BSDZF4ABB1PMN5M3TZ","hitId":"3QGHA0EA0JM3KKNCY0PQRLYAHJ3BWH","url":"https://gershmanlab.com/experiments/alicia/teaching/experiment/?hitId=3QGHA0EA0JM3KKNCY0PQRLYAHJ3BWH&workerId=A163XFZG5BI0XU&assignmentId=39U1BHVTDMD8BSDZF4ABB1PMN5M3TZ&a=TBU98&tp_a=TBU98&b=39U1BHVTDMD8BSDZF4ABB1PMN5M3TZ&tp_b=39U1BHVTDMD8BSDZF4ABB1PMN5M3TZ&c=365198&tp_c=365198","heads":8,"tails":2,"studentIndex":2,"studentTrueHypers":{"a":4,"b":1},"studentGuess":0.8,"delta":0,"totalExamples":10,"bonus":0.4,"bonusSoFar":0.66},{"rt":null,"stimulus":"Sending examples to student... ","response":null,"trial_type":"html-keyboard-response","trial_index":29,"time_elapsed":567771,"internal_node_id":"0.0-25.0","params":{"nStudents":24,"maxFlips":30,"completionMinutes":45,"basePay":8,"maxBonus":9,"perTrialBonus":0.5,"perTrialBonusThreshold":0.1,"exampleCost":0.01},"classroomParams":{"A":{"a":1,"b":4},"B":{"a":4,"b":1},"C":{"a":2,"b":8},"D":{"a":8,"b":2}},"conditions":["nonSeqFull","nonSeqPartial","seqNoFeedback","seqFeedback"],"classroomPairings":[["A","B"],["C","D"]],"coinWeights":[0.2,0.5,0.8],"subjectId":"A163XFZG5BI0XU","assignmentId":"39U1BHVTDMD8BSDZF4ABB1PMN5M3TZ","hitId":"3QGHA0EA0JM3KKNCY0PQRLYAHJ3BWH","url":"https://gershmanlab.com/experiments/alicia/teaching/experiment/?hitId=3QGHA0EA0JM3KKNCY0PQRLYAHJ3BWH&workerId=A163XFZG5BI0XU&assignmentId=39U1BHVTDMD8BSDZF4ABB1PMN5M3TZ&a=TBU98&tp_a=TBU98&b=39U1BHVTDMD8BSDZF4ABB1PMN5M3TZ&tp_b=39U1BHVTDMD8BSDZF4ABB1PMN5M3TZ&c=365198&tp_c=365198"},{"rt":null,"stimulus":"Examples sent to student! Waiting for student...","response":null,"trial_type":"html-keyboard-response","trial_index":30,"time_elapsed":573772,"internal_node_id":"0.0-26.0","params":{"nStudents":24,"maxFlips":30,"completionMinutes":45,"basePay":8,"maxBonus":9,"perTrialBonus":0.5,"perTrialBonusThreshold":0.1,"exampleCost":0.01},"classroomParams":{"A":{"a":1,"b":4},"B":{"a":4,"b":1},"C":{"a":2,"b":8},"D":{"a":8,"b":2}},"conditions":["nonSeqFull","nonSeqPartial","seqNoFeedback","seqFeedback"],"classroomPairings":[["A","B"],["C","D"]],"coinWeights":[0.2,0.5,0.8],"subjectId":"A163XFZG5BI0XU","assignmentId":"39U1BHVTDMD8BSDZF4ABB1PMN5M3TZ","hitId":"3QGHA0EA0JM3KKNCY0PQRLYAHJ3BWH","url":"https://gershmanlab.com/experiments/alicia/teaching/experiment/?hitId=3QGHA0EA0JM3KKNCY0PQRLYAHJ3BWH&workerId=A163XFZG5BI0XU&assignmentId=39U1BHVTDMD8BSDZF4ABB1PMN5M3TZ&a=TBU98&tp_a=TBU98&b=39U1BHVTDMD8BSDZF4ABB1PMN5M3TZ&tp_b=39U1BHVTDMD8BSDZF4ABB1PMN5M3TZ&c=365198&tp_c=365198"},{"rt":7508,"stimulus":"\n                <p>Student's guess for coin weight: <b style=\"color:Tomato;\">0.80</b></p>\n                <p>You received a bonus of <b>$0.4</b>. Total bonus so far: <b>$0.66</b></b></p>\n                <p> Press any key to continue.</p>\n                ","response":"enter","trial_type":"html-keyboard-response","trial_index":31,"time_elapsed":581281,"internal_node_id":"0.0-27.0","params":{"nStudents":24,"maxFlips":30,"completionMinutes":45,"basePay":8,"maxBonus":9,"perTrialBonus":0.5,"perTrialBonusThreshold":0.1,"exampleCost":0.01},"classroomParams":{"A":{"a":1,"b":4},"B":{"a":4,"b":1},"C":{"a":2,"b":8},"D":{"a":8,"b":2}},"conditions":["nonSeqFull","nonSeqPartial","seqNoFeedback","seqFeedback"],"classroomPairings":[["A","B"],["C","D"]],"coinWeights":[0.2,0.5,0.8],"subjectId":"A163XFZG5BI0XU","assignmentId":"39U1BHVTDMD8BSDZF4ABB1PMN5M3TZ","hitId":"3QGHA0EA0JM3KKNCY0PQRLYAHJ3BWH","url":"https://gershmanlab.com/experiments/alicia/teaching/experiment/?hitId=3QGHA0EA0JM3KKNCY0PQRLYAHJ3BWH&workerId=A163XFZG5BI0XU&assignmentId=39U1BHVTDMD8BSDZF4ABB1PMN5M3TZ&a=TBU98&tp_a=TBU98&b=39U1BHVTDMD8BSDZF4ABB1PMN5M3TZ&tp_b=39U1BHVTDMD8BSDZF4ABB1PMN5M3TZ&c=365198&tp_c=365198"},{"rt":null,"stimulus":"<div style=\"font-size:60px;\">Next student</div>","response":null,"trial_type":"html-keyboard-response","trial_index":32,"time_elapsed":584282,"internal_node_id":"0.0-28.0-0.0","params":{"nStudents":24,"maxFlips":30,"completionMinutes":45,"basePay":8,"maxBonus":9,"perTrialBonus":0.5,"perTrialBonusThreshold":0.1,"exampleCost":0.01},"classroomParams":{"A":{"a":1,"b":4},"B":{"a":4,"b":1},"C":{"a":2,"b":8},"D":{"a":8,"b":2}},"conditions":["nonSeqFull","nonSeqPartial","seqNoFeedback","seqFeedback"],"classroomPairings":[["A","B"],["C","D"]],"coinWeights":[0.2,0.5,0.8],"subjectId":"A163XFZG5BI0XU","assignmentId":"39U1BHVTDMD8BSDZF4ABB1PMN5M3TZ","hitId":"3QGHA0EA0JM3KKNCY0PQRLYAHJ3BWH","url":"https://gershmanlab.com/experiments/alicia/teaching/experiment/?hitId=3QGHA0EA0JM3KKNCY0PQRLYAHJ3BWH&workerId=A163XFZG5BI0XU&assignmentId=39U1BHVTDMD8BSDZF4ABB1PMN5M3TZ&a=TBU98&tp_a=TBU98&b=39U1BHVTDMD8BSDZF4ABB1PMN5M3TZ&tp_b=39U1BHVTDMD8BSDZF4ABB1PMN5M3TZ&c=365198&tp_c=365198"},{"rt":2589,"stimulus":"\n            <h4 style=\"color:Orange;\">Student 4</h4>\n            <h2>The weight of your coin is <b style=\"color:Tomato;\">0.8</b>.</h2>\n            <p>In this block, you will be giving <b>two</b> sets of examples to Student 4.</p>\n                <p>You will see the student's guess after the first set of examples. You will also receive feedback at the end of the block.</p>\n            ","response":0,"trial_type":"html-button-response","trial_index":33,"time_elapsed":586872,"internal_node_id":"0.0-29.0","params":{"nStudents":24,"maxFlips":30,"completionMinutes":45,"basePay":8,"maxBonus":9,"perTrialBonus":0.5,"perTrialBonusThreshold":0.1,"exampleCost":0.01},"classroomParams":{"A":{"a":1,"b":4},"B":{"a":4,"b":1},"C":{"a":2,"b":8},"D":{"a":8,"b":2}},"conditions":["nonSeqFull","nonSeqPartial","seqNoFeedback","seqFeedback"],"classroomPairings":[["A","B"],["C","D"]],"coinWeights":[0.2,0.5,0.8],"subjectId":"A163XFZG5BI0XU","assignmentId":"39U1BHVTDMD8BSDZF4ABB1PMN5M3TZ","hitId":"3QGHA0EA0JM3KKNCY0PQRLYAHJ3BWH","url":"https://gershmanlab.com/experiments/alicia/teaching/experiment/?hitId=3QGHA0EA0JM3KKNCY0PQRLYAHJ3BWH&workerId=A163XFZG5BI0XU&assignmentId=39U1BHVTDMD8BSDZF4ABB1PMN5M3TZ&a=TBU98&tp_a=TBU98&b=39U1BHVTDMD8BSDZF4ABB1PMN5M3TZ&tp_b=39U1BHVTDMD8BSDZF4ABB1PMN5M3TZ&c=365198&tp_c=365198"},{"rt":7305,"response":{"heads":"8","tails":"2"},"type":"response","condition":"seqFeedback","trueTheta":0.8,"classrooms":["A","B"],"studentTrueClassroom":"B","exampleSet":"first","trial_type":"survey-html-form","trial_index":34,"time_elapsed":594179,"internal_node_id":"0.0-30.0-0.0","params":{"nStudents":24,"maxFlips":30,"completionMinutes":45,"basePay":8,"maxBonus":9,"perTrialBonus":0.5,"perTrialBonusThreshold":0.1,"exampleCost":0.01},"classroomParams":{"A":{"a":1,"b":4},"B":{"a":4,"b":1},"C":{"a":2,"b":8},"D":{"a":8,"b":2}},"conditions":["nonSeqFull","nonSeqPartial","seqNoFeedback","seqFeedback"],"classroomPairings":[["A","B"],["C","D"]],"coinWeights":[0.2,0.5,0.8],"subjectId":"A163XFZG5BI0XU","assignmentId":"39U1BHVTDMD8BSDZF4ABB1PMN5M3TZ","hitId":"3QGHA0EA0JM3KKNCY0PQRLYAHJ3BWH","url":"https://gershmanlab.com/experiments/alicia/teaching/experiment/?hitId=3QGHA0EA0JM3KKNCY0PQRLYAHJ3BWH&workerId=A163XFZG5BI0XU&assignmentId=39U1BHVTDMD8BSDZF4ABB1PMN5M3TZ&a=TBU98&tp_a=TBU98&b=39U1BHVTDMD8BSDZF4ABB1PMN5M3TZ&tp_b=39U1BHVTDMD8BSDZF4ABB1PMN5M3TZ&c=365198&tp_c=365198","heads":8,"tails":2,"studentIndex":3,"studentTrueHypers":{"a":4,"b":1},"studentGuess":0.8,"delta":0,"totalExamples":10,"bonusSoFar":0.66},{"rt":null,"stimulus":"Sending examples to student... ","response":null,"trial_type":"html-keyboard-response","trial_index":35,"time_elapsed":596181,"internal_node_id":"0.0-31.0","params":{"nStudents":24,"maxFlips":30,"completionMinutes":45,"basePay":8,"maxBonus":9,"perTrialBonus":0.5,"perTrialBonusThreshold":0.1,"exampleCost":0.01},"classroomParams":{"A":{"a":1,"b":4},"B":{"a":4,"b":1},"C":{"a":2,"b":8},"D":{"a":8,"b":2}},"conditions":["nonSeqFull","nonSeqPartial","seqNoFeedback","seqFeedback"],"classroomPairings":[["A","B"],["C","D"]],"coinWeights":[0.2,0.5,0.8],"subjectId":"A163XFZG5BI0XU","assignmentId":"39U1BHVTDMD8BSDZF4ABB1PMN5M3TZ","hitId":"3QGHA0EA0JM3KKNCY0PQRLYAHJ3BWH","url":"https://gershmanlab.com/experiments/alicia/teaching/experiment/?hitId=3QGHA0EA0JM3KKNCY0PQRLYAHJ3BWH&workerId=A163XFZG5BI0XU&assignmentId=39U1BHVTDMD8BSDZF4ABB1PMN5M3TZ&a=TBU98&tp_a=TBU98&b=39U1BHVTDMD8BSDZF4ABB1PMN5M3TZ&tp_b=39U1BHVTDMD8BSDZF4ABB1PMN5M3TZ&c=365198&tp_c=365198"},{"rt":null,"stimulus":"Examples sent to student! Waiting for student...","response":null,"trial_type":"html-keyboard-response","trial_index":36,"time_elapsed":600182,"internal_node_id":"0.0-32.0","params":{"nStudents":24,"maxFlips":30,"completionMinutes":45,"basePay":8,"maxBonus":9,"perTrialBonus":0.5,"perTrialBonusThreshold":0.1,"exampleCost":0.01},"classroomParams":{"A":{"a":1,"b":4},"B":{"a":4,"b":1},"C":{"a":2,"b":8},"D":{"a":8,"b":2}},"conditions":["nonSeqFull","nonSeqPartial","seqNoFeedback","seqFeedback"],"classroomPairings":[["A","B"],["C","D"]],"coinWeights":[0.2,0.5,0.8],"subjectId":"A163XFZG5BI0XU","assignmentId":"39U1BHVTDMD8BSDZF4ABB1PMN5M3TZ","hitId":"3QGHA0EA0JM3KKNCY0PQRLYAHJ3BWH","url":"https://gershmanlab.com/experiments/alicia/teaching/experiment/?hitId=3QGHA0EA0JM3KKNCY0PQRLYAHJ3BWH&workerId=A163XFZG5BI0XU&assignmentId=39U1BHVTDMD8BSDZF4ABB1PMN5M3TZ&a=TBU98&tp_a=TBU98&b=39U1BHVTDMD8BSDZF4ABB1PMN5M3TZ&tp_b=39U1BHVTDMD8BSDZF4ABB1PMN5M3TZ&c=365198&tp_c=365198"},{"rt":5755,"stimulus":"\n                <p>Student's guess for coin weight: <b style=\"color:Tomato;\">0.80</b></p>\n                <p></b></p>\n                <p>You will now send another set of examples to your student. Press any key to continue.</p>\n                ","response":"enter","trial_type":"html-keyboard-response","trial_index":37,"time_elapsed":605939,"internal_node_id":"0.0-33.0","params":{"nStudents":24,"maxFlips":30,"completionMinutes":45,"basePay":8,"maxBonus":9,"perTrialBonus":0.5,"perTrialBonusThreshold":0.1,"exampleCost":0.01},"classroomParams":{"A":{"a":1,"b":4},"B":{"a":4,"b":1},"C":{"a":2,"b":8},"D":{"a":8,"b":2}},"conditions":["nonSeqFull","nonSeqPartial","seqNoFeedback","seqFeedback"],"classroomPairings":[["A","B"],["C","D"]],"coinWeights":[0.2,0.5,0.8],"subjectId":"A163XFZG5BI0XU","assignmentId":"39U1BHVTDMD8BSDZF4ABB1PMN5M3TZ","hitId":"3QGHA0EA0JM3KKNCY0PQRLYAHJ3BWH","url":"https://gershmanlab.com/experiments/alicia/teaching/experiment/?hitId=3QGHA0EA0JM3KKNCY0PQRLYAHJ3BWH&workerId=A163XFZG5BI0XU&assignmentId=39U1BHVTDMD8BSDZF4ABB1PMN5M3TZ&a=TBU98&tp_a=TBU98&b=39U1BHVTDMD8BSDZF4ABB1PMN5M3TZ&tp_b=39U1BHVTDMD8BSDZF4ABB1PMN5M3TZ&c=365198&tp_c=365198"},{"rt":7653,"response":{"heads":"8","tails":"2"},"type":"response","condition":"seqFeedback","trueTheta":0.8,"classrooms":["A","B"],"studentTrueClassroom":"B","exampleSet":"second","trial_type":"survey-html-form","trial_index":38,"time_elapsed":613593,"internal_node_id":"0.0-34.0-0.0","params":{"nStudents":24,"maxFlips":30,"completionMinutes":45,"basePay":8,"maxBonus":9,"perTrialBonus":0.5,"perTrialBonusThreshold":0.1,"exampleCost":0.01},"classroomParams":{"A":{"a":1,"b":4},"B":{"a":4,"b":1},"C":{"a":2,"b":8},"D":{"a":8,"b":2}},"conditions":["nonSeqFull","nonSeqPartial","seqNoFeedback","seqFeedback"],"classroomPairings":[["A","B"],["C","D"]],"coinWeights":[0.2,0.5,0.8],"subjectId":"A163XFZG5BI0XU","assignmentId":"39U1BHVTDMD8BSDZF4ABB1PMN5M3TZ","hitId":"3QGHA0EA0JM3KKNCY0PQRLYAHJ3BWH","url":"https://gershmanlab.com/experiments/alicia/teaching/experiment/?hitId=3QGHA0EA0JM3KKNCY0PQRLYAHJ3BWH&workerId=A163XFZG5BI0XU&assignmentId=39U1BHVTDMD8BSDZF4ABB1PMN5M3TZ&a=TBU98&tp_a=TBU98&b=39U1BHVTDMD8BSDZF4ABB1PMN5M3TZ&tp_b=39U1BHVTDMD8BSDZF4ABB1PMN5M3TZ&c=365198&tp_c=365198","firstResponseHeads":8,"firstResponseTails":2,"secondResponseHeads":8,"secondResponseTails":2,"studentIndex":3,"studentTrueHypers":{"a":4,"b":1},"studentGuess":0.8,"delta":0,"bonus":0.3,"bonusSoFar":0.96,"totalExamples":20},{"rt":null,"stimulus":"Sending examples to student... ","response":null,"trial_type":"html-keyboard-response","trial_index":39,"time_elapsed":615095,"internal_node_id":"0.0-35.0","params":{"nStudents":24,"maxFlips":30,"completionMinutes":45,"basePay":8,"maxBonus":9,"perTrialBonus":0.5,"perTrialBonusThreshold":0.1,"exampleCost":0.01},"classroomParams":{"A":{"a":1,"b":4},"B":{"a":4,"b":1},"C":{"a":2,"b":8},"D":{"a":8,"b":2}},"conditions":["nonSeqFull","nonSeqPartial","seqNoFeedback","seqFeedback"],"classroomPairings":[["A","B"],["C","D"]],"coinWeights":[0.2,0.5,0.8],"subjectId":"A163XFZG5BI0XU","assignmentId":"39U1BHVTDMD8BSDZF4ABB1PMN5M3TZ","hitId":"3QGHA0EA0JM3KKNCY0PQRLYAHJ3BWH","url":"https://gershmanlab.com/experiments/alicia/teaching/experiment/?hitId=3QGHA0EA0JM3KKNCY0PQRLYAHJ3BWH&workerId=A163XFZG5BI0XU&assignmentId=39U1BHVTDMD8BSDZF4ABB1PMN5M3TZ&a=TBU98&tp_a=TBU98&b=39U1BHVTDMD8BSDZF4ABB1PMN5M3TZ&tp_b=39U1BHVTDMD8BSDZF4ABB1PMN5M3TZ&c=365198&tp_c=365198"},{"rt":null,"stimulus":"Examples sent to student! Waiting for student...","response":null,"trial_type":"html-keyboard-response","trial_index":40,"time_elapsed":619095,"internal_node_id":"0.0-36.0","params":{"nStudents":24,"maxFlips":30,"completionMinutes":45,"basePay":8,"maxBonus":9,"perTrialBonus":0.5,"perTrialBonusThreshold":0.1,"exampleCost":0.01},"classroomParams":{"A":{"a":1,"b":4},"B":{"a":4,"b":1},"C":{"a":2,"b":8},"D":{"a":8,"b":2}},"conditions":["nonSeqFull","nonSeqPartial","seqNoFeedback","seqFeedback"],"classroomPairings":[["A","B"],["C","D"]],"coinWeights":[0.2,0.5,0.8],"subjectId":"A163XFZG5BI0XU","assignmentId":"39U1BHVTDMD8BSDZF4ABB1PMN5M3TZ","hitId":"3QGHA0EA0JM3KKNCY0PQRLYAHJ3BWH","url":"https://gershmanlab.com/experiments/alicia/teaching/experiment/?hitId=3QGHA0EA0JM3KKNCY0PQRLYAHJ3BWH&workerId=A163XFZG5BI0XU&assignmentId=39U1BHVTDMD8BSDZF4ABB1PMN5M3TZ&a=TBU98&tp_a=TBU98&b=39U1BHVTDMD8BSDZF4ABB1PMN5M3TZ&tp_b=39U1BHVTDMD8BSDZF4ABB1PMN5M3TZ&c=365198&tp_c=365198"},{"rt":16814,"stimulus":"\n                <p>Student 4's first guess for coin weight: <b style=\"color:Tomato\";>0.80</b></p>\n                <p>Student 4's second guess for coin weight: <b style=\"color:Tomato\";>0.80</b></p>\n                <p>You received a bonus of <b>$0.30</b> based on the student's second guess.</p>\n                <p>Total bonus so far: <b>$0.96</b></p>\n                <p>Press any key to continue.</p>\n                ","response":"enter","trial_type":"html-keyboard-response","trial_index":41,"time_elapsed":635910,"internal_node_id":"0.0-37.0","params":{"nStudents":24,"maxFlips":30,"completionMinutes":45,"basePay":8,"maxBonus":9,"perTrialBonus":0.5,"perTrialBonusThreshold":0.1,"exampleCost":0.01},"classroomParams":{"A":{"a":1,"b":4},"B":{"a":4,"b":1},"C":{"a":2,"b":8},"D":{"a":8,"b":2}},"conditions":["nonSeqFull","nonSeqPartial","seqNoFeedback","seqFeedback"],"classroomPairings":[["A","B"],["C","D"]],"coinWeights":[0.2,0.5,0.8],"subjectId":"A163XFZG5BI0XU","assignmentId":"39U1BHVTDMD8BSDZF4ABB1PMN5M3TZ","hitId":"3QGHA0EA0JM3KKNCY0PQRLYAHJ3BWH","url":"https://gershmanlab.com/experiments/alicia/teaching/experiment/?hitId=3QGHA0EA0JM3KKNCY0PQRLYAHJ3BWH&workerId=A163XFZG5BI0XU&assignmentId=39U1BHVTDMD8BSDZF4ABB1PMN5M3TZ&a=TBU98&tp_a=TBU98&b=39U1BHVTDMD8BSDZF4ABB1PMN5M3TZ&tp_b=39U1BHVTDMD8BSDZF4ABB1PMN5M3TZ&c=365198&tp_c=365198"},{"rt":null,"stimulus":"<div style=\"font-size:60px;\">Next student</div>","response":null,"trial_type":"html-keyboard-response","trial_index":42,"time_elapsed":638912,"internal_node_id":"0.0-38.0-0.0","params":{"nStudents":24,"maxFlips":30,"completionMinutes":45,"basePay":8,"maxBonus":9,"perTrialBonus":0.5,"perTrialBonusThreshold":0.1,"exampleCost":0.01},"classroomParams":{"A":{"a":1,"b":4},"B":{"a":4,"b":1},"C":{"a":2,"b":8},"D":{"a":8,"b":2}},"conditions":["nonSeqFull","nonSeqPartial","seqNoFeedback","seqFeedback"],"classroomPairings":[["A","B"],["C","D"]],"coinWeights":[0.2,0.5,0.8],"subjectId":"A163XFZG5BI0XU","assignmentId":"39U1BHVTDMD8BSDZF4ABB1PMN5M3TZ","hitId":"3QGHA0EA0JM3KKNCY0PQRLYAHJ3BWH","url":"https://gershmanlab.com/experiments/alicia/teaching/experiment/?hitId=3QGHA0EA0JM3KKNCY0PQRLYAHJ3BWH&workerId=A163XFZG5BI0XU&assignmentId=39U1BHVTDMD8BSDZF4ABB1PMN5M3TZ&a=TBU98&tp_a=TBU98&b=39U1BHVTDMD8BSDZF4ABB1PMN5M3TZ&tp_b=39U1BHVTDMD8BSDZF4ABB1PMN5M3TZ&c=365198&tp_c=365198"},{"rt":2756,"stimulus":"\n            <h4 style=\"color:Orange;\">Student 5</h4>\n            <h2>The weight of your coin is <b style=\"color:Tomato;\">0.5</b>.</h2>\n            <p>In this block, you will be giving <b>two</b> sets of examples to Student 5.</p>\n                <p>You will see the student's guess after the first set of examples. You will also receive feedback at the end of the block.</p>\n            ","response":0,"trial_type":"html-button-response","trial_index":43,"time_elapsed":641669,"internal_node_id":"0.0-39.0","params":{"nStudents":24,"maxFlips":30,"completionMinutes":45,"basePay":8,"maxBonus":9,"perTrialBonus":0.5,"perTrialBonusThreshold":0.1,"exampleCost":0.01},"classroomParams":{"A":{"a":1,"b":4},"B":{"a":4,"b":1},"C":{"a":2,"b":8},"D":{"a":8,"b":2}},"conditions":["nonSeqFull","nonSeqPartial","seqNoFeedback","seqFeedback"],"classroomPairings":[["A","B"],["C","D"]],"coinWeights":[0.2,0.5,0.8],"subjectId":"A163XFZG5BI0XU","assignmentId":"39U1BHVTDMD8BSDZF4ABB1PMN5M3TZ","hitId":"3QGHA0EA0JM3KKNCY0PQRLYAHJ3BWH","url":"https://gershmanlab.com/experiments/alicia/teaching/experiment/?hitId=3QGHA0EA0JM3KKNCY0PQRLYAHJ3BWH&workerId=A163XFZG5BI0XU&assignmentId=39U1BHVTDMD8BSDZF4ABB1PMN5M3TZ&a=TBU98&tp_a=TBU98&b=39U1BHVTDMD8BSDZF4ABB1PMN5M3TZ&tp_b=39U1BHVTDMD8BSDZF4ABB1PMN5M3TZ&c=365198&tp_c=365198"},{"rt":5122,"response":{"heads":"5","tails":"5"},"type":"response","condition":"seqFeedback","trueTheta":0.5,"classrooms":["C","D"],"studentTrueClassroom":"D","exampleSet":"first","trial_type":"survey-html-form","trial_index":44,"time_elapsed":646792,"internal_node_id":"0.0-40.0-0.0","params":{"nStudents":24,"maxFlips":30,"completionMinutes":45,"basePay":8,"maxBonus":9,"perTrialBonus":0.5,"perTrialBonusThreshold":0.1,"exampleCost":0.01},"classroomParams":{"A":{"a":1,"b":4},"B":{"a":4,"b":1},"C":{"a":2,"b":8},"D":{"a":8,"b":2}},"conditions":["nonSeqFull","nonSeqPartial","seqNoFeedback","seqFeedback"],"classroomPairings":[["A","B"],["C","D"]],"coinWeights":[0.2,0.5,0.8],"subjectId":"A163XFZG5BI0XU","assignmentId":"39U1BHVTDMD8BSDZF4ABB1PMN5M3TZ","hitId":"3QGHA0EA0JM3KKNCY0PQRLYAHJ3BWH","url":"https://gershmanlab.com/experiments/alicia/teaching/experiment/?hitId=3QGHA0EA0JM3KKNCY0PQRLYAHJ3BWH&workerId=A163XFZG5BI0XU&assignmentId=39U1BHVTDMD8BSDZF4ABB1PMN5M3TZ&a=TBU98&tp_a=TBU98&b=39U1BHVTDMD8BSDZF4ABB1PMN5M3TZ&tp_b=39U1BHVTDMD8BSDZF4ABB1PMN5M3TZ&c=365198&tp_c=365198","heads":5,"tails":5,"studentIndex":4,"studentTrueHypers":{"a":8,"b":2},"studentGuess":0.65,"delta":0.15000000000000002,"totalExamples":10,"bonusSoFar":0.96},{"rt":null,"stimulus":"Sending examples to student... ","response":null,"trial_type":"html-keyboard-response","trial_index":45,"time_elapsed":648294,"internal_node_id":"0.0-41.0","params":{"nStudents":24,"maxFlips":30,"completionMinutes":45,"basePay":8,"maxBonus":9,"perTrialBonus":0.5,"perTrialBonusThreshold":0.1,"exampleCost":0.01},"classroomParams":{"A":{"a":1,"b":4},"B":{"a":4,"b":1},"C":{"a":2,"b":8},"D":{"a":8,"b":2}},"conditions":["nonSeqFull","nonSeqPartial","seqNoFeedback","seqFeedback"],"classroomPairings":[["A","B"],["C","D"]],"coinWeights":[0.2,0.5,0.8],"subjectId":"A163XFZG5BI0XU","assignmentId":"39U1BHVTDMD8BSDZF4ABB1PMN5M3TZ","hitId":"3QGHA0EA0JM3KKNCY0PQRLYAHJ3BWH","url":"https://gershmanlab.com/experiments/alicia/teaching/experiment/?hitId=3QGHA0EA0JM3KKNCY0PQRLYAHJ3BWH&workerId=A163XFZG5BI0XU&assignmentId=39U1BHVTDMD8BSDZF4ABB1PMN5M3TZ&a=TBU98&tp_a=TBU98&b=39U1BHVTDMD8BSDZF4ABB1PMN5M3TZ&tp_b=39U1BHVTDMD8BSDZF4ABB1PMN5M3TZ&c=365198&tp_c=365198"},{"rt":null,"stimulus":"Examples sent to student! Waiting for student...","response":null,"trial_type":"html-keyboard-response","trial_index":46,"time_elapsed":653795,"internal_node_id":"0.0-42.0","params":{"nStudents":24,"maxFlips":30,"completionMinutes":45,"basePay":8,"maxBonus":9,"perTrialBonus":0.5,"perTrialBonusThreshold":0.1,"exampleCost":0.01},"classroomParams":{"A":{"a":1,"b":4},"B":{"a":4,"b":1},"C":{"a":2,"b":8},"D":{"a":8,"b":2}},"conditions":["nonSeqFull","nonSeqPartial","seqNoFeedback","seqFeedback"],"classroomPairings":[["A","B"],["C","D"]],"coinWeights":[0.2,0.5,0.8],"subjectId":"A163XFZG5BI0XU","assignmentId":"39U1BHVTDMD8BSDZF4ABB1PMN5M3TZ","hitId":"3QGHA0EA0JM3KKNCY0PQRLYAHJ3BWH","url":"https://gershmanlab.com/experiments/alicia/teaching/experiment/?hitId=3QGHA0EA0JM3KKNCY0PQRLYAHJ3BWH&workerId=A163XFZG5BI0XU&assignmentId=39U1BHVTDMD8BSDZF4ABB1PMN5M3TZ&a=TBU98&tp_a=TBU98&b=39U1BHVTDMD8BSDZF4ABB1PMN5M3TZ&tp_b=39U1BHVTDMD8BSDZF4ABB1PMN5M3TZ&c=365198&tp_c=365198"},{"rt":10936,"stimulus":"\n                <p>Student's guess for coin weight: <b style=\"color:Tomato;\">0.65</b></p>\n                <p></b></p>\n                <p>You will now send another set of examples to your student. Press any key to continue.</p>\n                ","response":"enter","trial_type":"html-keyboard-response","trial_index":47,"time_elapsed":664734,"internal_node_id":"0.0-43.0","params":{"nStudents":24,"maxFlips":30,"completionMinutes":45,"basePay":8,"maxBonus":9,"perTrialBonus":0.5,"perTrialBonusThreshold":0.1,"exampleCost":0.01},"classroomParams":{"A":{"a":1,"b":4},"B":{"a":4,"b":1},"C":{"a":2,"b":8},"D":{"a":8,"b":2}},"conditions":["nonSeqFull","nonSeqPartial","seqNoFeedback","seqFeedback"],"classroomPairings":[["A","B"],["C","D"]],"coinWeights":[0.2,0.5,0.8],"subjectId":"A163XFZG5BI0XU","assignmentId":"39U1BHVTDMD8BSDZF4ABB1PMN5M3TZ","hitId":"3QGHA0EA0JM3KKNCY0PQRLYAHJ3BWH","url":"https://gershmanlab.com/experiments/alicia/teaching/experiment/?hitId=3QGHA0EA0JM3KKNCY0PQRLYAHJ3BWH&workerId=A163XFZG5BI0XU&assignmentId=39U1BHVTDMD8BSDZF4ABB1PMN5M3TZ&a=TBU98&tp_a=TBU98&b=39U1BHVTDMD8BSDZF4ABB1PMN5M3TZ&tp_b=39U1BHVTDMD8BSDZF4ABB1PMN5M3TZ&c=365198&tp_c=365198"},{"rt":12393,"response":{"heads":"4","tails":"5"},"type":"response","condition":"seqFeedback","trueTheta":0.5,"classrooms":["C","D"],"studentTrueClassroom":"D","exampleSet":"second","trial_type":"survey-html-form","trial_index":48,"time_elapsed":677128,"internal_node_id":"0.0-44.0-0.0","params":{"nStudents":24,"maxFlips":30,"completionMinutes":45,"basePay":8,"maxBonus":9,"perTrialBonus":0.5,"perTrialBonusThreshold":0.1,"exampleCost":0.01},"classroomParams":{"A":{"a":1,"b":4},"B":{"a":4,"b":1},"C":{"a":2,"b":8},"D":{"a":8,"b":2}},"conditions":["nonSeqFull","nonSeqPartial","seqNoFeedback","seqFeedback"],"classroomPairings":[["A","B"],["C","D"]],"coinWeights":[0.2,0.5,0.8],"subjectId":"A163XFZG5BI0XU","assignmentId":"39U1BHVTDMD8BSDZF4ABB1PMN5M3TZ","hitId":"3QGHA0EA0JM3KKNCY0PQRLYAHJ3BWH","url":"https://gershmanlab.com/experiments/alicia/teaching/experiment/?hitId=3QGHA0EA0JM3KKNCY0PQRLYAHJ3BWH&workerId=A163XFZG5BI0XU&assignmentId=39U1BHVTDMD8BSDZF4ABB1PMN5M3TZ&a=TBU98&tp_a=TBU98&b=39U1BHVTDMD8BSDZF4ABB1PMN5M3TZ&tp_b=39U1BHVTDMD8BSDZF4ABB1PMN5M3TZ&c=365198&tp_c=365198","firstResponseHeads":5,"firstResponseTails":5,"secondResponseHeads":4,"secondResponseTails":5,"studentIndex":4,"studentTrueHypers":{"a":8,"b":2},"studentGuess":0.5862068965517241,"delta":0.08620689655172409,"bonus":0.31,"bonusSoFar":1.27,"totalExamples":19},{"rt":null,"stimulus":"Sending examples to student... ","response":null,"trial_type":"html-keyboard-response","trial_index":49,"time_elapsed":678630,"internal_node_id":"0.0-45.0","params":{"nStudents":24,"maxFlips":30,"completionMinutes":45,"basePay":8,"maxBonus":9,"perTrialBonus":0.5,"perTrialBonusThreshold":0.1,"exampleCost":0.01},"classroomParams":{"A":{"a":1,"b":4},"B":{"a":4,"b":1},"C":{"a":2,"b":8},"D":{"a":8,"b":2}},"conditions":["nonSeqFull","nonSeqPartial","seqNoFeedback","seqFeedback"],"classroomPairings":[["A","B"],["C","D"]],"coinWeights":[0.2,0.5,0.8],"subjectId":"A163XFZG5BI0XU","assignmentId":"39U1BHVTDMD8BSDZF4ABB1PMN5M3TZ","hitId":"3QGHA0EA0JM3KKNCY0PQRLYAHJ3BWH","url":"https://gershmanlab.com/experiments/alicia/teaching/experiment/?hitId=3QGHA0EA0JM3KKNCY0PQRLYAHJ3BWH&workerId=A163XFZG5BI0XU&assignmentId=39U1BHVTDMD8BSDZF4ABB1PMN5M3TZ&a=TBU98&tp_a=TBU98&b=39U1BHVTDMD8BSDZF4ABB1PMN5M3TZ&tp_b=39U1BHVTDMD8BSDZF4ABB1PMN5M3TZ&c=365198&tp_c=365198"},{"rt":null,"stimulus":"Examples sent to student! Waiting for student...","response":null,"trial_type":"html-keyboard-response","trial_index":50,"time_elapsed":684132,"internal_node_id":"0.0-46.0","params":{"nStudents":24,"maxFlips":30,"completionMinutes":45,"basePay":8,"maxBonus":9,"perTrialBonus":0.5,"perTrialBonusThreshold":0.1,"exampleCost":0.01},"classroomParams":{"A":{"a":1,"b":4},"B":{"a":4,"b":1},"C":{"a":2,"b":8},"D":{"a":8,"b":2}},"conditions":["nonSeqFull","nonSeqPartial","seqNoFeedback","seqFeedback"],"classroomPairings":[["A","B"],["C","D"]],"coinWeights":[0.2,0.5,0.8],"subjectId":"A163XFZG5BI0XU","assignmentId":"39U1BHVTDMD8BSDZF4ABB1PMN5M3TZ","hitId":"3QGHA0EA0JM3KKNCY0PQRLYAHJ3BWH","url":"https://gershmanlab.com/experiments/alicia/teaching/experiment/?hitId=3QGHA0EA0JM3KKNCY0PQRLYAHJ3BWH&workerId=A163XFZG5BI0XU&assignmentId=39U1BHVTDMD8BSDZF4ABB1PMN5M3TZ&a=TBU98&tp_a=TBU98&b=39U1BHVTDMD8BSDZF4ABB1PMN5M3TZ&tp_b=39U1BHVTDMD8BSDZF4ABB1PMN5M3TZ&c=365198&tp_c=365198"},{"rt":6001,"stimulus":"\n                <p>Student 5's first guess for coin weight: <b style=\"color:Tomato\";>0.65</b></p>\n                <p>Student 5's second guess for coin weight: <b style=\"color:Tomato\";>0.59</b></p>\n                <p>You received a bonus of <b>$0.31</b> based on the student's second guess.</p>\n                <p>Total bonus so far: <b>$1.27</b></p>\n                <p>Press any key to continue.</p>\n                ","response":" ","trial_type":"html-keyboard-response","trial_index":51,"time_elapsed":690133,"internal_node_id":"0.0-47.0","params":{"nStudents":24,"maxFlips":30,"completionMinutes":45,"basePay":8,"maxBonus":9,"perTrialBonus":0.5,"perTrialBonusThreshold":0.1,"exampleCost":0.01},"classroomParams":{"A":{"a":1,"b":4},"B":{"a":4,"b":1},"C":{"a":2,"b":8},"D":{"a":8,"b":2}},"conditions":["nonSeqFull","nonSeqPartial","seqNoFeedback","seqFeedback"],"classroomPairings":[["A","B"],["C","D"]],"coinWeights":[0.2,0.5,0.8],"subjectId":"A163XFZG5BI0XU","assignmentId":"39U1BHVTDMD8BSDZF4ABB1PMN5M3TZ","hitId":"3QGHA0EA0JM3KKNCY0PQRLYAHJ3BWH","url":"https://gershmanlab.com/experiments/alicia/teaching/experiment/?hitId=3QGHA0EA0JM3KKNCY0PQRLYAHJ3BWH&workerId=A163XFZG5BI0XU&assignmentId=39U1BHVTDMD8BSDZF4ABB1PMN5M3TZ&a=TBU98&tp_a=TBU98&b=39U1BHVTDMD8BSDZF4ABB1PMN5M3TZ&tp_b=39U1BHVTDMD8BSDZF4ABB1PMN5M3TZ&c=365198&tp_c=365198"},{"rt":null,"stimulus":"<div style=\"font-size:60px;\">Next student</div>","response":null,"trial_type":"html-keyboard-response","trial_index":52,"time_elapsed":692134,"internal_node_id":"0.0-48.0-0.0","params":{"nStudents":24,"maxFlips":30,"completionMinutes":45,"basePay":8,"maxBonus":9,"perTrialBonus":0.5,"perTrialBonusThreshold":0.1,"exampleCost":0.01},"classroomParams":{"A":{"a":1,"b":4},"B":{"a":4,"b":1},"C":{"a":2,"b":8},"D":{"a":8,"b":2}},"conditions":["nonSeqFull","nonSeqPartial","seqNoFeedback","seqFeedback"],"classroomPairings":[["A","B"],["C","D"]],"coinWeights":[0.2,0.5,0.8],"subjectId":"A163XFZG5BI0XU","assignmentId":"39U1BHVTDMD8BSDZF4ABB1PMN5M3TZ","hitId":"3QGHA0EA0JM3KKNCY0PQRLYAHJ3BWH","url":"https://gershmanlab.com/experiments/alicia/teaching/experiment/?hitId=3QGHA0EA0JM3KKNCY0PQRLYAHJ3BWH&workerId=A163XFZG5BI0XU&assignmentId=39U1BHVTDMD8BSDZF4ABB1PMN5M3TZ&a=TBU98&tp_a=TBU98&b=39U1BHVTDMD8BSDZF4ABB1PMN5M3TZ&tp_b=39U1BHVTDMD8BSDZF4ABB1PMN5M3TZ&c=365198&tp_c=365198"},{"rt":5731,"stimulus":"\n            <h4 style=\"color:Orange;\">Student 6</h4>\n            <h2>The weight of your coin is <b style=\"color:Tomato;\">0.8</b>.</h2>\n            <p>In this block, you will be giving <b>one</b> set of examples to Student 6.</p>\n                <p>You will receive feedback at the end of the block.</p>\n            ","response":0,"trial_type":"html-button-response","trial_index":53,"time_elapsed":697866,"internal_node_id":"0.0-49.0","params":{"nStudents":24,"maxFlips":30,"completionMinutes":45,"basePay":8,"maxBonus":9,"perTrialBonus":0.5,"perTrialBonusThreshold":0.1,"exampleCost":0.01},"classroomParams":{"A":{"a":1,"b":4},"B":{"a":4,"b":1},"C":{"a":2,"b":8},"D":{"a":8,"b":2}},"conditions":["nonSeqFull","nonSeqPartial","seqNoFeedback","seqFeedback"],"classroomPairings":[["A","B"],["C","D"]],"coinWeights":[0.2,0.5,0.8],"subjectId":"A163XFZG5BI0XU","assignmentId":"39U1BHVTDMD8BSDZF4ABB1PMN5M3TZ","hitId":"3QGHA0EA0JM3KKNCY0PQRLYAHJ3BWH","url":"https://gershmanlab.com/experiments/alicia/teaching/experiment/?hitId=3QGHA0EA0JM3KKNCY0PQRLYAHJ3BWH&workerId=A163XFZG5BI0XU&assignmentId=39U1BHVTDMD8BSDZF4ABB1PMN5M3TZ&a=TBU98&tp_a=TBU98&b=39U1BHVTDMD8BSDZF4ABB1PMN5M3TZ&tp_b=39U1BHVTDMD8BSDZF4ABB1PMN5M3TZ&c=365198&tp_c=365198"},{"rt":4649,"response":{"heads":"8","tails":"2"},"type":"response","condition":"nonSeqPartial","trueTheta":0.8,"classrooms":["C","D"],"studentTrueClassroom":"D","exampleSet":"first","trial_type":"survey-html-form","trial_index":54,"time_elapsed":702516,"internal_node_id":"0.0-50.0-0.0","params":{"nStudents":24,"maxFlips":30,"completionMinutes":45,"basePay":8,"maxBonus":9,"perTrialBonus":0.5,"perTrialBonusThreshold":0.1,"exampleCost":0.01},"classroomParams":{"A":{"a":1,"b":4},"B":{"a":4,"b":1},"C":{"a":2,"b":8},"D":{"a":8,"b":2}},"conditions":["nonSeqFull","nonSeqPartial","seqNoFeedback","seqFeedback"],"classroomPairings":[["A","B"],["C","D"]],"coinWeights":[0.2,0.5,0.8],"subjectId":"A163XFZG5BI0XU","assignmentId":"39U1BHVTDMD8BSDZF4ABB1PMN5M3TZ","hitId":"3QGHA0EA0JM3KKNCY0PQRLYAHJ3BWH","url":"https://gershmanlab.com/experiments/alicia/teaching/experiment/?hitId=3QGHA0EA0JM3KKNCY0PQRLYAHJ3BWH&workerId=A163XFZG5BI0XU&assignmentId=39U1BHVTDMD8BSDZF4ABB1PMN5M3TZ&a=TBU98&tp_a=TBU98&b=39U1BHVTDMD8BSDZF4ABB1PMN5M3TZ&tp_b=39U1BHVTDMD8BSDZF4ABB1PMN5M3TZ&c=365198&tp_c=365198","heads":8,"tails":2,"studentIndex":5,"studentTrueHypers":{"a":8,"b":2},"studentGuess":0.8,"delta":0,"totalExamples":10,"bonus":0.4,"bonusSoFar":1.67},{"rt":null,"stimulus":"Sending examples to student... ","response":null,"trial_type":"html-keyboard-response","trial_index":55,"time_elapsed":704267,"internal_node_id":"0.0-51.0","params":{"nStudents":24,"maxFlips":30,"completionMinutes":45,"basePay":8,"maxBonus":9,"perTrialBonus":0.5,"perTrialBonusThreshold":0.1,"exampleCost":0.01},"classroomParams":{"A":{"a":1,"b":4},"B":{"a":4,"b":1},"C":{"a":2,"b":8},"D":{"a":8,"b":2}},"conditions":["nonSeqFull","nonSeqPartial","seqNoFeedback","seqFeedback"],"classroomPairings":[["A","B"],["C","D"]],"coinWeights":[0.2,0.5,0.8],"subjectId":"A163XFZG5BI0XU","assignmentId":"39U1BHVTDMD8BSDZF4ABB1PMN5M3TZ","hitId":"3QGHA0EA0JM3KKNCY0PQRLYAHJ3BWH","url":"https://gershmanlab.com/experiments/alicia/teaching/experiment/?hitId=3QGHA0EA0JM3KKNCY0PQRLYAHJ3BWH&workerId=A163XFZG5BI0XU&assignmentId=39U1BHVTDMD8BSDZF4ABB1PMN5M3TZ&a=TBU98&tp_a=TBU98&b=39U1BHVTDMD8BSDZF4ABB1PMN5M3TZ&tp_b=39U1BHVTDMD8BSDZF4ABB1PMN5M3TZ&c=365198&tp_c=365198"},{"rt":null,"stimulus":"Examples sent to student! Waiting for student...","response":null,"trial_type":"html-keyboard-response","trial_index":56,"time_elapsed":708769,"internal_node_id":"0.0-52.0","params":{"nStudents":24,"maxFlips":30,"completionMinutes":45,"basePay":8,"maxBonus":9,"perTrialBonus":0.5,"perTrialBonusThreshold":0.1,"exampleCost":0.01},"classroomParams":{"A":{"a":1,"b":4},"B":{"a":4,"b":1},"C":{"a":2,"b":8},"D":{"a":8,"b":2}},"conditions":["nonSeqFull","nonSeqPartial","seqNoFeedback","seqFeedback"],"classroomPairings":[["A","B"],["C","D"]],"coinWeights":[0.2,0.5,0.8],"subjectId":"A163XFZG5BI0XU","assignmentId":"39U1BHVTDMD8BSDZF4ABB1PMN5M3TZ","hitId":"3QGHA0EA0JM3KKNCY0PQRLYAHJ3BWH","url":"https://gershmanlab.com/experiments/alicia/teaching/experiment/?hitId=3QGHA0EA0JM3KKNCY0PQRLYAHJ3BWH&workerId=A163XFZG5BI0XU&assignmentId=39U1BHVTDMD8BSDZF4ABB1PMN5M3TZ&a=TBU98&tp_a=TBU98&b=39U1BHVTDMD8BSDZF4ABB1PMN5M3TZ&tp_b=39U1BHVTDMD8BSDZF4ABB1PMN5M3TZ&c=365198&tp_c=365198"},{"rt":2773,"stimulus":"\n                <p>Student's guess for coin weight: <b style=\"color:Tomato;\">0.80</b></p>\n                <p>You received a bonus of <b>$0.4</b>. Total bonus so far: <b>$1.67</b></b></p>\n                <p> Press any key to continue.</p>\n                ","response":"enter","trial_type":"html-keyboard-response","trial_index":57,"time_elapsed":711543,"internal_node_id":"0.0-53.0","params":{"nStudents":24,"maxFlips":30,"completionMinutes":45,"basePay":8,"maxBonus":9,"perTrialBonus":0.5,"perTrialBonusThreshold":0.1,"exampleCost":0.01},"classroomParams":{"A":{"a":1,"b":4},"B":{"a":4,"b":1},"C":{"a":2,"b":8},"D":{"a":8,"b":2}},"conditions":["nonSeqFull","nonSeqPartial","seqNoFeedback","seqFeedback"],"classroomPairings":[["A","B"],["C","D"]],"coinWeights":[0.2,0.5,0.8],"subjectId":"A163XFZG5BI0XU","assignmentId":"39U1BHVTDMD8BSDZF4ABB1PMN5M3TZ","hitId":"3QGHA0EA0JM3KKNCY0PQRLYAHJ3BWH","url":"https://gershmanlab.com/experiments/alicia/teaching/experiment/?hitId=3QGHA0EA0JM3KKNCY0PQRLYAHJ3BWH&workerId=A163XFZG5BI0XU&assignmentId=39U1BHVTDMD8BSDZF4ABB1PMN5M3TZ&a=TBU98&tp_a=TBU98&b=39U1BHVTDMD8BSDZF4ABB1PMN5M3TZ&tp_b=39U1BHVTDMD8BSDZF4ABB1PMN5M3TZ&c=365198&tp_c=365198"},{"rt":null,"stimulus":"<div style=\"font-size:60px;\">Next student</div>","response":null,"trial_type":"html-keyboard-response","trial_index":58,"time_elapsed":713795,"internal_node_id":"0.0-54.0-0.0","params":{"nStudents":24,"maxFlips":30,"completionMinutes":45,"basePay":8,"maxBonus":9,"perTrialBonus":0.5,"perTrialBonusThreshold":0.1,"exampleCost":0.01},"classroomParams":{"A":{"a":1,"b":4},"B":{"a":4,"b":1},"C":{"a":2,"b":8},"D":{"a":8,"b":2}},"conditions":["nonSeqFull","nonSeqPartial","seqNoFeedback","seqFeedback"],"classroomPairings":[["A","B"],["C","D"]],"coinWeights":[0.2,0.5,0.8],"subjectId":"A163XFZG5BI0XU","assignmentId":"39U1BHVTDMD8BSDZF4ABB1PMN5M3TZ","hitId":"3QGHA0EA0JM3KKNCY0PQRLYAHJ3BWH","url":"https://gershmanlab.com/experiments/alicia/teaching/experiment/?hitId=3QGHA0EA0JM3KKNCY0PQRLYAHJ3BWH&workerId=A163XFZG5BI0XU&assignmentId=39U1BHVTDMD8BSDZF4ABB1PMN5M3TZ&a=TBU98&tp_a=TBU98&b=39U1BHVTDMD8BSDZF4ABB1PMN5M3TZ&tp_b=39U1BHVTDMD8BSDZF4ABB1PMN5M3TZ&c=365198&tp_c=365198"},{"rt":4337,"stimulus":"\n            <h4 style=\"color:Orange;\">Student 7</h4>\n            <h2>The weight of your coin is <b style=\"color:Tomato;\">0.5</b>.</h2>\n            <p>In this block, you will be giving <b>one</b> set of examples to Student 7.</p>\n                <p>You will receive feedback at the end of the block.</p>\n            ","response":0,"trial_type":"html-button-response","trial_index":59,"time_elapsed":718133,"internal_node_id":"0.0-55.0","params":{"nStudents":24,"maxFlips":30,"completionMinutes":45,"basePay":8,"maxBonus":9,"perTrialBonus":0.5,"perTrialBonusThreshold":0.1,"exampleCost":0.01},"classroomParams":{"A":{"a":1,"b":4},"B":{"a":4,"b":1},"C":{"a":2,"b":8},"D":{"a":8,"b":2}},"conditions":["nonSeqFull","nonSeqPartial","seqNoFeedback","seqFeedback"],"classroomPairings":[["A","B"],["C","D"]],"coinWeights":[0.2,0.5,0.8],"subjectId":"A163XFZG5BI0XU","assignmentId":"39U1BHVTDMD8BSDZF4ABB1PMN5M3TZ","hitId":"3QGHA0EA0JM3KKNCY0PQRLYAHJ3BWH","url":"https://gershmanlab.com/experiments/alicia/teaching/experiment/?hitId=3QGHA0EA0JM3KKNCY0PQRLYAHJ3BWH&workerId=A163XFZG5BI0XU&assignmentId=39U1BHVTDMD8BSDZF4ABB1PMN5M3TZ&a=TBU98&tp_a=TBU98&b=39U1BHVTDMD8BSDZF4ABB1PMN5M3TZ&tp_b=39U1BHVTDMD8BSDZF4ABB1PMN5M3TZ&c=365198&tp_c=365198"},{"rt":5595,"response":{"heads":"5","tails":"5"},"type":"response","condition":"nonSeqPartial","trueTheta":0.5,"classrooms":["C","D"],"studentTrueClassroom":"D","exampleSet":"first","trial_type":"survey-html-form","trial_index":60,"time_elapsed":723728,"internal_node_id":"0.0-56.0-0.0","params":{"nStudents":24,"maxFlips":30,"completionMinutes":45,"basePay":8,"maxBonus":9,"perTrialBonus":0.5,"perTrialBonusThreshold":0.1,"exampleCost":0.01},"classroomParams":{"A":{"a":1,"b":4},"B":{"a":4,"b":1},"C":{"a":2,"b":8},"D":{"a":8,"b":2}},"conditions":["nonSeqFull","nonSeqPartial","seqNoFeedback","seqFeedback"],"classroomPairings":[["A","B"],["C","D"]],"coinWeights":[0.2,0.5,0.8],"subjectId":"A163XFZG5BI0XU","assignmentId":"39U1BHVTDMD8BSDZF4ABB1PMN5M3TZ","hitId":"3QGHA0EA0JM3KKNCY0PQRLYAHJ3BWH","url":"https://gershmanlab.com/experiments/alicia/teaching/experiment/?hitId=3QGHA0EA0JM3KKNCY0PQRLYAHJ3BWH&workerId=A163XFZG5BI0XU&assignmentId=39U1BHVTDMD8BSDZF4ABB1PMN5M3TZ&a=TBU98&tp_a=TBU98&b=39U1BHVTDMD8BSDZF4ABB1PMN5M3TZ&tp_b=39U1BHVTDMD8BSDZF4ABB1PMN5M3TZ&c=365198&tp_c=365198","heads":5,"tails":5,"studentIndex":6,"studentTrueHypers":{"a":8,"b":2},"studentGuess":0.65,"delta":0.15000000000000002,"totalExamples":10,"bonus":0,"bonusSoFar":1.67},{"rt":null,"stimulus":"Sending examples to student... ","response":null,"trial_type":"html-keyboard-response","trial_index":61,"time_elapsed":725229,"internal_node_id":"0.0-57.0","params":{"nStudents":24,"maxFlips":30,"completionMinutes":45,"basePay":8,"maxBonus":9,"perTrialBonus":0.5,"perTrialBonusThreshold":0.1,"exampleCost":0.01},"classroomParams":{"A":{"a":1,"b":4},"B":{"a":4,"b":1},"C":{"a":2,"b":8},"D":{"a":8,"b":2}},"conditions":["nonSeqFull","nonSeqPartial","seqNoFeedback","seqFeedback"],"classroomPairings":[["A","B"],["C","D"]],"coinWeights":[0.2,0.5,0.8],"subjectId":"A163XFZG5BI0XU","assignmentId":"39U1BHVTDMD8BSDZF4ABB1PMN5M3TZ","hitId":"3QGHA0EA0JM3KKNCY0PQRLYAHJ3BWH","url":"https://gershmanlab.com/experiments/alicia/teaching/experiment/?hitId=3QGHA0EA0JM3KKNCY0PQRLYAHJ3BWH&workerId=A163XFZG5BI0XU&assignmentId=39U1BHVTDMD8BSDZF4ABB1PMN5M3TZ&a=TBU98&tp_a=TBU98&b=39U1BHVTDMD8BSDZF4ABB1PMN5M3TZ&tp_b=39U1BHVTDMD8BSDZF4ABB1PMN5M3TZ&c=365198&tp_c=365198"},{"rt":null,"stimulus":"Examples sent to student! Waiting for student...","response":null,"trial_type":"html-keyboard-response","trial_index":62,"time_elapsed":731231,"internal_node_id":"0.0-58.0","params":{"nStudents":24,"maxFlips":30,"completionMinutes":45,"basePay":8,"maxBonus":9,"perTrialBonus":0.5,"perTrialBonusThreshold":0.1,"exampleCost":0.01},"classroomParams":{"A":{"a":1,"b":4},"B":{"a":4,"b":1},"C":{"a":2,"b":8},"D":{"a":8,"b":2}},"conditions":["nonSeqFull","nonSeqPartial","seqNoFeedback","seqFeedback"],"classroomPairings":[["A","B"],["C","D"]],"coinWeights":[0.2,0.5,0.8],"subjectId":"A163XFZG5BI0XU","assignmentId":"39U1BHVTDMD8BSDZF4ABB1PMN5M3TZ","hitId":"3QGHA0EA0JM3KKNCY0PQRLYAHJ3BWH","url":"https://gershmanlab.com/experiments/alicia/teaching/experiment/?hitId=3QGHA0EA0JM3KKNCY0PQRLYAHJ3BWH&workerId=A163XFZG5BI0XU&assignmentId=39U1BHVTDMD8BSDZF4ABB1PMN5M3TZ&a=TBU98&tp_a=TBU98&b=39U1BHVTDMD8BSDZF4ABB1PMN5M3TZ&tp_b=39U1BHVTDMD8BSDZF4ABB1PMN5M3TZ&c=365198&tp_c=365198"},{"rt":6415,"stimulus":"\n                <p>Student's guess for coin weight: <b style=\"color:Tomato;\">0.65</b></p>\n                <p>You received a bonus of <b>$0</b>. Total bonus so far: <b>$1.67</b></b></p>\n                <p> Press any key to continue.</p>\n                ","response":"enter","trial_type":"html-keyboard-response","trial_index":63,"time_elapsed":737646,"internal_node_id":"0.0-59.0","params":{"nStudents":24,"maxFlips":30,"completionMinutes":45,"basePay":8,"maxBonus":9,"perTrialBonus":0.5,"perTrialBonusThreshold":0.1,"exampleCost":0.01},"classroomParams":{"A":{"a":1,"b":4},"B":{"a":4,"b":1},"C":{"a":2,"b":8},"D":{"a":8,"b":2}},"conditions":["nonSeqFull","nonSeqPartial","seqNoFeedback","seqFeedback"],"classroomPairings":[["A","B"],["C","D"]],"coinWeights":[0.2,0.5,0.8],"subjectId":"A163XFZG5BI0XU","assignmentId":"39U1BHVTDMD8BSDZF4ABB1PMN5M3TZ","hitId":"3QGHA0EA0JM3KKNCY0PQRLYAHJ3BWH","url":"https://gershmanlab.com/experiments/alicia/teaching/experiment/?hitId=3QGHA0EA0JM3KKNCY0PQRLYAHJ3BWH&workerId=A163XFZG5BI0XU&assignmentId=39U1BHVTDMD8BSDZF4ABB1PMN5M3TZ&a=TBU98&tp_a=TBU98&b=39U1BHVTDMD8BSDZF4ABB1PMN5M3TZ&tp_b=39U1BHVTDMD8BSDZF4ABB1PMN5M3TZ&c=365198&tp_c=365198"},{"rt":null,"stimulus":"<div style=\"font-size:60px;\">Next student</div>","response":null,"trial_type":"html-keyboard-response","trial_index":64,"time_elapsed":740148,"internal_node_id":"0.0-60.0-0.0","params":{"nStudents":24,"maxFlips":30,"completionMinutes":45,"basePay":8,"maxBonus":9,"perTrialBonus":0.5,"perTrialBonusThreshold":0.1,"exampleCost":0.01},"classroomParams":{"A":{"a":1,"b":4},"B":{"a":4,"b":1},"C":{"a":2,"b":8},"D":{"a":8,"b":2}},"conditions":["nonSeqFull","nonSeqPartial","seqNoFeedback","seqFeedback"],"classroomPairings":[["A","B"],["C","D"]],"coinWeights":[0.2,0.5,0.8],"subjectId":"A163XFZG5BI0XU","assignmentId":"39U1BHVTDMD8BSDZF4ABB1PMN5M3TZ","hitId":"3QGHA0EA0JM3KKNCY0PQRLYAHJ3BWH","url":"https://gershmanlab.com/experiments/alicia/teaching/experiment/?hitId=3QGHA0EA0JM3KKNCY0PQRLYAHJ3BWH&workerId=A163XFZG5BI0XU&assignmentId=39U1BHVTDMD8BSDZF4ABB1PMN5M3TZ&a=TBU98&tp_a=TBU98&b=39U1BHVTDMD8BSDZF4ABB1PMN5M3TZ&tp_b=39U1BHVTDMD8BSDZF4ABB1PMN5M3TZ&c=365198&tp_c=365198"},{"rt":4665,"stimulus":"\n            <h4 style=\"color:Orange;\">Student 8</h4>\n            <h2>The weight of your coin is <b style=\"color:Tomato;\">0.5</b>.</h2>\n            <p>In this block, you will be giving <b>one</b> set of examples to Student 8.</p>\n                <p>You will receive feedback at the end of the block.</p>\n            ","response":0,"trial_type":"html-button-response","trial_index":65,"time_elapsed":744814,"internal_node_id":"0.0-61.0","params":{"nStudents":24,"maxFlips":30,"completionMinutes":45,"basePay":8,"maxBonus":9,"perTrialBonus":0.5,"perTrialBonusThreshold":0.1,"exampleCost":0.01},"classroomParams":{"A":{"a":1,"b":4},"B":{"a":4,"b":1},"C":{"a":2,"b":8},"D":{"a":8,"b":2}},"conditions":["nonSeqFull","nonSeqPartial","seqNoFeedback","seqFeedback"],"classroomPairings":[["A","B"],["C","D"]],"coinWeights":[0.2,0.5,0.8],"subjectId":"A163XFZG5BI0XU","assignmentId":"39U1BHVTDMD8BSDZF4ABB1PMN5M3TZ","hitId":"3QGHA0EA0JM3KKNCY0PQRLYAHJ3BWH","url":"https://gershmanlab.com/experiments/alicia/teaching/experiment/?hitId=3QGHA0EA0JM3KKNCY0PQRLYAHJ3BWH&workerId=A163XFZG5BI0XU&assignmentId=39U1BHVTDMD8BSDZF4ABB1PMN5M3TZ&a=TBU98&tp_a=TBU98&b=39U1BHVTDMD8BSDZF4ABB1PMN5M3TZ&tp_b=39U1BHVTDMD8BSDZF4ABB1PMN5M3TZ&c=365198&tp_c=365198"},{"rt":13618,"response":{"heads":"5","tails":"5"},"type":"response","condition":"nonSeqFull","trueTheta":0.5,"classrooms":["A","B"],"studentTrueClassroom":"A","exampleSet":"first","trial_type":"survey-html-form","trial_index":66,"time_elapsed":758434,"internal_node_id":"0.0-62.0-0.0","params":{"nStudents":24,"maxFlips":30,"completionMinutes":45,"basePay":8,"maxBonus":9,"perTrialBonus":0.5,"perTrialBonusThreshold":0.1,"exampleCost":0.01},"classroomParams":{"A":{"a":1,"b":4},"B":{"a":4,"b":1},"C":{"a":2,"b":8},"D":{"a":8,"b":2}},"conditions":["nonSeqFull","nonSeqPartial","seqNoFeedback","seqFeedback"],"classroomPairings":[["A","B"],["C","D"]],"coinWeights":[0.2,0.5,0.8],"subjectId":"A163XFZG5BI0XU","assignmentId":"39U1BHVTDMD8BSDZF4ABB1PMN5M3TZ","hitId":"3QGHA0EA0JM3KKNCY0PQRLYAHJ3BWH","url":"https://gershmanlab.com/experiments/alicia/teaching/experiment/?hitId=3QGHA0EA0JM3KKNCY0PQRLYAHJ3BWH&workerId=A163XFZG5BI0XU&assignmentId=39U1BHVTDMD8BSDZF4ABB1PMN5M3TZ&a=TBU98&tp_a=TBU98&b=39U1BHVTDMD8BSDZF4ABB1PMN5M3TZ&tp_b=39U1BHVTDMD8BSDZF4ABB1PMN5M3TZ&c=365198&tp_c=365198","heads":5,"tails":5,"studentIndex":7,"studentTrueHypers":{"a":1,"b":4},"studentGuess":0.4,"delta":0.09999999999999998,"totalExamples":10,"bonus":0.4,"bonusSoFar":2.07},{"rt":null,"stimulus":"Sending examples to student... ","response":null,"trial_type":"html-keyboard-response","trial_index":67,"time_elapsed":760435,"internal_node_id":"0.0-63.0","params":{"nStudents":24,"maxFlips":30,"completionMinutes":45,"basePay":8,"maxBonus":9,"perTrialBonus":0.5,"perTrialBonusThreshold":0.1,"exampleCost":0.01},"classroomParams":{"A":{"a":1,"b":4},"B":{"a":4,"b":1},"C":{"a":2,"b":8},"D":{"a":8,"b":2}},"conditions":["nonSeqFull","nonSeqPartial","seqNoFeedback","seqFeedback"],"classroomPairings":[["A","B"],["C","D"]],"coinWeights":[0.2,0.5,0.8],"subjectId":"A163XFZG5BI0XU","assignmentId":"39U1BHVTDMD8BSDZF4ABB1PMN5M3TZ","hitId":"3QGHA0EA0JM3KKNCY0PQRLYAHJ3BWH","url":"https://gershmanlab.com/experiments/alicia/teaching/experiment/?hitId=3QGHA0EA0JM3KKNCY0PQRLYAHJ3BWH&workerId=A163XFZG5BI0XU&assignmentId=39U1BHVTDMD8BSDZF4ABB1PMN5M3TZ&a=TBU98&tp_a=TBU98&b=39U1BHVTDMD8BSDZF4ABB1PMN5M3TZ&tp_b=39U1BHVTDMD8BSDZF4ABB1PMN5M3TZ&c=365198&tp_c=365198"},{"rt":null,"stimulus":"Examples sent to student! Waiting for student...","response":null,"trial_type":"html-keyboard-response","trial_index":68,"time_elapsed":764936,"internal_node_id":"0.0-64.0","params":{"nStudents":24,"maxFlips":30,"completionMinutes":45,"basePay":8,"maxBonus":9,"perTrialBonus":0.5,"perTrialBonusThreshold":0.1,"exampleCost":0.01},"classroomParams":{"A":{"a":1,"b":4},"B":{"a":4,"b":1},"C":{"a":2,"b":8},"D":{"a":8,"b":2}},"conditions":["nonSeqFull","nonSeqPartial","seqNoFeedback","seqFeedback"],"classroomPairings":[["A","B"],["C","D"]],"coinWeights":[0.2,0.5,0.8],"subjectId":"A163XFZG5BI0XU","assignmentId":"39U1BHVTDMD8BSDZF4ABB1PMN5M3TZ","hitId":"3QGHA0EA0JM3KKNCY0PQRLYAHJ3BWH","url":"https://gershmanlab.com/experiments/alicia/teaching/experiment/?hitId=3QGHA0EA0JM3KKNCY0PQRLYAHJ3BWH&workerId=A163XFZG5BI0XU&assignmentId=39U1BHVTDMD8BSDZF4ABB1PMN5M3TZ&a=TBU98&tp_a=TBU98&b=39U1BHVTDMD8BSDZF4ABB1PMN5M3TZ&tp_b=39U1BHVTDMD8BSDZF4ABB1PMN5M3TZ&c=365198&tp_c=365198"},{"rt":6306,"stimulus":"\n                <p>Student's guess for coin weight: <b style=\"color:Tomato;\">0.40</b></p>\n                <p>You received a bonus of <b>$0.4</b>. Total bonus so far: <b>$2.07</b></b></p>\n                <p> Press any key to continue.</p>\n                ","response":"enter","trial_type":"html-keyboard-response","trial_index":69,"time_elapsed":771243,"internal_node_id":"0.0-65.0","params":{"nStudents":24,"maxFlips":30,"completionMinutes":45,"basePay":8,"maxBonus":9,"perTrialBonus":0.5,"perTrialBonusThreshold":0.1,"exampleCost":0.01},"classroomParams":{"A":{"a":1,"b":4},"B":{"a":4,"b":1},"C":{"a":2,"b":8},"D":{"a":8,"b":2}},"conditions":["nonSeqFull","nonSeqPartial","seqNoFeedback","seqFeedback"],"classroomPairings":[["A","B"],["C","D"]],"coinWeights":[0.2,0.5,0.8],"subjectId":"A163XFZG5BI0XU","assignmentId":"39U1BHVTDMD8BSDZF4ABB1PMN5M3TZ","hitId":"3QGHA0EA0JM3KKNCY0PQRLYAHJ3BWH","url":"https://gershmanlab.com/experiments/alicia/teaching/experiment/?hitId=3QGHA0EA0JM3KKNCY0PQRLYAHJ3BWH&workerId=A163XFZG5BI0XU&assignmentId=39U1BHVTDMD8BSDZF4ABB1PMN5M3TZ&a=TBU98&tp_a=TBU98&b=39U1BHVTDMD8BSDZF4ABB1PMN5M3TZ&tp_b=39U1BHVTDMD8BSDZF4ABB1PMN5M3TZ&c=365198&tp_c=365198"},{"rt":null,"stimulus":"<div style=\"font-size:60px;\">Next student</div>","response":null,"trial_type":"html-keyboard-response","trial_index":70,"time_elapsed":773245,"internal_node_id":"0.0-66.0-0.0","params":{"nStudents":24,"maxFlips":30,"completionMinutes":45,"basePay":8,"maxBonus":9,"perTrialBonus":0.5,"perTrialBonusThreshold":0.1,"exampleCost":0.01},"classroomParams":{"A":{"a":1,"b":4},"B":{"a":4,"b":1},"C":{"a":2,"b":8},"D":{"a":8,"b":2}},"conditions":["nonSeqFull","nonSeqPartial","seqNoFeedback","seqFeedback"],"classroomPairings":[["A","B"],["C","D"]],"coinWeights":[0.2,0.5,0.8],"subjectId":"A163XFZG5BI0XU","assignmentId":"39U1BHVTDMD8BSDZF4ABB1PMN5M3TZ","hitId":"3QGHA0EA0JM3KKNCY0PQRLYAHJ3BWH","url":"https://gershmanlab.com/experiments/alicia/teaching/experiment/?hitId=3QGHA0EA0JM3KKNCY0PQRLYAHJ3BWH&workerId=A163XFZG5BI0XU&assignmentId=39U1BHVTDMD8BSDZF4ABB1PMN5M3TZ&a=TBU98&tp_a=TBU98&b=39U1BHVTDMD8BSDZF4ABB1PMN5M3TZ&tp_b=39U1BHVTDMD8BSDZF4ABB1PMN5M3TZ&c=365198&tp_c=365198"},{"rt":3498,"stimulus":"\n            <h4 style=\"color:Orange;\">Student 9</h4>\n            <h2>The weight of your coin is <b style=\"color:Tomato;\">0.5</b>.</h2>\n            <p>In this block, you will be giving <b>one</b> set of examples to Student 9.</p>\n                <p>You will receive feedback at the end of the block.</p>\n            ","response":0,"trial_type":"html-button-response","trial_index":71,"time_elapsed":776745,"internal_node_id":"0.0-67.0","params":{"nStudents":24,"maxFlips":30,"completionMinutes":45,"basePay":8,"maxBonus":9,"perTrialBonus":0.5,"perTrialBonusThreshold":0.1,"exampleCost":0.01},"classroomParams":{"A":{"a":1,"b":4},"B":{"a":4,"b":1},"C":{"a":2,"b":8},"D":{"a":8,"b":2}},"conditions":["nonSeqFull","nonSeqPartial","seqNoFeedback","seqFeedback"],"classroomPairings":[["A","B"],["C","D"]],"coinWeights":[0.2,0.5,0.8],"subjectId":"A163XFZG5BI0XU","assignmentId":"39U1BHVTDMD8BSDZF4ABB1PMN5M3TZ","hitId":"3QGHA0EA0JM3KKNCY0PQRLYAHJ3BWH","url":"https://gershmanlab.com/experiments/alicia/teaching/experiment/?hitId=3QGHA0EA0JM3KKNCY0PQRLYAHJ3BWH&workerId=A163XFZG5BI0XU&assignmentId=39U1BHVTDMD8BSDZF4ABB1PMN5M3TZ&a=TBU98&tp_a=TBU98&b=39U1BHVTDMD8BSDZF4ABB1PMN5M3TZ&tp_b=39U1BHVTDMD8BSDZF4ABB1PMN5M3TZ&c=365198&tp_c=365198"},{"rt":18766,"response":{"heads":"8","tails":"2"},"type":"response","condition":"nonSeqFull","trueTheta":0.5,"classrooms":["C","D"],"studentTrueClassroom":"C","exampleSet":"first","trial_type":"survey-html-form","trial_index":72,"time_elapsed":795511,"internal_node_id":"0.0-68.0-0.0","params":{"nStudents":24,"maxFlips":30,"completionMinutes":45,"basePay":8,"maxBonus":9,"perTrialBonus":0.5,"perTrialBonusThreshold":0.1,"exampleCost":0.01},"classroomParams":{"A":{"a":1,"b":4},"B":{"a":4,"b":1},"C":{"a":2,"b":8},"D":{"a":8,"b":2}},"conditions":["nonSeqFull","nonSeqPartial","seqNoFeedback","seqFeedback"],"classroomPairings":[["A","B"],["C","D"]],"coinWeights":[0.2,0.5,0.8],"subjectId":"A163XFZG5BI0XU","assignmentId":"39U1BHVTDMD8BSDZF4ABB1PMN5M3TZ","hitId":"3QGHA0EA0JM3KKNCY0PQRLYAHJ3BWH","url":"https://gershmanlab.com/experiments/alicia/teaching/experiment/?hitId=3QGHA0EA0JM3KKNCY0PQRLYAHJ3BWH&workerId=A163XFZG5BI0XU&assignmentId=39U1BHVTDMD8BSDZF4ABB1PMN5M3TZ&a=TBU98&tp_a=TBU98&b=39U1BHVTDMD8BSDZF4ABB1PMN5M3TZ&tp_b=39U1BHVTDMD8BSDZF4ABB1PMN5M3TZ&c=365198&tp_c=365198","heads":8,"tails":2,"studentIndex":8,"studentTrueHypers":{"a":2,"b":8},"studentGuess":0.5,"delta":0,"totalExamples":10,"bonus":0.4,"bonusSoFar":2.47},{"rt":null,"stimulus":"Sending examples to student... ","response":null,"trial_type":"html-keyboard-response","trial_index":73,"time_elapsed":797513,"internal_node_id":"0.0-69.0","params":{"nStudents":24,"maxFlips":30,"completionMinutes":45,"basePay":8,"maxBonus":9,"perTrialBonus":0.5,"perTrialBonusThreshold":0.1,"exampleCost":0.01},"classroomParams":{"A":{"a":1,"b":4},"B":{"a":4,"b":1},"C":{"a":2,"b":8},"D":{"a":8,"b":2}},"conditions":["nonSeqFull","nonSeqPartial","seqNoFeedback","seqFeedback"],"classroomPairings":[["A","B"],["C","D"]],"coinWeights":[0.2,0.5,0.8],"subjectId":"A163XFZG5BI0XU","assignmentId":"39U1BHVTDMD8BSDZF4ABB1PMN5M3TZ","hitId":"3QGHA0EA0JM3KKNCY0PQRLYAHJ3BWH","url":"https://gershmanlab.com/experiments/alicia/teaching/experiment/?hitId=3QGHA0EA0JM3KKNCY0PQRLYAHJ3BWH&workerId=A163XFZG5BI0XU&assignmentId=39U1BHVTDMD8BSDZF4ABB1PMN5M3TZ&a=TBU98&tp_a=TBU98&b=39U1BHVTDMD8BSDZF4ABB1PMN5M3TZ&tp_b=39U1BHVTDMD8BSDZF4ABB1PMN5M3TZ&c=365198&tp_c=365198"},{"rt":null,"stimulus":"Examples sent to student! Waiting for student...","response":null,"trial_type":"html-keyboard-response","trial_index":74,"time_elapsed":803515,"internal_node_id":"0.0-70.0","params":{"nStudents":24,"maxFlips":30,"completionMinutes":45,"basePay":8,"maxBonus":9,"perTrialBonus":0.5,"perTrialBonusThreshold":0.1,"exampleCost":0.01},"classroomParams":{"A":{"a":1,"b":4},"B":{"a":4,"b":1},"C":{"a":2,"b":8},"D":{"a":8,"b":2}},"conditions":["nonSeqFull","nonSeqPartial","seqNoFeedback","seqFeedback"],"classroomPairings":[["A","B"],["C","D"]],"coinWeights":[0.2,0.5,0.8],"subjectId":"A163XFZG5BI0XU","assignmentId":"39U1BHVTDMD8BSDZF4ABB1PMN5M3TZ","hitId":"3QGHA0EA0JM3KKNCY0PQRLYAHJ3BWH","url":"https://gershmanlab.com/experiments/alicia/teaching/experiment/?hitId=3QGHA0EA0JM3KKNCY0PQRLYAHJ3BWH&workerId=A163XFZG5BI0XU&assignmentId=39U1BHVTDMD8BSDZF4ABB1PMN5M3TZ&a=TBU98&tp_a=TBU98&b=39U1BHVTDMD8BSDZF4ABB1PMN5M3TZ&tp_b=39U1BHVTDMD8BSDZF4ABB1PMN5M3TZ&c=365198&tp_c=365198"},{"rt":5681,"stimulus":"\n                <p>Student's guess for coin weight: <b style=\"color:Tomato;\">0.50</b></p>\n                <p>You received a bonus of <b>$0.4</b>. Total bonus so far: <b>$2.47</b></b></p>\n                <p> Press any key to continue.</p>\n                ","response":"enter","trial_type":"html-keyboard-response","trial_index":75,"time_elapsed":809196,"internal_node_id":"0.0-71.0","params":{"nStudents":24,"maxFlips":30,"completionMinutes":45,"basePay":8,"maxBonus":9,"perTrialBonus":0.5,"perTrialBonusThreshold":0.1,"exampleCost":0.01},"classroomParams":{"A":{"a":1,"b":4},"B":{"a":4,"b":1},"C":{"a":2,"b":8},"D":{"a":8,"b":2}},"conditions":["nonSeqFull","nonSeqPartial","seqNoFeedback","seqFeedback"],"classroomPairings":[["A","B"],["C","D"]],"coinWeights":[0.2,0.5,0.8],"subjectId":"A163XFZG5BI0XU","assignmentId":"39U1BHVTDMD8BSDZF4ABB1PMN5M3TZ","hitId":"3QGHA0EA0JM3KKNCY0PQRLYAHJ3BWH","url":"https://gershmanlab.com/experiments/alicia/teaching/experiment/?hitId=3QGHA0EA0JM3KKNCY0PQRLYAHJ3BWH&workerId=A163XFZG5BI0XU&assignmentId=39U1BHVTDMD8BSDZF4ABB1PMN5M3TZ&a=TBU98&tp_a=TBU98&b=39U1BHVTDMD8BSDZF4ABB1PMN5M3TZ&tp_b=39U1BHVTDMD8BSDZF4ABB1PMN5M3TZ&c=365198&tp_c=365198"},{"rt":null,"stimulus":"<div style=\"font-size:60px;\">Next student</div>","response":null,"trial_type":"html-keyboard-response","trial_index":76,"time_elapsed":811698,"internal_node_id":"0.0-72.0-0.0","params":{"nStudents":24,"maxFlips":30,"completionMinutes":45,"basePay":8,"maxBonus":9,"perTrialBonus":0.5,"perTrialBonusThreshold":0.1,"exampleCost":0.01},"classroomParams":{"A":{"a":1,"b":4},"B":{"a":4,"b":1},"C":{"a":2,"b":8},"D":{"a":8,"b":2}},"conditions":["nonSeqFull","nonSeqPartial","seqNoFeedback","seqFeedback"],"classroomPairings":[["A","B"],["C","D"]],"coinWeights":[0.2,0.5,0.8],"subjectId":"A163XFZG5BI0XU","assignmentId":"39U1BHVTDMD8BSDZF4ABB1PMN5M3TZ","hitId":"3QGHA0EA0JM3KKNCY0PQRLYAHJ3BWH","url":"https://gershmanlab.com/experiments/alicia/teaching/experiment/?hitId=3QGHA0EA0JM3KKNCY0PQRLYAHJ3BWH&workerId=A163XFZG5BI0XU&assignmentId=39U1BHVTDMD8BSDZF4ABB1PMN5M3TZ&a=TBU98&tp_a=TBU98&b=39U1BHVTDMD8BSDZF4ABB1PMN5M3TZ&tp_b=39U1BHVTDMD8BSDZF4ABB1PMN5M3TZ&c=365198&tp_c=365198"},{"rt":8370,"stimulus":"\n            <h4 style=\"color:Orange;\">Student 10</h4>\n            <h2>The weight of your coin is <b style=\"color:Tomato;\">0.2</b>.</h2>\n            <p>In this block, you will be giving <b>one</b> set of examples to Student 10.</p>\n                <p>You will receive feedback at the end of the block.</p>\n            ","response":0,"trial_type":"html-button-response","trial_index":77,"time_elapsed":820068,"internal_node_id":"0.0-73.0","params":{"nStudents":24,"maxFlips":30,"completionMinutes":45,"basePay":8,"maxBonus":9,"perTrialBonus":0.5,"perTrialBonusThreshold":0.1,"exampleCost":0.01},"classroomParams":{"A":{"a":1,"b":4},"B":{"a":4,"b":1},"C":{"a":2,"b":8},"D":{"a":8,"b":2}},"conditions":["nonSeqFull","nonSeqPartial","seqNoFeedback","seqFeedback"],"classroomPairings":[["A","B"],["C","D"]],"coinWeights":[0.2,0.5,0.8],"subjectId":"A163XFZG5BI0XU","assignmentId":"39U1BHVTDMD8BSDZF4ABB1PMN5M3TZ","hitId":"3QGHA0EA0JM3KKNCY0PQRLYAHJ3BWH","url":"https://gershmanlab.com/experiments/alicia/teaching/experiment/?hitId=3QGHA0EA0JM3KKNCY0PQRLYAHJ3BWH&workerId=A163XFZG5BI0XU&assignmentId=39U1BHVTDMD8BSDZF4ABB1PMN5M3TZ&a=TBU98&tp_a=TBU98&b=39U1BHVTDMD8BSDZF4ABB1PMN5M3TZ&tp_b=39U1BHVTDMD8BSDZF4ABB1PMN5M3TZ&c=365198&tp_c=365198"},{"rt":7676,"response":{"heads":"2","tails":"8"},"type":"response","condition":"nonSeqFull","trueTheta":0.2,"classrooms":["C","D"],"studentTrueClassroom":"C","exampleSet":"first","trial_type":"survey-html-form","trial_index":78,"time_elapsed":827745,"internal_node_id":"0.0-74.0-0.0","params":{"nStudents":24,"maxFlips":30,"completionMinutes":45,"basePay":8,"maxBonus":9,"perTrialBonus":0.5,"perTrialBonusThreshold":0.1,"exampleCost":0.01},"classroomParams":{"A":{"a":1,"b":4},"B":{"a":4,"b":1},"C":{"a":2,"b":8},"D":{"a":8,"b":2}},"conditions":["nonSeqFull","nonSeqPartial","seqNoFeedback","seqFeedback"],"classroomPairings":[["A","B"],["C","D"]],"coinWeights":[0.2,0.5,0.8],"subjectId":"A163XFZG5BI0XU","assignmentId":"39U1BHVTDMD8BSDZF4ABB1PMN5M3TZ","hitId":"3QGHA0EA0JM3KKNCY0PQRLYAHJ3BWH","url":"https://gershmanlab.com/experiments/alicia/teaching/experiment/?hitId=3QGHA0EA0JM3KKNCY0PQRLYAHJ3BWH&workerId=A163XFZG5BI0XU&assignmentId=39U1BHVTDMD8BSDZF4ABB1PMN5M3TZ&a=TBU98&tp_a=TBU98&b=39U1BHVTDMD8BSDZF4ABB1PMN5M3TZ&tp_b=39U1BHVTDMD8BSDZF4ABB1PMN5M3TZ&c=365198&tp_c=365198","heads":2,"tails":8,"studentIndex":9,"studentTrueHypers":{"a":2,"b":8},"studentGuess":0.2,"delta":0,"totalExamples":10,"bonus":0.4,"bonusSoFar":2.87},{"rt":null,"stimulus":"Sending examples to student... ","response":null,"trial_type":"html-keyboard-response","trial_index":79,"time_elapsed":829496,"internal_node_id":"0.0-75.0","params":{"nStudents":24,"maxFlips":30,"completionMinutes":45,"basePay":8,"maxBonus":9,"perTrialBonus":0.5,"perTrialBonusThreshold":0.1,"exampleCost":0.01},"classroomParams":{"A":{"a":1,"b":4},"B":{"a":4,"b":1},"C":{"a":2,"b":8},"D":{"a":8,"b":2}},"conditions":["nonSeqFull","nonSeqPartial","seqNoFeedback","seqFeedback"],"classroomPairings":[["A","B"],["C","D"]],"coinWeights":[0.2,0.5,0.8],"subjectId":"A163XFZG5BI0XU","assignmentId":"39U1BHVTDMD8BSDZF4ABB1PMN5M3TZ","hitId":"3QGHA0EA0JM3KKNCY0PQRLYAHJ3BWH","url":"https://gershmanlab.com/experiments/alicia/teaching/experiment/?hitId=3QGHA0EA0JM3KKNCY0PQRLYAHJ3BWH&workerId=A163XFZG5BI0XU&assignmentId=39U1BHVTDMD8BSDZF4ABB1PMN5M3TZ&a=TBU98&tp_a=TBU98&b=39U1BHVTDMD8BSDZF4ABB1PMN5M3TZ&tp_b=39U1BHVTDMD8BSDZF4ABB1PMN5M3TZ&c=365198&tp_c=365198"},{"rt":null,"stimulus":"Examples sent to student! Waiting for student...","response":null,"trial_type":"html-keyboard-response","trial_index":80,"time_elapsed":833497,"internal_node_id":"0.0-76.0","params":{"nStudents":24,"maxFlips":30,"completionMinutes":45,"basePay":8,"maxBonus":9,"perTrialBonus":0.5,"perTrialBonusThreshold":0.1,"exampleCost":0.01},"classroomParams":{"A":{"a":1,"b":4},"B":{"a":4,"b":1},"C":{"a":2,"b":8},"D":{"a":8,"b":2}},"conditions":["nonSeqFull","nonSeqPartial","seqNoFeedback","seqFeedback"],"classroomPairings":[["A","B"],["C","D"]],"coinWeights":[0.2,0.5,0.8],"subjectId":"A163XFZG5BI0XU","assignmentId":"39U1BHVTDMD8BSDZF4ABB1PMN5M3TZ","hitId":"3QGHA0EA0JM3KKNCY0PQRLYAHJ3BWH","url":"https://gershmanlab.com/experiments/alicia/teaching/experiment/?hitId=3QGHA0EA0JM3KKNCY0PQRLYAHJ3BWH&workerId=A163XFZG5BI0XU&assignmentId=39U1BHVTDMD8BSDZF4ABB1PMN5M3TZ&a=TBU98&tp_a=TBU98&b=39U1BHVTDMD8BSDZF4ABB1PMN5M3TZ&tp_b=39U1BHVTDMD8BSDZF4ABB1PMN5M3TZ&c=365198&tp_c=365198"},{"rt":1530,"stimulus":"\n                <p>Student's guess for coin weight: <b style=\"color:Tomato;\">0.20</b></p>\n                <p>You received a bonus of <b>$0.4</b>. Total bonus so far: <b>$2.87</b></b></p>\n                <p> Press any key to continue.</p>\n                ","response":"enter","trial_type":"html-keyboard-response","trial_index":81,"time_elapsed":835028,"internal_node_id":"0.0-77.0","params":{"nStudents":24,"maxFlips":30,"completionMinutes":45,"basePay":8,"maxBonus":9,"perTrialBonus":0.5,"perTrialBonusThreshold":0.1,"exampleCost":0.01},"classroomParams":{"A":{"a":1,"b":4},"B":{"a":4,"b":1},"C":{"a":2,"b":8},"D":{"a":8,"b":2}},"conditions":["nonSeqFull","nonSeqPartial","seqNoFeedback","seqFeedback"],"classroomPairings":[["A","B"],["C","D"]],"coinWeights":[0.2,0.5,0.8],"subjectId":"A163XFZG5BI0XU","assignmentId":"39U1BHVTDMD8BSDZF4ABB1PMN5M3TZ","hitId":"3QGHA0EA0JM3KKNCY0PQRLYAHJ3BWH","url":"https://gershmanlab.com/experiments/alicia/teaching/experiment/?hitId=3QGHA0EA0JM3KKNCY0PQRLYAHJ3BWH&workerId=A163XFZG5BI0XU&assignmentId=39U1BHVTDMD8BSDZF4ABB1PMN5M3TZ&a=TBU98&tp_a=TBU98&b=39U1BHVTDMD8BSDZF4ABB1PMN5M3TZ&tp_b=39U1BHVTDMD8BSDZF4ABB1PMN5M3TZ&c=365198&tp_c=365198"},{"rt":null,"stimulus":"<div style=\"font-size:60px;\">Next student</div>","response":null,"trial_type":"html-keyboard-response","trial_index":82,"time_elapsed":837530,"internal_node_id":"0.0-78.0-0.0","params":{"nStudents":24,"maxFlips":30,"completionMinutes":45,"basePay":8,"maxBonus":9,"perTrialBonus":0.5,"perTrialBonusThreshold":0.1,"exampleCost":0.01},"classroomParams":{"A":{"a":1,"b":4},"B":{"a":4,"b":1},"C":{"a":2,"b":8},"D":{"a":8,"b":2}},"conditions":["nonSeqFull","nonSeqPartial","seqNoFeedback","seqFeedback"],"classroomPairings":[["A","B"],["C","D"]],"coinWeights":[0.2,0.5,0.8],"subjectId":"A163XFZG5BI0XU","assignmentId":"39U1BHVTDMD8BSDZF4ABB1PMN5M3TZ","hitId":"3QGHA0EA0JM3KKNCY0PQRLYAHJ3BWH","url":"https://gershmanlab.com/experiments/alicia/teaching/experiment/?hitId=3QGHA0EA0JM3KKNCY0PQRLYAHJ3BWH&workerId=A163XFZG5BI0XU&assignmentId=39U1BHVTDMD8BSDZF4ABB1PMN5M3TZ&a=TBU98&tp_a=TBU98&b=39U1BHVTDMD8BSDZF4ABB1PMN5M3TZ&tp_b=39U1BHVTDMD8BSDZF4ABB1PMN5M3TZ&c=365198&tp_c=365198"},{"rt":1903,"stimulus":"\n            <h4 style=\"color:Orange;\">Student 11</h4>\n            <h2>The weight of your coin is <b style=\"color:Tomato;\">0.8</b>.</h2>\n            <p>In this block, you will be giving <b>one</b> set of examples to Student 11.</p>\n                <p>You will receive feedback at the end of the block.</p>\n            ","response":0,"trial_type":"html-button-response","trial_index":83,"time_elapsed":839433,"internal_node_id":"0.0-79.0","params":{"nStudents":24,"maxFlips":30,"completionMinutes":45,"basePay":8,"maxBonus":9,"perTrialBonus":0.5,"perTrialBonusThreshold":0.1,"exampleCost":0.01},"classroomParams":{"A":{"a":1,"b":4},"B":{"a":4,"b":1},"C":{"a":2,"b":8},"D":{"a":8,"b":2}},"conditions":["nonSeqFull","nonSeqPartial","seqNoFeedback","seqFeedback"],"classroomPairings":[["A","B"],["C","D"]],"coinWeights":[0.2,0.5,0.8],"subjectId":"A163XFZG5BI0XU","assignmentId":"39U1BHVTDMD8BSDZF4ABB1PMN5M3TZ","hitId":"3QGHA0EA0JM3KKNCY0PQRLYAHJ3BWH","url":"https://gershmanlab.com/experiments/alicia/teaching/experiment/?hitId=3QGHA0EA0JM3KKNCY0PQRLYAHJ3BWH&workerId=A163XFZG5BI0XU&assignmentId=39U1BHVTDMD8BSDZF4ABB1PMN5M3TZ&a=TBU98&tp_a=TBU98&b=39U1BHVTDMD8BSDZF4ABB1PMN5M3TZ&tp_b=39U1BHVTDMD8BSDZF4ABB1PMN5M3TZ&c=365198&tp_c=365198"},{"rt":5992,"response":{"heads":"8","tails":"2"},"type":"response","condition":"nonSeqFull","trueTheta":0.8,"classrooms":["C","D"],"studentTrueClassroom":"D","exampleSet":"first","trial_type":"survey-html-form","trial_index":84,"time_elapsed":845427,"internal_node_id":"0.0-80.0-0.0","params":{"nStudents":24,"maxFlips":30,"completionMinutes":45,"basePay":8,"maxBonus":9,"perTrialBonus":0.5,"perTrialBonusThreshold":0.1,"exampleCost":0.01},"classroomParams":{"A":{"a":1,"b":4},"B":{"a":4,"b":1},"C":{"a":2,"b":8},"D":{"a":8,"b":2}},"conditions":["nonSeqFull","nonSeqPartial","seqNoFeedback","seqFeedback"],"classroomPairings":[["A","B"],["C","D"]],"coinWeights":[0.2,0.5,0.8],"subjectId":"A163XFZG5BI0XU","assignmentId":"39U1BHVTDMD8BSDZF4ABB1PMN5M3TZ","hitId":"3QGHA0EA0JM3KKNCY0PQRLYAHJ3BWH","url":"https://gershmanlab.com/experiments/alicia/teaching/experiment/?hitId=3QGHA0EA0JM3KKNCY0PQRLYAHJ3BWH&workerId=A163XFZG5BI0XU&assignmentId=39U1BHVTDMD8BSDZF4ABB1PMN5M3TZ&a=TBU98&tp_a=TBU98&b=39U1BHVTDMD8BSDZF4ABB1PMN5M3TZ&tp_b=39U1BHVTDMD8BSDZF4ABB1PMN5M3TZ&c=365198&tp_c=365198","heads":8,"tails":2,"studentIndex":10,"studentTrueHypers":{"a":8,"b":2},"studentGuess":0.8,"delta":0,"totalExamples":10,"bonus":0.4,"bonusSoFar":3.27},{"rt":null,"stimulus":"Sending examples to student... ","response":null,"trial_type":"html-keyboard-response","trial_index":85,"time_elapsed":847429,"internal_node_id":"0.0-81.0","params":{"nStudents":24,"maxFlips":30,"completionMinutes":45,"basePay":8,"maxBonus":9,"perTrialBonus":0.5,"perTrialBonusThreshold":0.1,"exampleCost":0.01},"classroomParams":{"A":{"a":1,"b":4},"B":{"a":4,"b":1},"C":{"a":2,"b":8},"D":{"a":8,"b":2}},"conditions":["nonSeqFull","nonSeqPartial","seqNoFeedback","seqFeedback"],"classroomPairings":[["A","B"],["C","D"]],"coinWeights":[0.2,0.5,0.8],"subjectId":"A163XFZG5BI0XU","assignmentId":"39U1BHVTDMD8BSDZF4ABB1PMN5M3TZ","hitId":"3QGHA0EA0JM3KKNCY0PQRLYAHJ3BWH","url":"https://gershmanlab.com/experiments/alicia/teaching/experiment/?hitId=3QGHA0EA0JM3KKNCY0PQRLYAHJ3BWH&workerId=A163XFZG5BI0XU&assignmentId=39U1BHVTDMD8BSDZF4ABB1PMN5M3TZ&a=TBU98&tp_a=TBU98&b=39U1BHVTDMD8BSDZF4ABB1PMN5M3TZ&tp_b=39U1BHVTDMD8BSDZF4ABB1PMN5M3TZ&c=365198&tp_c=365198"},{"rt":null,"stimulus":"Examples sent to student! Waiting for student...","response":null,"trial_type":"html-keyboard-response","trial_index":86,"time_elapsed":852930,"internal_node_id":"0.0-82.0","params":{"nStudents":24,"maxFlips":30,"completionMinutes":45,"basePay":8,"maxBonus":9,"perTrialBonus":0.5,"perTrialBonusThreshold":0.1,"exampleCost":0.01},"classroomParams":{"A":{"a":1,"b":4},"B":{"a":4,"b":1},"C":{"a":2,"b":8},"D":{"a":8,"b":2}},"conditions":["nonSeqFull","nonSeqPartial","seqNoFeedback","seqFeedback"],"classroomPairings":[["A","B"],["C","D"]],"coinWeights":[0.2,0.5,0.8],"subjectId":"A163XFZG5BI0XU","assignmentI