[{"rt":6479,"stimulus":"Welcome to the experiment. Press any key to begin.","response":"s","trial_type":"html-keyboard-response","trial_index":0,"time_elapsed":6485,"internal_node_id":"0.0-0.0","params":{"nStudents":24,"maxFlips":30,"completionMinutes":45,"basePay":8,"maxBonus":9,"perTrialBonus":0.5,"perTrialBonusThreshold":0.1,"exampleCost":0.01},"classroomParams":{"A":{"a":1,"b":4},"B":{"a":4,"b":1},"C":{"a":2,"b":8},"D":{"a":8,"b":2}},"conditions":["nonSeqFull","nonSeqPartial","seqNoFeedback","seqFeedback"],"classroomPairings":[["A","B"],["C","D"]],"coinWeights":[0.2,0.5,0.8],"subjectId":"A19WXS1CLVLEEX","assignmentId":"3OE22WJIGJAFI6YQDKCHT54ZGB6QUF","hitId":"3QGHA0EA0JM3KKNCY0PQRLYAHJ3BWH","url":"https://gershmanlab.com/experiments/alicia/teaching/experiment/?hitId=3QGHA0EA0JM3KKNCY0PQRLYAHJ3BWH&workerId=A19WXS1CLVLEEX&assignmentId=3OE22WJIGJAFI6YQDKCHT54ZGB6QUF&a=I2EO8&tp_a=I2EO8&b=3OE22WJIGJAFI6YQDKCHT54ZGB6QUF&tp_b=3OE22WJIGJAFI6YQDKCHT54ZGB6QUF&c=365198&tp_c=365198"},{"rt":11362,"stimulus":"\n        <h3>Please read this consent agreement carefully before deciding whether to participate in this experiment.</h3>\n        <p><b>Purpose of the research:</b> To examine how people teach effectively.</p>\n        <p><b>What you will do in this research:</b> You will teach students the weights of different coins.</p>\n        <p><b>Time required:</b> This experiment will take 45 minutes to complete.</p>\n        <p><b>Risks:</b> There are no anticipated risks associated with participating in this study.             The effects of participating should be comparable to those you would experience from viewing a computer monitor             and using a mouse and keyboard for the duration of the experiment.</p>\n        <p><b>Benefits:</b> The study provides important information about the nature of teaching.</p>\n        <p><b>Compensation:</b> You will receive <b>$8</b> for completing the experiment and a performance bonus of up to <b>$9</b>.</p>\n        <p><b>Confidentiality:</b> Your participation in this study will remain confidential.             No personally identifiable information will be associated with your data.             Your de-identified data may be shared with other researchers and used in future projects.</p>\n        <p><b>Participation and withdrawal:</b> Your participation in this study is completely voluntary and             you may refuse to participate or you may choose to withdraw at any time without penalty or loss of\n            benefits to which you are otherwise entitled.</p>\n        <p><b>How to contact the researcher:</b> If you have questions or concerns about your participation            or payment, or want to request a summary of research findings, please contact\n            Alicia Chen, aliciachen@college.harvard.edu.</p>\n        <p><b>Whom to contact about your rights in this research:</b> For questions, concerns, suggestions,             or complaints that have not been or cannot be addressed by the researcher, or to report             research-related harm, please contact the Committee on the Use of Human Subjects in Research at Harvard University,             1414 Massachusetts Avenue, Second Floor, Cambridge, MA 02138. Phone: 617-496-2847. Email: cuhs@fas.harvard.edu.</p>\n        ","response":0,"trial_type":"html-button-response","trial_index":1,"time_elapsed":17850,"internal_node_id":"0.0-1.0","params":{"nStudents":24,"maxFlips":30,"completionMinutes":45,"basePay":8,"maxBonus":9,"perTrialBonus":0.5,"perTrialBonusThreshold":0.1,"exampleCost":0.01},"classroomParams":{"A":{"a":1,"b":4},"B":{"a":4,"b":1},"C":{"a":2,"b":8},"D":{"a":8,"b":2}},"conditions":["nonSeqFull","nonSeqPartial","seqNoFeedback","seqFeedback"],"classroomPairings":[["A","B"],["C","D"]],"coinWeights":[0.2,0.5,0.8],"subjectId":"A19WXS1CLVLEEX","assignmentId":"3OE22WJIGJAFI6YQDKCHT54ZGB6QUF","hitId":"3QGHA0EA0JM3KKNCY0PQRLYAHJ3BWH","url":"https://gershmanlab.com/experiments/alicia/teaching/experiment/?hitId=3QGHA0EA0JM3KKNCY0PQRLYAHJ3BWH&workerId=A19WXS1CLVLEEX&assignmentId=3OE22WJIGJAFI6YQDKCHT54ZGB6QUF&a=I2EO8&tp_a=I2EO8&b=3OE22WJIGJAFI6YQDKCHT54ZGB6QUF&tp_b=3OE22WJIGJAFI6YQDKCHT54ZGB6QUF&c=365198&tp_c=365198"},{"view_history":[{"page_index":0,"viewing_time":5567},{"page_index":1,"viewing_time":7030},{"page_index":2,"viewing_time":36663},{"page_index":3,"viewing_time":27405},{"page_index":4,"viewing_time":17126},{"page_index":5,"viewing_time":29454},{"page_index":6,"viewing_time":41260}],"rt":164506,"trial_type":"instructions","trial_index":2,"time_elapsed":182357,"internal_node_id":"0.0-2.0-0.0","params":{"nStudents":24,"maxFlips":30,"completionMinutes":45,"basePay":8,"maxBonus":9,"perTrialBonus":0.5,"perTrialBonusThreshold":0.1,"exampleCost":0.01},"classroomParams":{"A":{"a":1,"b":4},"B":{"a":4,"b":1},"C":{"a":2,"b":8},"D":{"a":8,"b":2}},"conditions":["nonSeqFull","nonSeqPartial","seqNoFeedback","seqFeedback"],"classroomPairings":[["A","B"],["C","D"]],"coinWeights":[0.2,0.5,0.8],"subjectId":"A19WXS1CLVLEEX","assignmentId":"3OE22WJIGJAFI6YQDKCHT54ZGB6QUF","hitId":"3QGHA0EA0JM3KKNCY0PQRLYAHJ3BWH","url":"https://gershmanlab.com/experiments/alicia/teaching/experiment/?hitId=3QGHA0EA0JM3KKNCY0PQRLYAHJ3BWH&workerId=A19WXS1CLVLEEX&assignmentId=3OE22WJIGJAFI6YQDKCHT54ZGB6QUF&a=I2EO8&tp_a=I2EO8&b=3OE22WJIGJAFI6YQDKCHT54ZGB6QUF&tp_b=3OE22WJIGJAFI6YQDKCHT54ZGB6QUF&c=365198&tp_c=365198"},{"rt":110502,"response":{"Q0":"Students in different classrooms will have seen a different number of heads and tails before seeing the examples you select for them.","Q1":"By teaching efficiently and accurately/helpfully at the same time (because each example I give to the student costs money!).","Q2":"The coin lands heads 90% of the time.","Q3":"No, I will teach a <b>new</b> student each time.","Q4":"The students are also on the same alien planet as you, where coins can be unfair.","Q5":"Based on the student's second (and final) guess."},"question_order":[0,4,2,1,3,5],"trial_type":"survey-multi-choice","trial_index":3,"time_elapsed":292865,"internal_node_id":"0.0-2.0-1.0","params":{"nStudents":24,"maxFlips":30,"completionMinutes":45,"basePay":8,"maxBonus":9,"perTrialBonus":0.5,"perTrialBonusThreshold":0.1,"exampleCost":0.01},"classroomParams":{"A":{"a":1,"b":4},"B":{"a":4,"b":1},"C":{"a":2,"b":8},"D":{"a":8,"b":2}},"conditions":["nonSeqFull","nonSeqPartial","seqNoFeedback","seqFeedback"],"classroomPairings":[["A","B"],["C","D"]],"coinWeights":[0.2,0.5,0.8],"subjectId":"A19WXS1CLVLEEX","assignmentId":"3OE22WJIGJAFI6YQDKCHT54ZGB6QUF","hitId":"3QGHA0EA0JM3KKNCY0PQRLYAHJ3BWH","url":"https://gershmanlab.com/experiments/alicia/teaching/experiment/?hitId=3QGHA0EA0JM3KKNCY0PQRLYAHJ3BWH&workerId=A19WXS1CLVLEEX&assignmentId=3OE22WJIGJAFI6YQDKCHT54ZGB6QUF&a=I2EO8&tp_a=I2EO8&b=3OE22WJIGJAFI6YQDKCHT54ZGB6QUF&tp_b=3OE22WJIGJAFI6YQDKCHT54ZGB6QUF&c=365198&tp_c=365198","pass":true},{"rt":null,"stimulus":"<div style=\"font-size:30px;\">Congrats on passing the comprehension quiz! The experiment will begin in a few seconds.</div>","response":null,"trial_type":"html-keyboard-response","trial_index":4,"time_elapsed":295879,"internal_node_id":"0.0-3.0","params":{"nStudents":24,"maxFlips":30,"completionMinutes":45,"basePay":8,"maxBonus":9,"perTrialBonus":0.5,"perTrialBonusThreshold":0.1,"exampleCost":0.01},"classroomParams":{"A":{"a":1,"b":4},"B":{"a":4,"b":1},"C":{"a":2,"b":8},"D":{"a":8,"b":2}},"conditions":["nonSeqFull","nonSeqPartial","seqNoFeedback","seqFeedback"],"classroomPairings":[["A","B"],["C","D"]],"coinWeights":[0.2,0.5,0.8],"subjectId":"A19WXS1CLVLEEX","assignmentId":"3OE22WJIGJAFI6YQDKCHT54ZGB6QUF","hitId":"3QGHA0EA0JM3KKNCY0PQRLYAHJ3BWH","url":"https://gershmanlab.com/experiments/alicia/teaching/experiment/?hitId=3QGHA0EA0JM3KKNCY0PQRLYAHJ3BWH&workerId=A19WXS1CLVLEEX&assignmentId=3OE22WJIGJAFI6YQDKCHT54ZGB6QUF&a=I2EO8&tp_a=I2EO8&b=3OE22WJIGJAFI6YQDKCHT54ZGB6QUF&tp_b=3OE22WJIGJAFI6YQDKCHT54ZGB6QUF&c=365198&tp_c=365198"},{"rt":null,"stimulus":"<div style=\"font-size:50px;\">First student</div>","response":null,"trial_type":"html-keyboard-response","trial_index":5,"time_elapsed":298883,"internal_node_id":"0.0-4.0","params":{"nStudents":24,"maxFlips":30,"completionMinutes":45,"basePay":8,"maxBonus":9,"perTrialBonus":0.5,"perTrialBonusThreshold":0.1,"exampleCost":0.01},"classroomParams":{"A":{"a":1,"b":4},"B":{"a":4,"b":1},"C":{"a":2,"b":8},"D":{"a":8,"b":2}},"conditions":["nonSeqFull","nonSeqPartial","seqNoFeedback","seqFeedback"],"classroomPairings":[["A","B"],["C","D"]],"coinWeights":[0.2,0.5,0.8],"subjectId":"A19WXS1CLVLEEX","assignmentId":"3OE22WJIGJAFI6YQDKCHT54ZGB6QUF","hitId":"3QGHA0EA0JM3KKNCY0PQRLYAHJ3BWH","url":"https://gershmanlab.com/experiments/alicia/teaching/experiment/?hitId=3QGHA0EA0JM3KKNCY0PQRLYAHJ3BWH&workerId=A19WXS1CLVLEEX&assignmentId=3OE22WJIGJAFI6YQDKCHT54ZGB6QUF&a=I2EO8&tp_a=I2EO8&b=3OE22WJIGJAFI6YQDKCHT54ZGB6QUF&tp_b=3OE22WJIGJAFI6YQDKCHT54ZGB6QUF&c=365198&tp_c=365198"},{"rt":9074,"stimulus":"\n            <h4 style=\"color:Orange;\">Student 1</h4>\n            <h2>The weight of your coin is <b style=\"color:Tomato;\">0.2</b>.</h2>\n            <p>In this block, you will be giving <b>two</b> sets of examples to Student 1.</p>\n                <p>You will see the student's guess after the first set of examples. You will also receive feedback at the end of the block.</p>\n            ","response":0,"trial_type":"html-button-response","trial_index":6,"time_elapsed":307960,"internal_node_id":"0.0-5.0","params":{"nStudents":24,"maxFlips":30,"completionMinutes":45,"basePay":8,"maxBonus":9,"perTrialBonus":0.5,"perTrialBonusThreshold":0.1,"exampleCost":0.01},"classroomParams":{"A":{"a":1,"b":4},"B":{"a":4,"b":1},"C":{"a":2,"b":8},"D":{"a":8,"b":2}},"conditions":["nonSeqFull","nonSeqPartial","seqNoFeedback","seqFeedback"],"classroomPairings":[["A","B"],["C","D"]],"coinWeights":[0.2,0.5,0.8],"subjectId":"A19WXS1CLVLEEX","assignmentId":"3OE22WJIGJAFI6YQDKCHT54ZGB6QUF","hitId":"3QGHA0EA0JM3KKNCY0PQRLYAHJ3BWH","url":"https://gershmanlab.com/experiments/alicia/teaching/experiment/?hitId=3QGHA0EA0JM3KKNCY0PQRLYAHJ3BWH&workerId=A19WXS1CLVLEEX&assignmentId=3OE22WJIGJAFI6YQDKCHT54ZGB6QUF&a=I2EO8&tp_a=I2EO8&b=3OE22WJIGJAFI6YQDKCHT54ZGB6QUF&tp_b=3OE22WJIGJAFI6YQDKCHT54ZGB6QUF&c=365198&tp_c=365198"},{"rt":42513,"response":{"heads":"2","tails":"8"},"type":"response","condition":"seqFeedback","trueTheta":0.2,"classrooms":["C","D"],"studentTrueClassroom":"D","exampleSet":"first","trial_type":"survey-html-form","trial_index":7,"time_elapsed":350475,"internal_node_id":"0.0-6.0-0.0","params":{"nStudents":24,"maxFlips":30,"completionMinutes":45,"basePay":8,"maxBonus":9,"perTrialBonus":0.5,"perTrialBonusThreshold":0.1,"exampleCost":0.01},"classroomParams":{"A":{"a":1,"b":4},"B":{"a":4,"b":1},"C":{"a":2,"b":8},"D":{"a":8,"b":2}},"conditions":["nonSeqFull","nonSeqPartial","seqNoFeedback","seqFeedback"],"classroomPairings":[["A","B"],["C","D"]],"coinWeights":[0.2,0.5,0.8],"subjectId":"A19WXS1CLVLEEX","assignmentId":"3OE22WJIGJAFI6YQDKCHT54ZGB6QUF","hitId":"3QGHA0EA0JM3KKNCY0PQRLYAHJ3BWH","url":"https://gershmanlab.com/experiments/alicia/teaching/experiment/?hitId=3QGHA0EA0JM3KKNCY0PQRLYAHJ3BWH&workerId=A19WXS1CLVLEEX&assignmentId=3OE22WJIGJAFI6YQDKCHT54ZGB6QUF&a=I2EO8&tp_a=I2EO8&b=3OE22WJIGJAFI6YQDKCHT54ZGB6QUF&tp_b=3OE22WJIGJAFI6YQDKCHT54ZGB6QUF&c=365198&tp_c=365198","heads":2,"tails":8,"studentIndex":0,"studentTrueHypers":{"a":8,"b":2},"studentGuess":0.5,"delta":0.3,"totalExamples":10,"bonusSoFar":0},{"rt":null,"stimulus":"Sending examples to student... ","response":null,"trial_type":"html-keyboard-response","trial_index":8,"time_elapsed":352228,"internal_node_id":"0.0-7.0","params":{"nStudents":24,"maxFlips":30,"completionMinutes":45,"basePay":8,"maxBonus":9,"perTrialBonus":0.5,"perTrialBonusThreshold":0.1,"exampleCost":0.01},"classroomParams":{"A":{"a":1,"b":4},"B":{"a":4,"b":1},"C":{"a":2,"b":8},"D":{"a":8,"b":2}},"conditions":["nonSeqFull","nonSeqPartial","seqNoFeedback","seqFeedback"],"classroomPairings":[["A","B"],["C","D"]],"coinWeights":[0.2,0.5,0.8],"subjectId":"A19WXS1CLVLEEX","assignmentId":"3OE22WJIGJAFI6YQDKCHT54ZGB6QUF","hitId":"3QGHA0EA0JM3KKNCY0PQRLYAHJ3BWH","url":"https://gershmanlab.com/experiments/alicia/teaching/experiment/?hitId=3QGHA0EA0JM3KKNCY0PQRLYAHJ3BWH&workerId=A19WXS1CLVLEEX&assignmentId=3OE22WJIGJAFI6YQDKCHT54ZGB6QUF&a=I2EO8&tp_a=I2EO8&b=3OE22WJIGJAFI6YQDKCHT54ZGB6QUF&tp_b=3OE22WJIGJAFI6YQDKCHT54ZGB6QUF&c=365198&tp_c=365198"},{"rt":null,"stimulus":"Examples sent to student! Waiting for student...","response":null,"trial_type":"html-keyboard-response","trial_index":9,"time_elapsed":356744,"internal_node_id":"0.0-8.0","params":{"nStudents":24,"maxFlips":30,"completionMinutes":45,"basePay":8,"maxBonus":9,"perTrialBonus":0.5,"perTrialBonusThreshold":0.1,"exampleCost":0.01},"classroomParams":{"A":{"a":1,"b":4},"B":{"a":4,"b":1},"C":{"a":2,"b":8},"D":{"a":8,"b":2}},"conditions":["nonSeqFull","nonSeqPartial","seqNoFeedback","seqFeedback"],"classroomPairings":[["A","B"],["C","D"]],"coinWeights":[0.2,0.5,0.8],"subjectId":"A19WXS1CLVLEEX","assignmentId":"3OE22WJIGJAFI6YQDKCHT54ZGB6QUF","hitId":"3QGHA0EA0JM3KKNCY0PQRLYAHJ3BWH","url":"https://gershmanlab.com/experiments/alicia/teaching/experiment/?hitId=3QGHA0EA0JM3KKNCY0PQRLYAHJ3BWH&workerId=A19WXS1CLVLEEX&assignmentId=3OE22WJIGJAFI6YQDKCHT54ZGB6QUF&a=I2EO8&tp_a=I2EO8&b=3OE22WJIGJAFI6YQDKCHT54ZGB6QUF&tp_b=3OE22WJIGJAFI6YQDKCHT54ZGB6QUF&c=365198&tp_c=365198"},{"rt":6189,"stimulus":"\n                <p>Student's guess for coin weight: <b style=\"color:Tomato;\">0.50</b></p>\n                <p></b></p>\n                <p>You will now send another set of examples to your student. Press any key to continue.</p>\n                ","response":" ","trial_type":"html-keyboard-response","trial_index":10,"time_elapsed":362936,"internal_node_id":"0.0-9.0","params":{"nStudents":24,"maxFlips":30,"completionMinutes":45,"basePay":8,"maxBonus":9,"perTrialBonus":0.5,"perTrialBonusThreshold":0.1,"exampleCost":0.01},"classroomParams":{"A":{"a":1,"b":4},"B":{"a":4,"b":1},"C":{"a":2,"b":8},"D":{"a":8,"b":2}},"conditions":["nonSeqFull","nonSeqPartial","seqNoFeedback","seqFeedback"],"classroomPairings":[["A","B"],["C","D"]],"coinWeights":[0.2,0.5,0.8],"subjectId":"A19WXS1CLVLEEX","assignmentId":"3OE22WJIGJAFI6YQDKCHT54ZGB6QUF","hitId":"3QGHA0EA0JM3KKNCY0PQRLYAHJ3BWH","url":"https://gershmanlab.com/experiments/alicia/teaching/experiment/?hitId=3QGHA0EA0JM3KKNCY0PQRLYAHJ3BWH&workerId=A19WXS1CLVLEEX&assignmentId=3OE22WJIGJAFI6YQDKCHT54ZGB6QUF&a=I2EO8&tp_a=I2EO8&b=3OE22WJIGJAFI6YQDKCHT54ZGB6QUF&tp_b=3OE22WJIGJAFI6YQDKCHT54ZGB6QUF&c=365198&tp_c=365198"},{"rt":14173,"response":{"heads":"2","tails":"10"},"type":"response","condition":"seqFeedback","trueTheta":0.2,"classrooms":["C","D"],"studentTrueClassroom":"D","exampleSet":"second","trial_type":"survey-html-form","trial_index":11,"time_elapsed":377110,"internal_node_id":"0.0-10.0-0.0","params":{"nStudents":24,"maxFlips":30,"completionMinutes":45,"basePay":8,"maxBonus":9,"perTrialBonus":0.5,"perTrialBonusThreshold":0.1,"exampleCost":0.01},"classroomParams":{"A":{"a":1,"b":4},"B":{"a":4,"b":1},"C":{"a":2,"b":8},"D":{"a":8,"b":2}},"conditions":["nonSeqFull","nonSeqPartial","seqNoFeedback","seqFeedback"],"classroomPairings":[["A","B"],["C","D"]],"coinWeights":[0.2,0.5,0.8],"subjectId":"A19WXS1CLVLEEX","assignmentId":"3OE22WJIGJAFI6YQDKCHT54ZGB6QUF","hitId":"3QGHA0EA0JM3KKNCY0PQRLYAHJ3BWH","url":"https://gershmanlab.com/experiments/alicia/teaching/experiment/?hitId=3QGHA0EA0JM3KKNCY0PQRLYAHJ3BWH&workerId=A19WXS1CLVLEEX&assignmentId=3OE22WJIGJAFI6YQDKCHT54ZGB6QUF&a=I2EO8&tp_a=I2EO8&b=3OE22WJIGJAFI6YQDKCHT54ZGB6QUF&tp_b=3OE22WJIGJAFI6YQDKCHT54ZGB6QUF&c=365198&tp_c=365198","firstResponseHeads":2,"firstResponseTails":8,"secondResponseHeads":2,"secondResponseTails":10,"studentIndex":0,"studentTrueHypers":{"a":8,"b":2},"studentGuess":0.375,"delta":0.175,"bonus":0,"bonusSoFar":0,"totalExamples":22},{"rt":null,"stimulus":"Sending examples to student... ","response":null,"trial_type":"html-keyboard-response","trial_index":12,"time_elapsed":378371,"internal_node_id":"0.0-11.0","params":{"nStudents":24,"maxFlips":30,"completionMinutes":45,"basePay":8,"maxBonus":9,"perTrialBonus":0.5,"perTrialBonusThreshold":0.1,"exampleCost":0.01},"classroomParams":{"A":{"a":1,"b":4},"B":{"a":4,"b":1},"C":{"a":2,"b":8},"D":{"a":8,"b":2}},"conditions":["nonSeqFull","nonSeqPartial","seqNoFeedback","seqFeedback"],"classroomPairings":[["A","B"],["C","D"]],"coinWeights":[0.2,0.5,0.8],"subjectId":"A19WXS1CLVLEEX","assignmentId":"3OE22WJIGJAFI6YQDKCHT54ZGB6QUF","hitId":"3QGHA0EA0JM3KKNCY0PQRLYAHJ3BWH","url":"https://gershmanlab.com/experiments/alicia/teaching/experiment/?hitId=3QGHA0EA0JM3KKNCY0PQRLYAHJ3BWH&workerId=A19WXS1CLVLEEX&assignmentId=3OE22WJIGJAFI6YQDKCHT54ZGB6QUF&a=I2EO8&tp_a=I2EO8&b=3OE22WJIGJAFI6YQDKCHT54ZGB6QUF&tp_b=3OE22WJIGJAFI6YQDKCHT54ZGB6QUF&c=365198&tp_c=365198"},{"rt":null,"stimulus":"Examples sent to student! Waiting for student...","response":null,"trial_type":"html-keyboard-response","trial_index":13,"time_elapsed":384388,"internal_node_id":"0.0-12.0","params":{"nStudents":24,"maxFlips":30,"completionMinutes":45,"basePay":8,"maxBonus":9,"perTrialBonus":0.5,"perTrialBonusThreshold":0.1,"exampleCost":0.01},"classroomParams":{"A":{"a":1,"b":4},"B":{"a":4,"b":1},"C":{"a":2,"b":8},"D":{"a":8,"b":2}},"conditions":["nonSeqFull","nonSeqPartial","seqNoFeedback","seqFeedback"],"classroomPairings":[["A","B"],["C","D"]],"coinWeights":[0.2,0.5,0.8],"subjectId":"A19WXS1CLVLEEX","assignmentId":"3OE22WJIGJAFI6YQDKCHT54ZGB6QUF","hitId":"3QGHA0EA0JM3KKNCY0PQRLYAHJ3BWH","url":"https://gershmanlab.com/experiments/alicia/teaching/experiment/?hitId=3QGHA0EA0JM3KKNCY0PQRLYAHJ3BWH&workerId=A19WXS1CLVLEEX&assignmentId=3OE22WJIGJAFI6YQDKCHT54ZGB6QUF&a=I2EO8&tp_a=I2EO8&b=3OE22WJIGJAFI6YQDKCHT54ZGB6QUF&tp_b=3OE22WJIGJAFI6YQDKCHT54ZGB6QUF&c=365198&tp_c=365198"},{"rt":6789,"stimulus":"\n                <p>Student 1's first guess for coin weight: <b style=\"color:Tomato\";>0.50</b></p>\n                <p>Student 1's second guess for coin weight: <b style=\"color:Tomato\";>0.38</b></p>\n                <p>You received a bonus of <b>$0.00</b> based on the student's second guess.</p>\n                <p>Total bonus so far: <b>$0.00</b></p>\n                <p>Press any key to continue.</p>\n                ","response":" ","trial_type":"html-keyboard-response","trial_index":14,"time_elapsed":391179,"internal_node_id":"0.0-13.0","params":{"nStudents":24,"maxFlips":30,"completionMinutes":45,"basePay":8,"maxBonus":9,"perTrialBonus":0.5,"perTrialBonusThreshold":0.1,"exampleCost":0.01},"classroomParams":{"A":{"a":1,"b":4},"B":{"a":4,"b":1},"C":{"a":2,"b":8},"D":{"a":8,"b":2}},"conditions":["nonSeqFull","nonSeqPartial","seqNoFeedback","seqFeedback"],"classroomPairings":[["A","B"],["C","D"]],"coinWeights":[0.2,0.5,0.8],"subjectId":"A19WXS1CLVLEEX","assignmentId":"3OE22WJIGJAFI6YQDKCHT54ZGB6QUF","hitId":"3QGHA0EA0JM3KKNCY0PQRLYAHJ3BWH","url":"https://gershmanlab.com/experiments/alicia/teaching/experiment/?hitId=3QGHA0EA0JM3KKNCY0PQRLYAHJ3BWH&workerId=A19WXS1CLVLEEX&assignmentId=3OE22WJIGJAFI6YQDKCHT54ZGB6QUF&a=I2EO8&tp_a=I2EO8&b=3OE22WJIGJAFI6YQDKCHT54ZGB6QUF&tp_b=3OE22WJIGJAFI6YQDKCHT54ZGB6QUF&c=365198&tp_c=365198"},{"rt":null,"stimulus":"<div style=\"font-size:60px;\">Next student</div>","response":null,"trial_type":"html-keyboard-response","trial_index":15,"time_elapsed":393691,"internal_node_id":"0.0-14.0-0.0","params":{"nStudents":24,"maxFlips":30,"completionMinutes":45,"basePay":8,"maxBonus":9,"perTrialBonus":0.5,"perTrialBonusThreshold":0.1,"exampleCost":0.01},"classroomParams":{"A":{"a":1,"b":4},"B":{"a":4,"b":1},"C":{"a":2,"b":8},"D":{"a":8,"b":2}},"conditions":["nonSeqFull","nonSeqPartial","seqNoFeedback","seqFeedback"],"classroomPairings":[["A","B"],["C","D"]],"coinWeights":[0.2,0.5,0.8],"subjectId":"A19WXS1CLVLEEX","assignmentId":"3OE22WJIGJAFI6YQDKCHT54ZGB6QUF","hitId":"3QGHA0EA0JM3KKNCY0PQRLYAHJ3BWH","url":"https://gershmanlab.com/experiments/alicia/teaching/experiment/?hitId=3QGHA0EA0JM3KKNCY0PQRLYAHJ3BWH&workerId=A19WXS1CLVLEEX&assignmentId=3OE22WJIGJAFI6YQDKCHT54ZGB6QUF&a=I2EO8&tp_a=I2EO8&b=3OE22WJIGJAFI6YQDKCHT54ZGB6QUF&tp_b=3OE22WJIGJAFI6YQDKCHT54ZGB6QUF&c=365198&tp_c=365198"},{"rt":5181,"stimulus":"\n            <h4 style=\"color:Orange;\">Student 2</h4>\n            <h2>The weight of your coin is <b style=\"color:Tomato;\">0.2</b>.</h2>\n            <p>In this block, you will be giving <b>two</b> sets of examples to Student 2.</p>\n                <p>You will receive feedback at the end of the block.</p>\n            ","response":0,"trial_type":"html-button-response","trial_index":16,"time_elapsed":398874,"internal_node_id":"0.0-15.0","params":{"nStudents":24,"maxFlips":30,"completionMinutes":45,"basePay":8,"maxBonus":9,"perTrialBonus":0.5,"perTrialBonusThreshold":0.1,"exampleCost":0.01},"classroomParams":{"A":{"a":1,"b":4},"B":{"a":4,"b":1},"C":{"a":2,"b":8},"D":{"a":8,"b":2}},"conditions":["nonSeqFull","nonSeqPartial","seqNoFeedback","seqFeedback"],"classroomPairings":[["A","B"],["C","D"]],"coinWeights":[0.2,0.5,0.8],"subjectId":"A19WXS1CLVLEEX","assignmentId":"3OE22WJIGJAFI6YQDKCHT54ZGB6QUF","hitId":"3QGHA0EA0JM3KKNCY0PQRLYAHJ3BWH","url":"https://gershmanlab.com/experiments/alicia/teaching/experiment/?hitId=3QGHA0EA0JM3KKNCY0PQRLYAHJ3BWH&workerId=A19WXS1CLVLEEX&assignmentId=3OE22WJIGJAFI6YQDKCHT54ZGB6QUF&a=I2EO8&tp_a=I2EO8&b=3OE22WJIGJAFI6YQDKCHT54ZGB6QUF&tp_b=3OE22WJIGJAFI6YQDKCHT54ZGB6QUF&c=365198&tp_c=365198"},{"rt":13410,"response":{"heads":"2","tails":"20"},"type":"response","condition":"seqNoFeedback","trueTheta":0.2,"classrooms":["C","D"],"studentTrueClassroom":"C","exampleSet":"first","trial_type":"survey-html-form","trial_index":17,"time_elapsed":412285,"internal_node_id":"0.0-16.0-0.0","params":{"nStudents":24,"maxFlips":30,"completionMinutes":45,"basePay":8,"maxBonus":9,"perTrialBonus":0.5,"perTrialBonusThreshold":0.1,"exampleCost":0.01},"classroomParams":{"A":{"a":1,"b":4},"B":{"a":4,"b":1},"C":{"a":2,"b":8},"D":{"a":8,"b":2}},"conditions":["nonSeqFull","nonSeqPartial","seqNoFeedback","seqFeedback"],"classroomPairings":[["A","B"],["C","D"]],"coinWeights":[0.2,0.5,0.8],"subjectId":"A19WXS1CLVLEEX","assignmentId":"3OE22WJIGJAFI6YQDKCHT54ZGB6QUF","hitId":"3QGHA0EA0JM3KKNCY0PQRLYAHJ3BWH","url":"https://gershmanlab.com/experiments/alicia/teaching/experiment/?hitId=3QGHA0EA0JM3KKNCY0PQRLYAHJ3BWH&workerId=A19WXS1CLVLEEX&assignmentId=3OE22WJIGJAFI6YQDKCHT54ZGB6QUF&a=I2EO8&tp_a=I2EO8&b=3OE22WJIGJAFI6YQDKCHT54ZGB6QUF&tp_b=3OE22WJIGJAFI6YQDKCHT54ZGB6QUF&c=365198&tp_c=365198","heads":2,"tails":20,"studentIndex":1,"studentTrueHypers":{"a":2,"b":8},"studentGuess":0.125,"delta":0.07500000000000001,"totalExamples":22,"bonusSoFar":0},{"rt":null,"stimulus":"Sending examples to student... ","response":null,"trial_type":"html-keyboard-response","trial_index":18,"time_elapsed":413797,"internal_node_id":"0.0-17.0","params":{"nStudents":24,"maxFlips":30,"completionMinutes":45,"basePay":8,"maxBonus":9,"perTrialBonus":0.5,"perTrialBonusThreshold":0.1,"exampleCost":0.01},"classroomParams":{"A":{"a":1,"b":4},"B":{"a":4,"b":1},"C":{"a":2,"b":8},"D":{"a":8,"b":2}},"conditions":["nonSeqFull","nonSeqPartial","seqNoFeedback","seqFeedback"],"classroomPairings":[["A","B"],["C","D"]],"coinWeights":[0.2,0.5,0.8],"subjectId":"A19WXS1CLVLEEX","assignmentId":"3OE22WJIGJAFI6YQDKCHT54ZGB6QUF","hitId":"3QGHA0EA0JM3KKNCY0PQRLYAHJ3BWH","url":"https://gershmanlab.com/experiments/alicia/teaching/experiment/?hitId=3QGHA0EA0JM3KKNCY0PQRLYAHJ3BWH&workerId=A19WXS1CLVLEEX&assignmentId=3OE22WJIGJAFI6YQDKCHT54ZGB6QUF&a=I2EO8&tp_a=I2EO8&b=3OE22WJIGJAFI6YQDKCHT54ZGB6QUF&tp_b=3OE22WJIGJAFI6YQDKCHT54ZGB6QUF&c=365198&tp_c=365198"},{"rt":null,"stimulus":"Examples sent to student! Waiting for student...","response":null,"trial_type":"html-keyboard-response","trial_index":19,"time_elapsed":419306,"internal_node_id":"0.0-18.0","params":{"nStudents":24,"maxFlips":30,"completionMinutes":45,"basePay":8,"maxBonus":9,"perTrialBonus":0.5,"perTrialBonusThreshold":0.1,"exampleCost":0.01},"classroomParams":{"A":{"a":1,"b":4},"B":{"a":4,"b":1},"C":{"a":2,"b":8},"D":{"a":8,"b":2}},"conditions":["nonSeqFull","nonSeqPartial","seqNoFeedback","seqFeedback"],"classroomPairings":[["A","B"],["C","D"]],"coinWeights":[0.2,0.5,0.8],"subjectId":"A19WXS1CLVLEEX","assignmentId":"3OE22WJIGJAFI6YQDKCHT54ZGB6QUF","hitId":"3QGHA0EA0JM3KKNCY0PQRLYAHJ3BWH","url":"https://gershmanlab.com/experiments/alicia/teaching/experiment/?hitId=3QGHA0EA0JM3KKNCY0PQRLYAHJ3BWH&workerId=A19WXS1CLVLEEX&assignmentId=3OE22WJIGJAFI6YQDKCHT54ZGB6QUF&a=I2EO8&tp_a=I2EO8&b=3OE22WJIGJAFI6YQDKCHT54ZGB6QUF&tp_b=3OE22WJIGJAFI6YQDKCHT54ZGB6QUF&c=365198&tp_c=365198"},{"rt":14009,"response":{"heads":"2","tails":"20"},"type":"response","condition":"seqNoFeedback","trueTheta":0.2,"classrooms":["C","D"],"studentTrueClassroom":"C","exampleSet":"second","trial_type":"survey-html-form","trial_index":20,"time_elapsed":433317,"internal_node_id":"0.0-19.0-0.0","params":{"nStudents":24,"maxFlips":30,"completionMinutes":45,"basePay":8,"maxBonus":9,"perTrialBonus":0.5,"perTrialBonusThreshold":0.1,"exampleCost":0.01},"classroomParams":{"A":{"a":1,"b":4},"B":{"a":4,"b":1},"C":{"a":2,"b":8},"D":{"a":8,"b":2}},"conditions":["nonSeqFull","nonSeqPartial","seqNoFeedback","seqFeedback"],"classroomPairings":[["A","B"],["C","D"]],"coinWeights":[0.2,0.5,0.8],"subjectId":"A19WXS1CLVLEEX","assignmentId":"3OE22WJIGJAFI6YQDKCHT54ZGB6QUF","hitId":"3QGHA0EA0JM3KKNCY0PQRLYAHJ3BWH","url":"https://gershmanlab.com/experiments/alicia/teaching/experiment/?hitId=3QGHA0EA0JM3KKNCY0PQRLYAHJ3BWH&workerId=A19WXS1CLVLEEX&assignmentId=3OE22WJIGJAFI6YQDKCHT54ZGB6QUF&a=I2EO8&tp_a=I2EO8&b=3OE22WJIGJAFI6YQDKCHT54ZGB6QUF&tp_b=3OE22WJIGJAFI6YQDKCHT54ZGB6QUF&c=365198&tp_c=365198","firstResponseHeads":2,"firstResponseTails":20,"secondResponseHeads":2,"secondResponseTails":20,"studentIndex":1,"studentTrueHypers":{"a":2,"b":8},"studentGuess":0.1111111111111111,"delta":0.0888888888888889,"bonus":0.06,"bonusSoFar":0.06,"totalExamples":44},{"rt":null,"stimulus":"Sending examples to student... ","response":null,"trial_type":"html-keyboard-response","trial_index":21,"time_elapsed":434578,"internal_node_id":"0.0-20.0","params":{"nStudents":24,"maxFlips":30,"completionMinutes":45,"basePay":8,"maxBonus":9,"perTrialBonus":0.5,"perTrialBonusThreshold":0.1,"exampleCost":0.01},"classroomParams":{"A":{"a":1,"b":4},"B":{"a":4,"b":1},"C":{"a":2,"b":8},"D":{"a":8,"b":2}},"conditions":["nonSeqFull","nonSeqPartial","seqNoFeedback","seqFeedback"],"classroomPairings":[["A","B"],["C","D"]],"coinWeights":[0.2,0.5,0.8],"subjectId":"A19WXS1CLVLEEX","assignmentId":"3OE22WJIGJAFI6YQDKCHT54ZGB6QUF","hitId":"3QGHA0EA0JM3KKNCY0PQRLYAHJ3BWH","url":"https://gershmanlab.com/experiments/alicia/teaching/experiment/?hitId=3QGHA0EA0JM3KKNCY0PQRLYAHJ3BWH&workerId=A19WXS1CLVLEEX&assignmentId=3OE22WJIGJAFI6YQDKCHT54ZGB6QUF&a=I2EO8&tp_a=I2EO8&b=3OE22WJIGJAFI6YQDKCHT54ZGB6QUF&tp_b=3OE22WJIGJAFI6YQDKCHT54ZGB6QUF&c=365198&tp_c=365198"},{"rt":null,"stimulus":"Examples sent to student! Waiting for student...","response":null,"trial_type":"html-keyboard-response","trial_index":22,"time_elapsed":438591,"internal_node_id":"0.0-21.0","params":{"nStudents":24,"maxFlips":30,"completionMinutes":45,"basePay":8,"maxBonus":9,"perTrialBonus":0.5,"perTrialBonusThreshold":0.1,"exampleCost":0.01},"classroomParams":{"A":{"a":1,"b":4},"B":{"a":4,"b":1},"C":{"a":2,"b":8},"D":{"a":8,"b":2}},"conditions":["nonSeqFull","nonSeqPartial","seqNoFeedback","seqFeedback"],"classroomPairings":[["A","B"],["C","D"]],"coinWeights":[0.2,0.5,0.8],"subjectId":"A19WXS1CLVLEEX","assignmentId":"3OE22WJIGJAFI6YQDKCHT54ZGB6QUF","hitId":"3QGHA0EA0JM3KKNCY0PQRLYAHJ3BWH","url":"https://gershmanlab.com/experiments/alicia/teaching/experiment/?hitId=3QGHA0EA0JM3KKNCY0PQRLYAHJ3BWH&workerId=A19WXS1CLVLEEX&assignmentId=3OE22WJIGJAFI6YQDKCHT54ZGB6QUF&a=I2EO8&tp_a=I2EO8&b=3OE22WJIGJAFI6YQDKCHT54ZGB6QUF&tp_b=3OE22WJIGJAFI6YQDKCHT54ZGB6QUF&c=365198&tp_c=365198"},{"rt":9478,"stimulus":"\n                <p>Student 2's first guess for coin weight: <b style=\"color:Tomato\";>0.13</b></p>\n                <p>Student 2's second guess for coin weight: <b style=\"color:Tomato\";>0.11</b></p>\n                <p>You received a bonus of <b>$0.06</b> based on the student's second guess.</p>\n                <p>Total bonus so far: <b>$0.06</b></p>\n                <p>Press any key to continue.</p>\n                ","response":" ","trial_type":"html-keyboard-response","trial_index":23,"time_elapsed":448071,"internal_node_id":"0.0-22.0","params":{"nStudents":24,"maxFlips":30,"completionMinutes":45,"basePay":8,"maxBonus":9,"perTrialBonus":0.5,"perTrialBonusThreshold":0.1,"exampleCost":0.01},"classroomParams":{"A":{"a":1,"b":4},"B":{"a":4,"b":1},"C":{"a":2,"b":8},"D":{"a":8,"b":2}},"conditions":["nonSeqFull","nonSeqPartial","seqNoFeedback","seqFeedback"],"classroomPairings":[["A","B"],["C","D"]],"coinWeights":[0.2,0.5,0.8],"subjectId":"A19WXS1CLVLEEX","assignmentId":"3OE22WJIGJAFI6YQDKCHT54ZGB6QUF","hitId":"3QGHA0EA0JM3KKNCY0PQRLYAHJ3BWH","url":"https://gershmanlab.com/experiments/alicia/teaching/experiment/?hitId=3QGHA0EA0JM3KKNCY0PQRLYAHJ3BWH&workerId=A19WXS1CLVLEEX&assignmentId=3OE22WJIGJAFI6YQDKCHT54ZGB6QUF&a=I2EO8&tp_a=I2EO8&b=3OE22WJIGJAFI6YQDKCHT54ZGB6QUF&tp_b=3OE22WJIGJAFI6YQDKCHT54ZGB6QUF&c=365198&tp_c=365198"},{"rt":null,"stimulus":"<div style=\"font-size:60px;\">Next student</div>","response":null,"trial_type":"html-keyboard-response","trial_index":24,"time_elapsed":451072,"internal_node_id":"0.0-23.0-0.0","params":{"nStudents":24,"maxFlips":30,"completionMinutes":45,"basePay":8,"maxBonus":9,"perTrialBonus":0.5,"perTrialBonusThreshold":0.1,"exampleCost":0.01},"classroomParams":{"A":{"a":1,"b":4},"B":{"a":4,"b":1},"C":{"a":2,"b":8},"D":{"a":8,"b":2}},"conditions":["nonSeqFull","nonSeqPartial","seqNoFeedback","seqFeedback"],"classroomPairings":[["A","B"],["C","D"]],"coinWeights":[0.2,0.5,0.8],"subjectId":"A19WXS1CLVLEEX","assignmentId":"3OE22WJIGJAFI6YQDKCHT54ZGB6QUF","hitId":"3QGHA0EA0JM3KKNCY0PQRLYAHJ3BWH","url":"https://gershmanlab.com/experiments/alicia/teaching/experiment/?hitId=3QGHA0EA0JM3KKNCY0PQRLYAHJ3BWH&workerId=A19WXS1CLVLEEX&assignmentId=3OE22WJIGJAFI6YQDKCHT54ZGB6QUF&a=I2EO8&tp_a=I2EO8&b=3OE22WJIGJAFI6YQDKCHT54ZGB6QUF&tp_b=3OE22WJIGJAFI6YQDKCHT54ZGB6QUF&c=365198&tp_c=365198"},{"rt":3954,"stimulus":"\n            <h4 style=\"color:Orange;\">Student 3</h4>\n            <h2>The weight of your coin is <b style=\"color:Tomato;\">0.2</b>.</h2>\n            <p>In this block, you will be giving <b>one</b> set of examples to Student 3.</p>\n                <p>You will receive feedback at the end of the block.</p>\n            ","response":0,"trial_type":"html-button-response","trial_index":25,"time_elapsed":455028,"internal_node_id":"0.0-24.0","params":{"nStudents":24,"maxFlips":30,"completionMinutes":45,"basePay":8,"maxBonus":9,"perTrialBonus":0.5,"perTrialBonusThreshold":0.1,"exampleCost":0.01},"classroomParams":{"A":{"a":1,"b":4},"B":{"a":4,"b":1},"C":{"a":2,"b":8},"D":{"a":8,"b":2}},"conditions":["nonSeqFull","nonSeqPartial","seqNoFeedback","seqFeedback"],"classroomPairings":[["A","B"],["C","D"]],"coinWeights":[0.2,0.5,0.8],"subjectId":"A19WXS1CLVLEEX","assignmentId":"3OE22WJIGJAFI6YQDKCHT54ZGB6QUF","hitId":"3QGHA0EA0JM3KKNCY0PQRLYAHJ3BWH","url":"https://gershmanlab.com/experiments/alicia/teaching/experiment/?hitId=3QGHA0EA0JM3KKNCY0PQRLYAHJ3BWH&workerId=A19WXS1CLVLEEX&assignmentId=3OE22WJIGJAFI6YQDKCHT54ZGB6QUF&a=I2EO8&tp_a=I2EO8&b=3OE22WJIGJAFI6YQDKCHT54ZGB6QUF&tp_b=3OE22WJIGJAFI6YQDKCHT54ZGB6QUF&c=365198&tp_c=365198"},{"rt":8939,"response":{"heads":"2","tails":"16"},"type":"response","condition":"nonSeqFull","trueTheta":0.2,"classrooms":["C","D"],"studentTrueClassroom":"C","exampleSet":"first","trial_type":"survey-html-form","trial_index":26,"time_elapsed":463969,"internal_node_id":"0.0-25.0-0.0","params":{"nStudents":24,"maxFlips":30,"completionMinutes":45,"basePay":8,"maxBonus":9,"perTrialBonus":0.5,"perTrialBonusThreshold":0.1,"exampleCost":0.01},"classroomParams":{"A":{"a":1,"b":4},"B":{"a":4,"b":1},"C":{"a":2,"b":8},"D":{"a":8,"b":2}},"conditions":["nonSeqFull","nonSeqPartial","seqNoFeedback","seqFeedback"],"classroomPairings":[["A","B"],["C","D"]],"coinWeights":[0.2,0.5,0.8],"subjectId":"A19WXS1CLVLEEX","assignmentId":"3OE22WJIGJAFI6YQDKCHT54ZGB6QUF","hitId":"3QGHA0EA0JM3KKNCY0PQRLYAHJ3BWH","url":"https://gershmanlab.com/experiments/alicia/teaching/experiment/?hitId=3QGHA0EA0JM3KKNCY0PQRLYAHJ3BWH&workerId=A19WXS1CLVLEEX&assignmentId=3OE22WJIGJAFI6YQDKCHT54ZGB6QUF&a=I2EO8&tp_a=I2EO8&b=3OE22WJIGJAFI6YQDKCHT54ZGB6QUF&tp_b=3OE22WJIGJAFI6YQDKCHT54ZGB6QUF&c=365198&tp_c=365198","heads":2,"tails":16,"studentIndex":2,"studentTrueHypers":{"a":2,"b":8},"studentGuess":0.14285714285714285,"delta":0.05714285714285716,"totalExamples":18,"bonus":0.32,"bonusSoFar":0.38},{"rt":null,"stimulus":"Sending examples to student... ","response":null,"trial_type":"html-keyboard-response","trial_index":27,"time_elapsed":465484,"internal_node_id":"0.0-26.0","params":{"nStudents":24,"maxFlips":30,"completionMinutes":45,"basePay":8,"maxBonus":9,"perTrialBonus":0.5,"perTrialBonusThreshold":0.1,"exampleCost":0.01},"classroomParams":{"A":{"a":1,"b":4},"B":{"a":4,"b":1},"C":{"a":2,"b":8},"D":{"a":8,"b":2}},"conditions":["nonSeqFull","nonSeqPartial","seqNoFeedback","seqFeedback"],"classroomPairings":[["A","B"],["C","D"]],"coinWeights":[0.2,0.5,0.8],"subjectId":"A19WXS1CLVLEEX","assignmentId":"3OE22WJIGJAFI6YQDKCHT54ZGB6QUF","hitId":"3QGHA0EA0JM3KKNCY0PQRLYAHJ3BWH","url":"https://gershmanlab.com/experiments/alicia/teaching/experiment/?hitId=3QGHA0EA0JM3KKNCY0PQRLYAHJ3BWH&workerId=A19WXS1CLVLEEX&assignmentId=3OE22WJIGJAFI6YQDKCHT54ZGB6QUF&a=I2EO8&tp_a=I2EO8&b=3OE22WJIGJAFI6YQDKCHT54ZGB6QUF&tp_b=3OE22WJIGJAFI6YQDKCHT54ZGB6QUF&c=365198&tp_c=365198"},{"rt":null,"stimulus":"Examples sent to student! Waiting for student...","response":null,"trial_type":"html-keyboard-response","trial_index":28,"time_elapsed":469988,"internal_node_id":"0.0-27.0","params":{"nStudents":24,"maxFlips":30,"completionMinutes":45,"basePay":8,"maxBonus":9,"perTrialBonus":0.5,"perTrialBonusThreshold":0.1,"exampleCost":0.01},"classroomParams":{"A":{"a":1,"b":4},"B":{"a":4,"b":1},"C":{"a":2,"b":8},"D":{"a":8,"b":2}},"conditions":["nonSeqFull","nonSeqPartial","seqNoFeedback","seqFeedback"],"classroomPairings":[["A","B"],["C","D"]],"coinWeights":[0.2,0.5,0.8],"subjectId":"A19WXS1CLVLEEX","assignmentId":"3OE22WJIGJAFI6YQDKCHT54ZGB6QUF","hitId":"3QGHA0EA0JM3KKNCY0PQRLYAHJ3BWH","url":"https://gershmanlab.com/experiments/alicia/teaching/experiment/?hitId=3QGHA0EA0JM3KKNCY0PQRLYAHJ3BWH&workerId=A19WXS1CLVLEEX&assignmentId=3OE22WJIGJAFI6YQDKCHT54ZGB6QUF&a=I2EO8&tp_a=I2EO8&b=3OE22WJIGJAFI6YQDKCHT54ZGB6QUF&tp_b=3OE22WJIGJAFI6YQDKCHT54ZGB6QUF&c=365198&tp_c=365198"},{"rt":6350,"stimulus":"\n                <p>Student's guess for coin weight: <b style=\"color:Tomato;\">0.14</b></p>\n                <p>You received a bonus of <b>$0.32</b>. Total bonus so far: <b>$0.38</b></b></p>\n                <p> Press any key to continue.</p>\n                ","response":" ","trial_type":"html-keyboard-response","trial_index":29,"time_elapsed":476339,"internal_node_id":"0.0-28.0","params":{"nStudents":24,"maxFlips":30,"completionMinutes":45,"basePay":8,"maxBonus":9,"perTrialBonus":0.5,"perTrialBonusThreshold":0.1,"exampleCost":0.01},"classroomParams":{"A":{"a":1,"b":4},"B":{"a":4,"b":1},"C":{"a":2,"b":8},"D":{"a":8,"b":2}},"conditions":["nonSeqFull","nonSeqPartial","seqNoFeedback","seqFeedback"],"classroomPairings":[["A","B"],["C","D"]],"coinWeights":[0.2,0.5,0.8],"subjectId":"A19WXS1CLVLEEX","assignmentId":"3OE22WJIGJAFI6YQDKCHT54ZGB6QUF","hitId":"3QGHA0EA0JM3KKNCY0PQRLYAHJ3BWH","url":"https://gershmanlab.com/experiments/alicia/teaching/experiment/?hitId=3QGHA0EA0JM3KKNCY0PQRLYAHJ3BWH&workerId=A19WXS1CLVLEEX&assignmentId=3OE22WJIGJAFI6YQDKCHT54ZGB6QUF&a=I2EO8&tp_a=I2EO8&b=3OE22WJIGJAFI6YQDKCHT54ZGB6QUF&tp_b=3OE22WJIGJAFI6YQDKCHT54ZGB6QUF&c=365198&tp_c=365198"},{"rt":null,"stimulus":"<div style=\"font-size:60px;\">Next student</div>","response":null,"trial_type":"html-keyboard-response","trial_index":30,"time_elapsed":478603,"internal_node_id":"0.0-29.0-0.0","params":{"nStudents":24,"maxFlips":30,"completionMinutes":45,"basePay":8,"maxBonus":9,"perTrialBonus":0.5,"perTrialBonusThreshold":0.1,"exampleCost":0.01},"classroomParams":{"A":{"a":1,"b":4},"B":{"a":4,"b":1},"C":{"a":2,"b":8},"D":{"a":8,"b":2}},"conditions":["nonSeqFull","nonSeqPartial","seqNoFeedback","seqFeedback"],"classroomPairings":[["A","B"],["C","D"]],"coinWeights":[0.2,0.5,0.8],"subjectId":"A19WXS1CLVLEEX","assignmentId":"3OE22WJIGJAFI6YQDKCHT54ZGB6QUF","hitId":"3QGHA0EA0JM3KKNCY0PQRLYAHJ3BWH","url":"https://gershmanlab.com/experiments/alicia/teaching/experiment/?hitId=3QGHA0EA0JM3KKNCY0PQRLYAHJ3BWH&workerId=A19WXS1CLVLEEX&assignmentId=3OE22WJIGJAFI6YQDKCHT54ZGB6QUF&a=I2EO8&tp_a=I2EO8&b=3OE22WJIGJAFI6YQDKCHT54ZGB6QUF&tp_b=3OE22WJIGJAFI6YQDKCHT54ZGB6QUF&c=365198&tp_c=365198"},{"rt":2503,"stimulus":"\n            <h4 style=\"color:Orange;\">Student 4</h4>\n            <h2>The weight of your coin is <b style=\"color:Tomato;\">0.8</b>.</h2>\n            <p>In this block, you will be giving <b>one</b> set of examples to Student 4.</p>\n                <p>You will receive feedback at the end of the block.</p>\n            ","response":0,"trial_type":"html-button-response","trial_index":31,"time_elapsed":481108,"internal_node_id":"0.0-30.0","params":{"nStudents":24,"maxFlips":30,"completionMinutes":45,"basePay":8,"maxBonus":9,"perTrialBonus":0.5,"perTrialBonusThreshold":0.1,"exampleCost":0.01},"classroomParams":{"A":{"a":1,"b":4},"B":{"a":4,"b":1},"C":{"a":2,"b":8},"D":{"a":8,"b":2}},"conditions":["nonSeqFull","nonSeqPartial","seqNoFeedback","seqFeedback"],"classroomPairings":[["A","B"],["C","D"]],"coinWeights":[0.2,0.5,0.8],"subjectId":"A19WXS1CLVLEEX","assignmentId":"3OE22WJIGJAFI6YQDKCHT54ZGB6QUF","hitId":"3QGHA0EA0JM3KKNCY0PQRLYAHJ3BWH","url":"https://gershmanlab.com/experiments/alicia/teaching/experiment/?hitId=3QGHA0EA0JM3KKNCY0PQRLYAHJ3BWH&workerId=A19WXS1CLVLEEX&assignmentId=3OE22WJIGJAFI6YQDKCHT54ZGB6QUF&a=I2EO8&tp_a=I2EO8&b=3OE22WJIGJAFI6YQDKCHT54ZGB6QUF&tp_b=3OE22WJIGJAFI6YQDKCHT54ZGB6QUF&c=365198&tp_c=365198"},{"rt":15931,"response":{"heads":"12","tails":"2"},"type":"response","condition":"nonSeqPartial","trueTheta":0.8,"classrooms":["A","B"],"studentTrueClassroom":"B","exampleSet":"first","trial_type":"survey-html-form","trial_index":32,"time_elapsed":497041,"internal_node_id":"0.0-31.0-0.0","params":{"nStudents":24,"maxFlips":30,"completionMinutes":45,"basePay":8,"maxBonus":9,"perTrialBonus":0.5,"perTrialBonusThreshold":0.1,"exampleCost":0.01},"classroomParams":{"A":{"a":1,"b":4},"B":{"a":4,"b":1},"C":{"a":2,"b":8},"D":{"a":8,"b":2}},"conditions":["nonSeqFull","nonSeqPartial","seqNoFeedback","seqFeedback"],"classroomPairings":[["A","B"],["C","D"]],"coinWeights":[0.2,0.5,0.8],"subjectId":"A19WXS1CLVLEEX","assignmentId":"3OE22WJIGJAFI6YQDKCHT54ZGB6QUF","hitId":"3QGHA0EA0JM3KKNCY0PQRLYAHJ3BWH","url":"https://gershmanlab.com/experiments/alicia/teaching/experiment/?hitId=3QGHA0EA0JM3KKNCY0PQRLYAHJ3BWH&workerId=A19WXS1CLVLEEX&assignmentId=3OE22WJIGJAFI6YQDKCHT54ZGB6QUF&a=I2EO8&tp_a=I2EO8&b=3OE22WJIGJAFI6YQDKCHT54ZGB6QUF&tp_b=3OE22WJIGJAFI6YQDKCHT54ZGB6QUF&c=365198&tp_c=365198","heads":12,"tails":2,"studentIndex":3,"studentTrueHypers":{"a":4,"b":1},"studentGuess":0.8421052631578947,"delta":0.042105263157894646,"totalExamples":14,"bonus":0.36,"bonusSoFar":0.74},{"rt":null,"stimulus":"Sending examples to student... ","response":null,"trial_type":"html-keyboard-response","trial_index":33,"time_elapsed":499046,"internal_node_id":"0.0-32.0","params":{"nStudents":24,"maxFlips":30,"completionMinutes":45,"basePay":8,"maxBonus":9,"perTrialBonus":0.5,"perTrialBonusThreshold":0.1,"exampleCost":0.01},"classroomParams":{"A":{"a":1,"b":4},"B":{"a":4,"b":1},"C":{"a":2,"b":8},"D":{"a":8,"b":2}},"conditions":["nonSeqFull","nonSeqPartial","seqNoFeedback","seqFeedback"],"classroomPairings":[["A","B"],["C","D"]],"coinWeights":[0.2,0.5,0.8],"subjectId":"A19WXS1CLVLEEX","assignmentId":"3OE22WJIGJAFI6YQDKCHT54ZGB6QUF","hitId":"3QGHA0EA0JM3KKNCY0PQRLYAHJ3BWH","url":"https://gershmanlab.com/experiments/alicia/teaching/experiment/?hitId=3QGHA0EA0JM3KKNCY0PQRLYAHJ3BWH&workerId=A19WXS1CLVLEEX&assignmentId=3OE22WJIGJAFI6YQDKCHT54ZGB6QUF&a=I2EO8&tp_a=I2EO8&b=3OE22WJIGJAFI6YQDKCHT54ZGB6QUF&tp_b=3OE22WJIGJAFI6YQDKCHT54ZGB6QUF&c=365198&tp_c=365198"},{"rt":null,"stimulus":"Examples sent to student! Waiting for student...","response":null,"trial_type":"html-keyboard-response","trial_index":34,"time_elapsed":503557,"internal_node_id":"0.0-33.0","params":{"nStudents":24,"maxFlips":30,"completionMinutes":45,"basePay":8,"maxBonus":9,"perTrialBonus":0.5,"perTrialBonusThreshold":0.1,"exampleCost":0.01},"classroomParams":{"A":{"a":1,"b":4},"B":{"a":4,"b":1},"C":{"a":2,"b":8},"D":{"a":8,"b":2}},"conditions":["nonSeqFull","nonSeqPartial","seqNoFeedback","seqFeedback"],"classroomPairings":[["A","B"],["C","D"]],"coinWeights":[0.2,0.5,0.8],"subjectId":"A19WXS1CLVLEEX","assignmentId":"3OE22WJIGJAFI6YQDKCHT54ZGB6QUF","hitId":"3QGHA0EA0JM3KKNCY0PQRLYAHJ3BWH","url":"https://gershmanlab.com/experiments/alicia/teaching/experiment/?hitId=3QGHA0EA0JM3KKNCY0PQRLYAHJ3BWH&workerId=A19WXS1CLVLEEX&assignmentId=3OE22WJIGJAFI6YQDKCHT54ZGB6QUF&a=I2EO8&tp_a=I2EO8&b=3OE22WJIGJAFI6YQDKCHT54ZGB6QUF&tp_b=3OE22WJIGJAFI6YQDKCHT54ZGB6QUF&c=365198&tp_c=365198"},{"rt":5697,"stimulus":"\n                <p>Student's guess for coin weight: <b style=\"color:Tomato;\">0.84</b></p>\n                <p>You received a bonus of <b>$0.36</b>. Total bonus so far: <b>$0.74</b></b></p>\n                <p> Press any key to continue.</p>\n                ","response":" ","trial_type":"html-keyboard-response","trial_index":35,"time_elapsed":509256,"internal_node_id":"0.0-34.0","params":{"nStudents":24,"maxFlips":30,"completionMinutes":45,"basePay":8,"maxBonus":9,"perTrialBonus":0.5,"perTrialBonusThreshold":0.1,"exampleCost":0.01},"classroomParams":{"A":{"a":1,"b":4},"B":{"a":4,"b":1},"C":{"a":2,"b":8},"D":{"a":8,"b":2}},"conditions":["nonSeqFull","nonSeqPartial","seqNoFeedback","seqFeedback"],"classroomPairings":[["A","B"],["C","D"]],"coinWeights":[0.2,0.5,0.8],"subjectId":"A19WXS1CLVLEEX","assignmentId":"3OE22WJIGJAFI6YQDKCHT54ZGB6QUF","hitId":"3QGHA0EA0JM3KKNCY0PQRLYAHJ3BWH","url":"https://gershmanlab.com/experiments/alicia/teaching/experiment/?hitId=3QGHA0EA0JM3KKNCY0PQRLYAHJ3BWH&workerId=A19WXS1CLVLEEX&assignmentId=3OE22WJIGJAFI6YQDKCHT54ZGB6QUF&a=I2EO8&tp_a=I2EO8&b=3OE22WJIGJAFI6YQDKCHT54ZGB6QUF&tp_b=3OE22WJIGJAFI6YQDKCHT54ZGB6QUF&c=365198&tp_c=365198"},{"rt":null,"stimulus":"<div style=\"font-size:60px;\">Next student</div>","response":null,"trial_type":"html-keyboard-response","trial_index":36,"time_elapsed":512261,"internal_node_id":"0.0-35.0-0.0","params":{"nStudents":24,"maxFlips":30,"completionMinutes":45,"basePay":8,"maxBonus":9,"perTrialBonus":0.5,"perTrialBonusThreshold":0.1,"exampleCost":0.01},"classroomParams":{"A":{"a":1,"b":4},"B":{"a":4,"b":1},"C":{"a":2,"b":8},"D":{"a":8,"b":2}},"conditions":["nonSeqFull","nonSeqPartial","seqNoFeedback","seqFeedback"],"classroomPairings":[["A","B"],["C","D"]],"coinWeights":[0.2,0.5,0.8],"subjectId":"A19WXS1CLVLEEX","assignmentId":"3OE22WJIGJAFI6YQDKCHT54ZGB6QUF","hitId":"3QGHA0EA0JM3KKNCY0PQRLYAHJ3BWH","url":"https://gershmanlab.com/experiments/alicia/teaching/experiment/?hitId=3QGHA0EA0JM3KKNCY0PQRLYAHJ3BWH&workerId=A19WXS1CLVLEEX&assignmentId=3OE22WJIGJAFI6YQDKCHT54ZGB6QUF&a=I2EO8&tp_a=I2EO8&b=3OE22WJIGJAFI6YQDKCHT54ZGB6QUF&tp_b=3OE22WJIGJAFI6YQDKCHT54ZGB6QUF&c=365198&tp_c=365198"},{"rt":1730,"stimulus":"\n            <h4 style=\"color:Orange;\">Student 5</h4>\n            <h2>The weight of your coin is <b style=\"color:Tomato;\">0.5</b>.</h2>\n            <p>In this block, you will be giving <b>two</b> sets of examples to Student 5.</p>\n                <p>You will see the student's guess after the first set of examples. You will also receive feedback at the end of the block.</p>\n            ","response":0,"trial_type":"html-button-response","trial_index":37,"time_elapsed":513993,"internal_node_id":"0.0-36.0","params":{"nStudents":24,"maxFlips":30,"completionMinutes":45,"basePay":8,"maxBonus":9,"perTrialBonus":0.5,"perTrialBonusThreshold":0.1,"exampleCost":0.01},"classroomParams":{"A":{"a":1,"b":4},"B":{"a":4,"b":1},"C":{"a":2,"b":8},"D":{"a":8,"b":2}},"conditions":["nonSeqFull","nonSeqPartial","seqNoFeedback","seqFeedback"],"classroomPairings":[["A","B"],["C","D"]],"coinWeights":[0.2,0.5,0.8],"subjectId":"A19WXS1CLVLEEX","assignmentId":"3OE22WJIGJAFI6YQDKCHT54ZGB6QUF","hitId":"3QGHA0EA0JM3KKNCY0PQRLYAHJ3BWH","url":"https://gershmanlab.com/experiments/alicia/teaching/experiment/?hitId=3QGHA0EA0JM3KKNCY0PQRLYAHJ3BWH&workerId=A19WXS1CLVLEEX&assignmentId=3OE22WJIGJAFI6YQDKCHT54ZGB6QUF&a=I2EO8&tp_a=I2EO8&b=3OE22WJIGJAFI6YQDKCHT54ZGB6QUF&tp_b=3OE22WJIGJAFI6YQDKCHT54ZGB6QUF&c=365198&tp_c=365198"},{"rt":7686,"response":{"heads":"4","tails":"4"},"type":"response","condition":"seqFeedback","trueTheta":0.5,"classrooms":["A","B"],"studentTrueClassroom":"A","exampleSet":"first","trial_type":"survey-html-form","trial_index":38,"time_elapsed":521681,"internal_node_id":"0.0-37.0-0.0","params":{"nStudents":24,"maxFlips":30,"completionMinutes":45,"basePay":8,"maxBonus":9,"perTrialBonus":0.5,"perTrialBonusThreshold":0.1,"exampleCost":0.01},"classroomParams":{"A":{"a":1,"b":4},"B":{"a":4,"b":1},"C":{"a":2,"b":8},"D":{"a":8,"b":2}},"conditions":["nonSeqFull","nonSeqPartial","seqNoFeedback","seqFeedback"],"classroomPairings":[["A","B"],["C","D"]],"coinWeights":[0.2,0.5,0.8],"subjectId":"A19WXS1CLVLEEX","assignmentId":"3OE22WJIGJAFI6YQDKCHT54ZGB6QUF","hitId":"3QGHA0EA0JM3KKNCY0PQRLYAHJ3BWH","url":"https://gershmanlab.com/experiments/alicia/teaching/experiment/?hitId=3QGHA0EA0JM3KKNCY0PQRLYAHJ3BWH&workerId=A19WXS1CLVLEEX&assignmentId=3OE22WJIGJAFI6YQDKCHT54ZGB6QUF&a=I2EO8&tp_a=I2EO8&b=3OE22WJIGJAFI6YQDKCHT54ZGB6QUF&tp_b=3OE22WJIGJAFI6YQDKCHT54ZGB6QUF&c=365198&tp_c=365198","heads":4,"tails":4,"studentIndex":4,"studentTrueHypers":{"a":1,"b":4},"studentGuess":0.38461538461538464,"delta":0.11538461538461536,"totalExamples":8,"bonusSoFar":0.74},{"rt":null,"stimulus":"Sending examples to student... ","response":null,"trial_type":"html-keyboard-response","trial_index":39,"time_elapsed":523191,"internal_node_id":"0.0-38.0","params":{"nStudents":24,"maxFlips":30,"completionMinutes":45,"basePay":8,"maxBonus":9,"perTrialBonus":0.5,"perTrialBonusThreshold":0.1,"exampleCost":0.01},"classroomParams":{"A":{"a":1,"b":4},"B":{"a":4,"b":1},"C":{"a":2,"b":8},"D":{"a":8,"b":2}},"conditions":["nonSeqFull","nonSeqPartial","seqNoFeedback","seqFeedback"],"classroomPairings":[["A","B"],["C","D"]],"coinWeights":[0.2,0.5,0.8],"subjectId":"A19WXS1CLVLEEX","assignmentId":"3OE22WJIGJAFI6YQDKCHT54ZGB6QUF","hitId":"3QGHA0EA0JM3KKNCY0PQRLYAHJ3BWH","url":"https://gershmanlab.com/experiments/alicia/teaching/experiment/?hitId=3QGHA0EA0JM3KKNCY0PQRLYAHJ3BWH&workerId=A19WXS1CLVLEEX&assignmentId=3OE22WJIGJAFI6YQDKCHT54ZGB6QUF&a=I2EO8&tp_a=I2EO8&b=3OE22WJIGJAFI6YQDKCHT54ZGB6QUF&tp_b=3OE22WJIGJAFI6YQDKCHT54ZGB6QUF&c=365198&tp_c=365198"},{"rt":null,"stimulus":"Examples sent to student! Waiting for student...","response":null,"trial_type":"html-keyboard-response","trial_index":40,"time_elapsed":529193,"internal_node_id":"0.0-39.0","params":{"nStudents":24,"maxFlips":30,"completionMinutes":45,"basePay":8,"maxBonus":9,"perTrialBonus":0.5,"perTrialBonusThreshold":0.1,"exampleCost":0.01},"classroomParams":{"A":{"a":1,"b":4},"B":{"a":4,"b":1},"C":{"a":2,"b":8},"D":{"a":8,"b":2}},"conditions":["nonSeqFull","nonSeqPartial","seqNoFeedback","seqFeedback"],"classroomPairings":[["A","B"],["C","D"]],"coinWeights":[0.2,0.5,0.8],"subjectId":"A19WXS1CLVLEEX","assignmentId":"3OE22WJIGJAFI6YQDKCHT54ZGB6QUF","hitId":"3QGHA0EA0JM3KKNCY0PQRLYAHJ3BWH","url":"https://gershmanlab.com/experiments/alicia/teaching/experiment/?hitId=3QGHA0EA0JM3KKNCY0PQRLYAHJ3BWH&workerId=A19WXS1CLVLEEX&assignmentId=3OE22WJIGJAFI6YQDKCHT54ZGB6QUF&a=I2EO8&tp_a=I2EO8&b=3OE22WJIGJAFI6YQDKCHT54ZGB6QUF&tp_b=3OE22WJIGJAFI6YQDKCHT54ZGB6QUF&c=365198&tp_c=365198"},{"rt":1964,"stimulus":"\n                <p>Student's guess for coin weight: <b style=\"color:Tomato;\">0.38</b></p>\n                <p></b></p>\n                <p>You will now send another set of examples to your student. Press any key to continue.</p>\n                ","response":" ","trial_type":"html-keyboard-response","trial_index":41,"time_elapsed":531158,"internal_node_id":"0.0-40.0","params":{"nStudents":24,"maxFlips":30,"completionMinutes":45,"basePay":8,"maxBonus":9,"perTrialBonus":0.5,"perTrialBonusThreshold":0.1,"exampleCost":0.01},"classroomParams":{"A":{"a":1,"b":4},"B":{"a":4,"b":1},"C":{"a":2,"b":8},"D":{"a":8,"b":2}},"conditions":["nonSeqFull","nonSeqPartial","seqNoFeedback","seqFeedback"],"classroomPairings":[["A","B"],["C","D"]],"coinWeights":[0.2,0.5,0.8],"subjectId":"A19WXS1CLVLEEX","assignmentId":"3OE22WJIGJAFI6YQDKCHT54ZGB6QUF","hitId":"3QGHA0EA0JM3KKNCY0PQRLYAHJ3BWH","url":"https://gershmanlab.com/experiments/alicia/teaching/experiment/?hitId=3QGHA0EA0JM3KKNCY0PQRLYAHJ3BWH&workerId=A19WXS1CLVLEEX&assignmentId=3OE22WJIGJAFI6YQDKCHT54ZGB6QUF&a=I2EO8&tp_a=I2EO8&b=3OE22WJIGJAFI6YQDKCHT54ZGB6QUF&tp_b=3OE22WJIGJAFI6YQDKCHT54ZGB6QUF&c=365198&tp_c=365198"},{"rt":7594,"response":{"heads":"8","tails":"8"},"type":"response","condition":"seqFeedback","trueTheta":0.5,"classrooms":["A","B"],"studentTrueClassroom":"A","exampleSet":"second","trial_type":"survey-html-form","trial_index":42,"time_elapsed":538754,"internal_node_id":"0.0-41.0-0.0","params":{"nStudents":24,"maxFlips":30,"completionMinutes":45,"basePay":8,"maxBonus":9,"perTrialBonus":0.5,"perTrialBonusThreshold":0.1,"exampleCost":0.01},"classroomParams":{"A":{"a":1,"b":4},"B":{"a":4,"b":1},"C":{"a":2,"b":8},"D":{"a":8,"b":2}},"conditions":["nonSeqFull","nonSeqPartial","seqNoFeedback","seqFeedback"],"classroomPairings":[["A","B"],["C","D"]],"coinWeights":[0.2,0.5,0.8],"subjectId":"A19WXS1CLVLEEX","assignmentId":"3OE22WJIGJAFI6YQDKCHT54ZGB6QUF","hitId":"3QGHA0EA0JM3KKNCY0PQRLYAHJ3BWH","url":"https://gershmanlab.com/experiments/alicia/teaching/experiment/?hitId=3QGHA0EA0JM3KKNCY0PQRLYAHJ3BWH&workerId=A19WXS1CLVLEEX&assignmentId=3OE22WJIGJAFI6YQDKCHT54ZGB6QUF&a=I2EO8&tp_a=I2EO8&b=3OE22WJIGJAFI6YQDKCHT54ZGB6QUF&tp_b=3OE22WJIGJAFI6YQDKCHT54ZGB6QUF&c=365198&tp_c=365198","firstResponseHeads":4,"firstResponseTails":4,"secondResponseHeads":8,"secondResponseTails":8,"studentIndex":4,"studentTrueHypers":{"a":1,"b":4},"studentGuess":0.4482758620689655,"delta":0.051724137931034475,"bonus":0.26,"bonusSoFar":1,"totalExamples":24},{"rt":null,"stimulus":"Sending examples to student... ","response":null,"trial_type":"html-keyboard-response","trial_index":43,"time_elapsed":540769,"internal_node_id":"0.0-42.0","params":{"nStudents":24,"maxFlips":30,"completionMinutes":45,"basePay":8,"maxBonus":9,"perTrialBonus":0.5,"perTrialBonusThreshold":0.1,"exampleCost":0.01},"classroomParams":{"A":{"a":1,"b":4},"B":{"a":4,"b":1},"C":{"a":2,"b":8},"D":{"a":8,"b":2}},"conditions":["nonSeqFull","nonSeqPartial","seqNoFeedback","seqFeedback"],"classroomPairings":[["A","B"],["C","D"]],"coinWeights":[0.2,0.5,0.8],"subjectId":"A19WXS1CLVLEEX","assignmentId":"3OE22WJIGJAFI6YQDKCHT54ZGB6QUF","hitId":"3QGHA0EA0JM3KKNCY0PQRLYAHJ3BWH","url":"https://gershmanlab.com/experiments/alicia/teaching/experiment/?hitId=3QGHA0EA0JM3KKNCY0PQRLYAHJ3BWH&workerId=A19WXS1CLVLEEX&assignmentId=3OE22WJIGJAFI6YQDKCHT54ZGB6QUF&a=I2EO8&tp_a=I2EO8&b=3OE22WJIGJAFI6YQDKCHT54ZGB6QUF&tp_b=3OE22WJIGJAFI6YQDKCHT54ZGB6QUF&c=365198&tp_c=365198"},{"rt":null,"stimulus":"Examples sent to student! Waiting for student...","response":null,"trial_type":"html-keyboard-response","trial_index":44,"time_elapsed":546280,"internal_node_id":"0.0-43.0","params":{"nStudents":24,"maxFlips":30,"completionMinutes":45,"basePay":8,"maxBonus":9,"perTrialBonus":0.5,"perTrialBonusThreshold":0.1,"exampleCost":0.01},"classroomParams":{"A":{"a":1,"b":4},"B":{"a":4,"b":1},"C":{"a":2,"b":8},"D":{"a":8,"b":2}},"conditions":["nonSeqFull","nonSeqPartial","seqNoFeedback","seqFeedback"],"classroomPairings":[["A","B"],["C","D"]],"coinWeights":[0.2,0.5,0.8],"subjectId":"A19WXS1CLVLEEX","assignmentId":"3OE22WJIGJAFI6YQDKCHT54ZGB6QUF","hitId":"3QGHA0EA0JM3KKNCY0PQRLYAHJ3BWH","url":"https://gershmanlab.com/experiments/alicia/teaching/experiment/?hitId=3QGHA0EA0JM3KKNCY0PQRLYAHJ3BWH&workerId=A19WXS1CLVLEEX&assignmentId=3OE22WJIGJAFI6YQDKCHT54ZGB6QUF&a=I2EO8&tp_a=I2EO8&b=3OE22WJIGJAFI6YQDKCHT54ZGB6QUF&tp_b=3OE22WJIGJAFI6YQDKCHT54ZGB6QUF&c=365198&tp_c=365198"},{"rt":3332,"stimulus":"\n                <p>Student 5's first guess for coin weight: <b style=\"color:Tomato\";>0.38</b></p>\n                <p>Student 5's second guess for coin weight: <b style=\"color:Tomato\";>0.45</b></p>\n                <p>You received a bonus of <b>$0.26</b> based on the student's second guess.</p>\n                <p>Total bonus so far: <b>$1.00</b></p>\n                <p>Press any key to continue.</p>\n                ","response":" ","trial_type":"html-keyboard-response","trial_index":45,"time_elapsed":549613,"internal_node_id":"0.0-44.0","params":{"nStudents":24,"maxFlips":30,"completionMinutes":45,"basePay":8,"maxBonus":9,"perTrialBonus":0.5,"perTrialBonusThreshold":0.1,"exampleCost":0.01},"classroomParams":{"A":{"a":1,"b":4},"B":{"a":4,"b":1},"C":{"a":2,"b":8},"D":{"a":8,"b":2}},"conditions":["nonSeqFull","nonSeqPartial","seqNoFeedback","seqFeedback"],"classroomPairings":[["A","B"],["C","D"]],"coinWeights":[0.2,0.5,0.8],"subjectId":"A19WXS1CLVLEEX","assignmentId":"3OE22WJIGJAFI6YQDKCHT54ZGB6QUF","hitId":"3QGHA0EA0JM3KKNCY0PQRLYAHJ3BWH","url":"https://gershmanlab.com/experiments/alicia/teaching/experiment/?hitId=3QGHA0EA0JM3KKNCY0PQRLYAHJ3BWH&workerId=A19WXS1CLVLEEX&assignmentId=3OE22WJIGJAFI6YQDKCHT54ZGB6QUF&a=I2EO8&tp_a=I2EO8&b=3OE22WJIGJAFI6YQDKCHT54ZGB6QUF&tp_b=3OE22WJIGJAFI6YQDKCHT54ZGB6QUF&c=365198&tp_c=365198"},{"rt":null,"stimulus":"<div style=\"font-size:60px;\">Next student</div>","response":null,"trial_type":"html-keyboard-response","trial_index":46,"time_elapsed":552118,"internal_node_id":"0.0-45.0-0.0","params":{"nStudents":24,"maxFlips":30,"completionMinutes":45,"basePay":8,"maxBonus":9,"perTrialBonus":0.5,"perTrialBonusThreshold":0.1,"exampleCost":0.01},"classroomParams":{"A":{"a":1,"b":4},"B":{"a":4,"b":1},"C":{"a":2,"b":8},"D":{"a":8,"b":2}},"conditions":["nonSeqFull","nonSeqPartial","seqNoFeedback","seqFeedback"],"classroomPairings":[["A","B"],["C","D"]],"coinWeights":[0.2,0.5,0.8],"subjectId":"A19WXS1CLVLEEX","assignmentId":"3OE22WJIGJAFI6YQDKCHT54ZGB6QUF","hitId":"3QGHA0EA0JM3KKNCY0PQRLYAHJ3BWH","url":"https://gershmanlab.com/experiments/alicia/teaching/experiment/?hitId=3QGHA0EA0JM3KKNCY0PQRLYAHJ3BWH&workerId=A19WXS1CLVLEEX&assignmentId=3OE22WJIGJAFI6YQDKCHT54ZGB6QUF&a=I2EO8&tp_a=I2EO8&b=3OE22WJIGJAFI6YQDKCHT54ZGB6QUF&tp_b=3OE22WJIGJAFI6YQDKCHT54ZGB6QUF&c=365198&tp_c=365198"},{"rt":1893,"stimulus":"\n            <h4 style=\"color:Orange;\">Student 6</h4>\n            <h2>The weight of your coin is <b style=\"color:Tomato;\">0.8</b>.</h2>\n            <p>In this block, you will be giving <b>one</b> set of examples to Student 6.</p>\n                <p>You will receive feedback at the end of the block.</p>\n            ","response":0,"trial_type":"html-button-response","trial_index":47,"time_elapsed":554012,"internal_node_id":"0.0-46.0","params":{"nStudents":24,"maxFlips":30,"completionMinutes":45,"basePay":8,"maxBonus":9,"perTrialBonus":0.5,"perTrialBonusThreshold":0.1,"exampleCost":0.01},"classroomParams":{"A":{"a":1,"b":4},"B":{"a":4,"b":1},"C":{"a":2,"b":8},"D":{"a":8,"b":2}},"conditions":["nonSeqFull","nonSeqPartial","seqNoFeedback","seqFeedback"],"classroomPairings":[["A","B"],["C","D"]],"coinWeights":[0.2,0.5,0.8],"subjectId":"A19WXS1CLVLEEX","assignmentId":"3OE22WJIGJAFI6YQDKCHT54ZGB6QUF","hitId":"3QGHA0EA0JM3KKNCY0PQRLYAHJ3BWH","url":"https://gershmanlab.com/experiments/alicia/teaching/experiment/?hitId=3QGHA0EA0JM3KKNCY0PQRLYAHJ3BWH&workerId=A19WXS1CLVLEEX&assignmentId=3OE22WJIGJAFI6YQDKCHT54ZGB6QUF&a=I2EO8&tp_a=I2EO8&b=3OE22WJIGJAFI6YQDKCHT54ZGB6QUF&tp_b=3OE22WJIGJAFI6YQDKCHT54ZGB6QUF&c=365198&tp_c=365198"},{"rt":11376,"response":{"heads":"12","tails":"2"},"type":"response","condition":"nonSeqFull","trueTheta":0.8,"classrooms":["A","B"],"studentTrueClassroom":"B","exampleSet":"first","trial_type":"survey-html-form","trial_index":48,"time_elapsed":565390,"internal_node_id":"0.0-47.0-0.0","params":{"nStudents":24,"maxFlips":30,"completionMinutes":45,"basePay":8,"maxBonus":9,"perTrialBonus":0.5,"perTrialBonusThreshold":0.1,"exampleCost":0.01},"classroomParams":{"A":{"a":1,"b":4},"B":{"a":4,"b":1},"C":{"a":2,"b":8},"D":{"a":8,"b":2}},"conditions":["nonSeqFull","nonSeqPartial","seqNoFeedback","seqFeedback"],"classroomPairings":[["A","B"],["C","D"]],"coinWeights":[0.2,0.5,0.8],"subjectId":"A19WXS1CLVLEEX","assignmentId":"3OE22WJIGJAFI6YQDKCHT54ZGB6QUF","hitId":"3QGHA0EA0JM3KKNCY0PQRLYAHJ3BWH","url":"https://gershmanlab.com/experiments/alicia/teaching/experiment/?hitId=3QGHA0EA0JM3KKNCY0PQRLYAHJ3BWH&workerId=A19WXS1CLVLEEX&assignmentId=3OE22WJIGJAFI6YQDKCHT54ZGB6QUF&a=I2EO8&tp_a=I2EO8&b=3OE22WJIGJAFI6YQDKCHT54ZGB6QUF&tp_b=3OE22WJIGJAFI6YQDKCHT54ZGB6QUF&c=365198&tp_c=365198","heads":12,"tails":2,"studentIndex":5,"studentTrueHypers":{"a":4,"b":1},"studentGuess":0.8421052631578947,"delta":0.042105263157894646,"totalExamples":14,"bonus":0.36,"bonusSoFar":1.36},{"rt":null,"stimulus":"Sending examples to student... ","response":null,"trial_type":"html-keyboard-response","trial_index":49,"time_elapsed":566650,"internal_node_id":"0.0-48.0","params":{"nStudents":24,"maxFlips":30,"completionMinutes":45,"basePay":8,"maxBonus":9,"perTrialBonus":0.5,"perTrialBonusThreshold":0.1,"exampleCost":0.01},"classroomParams":{"A":{"a":1,"b":4},"B":{"a":4,"b":1},"C":{"a":2,"b":8},"D":{"a":8,"b":2}},"conditions":["nonSeqFull","nonSeqPartial","seqNoFeedback","seqFeedback"],"classroomPairings":[["A","B"],["C","D"]],"coinWeights":[0.2,0.5,0.8],"subjectId":"A19WXS1CLVLEEX","assignmentId":"3OE22WJIGJAFI6YQDKCHT54ZGB6QUF","hitId":"3QGHA0EA0JM3KKNCY0PQRLYAHJ3BWH","url":"https://gershmanlab.com/experiments/alicia/teaching/experiment/?hitId=3QGHA0EA0JM3KKNCY0PQRLYAHJ3BWH&workerId=A19WXS1CLVLEEX&assignmentId=3OE22WJIGJAFI6YQDKCHT54ZGB6QUF&a=I2EO8&tp_a=I2EO8&b=3OE22WJIGJAFI6YQDKCHT54ZGB6QUF&tp_b=3OE22WJIGJAFI6YQDKCHT54ZGB6QUF&c=365198&tp_c=365198"},{"rt":null,"stimulus":"Examples sent to student! Waiting for student...","response":null,"trial_type":"html-keyboard-response","trial_index":50,"time_elapsed":572656,"internal_node_id":"0.0-49.0","params":{"nStudents":24,"maxFlips":30,"completionMinutes":45,"basePay":8,"maxBonus":9,"perTrialBonus":0.5,"perTrialBonusThreshold":0.1,"exampleCost":0.01},"classroomParams":{"A":{"a":1,"b":4},"B":{"a":4,"b":1},"C":{"a":2,"b":8},"D":{"a":8,"b":2}},"conditions":["nonSeqFull","nonSeqPartial","seqNoFeedback","seqFeedback"],"classroomPairings":[["A","B"],["C","D"]],"coinWeights":[0.2,0.5,0.8],"subjectId":"A19WXS1CLVLEEX","assignmentId":"3OE22WJIGJAFI6YQDKCHT54ZGB6QUF","hitId":"3QGHA0EA0JM3KKNCY0PQRLYAHJ3BWH","url":"https://gershmanlab.com/experiments/alicia/teaching/experiment/?hitId=3QGHA0EA0JM3KKNCY0PQRLYAHJ3BWH&workerId=A19WXS1CLVLEEX&assignmentId=3OE22WJIGJAFI6YQDKCHT54ZGB6QUF&a=I2EO8&tp_a=I2EO8&b=3OE22WJIGJAFI6YQDKCHT54ZGB6QUF&tp_b=3OE22WJIGJAFI6YQDKCHT54ZGB6QUF&c=365198&tp_c=365198"},{"rt":2714,"stimulus":"\n                <p>Student's guess for coin weight: <b style=\"color:Tomato;\">0.84</b></p>\n                <p>You received a bonus of <b>$0.36</b>. Total bonus so far: <b>$1.36</b></b></p>\n                <p> Press any key to continue.</p>\n                ","response":" ","trial_type":"html-keyboard-response","trial_index":51,"time_elapsed":575371,"internal_node_id":"0.0-50.0","params":{"nStudents":24,"maxFlips":30,"completionMinutes":45,"basePay":8,"maxBonus":9,"perTrialBonus":0.5,"perTrialBonusThreshold":0.1,"exampleCost":0.01},"classroomParams":{"A":{"a":1,"b":4},"B":{"a":4,"b":1},"C":{"a":2,"b":8},"D":{"a":8,"b":2}},"conditions":["nonSeqFull","nonSeqPartial","seqNoFeedback","seqFeedback"],"classroomPairings":[["A","B"],["C","D"]],"coinWeights":[0.2,0.5,0.8],"subjectId":"A19WXS1CLVLEEX","assignmentId":"3OE22WJIGJAFI6YQDKCHT54ZGB6QUF","hitId":"3QGHA0EA0JM3KKNCY0PQRLYAHJ3BWH","url":"https://gershmanlab.com/experiments/alicia/teaching/experiment/?hitId=3QGHA0EA0JM3KKNCY0PQRLYAHJ3BWH&workerId=A19WXS1CLVLEEX&assignmentId=3OE22WJIGJAFI6YQDKCHT54ZGB6QUF&a=I2EO8&tp_a=I2EO8&b=3OE22WJIGJAFI6YQDKCHT54ZGB6QUF&tp_b=3OE22WJIGJAFI6YQDKCHT54ZGB6QUF&c=365198&tp_c=365198"},{"rt":null,"stimulus":"<div style=\"font-size:60px;\">Next student</div>","response":null,"trial_type":"html-keyboard-response","trial_index":52,"time_elapsed":577379,"internal_node_id":"0.0-51.0-0.0","params":{"nStudents":24,"maxFlips":30,"completionMinutes":45,"basePay":8,"maxBonus":9,"perTrialBonus":0.5,"perTrialBonusThreshold":0.1,"exampleCost":0.01},"classroomParams":{"A":{"a":1,"b":4},"B":{"a":4,"b":1},"C":{"a":2,"b":8},"D":{"a":8,"b":2}},"conditions":["nonSeqFull","nonSeqPartial","seqNoFeedback","seqFeedback"],"classroomPairings":[["A","B"],["C","D"]],"coinWeights":[0.2,0.5,0.8],"subjectId":"A19WXS1CLVLEEX","assignmentId":"3OE22WJIGJAFI6YQDKCHT54ZGB6QUF","hitId":"3QGHA0EA0JM3KKNCY0PQRLYAHJ3BWH","url":"https://gershmanlab.com/experiments/alicia/teaching/experiment/?hitId=3QGHA0EA0JM3KKNCY0PQRLYAHJ3BWH&workerId=A19WXS1CLVLEEX&assignmentId=3OE22WJIGJAFI6YQDKCHT54ZGB6QUF&a=I2EO8&tp_a=I2EO8&b=3OE22WJIGJAFI6YQDKCHT54ZGB6QUF&tp_b=3OE22WJIGJAFI6YQDKCHT54ZGB6QUF&c=365198&tp_c=365198"},{"rt":1811,"stimulus":"\n            <h4 style=\"color:Orange;\">Student 7</h4>\n            <h2>The weight of your coin is <b style=\"color:Tomato;\">0.8</b>.</h2>\n            <p>In this block, you will be giving <b>two</b> sets of examples to Student 7.</p>\n                <p>You will see the student's guess after the first set of examples. You will also receive feedback at the end of the block.</p>\n            ","response":0,"trial_type":"html-button-response","trial_index":53,"time_elapsed":579192,"internal_node_id":"0.0-52.0","params":{"nStudents":24,"maxFlips":30,"completionMinutes":45,"basePay":8,"maxBonus":9,"perTrialBonus":0.5,"perTrialBonusThreshold":0.1,"exampleCost":0.01},"classroomParams":{"A":{"a":1,"b":4},"B":{"a":4,"b":1},"C":{"a":2,"b":8},"D":{"a":8,"b":2}},"conditions":["nonSeqFull","nonSeqPartial","seqNoFeedback","seqFeedback"],"classroomPairings":[["A","B"],["C","D"]],"coinWeights":[0.2,0.5,0.8],"subjectId":"A19WXS1CLVLEEX","assignmentId":"3OE22WJIGJAFI6YQDKCHT54ZGB6QUF","hitId":"3QGHA0EA0JM3KKNCY0PQRLYAHJ3BWH","url":"https://gershmanlab.com/experiments/alicia/teaching/experiment/?hitId=3QGHA0EA0JM3KKNCY0PQRLYAHJ3BWH&workerId=A19WXS1CLVLEEX&assignmentId=3OE22WJIGJAFI6YQDKCHT54ZGB6QUF&a=I2EO8&tp_a=I2EO8&b=3OE22WJIGJAFI6YQDKCHT54ZGB6QUF&tp_b=3OE22WJIGJAFI6YQDKCHT54ZGB6QUF&c=365198&tp_c=365198"},{"rt":14021,"response":{"heads":"11","tails":"2"},"type":"response","condition":"seqFeedback","trueTheta":0.8,"classrooms":["C","D"],"studentTrueClassroom":"D","exampleSet":"first","trial_type":"survey-html-form","trial_index":54,"time_elapsed":593215,"internal_node_id":"0.0-53.0-0.0","params":{"nStudents":24,"maxFlips":30,"completionMinutes":45,"basePay":8,"maxBonus":9,"perTrialBonus":0.5,"perTrialBonusThreshold":0.1,"exampleCost":0.01},"classroomParams":{"A":{"a":1,"b":4},"B":{"a":4,"b":1},"C":{"a":2,"b":8},"D":{"a":8,"b":2}},"conditions":["nonSeqFull","nonSeqPartial","seqNoFeedback","seqFeedback"],"classroomPairings":[["A","B"],["C","D"]],"coinWeights":[0.2,0.5,0.8],"subjectId":"A19WXS1CLVLEEX","assignmentId":"3OE22WJIGJAFI6YQDKCHT54ZGB6QUF","hitId":"3QGHA0EA0JM3KKNCY0PQRLYAHJ3BWH","url":"https://gershmanlab.com/experiments/alicia/teaching/experiment/?hitId=3QGHA0EA0JM3KKNCY0PQRLYAHJ3BWH&workerId=A19WXS1CLVLEEX&assignmentId=3OE22WJIGJAFI6YQDKCHT54ZGB6QUF&a=I2EO8&tp_a=I2EO8&b=3OE22WJIGJAFI6YQDKCHT54ZGB6QUF&tp_b=3OE22WJIGJAFI6YQDKCHT54ZGB6QUF&c=365198&tp_c=365198","heads":11,"tails":2,"studentIndex":6,"studentTrueHypers":{"a":8,"b":2},"studentGuess":0.8260869565217391,"delta":0.02608695652173909,"totalExamples":13,"bonusSoFar":1.36},{"rt":null,"stimulus":"Sending examples to student... ","response":null,"trial_type":"html-keyboard-response","trial_index":55,"time_elapsed":595217,"internal_node_id":"0.0-54.0","params":{"nStudents":24,"maxFlips":30,"completionMinutes":45,"basePay":8,"maxBonus":9,"perTrialBonus":0.5,"perTrialBonusThreshold":0.1,"exampleCost":0.01},"classroomParams":{"A":{"a":1,"b":4},"B":{"a":4,"b":1},"C":{"a":2,"b":8},"D":{"a":8,"b":2}},"conditions":["nonSeqFull","nonSeqPartial","seqNoFeedback","seqFeedback"],"classroomPairings":[["A","B"],["C","D"]],"coinWeights":[0.2,0.5,0.8],"subjectId":"A19WXS1CLVLEEX","assignmentId":"3OE22WJIGJAFI6YQDKCHT54ZGB6QUF","hitId":"3QGHA0EA0JM3KKNCY0PQRLYAHJ3BWH","url":"https://gershmanlab.com/experiments/alicia/teaching/experiment/?hitId=3QGHA0EA0JM3KKNCY0PQRLYAHJ3BWH&workerId=A19WXS1CLVLEEX&assignmentId=3OE22WJIGJAFI6YQDKCHT54ZGB6QUF&a=I2EO8&tp_a=I2EO8&b=3OE22WJIGJAFI6YQDKCHT54ZGB6QUF&tp_b=3OE22WJIGJAFI6YQDKCHT54ZGB6QUF&c=365198&tp_c=365198"},{"rt":null,"stimulus":"Examples sent to student! Waiting for student...","response":null,"trial_type":"html-keyboard-response","trial_index":56,"time_elapsed":601223,"internal_node_id":"0.0-55.0","params":{"nStudents":24,"maxFlips":30,"completionMinutes":45,"basePay":8,"maxBonus":9,"perTrialBonus":0.5,"perTrialBonusThreshold":0.1,"exampleCost":0.01},"classroomParams":{"A":{"a":1,"b":4},"B":{"a":4,"b":1},"C":{"a":2,"b":8},"D":{"a":8,"b":2}},"conditions":["nonSeqFull","nonSeqPartial","seqNoFeedback","seqFeedback"],"classroomPairings":[["A","B"],["C","D"]],"coinWeights":[0.2,0.5,0.8],"subjectId":"A19WXS1CLVLEEX","assignmentId":"3OE22WJIGJAFI6YQDKCHT54ZGB6QUF","hitId":"3QGHA0EA0JM3KKNCY0PQRLYAHJ3BWH","url":"https://gershmanlab.com/experiments/alicia/teaching/experiment/?hitId=3QGHA0EA0JM3KKNCY0PQRLYAHJ3BWH&workerId=A19WXS1CLVLEEX&assignmentId=3OE22WJIGJAFI6YQDKCHT54ZGB6QUF&a=I2EO8&tp_a=I2EO8&b=3OE22WJIGJAFI6YQDKCHT54ZGB6QUF&tp_b=3OE22WJIGJAFI6YQDKCHT54ZGB6QUF&c=365198&tp_c=365198"},{"rt":4237,"stimulus":"\n                <p>Student's guess for coin weight: <b style=\"color:Tomato;\">0.83</b></p>\n                <p></b></p>\n                <p>You will now send another set of examples to your student. Press any key to continue.</p>\n                ","response":" ","trial_type":"html-keyboard-response","trial_index":57,"time_elapsed":605461,"internal_node_id":"0.0-56.0","params":{"nStudents":24,"maxFlips":30,"completionMinutes":45,"basePay":8,"maxBonus":9,"perTrialBonus":0.5,"perTrialBonusThreshold":0.1,"exampleCost":0.01},"classroomParams":{"A":{"a":1,"b":4},"B":{"a":4,"b":1},"C":{"a":2,"b":8},"D":{"a":8,"b":2}},"conditions":["nonSeqFull","nonSeqPartial","seqNoFeedback","seqFeedback"],"classroomPairings":[["A","B"],["C","D"]],"coinWeights":[0.2,0.5,0.8],"subjectId":"A19WXS1CLVLEEX","assignmentId":"3OE22WJIGJAFI6YQDKCHT54ZGB6QUF","hitId":"3QGHA0EA0JM3KKNCY0PQRLYAHJ3BWH","url":"https://gershmanlab.com/experiments/alicia/teaching/experiment/?hitId=3QGHA0EA0JM3KKNCY0PQRLYAHJ3BWH&workerId=A19WXS1CLVLEEX&assignmentId=3OE22WJIGJAFI6YQDKCHT54ZGB6QUF&a=I2EO8&tp_a=I2EO8&b=3OE22WJIGJAFI6YQDKCHT54ZGB6QUF&tp_b=3OE22WJIGJAFI6YQDKCHT54ZGB6QUF&c=365198&tp_c=365198"},{"rt":7736,"response":{"heads":"11","tails":"2"},"type":"response","condition":"seqFeedback","trueTheta":0.8,"classrooms":["C","D"],"studentTrueClassroom":"D","exampleSet":"second","trial_type":"survey-html-form","trial_index":58,"time_elapsed":613199,"internal_node_id":"0.0-57.0-0.0","params":{"nStudents":24,"maxFlips":30,"completionMinutes":45,"basePay":8,"maxBonus":9,"perTrialBonus":0.5,"perTrialBonusThreshold":0.1,"exampleCost":0.01},"classroomParams":{"A":{"a":1,"b":4},"B":{"a":4,"b":1},"C":{"a":2,"b":8},"D":{"a":8,"b":2}},"conditions":["nonSeqFull","nonSeqPartial","seqNoFeedback","seqFeedback"],"classroomPairings":[["A","B"],["C","D"]],"coinWeights":[0.2,0.5,0.8],"subjectId":"A19WXS1CLVLEEX","assignmentId":"3OE22WJIGJAFI6YQDKCHT54ZGB6QUF","hitId":"3QGHA0EA0JM3KKNCY0PQRLYAHJ3BWH","url":"https://gershmanlab.com/experiments/alicia/teaching/experiment/?hitId=3QGHA0EA0JM3KKNCY0PQRLYAHJ3BWH&workerId=A19WXS1CLVLEEX&assignmentId=3OE22WJIGJAFI6YQDKCHT54ZGB6QUF&a=I2EO8&tp_a=I2EO8&b=3OE22WJIGJAFI6YQDKCHT54ZGB6QUF&tp_b=3OE22WJIGJAFI6YQDKCHT54ZGB6QUF&c=365198&tp_c=365198","firstResponseHeads":11,"firstResponseTails":2,"secondResponseHeads":11,"secondResponseTails":2,"studentIndex":6,"studentTrueHypers":{"a":8,"b":2},"studentGuess":0.8333333333333334,"delta":0.033333333333333326,"bonus":0.24,"bonusSoFar":1.6,"totalExamples":26},{"rt":null,"stimulus":"Sending examples to student... ","response":null,"trial_type":"html-keyboard-response","trial_index":59,"time_elapsed":614955,"internal_node_id":"0.0-58.0","params":{"nStudents":24,"maxFlips":30,"completionMinutes":45,"basePay":8,"maxBonus":9,"perTrialBonus":0.5,"perTrialBonusThreshold":0.1,"exampleCost":0.01},"classroomParams":{"A":{"a":1,"b":4},"B":{"a":4,"b":1},"C":{"a":2,"b":8},"D":{"a":8,"b":2}},"conditions":["nonSeqFull","nonSeqPartial","seqNoFeedback","seqFeedback"],"classroomPairings":[["A","B"],["C","D"]],"coinWeights":[0.2,0.5,0.8],"subjectId":"A19WXS1CLVLEEX","assignmentId":"3OE22WJIGJAFI6YQDKCHT54ZGB6QUF","hitId":"3QGHA0EA0JM3KKNCY0PQRLYAHJ3BWH","url":"https://gershmanlab.com/experiments/alicia/teaching/experiment/?hitId=3QGHA0EA0JM3KKNCY0PQRLYAHJ3BWH&workerId=A19WXS1CLVLEEX&assignmentId=3OE22WJIGJAFI6YQDKCHT54ZGB6QUF&a=I2EO8&tp_a=I2EO8&b=3OE22WJIGJAFI6YQDKCHT54ZGB6QUF&tp_b=3OE22WJIGJAFI6YQDKCHT54ZGB6QUF&c=365198&tp_c=365198"},{"rt":null,"stimulus":"Examples sent to student! Waiting for student...","response":null,"trial_type":"html-keyboard-response","trial_index":60,"time_elapsed":620963,"internal_node_id":"0.0-59.0","params":{"nStudents":24,"maxFlips":30,"completionMinutes":45,"basePay":8,"maxBonus":9,"perTrialBonus":0.5,"perTrialBonusThreshold":0.1,"exampleCost":0.01},"classroomParams":{"A":{"a":1,"b":4},"B":{"a":4,"b":1},"C":{"a":2,"b":8},"D":{"a":8,"b":2}},"conditions":["nonSeqFull","nonSeqPartial","seqNoFeedback","seqFeedback"],"classroomPairings":[["A","B"],["C","D"]],"coinWeights":[0.2,0.5,0.8],"subjectId":"A19WXS1CLVLEEX","assignmentId":"3OE22WJIGJAFI6YQDKCHT54ZGB6QUF","hitId":"3QGHA0EA0JM3KKNCY0PQRLYAHJ3BWH","url":"https://gershmanlab.com/experiments/alicia/teaching/experiment/?hitId=3QGHA0EA0JM3KKNCY0PQRLYAHJ3BWH&workerId=A19WXS1CLVLEEX&assignmentId=3OE22WJIGJAFI6YQDKCHT54ZGB6QUF&a=I2EO8&tp_a=I2EO8&b=3OE22WJIGJAFI6YQDKCHT54ZGB6QUF&tp_b=3OE22WJIGJAFI6YQDKCHT54ZGB6QUF&c=365198&tp_c=365198"},{"rt":3911,"stimulus":"\n                <p>Student 7's first guess for coin weight: <b style=\"color:Tomato\";>0.83</b></p>\n                <p>Student 7's second guess for coin weight: <b style=\"color:Tomato\";>0.83</b></p>\n                <p>You received a bonus of <b>$0.24</b> based on the student's second guess.</p>\n                <p>Total bonus so far: <b>$1.60</b></p>\n                <p>Press any key to continue.</p>\n                ","response":" ","trial_type":"html-keyboard-response","trial_index":61,"time_elapsed":624876,"internal_node_id":"0.0-60.0","params":{"nStudents":24,"maxFlips":30,"completionMinutes":45,"basePay":8,"maxBonus":9,"perTrialBonus":0.5,"perTrialBonusThreshold":0.1,"exampleCost":0.01},"classroomParams":{"A":{"a":1,"b":4},"B":{"a":4,"b":1},"C":{"a":2,"b":8},"D":{"a":8,"b":2}},"conditions":["nonSeqFull","nonSeqPartial","seqNoFeedback","seqFeedback"],"classroomPairings":[["A","B"],["C","D"]],"coinWeights":[0.2,0.5,0.8],"subjectId":"A19WXS1CLVLEEX","assignmentId":"3OE22WJIGJAFI6YQDKCHT54ZGB6QUF","hitId":"3QGHA0EA0JM3KKNCY0PQRLYAHJ3BWH","url":"https://gershmanlab.com/experiments/alicia/teaching/experiment/?hitId=3QGHA0EA0JM3KKNCY0PQRLYAHJ3BWH&workerId=A19WXS1CLVLEEX&assignmentId=3OE22WJIGJAFI6YQDKCHT54ZGB6QUF&a=I2EO8&tp_a=I2EO8&b=3OE22WJIGJAFI6YQDKCHT54ZGB6QUF&tp_b=3OE22WJIGJAFI6YQDKCHT54ZGB6QUF&c=365198&tp_c=365198"},{"rt":null,"stimulus":"<div style=\"font-size:60px;\">Next student</div>","response":null,"trial_type":"html-keyboard-response","trial_index":62,"time_elapsed":627141,"internal_node_id":"0.0-61.0-0.0","params":{"nStudents":24,"maxFlips":30,"completionMinutes":45,"basePay":8,"maxBonus":9,"perTrialBonus":0.5,"perTrialBonusThreshold":0.1,"exampleCost":0.01},"classroomParams":{"A":{"a":1,"b":4},"B":{"a":4,"b":1},"C":{"a":2,"b":8},"D":{"a":8,"b":2}},"conditions":["nonSeqFull","nonSeqPartial","seqNoFeedback","seqFeedback"],"classroomPairings":[["A","B"],["C","D"]],"coinWeights":[0.2,0.5,0.8],"subjectId":"A19WXS1CLVLEEX","assignmentId":"3OE22WJIGJAFI6YQDKCHT54ZGB6QUF","hitId":"3QGHA0EA0JM3KKNCY0PQRLYAHJ3BWH","url":"https://gershmanlab.com/experiments/alicia/teaching/experiment/?hitId=3QGHA0EA0JM3KKNCY0PQRLYAHJ3BWH&workerId=A19WXS1CLVLEEX&assignmentId=3OE22WJIGJAFI6YQDKCHT54ZGB6QUF&a=I2EO8&tp_a=I2EO8&b=3OE22WJIGJAFI6YQDKCHT54ZGB6QUF&tp_b=3OE22WJIGJAFI6YQDKCHT54ZGB6QUF&c=365198&tp_c=365198"},{"rt":1925,"stimulus":"\n            <h4 style=\"color:Orange;\">Student 8</h4>\n            <h2>The weight of your coin is <b style=\"color:Tomato;\">0.2</b>.</h2>\n            <p>In this block, you will be giving <b>two</b> sets of examples to Student 8.</p>\n                <p>You will receive feedback at the end of the block.</p>\n            ","response":0,"trial_type":"html-button-response","trial_index":63,"time_elapsed":629068,"internal_node_id":"0.0-62.0","params":{"nStudents":24,"maxFlips":30,"completionMinutes":45,"basePay":8,"maxBonus":9,"perTrialBonus":0.5,"perTrialBonusThreshold":0.1,"exampleCost":0.01},"classroomParams":{"A":{"a":1,"b":4},"B":{"a":4,"b":1},"C":{"a":2,"b":8},"D":{"a":8,"b":2}},"conditions":["nonSeqFull","nonSeqPartial","seqNoFeedback","seqFeedback"],"classroomPairings":[["A","B"],["C","D"]],"coinWeights":[0.2,0.5,0.8],"subjectId":"A19WXS1CLVLEEX","assignmentId":"3OE22WJIGJAFI6YQDKCHT54ZGB6QUF","hitId":"3QGHA0EA0JM3KKNCY0PQRLYAHJ3BWH","url":"https://gershmanlab.com/experiments/alicia/teaching/experiment/?hitId=3QGHA0EA0JM3KKNCY0PQRLYAHJ3BWH&workerId=A19WXS1CLVLEEX&assignmentId=3OE22WJIGJAFI6YQDKCHT54ZGB6QUF&a=I2EO8&tp_a=I2EO8&b=3OE22WJIGJAFI6YQDKCHT54ZGB6QUF&tp_b=3OE22WJIGJAFI6YQDKCHT54ZGB6QUF&c=365198&tp_c=365198"},{"rt":9854,"response":{"heads":"2","tails":"12"},"type":"response","condition":"seqNoFeedback","trueTheta":0.2,"classrooms":["A","B"],"studentTrueClassroom":"B","exampleSet":"first","trial_type":"survey-html-form","trial_index":64,"time_elapsed":638923,"internal_node_id":"0.0-63.0-0.0","params":{"nStudents":24,"maxFlips":30,"completionMinutes":45,"basePay":8,"maxBonus":9,"perTrialBonus":0.5,"perTrialBonusThreshold":0.1,"exampleCost":0.01},"classroomParams":{"A":{"a":1,"b":4},"B":{"a":4,"b":1},"C":{"a":2,"b":8},"D":{"a":8,"b":2}},"conditions":["nonSeqFull","nonSeqPartial","seqNoFeedback","seqFeedback"],"classroomPairings":[["A","B"],["C","D"]],"coinWeights":[0.2,0.5,0.8],"subjectId":"A19WXS1CLVLEEX","assignmentId":"3OE22WJIGJAFI6YQDKCHT54ZGB6QUF","hitId":"3QGHA0EA0JM3KKNCY0PQRLYAHJ3BWH","url":"https://gershmanlab.com/experiments/alicia/teaching/experiment/?hitId=3QGHA0EA0JM3KKNCY0PQRLYAHJ3BWH&workerId=A19WXS1CLVLEEX&assignmentId=3OE22WJIGJAFI6YQDKCHT54ZGB6QUF&a=I2EO8&tp_a=I2EO8&b=3OE22WJIGJAFI6YQDKCHT54ZGB6QUF&tp_b=3OE22WJIGJAFI6YQDKCHT54ZGB6QUF&c=365198&tp_c=365198","heads":2,"tails":12,"studentIndex":7,"studentTrueHypers":{"a":4,"b":1},"studentGuess":0.3157894736842105,"delta":0.1157894736842105,"totalExamples":14,"bonusSoFar":1.6},{"rt":null,"stimulus":"Sending examples to student... ","response":null,"trial_type":"html-keyboard-response","trial_index":65,"time_elapsed":640432,"internal_node_id":"0.0-64.0","params":{"nStudents":24,"maxFlips":30,"completionMinutes":45,"basePay":8,"maxBonus":9,"perTrialBonus":0.5,"perTrialBonusThreshold":0.1,"exampleCost":0.01},"classroomParams":{"A":{"a":1,"b":4},"B":{"a":4,"b":1},"C":{"a":2,"b":8},"D":{"a":8,"b":2}},"conditions":["nonSeqFull","nonSeqPartial","seqNoFeedback","seqFeedback"],"classroomPairings":[["A","B"],["C","D"]],"coinWeights":[0.2,0.5,0.8],"subjectId":"A19WXS1CLVLEEX","assignmentId":"3OE22WJIGJAFI6YQDKCHT54ZGB6QUF","hitId":"3QGHA0EA0JM3KKNCY0PQRLYAHJ3BWH","url":"https://gershmanlab.com/experiments/alicia/teaching/experiment/?hitId=3QGHA0EA0JM3KKNCY0PQRLYAHJ3BWH&workerId=A19WXS1CLVLEEX&assignmentId=3OE22WJIGJAFI6YQDKCHT54ZGB6QUF&a=I2EO8&tp_a=I2EO8&b=3OE22WJIGJAFI6YQDKCHT54ZGB6QUF&tp_b=3OE22WJIGJAFI6YQDKCHT54ZGB6QUF&c=365198&tp_c=365198"},{"rt":null,"stimulus":"Examples sent to student! Waiting for student...","response":null,"trial_type":"html-keyboard-response","trial_index":66,"time_elapsed":644442,"internal_node_id":"0.0-65.0","params":{"nStudents":24,"maxFlips":30,"completionMinutes":45,"basePay":8,"maxBonus":9,"perTrialBonus":0.5,"perTrialBonusThreshold":0.1,"exampleCost":0.01},"classroomParams":{"A":{"a":1,"b":4},"B":{"a":4,"b":1},"C":{"a":2,"b":8},"D":{"a":8,"b":2}},"conditions":["nonSeqFull","nonSeqPartial","seqNoFeedback","seqFeedback"],"classroomPairings":[["A","B"],["C","D"]],"coinWeights":[0.2,0.5,0.8],"subjectId":"A19WXS1CLVLEEX","assignmentId":"3OE22WJIGJAFI6YQDKCHT54ZGB6QUF","hitId":"3QGHA0EA0JM3KKNCY0PQRLYAHJ3BWH","url":"https://gershmanlab.com/experiments/alicia/teaching/experiment/?hitId=3QGHA0EA0JM3KKNCY0PQRLYAHJ3BWH&workerId=A19WXS1CLVLEEX&assignmentId=3OE22WJIGJAFI6YQDKCHT54ZGB6QUF&a=I2EO8&tp_a=I2EO8&b=3OE22WJIGJAFI6YQDKCHT54ZGB6QUF&tp_b=3OE22WJIGJAFI6YQDKCHT54ZGB6QUF&c=365198&tp_c=365198"},{"rt":8039,"response":{"heads":"2","tails":"12"},"type":"response","condition":"seqNoFeedback","trueTheta":0.2,"classrooms":["A","B"],"studentTrueClassroom":"B","exampleSet":"second","trial_type":"survey-html-form","trial_index":67,"time_elapsed":652483,"internal_node_id":"0.0-66.0-0.0","params":{"nStudents":24,"maxFlips":30,"completionMinutes":45,"basePay":8,"maxBonus":9,"perTrialBonus":0.5,"perTrialBonusThreshold":0.1,"exampleCost":0.01},"classroomParams":{"A":{"a":1,"b":4},"B":{"a":4,"b":1},"C":{"a":2,"b":8},"D":{"a":8,"b":2}},"conditions":["nonSeqFull","nonSeqPartial","seqNoFeedback","seqFeedback"],"classroomPairings":[["A","B"],["C","D"]],"coinWeights":[0.2,0.5,0.8],"subjectId":"A19WXS1CLVLEEX","assignmentId":"3OE22WJIGJAFI6YQDKCHT54ZGB6QUF","hitId":"3QGHA0EA0JM3KKNCY0PQRLYAHJ3BWH","url":"https://gershmanlab.com/experiments/alicia/teaching/experiment/?hitId=3QGHA0EA0JM3KKNCY0PQRLYAHJ3BWH&workerId=A19WXS1CLVLEEX&assignmentId=3OE22WJIGJAFI6YQDKCHT54ZGB6QUF&a=I2EO8&tp_a=I2EO8&b=3OE22WJIGJAFI6YQDKCHT54ZGB6QUF&tp_b=3OE22WJIGJAFI6YQDKCHT54ZGB6QUF&c=365198&tp_c=365198","firstResponseHeads":2,"firstResponseTails":12,"secondResponseHeads":2,"secondResponseTails":12,"studentIndex":7,"studentTrueHypers":{"a":4,"b":1},"studentGuess":0.24242424242424243,"delta":0.04242424242424242,"bonus":0.22,"bonusSoFar":1.82,"totalExamples":28},{"rt":null,"stimulus":"Sending examples to student... ","response":null,"trial_type":"html-keyboard-response","trial_index":68,"time_elapsed":653740,"internal_node_id":"0.0-67.0","params":{"nStudents":24,"maxFlips":30,"completionMinutes":45,"basePay":8,"maxBonus":9,"perTrialBonus":0.5,"perTrialBonusThreshold":0.1,"exampleCost":0.01},"classroomParams":{"A":{"a":1,"b":4},"B":{"a":4,"b":1},"C":{"a":2,"b":8},"D":{"a":8,"b":2}},"conditions":["nonSeqFull","nonSeqPartial","seqNoFeedback","seqFeedback"],"classroomPairings":[["A","B"],["C","D"]],"coinWeights":[0.2,0.5,0.8],"subjectId":"A19WXS1CLVLEEX","assignmentId":"3OE22WJIGJAFI6YQDKCHT54ZGB6QUF","hitId":"3QGHA0EA0JM3KKNCY0PQRLYAHJ3BWH","url":"https://gershmanlab.com/experiments/alicia/teaching/experiment/?hitId=3QGHA0EA0JM3KKNCY0PQRLYAHJ3BWH&workerId=A19WXS1CLVLEEX&assignmentId=3OE22WJIGJAFI6YQDKCHT54ZGB6QUF&a=I2EO8&tp_a=I2EO8&b=3OE22WJIGJAFI6YQDKCHT54ZGB6QUF&tp_b=3OE22WJIGJAFI6YQDKCHT54ZGB6QUF&c=365198&tp_c=365198"},{"rt":null,"stimulus":"Examples sent to student! Waiting for student...","response":null,"trial_type":"html-keyboard-response","trial_index":69,"time_elapsed":659252,"internal_node_id":"0.0-68.0","params":{"nStudents":24,"maxFlips":30,"completionMinutes":45,"basePay":8,"maxBonus":9,"perTrialBonus":0.5,"perTrialBonusThreshold":0.1,"exampleCost":0.01},"classroomParams":{"A":{"a":1,"b":4},"B":{"a":4,"b":1},"C":{"a":2,"b":8},"D":{"a":8,"b":2}},"conditions":["nonSeqFull","nonSeqPartial","seqNoFeedback","seqFeedback"],"classroomPairings":[["A","B"],["C","D"]],"coinWeights":[0.2,0.5,0.8],"subjectId":"A19WXS1CLVLEEX","assignmentId":"3OE22WJIGJAFI6YQDKCHT54ZGB6QUF","hitId":"3QGHA0EA0JM3KKNCY0PQRLYAHJ3BWH","url":"https://gershmanlab.com/experiments/alicia/teaching/experiment/?hitId=3QGHA0EA0JM3KKNCY0PQRLYAHJ3BWH&workerId=A19WXS1CLVLEEX&assignmentId=3OE22WJIGJAFI6YQDKCHT54ZGB6QUF&a=I2EO8&tp_a=I2EO8&b=3OE22WJIGJAFI6YQDKCHT54ZGB6QUF&tp_b=3OE22WJIGJAFI6YQDKCHT54ZGB6QUF&c=365198&tp_c=365198"},{"rt":4617,"stimulus":"\n                <p>Student 8's first guess for coin weight: <b style=\"color:Tomato\";>0.32</b></p>\n                <p>Student 8's second guess for coin weight: <b style=\"color:Tomato\";>0.24</b></p>\n                <p>You received a bonus of <b>$0.22</b> based on the student's second guess.</p>\n                <p>Total bonus so far: <b>$1.82</b></p>\n                <p>Press any key to continue.</p>\n                ","response":" ","trial_type":"html-keyboard-response","trial_index":70,"time_elapsed":663870,"internal_node_id":"0.0-69.0","params":{"nStudents":24,"maxFlips":30,"completionMinutes":45,"basePay":8,"maxBonus":9,"perTrialBonus":0.5,"perTrialBonusThreshold":0.1,"exampleCost":0.01},"classroomParams":{"A":{"a":1,"b":4},"B":{"a":4,"b":1},"C":{"a":2,"b":8},"D":{"a":8,"b":2}},"conditions":["nonSeqFull","nonSeqPartial","seqNoFeedback","seqFeedback"],"classroomPairings":[["A","B"],["C","D"]],"coinWeights":[0.2,0.5,0.8],"subjectId":"A19WXS1CLVLEEX","assignmentId":"3OE22WJIGJAFI6YQDKCHT54ZGB6QUF","hitId":"3QGHA0EA0JM3KKNCY0PQRLYAHJ3BWH","url":"https://gershmanlab.com/experiments/alicia/teaching/experiment/?hitId=3QGHA0EA0JM3KKNCY0PQRLYAHJ3BWH&workerId=A19WXS1CLVLEEX&assignmentId=3OE22WJIGJAFI6YQDKCHT54ZGB6QUF&a=I2EO8&tp_a=I2EO8&b=3OE22WJIGJAFI6YQDKCHT54ZGB6QUF&tp_b=3OE22WJIGJAFI6YQDKCHT54ZGB6QUF&c=365198&tp_c=365198"},{"rt":null,"stimulus":"<div style=\"font-size:60px;\">Next student</div>","response":null,"trial_type":"html-keyboard-response","trial_index":71,"time_elapsed":665880,"internal_node_id":"0.0-70.0-0.0","params":{"nStudents":24,"maxFlips":30,"completionMinutes":45,"basePay":8,"maxBonus":9,"perTrialBonus":0.5,"perTrialBonusThreshold":0.1,"exampleCost":0.01},"classroomParams":{"A":{"a":1,"b":4},"B":{"a":4,"b":1},"C":{"a":2,"b":8},"D":{"a":8,"b":2}},"conditions":["nonSeqFull","nonSeqPartial","seqNoFeedback","seqFeedback"],"classroomPairings":[["A","B"],["C","D"]],"coinWeights":[0.2,0.5,0.8],"subjectId":"A19WXS1CLVLEEX","assignmentId":"3OE22WJIGJAFI6YQDKCHT54ZGB6QUF","hitId":"3QGHA0EA0JM3KKNCY0PQRLYAHJ3BWH","url":"https://gershmanlab.com/experiments/alicia/teaching/experiment/?hitId=3QGHA0EA0JM3KKNCY0PQRLYAHJ3BWH&workerId=A19WXS1CLVLEEX&assignmentId=3OE22WJIGJAFI6YQDKCHT54ZGB6QUF&a=I2EO8&tp_a=I2EO8&b=3OE22WJIGJAFI6YQDKCHT54ZGB6QUF&tp_b=3OE22WJIGJAFI6YQDKCHT54ZGB6QUF&c=365198&tp_c=365198"},{"rt":1798,"stimulus":"\n            <h4 style=\"color:Orange;\">Student 9</h4>\n            <h2>The weight of your coin is <b style=\"color:Tomato;\">0.2</b>.</h2>\n            <p>In this block, you will be giving <b>one</b> set of examples to Student 9.</p>\n                <p>You will receive feedback at the end of the block.</p>\n            ","response":0,"trial_type":"html-button-response","trial_index":72,"time_elapsed":667679,"internal_node_id":"0.0-71.0","params":{"nStudents":24,"maxFlips":30,"completionMinutes":45,"basePay":8,"maxBonus":9,"perTrialBonus":0.5,"perTrialBonusThreshold":0.1,"exampleCost":0.01},"classroomParams":{"A":{"a":1,"b":4},"B":{"a":4,"b":1},"C":{"a":2,"b":8},"D":{"a":8,"b":2}},"conditions":["nonSeqFull","nonSeqPartial","seqNoFeedback","seqFeedback"],"classroomPairings":[["A","B"],["C","D"]],"coinWeights":[0.2,0.5,0.8],"subjectId":"A19WXS1CLVLEEX","assignmentId":"3OE22WJIGJAFI6YQDKCHT54ZGB6QUF","hitId":"3QGHA0EA0JM3KKNCY0PQRLYAHJ3BWH","url":"https://gershmanlab.com/experiments/alicia/teaching/experiment/?hitId=3QGHA0EA0JM3KKNCY0PQRLYAHJ3BWH&workerId=A19WXS1CLVLEEX&assignmentId=3OE22WJIGJAFI6YQDKCHT54ZGB6QUF&a=I2EO8&tp_a=I2EO8&b=3OE22WJIGJAFI6YQDKCHT54ZGB6QUF&tp_b=3OE22WJIGJAFI6YQDKCHT54ZGB6QUF&c=365198&tp_c=365198"},{"rt":7687,"response":{"heads":"2","tails":"13"},"type":"response","condition":"nonSeqPartial","trueTheta":0.2,"classrooms":["C","D"],"studentTrueClassroom":"C","exampleSet":"first","trial_type":"survey-html-form","trial_index":73,"time_elapsed":675367,"internal_node_id":"0.0-72.0-0.0","params":{"nStudents":24,"maxFlips":30,"completionMinutes":45,"basePay":8,"maxBonus":9,"perTrialBonus":0.5,"perTrialBonusThreshold":0.1,"exampleCost":0.01},"classroomParams":{"A":{"a":1,"b":4},"B":{"a":4,"b":1},"C":{"a":2,"b":8},"D":{"a":8,"b":2}},"conditions":["nonSeqFull","nonSeqPartial","seqNoFeedback","seqFeedback"],"classroomPairings":[["A","B"],["C","D"]],"coinWeights":[0.2,0.5,0.8],"subjectId":"A19WXS1CLVLEEX","assignmentId":"3OE22WJIGJAFI6YQDKCHT54ZGB6QUF","hitId":"3QGHA0EA0JM3KKNCY0PQRLYAHJ3BWH","url":"https://gershmanlab.com/experiments/alicia/teaching/experiment/?hitId=3QGHA0EA0JM3KKNCY0PQRLYAHJ3BWH&workerId=A19WXS1CLVLEEX&assignmentId=3OE22WJIGJAFI6YQDKCHT54ZGB6QUF&a=I2EO8&tp_a=I2EO8&b=3OE22WJIGJAFI6YQDKCHT54ZGB6QUF&tp_b=3OE22WJIGJAFI6YQDKCHT54ZGB6QUF&c=365198&tp_c=365198","heads":2,"tails":13,"studentIndex":8,"studentTrueHypers":{"a":2,"b":8},"studentGuess":0.16,"delta":0.04000000000000001,"totalExamples":15,"bonus":0.35,"bonusSoFar":2.17},{"rt":null,"stimulus":"Sending examples to student... ","response":null,"trial_type":"html-keyboard-response","trial_index":74,"time_elapsed":676870,"internal_node_id":"0.0-73.0","params":{"nStudents":24,"maxFlips":30,"completionMinutes":45,"basePay":8,"maxBonus":9,"perTrialBonus":0.5,"perTrialBonusThreshold":0.1,"exampleCost":0.01},"classroomParams":{"A":{"a":1,"b":4},"B":{"a":4,"b":1},"C":{"a":2,"b":8},"D":{"a":8,"b":2}},"conditions":["nonSeqFull","nonSeqPartial","seqNoFeedback","seqFeedback"],"classroomPairings":[["A","B"],["C","D"]],"coinWeights":[0.2,0.5,0.8],"subjectId":"A19WXS1CLVLEEX","assignmentId":"3OE22WJIGJAFI6YQDKCHT54ZGB6QUF","hitId":"3QGHA0EA0JM3KKNCY0PQRLYAHJ3BWH","url":"https://gershmanlab.com/experiments/alicia/teaching/experiment/?hitId=3QGHA0EA0JM3KKNCY0PQRLYAHJ3BWH&workerId=A19WXS1CLVLEEX&assignmentId=3OE22WJIGJAFI6YQDKCHT54ZGB6QUF&a=I2EO8&tp_a=I2EO8&b=3OE22WJIGJAFI6YQDKCHT54ZGB6QUF&tp_b=3OE22WJIGJAFI6YQDKCHT54ZGB6QUF&c=365198&tp_c=365198"},{"rt":null,"stimulus":"Examples sent to student! Waiting for student...","response":null,"trial_type":"html-keyboard-response","trial_index":75,"time_elapsed":682377,"internal_node_id":"0.0-74.0","params":{"nStudents":24,"maxFlips":30,"completionMinutes":45,"basePay":8,"maxBonus":9,"perTrialBonus":0.5,"perTrialBonusThreshold":0.1,"exampleCost":0.01},"classroomParams":{"A":{"a":1,"b":4},"B":{"a":4,"b":1},"C":{"a":2,"b":8},"D":{"a":8,"b":2}},"conditions":["nonSeqFull","nonSeqPartial","seqNoFeedback","seqFeedback"],"classroomPairings":[["A","B"],["C","D"]],"coinWeights":[0.2,0.5,0.8],"subjectId":"A19WXS1CLVLEEX","assignmentId":"3OE22WJIGJAFI6YQDKCHT54ZGB6QUF","hitId":"3QGHA0EA0JM3KKNCY0PQRLYAHJ3BWH","url":"https://gershmanlab.com/experiments/alicia/teaching/experiment/?hitId=3QGHA0EA0JM3KKNCY0PQRLYAHJ3BWH&workerId=A19WXS1CLVLEEX&assignmentId=3OE22WJIGJAFI6YQDKCHT54ZGB6QUF&a=I2EO8&tp_a=I2EO8&b=3OE22WJIGJAFI6YQDKCHT54ZGB6QUF&tp_b=3OE22WJIGJAFI6YQDKCHT54ZGB6QUF&c=365198&tp_c=365198"},{"rt":2993,"stimulus":"\n                <p>Student's guess for coin weight: <b style=\"color:Tomato;\">0.16</b></p>\n                <p>You received a bonus of <b>$0.35</b>. Total bonus so far: <b>$2.17</b></b></p>\n                <p> Press any key to continue.</p>\n                ","response":" ","trial_type":"html-keyboard-response","trial_index":76,"time_elapsed":685372,"internal_node_id":"0.0-75.0","params":{"nStudents":24,"maxFlips":30,"completionMinutes":45,"basePay":8,"maxBonus":9,"perTrialBonus":0.5,"perTrialBonusThreshold":0.1,"exampleCost":0.01},"classroomParams":{"A":{"a":1,"b":4},"B":{"a":4,"b":1},"C":{"a":2,"b":8},"D":{"a":8,"b":2}},"conditions":["nonSeqFull","nonSeqPartial","seqNoFeedback","seqFeedback"],"classroomPairings":[["A","B"],["C","D"]],"coinWeights":[0.2,0.5,0.8],"subjectId":"A19WXS1CLVLEEX","assignmentId":"3OE22WJIGJAFI6YQDKCHT54ZGB6QUF","hitId":"3QGHA0EA0JM3KKNCY0PQRLYAHJ3BWH","url":"https://gershmanlab.com/experiments/alicia/teaching/experiment/?hitId=3QGHA0EA0JM3KKNCY0PQRLYAHJ3BWH&workerId=A19WXS1CLVLEEX&assignmentId=3OE22WJIGJAFI6YQDKCHT54ZGB6QUF&a=I2EO8&tp_a=I2EO8&b=3OE22WJIGJAFI6YQDKCHT54ZGB6QUF&tp_b=3OE22WJIGJAFI6YQDKCHT54ZGB6QUF&c=365198&tp_c=365198"},{"rt":null,"stimulus":"<div style=\"font-size:60px;\">Next student</div>","response":null,"trial_type":"html-keyboard-response","trial_index":77,"time_elapsed":687628,"internal_node_id":"0.0-76.0-0.0","params":{"nStudents":24,"maxFlips":30,"completionMinutes":45,"basePay":8,"maxBonus":9,"perTrialBonus":0.5,"perTrialBonusThreshold":0.1,"exampleCost":0.01},"classroomParams":{"A":{"a":1,"b":4},"B":{"a":4,"b":1},"C":{"a":2,"b":8},"D":{"a":8,"b":2}},"conditions":["nonSeqFull","nonSeqPartial","seqNoFeedback","seqFeedback"],"classroomPairings":[["A","B"],["C","D"]],"coinWeights":[0.2,0.5,0.8],"subjectId":"A19WXS1CLVLEEX","assignmentId":"3OE22WJIGJAFI6YQDKCHT54ZGB6QUF","hitId":"3QGHA0EA0JM3KKNCY0PQRLYAHJ3BWH","url":"https://gershmanlab.com/experiments/alicia/teaching/experiment/?hitId=3QGHA0EA0JM3KKNCY0PQRLYAHJ3BWH&workerId=A19WXS1CLVLEEX&assignmentId=3OE22WJIGJAFI6YQDKCHT54ZGB6QUF&a=I2EO8&tp_a=I2EO8&b=3OE22WJIGJAFI6YQDKCHT54ZGB6QUF&tp_b=3OE22WJIGJAFI6YQDKCHT54ZGB6QUF&c=365198&tp_c=365198"},{"rt":1346,"stimulus":"\n            <h4 style=\"color:Orange;\">Student 10</h4>\n            <h2>The weight of your coin is <b style=\"color:Tomato;\">0.5</b>.</h2>\n            <p>In this block, you will be giving <b>two</b> sets of examples to Student 10.</p>\n                <p>You will receive feedback at the end of the block.</p>\n            ","response":0,"trial_type":"html-button-response","trial_index":78,"time_elapsed":688975,"internal_node_id":"0.0-77.0","params":{"nStudents":24,"maxFlips":30,"completionMinutes":45,"basePay":8,"maxBonus":9,"perTrialBonus":0.5,"perTrialBonusThreshold":0.1,"exampleCost":0.01},"classroomParams":{"A":{"a":1,"b":4},"B":{"a":4,"b":1},"C":{"a":2,"b":8},"D":{"a":8,"b":2}},"conditions":["nonSeqFull","nonSeqPartial","seqNoFeedback","seqFeedback"],"classroomPairings":[["A","B"],["C","D"]],"coinWeights":[0.2,0.5,0.8],"subjectId":"A19WXS1CLVLEEX","assignmentId":"3OE22WJIGJAFI6YQDKCHT54ZGB6QUF","hitId":"3QGHA0EA0JM3KKNCY0PQRLYAHJ3BWH","url":"https://gershmanlab.com/experiments/alicia/teaching/experiment/?hitId=3QGHA0EA0JM3KKNCY0PQRLYAHJ3BWH&workerId=A19WXS1CLVLEEX&assignmentId=3OE22WJIGJAFI6YQDKCHT54ZGB6QUF&a=I2EO8&tp_a=I2EO8&b=3OE22WJIGJAFI6YQDKCHT54ZGB6QUF&tp_b=3OE22WJIGJAFI6YQDKCHT54ZGB6QUF&c=365198&tp_c=365198"},{"rt":9930,"response":{"heads":"15","tails":"15"},"type":"response","condition":"seqNoFeedback","trueTheta":0.5,"classrooms":["C","D"],"studentTrueClassroom":"C","exampleSet":"first","trial_type":"survey-html-form","trial_index":79,"time_elapsed":698908,"internal_node_id":"0.0-78.0-0.0","params":{"nStudents":24,"maxFlips":30,"completionMinutes":45,"basePay":8,"maxBonus":9,"perTrialBonus":0.5,"perTrialBonusThreshold":0.1,"exampleCost":0.01},"classroomParams":{"A":{"a":1,"b":4},"B":{"a":4,"b":1},"C":{"a":2,"b":8},"D":{"a":8,"b":2}},"conditions":["nonSeqFull","nonSeqPartial","seqNoFeedback","seqFeedback"],"classroomPairings":[["A","B"],["C","D"]],"coinWeights":[0.2,0.5,0.8],"subjectId":"A19WXS1CLVLEEX","assignmentId":"3OE22WJIGJAFI6YQDKCHT54ZGB6QUF","hitId":"3QGHA0EA0JM3KKNCY0PQRLYAHJ3BWH","url":"https://gershmanlab.com/experiments/alicia/teaching/experiment/?hitId=3QGHA0EA0JM3KKNCY0PQRLYAHJ3BWH&workerId=A19WXS1CLVLEEX&assignmentId=3OE22WJIGJAFI6YQDKCHT54ZGB6QUF&a=I2EO8&tp_a=I2EO8&b=3OE22WJIGJAFI6YQDKCHT54ZGB6QUF&tp_b=3OE22WJIGJAFI6YQDKCHT54ZGB6QUF&c=365198&tp_c=365198","heads":15,"tails":15,"studentIndex":9,"studentTrueHypers":{"a":2,"b":8},"studentGuess":0.425,"delta":0.07500000000000001,"totalExamples":30,"bonusSoFar":2.17},{"rt":null,"stimulus":"Sending examples to student... ","response":null,"trial_type":"html-keyboard-response","trial_index":80,"time_elapsed":700659,"internal_node_id":"0.0-79.0","params":{"nStudents":24,"maxFlips":30,"completionMinutes":45,"basePay":8,"maxBonus":9,"perTrialBonus":0.5,"perTrialBonusThreshold":0.1,"exampleCost":0.01},"classroomParams":{"A":{"a":1,"b":4},"B":{"a":4,"b":1},"C":{"a":2,"b":8},"D":{"a":8,"b":2}},"conditions":["nonSeqFull","nonSeqPartial","seqNoFeedback","seqFeedback"],"classroomPairings":[["A","B"],["C","D"]],"coinWeights":[0.2,0.5,0.8],"subjectId":"A19WXS1CLVLEEX","assignmentId":"3OE22WJIGJAFI6YQDKCHT54ZGB6QUF","hitId":"3QGHA0EA0JM3KKNCY0PQRLYAHJ3BWH","url":"https://gershmanlab.com/experiments/alicia/teaching/experiment/?hitId=3QGHA0EA0JM3KKNCY0PQRLYAHJ3BWH&workerId=A19WXS1CLVLEEX&assignmentId=3OE22WJIGJAFI6YQDKCHT54ZGB6QUF&a=I2EO8&tp_a=I2EO8&b=3OE22WJIGJAFI6YQDKCHT54ZGB6QUF&tp_b=3OE22WJIGJAFI6YQDKCHT54ZGB6QUF&c=365198&tp_c=365198"},{"rt":null,"stimulus":"Examples sent to student! Waiting for student...","response":null,"trial_type":"html-keyboard-response","trial_index":81,"time_elapsed":705661,"internal_node_id":"0.0-80.0","params":{"nStudents":24,"maxFlips":30,"completionMinutes":45,"basePay":8,"maxBonus":9,"perTrialBonus":0.5,"perTrialBonusThreshold":0.1,"exampleCost":0.01},"classroomParams":{"A":{"a":1,"b":4},"B":{"a":4,"b":1},"C":{"a":2,"b":8},"D":{"a":8,"b":2}},"conditions":["nonSeqFull","nonSeqPartial","seqNoFeedback","seqFeedback"],"classroomPairings":[["A","B"],["C","D"]],"coinWeights":[0.2,0.5,0.8],"subjectId":"A19WXS1CLVLEEX","assignmentId":"3OE22WJIGJAFI6YQDKCHT54ZGB6QUF","hitId":"3QGHA0EA0JM3KKNCY0PQRLYAHJ3BWH","url":"https://gershmanlab.com/experiments/alicia/teaching/experiment/?hitId=3QGHA0EA0JM3KKNCY0PQRLYAHJ3BWH&workerId=A19WXS1CLVLEEX&assignmentId=3OE22WJIGJAFI6YQDKCHT54ZGB6QUF&a=I2EO8&tp_a=I2EO8&b=3OE22WJIGJAFI6YQDKCHT54ZGB6QUF&tp_b=3OE22WJIGJAFI6YQDKCHT54ZGB6QUF&c=365198&tp_c=365198"},{"rt":10128,"response":{"heads":"15","tails":"15"},"type":"response","condition":"seqNoFeedback","trueTheta":0.5,"classrooms":["C","D"],"studentTrueClassroom":"C","exampleSet":"second","trial_type":"survey-html-form","trial_index":82,"time_elapsed":715791,"internal_node_id":"0.0-81.0-0.0","params":{"nStudents":24,"maxFlips":30,"completionMinutes":45,"basePay":8,"maxBonus":9,"perTrialBonus":0.5,"perTrialBonusThreshold":0.1,"exampleCost":0.01},"classroomParams":{"A":{"a":1,"b":4},"B":{"a":4,"b":1},"C":{"a":2,"b":8},"D":{"a":8,"b":2}},"conditions":["nonSeqFull","nonSeqPartial","seqNoFeedback","seqFeedback"],"classroomPairings":[["A","B"],["C","D"]],"coinWeights":[0.2,0.5,0.8],"subjectId":"A19WXS1CLVLEEX","assignmentId":"3OE22WJIGJAFI6YQDKCHT54ZGB6QUF","hitId":"3QGHA0EA0JM3KKNCY0PQRLYAHJ3BWH","url":"https://gershmanlab.com/experiments/alicia/teaching/experiment/?hitId=3QGHA0EA0JM3KKNCY0PQRLYAHJ3BWH&workerId=A19WXS1CLVLEEX&assignmentId=3OE22WJIGJAFI6YQDKCHT54ZGB6QUF&a=I2EO8&tp_a=I2EO8&b=3OE22WJIGJAFI6YQDKCHT54ZGB6QUF&tp_b=3OE22WJIGJAFI6YQDKCHT54ZGB6QUF&c=365198&tp_c=365198","firstResponseHeads":15,"firstResponseTails":15,"secondResponseHeads":15,"secondResponseTails":15,"studentIndex":9,"studentTrueHypers":{"a":2,"b":8},"studentGuess":0.45714285714285713,"delta":0.04285714285714287,"bonus":0,"bonusSoFar":2.17,"totalExamples":60},{"rt":null,"stimulus":"Sending examples to student... ","response":null,"trial_type":"html-keyboard-response","trial_index":83,"time_elapsed":717543,"internal_node_id":"0.0-82.0","params":{"nStudents":24,"maxFlips":30,"completionMinutes":45,"basePay":8,"maxBonus":9,"perTrialBonus":0.5,"perTrialBonusThreshold":0.1,"exampleCost":0.01},"classroomParams":{"A":{"a":1,"b":4},"B":{"a":4,"b":1},"C":{"a":2,"b":8},"D":{"a":8,"b":2}},"conditions":["nonSeqFull","nonSeqPartial","seqNoFeedback","seqFeedback"],"classroomPairings":[["A","B"],["C","D"]],"coinWeights":[0.2,0.5,0.8],"subjectId":"A19WXS1CLVLEEX","assignmentId":"3OE22WJIGJAFI6YQDKCHT54ZGB6QUF","hitId":"3QGHA0EA0JM3KKNCY0PQRLYAHJ3BWH","url":"https://gershmanlab.com/experiments/alicia/teaching/experiment/?hitId=3QGHA0EA0JM3KKNCY0PQRLYAHJ3BWH&workerId=A19WXS1CLVLEEX&assignmentId=3OE22WJIGJAFI6YQDKCHT54ZGB6QUF&a=I2EO8&tp_a=I2EO8&b=3OE22WJIGJAFI6YQDKCHT54ZGB6QUF&tp_b=3OE22WJIGJAFI6YQDKCHT54ZGB6QUF&c=365198&tp_c=365198"},{"rt":null,"stimulus":"Examples sent to student! Waiting for student...","response":null,"trial_type":"html-keyboard-response","trial_index":84,"time_elapsed":722545,"internal_node_id":"0.0-83.0","params":{"nStudents":24,"maxFlips":30,"completionMinutes":45,"basePay":8,"maxBonus":9,"perTrialBonus":0.5,"perTrialBonusThreshold":0.1,"exampleCost":0.01},"classroomParams":{"A":{"a":1,"b":4},"B":{"a":4,"b":1},"C":{"a":2,"b":8},"D":{"a":8,"b":2}},"conditions":["nonSeqFull","nonSeqPartial","seqNoFeedback","seqFeedback"],"classroomPairings":[["A","B"],["C","D"]],"coinWeights":[0.2,0.5,0.8],"subjectId":"A19WXS1CLVLEEX","assignmentId":"3OE22WJIGJAFI6YQDKCHT54ZGB6QUF","hitId":"3QGHA0EA0JM3KKNCY0PQRLYAHJ3BWH","url":"https://gershmanlab.com/experiments/alicia/teaching/experiment/?hitId=3QGHA0EA0JM3KKNCY0PQRLYAHJ3BWH&workerId=A19WXS1CLVLEEX&assignmentId=3OE22WJIGJAFI6YQDKCHT54ZGB6QUF&a=I2EO8&tp_a=I2EO8&b=3OE22WJIGJAFI6YQDKCHT54ZGB6QUF&tp_b=3OE22WJIGJAFI6YQDKCHT54ZGB6QUF&c=365198&tp_c=365198"},{"rt":8720,"stimulus":"\n                <p>Student 10's first guess for coin weight: <b style=\"color:Tomato\";>0.42</b></p>\n                <p>Student 10's second guess for coin weight: <b style=\"color:Tomato\";>0.46</b></p>\n                <p>You received a bonus of <b>$0.00</b> based on the student's second guess.</p>\n                <p>Total bonus so far: <b>$2.17</b></p>\n                <p>Press any key to continue.</p>\n                ","response":" ","trial_type":"html-keyboard-response","trial_index":85,"time_elapsed":731267,"internal_node_id":"0.0-84.0","params":{"nStudents":24,"maxFlips":30,"completionMinutes":45,"basePay":8,"maxBonus":9,"perTrialBonus":0.5,"perTrialBonusThreshold":0.1,"exampleCost":0.01},"classroomParams":{"A":{"a":1,"b":4},"B":{"a":4,"b":1},"C":{"a":2,"b":8},"D":{"a":8,"b":2}},"conditions":["nonSeqFull","nonSeqPartial","seqNoFeedback","seqFeedback"],"classroomPairings":[["A","B"],["C","D"]],"coinWeights":[0.2,0.5,0.8],"subjectId":"A19WXS1CLVLEEX","assignmentId":"3OE22WJIGJAFI6YQDKCHT54ZGB6QUF","hitId":"3QGHA0EA0JM3KKNCY0PQRLYAHJ3BWH","url":"https://gershmanlab.com/experiments/alicia/teaching/experiment/?hitId=3QGHA0EA0JM3KKNCY0PQRLYAHJ3BWH&workerId=A19WXS1CLVLEEX&assignmentId=3OE22WJIGJAFI6YQDKCHT54ZGB6QUF&a=I2EO8&tp_a=I2EO8&b=3OE22WJIGJAFI6YQDKCHT54ZGB6QUF&tp_b=3OE22WJIGJAFI6YQDKCHT54ZGB6QUF&c=365198&tp_c=365198"},{"rt":null,"stimulus":"<div style=\"font-size:60px;\">Next student</div>","response":null,"trial_type":"html-keyboard-response","trial_index":86,"time_elapsed":733268,"internal_node_id":"0.0-85.0-0.0","params":{"nStudents":24,"maxFlips":30,"completionMinutes":45,"basePay":8,"maxBonus":9,"perTrialBonus":0.5,"perTrialBonusThreshold":0.1,"exampleCost":0.01},"classroomParams":{"A":{"a":1,"b":4},"B":{"a":4,"b":1},"C":{"a":2,"b":8},"D":{"a":8,"b":2}},"conditions":["nonSeqFull","nonSeqPartial","seqNoFeedback","seqFeedback"],"classroomPairi