[
    {
        "rt": 9590,
        "stimulus": "Welcome to the experiment. Press any key to begin.",
        "response": " ",
        "trial_type": "html-keyboard-response",
        "trial_index": 0,
        "time_elapsed": 9602,
        "internal_node_id": "0.0-0.0",
        "params": {
            "nStudents": 24,
            "maxFlips": 30,
            "completionMinutes": 45,
            "basePay": 8,
            "maxBonus": 9,
            "perTrialBonus": 0.5,
            "perTrialBonusThreshold": 0.1,
            "exampleCost": 0.01
        },
        "classroomParams": {
            "A": {
                "a": 1,
                "b": 4
            },
            "B": {
                "a": 4,
                "b": 1
            },
            "C": {
                "a": 2,
                "b": 8
            },
            "D": {
                "a": 8,
                "b": 2
            }
        },
        "conditions": [
            "nonSeqFull",
            "nonSeqPartial",
            "seqNoFeedback",
            "seqFeedback"
        ],
        "classroomPairings": [
            [
                "A",
                "B"
            ],
            [
                "C",
                "D"
            ]
        ],
        "coinWeights": [
            0.2,
            0.5,
            0.8
        ],
        "subjectId": "A1DZMZTXWOM9MR",
        "assignmentId": "373ERPL3YPU0UUY1QUB7TZS2TJ1TRS",
        "hitId": "3H6W48L9F4B5OEOMH57RM53ZYNHWPM",
        "url": "https://gershmanlab.com/experiments/alicia/teaching/experiment/?hitId=3H6W48L9F4B5OEOMH57RM53ZYNHWPM&workerId=A1DZMZTXWOM9MR&assignmentId=373ERPL3YPU0UUY1QUB7TZS2TJ1TRS&a=3R378&tp_a=3R378&b=373ERPL3YPU0UUY1QUB7TZS2TJ1TRS&tp_b=373ERPL3YPU0UUY1QUB7TZS2TJ1TRS&c=365198&tp_c=365198"
    },
    {
        "rt": 4985,
        "stimulus": "\n        <h3>Please read this consent agreement carefully before deciding whether to participate in this experiment.</h3>\n        <p><b>Purpose of the research:</b> To examine how people teach effectively.</p>\n        <p><b>What you will do in this research:</b> You will teach students the weights of different coins.</p>\n        <p><b>Time required:</b> This experiment will take 45 minutes to complete.</p>\n        <p><b>Risks:</b> There are no anticipated risks associated with participating in this study.             The effects of participating should be comparable to those you would experience from viewing a computer monitor             and using a mouse and keyboard for the duration of the experiment.</p>\n        <p><b>Benefits:</b> The study provides important information about the nature of teaching.</p>\n        <p><b>Compensation:</b> You will receive <b>$8</b> for completing the experiment and a performance bonus of up to <b>$9</b>.</p>\n        <p><b>Confidentiality:</b> Your participation in this study will remain confidential.             No personally identifiable information will be associated with your data.             Your de-identified data may be shared with other researchers and used in future projects.</p>\n        <p><b>Participation and withdrawal:</b> Your participation in this study is completely voluntary and             you may refuse to participate or you may choose to withdraw at any time without penalty or loss of\n            benefits to which you are otherwise entitled.</p>\n        <p><b>How to contact the researcher:</b> If you have questions or concerns about your participation            or payment, or want to request a summary of research findings, please contact\n            Alicia Chen, aliciachen@college.harvard.edu.</p>\n        <p><b>Whom to contact about your rights in this research:</b> For questions, concerns, suggestions,             or complaints that have not been or cannot be addressed by the researcher, or to report             research-related harm, please contact the Committee on the Use of Human Subjects in Research at Harvard University,             1414 Massachusetts Avenue, Second Floor, Cambridge, MA 02138. Phone: 617-496-2847. Email: cuhs@fas.harvard.edu.</p>\n        ",
        "response": 0,
        "trial_type": "html-button-response",
        "trial_index": 1,
        "time_elapsed": 14589,
        "internal_node_id": "0.0-1.0",
        "params": {
            "nStudents": 24,
            "maxFlips": 30,
            "completionMinutes": 45,
            "basePay": 8,
            "maxBonus": 9,
            "perTrialBonus": 0.5,
            "perTrialBonusThreshold": 0.1,
            "exampleCost": 0.01
        },
        "classroomParams": {
            "A": {
                "a": 1,
                "b": 4
            },
            "B": {
                "a": 4,
                "b": 1
            },
            "C": {
                "a": 2,
                "b": 8
            },
            "D": {
                "a": 8,
                "b": 2
            }
        },
        "conditions": [
            "nonSeqFull",
            "nonSeqPartial",
            "seqNoFeedback",
            "seqFeedback"
        ],
        "classroomPairings": [
            [
                "A",
                "B"
            ],
            [
                "C",
                "D"
            ]
        ],
        "coinWeights": [
            0.2,
            0.5,
            0.8
        ],
        "subjectId": "A1DZMZTXWOM9MR",
        "assignmentId": "373ERPL3YPU0UUY1QUB7TZS2TJ1TRS",
        "hitId": "3H6W48L9F4B5OEOMH57RM53ZYNHWPM",
        "url": "https://gershmanlab.com/experiments/alicia/teaching/experiment/?hitId=3H6W48L9F4B5OEOMH57RM53ZYNHWPM&workerId=A1DZMZTXWOM9MR&assignmentId=373ERPL3YPU0UUY1QUB7TZS2TJ1TRS&a=3R378&tp_a=3R378&b=373ERPL3YPU0UUY1QUB7TZS2TJ1TRS&tp_b=373ERPL3YPU0UUY1QUB7TZS2TJ1TRS&c=365198&tp_c=365198"
    },
    {
        "view_history": [
            {
                "page_index": 0,
                "viewing_time": 8279
            },
            {
                "page_index": 1,
                "viewing_time": 12584
            },
            {
                "page_index": 2,
                "viewing_time": 60344
            },
            {
                "page_index": 3,
                "viewing_time": 45440
            },
            {
                "page_index": 4,
                "viewing_time": 26392
            },
            {
                "page_index": 5,
                "viewing_time": 41344
            },
            {
                "page_index": 6,
                "viewing_time": 102032
            }
        ],
        "rt": 296416,
        "trial_type": "instructions",
        "trial_index": 2,
        "time_elapsed": 311005,
        "internal_node_id": "0.0-2.0-0.0",
        "params": {
            "nStudents": 24,
            "maxFlips": 30,
            "completionMinutes": 45,
            "basePay": 8,
            "maxBonus": 9,
            "perTrialBonus": 0.5,
            "perTrialBonusThreshold": 0.1,
            "exampleCost": 0.01
        },
        "classroomParams": {
            "A": {
                "a": 1,
                "b": 4
            },
            "B": {
                "a": 4,
                "b": 1
            },
            "C": {
                "a": 2,
                "b": 8
            },
            "D": {
                "a": 8,
                "b": 2
            }
        },
        "conditions": [
            "nonSeqFull",
            "nonSeqPartial",
            "seqNoFeedback",
            "seqFeedback"
        ],
        "classroomPairings": [
            [
                "A",
                "B"
            ],
            [
                "C",
                "D"
            ]
        ],
        "coinWeights": [
            0.2,
            0.5,
            0.8
        ],
        "subjectId": "A1DZMZTXWOM9MR",
        "assignmentId": "373ERPL3YPU0UUY1QUB7TZS2TJ1TRS",
        "hitId": "3H6W48L9F4B5OEOMH57RM53ZYNHWPM",
        "url": "https://gershmanlab.com/experiments/alicia/teaching/experiment/?hitId=3H6W48L9F4B5OEOMH57RM53ZYNHWPM&workerId=A1DZMZTXWOM9MR&assignmentId=373ERPL3YPU0UUY1QUB7TZS2TJ1TRS&a=3R378&tp_a=3R378&b=373ERPL3YPU0UUY1QUB7TZS2TJ1TRS&tp_b=373ERPL3YPU0UUY1QUB7TZS2TJ1TRS&c=365198&tp_c=365198"
    },
    {
        "rt": 202327,
        "response": {
            "Q0": "Students in different classrooms will have seen a different number of heads and tails before seeing the examples you select for them.",
            "Q1": "By teaching efficiently and accurately/helpfully at the same time (because each example I give to the student costs money!).",
            "Q2": "The coin lands heads 90% of the time.",
            "Q3": "Yes, I might encounter the same student twice.",
            "Q4": "The students are also on the same alien planet as you, where coins can be unfair.",
            "Q5": "Based on the student's second (and final) guess."
        },
        "question_order": [
            1,
            2,
            4,
            5,
            3,
            0
        ],
        "trial_type": "survey-multi-choice",
        "trial_index": 3,
        "time_elapsed": 513334,
        "internal_node_id": "0.0-2.0-1.0",
        "params": {
            "nStudents": 24,
            "maxFlips": 30,
            "completionMinutes": 45,
            "basePay": 8,
            "maxBonus": 9,
            "perTrialBonus": 0.5,
            "perTrialBonusThreshold": 0.1,
            "exampleCost": 0.01
        },
        "classroomParams": {
            "A": {
                "a": 1,
                "b": 4
            },
            "B": {
                "a": 4,
                "b": 1
            },
            "C": {
                "a": 2,
                "b": 8
            },
            "D": {
                "a": 8,
                "b": 2
            }
        },
        "conditions": [
            "nonSeqFull",
            "nonSeqPartial",
            "seqNoFeedback",
            "seqFeedback"
        ],
        "classroomPairings": [
            [
                "A",
                "B"
            ],
            [
                "C",
                "D"
            ]
        ],
        "coinWeights": [
            0.2,
            0.5,
            0.8
        ],
        "subjectId": "A1DZMZTXWOM9MR",
        "assignmentId": "373ERPL3YPU0UUY1QUB7TZS2TJ1TRS",
        "hitId": "3H6W48L9F4B5OEOMH57RM53ZYNHWPM",
        "url": "https://gershmanlab.com/experiments/alicia/teaching/experiment/?hitId=3H6W48L9F4B5OEOMH57RM53ZYNHWPM&workerId=A1DZMZTXWOM9MR&assignmentId=373ERPL3YPU0UUY1QUB7TZS2TJ1TRS&a=3R378&tp_a=3R378&b=373ERPL3YPU0UUY1QUB7TZS2TJ1TRS&tp_b=373ERPL3YPU0UUY1QUB7TZS2TJ1TRS&c=365198&tp_c=365198",
        "pass": false
    },
    {
        "rt": 4613,
        "stimulus": "Oops, you have missed question(s) on the comprehension check! We'll show you the instructions again.",
        "response": 0,
        "trial_type": "html-button-response",
        "trial_index": 4,
        "time_elapsed": 517950,
        "internal_node_id": "0.0-2.0-2.0-0.0",
        "params": {
            "nStudents": 24,
            "maxFlips": 30,
            "completionMinutes": 45,
            "basePay": 8,
            "maxBonus": 9,
            "perTrialBonus": 0.5,
            "perTrialBonusThreshold": 0.1,
            "exampleCost": 0.01
        },
        "classroomParams": {
            "A": {
                "a": 1,
                "b": 4
            },
            "B": {
                "a": 4,
                "b": 1
            },
            "C": {
                "a": 2,
                "b": 8
            },
            "D": {
                "a": 8,
                "b": 2
            }
        },
        "conditions": [
            "nonSeqFull",
            "nonSeqPartial",
            "seqNoFeedback",
            "seqFeedback"
        ],
        "classroomPairings": [
            [
                "A",
                "B"
            ],
            [
                "C",
                "D"
            ]
        ],
        "coinWeights": [
            0.2,
            0.5,
            0.8
        ],
        "subjectId": "A1DZMZTXWOM9MR",
        "assignmentId": "373ERPL3YPU0UUY1QUB7TZS2TJ1TRS",
        "hitId": "3H6W48L9F4B5OEOMH57RM53ZYNHWPM",
        "url": "https://gershmanlab.com/experiments/alicia/teaching/experiment/?hitId=3H6W48L9F4B5OEOMH57RM53ZYNHWPM&workerId=A1DZMZTXWOM9MR&assignmentId=373ERPL3YPU0UUY1QUB7TZS2TJ1TRS&a=3R378&tp_a=3R378&b=373ERPL3YPU0UUY1QUB7TZS2TJ1TRS&tp_b=373ERPL3YPU0UUY1QUB7TZS2TJ1TRS&c=365198&tp_c=365198"
    },
    {
        "view_history": [
            {
                "page_index": 0,
                "viewing_time": 8655
            },
            {
                "page_index": 1,
                "viewing_time": 3320
            },
            {
                "page_index": 2,
                "viewing_time": 8312
            },
            {
                "page_index": 3,
                "viewing_time": 15176
            },
            {
                "page_index": 4,
                "viewing_time": 11920
            },
            {
                "page_index": 5,
                "viewing_time": 27560
            },
            {
                "page_index": 6,
                "viewing_time": 2088
            }
        ],
        "rt": 77032,
        "trial_type": "instructions",
        "trial_index": 5,
        "time_elapsed": 594982,
        "internal_node_id": "0.0-2.1-0.1",
        "params": {
            "nStudents": 24,
            "maxFlips": 30,
            "completionMinutes": 45,
            "basePay": 8,
            "maxBonus": 9,
            "perTrialBonus": 0.5,
            "perTrialBonusThreshold": 0.1,
            "exampleCost": 0.01
        },
        "classroomParams": {
            "A": {
                "a": 1,
                "b": 4
            },
            "B": {
                "a": 4,
                "b": 1
            },
            "C": {
                "a": 2,
                "b": 8
            },
            "D": {
                "a": 8,
                "b": 2
            }
        },
        "conditions": [
            "nonSeqFull",
            "nonSeqPartial",
            "seqNoFeedback",
            "seqFeedback"
        ],
        "classroomPairings": [
            [
                "A",
                "B"
            ],
            [
                "C",
                "D"
            ]
        ],
        "coinWeights": [
            0.2,
            0.5,
            0.8
        ],
        "subjectId": "A1DZMZTXWOM9MR",
        "assignmentId": "373ERPL3YPU0UUY1QUB7TZS2TJ1TRS",
        "hitId": "3H6W48L9F4B5OEOMH57RM53ZYNHWPM",
        "url": "https://gershmanlab.com/experiments/alicia/teaching/experiment/?hitId=3H6W48L9F4B5OEOMH57RM53ZYNHWPM&workerId=A1DZMZTXWOM9MR&assignmentId=373ERPL3YPU0UUY1QUB7TZS2TJ1TRS&a=3R378&tp_a=3R378&b=373ERPL3YPU0UUY1QUB7TZS2TJ1TRS&tp_b=373ERPL3YPU0UUY1QUB7TZS2TJ1TRS&c=365198&tp_c=365198"
    },
    {
        "rt": 68159,
        "response": {
            "Q0": "Students in different classrooms will have seen a different number of heads and tails before seeing the examples you select for them.",
            "Q1": "By teaching efficiently and accurately/helpfully at the same time (because each example I give to the student costs money!).",
            "Q2": "The coin lands heads 90% of the time.",
            "Q3": "No, I will teach a <b>new</b> student each time.",
            "Q4": "The students are also on the same alien planet as you, where coins can be unfair.",
            "Q5": "Based on the student's second (and final) guess."
        },
        "question_order": [
            0,
            5,
            4,
            1,
            3,
            2
        ],
        "trial_type": "survey-multi-choice",
        "trial_index": 6,
        "time_elapsed": 663142,
        "internal_node_id": "0.0-2.1-1.1",
        "params": {
            "nStudents": 24,
            "maxFlips": 30,
            "completionMinutes": 45,
            "basePay": 8,
            "maxBonus": 9,
            "perTrialBonus": 0.5,
            "perTrialBonusThreshold": 0.1,
            "exampleCost": 0.01
        },
        "classroomParams": {
            "A": {
                "a": 1,
                "b": 4
            },
            "B": {
                "a": 4,
                "b": 1
            },
            "C": {
                "a": 2,
                "b": 8
            },
            "D": {
                "a": 8,
                "b": 2
            }
        },
        "conditions": [
            "nonSeqFull",
            "nonSeqPartial",
            "seqNoFeedback",
            "seqFeedback"
        ],
        "classroomPairings": [
            [
                "A",
                "B"
            ],
            [
                "C",
                "D"
            ]
        ],
        "coinWeights": [
            0.2,
            0.5,
            0.8
        ],
        "subjectId": "A1DZMZTXWOM9MR",
        "assignmentId": "373ERPL3YPU0UUY1QUB7TZS2TJ1TRS",
        "hitId": "3H6W48L9F4B5OEOMH57RM53ZYNHWPM",
        "url": "https://gershmanlab.com/experiments/alicia/teaching/experiment/?hitId=3H6W48L9F4B5OEOMH57RM53ZYNHWPM&workerId=A1DZMZTXWOM9MR&assignmentId=373ERPL3YPU0UUY1QUB7TZS2TJ1TRS&a=3R378&tp_a=3R378&b=373ERPL3YPU0UUY1QUB7TZS2TJ1TRS&tp_b=373ERPL3YPU0UUY1QUB7TZS2TJ1TRS&c=365198&tp_c=365198",
        "pass": true
    },
    {
        "rt": null,
        "stimulus": "<div style=\"font-size:30px;\">Congrats on passing the comprehension quiz! The experiment will begin in a few seconds.</div>",
        "response": null,
        "trial_type": "html-keyboard-response",
        "trial_index": 7,
        "time_elapsed": 666147,
        "internal_node_id": "0.0-3.0",
        "params": {
            "nStudents": 24,
            "maxFlips": 30,
            "completionMinutes": 45,
            "basePay": 8,
            "maxBonus": 9,
            "perTrialBonus": 0.5,
            "perTrialBonusThreshold": 0.1,
            "exampleCost": 0.01
        },
        "classroomParams": {
            "A": {
                "a": 1,
                "b": 4
            },
            "B": {
                "a": 4,
                "b": 1
            },
            "C": {
                "a": 2,
                "b": 8
            },
            "D": {
                "a": 8,
                "b": 2
            }
        },
        "conditions": [
            "nonSeqFull",
            "nonSeqPartial",
            "seqNoFeedback",
            "seqFeedback"
        ],
        "classroomPairings": [
            [
                "A",
                "B"
            ],
            [
                "C",
                "D"
            ]
        ],
        "coinWeights": [
            0.2,
            0.5,
            0.8
        ],
        "subjectId": "A1DZMZTXWOM9MR",
        "assignmentId": "373ERPL3YPU0UUY1QUB7TZS2TJ1TRS",
        "hitId": "3H6W48L9F4B5OEOMH57RM53ZYNHWPM",
        "url": "https://gershmanlab.com/experiments/alicia/teaching/experiment/?hitId=3H6W48L9F4B5OEOMH57RM53ZYNHWPM&workerId=A1DZMZTXWOM9MR&assignmentId=373ERPL3YPU0UUY1QUB7TZS2TJ1TRS&a=3R378&tp_a=3R378&b=373ERPL3YPU0UUY1QUB7TZS2TJ1TRS&tp_b=373ERPL3YPU0UUY1QUB7TZS2TJ1TRS&c=365198&tp_c=365198"
    },
    {
        "rt": null,
        "stimulus": "<div style=\"font-size:50px;\">First student</div>",
        "response": null,
        "trial_type": "html-keyboard-response",
        "trial_index": 8,
        "time_elapsed": 669157,
        "internal_node_id": "0.0-4.0",
        "params": {
            "nStudents": 24,
            "maxFlips": 30,
            "completionMinutes": 45,
            "basePay": 8,
            "maxBonus": 9,
            "perTrialBonus": 0.5,
            "perTrialBonusThreshold": 0.1,
            "exampleCost": 0.01
        },
        "classroomParams": {
            "A": {
                "a": 1,
                "b": 4
            },
            "B": {
                "a": 4,
                "b": 1
            },
            "C": {
                "a": 2,
                "b": 8
            },
            "D": {
                "a": 8,
                "b": 2
            }
        },
        "conditions": [
            "nonSeqFull",
            "nonSeqPartial",
            "seqNoFeedback",
            "seqFeedback"
        ],
        "classroomPairings": [
            [
                "A",
                "B"
            ],
            [
                "C",
                "D"
            ]
        ],
        "coinWeights": [
            0.2,
            0.5,
            0.8
        ],
        "subjectId": "A1DZMZTXWOM9MR",
        "assignmentId": "373ERPL3YPU0UUY1QUB7TZS2TJ1TRS",
        "hitId": "3H6W48L9F4B5OEOMH57RM53ZYNHWPM",
        "url": "https://gershmanlab.com/experiments/alicia/teaching/experiment/?hitId=3H6W48L9F4B5OEOMH57RM53ZYNHWPM&workerId=A1DZMZTXWOM9MR&assignmentId=373ERPL3YPU0UUY1QUB7TZS2TJ1TRS&a=3R378&tp_a=3R378&b=373ERPL3YPU0UUY1QUB7TZS2TJ1TRS&tp_b=373ERPL3YPU0UUY1QUB7TZS2TJ1TRS&c=365198&tp_c=365198"
    },
    {
        "rt": 13520,
        "stimulus": "\n            <h4 style=\"color:Orange;\">Student 1</h4>\n            <h2>The weight of your coin is <b style=\"color:Tomato;\">0.5</b>.</h2>\n            <p>In this block, you will be giving <b>two</b> sets of examples to Student 1.</p>\n                <p>You will receive feedback at the end of the block.</p>\n            ",
        "response": 0,
        "trial_type": "html-button-response",
        "trial_index": 9,
        "time_elapsed": 682677,
        "internal_node_id": "0.0-5.0",
        "params": {
            "nStudents": 24,
            "maxFlips": 30,
            "completionMinutes": 45,
            "basePay": 8,
            "maxBonus": 9,
            "perTrialBonus": 0.5,
            "perTrialBonusThreshold": 0.1,
            "exampleCost": 0.01
        },
        "classroomParams": {
            "A": {
                "a": 1,
                "b": 4
            },
            "B": {
                "a": 4,
                "b": 1
            },
            "C": {
                "a": 2,
                "b": 8
            },
            "D": {
                "a": 8,
                "b": 2
            }
        },
        "conditions": [
            "nonSeqFull",
            "nonSeqPartial",
            "seqNoFeedback",
            "seqFeedback"
        ],
        "classroomPairings": [
            [
                "A",
                "B"
            ],
            [
                "C",
                "D"
            ]
        ],
        "coinWeights": [
            0.2,
            0.5,
            0.8
        ],
        "subjectId": "A1DZMZTXWOM9MR",
        "assignmentId": "373ERPL3YPU0UUY1QUB7TZS2TJ1TRS",
        "hitId": "3H6W48L9F4B5OEOMH57RM53ZYNHWPM",
        "url": "https://gershmanlab.com/experiments/alicia/teaching/experiment/?hitId=3H6W48L9F4B5OEOMH57RM53ZYNHWPM&workerId=A1DZMZTXWOM9MR&assignmentId=373ERPL3YPU0UUY1QUB7TZS2TJ1TRS&a=3R378&tp_a=3R378&b=373ERPL3YPU0UUY1QUB7TZS2TJ1TRS&tp_b=373ERPL3YPU0UUY1QUB7TZS2TJ1TRS&c=365198&tp_c=365198"
    },
    {
        "rt": 45240,
        "response": {
            "heads": "5",
            "tails": "5"
        },
        "type": "response",
        "condition": "seqNoFeedback",
        "trueTheta": 0.5,
        "classrooms": [
            "C",
            "D"
        ],
        "studentTrueClassroom": "C",
        "exampleSet": "first",
        "trial_type": "survey-html-form",
        "trial_index": 10,
        "time_elapsed": 727918,
        "internal_node_id": "0.0-6.0-0.0",
        "params": {
            "nStudents": 24,
            "maxFlips": 30,
            "completionMinutes": 45,
            "basePay": 8,
            "maxBonus": 9,
            "perTrialBonus": 0.5,
            "perTrialBonusThreshold": 0.1,
            "exampleCost": 0.01
        },
        "classroomParams": {
            "A": {
                "a": 1,
                "b": 4
            },
            "B": {
                "a": 4,
                "b": 1
            },
            "C": {
                "a": 2,
                "b": 8
            },
            "D": {
                "a": 8,
                "b": 2
            }
        },
        "conditions": [
            "nonSeqFull",
            "nonSeqPartial",
            "seqNoFeedback",
            "seqFeedback"
        ],
        "classroomPairings": [
            [
                "A",
                "B"
            ],
            [
                "C",
                "D"
            ]
        ],
        "coinWeights": [
            0.2,
            0.5,
            0.8
        ],
        "subjectId": "A1DZMZTXWOM9MR",
        "assignmentId": "373ERPL3YPU0UUY1QUB7TZS2TJ1TRS",
        "hitId": "3H6W48L9F4B5OEOMH57RM53ZYNHWPM",
        "url": "https://gershmanlab.com/experiments/alicia/teaching/experiment/?hitId=3H6W48L9F4B5OEOMH57RM53ZYNHWPM&workerId=A1DZMZTXWOM9MR&assignmentId=373ERPL3YPU0UUY1QUB7TZS2TJ1TRS&a=3R378&tp_a=3R378&b=373ERPL3YPU0UUY1QUB7TZS2TJ1TRS&tp_b=373ERPL3YPU0UUY1QUB7TZS2TJ1TRS&c=365198&tp_c=365198",
        "heads": 5,
        "tails": 5,
        "studentIndex": 0,
        "studentTrueHypers": {
            "a": 2,
            "b": 8
        },
        "studentGuess": 0.35,
        "delta": 0.15000000000000002,
        "totalExamples": 10,
        "bonusSoFar": 0
    },
    {
        "rt": null,
        "stimulus": "Sending examples to student... ",
        "response": null,
        "trial_type": "html-keyboard-response",
        "trial_index": 11,
        "time_elapsed": 729420,
        "internal_node_id": "0.0-7.0",
        "params": {
            "nStudents": 24,
            "maxFlips": 30,
            "completionMinutes": 45,
            "basePay": 8,
            "maxBonus": 9,
            "perTrialBonus": 0.5,
            "perTrialBonusThreshold": 0.1,
            "exampleCost": 0.01
        },
        "classroomParams": {
            "A": {
                "a": 1,
                "b": 4
            },
            "B": {
                "a": 4,
                "b": 1
            },
            "C": {
                "a": 2,
                "b": 8
            },
            "D": {
                "a": 8,
                "b": 2
            }
        },
        "conditions": [
            "nonSeqFull",
            "nonSeqPartial",
            "seqNoFeedback",
            "seqFeedback"
        ],
        "classroomPairings": [
            [
                "A",
                "B"
            ],
            [
                "C",
                "D"
            ]
        ],
        "coinWeights": [
            0.2,
            0.5,
            0.8
        ],
        "subjectId": "A1DZMZTXWOM9MR",
        "assignmentId": "373ERPL3YPU0UUY1QUB7TZS2TJ1TRS",
        "hitId": "3H6W48L9F4B5OEOMH57RM53ZYNHWPM",
        "url": "https://gershmanlab.com/experiments/alicia/teaching/experiment/?hitId=3H6W48L9F4B5OEOMH57RM53ZYNHWPM&workerId=A1DZMZTXWOM9MR&assignmentId=373ERPL3YPU0UUY1QUB7TZS2TJ1TRS&a=3R378&tp_a=3R378&b=373ERPL3YPU0UUY1QUB7TZS2TJ1TRS&tp_b=373ERPL3YPU0UUY1QUB7TZS2TJ1TRS&c=365198&tp_c=365198"
    },
    {
        "rt": null,
        "stimulus": "Examples sent to student! Waiting for student...",
        "response": null,
        "trial_type": "html-keyboard-response",
        "trial_index": 12,
        "time_elapsed": 735421,
        "internal_node_id": "0.0-8.0",
        "params": {
            "nStudents": 24,
            "maxFlips": 30,
            "completionMinutes": 45,
            "basePay": 8,
            "maxBonus": 9,
            "perTrialBonus": 0.5,
            "perTrialBonusThreshold": 0.1,
            "exampleCost": 0.01
        },
        "classroomParams": {
            "A": {
                "a": 1,
                "b": 4
            },
            "B": {
                "a": 4,
                "b": 1
            },
            "C": {
                "a": 2,
                "b": 8
            },
            "D": {
                "a": 8,
                "b": 2
            }
        },
        "conditions": [
            "nonSeqFull",
            "nonSeqPartial",
            "seqNoFeedback",
            "seqFeedback"
        ],
        "classroomPairings": [
            [
                "A",
                "B"
            ],
            [
                "C",
                "D"
            ]
        ],
        "coinWeights": [
            0.2,
            0.5,
            0.8
        ],
        "subjectId": "A1DZMZTXWOM9MR",
        "assignmentId": "373ERPL3YPU0UUY1QUB7TZS2TJ1TRS",
        "hitId": "3H6W48L9F4B5OEOMH57RM53ZYNHWPM",
        "url": "https://gershmanlab.com/experiments/alicia/teaching/experiment/?hitId=3H6W48L9F4B5OEOMH57RM53ZYNHWPM&workerId=A1DZMZTXWOM9MR&assignmentId=373ERPL3YPU0UUY1QUB7TZS2TJ1TRS&a=3R378&tp_a=3R378&b=373ERPL3YPU0UUY1QUB7TZS2TJ1TRS&tp_b=373ERPL3YPU0UUY1QUB7TZS2TJ1TRS&c=365198&tp_c=365198"
    },
    {
        "rt": 18143,
        "response": {
            "heads": "3",
            "tails": "3"
        },
        "type": "response",
        "condition": "seqNoFeedback",
        "trueTheta": 0.5,
        "classrooms": [
            "C",
            "D"
        ],
        "studentTrueClassroom": "C",
        "exampleSet": "second",
        "trial_type": "survey-html-form",
        "trial_index": 13,
        "time_elapsed": 753566,
        "internal_node_id": "0.0-9.0-0.0",
        "params": {
            "nStudents": 24,
            "maxFlips": 30,
            "completionMinutes": 45,
            "basePay": 8,
            "maxBonus": 9,
            "perTrialBonus": 0.5,
            "perTrialBonusThreshold": 0.1,
            "exampleCost": 0.01
        },
        "classroomParams": {
            "A": {
                "a": 1,
                "b": 4
            },
            "B": {
                "a": 4,
                "b": 1
            },
            "C": {
                "a": 2,
                "b": 8
            },
            "D": {
                "a": 8,
                "b": 2
            }
        },
        "conditions": [
            "nonSeqFull",
            "nonSeqPartial",
            "seqNoFeedback",
            "seqFeedback"
        ],
        "classroomPairings": [
            [
                "A",
                "B"
            ],
            [
                "C",
                "D"
            ]
        ],
        "coinWeights": [
            0.2,
            0.5,
            0.8
        ],
        "subjectId": "A1DZMZTXWOM9MR",
        "assignmentId": "373ERPL3YPU0UUY1QUB7TZS2TJ1TRS",
        "hitId": "3H6W48L9F4B5OEOMH57RM53ZYNHWPM",
        "url": "https://gershmanlab.com/experiments/alicia/teaching/experiment/?hitId=3H6W48L9F4B5OEOMH57RM53ZYNHWPM&workerId=A1DZMZTXWOM9MR&assignmentId=373ERPL3YPU0UUY1QUB7TZS2TJ1TRS&a=3R378&tp_a=3R378&b=373ERPL3YPU0UUY1QUB7TZS2TJ1TRS&tp_b=373ERPL3YPU0UUY1QUB7TZS2TJ1TRS&c=365198&tp_c=365198",
        "firstResponseHeads": 5,
        "firstResponseTails": 5,
        "secondResponseHeads": 3,
        "secondResponseTails": 3,
        "studentIndex": 0,
        "studentTrueHypers": {
            "a": 2,
            "b": 8
        },
        "studentGuess": 0.38461538461538464,
        "delta": 0.11538461538461536,
        "bonus": 0,
        "bonusSoFar": 0,
        "totalExamples": 16
    },
    {
        "rt": null,
        "stimulus": "Sending examples to student... ",
        "response": null,
        "trial_type": "html-keyboard-response",
        "trial_index": 14,
        "time_elapsed": 755323,
        "internal_node_id": "0.0-10.0",
        "params": {
            "nStudents": 24,
            "maxFlips": 30,
            "completionMinutes": 45,
            "basePay": 8,
            "maxBonus": 9,
            "perTrialBonus": 0.5,
            "perTrialBonusThreshold": 0.1,
            "exampleCost": 0.01
        },
        "classroomParams": {
            "A": {
                "a": 1,
                "b": 4
            },
            "B": {
                "a": 4,
                "b": 1
            },
            "C": {
                "a": 2,
                "b": 8
            },
            "D": {
                "a": 8,
                "b": 2
            }
        },
        "conditions": [
            "nonSeqFull",
            "nonSeqPartial",
            "seqNoFeedback",
            "seqFeedback"
        ],
        "classroomPairings": [
            [
                "A",
                "B"
            ],
            [
                "C",
                "D"
            ]
        ],
        "coinWeights": [
            0.2,
            0.5,
            0.8
        ],
        "subjectId": "A1DZMZTXWOM9MR",
        "assignmentId": "373ERPL3YPU0UUY1QUB7TZS2TJ1TRS",
        "hitId": "3H6W48L9F4B5OEOMH57RM53ZYNHWPM",
        "url": "https://gershmanlab.com/experiments/alicia/teaching/experiment/?hitId=3H6W48L9F4B5OEOMH57RM53ZYNHWPM&workerId=A1DZMZTXWOM9MR&assignmentId=373ERPL3YPU0UUY1QUB7TZS2TJ1TRS&a=3R378&tp_a=3R378&b=373ERPL3YPU0UUY1QUB7TZS2TJ1TRS&tp_b=373ERPL3YPU0UUY1QUB7TZS2TJ1TRS&c=365198&tp_c=365198"
    },
    {
        "rt": null,
        "stimulus": "Examples sent to student! Waiting for student...",
        "response": null,
        "trial_type": "html-keyboard-response",
        "trial_index": 15,
        "time_elapsed": 761324,
        "internal_node_id": "0.0-11.0",
        "params": {
            "nStudents": 24,
            "maxFlips": 30,
            "completionMinutes": 45,
            "basePay": 8,
            "maxBonus": 9,
            "perTrialBonus": 0.5,
            "perTrialBonusThreshold": 0.1,
            "exampleCost": 0.01
        },
        "classroomParams": {
            "A": {
                "a": 1,
                "b": 4
            },
            "B": {
                "a": 4,
                "b": 1
            },
            "C": {
                "a": 2,
                "b": 8
            },
            "D": {
                "a": 8,
                "b": 2
            }
        },
        "conditions": [
            "nonSeqFull",
            "nonSeqPartial",
            "seqNoFeedback",
            "seqFeedback"
        ],
        "classroomPairings": [
            [
                "A",
                "B"
            ],
            [
                "C",
                "D"
            ]
        ],
        "coinWeights": [
            0.2,
            0.5,
            0.8
        ],
        "subjectId": "A1DZMZTXWOM9MR",
        "assignmentId": "373ERPL3YPU0UUY1QUB7TZS2TJ1TRS",
        "hitId": "3H6W48L9F4B5OEOMH57RM53ZYNHWPM",
        "url": "https://gershmanlab.com/experiments/alicia/teaching/experiment/?hitId=3H6W48L9F4B5OEOMH57RM53ZYNHWPM&workerId=A1DZMZTXWOM9MR&assignmentId=373ERPL3YPU0UUY1QUB7TZS2TJ1TRS&a=3R378&tp_a=3R378&b=373ERPL3YPU0UUY1QUB7TZS2TJ1TRS&tp_b=373ERPL3YPU0UUY1QUB7TZS2TJ1TRS&c=365198&tp_c=365198"
    },
    {
        "rt": 8757,
        "stimulus": "\n                <p>Student 1's first guess for coin weight: <b style=\"color:Tomato\";>0.35</b></p>\n                <p>Student 1's second guess for coin weight: <b style=\"color:Tomato\";>0.38</b></p>\n                <p>You received a bonus of <b>$0.00</b> based on the student's second guess.</p>\n                <p>Total bonus so far: <b>$0.00</b></p>\n                <p>Press any key to continue.</p>\n                ",
        "response": " ",
        "trial_type": "html-keyboard-response",
        "trial_index": 16,
        "time_elapsed": 770082,
        "internal_node_id": "0.0-12.0",
        "params": {
            "nStudents": 24,
            "maxFlips": 30,
            "completionMinutes": 45,
            "basePay": 8,
            "maxBonus": 9,
            "perTrialBonus": 0.5,
            "perTrialBonusThreshold": 0.1,
            "exampleCost": 0.01
        },
        "classroomParams": {
            "A": {
                "a": 1,
                "b": 4
            },
            "B": {
                "a": 4,
                "b": 1
            },
            "C": {
                "a": 2,
                "b": 8
            },
            "D": {
                "a": 8,
                "b": 2
            }
        },
        "conditions": [
            "nonSeqFull",
            "nonSeqPartial",
            "seqNoFeedback",
            "seqFeedback"
        ],
        "classroomPairings": [
            [
                "A",
                "B"
            ],
            [
                "C",
                "D"
            ]
        ],
        "coinWeights": [
            0.2,
            0.5,
            0.8
        ],
        "subjectId": "A1DZMZTXWOM9MR",
        "assignmentId": "373ERPL3YPU0UUY1QUB7TZS2TJ1TRS",
        "hitId": "3H6W48L9F4B5OEOMH57RM53ZYNHWPM",
        "url": "https://gershmanlab.com/experiments/alicia/teaching/experiment/?hitId=3H6W48L9F4B5OEOMH57RM53ZYNHWPM&workerId=A1DZMZTXWOM9MR&assignmentId=373ERPL3YPU0UUY1QUB7TZS2TJ1TRS&a=3R378&tp_a=3R378&b=373ERPL3YPU0UUY1QUB7TZS2TJ1TRS&tp_b=373ERPL3YPU0UUY1QUB7TZS2TJ1TRS&c=365198&tp_c=365198"
    },
    {
        "rt": null,
        "stimulus": "<div style=\"font-size:60px;\">Next student</div>",
        "response": null,
        "trial_type": "html-keyboard-response",
        "trial_index": 17,
        "time_elapsed": 772088,
        "internal_node_id": "0.0-13.0-0.0",
        "params": {
            "nStudents": 24,
            "maxFlips": 30,
            "completionMinutes": 45,
            "basePay": 8,
            "maxBonus": 9,
            "perTrialBonus": 0.5,
            "perTrialBonusThreshold": 0.1,
            "exampleCost": 0.01
        },
        "classroomParams": {
            "A": {
                "a": 1,
                "b": 4
            },
            "B": {
                "a": 4,
                "b": 1
            },
            "C": {
                "a": 2,
                "b": 8
            },
            "D": {
                "a": 8,
                "b": 2
            }
        },
        "conditions": [
            "nonSeqFull",
            "nonSeqPartial",
            "seqNoFeedback",
            "seqFeedback"
        ],
        "classroomPairings": [
            [
                "A",
                "B"
            ],
            [
                "C",
                "D"
            ]
        ],
        "coinWeights": [
            0.2,
            0.5,
            0.8
        ],
        "subjectId": "A1DZMZTXWOM9MR",
        "assignmentId": "373ERPL3YPU0UUY1QUB7TZS2TJ1TRS",
        "hitId": "3H6W48L9F4B5OEOMH57RM53ZYNHWPM",
        "url": "https://gershmanlab.com/experiments/alicia/teaching/experiment/?hitId=3H6W48L9F4B5OEOMH57RM53ZYNHWPM&workerId=A1DZMZTXWOM9MR&assignmentId=373ERPL3YPU0UUY1QUB7TZS2TJ1TRS&a=3R378&tp_a=3R378&b=373ERPL3YPU0UUY1QUB7TZS2TJ1TRS&tp_b=373ERPL3YPU0UUY1QUB7TZS2TJ1TRS&c=365198&tp_c=365198"
    },
    {
        "rt": 6524,
        "stimulus": "\n            <h4 style=\"color:Orange;\">Student 2</h4>\n            <h2>The weight of your coin is <b style=\"color:Tomato;\">0.8</b>.</h2>\n            <p>In this block, you will be giving <b>one</b> set of examples to Student 2.</p>\n                <p>You will receive feedback at the end of the block.</p>\n            ",
        "response": 0,
        "trial_type": "html-button-response",
        "trial_index": 18,
        "time_elapsed": 778614,
        "internal_node_id": "0.0-14.0",
        "params": {
            "nStudents": 24,
            "maxFlips": 30,
            "completionMinutes": 45,
            "basePay": 8,
            "maxBonus": 9,
            "perTrialBonus": 0.5,
            "perTrialBonusThreshold": 0.1,
            "exampleCost": 0.01
        },
        "classroomParams": {
            "A": {
                "a": 1,
                "b": 4
            },
            "B": {
                "a": 4,
                "b": 1
            },
            "C": {
                "a": 2,
                "b": 8
            },
            "D": {
                "a": 8,
                "b": 2
            }
        },
        "conditions": [
            "nonSeqFull",
            "nonSeqPartial",
            "seqNoFeedback",
            "seqFeedback"
        ],
        "classroomPairings": [
            [
                "A",
                "B"
            ],
            [
                "C",
                "D"
            ]
        ],
        "coinWeights": [
            0.2,
            0.5,
            0.8
        ],
        "subjectId": "A1DZMZTXWOM9MR",
        "assignmentId": "373ERPL3YPU0UUY1QUB7TZS2TJ1TRS",
        "hitId": "3H6W48L9F4B5OEOMH57RM53ZYNHWPM",
        "url": "https://gershmanlab.com/experiments/alicia/teaching/experiment/?hitId=3H6W48L9F4B5OEOMH57RM53ZYNHWPM&workerId=A1DZMZTXWOM9MR&assignmentId=373ERPL3YPU0UUY1QUB7TZS2TJ1TRS&a=3R378&tp_a=3R378&b=373ERPL3YPU0UUY1QUB7TZS2TJ1TRS&tp_b=373ERPL3YPU0UUY1QUB7TZS2TJ1TRS&c=365198&tp_c=365198"
    },
    {
        "rt": 22136,
        "response": {
            "heads": "8",
            "tails": "2"
        },
        "type": "response",
        "condition": "nonSeqFull",
        "trueTheta": 0.8,
        "classrooms": [
            "A",
            "B"
        ],
        "studentTrueClassroom": "A",
        "exampleSet": "first",
        "trial_type": "survey-html-form",
        "trial_index": 19,
        "time_elapsed": 800749,
        "internal_node_id": "0.0-15.0-0.0",
        "params": {
            "nStudents": 24,
            "maxFlips": 30,
            "completionMinutes": 45,
            "basePay": 8,
            "maxBonus": 9,
            "perTrialBonus": 0.5,
            "perTrialBonusThreshold": 0.1,
            "exampleCost": 0.01
        },
        "classroomParams": {
            "A": {
                "a": 1,
                "b": 4
            },
            "B": {
                "a": 4,
                "b": 1
            },
            "C": {
                "a": 2,
                "b": 8
            },
            "D": {
                "a": 8,
                "b": 2
            }
        },
        "conditions": [
            "nonSeqFull",
            "nonSeqPartial",
            "seqNoFeedback",
            "seqFeedback"
        ],
        "classroomPairings": [
            [
                "A",
                "B"
            ],
            [
                "C",
                "D"
            ]
        ],
        "coinWeights": [
            0.2,
            0.5,
            0.8
        ],
        "subjectId": "A1DZMZTXWOM9MR",
        "assignmentId": "373ERPL3YPU0UUY1QUB7TZS2TJ1TRS",
        "hitId": "3H6W48L9F4B5OEOMH57RM53ZYNHWPM",
        "url": "https://gershmanlab.com/experiments/alicia/teaching/experiment/?hitId=3H6W48L9F4B5OEOMH57RM53ZYNHWPM&workerId=A1DZMZTXWOM9MR&assignmentId=373ERPL3YPU0UUY1QUB7TZS2TJ1TRS&a=3R378&tp_a=3R378&b=373ERPL3YPU0UUY1QUB7TZS2TJ1TRS&tp_b=373ERPL3YPU0UUY1QUB7TZS2TJ1TRS&c=365198&tp_c=365198",
        "heads": 8,
        "tails": 2,
        "studentIndex": 1,
        "studentTrueHypers": {
            "a": 1,
            "b": 4
        },
        "studentGuess": 0.6,
        "delta": 0.20000000000000007,
        "totalExamples": 10,
        "bonus": 0,
        "bonusSoFar": 0
    },
    {
        "rt": null,
        "stimulus": "Sending examples to student... ",
        "response": null,
        "trial_type": "html-keyboard-response",
        "trial_index": 20,
        "time_elapsed": 802507,
        "internal_node_id": "0.0-16.0",
        "params": {
            "nStudents": 24,
            "maxFlips": 30,
            "completionMinutes": 45,
            "basePay": 8,
            "maxBonus": 9,
            "perTrialBonus": 0.5,
            "perTrialBonusThreshold": 0.1,
            "exampleCost": 0.01
        },
        "classroomParams": {
            "A": {
                "a": 1,
                "b": 4
            },
            "B": {
                "a": 4,
                "b": 1
            },
            "C": {
                "a": 2,
                "b": 8
            },
            "D": {
                "a": 8,
                "b": 2
            }
        },
        "conditions": [
            "nonSeqFull",
            "nonSeqPartial",
            "seqNoFeedback",
            "seqFeedback"
        ],
        "classroomPairings": [
            [
                "A",
                "B"
            ],
            [
                "C",
                "D"
            ]
        ],
        "coinWeights": [
            0.2,
            0.5,
            0.8
        ],
        "subjectId": "A1DZMZTXWOM9MR",
        "assignmentId": "373ERPL3YPU0UUY1QUB7TZS2TJ1TRS",
        "hitId": "3H6W48L9F4B5OEOMH57RM53ZYNHWPM",
        "url": "https://gershmanlab.com/experiments/alicia/teaching/experiment/?hitId=3H6W48L9F4B5OEOMH57RM53ZYNHWPM&workerId=A1DZMZTXWOM9MR&assignmentId=373ERPL3YPU0UUY1QUB7TZS2TJ1TRS&a=3R378&tp_a=3R378&b=373ERPL3YPU0UUY1QUB7TZS2TJ1TRS&tp_b=373ERPL3YPU0UUY1QUB7TZS2TJ1TRS&c=365198&tp_c=365198"
    },
    {
        "rt": null,
        "stimulus": "Examples sent to student! Waiting for student...",
        "response": null,
        "trial_type": "html-keyboard-response",
        "trial_index": 21,
        "time_elapsed": 807507,
        "internal_node_id": "0.0-17.0",
        "params": {
            "nStudents": 24,
            "maxFlips": 30,
            "completionMinutes": 45,
            "basePay": 8,
            "maxBonus": 9,
            "perTrialBonus": 0.5,
            "perTrialBonusThreshold": 0.1,
            "exampleCost": 0.01
        },
        "classroomParams": {
            "A": {
                "a": 1,
                "b": 4
            },
            "B": {
                "a": 4,
                "b": 1
            },
            "C": {
                "a": 2,
                "b": 8
            },
            "D": {
                "a": 8,
                "b": 2
            }
        },
        "conditions": [
            "nonSeqFull",
            "nonSeqPartial",
            "seqNoFeedback",
            "seqFeedback"
        ],
        "classroomPairings": [
            [
                "A",
                "B"
            ],
            [
                "C",
                "D"
            ]
        ],
        "coinWeights": [
            0.2,
            0.5,
            0.8
        ],
        "subjectId": "A1DZMZTXWOM9MR",
        "assignmentId": "373ERPL3YPU0UUY1QUB7TZS2TJ1TRS",
        "hitId": "3H6W48L9F4B5OEOMH57RM53ZYNHWPM",
        "url": "https://gershmanlab.com/experiments/alicia/teaching/experiment/?hitId=3H6W48L9F4B5OEOMH57RM53ZYNHWPM&workerId=A1DZMZTXWOM9MR&assignmentId=373ERPL3YPU0UUY1QUB7TZS2TJ1TRS&a=3R378&tp_a=3R378&b=373ERPL3YPU0UUY1QUB7TZS2TJ1TRS&tp_b=373ERPL3YPU0UUY1QUB7TZS2TJ1TRS&c=365198&tp_c=365198"
    },
    {
        "rt": 6680,
        "stimulus": "\n                <p>Student's guess for coin weight: <b style=\"color:Tomato;\">0.60</b></p>\n                <p>You received a bonus of <b>$0</b>. Total bonus so far: <b>$0.00</b></b></p>\n                <p> Press any key to continue.</p>\n                ",
        "response": " ",
        "trial_type": "html-keyboard-response",
        "trial_index": 22,
        "time_elapsed": 814188,
        "internal_node_id": "0.0-18.0",
        "params": {
            "nStudents": 24,
            "maxFlips": 30,
            "completionMinutes": 45,
            "basePay": 8,
            "maxBonus": 9,
            "perTrialBonus": 0.5,
            "perTrialBonusThreshold": 0.1,
            "exampleCost": 0.01
        },
        "classroomParams": {
            "A": {
                "a": 1,
                "b": 4
            },
            "B": {
                "a": 4,
                "b": 1
            },
            "C": {
                "a": 2,
                "b": 8
            },
            "D": {
                "a": 8,
                "b": 2
            }
        },
        "conditions": [
            "nonSeqFull",
            "nonSeqPartial",
            "seqNoFeedback",
            "seqFeedback"
        ],
        "classroomPairings": [
            [
                "A",
                "B"
            ],
            [
                "C",
                "D"
            ]
        ],
        "coinWeights": [
            0.2,
            0.5,
            0.8
        ],
        "subjectId": "A1DZMZTXWOM9MR",
        "assignmentId": "373ERPL3YPU0UUY1QUB7TZS2TJ1TRS",
        "hitId": "3H6W48L9F4B5OEOMH57RM53ZYNHWPM",
        "url": "https://gershmanlab.com/experiments/alicia/teaching/experiment/?hitId=3H6W48L9F4B5OEOMH57RM53ZYNHWPM&workerId=A1DZMZTXWOM9MR&assignmentId=373ERPL3YPU0UUY1QUB7TZS2TJ1TRS&a=3R378&tp_a=3R378&b=373ERPL3YPU0UUY1QUB7TZS2TJ1TRS&tp_b=373ERPL3YPU0UUY1QUB7TZS2TJ1TRS&c=365198&tp_c=365198"
    },
    {
        "rt": null,
        "stimulus": "<div style=\"font-size:60px;\">Next student</div>",
        "response": null,
        "trial_type": "html-keyboard-response",
        "trial_index": 23,
        "time_elapsed": 816189,
        "internal_node_id": "0.0-19.0-0.0",
        "params": {
            "nStudents": 24,
            "maxFlips": 30,
            "completionMinutes": 45,
            "basePay": 8,
            "maxBonus": 9,
            "perTrialBonus": 0.5,
            "perTrialBonusThreshold": 0.1,
            "exampleCost": 0.01
        },
        "classroomParams": {
            "A": {
                "a": 1,
                "b": 4
            },
            "B": {
                "a": 4,
                "b": 1
            },
            "C": {
                "a": 2,
                "b": 8
            },
            "D": {
                "a": 8,
                "b": 2
            }
        },
        "conditions": [
            "nonSeqFull",
            "nonSeqPartial",
            "seqNoFeedback",
            "seqFeedback"
        ],
        "classroomPairings": [
            [
                "A",
                "B"
            ],
            [
                "C",
                "D"
            ]
        ],
        "coinWeights": [
            0.2,
            0.5,
            0.8
        ],
        "subjectId": "A1DZMZTXWOM9MR",
        "assignmentId": "373ERPL3YPU0UUY1QUB7TZS2TJ1TRS",
        "hitId": "3H6W48L9F4B5OEOMH57RM53ZYNHWPM",
        "url": "https://gershmanlab.com/experiments/alicia/teaching/experiment/?hitId=3H6W48L9F4B5OEOMH57RM53ZYNHWPM&workerId=A1DZMZTXWOM9MR&assignmentId=373ERPL3YPU0UUY1QUB7TZS2TJ1TRS&a=3R378&tp_a=3R378&b=373ERPL3YPU0UUY1QUB7TZS2TJ1TRS&tp_b=373ERPL3YPU0UUY1QUB7TZS2TJ1TRS&c=365198&tp_c=365198"
    },
    {
        "rt": 5992,
        "stimulus": "\n            <h4 style=\"color:Orange;\">Student 3</h4>\n            <h2>The weight of your coin is <b style=\"color:Tomato;\">0.2</b>.</h2>\n            <p>In this block, you will be giving <b>one</b> set of examples to Student 3.</p>\n                <p>You will receive feedback at the end of the block.</p>\n            ",
        "response": 0,
        "trial_type": "html-button-response",
        "trial_index": 24,
        "time_elapsed": 822181,
        "internal_node_id": "0.0-20.0",
        "params": {
            "nStudents": 24,
            "maxFlips": 30,
            "completionMinutes": 45,
            "basePay": 8,
            "maxBonus": 9,
            "perTrialBonus": 0.5,
            "perTrialBonusThreshold": 0.1,
            "exampleCost": 0.01
        },
        "classroomParams": {
            "A": {
                "a": 1,
                "b": 4
            },
            "B": {
                "a": 4,
                "b": 1
            },
            "C": {
                "a": 2,
                "b": 8
            },
            "D": {
                "a": 8,
                "b": 2
            }
        },
        "conditions": [
            "nonSeqFull",
            "nonSeqPartial",
            "seqNoFeedback",
            "seqFeedback"
        ],
        "classroomPairings": [
            [
                "A",
                "B"
            ],
            [
                "C",
                "D"
            ]
        ],
        "coinWeights": [
            0.2,
            0.5,
            0.8
        ],
        "subjectId": "A1DZMZTXWOM9MR",
        "assignmentId": "373ERPL3YPU0UUY1QUB7TZS2TJ1TRS",
        "hitId": "3H6W48L9F4B5OEOMH57RM53ZYNHWPM",
        "url": "https://gershmanlab.com/experiments/alicia/teaching/experiment/?hitId=3H6W48L9F4B5OEOMH57RM53ZYNHWPM&workerId=A1DZMZTXWOM9MR&assignmentId=373ERPL3YPU0UUY1QUB7TZS2TJ1TRS&a=3R378&tp_a=3R378&b=373ERPL3YPU0UUY1QUB7TZS2TJ1TRS&tp_b=373ERPL3YPU0UUY1QUB7TZS2TJ1TRS&c=365198&tp_c=365198"
    },
    {
        "rt": 22584,
        "response": {
            "heads": "2",
            "tails": "8"
        },
        "type": "response",
        "condition": "nonSeqPartial",
        "trueTheta": 0.2,
        "classrooms": [
            "C",
            "D"
        ],
        "studentTrueClassroom": "C",
        "exampleSet": "first",
        "trial_type": "survey-html-form",
        "trial_index": 25,
        "time_elapsed": 844765,
        "internal_node_id": "0.0-21.0-0.0",
        "params": {
            "nStudents": 24,
            "maxFlips": 30,
            "completionMinutes": 45,
            "basePay": 8,
            "maxBonus": 9,
            "perTrialBonus": 0.5,
            "perTrialBonusThreshold": 0.1,
            "exampleCost": 0.01
        },
        "classroomParams": {
            "A": {
                "a": 1,
                "b": 4
            },
            "B": {
                "a": 4,
                "b": 1
            },
            "C": {
                "a": 2,
                "b": 8
            },
            "D": {
                "a": 8,
                "b": 2
            }
        },
        "conditions": [
            "nonSeqFull",
            "nonSeqPartial",
            "seqNoFeedback",
            "seqFeedback"
        ],
        "classroomPairings": [
            [
                "A",
                "B"
            ],
            [
                "C",
                "D"
            ]
        ],
        "coinWeights": [
            0.2,
            0.5,
            0.8
        ],
        "subjectId": "A1DZMZTXWOM9MR",
        "assignmentId": "373ERPL3YPU0UUY1QUB7TZS2TJ1TRS",
        "hitId": "3H6W48L9F4B5OEOMH57RM53ZYNHWPM",
        "url": "https://gershmanlab.com/experiments/alicia/teaching/experiment/?hitId=3H6W48L9F4B5OEOMH57RM53ZYNHWPM&workerId=A1DZMZTXWOM9MR&assignmentId=373ERPL3YPU0UUY1QUB7TZS2TJ1TRS&a=3R378&tp_a=3R378&b=373ERPL3YPU0UUY1QUB7TZS2TJ1TRS&tp_b=373ERPL3YPU0UUY1QUB7TZS2TJ1TRS&c=365198&tp_c=365198",
        "heads": 2,
        "tails": 8,
        "studentIndex": 2,
        "studentTrueHypers": {
            "a": 2,
            "b": 8
        },
        "studentGuess": 0.2,
        "delta": 0,
        "totalExamples": 10,
        "bonus": 0.4,
        "bonusSoFar": 0.4
    },
    {
        "rt": null,
        "stimulus": "Sending examples to student... ",
        "response": null,
        "trial_type": "html-keyboard-response",
        "trial_index": 26,
        "time_elapsed": 846516,
        "internal_node_id": "0.0-22.0",
        "params": {
            "nStudents": 24,
            "maxFlips": 30,
            "completionMinutes": 45,
            "basePay": 8,
            "maxBonus": 9,
            "perTrialBonus": 0.5,
            "perTrialBonusThreshold": 0.1,
            "exampleCost": 0.01
        },
        "classroomParams": {
            "A": {
                "a": 1,
                "b": 4
            },
            "B": {
                "a": 4,
                "b": 1
            },
            "C": {
                "a": 2,
                "b": 8
            },
            "D": {
                "a": 8,
                "b": 2
            }
        },
        "conditions": [
            "nonSeqFull",
            "nonSeqPartial",
            "seqNoFeedback",
            "seqFeedback"
        ],
        "classroomPairings": [
            [
                "A",
                "B"
            ],
            [
                "C",
                "D"
            ]
        ],
        "coinWeights": [
            0.2,
            0.5,
            0.8
        ],
        "subjectId": "A1DZMZTXWOM9MR",
        "assignmentId": "373ERPL3YPU0UUY1QUB7TZS2TJ1TRS",
        "hitId": "3H6W48L9F4B5OEOMH57RM53ZYNHWPM",
        "url": "https://gershmanlab.com/experiments/alicia/teaching/experiment/?hitId=3H6W48L9F4B5OEOMH57RM53ZYNHWPM&workerId=A1DZMZTXWOM9MR&assignmentId=373ERPL3YPU0UUY1QUB7TZS2TJ1TRS&a=3R378&tp_a=3R378&b=373ERPL3YPU0UUY1QUB7TZS2TJ1TRS&tp_b=373ERPL3YPU0UUY1QUB7TZS2TJ1TRS&c=365198&tp_c=365198"
    },
    {
        "rt": null,
        "stimulus": "Examples sent to student! Waiting for student...",
        "response": null,
        "trial_type": "html-keyboard-response",
        "trial_index": 27,
        "time_elapsed": 852020,
        "internal_node_id": "0.0-23.0",
        "params": {
            "nStudents": 24,
            "maxFlips": 30,
            "completionMinutes": 45,
            "basePay": 8,
            "maxBonus": 9,
            "perTrialBonus": 0.5,
            "perTrialBonusThreshold": 0.1,
            "exampleCost": 0.01
        },
        "classroomParams": {
            "A": {
                "a": 1,
                "b": 4
            },
            "B": {
                "a": 4,
                "b": 1
            },
            "C": {
                "a": 2,
                "b": 8
            },
            "D": {
                "a": 8,
                "b": 2
            }
        },
        "conditions": [
            "nonSeqFull",
            "nonSeqPartial",
            "seqNoFeedback",
            "seqFeedback"
        ],
        "classroomPairings": [
            [
                "A",
                "B"
            ],
            [
                "C",
                "D"
            ]
        ],
        "coinWeights": [
            0.2,
            0.5,
            0.8
        ],
        "subjectId": "A1DZMZTXWOM9MR",
        "assignmentId": "373ERPL3YPU0UUY1QUB7TZS2TJ1TRS",
        "hitId": "3H6W48L9F4B5OEOMH57RM53ZYNHWPM",
        "url": "https://gershmanlab.com/experiments/alicia/teaching/experiment/?hitId=3H6W48L9F4B5OEOMH57RM53ZYNHWPM&workerId=A1DZMZTXWOM9MR&assignmentId=373ERPL3YPU0UUY1QUB7TZS2TJ1TRS&a=3R378&tp_a=3R378&b=373ERPL3YPU0UUY1QUB7TZS2TJ1TRS&tp_b=373ERPL3YPU0UUY1QUB7TZS2TJ1TRS&c=365198&tp_c=365198"
    },
    {
        "rt": 6078,
        "stimulus": "\n                <p>Student's guess for coin weight: <b style=\"color:Tomato;\">0.20</b></p>\n                <p>You received a bonus of <b>$0.4</b>. Total bonus so far: <b>$0.40</b></b></p>\n                <p> Press any key to continue.</p>\n                ",
        "response": " ",
        "trial_type": "html-keyboard-response",
        "trial_index": 28,
        "time_elapsed": 858099,
        "internal_node_id": "0.0-24.0",
        "params": {
            "nStudents": 24,
            "maxFlips": 30,
            "completionMinutes": 45,
            "basePay": 8,
            "maxBonus": 9,
            "perTrialBonus": 0.5,
            "perTrialBonusThreshold": 0.1,
            "exampleCost": 0.01
        },
        "classroomParams": {
            "A": {
                "a": 1,
                "b": 4
            },
            "B": {
                "a": 4,
                "b": 1
            },
            "C": {
                "a": 2,
                "b": 8
            },
            "D": {
                "a": 8,
                "b": 2
            }
        },
        "conditions": [
            "nonSeqFull",
            "nonSeqPartial",
            "seqNoFeedback",
            "seqFeedback"
        ],
        "classroomPairings": [
            [
                "A",
                "B"
            ],
            [
                "C",
                "D"
            ]
        ],
        "coinWeights": [
            0.2,
            0.5,
            0.8
        ],
        "subjectId": "A1DZMZTXWOM9MR",
        "assignmentId": "373ERPL3YPU0UUY1QUB7TZS2TJ1TRS",
        "hitId": "3H6W48L9F4B5OEOMH57RM53ZYNHWPM",
        "url": "https://gershmanlab.com/experiments/alicia/teaching/experiment/?hitId=3H6W48L9F4B5OEOMH57RM53ZYNHWPM&workerId=A1DZMZTXWOM9MR&assignmentId=373ERPL3YPU0UUY1QUB7TZS2TJ1TRS&a=3R378&tp_a=3R378&b=373ERPL3YPU0UUY1QUB7TZS2TJ1TRS&tp_b=373ERPL3YPU0UUY1QUB7TZS2TJ1TRS&c=365198&tp_c=365198"
    },
    {
        "rt": null,
        "stimulus": "<div style=\"font-size:60px;\">Next student</div>",
        "response": null,
        "trial_type": "html-keyboard-response",
        "trial_index": 29,
        "time_elapsed": 860606,
        "internal_node_id": "0.0-25.0-0.0",
        "params": {
            "nStudents": 24,
            "maxFlips": 30,
            "completionMinutes": 45,
            "basePay": 8,
            "maxBonus": 9,
            "perTrialBonus": 0.5,
            "perTrialBonusThreshold": 0.1,
            "exampleCost": 0.01
        },
        "classroomParams": {
            "A": {
                "a": 1,
                "b": 4
            },
            "B": {
                "a": 4,
                "b": 1
            },
            "C": {
                "a": 2,
                "b": 8
            },
            "D": {
                "a": 8,
                "b": 2
            }
        },
        "conditions": [
            "nonSeqFull",
            "nonSeqPartial",
            "seqNoFeedback",
            "seqFeedback"
        ],
        "classroomPairings": [
            [
                "A",
                "B"
            ],
            [
                "C",
                "D"
            ]
        ],
        "coinWeights": [
            0.2,
            0.5,
            0.8
        ],
        "subjectId": "A1DZMZTXWOM9MR",
        "assignmentId": "373ERPL3YPU0UUY1QUB7TZS2TJ1TRS",
        "hitId": "3H6W48L9F4B5OEOMH57RM53ZYNHWPM",
        "url": "https://gershmanlab.com/experiments/alicia/teaching/experiment/?hitId=3H6W48L9F4B5OEOMH57RM53ZYNHWPM&workerId=A1DZMZTXWOM9MR&assignmentId=373ERPL3YPU0UUY1QUB7TZS2TJ1TRS&a=3R378&tp_a=3R378&b=373ERPL3YPU0UUY1QUB7TZS2TJ1TRS&tp_b=373ERPL3YPU0UUY1QUB7TZS2TJ1TRS&c=365198&tp_c=365198"
    },
    {
        "rt": 4726,
        "stimulus": "\n            <h4 style=\"color:Orange;\">Student 4</h4>\n            <h2>The weight of your coin is <b style=\"color:Tomato;\">0.2</b>.</h2>\n            <p>In this block, you will be giving <b>one</b> set of examples to Student 4.</p>\n                <p>You will receive feedback at the end of the block.</p>\n            ",
        "response": 0,
        "trial_type": "html-button-response",
        "trial_index": 30,
        "time_elapsed": 865333,
        "internal_node_id": "0.0-26.0",
        "params": {
            "nStudents": 24,
            "maxFlips": 30,
            "completionMinutes": 45,
            "basePay": 8,
            "maxBonus": 9,
            "perTrialBonus": 0.5,
            "perTrialBonusThreshold": 0.1,
            "exampleCost": 0.01
        },
        "classroomParams": {
            "A": {
                "a": 1,
                "b": 4
            },
            "B": {
                "a": 4,
                "b": 1
            },
            "C": {
                "a": 2,
                "b": 8
            },
            "D": {
                "a": 8,
                "b": 2
            }
        },
        "conditions": [
            "nonSeqFull",
            "nonSeqPartial",
            "seqNoFeedback",
            "seqFeedback"
        ],
        "classroomPairings": [
            [
                "A",
                "B"
            ],
            [
                "C",
                "D"
            ]
        ],
        "coinWeights": [
            0.2,
            0.5,
            0.8
        ],
        "subjectId": "A1DZMZTXWOM9MR",
        "assignmentId": "373ERPL3YPU0UUY1QUB7TZS2TJ1TRS",
        "hitId": "3H6W48L9F4B5OEOMH57RM53ZYNHWPM",
        "url": "https://gershmanlab.com/experiments/alicia/teaching/experiment/?hitId=3H6W48L9F4B5OEOMH57RM53ZYNHWPM&workerId=A1DZMZTXWOM9MR&assignmentId=373ERPL3YPU0UUY1QUB7TZS2TJ1TRS&a=3R378&tp_a=3R378&b=373ERPL3YPU0UUY1QUB7TZS2TJ1TRS&tp_b=373ERPL3YPU0UUY1QUB7TZS2TJ1TRS&c=365198&tp_c=365198"
    },
    {
        "rt": 19088,
        "response": {
            "heads": "3",
            "tails": "9"
        },
        "type": "response",
        "condition": "nonSeqPartial",
        "trueTheta": 0.2,
        "classrooms": [
            "A",
            "B"
        ],
        "studentTrueClassroom": "A",
        "exampleSet": "first",
        "trial_type": "survey-html-form",
        "trial_index": 31,
        "time_elapsed": 884421,
        "internal_node_id": "0.0-27.0-0.0",
        "params": {
            "nStudents": 24,
            "maxFlips": 30,
            "completionMinutes": 45,
            "basePay": 8,
            "maxBonus": 9,
            "perTrialBonus": 0.5,
            "perTrialBonusThreshold": 0.1,
            "exampleCost": 0.01
        },
        "classroomParams": {
            "A": {
                "a": 1,
                "b": 4
            },
            "B": {
                "a": 4,
                "b": 1
            },
            "C": {
                "a": 2,
                "b": 8
            },
            "D": {
                "a": 8,
                "b": 2
            }
        },
        "conditions": [
            "nonSeqFull",
            "nonSeqPartial",
            "seqNoFeedback",
            "seqFeedback"
        ],
        "classroomPairings": [
            [
                "A",
                "B"
            ],
            [
                "C",
                "D"
            ]
        ],
        "coinWeights": [
            0.2,
            0.5,
            0.8
        ],
        "subjectId": "A1DZMZTXWOM9MR",
        "assignmentId": "373ERPL3YPU0UUY1QUB7TZS2TJ1TRS",
        "hitId": "3H6W48L9F4B5OEOMH57RM53ZYNHWPM",
        "url": "https://gershmanlab.com/experiments/alicia/teaching/experiment/?hitId=3H6W48L9F4B5OEOMH57RM53ZYNHWPM&workerId=A1DZMZTXWOM9MR&assignmentId=373ERPL3YPU0UUY1QUB7TZS2TJ1TRS&a=3R378&tp_a=3R378&b=373ERPL3YPU0UUY1QUB7TZS2TJ1TRS&tp_b=373ERPL3YPU0UUY1QUB7TZS2TJ1TRS&c=365198&tp_c=365198",
        "heads": 3,
        "tails": 9,
        "studentIndex": 3,
        "studentTrueHypers": {
            "a": 1,
            "b": 4
        },
        "studentGuess": 0.23529411764705882,
        "delta": 0.03529411764705881,
        "totalExamples": 12,
        "bonus": 0.38,
        "bonusSoFar": 0.78
    },
    {
        "rt": null,
        "stimulus": "Sending examples to student... ",
        "response": null,
        "trial_type": "html-keyboard-response",
        "trial_index": 32,
        "time_elapsed": 885679,
        "internal_node_id": "0.0-28.0",
        "params": {
            "nStudents": 24,
            "maxFlips": 30,
            "completionMinutes": 45,
            "basePay": 8,
            "maxBonus": 9,
            "perTrialBonus": 0.5,
            "perTrialBonusThreshold": 0.1,
            "exampleCost": 0.01
        },
        "classroomParams": {
            "A": {
                "a": 1,
                "b": 4
            },
            "B": {
                "a": 4,
                "b": 1
            },
            "C": {
                "a": 2,
                "b": 8
            },
            "D": {
                "a": 8,
                "b": 2
            }
        },
        "conditions": [
            "nonSeqFull",
            "nonSeqPartial",
            "seqNoFeedback",
            "seqFeedback"
        ],
        "classroomPairings": [
            [
                "A",
                "B"
            ],
            [
                "C",
                "D"
            ]
        ],
        "coinWeights": [
            0.2,
            0.5,
            0.8
        ],
        "subjectId": "A1DZMZTXWOM9MR",
        "assignmentId": "373ERPL3YPU0UUY1QUB7TZS2TJ1TRS",
        "hitId": "3H6W48L9F4B5OEOMH57RM53ZYNHWPM",
        "url": "https://gershmanlab.com/experiments/alicia/teaching/experiment/?hitId=3H6W48L9F4B5OEOMH57RM53ZYNHWPM&workerId=A1DZMZTXWOM9MR&assignmentId=373ERPL3YPU0UUY1QUB7TZS2TJ1TRS&a=3R378&tp_a=3R378&b=373ERPL3YPU0UUY1QUB7TZS2TJ1TRS&tp_b=373ERPL3YPU0UUY1QUB7TZS2TJ1TRS&c=365198&tp_c=365198"
    },
    {
        "rt": null,
        "stimulus": "Examples sent to student! Waiting for student...",
        "response": null,
        "trial_type": "html-keyboard-response",
        "trial_index": 33,
        "time_elapsed": 891183,
        "internal_node_id": "0.0-29.0",
        "params": {
            "nStudents": 24,
            "maxFlips": 30,
            "completionMinutes": 45,
            "basePay": 8,
            "maxBonus": 9,
            "perTrialBonus": 0.5,
            "perTrialBonusThreshold": 0.1,
            "exampleCost": 0.01
        },
        "classroomParams": {
            "A": {
                "a": 1,
                "b": 4
            },
            "B": {
                "a": 4,
                "b": 1
            },
            "C": {
                "a": 2,
                "b": 8
            },
            "D": {
                "a": 8,
                "b": 2
            }
        },
        "conditions": [
            "nonSeqFull",
            "nonSeqPartial",
            "seqNoFeedback",
            "seqFeedback"
        ],
        "classroomPairings": [
            [
                "A",
                "B"
            ],
            [
                "C",
                "D"
            ]
        ],
        "coinWeights": [
            0.2,
            0.5,
            0.8
        ],
        "subjectId": "A1DZMZTXWOM9MR",
        "assignmentId": "373ERPL3YPU0UUY1QUB7TZS2TJ1TRS",
        "hitId": "3H6W48L9F4B5OEOMH57RM53ZYNHWPM",
        "url": "https://gershmanlab.com/experiments/alicia/teaching/experiment/?hitId=3H6W48L9F4B5OEOMH57RM53ZYNHWPM&workerId=A1DZMZTXWOM9MR&assignmentId=373ERPL3YPU0UUY1QUB7TZS2TJ1TRS&a=3R378&tp_a=3R378&b=373ERPL3YPU0UUY1QUB7TZS2TJ1TRS&tp_b=373ERPL3YPU0UUY1QUB7TZS2TJ1TRS&c=365198&tp_c=365198"
    },
    {
        "rt": 4402,
        "stimulus": "\n                <p>Student's guess for coin weight: <b style=\"color:Tomato;\">0.24</b></p>\n                <p>You received a bonus of <b>$0.38</b>. Total bonus so far: <b>$0.78</b></b></p>\n                <p> Press any key to continue.</p>\n                ",
        "response": " ",
        "trial_type": "html-keyboard-response",
        "trial_index": 34,
        "time_elapsed": 895585,
        "internal_node_id": "0.0-30.0",
        "params": {
            "nStudents": 24,
            "maxFlips": 30,
            "completionMinutes": 45,
            "basePay": 8,
            "maxBonus": 9,
            "perTrialBonus": 0.5,
            "perTrialBonusThreshold": 0.1,
            "exampleCost": 0.01
        },
        "classroomParams": {
            "A": {
                "a": 1,
                "b": 4
            },
            "B": {
                "a": 4,
                "b": 1
            },
            "C": {
                "a": 2,
                "b": 8
            },
            "D": {
                "a": 8,
                "b": 2
            }
        },
        "conditions": [
            "nonSeqFull",
            "nonSeqPartial",
            "seqNoFeedback",
            "seqFeedback"
        ],
        "classroomPairings": [
            [
                "A",
                "B"
            ],
            [
                "C",
                "D"
            ]
        ],
        "coinWeights": [
            0.2,
            0.5,
            0.8
        ],
        "subjectId": "A1DZMZTXWOM9MR",
        "assignmentId": "373ERPL3YPU0UUY1QUB7TZS2TJ1TRS",
        "hitId": "3H6W48L9F4B5OEOMH57RM53ZYNHWPM",
        "url": "https://gershmanlab.com/experiments/alicia/teaching/experiment/?hitId=3H6W48L9F4B5OEOMH57RM53ZYNHWPM&workerId=A1DZMZTXWOM9MR&assignmentId=373ERPL3YPU0UUY1QUB7TZS2TJ1TRS&a=3R378&tp_a=3R378&b=373ERPL3YPU0UUY1QUB7TZS2TJ1TRS&tp_b=373ERPL3YPU0UUY1QUB7TZS2TJ1TRS&c=365198&tp_c=365198"
    },
    {
        "rt": null,
        "stimulus": "<div style=\"font-size:60px;\">Next student</div>",
        "response": null,
        "trial_type": "html-keyboard-response",
        "trial_index": 35,
        "time_elapsed": 898093,
        "internal_node_id": "0.0-31.0-0.0",
        "params": {
            "nStudents": 24,
            "maxFlips": 30,
            "completionMinutes": 45,
            "basePay": 8,
            "maxBonus": 9,
            "perTrialBonus": 0.5,
            "perTrialBonusThreshold": 0.1,
            "exampleCost": 0.01
        },
        "classroomParams": {
            "A": {
                "a": 1,
                "b": 4
            },
            "B": {
                "a": 4,
                "b": 1
            },
            "C": {
                "a": 2,
                "b": 8
            },
            "D": {
                "a": 8,
                "b": 2
            }
        },
        "conditions": [
            "nonSeqFull",
            "nonSeqPartial",
            "seqNoFeedback",
            "seqFeedback"
        ],
        "classroomPairings": [
            [
                "A",
                "B"
            ],
            [
                "C",
                "D"
            ]
        ],
        "coinWeights": [
            0.2,
            0.5,
            0.8
        ],
        "subjectId": "A1DZMZTXWOM9MR",
        "assignmentId": "373ERPL3YPU0UUY1QUB7TZS2TJ1TRS",
        "hitId": "3H6W48L9F4B5OEOMH57RM53ZYNHWPM",
        "url": "https://gershmanlab.com/experiments/alicia/teaching/experiment/?hitId=3H6W48L9F4B5OEOMH57RM53ZYNHWPM&workerId=A1DZMZTXWOM9MR&assignmentId=373ERPL3YPU0UUY1QUB7TZS2TJ1TRS&a=3R378&tp_a=3R378&b=373ERPL3YPU0UUY1QUB7TZS2TJ1TRS&tp_b=373ERPL3YPU0UUY1QUB7TZS2TJ1TRS&c=365198&tp_c=365198"
    },
    {
        "rt": 4127,
        "stimulus": "\n            <h4 style=\"color:Orange;\">Student 5</h4>\n            <h2>The weight of your coin is <b style=\"color:Tomato;\">0.2</b>.</h2>\n            <p>In this block, you will be giving <b>one</b> set of examples to Student 5.</p>\n                <p>You will receive feedback at the end of the block.</p>\n            ",
        "response": 0,
        "trial_type": "html-button-response",
        "trial_index": 36,
        "time_elapsed": 902222,
        "internal_node_id": "0.0-32.0",
        "params": {
            "nStudents": 24,
            "maxFlips": 30,
            "completionMinutes": 45,
            "basePay": 8,
            "maxBonus": 9,
            "perTrialBonus": 0.5,
            "perTrialBonusThreshold": 0.1,
            "exampleCost": 0.01
        },
        "classroomParams": {
            "A": {
                "a": 1,
                "b": 4
            },
            "B": {
                "a": 4,
                "b": 1
            },
            "C": {
                "a": 2,
                "b": 8
            },
            "D": {
                "a": 8,
                "b": 2
            }
        },
        "conditions": [
            "nonSeqFull",
            "nonSeqPartial",
            "seqNoFeedback",
            "seqFeedback"
        ],
        "classroomPairings": [
            [
                "A",
                "B"
            ],
            [
                "C",
                "D"
            ]
        ],
        "coinWeights": [
            0.2,
            0.5,
            0.8
        ],
        "subjectId": "A1DZMZTXWOM9MR",
        "assignmentId": "373ERPL3YPU0UUY1QUB7TZS2TJ1TRS",
        "hitId": "3H6W48L9F4B5OEOMH57RM53ZYNHWPM",
        "url": "https://gershmanlab.com/experiments/alicia/teaching/experiment/?hitId=3H6W48L9F4B5OEOMH57RM53ZYNHWPM&workerId=A1DZMZTXWOM9MR&assignmentId=373ERPL3YPU0UUY1QUB7TZS2TJ1TRS&a=3R378&tp_a=3R378&b=373ERPL3YPU0UUY1QUB7TZS2TJ1TRS&tp_b=373ERPL3YPU0UUY1QUB7TZS2TJ1TRS&c=365198&tp_c=365198"
    },
    {
        "rt": 11535,
        "response": {
            "heads": "2",
            "tails": "8"
        },
        "type": "response",
        "condition": "nonSeqFull",
        "trueTheta": 0.2,
        "classrooms": [
            "A",
            "B"
        ],
        "studentTrueClassroom": "A",
        "exampleSet": "first",
        "trial_type": "survey-html-form",
        "trial_index": 37,
        "time_elapsed": 913758,
        "internal_node_id": "0.0-33.0-0.0",
        "params": {
            "nStudents": 24,
            "maxFlips": 30,
            "completionMinutes": 45,
            "basePay": 8,
            "maxBonus": 9,
            "perTrialBonus": 0.5,
            "perTrialBonusThreshold": 0.1,
            "exampleCost": 0.01
        },
        "classroomParams": {
            "A": {
                "a": 1,
                "b": 4
            },
            "B": {
                "a": 4,
                "b": 1
            },
            "C": {
                "a": 2,
                "b": 8
            },
            "D": {
                "a": 8,
                "b": 2
            }
        },
        "conditions": [
            "nonSeqFull",
            "nonSeqPartial",
            "seqNoFeedback",
            "seqFeedback"
        ],
        "classroomPairings": [
            [
                "A",
                "B"
            ],
            [
                "C",
                "D"
            ]
        ],
        "coinWeights": [
            0.2,
            0.5,
            0.8
        ],
        "subjectId": "A1DZMZTXWOM9MR",
        "assignmentId": "373ERPL3YPU0UUY1QUB7TZS2TJ1TRS",
        "hitId": "3H6W48L9F4B5OEOMH57RM53ZYNHWPM",
        "url": "https://gershmanlab.com/experiments/alicia/teaching/experiment/?hitId=3H6W48L9F4B5OEOMH57RM53ZYNHWPM&workerId=A1DZMZTXWOM9MR&assignmentId=373ERPL3YPU0UUY1QUB7TZS2TJ1TRS&a=3R378&tp_a=3R378&b=373ERPL3YPU0UUY1QUB7TZS2TJ1TRS&tp_b=373ERPL3YPU0UUY1QUB7TZS2TJ1TRS&c=365198&tp_c=365198",
        "heads": 2,
        "tails": 8,
        "studentIndex": 4,
        "studentTrueHypers": {
            "a": 1,
            "b": 4
        },
        "studentGuess": 0.2,
        "delta": 0,
        "totalExamples": 10,
        "bonus": 0.4,
        "bonusSoFar": 1.18
    },
    {
        "rt": null,
        "stimulus": "Sending examples to student... ",
        "response": null,
        "trial_type": "html-keyboard-response",
        "trial_index": 38,
        "time_elapsed": 915509,
        "internal_node_id": "0.0-34.0",
        "params": {
            "nStudents": 24,
            "maxFlips": 30,
            "completionMinutes": 45,
            "basePay": 8,
            "maxBonus": 9,
            "perTrialBonus": 0.5,
            "perTrialBonusThreshold": 0.1,
            "exampleCost": 0.01
        },
        "classroomParams": {
            "A": {
                "a": 1,
                "b": 4
            },
            "B": {
                "a": 4,
                "b": 1
            },
            "C": {
                "a": 2,
                "b": 8
            },
            "D": {
                "a": 8,
                "b": 2
            }
        },
        "conditions": [
            "nonSeqFull",
            "nonSeqPartial",
            "seqNoFeedback",
            "seqFeedback"
        ],
        "classroomPairings": [
            [
                "A",
                "B"
            ],
            [
                "C",
                "D"
            ]
        ],
        "coinWeights": [
            0.2,
            0.5,
            0.8
        ],
        "subjectId": "A1DZMZTXWOM9MR",
        "assignmentId": "373ERPL3YPU0UUY1QUB7TZS2TJ1TRS",
        "hitId": "3H6W48L9F4B5OEOMH57RM53ZYNHWPM",
        "url": "https://gershmanlab.com/experiments/alicia/teaching/experiment/?hitId=3H6W48L9F4B5OEOMH57RM53ZYNHWPM&workerId=A1DZMZTXWOM9MR&assignmentId=373ERPL3YPU0UUY1QUB7TZS2TJ1TRS&a=3R378&tp_a=3R378&b=373ERPL3YPU0UUY1QUB7TZS2TJ1TRS&tp_b=373ERPL3YPU0UUY1QUB7TZS2TJ1TRS&c=365198&tp_c=365198"
    },
    {
        "rt": null,
        "stimulus": "Examples sent to student! Waiting for student...",
        "response": null,
        "trial_type": "html-keyboard-response",
        "trial_index": 39,
        "time_elapsed": 921010,
        "internal_node_id": "0.0-35.0",
        "params": {
            "nStudents": 24,
            "maxFlips": 30,
            "completionMinutes": 45,
            "basePay": 8,
            "maxBonus": 9,
            "perTrialBonus": 0.5,
            "perTrialBonusThreshold": 0.1,
            "exampleCost": 0.01
        },
        "classroomParams": {
            "A": {
                "a": 1,
                "b": 4
            },
            "B": {
                "a": 4,
                "b": 1
            },
            "C": {
                "a": 2,
                "b": 8
            },
            "D": {
                "a": 8,
                "b": 2
            }
        },
        "conditions": [
            "nonSeqFull",
            "nonSeqPartial",
            "seqNoFeedback",
            "seqFeedback"
        ],
        "classroomPairings": [
            [
                "A",
                "B"
            ],
            [
                "C",
                "D"
            ]
        ],
        "coinWeights": [
            0.2,
            0.5,
            0.8
        ],
        "subjectId": "A1DZMZTXWOM9MR",
        "assignmentId": "373ERPL3YPU0UUY1QUB7TZS2TJ1TRS",
        "hitId": "3H6W48L9F4B5OEOMH57RM53ZYNHWPM",
        "url": "https://gershmanlab.com/experiments/alicia/teaching/experiment/?hitId=3H6W48L9F4B5OEOMH57RM53ZYNHWPM&workerId=A1DZMZTXWOM9MR&assignmentId=373ERPL3YPU0UUY1QUB7TZS2TJ1TRS&a=3R378&tp_a=3R378&b=373ERPL3YPU0UUY1QUB7TZS2TJ1TRS&tp_b=373ERPL3YPU0UUY1QUB7TZS2TJ1TRS&c=365198&tp_c=365198"
    },
    {
        "rt": 2423,
        "stimulus": "\n                <p>Student's guess for coin weight: <b style=\"color:Tomato;\">0.20</b></p>\n                <p>You received a bonus of <b>$0.4</b>. Total bonus so far: <b>$1.18</b></b></p>\n                <p> Press any key to continue.</p>\n                ",
        "response": " ",
        "trial_type": "html-keyboard-response",
        "trial_index": 40,
        "time_elapsed": 923434,
        "internal_node_id": "0.0-36.0",
        "params": {
            "nStudents": 24,
            "maxFlips": 30,
            "completionMinutes": 45,
            "basePay": 8,
            "maxBonus": 9,
            "perTrialBonus": 0.5,
            "perTrialBonusThreshold": 0.1,
            "exampleCost": 0.01
        },
        "classroomParams": {
            "A": {
                "a": 1,
                "b": 4
            },
            "B": {
                "a": 4,
                "b": 1
            },
            "C": {
                "a": 2,
                "b": 8
            },
            "D": {
                "a": 8,
                "b": 2
            }
        },
        "conditions": [
            "nonSeqFull",
            "nonSeqPartial",
            "seqNoFeedback",
            "seqFeedback"
        ],
        "classroomPairings": [
            [
                "A",
                "B"
            ],
            [
                "C",
                "D"
            ]
        ],
        "coinWeights": [
            0.2,
            0.5,
            0.8
        ],
        "subjectId": "A1DZMZTXWOM9MR",
        "assignmentId": "373ERPL3YPU0UUY1QUB7TZS2TJ1TRS",
        "hitId": "3H6W48L9F4B5OEOMH57RM53ZYNHWPM",
        "url": "https://gershmanlab.com/experiments/alicia/teaching/experiment/?hitId=3H6W48L9F4B5OEOMH57RM53ZYNHWPM&workerId=A1DZMZTXWOM9MR&assignmentId=373ERPL3YPU0UUY1QUB7TZS2TJ1TRS&a=3R378&tp_a=3R378&b=373ERPL3YPU0UUY1QUB7TZS2TJ1TRS&tp_b=373ERPL3YPU0UUY1QUB7TZS2TJ1TRS&c=365198&tp_c=365198"
    },
    {
        "rt": null,
        "stimulus": "<div style=\"font-size:60px;\">Next student</div>",
        "response": null,
        "trial_type": "html-keyboard-response",
        "trial_index": 41,
        "time_elapsed": 925947,
        "internal_node_id": "0.0-37.0-0.0",
        "params": {
            "nStudents": 24,
            "maxFlips": 30,
            "completionMinutes": 45,
            "basePay": 8,
            "maxBonus": 9,
            "perTrialBonus": 0.5,
            "perTrialBonusThreshold": 0.1,
            "exampleCost": 0.01
        },
        "classroomParams": {
            "A": {
                "a": 1,
                "b": 4
            },
            "B": {
                "a": 4,
                "b": 1
            },
            "C": {
                "a": 2,
                "b": 8
            },
            "D": {
                "a": 8,
                "b": 2
            }
        },
        "conditions": [
            "nonSeqFull",
            "nonSeqPartial",
            "seqNoFeedback",
            "seqFeedback"
        ],
        "classroomPairings": [
            [
                "A",
                "B"
            ],
            [
                "C",
                "D"
            ]
        ],
        "coinWeights": [
            0.2,
            0.5,
            0.8
        ],
        "subjectId": "A1DZMZTXWOM9MR",
        "assignmentId": "373ERPL3YPU0UUY1QUB7TZS2TJ1TRS",
        "hitId": "3H6W48L9F4B5OEOMH57RM53ZYNHWPM",
        "url": "https://gershmanlab.com/experiments/alicia/teaching/experiment/?hitId=3H6W48L9F4B5OEOMH57RM53ZYNHWPM&workerId=A1DZMZTXWOM9MR&assignmentId=373ERPL3YPU0UUY1QUB7TZS2TJ1TRS&a=3R378&tp_a=3R378&b=373ERPL3YPU0UUY1QUB7TZS2TJ1TRS&tp_b=373ERPL3YPU0UUY1QUB7TZS2TJ1TRS&c=365198&tp_c=365198"
    },
    {
        "rt": 2250,
        "stimulus": "\n            <h4 style=\"color:Orange;\">Student 6</h4>\n            <h2>The weight of your coin is <b style=\"color:Tomato;\">0.8</b>.</h2>\n            <p>In this block, you will be giving <b>two</b> sets of examples to Student 6.</p>\n                <p>You will see the student's guess after the first set of examples. You will also receive feedback at the end of the block.</p>\n            ",
        "response": 0,
        "trial_type": "html-button-response",
        "trial_index": 42,
        "time_elapsed": 928198,
        "internal_node_id": "0.0-38.0",
        "params": {
            "nStudents": 24,
            "maxFlips": 30,
            "completionMinutes": 45,
            "basePay": 8,
            "maxBonus": 9,
            "perTrialBonus": 0.5,
            "perTrialBonusThreshold": 0.1,
            "exampleCost": 0.01
        },
        "classroomParams": {
            "A": {
                "a": 1,
                "b": 4
            },
            "B": {
                "a": 4,
                "b": 1
            },
            "C": {
                "a": 2,
                "b": 8
            },
            "D": {
                "a": 8,
                "b": 2
            }
        },
        "conditions": [
            "nonSeqFull",
            "nonSeqPartial",
            "seqNoFeedback",
            "seqFeedback"
        ],
        "classroomPairings": [
            [
                "A",
                "B"
            ],
            [
                "C",
                "D"
            ]
        ],
        "coinWeights": [
            0.2,
            0.5,
            0.8
        ],
        "subjectId": "A1DZMZTXWOM9MR",
        "assignmentId": "373ERPL3YPU0UUY1QUB7TZS2TJ1TRS",
        "hitId": "3H6W48L9F4B5OEOMH57RM53ZYNHWPM",
        "url": "https://gershmanlab.com/experiments/alicia/teaching/experiment/?hitId=3H6W48L9F4B5OEOMH57RM53ZYNHWPM&workerId=A1DZMZTXWOM9MR&assignmentId=373ERPL3YPU0UUY1QUB7TZS2TJ1TRS&a=3R378&tp_a=3R378&b=373ERPL3YPU0UUY1QUB7TZS2TJ1TRS&tp_b=373ERPL3YPU0UUY1QUB7TZS2TJ1TRS&c=365198&tp_c=365198"
    },
    {
        "rt": 11824,
        "response": {
            "heads": "8",
            "tails": "2"
        },
        "type": "response",
        "condition": "seqFeedback",
        "trueTheta": 0.8,
        "classrooms": [
            "C",
            "D"
        ],
        "studentTrueClassroom": "D",
        "exampleSet": "first",
        "trial_type": "survey-html-form",
        "trial_index": 43,
        "time_elapsed": 940023,
        "internal_node_id": "0.0-39.0-0.0",
        "params": {
            "nStudents": 24,
            "maxFlips": 30,
            "completionMinutes": 45,
            "basePay": 8,
            "maxBonus": 9,
            "perTrialBonus": 0.5,
            "perTrialBonusThreshold": 0.1,
            "exampleCost": 0.01
        },
        "classroomParams": {
            "A": {
                "a": 1,
                "b": 4
            },
            "B": {
                "a": 4,
                "b": 1
            },
            "C": {
                "a": 2,
                "b": 8
            },
            "D": {
                "a": 8,
                "b": 2
            }
        },
        "conditions": [
            "nonSeqFull",
            "nonSeqPartial",
            "seqNoFeedback",
            "seqFeedback"
        ],
        "classroomPairings": [
            [
                "A",
                "B"
            ],
            [
                "C",
                "D"
            ]
        ],
        "coinWeights": [
            0.2,
            0.5,
            0.8
        ],
        "subjectId": "A1DZMZTXWOM9MR",
        "assignmentId": "373ERPL3YPU0UUY1QUB7TZS2TJ1TRS",
        "hitId": "3H6W48L9F4B5OEOMH57RM53ZYNHWPM",
        "url": "https://gershmanlab.com/experiments/alicia/teaching/experiment/?hitId=3H6W48L9F4B5OEOMH57RM53ZYNHWPM&workerId=A1DZMZTXWOM9MR&assignmentId=373ERPL3YPU0UUY1QUB7TZS2TJ1TRS&a=3R378&tp_a=3R378&b=373ERPL3YPU0UUY1QUB7TZS2TJ1TRS&tp_b=373ERPL3YPU0UUY1QUB7TZS2TJ1TRS&c=365198&tp_c=365198",
        "heads": 8,
        "tails": 2,
        "studentIndex": 5,
        "studentTrueHypers": {
            "a": 8,
            "b": 2
        },
        "studentGuess": 0.8,
        "delta": 0,
        "totalExamples": 10,
        "bonusSoFar": 1.18
    },
    {
        "rt": null,
        "stimulus": "Sending examples to student... ",
        "response": null,
        "trial_type": "html-keyboard-response",
        "trial_index": 44,
        "time_elapsed": 941774,
        "internal_node_id": "0.0-40.0",
        "params": {
            "nStudents": 24,
            "maxFlips": 30,
            "completionMinutes": 45,
            "basePay": 8,
            "maxBonus": 9,
            "perTrialBonus": 0.5,
            "perTrialBonusThreshold": 0.1,
            "exampleCost": 0.01
        },
        "classroomParams": {
            "A": {
                "a": 1,
                "b": 4
            },
            "B": {
                "a": 4,
                "b": 1
            },
            "C": {
                "a": 2,
                "b": 8
            },
            "D": {
                "a": 8,
                "b": 2
            }
        },
        "conditions": [
            "nonSeqFull",
            "nonSeqPartial",
            "seqNoFeedback",
            "seqFeedback"
        ],
        "classroomPairings": [
            [
                "A",
                "B"
            ],
            [
                "C",
                "D"
            ]
        ],
        "coinWeights": [
            0.2,
            0.5,
            0.8
        ],
        "subjectId": "A1DZMZTXWOM9MR",
        "assignmentId": "373ERPL3YPU0UUY1QUB7TZS2TJ1TRS",
        "hitId": "3H6W48L9F4B5OEOMH57RM53ZYNHWPM",
        "url": "https://gershmanlab.com/experiments/alicia/teaching/experiment/?hitId=3H6W48L9F4B5OEOMH57RM53ZYNHWPM&workerId=A1DZMZTXWOM9MR&assignmentId=373ERPL3YPU0UUY1QUB7TZS2TJ1TRS&a=3R378&tp_a=3R378&b=373ERPL3YPU0UUY1QUB7TZS2TJ1TRS&tp_b=373ERPL3YPU0UUY1QUB7TZS2TJ1TRS&c=365198&tp_c=365198"
    },
    {
        "rt": null,
        "stimulus": "Examples sent to student! Waiting for student...",
        "response": null,
        "trial_type": "html-keyboard-response",
        "trial_index": 45,
        "time_elapsed": 945775,
        "internal_node_id": "0.0-41.0",
        "params": {
            "nStudents": 24,
            "maxFlips": 30,
            "completionMinutes": 45,
            "basePay": 8,
            "maxBonus": 9,
            "perTrialBonus": 0.5,
            "perTrialBonusThreshold": 0.1,
            "exampleCost": 0.01
        },
        "classroomParams": {
            "A": {
                "a": 1,
                "b": 4
            },
            "B": {
                "a": 4,
                "b": 1
            },
            "C": {
                "a": 2,
                "b": 8
            },
            "D": {
                "a": 8,
                "b": 2
            }
        },
        "conditions": [
            "nonSeqFull",
            "nonSeqPartial",
            "seqNoFeedback",
            "seqFeedback"
        ],
        "classroomPairings": [
            [
                "A",
                "B"
            ],
            [
                "C",
                "D"
            ]
        ],
        "coinWeights": [
            0.2,
            0.5,
            0.8
        ],
        "subjectId": "A1DZMZTXWOM9MR",
        "assignmentId": "373ERPL3YPU0UUY1QUB7TZS2TJ1TRS",
        "hitId": "3H6W48L9F4B5OEOMH57RM53ZYNHWPM",
        "url": "https://gershmanlab.com/experiments/alicia/teaching/experiment/?hitId=3H6W48L9F4B5OEOMH57RM53ZYNHWPM&workerId=A1DZMZTXWOM9MR&assignmentId=373ERPL3YPU0UUY1QUB7TZS2TJ1TRS&a=3R378&tp_a=3R378&b=373ERPL3YPU0UUY1QUB7TZS2TJ1TRS&tp_b=373ERPL3YPU0UUY1QUB7TZS2TJ1TRS&c=365198&tp_c=365198"
    },
    {
        "rt": 1813,
        "stimulus": "\n                <p>Student's guess for coin weight: <b style=\"color:Tomato;\">0.80</b></p>\n                <p></b></p>\n                <p>You will now send another set of examples to your student. Press any key to continue.</p>\n                ",
        "response": " ",
        "trial_type": "html-keyboard-response",
        "trial_index": 46,
        "time_elapsed": 947589,
        "internal_node_id": "0.0-42.0",
        "params": {
            "nStudents": 24,
            "maxFlips": 30,
            "completionMinutes": 45,
            "basePay": 8,
            "maxBonus": 9,
            "perTrialBonus": 0.5,
            "perTrialBonusThreshold": 0.1,
            "exampleCost": 0.01
        },
        "classroomParams": {
            "A": {
                "a": 1,
                "b": 4
            },
            "B": {
                "a": 4,
                "b": 1
            },
            "C": {
                "a": 2,
                "b": 8
            },
            "D": {
                "a": 8,
                "b": 2
            }
        },
        "conditions": [
            "nonSeqFull",
            "nonSeqPartial",
            "seqNoFeedback",
            "seqFeedback"
        ],
        "classroomPairings": [
            [
                "A",
                "B"
            ],
            [
                "C",
                "D"
            ]
        ],
        "coinWeights": [
            0.2,
            0.5,
            0.8
        ],
        "subjectId": "A1DZMZTXWOM9MR",
        "assignmentId": "373ERPL3YPU0UUY1QUB7TZS2TJ1TRS",
        "hitId": "3H6W48L9F4B5OEOMH57RM53ZYNHWPM",
        "url": "https://gershmanlab.com/experiments/alicia/teaching/experiment/?hitId=3H6W48L9F4B5OEOMH57RM53ZYNHWPM&workerId=A1DZMZTXWOM9MR&assignmentId=373ERPL3YPU0UUY1QUB7TZS2TJ1TRS&a=3R378&tp_a=3R378&b=373ERPL3YPU0UUY1QUB7TZS2TJ1TRS&tp_b=373ERPL3YPU0UUY1QUB7TZS2TJ1TRS&c=365198&tp_c=365198"
    },
    {
        "rt": 13041,
        "response": {
            "heads": "8",
            "tails": "2"
        },
        "type": "response",
        "condition": "seqFeedback",
        "trueTheta": 0.8,
        "classrooms": [
            "C",
            "D"
        ],
        "studentTrueClassroom": "D",
        "exampleSet": "second",
        "trial_type": "survey-html-form",
        "trial_index": 47,
        "time_elapsed": 960630,
        "internal_node_id": "0.0-43.0-0.0",
        "params": {
            "nStudents": 24,
            "maxFlips": 30,
            "completionMinutes": 45,
            "basePay": 8,
            "maxBonus": 9,
            "perTrialBonus": 0.5,
            "perTrialBonusThreshold": 0.1,
            "exampleCost": 0.01
        },
        "classroomParams": {
            "A": {
                "a": 1,
                "b": 4
            },
            "B": {
                "a": 4,
                "b": 1
            },
            "C": {
                "a": 2,
                "b": 8
            },
            "D": {
                "a": 8,
                "b": 2
            }
        },
        "conditions": [
            "nonSeqFull",
            "nonSeqPartial",
            "seqNoFeedback",
            "seqFeedback"
        ],
        "classroomPairings": [
            [
                "A",
                "B"
            ],
            [
                "C",
                "D"
            ]
        ],
        "coinWeights": [
            0.2,
            0.5,
            0.8
        ],
        "subjectId": "A1DZMZTXWOM9MR",
        "assignmentId": "373ERPL3YPU0UUY1QUB7TZS2TJ1TRS",
        "hitId": "3H6W48L9F4B5OEOMH57RM53ZYNHWPM",
        "url": "https://gershmanlab.com/experiments/alicia/teaching/experiment/?hitId=3H6W48L9F4B5OEOMH57RM53ZYNHWPM&workerId=A1DZMZTXWOM9MR&assignmentId=373ERPL3YPU0UUY1QUB7TZS2TJ1TRS&a=3R378&tp_a=3R378&b=373ERPL3YPU0UUY1QUB7TZS2TJ1TRS&tp_b=373ERPL3YPU0UUY1QUB7TZS2TJ1TRS&c=365198&tp_c=365198",
        "firstResponseHeads": 8,
        "firstResponseTails": 2,
        "secondResponseHeads": 8,
        "secondResponseTails": 2,
        "studentIndex": 5,
        "studentTrueHypers": {
            "a": 8,
            "b": 2
        },
        "studentGuess": 0.8,
        "delta": 0,
        "bonus": 0.3,
        "bonusSoFar": 1.48,
        "totalExamples": 20
    },
    {
        "rt": null,
        "stimulus": "Sending examples to student... ",
        "response": null,
        "trial_type": "html-keyboard-response",
        "trial_index": 48,
        "time_elapsed": 962631,
        "internal_node_id": "0.0-44.0",
        "params": {
            "nStudents": 24,
            "maxFlips": 30,
            "completionMinutes": 45,
            "basePay": 8,
            "maxBonus": 9,
            "perTrialBonus": 0.5,
            "perTrialBonusThreshold": 0.1,
            "exampleCost": 0.01
        },
        "classroomParams": {
            "A": {
                "a": 1,
                "b": 4
            },
            "B": {
                "a": 4,
                "b": 1
            },
            "C": {
                "a": 2,
                "b": 8
            },
            "D": {
                "a": 8,
                "b": 2
            }
        },
        "conditions": [
            "nonSeqFull",
            "nonSeqPartial",
            "seqNoFeedback",
            "seqFeedback"
        ],
        "classroomPairings": [
            [
                "A",
                "B"
            ],
            [
                "C",
                "D"
            ]
        ],
        "coinWeights": [
            0.2,
            0.5,
            0.8
        ],
        "subjectId": "A1DZMZTXWOM9MR",
        "assignmentId": "373ERPL3YPU0UUY1QUB7TZS2TJ1TRS",
        "hitId": "3H6W48L9F4B5OEOMH57RM53ZYNHWPM",
        "url": "https://gershmanlab.com/experiments/alicia/teaching/experiment/?hitId=3H6W48L9F4B5OEOMH57RM53ZYNHWPM&workerId=A1DZMZTXWOM9MR&assignmentId=373ERPL3YPU0UUY1QUB7TZS2TJ1TRS&a=3R378&tp_a=3R378&b=373ERPL3YPU0UUY1QUB7TZS2TJ1TRS&tp_b=373ERPL3YPU0UUY1QUB7TZS2TJ1TRS&c=365198&tp_c=365198"
    },
    {
        "rt": null,
        "stimulus": "Examples sent to student! Waiting for student...",
        "response": null,
        "trial_type": "html-keyboard-response",
        "trial_index": 49,
        "time_elapsed": 967642,
        "internal_node_id": "0.0-45.0",
        "params": {
            "nStudents": 24,
            "maxFlips": 30,
            "completionMinutes": 45,
            "basePay": 8,
            "maxBonus": 9,
            "perTrialBonus": 0.5,
