[{"rt":2990,"stimulus":"Welcome to the experiment. Press any key to begin.","response":" ","trial_type":"html-keyboard-response","trial_index":0,"time_elapsed":3015,"internal_node_id":"0.0-0.0","params":{"nStudents":24,"maxFlips":30,"completionMinutes":45,"basePay":8,"maxBonus":9,"perTrialBonus":0.5,"perTrialBonusThreshold":0.1,"exampleCost":0.01},"classroomParams":{"A":{"a":1,"b":4},"B":{"a":4,"b":1},"C":{"a":2,"b":8},"D":{"a":8,"b":2}},"conditions":["nonSeqFull","nonSeqPartial","seqNoFeedback","seqFeedback"],"classroomPairings":[["A","B"],["C","D"]],"coinWeights":[0.2,0.5,0.8],"subjectId":"A2615YW1YERQBO","assignmentId":"3NPI0JQDAPRFIHIMD27IO4SNS1DTP0","hitId":"341H3G5YF006USP7B7C868W97H9Z08","url":"https://gershmanlab.com/experiments/alicia/teaching/experiment/?hitId=341H3G5YF006USP7B7C868W97H9Z08&workerId=A2615YW1YERQBO&assignmentId=3NPI0JQDAPRFIHIMD27IO4SNS1DTP0&a=D0PN8&tp_a=D0PN8&b=3NPI0JQDAPRFIHIMD27IO4SNS1DTP0&tp_b=3NPI0JQDAPRFIHIMD27IO4SNS1DTP0&c=365198&tp_c=365198"},{"rt":294943,"stimulus":"\n        <h3>Please read this consent agreement carefully before deciding whether to participate in this experiment.</h3>\n        <p><b>Purpose of the research:</b> To examine how people teach effectively.</p>\n        <p><b>What you will do in this research:</b> You will teach students the weights of different coins.</p>\n        <p><b>Time required:</b> This experiment will take 45 minutes to complete.</p>\n        <p><b>Risks:</b> There are no anticipated risks associated with participating in this study.             The effects of participating should be comparable to those you would experience from viewing a computer monitor             and using a mouse and keyboard for the duration of the experiment.</p>\n        <p><b>Benefits:</b> The study provides important information about the nature of teaching.</p>\n        <p><b>Compensation:</b> You will receive <b>$8</b> for completing the experiment and a performance bonus of up to <b>$9</b>.</p>\n        <p><b>Confidentiality:</b> Your participation in this study will remain confidential.             No personally identifiable information will be associated with your data.             Your de-identified data may be shared with other researchers and used in future projects.</p>\n        <p><b>Participation and withdrawal:</b> Your participation in this study is completely voluntary and             you may refuse to participate or you may choose to withdraw at any time without penalty or loss of\n            benefits to which you are otherwise entitled.</p>\n        <p><b>How to contact the researcher:</b> If you have questions or concerns about your participation            or payment, or want to request a summary of research findings, please contact\n            Alicia Chen, aliciachen@college.harvard.edu.</p>\n        <p><b>Whom to contact about your rights in this research:</b> For questions, concerns, suggestions,             or complaints that have not been or cannot be addressed by the researcher, or to report             research-related harm, please contact the Committee on the Use of Human Subjects in Research at Harvard University,             1414 Massachusetts Avenue, Second Floor, Cambridge, MA 02138. Phone: 617-496-2847. Email: cuhs@fas.harvard.edu.</p>\n        ","response":0,"trial_type":"html-button-response","trial_index":1,"time_elapsed":297955,"internal_node_id":"0.0-1.0","params":{"nStudents":24,"maxFlips":30,"completionMinutes":45,"basePay":8,"maxBonus":9,"perTrialBonus":0.5,"perTrialBonusThreshold":0.1,"exampleCost":0.01},"classroomParams":{"A":{"a":1,"b":4},"B":{"a":4,"b":1},"C":{"a":2,"b":8},"D":{"a":8,"b":2}},"conditions":["nonSeqFull","nonSeqPartial","seqNoFeedback","seqFeedback"],"classroomPairings":[["A","B"],["C","D"]],"coinWeights":[0.2,0.5,0.8],"subjectId":"A2615YW1YERQBO","assignmentId":"3NPI0JQDAPRFIHIMD27IO4SNS1DTP0","hitId":"341H3G5YF006USP7B7C868W97H9Z08","url":"https://gershmanlab.com/experiments/alicia/teaching/experiment/?hitId=341H3G5YF006USP7B7C868W97H9Z08&workerId=A2615YW1YERQBO&assignmentId=3NPI0JQDAPRFIHIMD27IO4SNS1DTP0&a=D0PN8&tp_a=D0PN8&b=3NPI0JQDAPRFIHIMD27IO4SNS1DTP0&tp_b=3NPI0JQDAPRFIHIMD27IO4SNS1DTP0&c=365198&tp_c=365198"},{"view_history":[{"page_index":0,"viewing_time":6102},{"page_index":1,"viewing_time":9728},{"page_index":2,"viewing_time":44880},{"page_index":3,"viewing_time":33894},{"page_index":4,"viewing_time":11552},{"page_index":5,"viewing_time":45681},{"page_index":6,"viewing_time":161385}],"rt":313222,"trial_type":"instructions","trial_index":2,"time_elapsed":611174,"internal_node_id":"0.0-2.0-0.0","params":{"nStudents":24,"maxFlips":30,"completionMinutes":45,"basePay":8,"maxBonus":9,"perTrialBonus":0.5,"perTrialBonusThreshold":0.1,"exampleCost":0.01},"classroomParams":{"A":{"a":1,"b":4},"B":{"a":4,"b":1},"C":{"a":2,"b":8},"D":{"a":8,"b":2}},"conditions":["nonSeqFull","nonSeqPartial","seqNoFeedback","seqFeedback"],"classroomPairings":[["A","B"],["C","D"]],"coinWeights":[0.2,0.5,0.8],"subjectId":"A2615YW1YERQBO","assignmentId":"3NPI0JQDAPRFIHIMD27IO4SNS1DTP0","hitId":"341H3G5YF006USP7B7C868W97H9Z08","url":"https://gershmanlab.com/experiments/alicia/teaching/experiment/?hitId=341H3G5YF006USP7B7C868W97H9Z08&workerId=A2615YW1YERQBO&assignmentId=3NPI0JQDAPRFIHIMD27IO4SNS1DTP0&a=D0PN8&tp_a=D0PN8&b=3NPI0JQDAPRFIHIMD27IO4SNS1DTP0&tp_b=3NPI0JQDAPRFIHIMD27IO4SNS1DTP0&c=365198&tp_c=365198"},{"rt":76014,"response":{"Q0":"Students in different classrooms will have seen a different number of heads and tails before seeing the examples you select for them.","Q1":"By teaching efficiently and accurately/helpfully at the same time (because each example I give to the student costs money!).","Q2":"The coin lands heads 90% of the time.","Q3":"No, I will teach a <b>new</b> student each time.","Q4":"The students are also on the same alien planet as you, where coins can be unfair.","Q5":"Based on the student's second (and final) guess."},"question_order":[0,1,4,2,3,5],"trial_type":"survey-multi-choice","trial_index":3,"time_elapsed":687190,"internal_node_id":"0.0-2.0-1.0","params":{"nStudents":24,"maxFlips":30,"completionMinutes":45,"basePay":8,"maxBonus":9,"perTrialBonus":0.5,"perTrialBonusThreshold":0.1,"exampleCost":0.01},"classroomParams":{"A":{"a":1,"b":4},"B":{"a":4,"b":1},"C":{"a":2,"b":8},"D":{"a":8,"b":2}},"conditions":["nonSeqFull","nonSeqPartial","seqNoFeedback","seqFeedback"],"classroomPairings":[["A","B"],["C","D"]],"coinWeights":[0.2,0.5,0.8],"subjectId":"A2615YW1YERQBO","assignmentId":"3NPI0JQDAPRFIHIMD27IO4SNS1DTP0","hitId":"341H3G5YF006USP7B7C868W97H9Z08","url":"https://gershmanlab.com/experiments/alicia/teaching/experiment/?hitId=341H3G5YF006USP7B7C868W97H9Z08&workerId=A2615YW1YERQBO&assignmentId=3NPI0JQDAPRFIHIMD27IO4SNS1DTP0&a=D0PN8&tp_a=D0PN8&b=3NPI0JQDAPRFIHIMD27IO4SNS1DTP0&tp_b=3NPI0JQDAPRFIHIMD27IO4SNS1DTP0&c=365198&tp_c=365198","pass":true},{"rt":null,"stimulus":"<div style=\"font-size:30px;\">Congrats on passing the comprehension quiz! The experiment will begin in a few seconds.</div>","response":null,"trial_type":"html-keyboard-response","trial_index":4,"time_elapsed":690209,"internal_node_id":"0.0-3.0","params":{"nStudents":24,"maxFlips":30,"completionMinutes":45,"basePay":8,"maxBonus":9,"perTrialBonus":0.5,"perTrialBonusThreshold":0.1,"exampleCost":0.01},"classroomParams":{"A":{"a":1,"b":4},"B":{"a":4,"b":1},"C":{"a":2,"b":8},"D":{"a":8,"b":2}},"conditions":["nonSeqFull","nonSeqPartial","seqNoFeedback","seqFeedback"],"classroomPairings":[["A","B"],["C","D"]],"coinWeights":[0.2,0.5,0.8],"subjectId":"A2615YW1YERQBO","assignmentId":"3NPI0JQDAPRFIHIMD27IO4SNS1DTP0","hitId":"341H3G5YF006USP7B7C868W97H9Z08","url":"https://gershmanlab.com/experiments/alicia/teaching/experiment/?hitId=341H3G5YF006USP7B7C868W97H9Z08&workerId=A2615YW1YERQBO&assignmentId=3NPI0JQDAPRFIHIMD27IO4SNS1DTP0&a=D0PN8&tp_a=D0PN8&b=3NPI0JQDAPRFIHIMD27IO4SNS1DTP0&tp_b=3NPI0JQDAPRFIHIMD27IO4SNS1DTP0&c=365198&tp_c=365198"},{"rt":null,"stimulus":"<div style=\"font-size:50px;\">First student</div>","response":null,"trial_type":"html-keyboard-response","trial_index":5,"time_elapsed":693214,"internal_node_id":"0.0-4.0","params":{"nStudents":24,"maxFlips":30,"completionMinutes":45,"basePay":8,"maxBonus":9,"perTrialBonus":0.5,"perTrialBonusThreshold":0.1,"exampleCost":0.01},"classroomParams":{"A":{"a":1,"b":4},"B":{"a":4,"b":1},"C":{"a":2,"b":8},"D":{"a":8,"b":2}},"conditions":["nonSeqFull","nonSeqPartial","seqNoFeedback","seqFeedback"],"classroomPairings":[["A","B"],["C","D"]],"coinWeights":[0.2,0.5,0.8],"subjectId":"A2615YW1YERQBO","assignmentId":"3NPI0JQDAPRFIHIMD27IO4SNS1DTP0","hitId":"341H3G5YF006USP7B7C868W97H9Z08","url":"https://gershmanlab.com/experiments/alicia/teaching/experiment/?hitId=341H3G5YF006USP7B7C868W97H9Z08&workerId=A2615YW1YERQBO&assignmentId=3NPI0JQDAPRFIHIMD27IO4SNS1DTP0&a=D0PN8&tp_a=D0PN8&b=3NPI0JQDAPRFIHIMD27IO4SNS1DTP0&tp_b=3NPI0JQDAPRFIHIMD27IO4SNS1DTP0&c=365198&tp_c=365198"},{"rt":14180,"stimulus":"\n            <h4 style=\"color:Orange;\">Student 1</h4>\n            <h2>The weight of your coin is <b style=\"color:Tomato;\">0.8</b>.</h2>\n            <p>In this block, you will be giving <b>two</b> sets of examples to Student 1.</p>\n                <p>You will receive feedback at the end of the block.</p>\n            ","response":0,"trial_type":"html-button-response","trial_index":6,"time_elapsed":707397,"internal_node_id":"0.0-5.0","params":{"nStudents":24,"maxFlips":30,"completionMinutes":45,"basePay":8,"maxBonus":9,"perTrialBonus":0.5,"perTrialBonusThreshold":0.1,"exampleCost":0.01},"classroomParams":{"A":{"a":1,"b":4},"B":{"a":4,"b":1},"C":{"a":2,"b":8},"D":{"a":8,"b":2}},"conditions":["nonSeqFull","nonSeqPartial","seqNoFeedback","seqFeedback"],"classroomPairings":[["A","B"],["C","D"]],"coinWeights":[0.2,0.5,0.8],"subjectId":"A2615YW1YERQBO","assignmentId":"3NPI0JQDAPRFIHIMD27IO4SNS1DTP0","hitId":"341H3G5YF006USP7B7C868W97H9Z08","url":"https://gershmanlab.com/experiments/alicia/teaching/experiment/?hitId=341H3G5YF006USP7B7C868W97H9Z08&workerId=A2615YW1YERQBO&assignmentId=3NPI0JQDAPRFIHIMD27IO4SNS1DTP0&a=D0PN8&tp_a=D0PN8&b=3NPI0JQDAPRFIHIMD27IO4SNS1DTP0&tp_b=3NPI0JQDAPRFIHIMD27IO4SNS1DTP0&c=365198&tp_c=365198"},{"rt":33271,"response":{"heads":"4","tails":"1"},"type":"response","condition":"seqNoFeedback","trueTheta":0.8,"classrooms":["C","D"],"studentTrueClassroom":"C","exampleSet":"first","trial_type":"survey-html-form","trial_index":7,"time_elapsed":740669,"internal_node_id":"0.0-6.0-0.0","params":{"nStudents":24,"maxFlips":30,"completionMinutes":45,"basePay":8,"maxBonus":9,"perTrialBonus":0.5,"perTrialBonusThreshold":0.1,"exampleCost":0.01},"classroomParams":{"A":{"a":1,"b":4},"B":{"a":4,"b":1},"C":{"a":2,"b":8},"D":{"a":8,"b":2}},"conditions":["nonSeqFull","nonSeqPartial","seqNoFeedback","seqFeedback"],"classroomPairings":[["A","B"],["C","D"]],"coinWeights":[0.2,0.5,0.8],"subjectId":"A2615YW1YERQBO","assignmentId":"3NPI0JQDAPRFIHIMD27IO4SNS1DTP0","hitId":"341H3G5YF006USP7B7C868W97H9Z08","url":"https://gershmanlab.com/experiments/alicia/teaching/experiment/?hitId=341H3G5YF006USP7B7C868W97H9Z08&workerId=A2615YW1YERQBO&assignmentId=3NPI0JQDAPRFIHIMD27IO4SNS1DTP0&a=D0PN8&tp_a=D0PN8&b=3NPI0JQDAPRFIHIMD27IO4SNS1DTP0&tp_b=3NPI0JQDAPRFIHIMD27IO4SNS1DTP0&c=365198&tp_c=365198","heads":4,"tails":1,"studentIndex":0,"studentTrueHypers":{"a":2,"b":8},"studentGuess":0.4,"delta":0.4,"totalExamples":5,"bonusSoFar":0},{"rt":null,"stimulus":"Sending examples to student... ","response":null,"trial_type":"html-keyboard-response","trial_index":8,"time_elapsed":741926,"internal_node_id":"0.0-7.0","params":{"nStudents":24,"maxFlips":30,"completionMinutes":45,"basePay":8,"maxBonus":9,"perTrialBonus":0.5,"perTrialBonusThreshold":0.1,"exampleCost":0.01},"classroomParams":{"A":{"a":1,"b":4},"B":{"a":4,"b":1},"C":{"a":2,"b":8},"D":{"a":8,"b":2}},"conditions":["nonSeqFull","nonSeqPartial","seqNoFeedback","seqFeedback"],"classroomPairings":[["A","B"],["C","D"]],"coinWeights":[0.2,0.5,0.8],"subjectId":"A2615YW1YERQBO","assignmentId":"3NPI0JQDAPRFIHIMD27IO4SNS1DTP0","hitId":"341H3G5YF006USP7B7C868W97H9Z08","url":"https://gershmanlab.com/experiments/alicia/teaching/experiment/?hitId=341H3G5YF006USP7B7C868W97H9Z08&workerId=A2615YW1YERQBO&assignmentId=3NPI0JQDAPRFIHIMD27IO4SNS1DTP0&a=D0PN8&tp_a=D0PN8&b=3NPI0JQDAPRFIHIMD27IO4SNS1DTP0&tp_b=3NPI0JQDAPRFIHIMD27IO4SNS1DTP0&c=365198&tp_c=365198"},{"rt":null,"stimulus":"Examples sent to student! Waiting for student...","response":null,"trial_type":"html-keyboard-response","trial_index":9,"time_elapsed":747940,"internal_node_id":"0.0-8.0","params":{"nStudents":24,"maxFlips":30,"completionMinutes":45,"basePay":8,"maxBonus":9,"perTrialBonus":0.5,"perTrialBonusThreshold":0.1,"exampleCost":0.01},"classroomParams":{"A":{"a":1,"b":4},"B":{"a":4,"b":1},"C":{"a":2,"b":8},"D":{"a":8,"b":2}},"conditions":["nonSeqFull","nonSeqPartial","seqNoFeedback","seqFeedback"],"classroomPairings":[["A","B"],["C","D"]],"coinWeights":[0.2,0.5,0.8],"subjectId":"A2615YW1YERQBO","assignmentId":"3NPI0JQDAPRFIHIMD27IO4SNS1DTP0","hitId":"341H3G5YF006USP7B7C868W97H9Z08","url":"https://gershmanlab.com/experiments/alicia/teaching/experiment/?hitId=341H3G5YF006USP7B7C868W97H9Z08&workerId=A2615YW1YERQBO&assignmentId=3NPI0JQDAPRFIHIMD27IO4SNS1DTP0&a=D0PN8&tp_a=D0PN8&b=3NPI0JQDAPRFIHIMD27IO4SNS1DTP0&tp_b=3NPI0JQDAPRFIHIMD27IO4SNS1DTP0&c=365198&tp_c=365198"},{"rt":25446,"response":{"heads":"4","tails":"1"},"type":"response","condition":"seqNoFeedback","trueTheta":0.8,"classrooms":["C","D"],"studentTrueClassroom":"C","exampleSet":"second","trial_type":"survey-html-form","trial_index":10,"time_elapsed":773389,"internal_node_id":"0.0-9.0-0.0","params":{"nStudents":24,"maxFlips":30,"completionMinutes":45,"basePay":8,"maxBonus":9,"perTrialBonus":0.5,"perTrialBonusThreshold":0.1,"exampleCost":0.01},"classroomParams":{"A":{"a":1,"b":4},"B":{"a":4,"b":1},"C":{"a":2,"b":8},"D":{"a":8,"b":2}},"conditions":["nonSeqFull","nonSeqPartial","seqNoFeedback","seqFeedback"],"classroomPairings":[["A","B"],["C","D"]],"coinWeights":[0.2,0.5,0.8],"subjectId":"A2615YW1YERQBO","assignmentId":"3NPI0JQDAPRFIHIMD27IO4SNS1DTP0","hitId":"341H3G5YF006USP7B7C868W97H9Z08","url":"https://gershmanlab.com/experiments/alicia/teaching/experiment/?hitId=341H3G5YF006USP7B7C868W97H9Z08&workerId=A2615YW1YERQBO&assignmentId=3NPI0JQDAPRFIHIMD27IO4SNS1DTP0&a=D0PN8&tp_a=D0PN8&b=3NPI0JQDAPRFIHIMD27IO4SNS1DTP0&tp_b=3NPI0JQDAPRFIHIMD27IO4SNS1DTP0&c=365198&tp_c=365198","firstResponseHeads":4,"firstResponseTails":1,"secondResponseHeads":4,"secondResponseTails":1,"studentIndex":0,"studentTrueHypers":{"a":2,"b":8},"studentGuess":0.5,"delta":0.30000000000000004,"bonus":0,"bonusSoFar":0,"totalExamples":10},{"rt":null,"stimulus":"Sending examples to student... ","response":null,"trial_type":"html-keyboard-response","trial_index":11,"time_elapsed":775142,"internal_node_id":"0.0-10.0","params":{"nStudents":24,"maxFlips":30,"completionMinutes":45,"basePay":8,"maxBonus":9,"perTrialBonus":0.5,"perTrialBonusThreshold":0.1,"exampleCost":0.01},"classroomParams":{"A":{"a":1,"b":4},"B":{"a":4,"b":1},"C":{"a":2,"b":8},"D":{"a":8,"b":2}},"conditions":["nonSeqFull","nonSeqPartial","seqNoFeedback","seqFeedback"],"classroomPairings":[["A","B"],["C","D"]],"coinWeights":[0.2,0.5,0.8],"subjectId":"A2615YW1YERQBO","assignmentId":"3NPI0JQDAPRFIHIMD27IO4SNS1DTP0","hitId":"341H3G5YF006USP7B7C868W97H9Z08","url":"https://gershmanlab.com/experiments/alicia/teaching/experiment/?hitId=341H3G5YF006USP7B7C868W97H9Z08&workerId=A2615YW1YERQBO&assignmentId=3NPI0JQDAPRFIHIMD27IO4SNS1DTP0&a=D0PN8&tp_a=D0PN8&b=3NPI0JQDAPRFIHIMD27IO4SNS1DTP0&tp_b=3NPI0JQDAPRFIHIMD27IO4SNS1DTP0&c=365198&tp_c=365198"},{"rt":null,"stimulus":"Examples sent to student! Waiting for student...","response":null,"trial_type":"html-keyboard-response","trial_index":12,"time_elapsed":779157,"internal_node_id":"0.0-11.0","params":{"nStudents":24,"maxFlips":30,"completionMinutes":45,"basePay":8,"maxBonus":9,"perTrialBonus":0.5,"perTrialBonusThreshold":0.1,"exampleCost":0.01},"classroomParams":{"A":{"a":1,"b":4},"B":{"a":4,"b":1},"C":{"a":2,"b":8},"D":{"a":8,"b":2}},"conditions":["nonSeqFull","nonSeqPartial","seqNoFeedback","seqFeedback"],"classroomPairings":[["A","B"],["C","D"]],"coinWeights":[0.2,0.5,0.8],"subjectId":"A2615YW1YERQBO","assignmentId":"3NPI0JQDAPRFIHIMD27IO4SNS1DTP0","hitId":"341H3G5YF006USP7B7C868W97H9Z08","url":"https://gershmanlab.com/experiments/alicia/teaching/experiment/?hitId=341H3G5YF006USP7B7C868W97H9Z08&workerId=A2615YW1YERQBO&assignmentId=3NPI0JQDAPRFIHIMD27IO4SNS1DTP0&a=D0PN8&tp_a=D0PN8&b=3NPI0JQDAPRFIHIMD27IO4SNS1DTP0&tp_b=3NPI0JQDAPRFIHIMD27IO4SNS1DTP0&c=365198&tp_c=365198"},{"rt":18259,"stimulus":"\n                <p>Student 1's first guess for coin weight: <b style=\"color:Tomato\";>0.40</b></p>\n                <p>Student 1's second guess for coin weight: <b style=\"color:Tomato\";>0.50</b></p>\n                <p>You received a bonus of <b>$0.00</b> based on the student's second guess.</p>\n                <p>Total bonus so far: <b>$0.00</b></p>\n                <p>Press any key to continue.</p>\n                ","response":" ","trial_type":"html-keyboard-response","trial_index":13,"time_elapsed":797419,"internal_node_id":"0.0-12.0","params":{"nStudents":24,"maxFlips":30,"completionMinutes":45,"basePay":8,"maxBonus":9,"perTrialBonus":0.5,"perTrialBonusThreshold":0.1,"exampleCost":0.01},"classroomParams":{"A":{"a":1,"b":4},"B":{"a":4,"b":1},"C":{"a":2,"b":8},"D":{"a":8,"b":2}},"conditions":["nonSeqFull","nonSeqPartial","seqNoFeedback","seqFeedback"],"classroomPairings":[["A","B"],["C","D"]],"coinWeights":[0.2,0.5,0.8],"subjectId":"A2615YW1YERQBO","assignmentId":"3NPI0JQDAPRFIHIMD27IO4SNS1DTP0","hitId":"341H3G5YF006USP7B7C868W97H9Z08","url":"https://gershmanlab.com/experiments/alicia/teaching/experiment/?hitId=341H3G5YF006USP7B7C868W97H9Z08&workerId=A2615YW1YERQBO&assignmentId=3NPI0JQDAPRFIHIMD27IO4SNS1DTP0&a=D0PN8&tp_a=D0PN8&b=3NPI0JQDAPRFIHIMD27IO4SNS1DTP0&tp_b=3NPI0JQDAPRFIHIMD27IO4SNS1DTP0&c=365198&tp_c=365198"},{"rt":null,"stimulus":"<div style=\"font-size:60px;\">Next student</div>","response":null,"trial_type":"html-keyboard-response","trial_index":14,"time_elapsed":799687,"internal_node_id":"0.0-13.0-0.0","params":{"nStudents":24,"maxFlips":30,"completionMinutes":45,"basePay":8,"maxBonus":9,"perTrialBonus":0.5,"perTrialBonusThreshold":0.1,"exampleCost":0.01},"classroomParams":{"A":{"a":1,"b":4},"B":{"a":4,"b":1},"C":{"a":2,"b":8},"D":{"a":8,"b":2}},"conditions":["nonSeqFull","nonSeqPartial","seqNoFeedback","seqFeedback"],"classroomPairings":[["A","B"],["C","D"]],"coinWeights":[0.2,0.5,0.8],"subjectId":"A2615YW1YERQBO","assignmentId":"3NPI0JQDAPRFIHIMD27IO4SNS1DTP0","hitId":"341H3G5YF006USP7B7C868W97H9Z08","url":"https://gershmanlab.com/experiments/alicia/teaching/experiment/?hitId=341H3G5YF006USP7B7C868W97H9Z08&workerId=A2615YW1YERQBO&assignmentId=3NPI0JQDAPRFIHIMD27IO4SNS1DTP0&a=D0PN8&tp_a=D0PN8&b=3NPI0JQDAPRFIHIMD27IO4SNS1DTP0&tp_b=3NPI0JQDAPRFIHIMD27IO4SNS1DTP0&c=365198&tp_c=365198"},{"rt":7923,"stimulus":"\n            <h4 style=\"color:Orange;\">Student 2</h4>\n            <h2>The weight of your coin is <b style=\"color:Tomato;\">0.5</b>.</h2>\n            <p>In this block, you will be giving <b>two</b> sets of examples to Student 2.</p>\n                <p>You will see the student's guess after the first set of examples. You will also receive feedback at the end of the block.</p>\n            ","response":0,"trial_type":"html-button-response","trial_index":15,"time_elapsed":807612,"internal_node_id":"0.0-14.0","params":{"nStudents":24,"maxFlips":30,"completionMinutes":45,"basePay":8,"maxBonus":9,"perTrialBonus":0.5,"perTrialBonusThreshold":0.1,"exampleCost":0.01},"classroomParams":{"A":{"a":1,"b":4},"B":{"a":4,"b":1},"C":{"a":2,"b":8},"D":{"a":8,"b":2}},"conditions":["nonSeqFull","nonSeqPartial","seqNoFeedback","seqFeedback"],"classroomPairings":[["A","B"],["C","D"]],"coinWeights":[0.2,0.5,0.8],"subjectId":"A2615YW1YERQBO","assignmentId":"3NPI0JQDAPRFIHIMD27IO4SNS1DTP0","hitId":"341H3G5YF006USP7B7C868W97H9Z08","url":"https://gershmanlab.com/experiments/alicia/teaching/experiment/?hitId=341H3G5YF006USP7B7C868W97H9Z08&workerId=A2615YW1YERQBO&assignmentId=3NPI0JQDAPRFIHIMD27IO4SNS1DTP0&a=D0PN8&tp_a=D0PN8&b=3NPI0JQDAPRFIHIMD27IO4SNS1DTP0&tp_b=3NPI0JQDAPRFIHIMD27IO4SNS1DTP0&c=365198&tp_c=365198"},{"rt":13799,"response":{"heads":"2","tails":"2"},"type":"response","condition":"seqFeedback","trueTheta":0.5,"classrooms":["A","B"],"studentTrueClassroom":"A","exampleSet":"first","trial_type":"survey-html-form","trial_index":16,"time_elapsed":821412,"internal_node_id":"0.0-15.0-0.0","params":{"nStudents":24,"maxFlips":30,"completionMinutes":45,"basePay":8,"maxBonus":9,"perTrialBonus":0.5,"perTrialBonusThreshold":0.1,"exampleCost":0.01},"classroomParams":{"A":{"a":1,"b":4},"B":{"a":4,"b":1},"C":{"a":2,"b":8},"D":{"a":8,"b":2}},"conditions":["nonSeqFull","nonSeqPartial","seqNoFeedback","seqFeedback"],"classroomPairings":[["A","B"],["C","D"]],"coinWeights":[0.2,0.5,0.8],"subjectId":"A2615YW1YERQBO","assignmentId":"3NPI0JQDAPRFIHIMD27IO4SNS1DTP0","hitId":"341H3G5YF006USP7B7C868W97H9Z08","url":"https://gershmanlab.com/experiments/alicia/teaching/experiment/?hitId=341H3G5YF006USP7B7C868W97H9Z08&workerId=A2615YW1YERQBO&assignmentId=3NPI0JQDAPRFIHIMD27IO4SNS1DTP0&a=D0PN8&tp_a=D0PN8&b=3NPI0JQDAPRFIHIMD27IO4SNS1DTP0&tp_b=3NPI0JQDAPRFIHIMD27IO4SNS1DTP0&c=365198&tp_c=365198","heads":2,"tails":2,"studentIndex":1,"studentTrueHypers":{"a":1,"b":4},"studentGuess":0.3333333333333333,"delta":0.16666666666666669,"totalExamples":4,"bonusSoFar":0},{"rt":null,"stimulus":"Sending examples to student... ","response":null,"trial_type":"html-keyboard-response","trial_index":17,"time_elapsed":822674,"internal_node_id":"0.0-16.0","params":{"nStudents":24,"maxFlips":30,"completionMinutes":45,"basePay":8,"maxBonus":9,"perTrialBonus":0.5,"perTrialBonusThreshold":0.1,"exampleCost":0.01},"classroomParams":{"A":{"a":1,"b":4},"B":{"a":4,"b":1},"C":{"a":2,"b":8},"D":{"a":8,"b":2}},"conditions":["nonSeqFull","nonSeqPartial","seqNoFeedback","seqFeedback"],"classroomPairings":[["A","B"],["C","D"]],"coinWeights":[0.2,0.5,0.8],"subjectId":"A2615YW1YERQBO","assignmentId":"3NPI0JQDAPRFIHIMD27IO4SNS1DTP0","hitId":"341H3G5YF006USP7B7C868W97H9Z08","url":"https://gershmanlab.com/experiments/alicia/teaching/experiment/?hitId=341H3G5YF006USP7B7C868W97H9Z08&workerId=A2615YW1YERQBO&assignmentId=3NPI0JQDAPRFIHIMD27IO4SNS1DTP0&a=D0PN8&tp_a=D0PN8&b=3NPI0JQDAPRFIHIMD27IO4SNS1DTP0&tp_b=3NPI0JQDAPRFIHIMD27IO4SNS1DTP0&c=365198&tp_c=365198"},{"rt":null,"stimulus":"Examples sent to student! Waiting for student...","response":null,"trial_type":"html-keyboard-response","trial_index":18,"time_elapsed":827185,"internal_node_id":"0.0-17.0","params":{"nStudents":24,"maxFlips":30,"completionMinutes":45,"basePay":8,"maxBonus":9,"perTrialBonus":0.5,"perTrialBonusThreshold":0.1,"exampleCost":0.01},"classroomParams":{"A":{"a":1,"b":4},"B":{"a":4,"b":1},"C":{"a":2,"b":8},"D":{"a":8,"b":2}},"conditions":["nonSeqFull","nonSeqPartial","seqNoFeedback","seqFeedback"],"classroomPairings":[["A","B"],["C","D"]],"coinWeights":[0.2,0.5,0.8],"subjectId":"A2615YW1YERQBO","assignmentId":"3NPI0JQDAPRFIHIMD27IO4SNS1DTP0","hitId":"341H3G5YF006USP7B7C868W97H9Z08","url":"https://gershmanlab.com/experiments/alicia/teaching/experiment/?hitId=341H3G5YF006USP7B7C868W97H9Z08&workerId=A2615YW1YERQBO&assignmentId=3NPI0JQDAPRFIHIMD27IO4SNS1DTP0&a=D0PN8&tp_a=D0PN8&b=3NPI0JQDAPRFIHIMD27IO4SNS1DTP0&tp_b=3NPI0JQDAPRFIHIMD27IO4SNS1DTP0&c=365198&tp_c=365198"},{"rt":3384,"stimulus":"\n                <p>Student's guess for coin weight: <b style=\"color:Tomato;\">0.33</b></p>\n                <p></b></p>\n                <p>You will now send another set of examples to your student. Press any key to continue.</p>\n                ","response":" ","trial_type":"html-keyboard-response","trial_index":19,"time_elapsed":830571,"internal_node_id":"0.0-18.0","params":{"nStudents":24,"maxFlips":30,"completionMinutes":45,"basePay":8,"maxBonus":9,"perTrialBonus":0.5,"perTrialBonusThreshold":0.1,"exampleCost":0.01},"classroomParams":{"A":{"a":1,"b":4},"B":{"a":4,"b":1},"C":{"a":2,"b":8},"D":{"a":8,"b":2}},"conditions":["nonSeqFull","nonSeqPartial","seqNoFeedback","seqFeedback"],"classroomPairings":[["A","B"],["C","D"]],"coinWeights":[0.2,0.5,0.8],"subjectId":"A2615YW1YERQBO","assignmentId":"3NPI0JQDAPRFIHIMD27IO4SNS1DTP0","hitId":"341H3G5YF006USP7B7C868W97H9Z08","url":"https://gershmanlab.com/experiments/alicia/teaching/experiment/?hitId=341H3G5YF006USP7B7C868W97H9Z08&workerId=A2615YW1YERQBO&assignmentId=3NPI0JQDAPRFIHIMD27IO4SNS1DTP0&a=D0PN8&tp_a=D0PN8&b=3NPI0JQDAPRFIHIMD27IO4SNS1DTP0&tp_b=3NPI0JQDAPRFIHIMD27IO4SNS1DTP0&c=365198&tp_c=365198"},{"rt":40335,"response":{"heads":"7","tails":"3"},"type":"response","condition":"seqFeedback","trueTheta":0.5,"classrooms":["A","B"],"studentTrueClassroom":"A","exampleSet":"second","trial_type":"survey-html-form","trial_index":20,"time_elapsed":870907,"internal_node_id":"0.0-19.0-0.0","params":{"nStudents":24,"maxFlips":30,"completionMinutes":45,"basePay":8,"maxBonus":9,"perTrialBonus":0.5,"perTrialBonusThreshold":0.1,"exampleCost":0.01},"classroomParams":{"A":{"a":1,"b":4},"B":{"a":4,"b":1},"C":{"a":2,"b":8},"D":{"a":8,"b":2}},"conditions":["nonSeqFull","nonSeqPartial","seqNoFeedback","seqFeedback"],"classroomPairings":[["A","B"],["C","D"]],"coinWeights":[0.2,0.5,0.8],"subjectId":"A2615YW1YERQBO","assignmentId":"3NPI0JQDAPRFIHIMD27IO4SNS1DTP0","hitId":"341H3G5YF006USP7B7C868W97H9Z08","url":"https://gershmanlab.com/experiments/alicia/teaching/experiment/?hitId=341H3G5YF006USP7B7C868W97H9Z08&workerId=A2615YW1YERQBO&assignmentId=3NPI0JQDAPRFIHIMD27IO4SNS1DTP0&a=D0PN8&tp_a=D0PN8&b=3NPI0JQDAPRFIHIMD27IO4SNS1DTP0&tp_b=3NPI0JQDAPRFIHIMD27IO4SNS1DTP0&c=365198&tp_c=365198","firstResponseHeads":2,"firstResponseTails":2,"secondResponseHeads":7,"secondResponseTails":3,"studentIndex":1,"studentTrueHypers":{"a":1,"b":4},"studentGuess":0.5263157894736842,"delta":0.02631578947368418,"bonus":0.36,"bonusSoFar":0.36,"totalExamples":14},{"rt":null,"stimulus":"Sending examples to student... ","response":null,"trial_type":"html-keyboard-response","trial_index":21,"time_elapsed":872413,"internal_node_id":"0.0-20.0","params":{"nStudents":24,"maxFlips":30,"completionMinutes":45,"basePay":8,"maxBonus":9,"perTrialBonus":0.5,"perTrialBonusThreshold":0.1,"exampleCost":0.01},"classroomParams":{"A":{"a":1,"b":4},"B":{"a":4,"b":1},"C":{"a":2,"b":8},"D":{"a":8,"b":2}},"conditions":["nonSeqFull","nonSeqPartial","seqNoFeedback","seqFeedback"],"classroomPairings":[["A","B"],["C","D"]],"coinWeights":[0.2,0.5,0.8],"subjectId":"A2615YW1YERQBO","assignmentId":"3NPI0JQDAPRFIHIMD27IO4SNS1DTP0","hitId":"341H3G5YF006USP7B7C868W97H9Z08","url":"https://gershmanlab.com/experiments/alicia/teaching/experiment/?hitId=341H3G5YF006USP7B7C868W97H9Z08&workerId=A2615YW1YERQBO&assignmentId=3NPI0JQDAPRFIHIMD27IO4SNS1DTP0&a=D0PN8&tp_a=D0PN8&b=3NPI0JQDAPRFIHIMD27IO4SNS1DTP0&tp_b=3NPI0JQDAPRFIHIMD27IO4SNS1DTP0&c=365198&tp_c=365198"},{"rt":null,"stimulus":"Examples sent to student! Waiting for student...","response":null,"trial_type":"html-keyboard-response","trial_index":22,"time_elapsed":877430,"internal_node_id":"0.0-21.0","params":{"nStudents":24,"maxFlips":30,"completionMinutes":45,"basePay":8,"maxBonus":9,"perTrialBonus":0.5,"perTrialBonusThreshold":0.1,"exampleCost":0.01},"classroomParams":{"A":{"a":1,"b":4},"B":{"a":4,"b":1},"C":{"a":2,"b":8},"D":{"a":8,"b":2}},"conditions":["nonSeqFull","nonSeqPartial","seqNoFeedback","seqFeedback"],"classroomPairings":[["A","B"],["C","D"]],"coinWeights":[0.2,0.5,0.8],"subjectId":"A2615YW1YERQBO","assignmentId":"3NPI0JQDAPRFIHIMD27IO4SNS1DTP0","hitId":"341H3G5YF006USP7B7C868W97H9Z08","url":"https://gershmanlab.com/experiments/alicia/teaching/experiment/?hitId=341H3G5YF006USP7B7C868W97H9Z08&workerId=A2615YW1YERQBO&assignmentId=3NPI0JQDAPRFIHIMD27IO4SNS1DTP0&a=D0PN8&tp_a=D0PN8&b=3NPI0JQDAPRFIHIMD27IO4SNS1DTP0&tp_b=3NPI0JQDAPRFIHIMD27IO4SNS1DTP0&c=365198&tp_c=365198"},{"rt":7683,"stimulus":"\n                <p>Student 2's first guess for coin weight: <b style=\"color:Tomato\";>0.33</b></p>\n                <p>Student 2's second guess for coin weight: <b style=\"color:Tomato\";>0.53</b></p>\n                <p>You received a bonus of <b>$0.36</b> based on the student's second guess.</p>\n                <p>Total bonus so far: <b>$0.36</b></p>\n                <p>Press any key to continue.</p>\n                ","response":" ","trial_type":"html-keyboard-response","trial_index":23,"time_elapsed":885115,"internal_node_id":"0.0-22.0","params":{"nStudents":24,"maxFlips":30,"completionMinutes":45,"basePay":8,"maxBonus":9,"perTrialBonus":0.5,"perTrialBonusThreshold":0.1,"exampleCost":0.01},"classroomParams":{"A":{"a":1,"b":4},"B":{"a":4,"b":1},"C":{"a":2,"b":8},"D":{"a":8,"b":2}},"conditions":["nonSeqFull","nonSeqPartial","seqNoFeedback","seqFeedback"],"classroomPairings":[["A","B"],["C","D"]],"coinWeights":[0.2,0.5,0.8],"subjectId":"A2615YW1YERQBO","assignmentId":"3NPI0JQDAPRFIHIMD27IO4SNS1DTP0","hitId":"341H3G5YF006USP7B7C868W97H9Z08","url":"https://gershmanlab.com/experiments/alicia/teaching/experiment/?hitId=341H3G5YF006USP7B7C868W97H9Z08&workerId=A2615YW1YERQBO&assignmentId=3NPI0JQDAPRFIHIMD27IO4SNS1DTP0&a=D0PN8&tp_a=D0PN8&b=3NPI0JQDAPRFIHIMD27IO4SNS1DTP0&tp_b=3NPI0JQDAPRFIHIMD27IO4SNS1DTP0&c=365198&tp_c=365198"},{"rt":null,"stimulus":"<div style=\"font-size:60px;\">Next student</div>","response":null,"trial_type":"html-keyboard-response","trial_index":24,"time_elapsed":887132,"internal_node_id":"0.0-23.0-0.0","params":{"nStudents":24,"maxFlips":30,"completionMinutes":45,"basePay":8,"maxBonus":9,"perTrialBonus":0.5,"perTrialBonusThreshold":0.1,"exampleCost":0.01},"classroomParams":{"A":{"a":1,"b":4},"B":{"a":4,"b":1},"C":{"a":2,"b":8},"D":{"a":8,"b":2}},"conditions":["nonSeqFull","nonSeqPartial","seqNoFeedback","seqFeedback"],"classroomPairings":[["A","B"],["C","D"]],"coinWeights":[0.2,0.5,0.8],"subjectId":"A2615YW1YERQBO","assignmentId":"3NPI0JQDAPRFIHIMD27IO4SNS1DTP0","hitId":"341H3G5YF006USP7B7C868W97H9Z08","url":"https://gershmanlab.com/experiments/alicia/teaching/experiment/?hitId=341H3G5YF006USP7B7C868W97H9Z08&workerId=A2615YW1YERQBO&assignmentId=3NPI0JQDAPRFIHIMD27IO4SNS1DTP0&a=D0PN8&tp_a=D0PN8&b=3NPI0JQDAPRFIHIMD27IO4SNS1DTP0&tp_b=3NPI0JQDAPRFIHIMD27IO4SNS1DTP0&c=365198&tp_c=365198"},{"rt":5947,"stimulus":"\n            <h4 style=\"color:Orange;\">Student 3</h4>\n            <h2>The weight of your coin is <b style=\"color:Tomato;\">0.5</b>.</h2>\n            <p>In this block, you will be giving <b>one</b> set of examples to Student 3.</p>\n                <p>You will receive feedback at the end of the block.</p>\n            ","response":0,"trial_type":"html-button-response","trial_index":25,"time_elapsed":893081,"internal_node_id":"0.0-24.0","params":{"nStudents":24,"maxFlips":30,"completionMinutes":45,"basePay":8,"maxBonus":9,"perTrialBonus":0.5,"perTrialBonusThreshold":0.1,"exampleCost":0.01},"classroomParams":{"A":{"a":1,"b":4},"B":{"a":4,"b":1},"C":{"a":2,"b":8},"D":{"a":8,"b":2}},"conditions":["nonSeqFull","nonSeqPartial","seqNoFeedback","seqFeedback"],"classroomPairings":[["A","B"],["C","D"]],"coinWeights":[0.2,0.5,0.8],"subjectId":"A2615YW1YERQBO","assignmentId":"3NPI0JQDAPRFIHIMD27IO4SNS1DTP0","hitId":"341H3G5YF006USP7B7C868W97H9Z08","url":"https://gershmanlab.com/experiments/alicia/teaching/experiment/?hitId=341H3G5YF006USP7B7C868W97H9Z08&workerId=A2615YW1YERQBO&assignmentId=3NPI0JQDAPRFIHIMD27IO4SNS1DTP0&a=D0PN8&tp_a=D0PN8&b=3NPI0JQDAPRFIHIMD27IO4SNS1DTP0&tp_b=3NPI0JQDAPRFIHIMD27IO4SNS1DTP0&c=365198&tp_c=365198"},{"rt":27247,"response":{"heads":"9","tails":"9"},"type":"response","condition":"nonSeqPartial","trueTheta":0.5,"classrooms":["C","D"],"studentTrueClassroom":"C","exampleSet":"first","trial_type":"survey-html-form","trial_index":26,"time_elapsed":920331,"internal_node_id":"0.0-25.0-0.0","params":{"nStudents":24,"maxFlips":30,"completionMinutes":45,"basePay":8,"maxBonus":9,"perTrialBonus":0.5,"perTrialBonusThreshold":0.1,"exampleCost":0.01},"classroomParams":{"A":{"a":1,"b":4},"B":{"a":4,"b":1},"C":{"a":2,"b":8},"D":{"a":8,"b":2}},"conditions":["nonSeqFull","nonSeqPartial","seqNoFeedback","seqFeedback"],"classroomPairings":[["A","B"],["C","D"]],"coinWeights":[0.2,0.5,0.8],"subjectId":"A2615YW1YERQBO","assignmentId":"3NPI0JQDAPRFIHIMD27IO4SNS1DTP0","hitId":"341H3G5YF006USP7B7C868W97H9Z08","url":"https://gershmanlab.com/experiments/alicia/teaching/experiment/?hitId=341H3G5YF006USP7B7C868W97H9Z08&workerId=A2615YW1YERQBO&assignmentId=3NPI0JQDAPRFIHIMD27IO4SNS1DTP0&a=D0PN8&tp_a=D0PN8&b=3NPI0JQDAPRFIHIMD27IO4SNS1DTP0&tp_b=3NPI0JQDAPRFIHIMD27IO4SNS1DTP0&c=365198&tp_c=365198","heads":9,"tails":9,"studentIndex":2,"studentTrueHypers":{"a":2,"b":8},"studentGuess":0.39285714285714285,"delta":0.10714285714285715,"totalExamples":18,"bonus":0,"bonusSoFar":0.36},{"rt":null,"stimulus":"Sending examples to student... ","response":null,"trial_type":"html-keyboard-response","trial_index":27,"time_elapsed":921598,"internal_node_id":"0.0-26.0","params":{"nStudents":24,"maxFlips":30,"completionMinutes":45,"basePay":8,"maxBonus":9,"perTrialBonus":0.5,"perTrialBonusThreshold":0.1,"exampleCost":0.01},"classroomParams":{"A":{"a":1,"b":4},"B":{"a":4,"b":1},"C":{"a":2,"b":8},"D":{"a":8,"b":2}},"conditions":["nonSeqFull","nonSeqPartial","seqNoFeedback","seqFeedback"],"classroomPairings":[["A","B"],["C","D"]],"coinWeights":[0.2,0.5,0.8],"subjectId":"A2615YW1YERQBO","assignmentId":"3NPI0JQDAPRFIHIMD27IO4SNS1DTP0","hitId":"341H3G5YF006USP7B7C868W97H9Z08","url":"https://gershmanlab.com/experiments/alicia/teaching/experiment/?hitId=341H3G5YF006USP7B7C868W97H9Z08&workerId=A2615YW1YERQBO&assignmentId=3NPI0JQDAPRFIHIMD27IO4SNS1DTP0&a=D0PN8&tp_a=D0PN8&b=3NPI0JQDAPRFIHIMD27IO4SNS1DTP0&tp_b=3NPI0JQDAPRFIHIMD27IO4SNS1DTP0&c=365198&tp_c=365198"},{"rt":null,"stimulus":"Examples sent to student! Waiting for student...","response":null,"trial_type":"html-keyboard-response","trial_index":28,"time_elapsed":927614,"internal_node_id":"0.0-27.0","params":{"nStudents":24,"maxFlips":30,"completionMinutes":45,"basePay":8,"maxBonus":9,"perTrialBonus":0.5,"perTrialBonusThreshold":0.1,"exampleCost":0.01},"classroomParams":{"A":{"a":1,"b":4},"B":{"a":4,"b":1},"C":{"a":2,"b":8},"D":{"a":8,"b":2}},"conditions":["nonSeqFull","nonSeqPartial","seqNoFeedback","seqFeedback"],"classroomPairings":[["A","B"],["C","D"]],"coinWeights":[0.2,0.5,0.8],"subjectId":"A2615YW1YERQBO","assignmentId":"3NPI0JQDAPRFIHIMD27IO4SNS1DTP0","hitId":"341H3G5YF006USP7B7C868W97H9Z08","url":"https://gershmanlab.com/experiments/alicia/teaching/experiment/?hitId=341H3G5YF006USP7B7C868W97H9Z08&workerId=A2615YW1YERQBO&assignmentId=3NPI0JQDAPRFIHIMD27IO4SNS1DTP0&a=D0PN8&tp_a=D0PN8&b=3NPI0JQDAPRFIHIMD27IO4SNS1DTP0&tp_b=3NPI0JQDAPRFIHIMD27IO4SNS1DTP0&c=365198&tp_c=365198"},{"rt":5576,"stimulus":"\n                <p>Student's guess for coin weight: <b style=\"color:Tomato;\">0.39</b></p>\n                <p>You received a bonus of <b>$0</b>. Total bonus so far: <b>$0.36</b></b></p>\n                <p> Press any key to continue.</p>\n                ","response":" ","trial_type":"html-keyboard-response","trial_index":29,"time_elapsed":933192,"internal_node_id":"0.0-28.0","params":{"nStudents":24,"maxFlips":30,"completionMinutes":45,"basePay":8,"maxBonus":9,"perTrialBonus":0.5,"perTrialBonusThreshold":0.1,"exampleCost":0.01},"classroomParams":{"A":{"a":1,"b":4},"B":{"a":4,"b":1},"C":{"a":2,"b":8},"D":{"a":8,"b":2}},"conditions":["nonSeqFull","nonSeqPartial","seqNoFeedback","seqFeedback"],"classroomPairings":[["A","B"],["C","D"]],"coinWeights":[0.2,0.5,0.8],"subjectId":"A2615YW1YERQBO","assignmentId":"3NPI0JQDAPRFIHIMD27IO4SNS1DTP0","hitId":"341H3G5YF006USP7B7C868W97H9Z08","url":"https://gershmanlab.com/experiments/alicia/teaching/experiment/?hitId=341H3G5YF006USP7B7C868W97H9Z08&workerId=A2615YW1YERQBO&assignmentId=3NPI0JQDAPRFIHIMD27IO4SNS1DTP0&a=D0PN8&tp_a=D0PN8&b=3NPI0JQDAPRFIHIMD27IO4SNS1DTP0&tp_b=3NPI0JQDAPRFIHIMD27IO4SNS1DTP0&c=365198&tp_c=365198"},{"rt":null,"stimulus":"<div style=\"font-size:60px;\">Next student</div>","response":null,"trial_type":"html-keyboard-response","trial_index":30,"time_elapsed":935706,"internal_node_id":"0.0-29.0-0.0","params":{"nStudents":24,"maxFlips":30,"completionMinutes":45,"basePay":8,"maxBonus":9,"perTrialBonus":0.5,"perTrialBonusThreshold":0.1,"exampleCost":0.01},"classroomParams":{"A":{"a":1,"b":4},"B":{"a":4,"b":1},"C":{"a":2,"b":8},"D":{"a":8,"b":2}},"conditions":["nonSeqFull","nonSeqPartial","seqNoFeedback","seqFeedback"],"classroomPairings":[["A","B"],["C","D"]],"coinWeights":[0.2,0.5,0.8],"subjectId":"A2615YW1YERQBO","assignmentId":"3NPI0JQDAPRFIHIMD27IO4SNS1DTP0","hitId":"341H3G5YF006USP7B7C868W97H9Z08","url":"https://gershmanlab.com/experiments/alicia/teaching/experiment/?hitId=341H3G5YF006USP7B7C868W97H9Z08&workerId=A2615YW1YERQBO&assignmentId=3NPI0JQDAPRFIHIMD27IO4SNS1DTP0&a=D0PN8&tp_a=D0PN8&b=3NPI0JQDAPRFIHIMD27IO4SNS1DTP0&tp_b=3NPI0JQDAPRFIHIMD27IO4SNS1DTP0&c=365198&tp_c=365198"},{"rt":3158,"stimulus":"\n            <h4 style=\"color:Orange;\">Student 4</h4>\n            <h2>The weight of your coin is <b style=\"color:Tomato;\">0.8</b>.</h2>\n            <p>In this block, you will be giving <b>two</b> sets of examples to Student 4.</p>\n                <p>You will receive feedback at the end of the block.</p>\n            ","response":0,"trial_type":"html-button-response","trial_index":31,"time_elapsed":938866,"internal_node_id":"0.0-30.0","params":{"nStudents":24,"maxFlips":30,"completionMinutes":45,"basePay":8,"maxBonus":9,"perTrialBonus":0.5,"perTrialBonusThreshold":0.1,"exampleCost":0.01},"classroomParams":{"A":{"a":1,"b":4},"B":{"a":4,"b":1},"C":{"a":2,"b":8},"D":{"a":8,"b":2}},"conditions":["nonSeqFull","nonSeqPartial","seqNoFeedback","seqFeedback"],"classroomPairings":[["A","B"],["C","D"]],"coinWeights":[0.2,0.5,0.8],"subjectId":"A2615YW1YERQBO","assignmentId":"3NPI0JQDAPRFIHIMD27IO4SNS1DTP0","hitId":"341H3G5YF006USP7B7C868W97H9Z08","url":"https://gershmanlab.com/experiments/alicia/teaching/experiment/?hitId=341H3G5YF006USP7B7C868W97H9Z08&workerId=A2615YW1YERQBO&assignmentId=3NPI0JQDAPRFIHIMD27IO4SNS1DTP0&a=D0PN8&tp_a=D0PN8&b=3NPI0JQDAPRFIHIMD27IO4SNS1DTP0&tp_b=3NPI0JQDAPRFIHIMD27IO4SNS1DTP0&c=365198&tp_c=365198"},{"rt":55671,"response":{"heads":"20","tails":"4"},"type":"response","condition":"seqNoFeedback","trueTheta":0.8,"classrooms":["A","B"],"studentTrueClassroom":"A","exampleSet":"first","trial_type":"survey-html-form","trial_index":32,"time_elapsed":994538,"internal_node_id":"0.0-31.0-0.0","params":{"nStudents":24,"maxFlips":30,"completionMinutes":45,"basePay":8,"maxBonus":9,"perTrialBonus":0.5,"perTrialBonusThreshold":0.1,"exampleCost":0.01},"classroomParams":{"A":{"a":1,"b":4},"B":{"a":4,"b":1},"C":{"a":2,"b":8},"D":{"a":8,"b":2}},"conditions":["nonSeqFull","nonSeqPartial","seqNoFeedback","seqFeedback"],"classroomPairings":[["A","B"],["C","D"]],"coinWeights":[0.2,0.5,0.8],"subjectId":"A2615YW1YERQBO","assignmentId":"3NPI0JQDAPRFIHIMD27IO4SNS1DTP0","hitId":"341H3G5YF006USP7B7C868W97H9Z08","url":"https://gershmanlab.com/experiments/alicia/teaching/experiment/?hitId=341H3G5YF006USP7B7C868W97H9Z08&workerId=A2615YW1YERQBO&assignmentId=3NPI0JQDAPRFIHIMD27IO4SNS1DTP0&a=D0PN8&tp_a=D0PN8&b=3NPI0JQDAPRFIHIMD27IO4SNS1DTP0&tp_b=3NPI0JQDAPRFIHIMD27IO4SNS1DTP0&c=365198&tp_c=365198","heads":20,"tails":4,"studentIndex":3,"studentTrueHypers":{"a":1,"b":4},"studentGuess":0.7241379310344828,"delta":0.07586206896551728,"totalExamples":24,"bonusSoFar":0.36},{"rt":null,"stimulus":"Sending examples to student... ","response":null,"trial_type":"html-keyboard-response","trial_index":33,"time_elapsed":996297,"internal_node_id":"0.0-32.0","params":{"nStudents":24,"maxFlips":30,"completionMinutes":45,"basePay":8,"maxBonus":9,"perTrialBonus":0.5,"perTrialBonusThreshold":0.1,"exampleCost":0.01},"classroomParams":{"A":{"a":1,"b":4},"B":{"a":4,"b":1},"C":{"a":2,"b":8},"D":{"a":8,"b":2}},"conditions":["nonSeqFull","nonSeqPartial","seqNoFeedback","seqFeedback"],"classroomPairings":[["A","B"],["C","D"]],"coinWeights":[0.2,0.5,0.8],"subjectId":"A2615YW1YERQBO","assignmentId":"3NPI0JQDAPRFIHIMD27IO4SNS1DTP0","hitId":"341H3G5YF006USP7B7C868W97H9Z08","url":"https://gershmanlab.com/experiments/alicia/teaching/experiment/?hitId=341H3G5YF006USP7B7C868W97H9Z08&workerId=A2615YW1YERQBO&assignmentId=3NPI0JQDAPRFIHIMD27IO4SNS1DTP0&a=D0PN8&tp_a=D0PN8&b=3NPI0JQDAPRFIHIMD27IO4SNS1DTP0&tp_b=3NPI0JQDAPRFIHIMD27IO4SNS1DTP0&c=365198&tp_c=365198"},{"rt":null,"stimulus":"Examples sent to student! Waiting for student...","response":null,"trial_type":"html-keyboard-response","trial_index":34,"time_elapsed":1002311,"internal_node_id":"0.0-33.0","params":{"nStudents":24,"maxFlips":30,"completionMinutes":45,"basePay":8,"maxBonus":9,"perTrialBonus":0.5,"perTrialBonusThreshold":0.1,"exampleCost":0.01},"classroomParams":{"A":{"a":1,"b":4},"B":{"a":4,"b":1},"C":{"a":2,"b":8},"D":{"a":8,"b":2}},"conditions":["nonSeqFull","nonSeqPartial","seqNoFeedback","seqFeedback"],"classroomPairings":[["A","B"],["C","D"]],"coinWeights":[0.2,0.5,0.8],"subjectId":"A2615YW1YERQBO","assignmentId":"3NPI0JQDAPRFIHIMD27IO4SNS1DTP0","hitId":"341H3G5YF006USP7B7C868W97H9Z08","url":"https://gershmanlab.com/experiments/alicia/teaching/experiment/?hitId=341H3G5YF006USP7B7C868W97H9Z08&workerId=A2615YW1YERQBO&assignmentId=3NPI0JQDAPRFIHIMD27IO4SNS1DTP0&a=D0PN8&tp_a=D0PN8&b=3NPI0JQDAPRFIHIMD27IO4SNS1DTP0&tp_b=3NPI0JQDAPRFIHIMD27IO4SNS1DTP0&c=365198&tp_c=365198"},{"rt":18048,"response":{"heads":"6","tails":"1"},"type":"response","condition":"seqNoFeedback","trueTheta":0.8,"classrooms":["A","B"],"studentTrueClassroom":"A","exampleSet":"second","trial_type":"survey-html-form","trial_index":35,"time_elapsed":1020362,"internal_node_id":"0.0-34.0-0.0","params":{"nStudents":24,"maxFlips":30,"completionMinutes":45,"basePay":8,"maxBonus":9,"perTrialBonus":0.5,"perTrialBonusThreshold":0.1,"exampleCost":0.01},"classroomParams":{"A":{"a":1,"b":4},"B":{"a":4,"b":1},"C":{"a":2,"b":8},"D":{"a":8,"b":2}},"conditions":["nonSeqFull","nonSeqPartial","seqNoFeedback","seqFeedback"],"classroomPairings":[["A","B"],["C","D"]],"coinWeights":[0.2,0.5,0.8],"subjectId":"A2615YW1YERQBO","assignmentId":"3NPI0JQDAPRFIHIMD27IO4SNS1DTP0","hitId":"341H3G5YF006USP7B7C868W97H9Z08","url":"https://gershmanlab.com/experiments/alicia/teaching/experiment/?hitId=341H3G5YF006USP7B7C868W97H9Z08&workerId=A2615YW1YERQBO&assignmentId=3NPI0JQDAPRFIHIMD27IO4SNS1DTP0&a=D0PN8&tp_a=D0PN8&b=3NPI0JQDAPRFIHIMD27IO4SNS1DTP0&tp_b=3NPI0JQDAPRFIHIMD27IO4SNS1DTP0&c=365198&tp_c=365198","firstResponseHeads":20,"firstResponseTails":4,"secondResponseHeads":6,"secondResponseTails":1,"studentIndex":3,"studentTrueHypers":{"a":1,"b":4},"studentGuess":0.75,"delta":0.050000000000000044,"bonus":0.19,"bonusSoFar":0.55,"totalExamples":31},{"rt":null,"stimulus":"Sending examples to student... ","response":null,"trial_type":"html-keyboard-response","trial_index":36,"time_elapsed":1022123,"internal_node_id":"0.0-35.0","params":{"nStudents":24,"maxFlips":30,"completionMinutes":45,"basePay":8,"maxBonus":9,"perTrialBonus":0.5,"perTrialBonusThreshold":0.1,"exampleCost":0.01},"classroomParams":{"A":{"a":1,"b":4},"B":{"a":4,"b":1},"C":{"a":2,"b":8},"D":{"a":8,"b":2}},"conditions":["nonSeqFull","nonSeqPartial","seqNoFeedback","seqFeedback"],"classroomPairings":[["A","B"],["C","D"]],"coinWeights":[0.2,0.5,0.8],"subjectId":"A2615YW1YERQBO","assignmentId":"3NPI0JQDAPRFIHIMD27IO4SNS1DTP0","hitId":"341H3G5YF006USP7B7C868W97H9Z08","url":"https://gershmanlab.com/experiments/alicia/teaching/experiment/?hitId=341H3G5YF006USP7B7C868W97H9Z08&workerId=A2615YW1YERQBO&assignmentId=3NPI0JQDAPRFIHIMD27IO4SNS1DTP0&a=D0PN8&tp_a=D0PN8&b=3NPI0JQDAPRFIHIMD27IO4SNS1DTP0&tp_b=3NPI0JQDAPRFIHIMD27IO4SNS1DTP0&c=365198&tp_c=365198"},{"rt":null,"stimulus":"Examples sent to student! Waiting for student...","response":null,"trial_type":"html-keyboard-response","trial_index":37,"time_elapsed":1028138,"internal_node_id":"0.0-36.0","params":{"nStudents":24,"maxFlips":30,"completionMinutes":45,"basePay":8,"maxBonus":9,"perTrialBonus":0.5,"perTrialBonusThreshold":0.1,"exampleCost":0.01},"classroomParams":{"A":{"a":1,"b":4},"B":{"a":4,"b":1},"C":{"a":2,"b":8},"D":{"a":8,"b":2}},"conditions":["nonSeqFull","nonSeqPartial","seqNoFeedback","seqFeedback"],"classroomPairings":[["A","B"],["C","D"]],"coinWeights":[0.2,0.5,0.8],"subjectId":"A2615YW1YERQBO","assignmentId":"3NPI0JQDAPRFIHIMD27IO4SNS1DTP0","hitId":"341H3G5YF006USP7B7C868W97H9Z08","url":"https://gershmanlab.com/experiments/alicia/teaching/experiment/?hitId=341H3G5YF006USP7B7C868W97H9Z08&workerId=A2615YW1YERQBO&assignmentId=3NPI0JQDAPRFIHIMD27IO4SNS1DTP0&a=D0PN8&tp_a=D0PN8&b=3NPI0JQDAPRFIHIMD27IO4SNS1DTP0&tp_b=3NPI0JQDAPRFIHIMD27IO4SNS1DTP0&c=365198&tp_c=365198"},{"rt":6085,"stimulus":"\n                <p>Student 4's first guess for coin weight: <b style=\"color:Tomato\";>0.72</b></p>\n                <p>Student 4's second guess for coin weight: <b style=\"color:Tomato\";>0.75</b></p>\n                <p>You received a bonus of <b>$0.19</b> based on the student's second guess.</p>\n                <p>Total bonus so far: <b>$0.55</b></p>\n                <p>Press any key to continue.</p>\n                ","response":" ","trial_type":"html-keyboard-response","trial_index":38,"time_elapsed":1034234,"internal_node_id":"0.0-37.0","params":{"nStudents":24,"maxFlips":30,"completionMinutes":45,"basePay":8,"maxBonus":9,"perTrialBonus":0.5,"perTrialBonusThreshold":0.1,"exampleCost":0.01},"classroomParams":{"A":{"a":1,"b":4},"B":{"a":4,"b":1},"C":{"a":2,"b":8},"D":{"a":8,"b":2}},"conditions":["nonSeqFull","nonSeqPartial","seqNoFeedback","seqFeedback"],"classroomPairings":[["A","B"],["C","D"]],"coinWeights":[0.2,0.5,0.8],"subjectId":"A2615YW1YERQBO","assignmentId":"3NPI0JQDAPRFIHIMD27IO4SNS1DTP0","hitId":"341H3G5YF006USP7B7C868W97H9Z08","url":"https://gershmanlab.com/experiments/alicia/teaching/experiment/?hitId=341H3G5YF006USP7B7C868W97H9Z08&workerId=A2615YW1YERQBO&assignmentId=3NPI0JQDAPRFIHIMD27IO4SNS1DTP0&a=D0PN8&tp_a=D0PN8&b=3NPI0JQDAPRFIHIMD27IO4SNS1DTP0&tp_b=3NPI0JQDAPRFIHIMD27IO4SNS1DTP0&c=365198&tp_c=365198"},{"rt":null,"stimulus":"<div style=\"font-size:60px;\">Next student</div>","response":null,"trial_type":"html-keyboard-response","trial_index":39,"time_elapsed":1036748,"internal_node_id":"0.0-38.0-0.0","params":{"nStudents":24,"maxFlips":30,"completionMinutes":45,"basePay":8,"maxBonus":9,"perTrialBonus":0.5,"perTrialBonusThreshold":0.1,"exampleCost":0.01},"classroomParams":{"A":{"a":1,"b":4},"B":{"a":4,"b":1},"C":{"a":2,"b":8},"D":{"a":8,"b":2}},"conditions":["nonSeqFull","nonSeqPartial","seqNoFeedback","seqFeedback"],"classroomPairings":[["A","B"],["C","D"]],"coinWeights":[0.2,0.5,0.8],"subjectId":"A2615YW1YERQBO","assignmentId":"3NPI0JQDAPRFIHIMD27IO4SNS1DTP0","hitId":"341H3G5YF006USP7B7C868W97H9Z08","url":"https://gershmanlab.com/experiments/alicia/teaching/experiment/?hitId=341H3G5YF006USP7B7C868W97H9Z08&workerId=A2615YW1YERQBO&assignmentId=3NPI0JQDAPRFIHIMD27IO4SNS1DTP0&a=D0PN8&tp_a=D0PN8&b=3NPI0JQDAPRFIHIMD27IO4SNS1DTP0&tp_b=3NPI0JQDAPRFIHIMD27IO4SNS1DTP0&c=365198&tp_c=365198"},{"rt":7011,"stimulus":"\n            <h4 style=\"color:Orange;\">Student 5</h4>\n            <h2>The weight of your coin is <b style=\"color:Tomato;\">0.5</b>.</h2>\n            <p>In this block, you will be giving <b>two</b> sets of examples to Student 5.</p>\n                <p>You will receive feedback at the end of the block.</p>\n            ","response":0,"trial_type":"html-button-response","trial_index":40,"time_elapsed":1043760,"internal_node_id":"0.0-39.0","params":{"nStudents":24,"maxFlips":30,"completionMinutes":45,"basePay":8,"maxBonus":9,"perTrialBonus":0.5,"perTrialBonusThreshold":0.1,"exampleCost":0.01},"classroomParams":{"A":{"a":1,"b":4},"B":{"a":4,"b":1},"C":{"a":2,"b":8},"D":{"a":8,"b":2}},"conditions":["nonSeqFull","nonSeqPartial","seqNoFeedback","seqFeedback"],"classroomPairings":[["A","B"],["C","D"]],"coinWeights":[0.2,0.5,0.8],"subjectId":"A2615YW1YERQBO","assignmentId":"3NPI0JQDAPRFIHIMD27IO4SNS1DTP0","hitId":"341H3G5YF006USP7B7C868W97H9Z08","url":"https://gershmanlab.com/experiments/alicia/teaching/experiment/?hitId=341H3G5YF006USP7B7C868W97H9Z08&workerId=A2615YW1YERQBO&assignmentId=3NPI0JQDAPRFIHIMD27IO4SNS1DTP0&a=D0PN8&tp_a=D0PN8&b=3NPI0JQDAPRFIHIMD27IO4SNS1DTP0&tp_b=3NPI0JQDAPRFIHIMD27IO4SNS1DTP0&c=365198&tp_c=365198"},{"rt":20935,"response":{"heads":"11","tails":"11"},"type":"response","condition":"seqNoFeedback","trueTheta":0.5,"classrooms":["A","B"],"studentTrueClassroom":"A","exampleSet":"first","trial_type":"survey-html-form","trial_index":41,"time_elapsed":1064697,"internal_node_id":"0.0-40.0-0.0","params":{"nStudents":24,"maxFlips":30,"completionMinutes":45,"basePay":8,"maxBonus":9,"perTrialBonus":0.5,"perTrialBonusThreshold":0.1,"exampleCost":0.01},"classroomParams":{"A":{"a":1,"b":4},"B":{"a":4,"b":1},"C":{"a":2,"b":8},"D":{"a":8,"b":2}},"conditions":["nonSeqFull","nonSeqPartial","seqNoFeedback","seqFeedback"],"classroomPairings":[["A","B"],["C","D"]],"coinWeights":[0.2,0.5,0.8],"subjectId":"A2615YW1YERQBO","assignmentId":"3NPI0JQDAPRFIHIMD27IO4SNS1DTP0","hitId":"341H3G5YF006USP7B7C868W97H9Z08","url":"https://gershmanlab.com/experiments/alicia/teaching/experiment/?hitId=341H3G5YF006USP7B7C868W97H9Z08&workerId=A2615YW1YERQBO&assignmentId=3NPI0JQDAPRFIHIMD27IO4SNS1DTP0&a=D0PN8&tp_a=D0PN8&b=3NPI0JQDAPRFIHIMD27IO4SNS1DTP0&tp_b=3NPI0JQDAPRFIHIMD27IO4SNS1DTP0&c=365198&tp_c=365198","heads":11,"tails":11,"studentIndex":4,"studentTrueHypers":{"a":1,"b":4},"studentGuess":0.4444444444444444,"delta":0.05555555555555558,"totalExamples":22,"bonusSoFar":0.55},{"rt":null,"stimulus":"Sending examples to student... ","response":null,"trial_type":"html-keyboard-response","trial_index":42,"time_elapsed":1066212,"internal_node_id":"0.0-41.0","params":{"nStudents":24,"maxFlips":30,"completionMinutes":45,"basePay":8,"maxBonus":9,"perTrialBonus":0.5,"perTrialBonusThreshold":0.1,"exampleCost":0.01},"classroomParams":{"A":{"a":1,"b":4},"B":{"a":4,"b":1},"C":{"a":2,"b":8},"D":{"a":8,"b":2}},"conditions":["nonSeqFull","nonSeqPartial","seqNoFeedback","seqFeedback"],"classroomPairings":[["A","B"],["C","D"]],"coinWeights":[0.2,0.5,0.8],"subjectId":"A2615YW1YERQBO","assignmentId":"3NPI0JQDAPRFIHIMD27IO4SNS1DTP0","hitId":"341H3G5YF006USP7B7C868W97H9Z08","url":"https://gershmanlab.com/experiments/alicia/teaching/experiment/?hitId=341H3G5YF006USP7B7C868W97H9Z08&workerId=A2615YW1YERQBO&assignmentId=3NPI0JQDAPRFIHIMD27IO4SNS1DTP0&a=D0PN8&tp_a=D0PN8&b=3NPI0JQDAPRFIHIMD27IO4SNS1DTP0&tp_b=3NPI0JQDAPRFIHIMD27IO4SNS1DTP0&c=365198&tp_c=365198"},{"rt":null,"stimulus":"Examples sent to student! Waiting for student...","response":null,"trial_type":"html-keyboard-response","trial_index":43,"time_elapsed":1070714,"internal_node_id":"0.0-42.0","params":{"nStudents":24,"maxFlips":30,"completionMinutes":45,"basePay":8,"maxBonus":9,"perTrialBonus":0.5,"perTrialBonusThreshold":0.1,"exampleCost":0.01},"classroomParams":{"A":{"a":1,"b":4},"B":{"a":4,"b":1},"C":{"a":2,"b":8},"D":{"a":8,"b":2}},"conditions":["nonSeqFull","nonSeqPartial","seqNoFeedback","seqFeedback"],"classroomPairings":[["A","B"],["C","D"]],"coinWeights":[0.2,0.5,0.8],"subjectId":"A2615YW1YERQBO","assignmentId":"3NPI0JQDAPRFIHIMD27IO4SNS1DTP0","hitId":"341H3G5YF006USP7B7C868W97H9Z08","url":"https://gershmanlab.com/experiments/alicia/teaching/experiment/?hitId=341H3G5YF006USP7B7C868W97H9Z08&workerId=A2615YW1YERQBO&assignmentId=3NPI0JQDAPRFIHIMD27IO4SNS1DTP0&a=D0PN8&tp_a=D0PN8&b=3NPI0JQDAPRFIHIMD27IO4SNS1DTP0&tp_b=3NPI0JQDAPRFIHIMD27IO4SNS1DTP0&c=365198&tp_c=365198"},{"rt":5820,"response":{"heads":"2","tails":"2"},"type":"response","condition":"seqNoFeedback","trueTheta":0.5,"classrooms":["A","B"],"studentTrueClassroom":"A","exampleSet":"second","trial_type":"survey-html-form","trial_index":44,"time_elapsed":1076536,"internal_node_id":"0.0-43.0-0.0","params":{"nStudents":24,"maxFlips":30,"completionMinutes":45,"basePay":8,"maxBonus":9,"perTrialBonus":0.5,"perTrialBonusThreshold":0.1,"exampleCost":0.01},"classroomParams":{"A":{"a":1,"b":4},"B":{"a":4,"b":1},"C":{"a":2,"b":8},"D":{"a":8,"b":2}},"conditions":["nonSeqFull","nonSeqPartial","seqNoFeedback","seqFeedback"],"classroomPairings":[["A","B"],["C","D"]],"coinWeights":[0.2,0.5,0.8],"subjectId":"A2615YW1YERQBO","assignmentId":"3NPI0JQDAPRFIHIMD27IO4SNS1DTP0","hitId":"341H3G5YF006USP7B7C868W97H9Z08","url":"https://gershmanlab.com/experiments/alicia/teaching/experiment/?hitId=341H3G5YF006USP7B7C868W97H9Z08&workerId=A2615YW1YERQBO&assignmentId=3NPI0JQDAPRFIHIMD27IO4SNS1DTP0&a=D0PN8&tp_a=D0PN8&b=3NPI0JQDAPRFIHIMD27IO4SNS1DTP0&tp_b=3NPI0JQDAPRFIHIMD27IO4SNS1DTP0&c=365198&tp_c=365198","firstResponseHeads":11,"firstResponseTails":11,"secondResponseHeads":2,"secondResponseTails":2,"studentIndex":4,"studentTrueHypers":{"a":1,"b":4},"studentGuess":0.45161290322580644,"delta":0.04838709677419356,"bonus":0.24,"bonusSoFar":0.79,"totalExamples":26},{"rt":null,"stimulus":"Sending examples to student... ","response":null,"trial_type":"html-keyboard-response","trial_index":45,"time_elapsed":1078291,"internal_node_id":"0.0-44.0","params":{"nStudents":24,"maxFlips":30,"completionMinutes":45,"basePay":8,"maxBonus":9,"perTrialBonus":0.5,"perTrialBonusThreshold":0.1,"exampleCost":0.01},"classroomParams":{"A":{"a":1,"b":4},"B":{"a":4,"b":1},"C":{"a":2,"b":8},"D":{"a":8,"b":2}},"conditions":["nonSeqFull","nonSeqPartial","seqNoFeedback","seqFeedback"],"classroomPairings":[["A","B"],["C","D"]],"coinWeights":[0.2,0.5,0.8],"subjectId":"A2615YW1YERQBO","assignmentId":"3NPI0JQDAPRFIHIMD27IO4SNS1DTP0","hitId":"341H3G5YF006USP7B7C868W97H9Z08","url":"https://gershmanlab.com/experiments/alicia/teaching/experiment/?hitId=341H3G5YF006USP7B7C868W97H9Z08&workerId=A2615YW1YERQBO&assignmentId=3NPI0JQDAPRFIHIMD27IO4SNS1DTP0&a=D0PN8&tp_a=D0PN8&b=3NPI0JQDAPRFIHIMD27IO4SNS1DTP0&tp_b=3NPI0JQDAPRFIHIMD27IO4SNS1DTP0&c=365198&tp_c=365198"},{"rt":null,"stimulus":"Examples sent to student! Waiting for student...","response":null,"trial_type":"html-keyboard-response","trial_index":46,"time_elapsed":1083808,"internal_node_id":"0.0-45.0","params":{"nStudents":24,"maxFlips":30,"completionMinutes":45,"basePay":8,"maxBonus":9,"perTrialBonus":0.5,"perTrialBonusThreshold":0.1,"exampleCost":0.01},"classroomParams":{"A":{"a":1,"b":4},"B":{"a":4,"b":1},"C":{"a":2,"b":8},"D":{"a":8,"b":2}},"conditions":["nonSeqFull","nonSeqPartial","seqNoFeedback","seqFeedback"],"classroomPairings":[["A","B"],["C","D"]],"coinWeights":[0.2,0.5,0.8],"subjectId":"A2615YW1YERQBO","assignmentId":"3NPI0JQDAPRFIHIMD27IO4SNS1DTP0","hitId":"341H3G5YF006USP7B7C868W97H9Z08","url":"https://gershmanlab.com/experiments/alicia/teaching/experiment/?hitId=341H3G5YF006USP7B7C868W97H9Z08&workerId=A2615YW1YERQBO&assignmentId=3NPI0JQDAPRFIHIMD27IO4SNS1DTP0&a=D0PN8&tp_a=D0PN8&b=3NPI0JQDAPRFIHIMD27IO4SNS1DTP0&tp_b=3NPI0JQDAPRFIHIMD27IO4SNS1DTP0&c=365198&tp_c=365198"},{"rt":3462,"stimulus":"\n                <p>Student 5's first guess for coin weight: <b style=\"color:Tomato\";>0.44</b></p>\n                <p>Student 5's second guess for coin weight: <b style=\"color:Tomato\";>0.45</b></p>\n                <p>You received a bonus of <b>$0.24</b> based on the student's second guess.</p>\n                <p>Total bonus so far: <b>$0.79</b></p>\n                <p>Press any key to continue.</p>\n                ","response":" ","trial_type":"html-keyboard-response","trial_index":47,"time_elapsed":1087271,"internal_node_id":"0.0-46.0","params":{"nStudents":24,"maxFlips":30,"completionMinutes":45,"basePay":8,"maxBonus":9,"perTrialBonus":0.5,"perTrialBonusThreshold":0.1,"exampleCost":0.01},"classroomParams":{"A":{"a":1,"b":4},"B":{"a":4,"b":1},"C":{"a":2,"b":8},"D":{"a":8,"b":2}},"conditions":["nonSeqFull","nonSeqPartial","seqNoFeedback","seqFeedback"],"classroomPairings":[["A","B"],["C","D"]],"coinWeights":[0.2,0.5,0.8],"subjectId":"A2615YW1YERQBO","assignmentId":"3NPI0JQDAPRFIHIMD27IO4SNS1DTP0","hitId":"341H3G5YF006USP7B7C868W97H9Z08","url":"https://gershmanlab.com/experiments/alicia/teaching/experiment/?hitId=341H3G5YF006USP7B7C868W97H9Z08&workerId=A2615YW1YERQBO&assignmentId=3NPI0JQDAPRFIHIMD27IO4SNS1DTP0&a=D0PN8&tp_a=D0PN8&b=3NPI0JQDAPRFIHIMD27IO4SNS1DTP0&tp_b=3NPI0JQDAPRFIHIMD27IO4SNS1DTP0&c=365198&tp_c=365198"},{"rt":null,"stimulus":"<div style=\"font-size:60px;\">Next student</div>","response":null,"trial_type":"html-keyboard-response","trial_index":48,"time_elapsed":1090273,"internal_node_id":"0.0-47.0-0.0","params":{"nStudents":24,"maxFlips":30,"completionMinutes":45,"basePay":8,"maxBonus":9,"perTrialBonus":0.5,"perTrialBonusThreshold":0.1,"exampleCost":0.01},"classroomParams":{"A":{"a":1,"b":4},"B":{"a":4,"b":1},"C":{"a":2,"b":8},"D":{"a":8,"b":2}},"conditions":["nonSeqFull","nonSeqPartial","seqNoFeedback","seqFeedback"],"classroomPairings":[["A","B"],["C","D"]],"coinWeights":[0.2,0.5,0.8],"subjectId":"A2615YW1YERQBO","assignmentId":"3NPI0JQDAPRFIHIMD27IO4SNS1DTP0","hitId":"341H3G5YF006USP7B7C868W97H9Z08","url":"https://gershmanlab.com/experiments/alicia/teaching/experiment/?hitId=341H3G5YF006USP7B7C868W97H9Z08&workerId=A2615YW1YERQBO&assignmentId=3NPI0JQDAPRFIHIMD27IO4SNS1DTP0&a=D0PN8&tp_a=D0PN8&b=3NPI0JQDAPRFIHIMD27IO4SNS1DTP0&tp_b=3NPI0JQDAPRFIHIMD27IO4SNS1DTP0&c=365198&tp_c=365198"},{"rt":7357,"stimulus":"\n            <h4 style=\"color:Orange;\">Student 6</h4>\n            <h2>The weight of your coin is <b style=\"color:Tomato;\">0.8</b>.</h2>\n            <p>In this block, you will be giving <b>two</b> sets of examples to Student 6.</p>\n                <p>You will see the student's guess after the first set of examples. You will also receive feedback at the end of the block.</p>\n            ","response":0,"trial_type":"html-button-response","trial_index":49,"time_elapsed":1097632,"internal_node_id":"0.0-48.0","params":{"nStudents":24,"maxFlips":30,"completionMinutes":45,"basePay":8,"maxBonus":9,"perTrialBonus":0.5,"perTrialBonusThreshold":0.1,"exampleCost":0.01},"classroomParams":{"A":{"a":1,"b":4},"B":{"a":4,"b":1},"C":{"a":2,"b":8},"D":{"a":8,"b":2}},"conditions":["nonSeqFull","nonSeqPartial","seqNoFeedback","seqFeedback"],"classroomPairings":[["A","B"],["C","D"]],"coinWeights":[0.2,0.5,0.8],"subjectId":"A2615YW1YERQBO","assignmentId":"3NPI0JQDAPRFIHIMD27IO4SNS1DTP0","hitId":"341H3G5YF006USP7B7C868W97H9Z08","url":"https://gershmanlab.com/experiments/alicia/teaching/experiment/?hitId=341H3G5YF006USP7B7C868W97H9Z08&workerId=A2615YW1YERQBO&assignmentId=3NPI0JQDAPRFIHIMD27IO4SNS1DTP0&a=D0PN8&tp_a=D0PN8&b=3NPI0JQDAPRFIHIMD27IO4SNS1DTP0&tp_b=3NPI0JQDAPRFIHIMD27IO4SNS1DTP0&c=365198&tp_c=365198"},{"rt":19079,"response":{"heads":"12","tails":"3"},"type":"response","condition":"seqFeedback","trueTheta":0.8,"classrooms":["A","B"],"studentTrueClassroom":"A","exampleSet":"first","trial_type":"survey-html-form","trial_index":50,"time_elapsed":1116712,"internal_node_id":"0.0-49.0-0.0","params":{"nStudents":24,"maxFlips":30,"completionMinutes":45,"basePay":8,"maxBonus":9,"perTrialBonus":0.5,"perTrialBonusThreshold":0.1,"exampleCost":0.01},"classroomParams":{"A":{"a":1,"b":4},"B":{"a":4,"b":1},"C":{"a":2,"b":8},"D":{"a":8,"b":2}},"conditions":["nonSeqFull","nonSeqPartial","seqNoFeedback","seqFeedback"],"classroomPairings":[["A","B"],["C","D"]],"coinWeights":[0.2,0.5,0.8],"subjectId":"A2615YW1YERQBO","assignmentId":"3NPI0JQDAPRFIHIMD27IO4SNS1DTP0","hitId":"341H3G5YF006USP7B7C868W97H9Z08","url":"https://gershmanlab.com/experiments/alicia/teaching/experiment/?hitId=341H3G5YF006USP7B7C868W97H9Z08&workerId=A2615YW1YERQBO&assignmentId=3NPI0JQDAPRFIHIMD27IO4SNS1DTP0&a=D0PN8&tp_a=D0PN8&b=3NPI0JQDAPRFIHIMD27IO4SNS1DTP0&tp_b=3NPI0JQDAPRFIHIMD27IO4SNS1DTP0&c=365198&tp_c=365198","heads":12,"tails":3,"studentIndex":5,"studentTrueHypers":{"a":1,"b":4},"studentGuess":0.65,"delta":0.15000000000000002,"totalExamples":15,"bonusSoFar":0.79},{"rt":null,"stimulus":"Sending examples to student... ","response":null,"trial_type":"html-keyboard-response","trial_index":51,"time_elapsed":1118725,"internal_node_id":"0.0-50.0","params":{"nStudents":24,"maxFlips":30,"completionMinutes":45,"basePay":8,"maxBonus":9,"perTrialBonus":0.5,"perTrialBonusThreshold":0.1,"exampleCost":0.01},"classroomParams":{"A":{"a":1,"b":4},"B":{"a":4,"b":1},"C":{"a":2,"b":8},"D":{"a":8,"b":2}},"conditions":["nonSeqFull","nonSeqPartial","seqNoFeedback","seqFeedback"],"classroomPairings":[["A","B"],["C","D"]],"coinWeights":[0.2,0.5,0.8],"subjectId":"A2615YW1YERQBO","assignmentId":"3NPI0JQDAPRFIHIMD27IO4SNS1DTP0","hitId":"341H3G5YF006USP7B7C868W97H9Z08","url":"https://gershmanlab.com/experiments/alicia/teaching/experiment/?hitId=341H3G5YF006USP7B7C868W97H9Z08&workerId=A2615YW1YERQBO&assignmentId=3NPI0JQDAPRFIHIMD27IO4SNS1DTP0&a=D0PN8&tp_a=D0PN8&b=3NPI0JQDAPRFIHIMD27IO4SNS1DTP0&tp_b=3NPI0JQDAPRFIHIMD27IO4SNS1DTP0&c=365198&tp_c=365198"},{"rt":null,"stimulus":"Examples sent to student! Waiting for student...","response":null,"trial_type":"html-keyboard-response","trial_index":52,"time_elapsed":1124730,"internal_node_id":"0.0-51.0","params":{"nStudents":24,"maxFlips":30,"completionMinutes":45,"basePay":8,"maxBonus":9,"perTrialBonus":0.5,"perTrialBonusThreshold":0.1,"exampleCost":0.01},"classroomParams":{"A":{"a":1,"b":4},"B":{"a":4,"b":1},"C":{"a":2,"b":8},"D":{"a":8,"b":2}},"conditions":["nonSeqFull","nonSeqPartial","seqNoFeedback","seqFeedback"],"classroomPairings":[["A","B"],["C","D"]],"coinWeights":[0.2,0.5,0.8],"subjectId":"A2615YW1YERQBO","assignmentId":"3NPI0JQDAPRFIHIMD27IO4SNS1DTP0","hitId":"341H3G5YF006USP7B7C868W97H9Z08","url":"https://gershmanlab.com/experiments/alicia/teaching/experiment/?hitId=341H3G5YF006USP7B7C868W97H9Z08&workerId=A2615YW1YERQBO&assignmentId=3NPI0JQDAPRFIHIMD27IO4SNS1DTP0&a=D0PN8&tp_a=D0PN8&b=3NPI0JQDAPRFIHIMD27IO4SNS1DTP0&tp_b=3NPI0JQDAPRFIHIMD27IO4SNS1DTP0&c=365198&tp_c=365198"},{"rt":4619,"stimulus":"\n                <p>Student's guess for coin weight: <b style=\"color:Tomato;\">0.65</b></p>\n                <p></b></p>\n                <p>You will now send another set of examples to your student. Press any key to continue.</p>\n                ","response":" ","trial_type":"html-keyboard-response","trial_index":53,"time_elapsed":1129350,"internal_node_id":"0.0-52.0","params":{"nStudents":24,"maxFlips":30,"completionMinutes":45,"basePay":8,"maxBonus":9,"perTrialBonus":0.5,"perTrialBonusThreshold":0.1,"exampleCost":0.01},"classroomParams":{"A":{"a":1,"b":4},"B":{"a":4,"b":1},"C":{"a":2,"b":8},"D":{"a":8,"b":2}},"conditions":["nonSeqFull","nonSeqPartial","seqNoFeedback","seqFeedback"],"classroomPairings":[["A","B"],["C","D"]],"coinWeights":[0.2,0.5,0.8],"subjectId":"A2615YW1YERQBO","assignmentId":"3NPI0JQDAPRFIHIMD27IO4SNS1DTP0","hitId":"341H3G5YF006USP7B7C868W97H9Z08","url":"https://gershmanlab.com/experiments/alicia/teaching/experiment/?hitId=341H3G5YF006USP7B7C868W97H9Z08&workerId=A2615YW1YERQBO&assignmentId=3NPI0JQDAPRFIHIMD27IO4SNS1DTP0&a=D0PN8&tp_a=D0PN8&b=3NPI0JQDAPRFIHIMD27IO4SNS1DTP0&tp_b=3NPI0JQDAPRFIHIMD27IO4SNS1DTP0&c=365198&tp_c=365198"},{"rt":41448,"response":{"heads":"10","tails":"1"},"type":"response","condition":"seqFeedback","trueTheta":0.8,"classrooms":["A","B"],"studentTrueClassroom":"A","exampleSet":"second","trial_type":"survey-html-form","trial_index":54,"time_elapsed":1170799,"internal_node_id":"0.0-53.0-0.0","params":{"nStudents":24,"maxFlips":30,"completionMinutes":45,"basePay":8,"maxBonus":9,"perTrialBonus":0.5,"perTrialBonusThreshold":0.1,"exampleCost":0.01},"classroomParams":{"A":{"a":1,"b":4},"B":{"a":4,"b":1},"C":{"a":2,"b":8},"D":{"a":8,"b":2}},"conditions":["nonSeqFull","nonSeqPartial","seqNoFeedback","seqFeedback"],"classroomPairings":[["A","B"],["C","D"]],"coinWeights":[0.2,0.5,0.8],"subjectId":"A2615YW1YERQBO","assignmentId":"3NPI0JQDAPRFIHIMD27IO4SNS1DTP0","hitId":"341H3G5YF006USP7B7C868W97H9Z08","url":"https://gershmanlab.com/experiments/alicia/teaching/experiment/?hitId=341H3G5YF006USP7B7C868W97H9Z08&workerId=A2615YW1YERQBO&assignmentId=3NPI0JQDAPRFIHIMD27IO4SNS1DTP0&a=D0PN8&tp_a=D0PN8&b=3NPI0JQDAPRFIHIMD27IO4SNS1DTP0&tp_b=3NPI0JQDAPRFIHIMD27IO4SNS1DTP0&c=365198&tp_c=365198","firstResponseHeads":12,"firstResponseTails":3,"secondResponseHeads":10,"secondResponseTails":1,"studentIndex":5,"studentTrueHypers":{"a":1,"b":4},"studentGuess":0.7419354838709677,"delta":0.058064516129032295,"bonus":0.24,"bonusSoFar":1.03,"totalExamples":26},{"rt":null,"stimulus":"Sending examples to student... ","response":null,"trial_type":"html-keyboard-response","trial_index":55,"time_elapsed":1172814,"internal_node_id":"0.0-54.0","params":{"nStudents":24,"maxFlips":30,"completionMinutes":45,"basePay":8,"maxBonus":9,"perTrialBonus":0.5,"perTrialBonusThreshold":0.1,"exampleCost":0.01},"classroomParams":{"A":{"a":1,"b":4},"B":{"a":4,"b":1},"C":{"a":2,"b":8},"D":{"a":8,"b":2}},"conditions":["nonSeqFull","nonSeqPartial","seqNoFeedback","seqFeedback"],"classroomPairings":[["A","B"],["C","D"]],"coinWeights":[0.2,0.5,0.8],"subjectId":"A2615YW1YERQBO","assignmentId":"3NPI0JQDAPRFIHIMD27IO4SNS1DTP0","hitId":"341H3G5YF006USP7B7C868W97H9Z08","url":"https://gershmanlab.com/experiments/alicia/teaching/experiment/?hitId=341H3G5YF006USP7B7C868W97H9Z08&workerId=A2615YW1YERQBO&assignmentId=3NPI0JQDAPRFIHIMD27IO4SNS1DTP0&a=D0PN8&tp_a=D0PN8&b=3NPI0JQDAPRFIHIMD27IO4SNS1DTP0&tp_b=3NPI0JQDAPRFIHIMD27IO4SNS1DTP0&c=365198&tp_c=365198"},{"rt":null,"stimulus":"Examples sent to student! Waiting for student...","response":null,"trial_type":"html-keyboard-response","trial_index":56,"time_elapsed":1176830,"internal_node_id":"0.0-55.0","params":{"nStudents":24,"maxFlips":30,"completionMinutes":45,"basePay":8,"maxBonus":9,"perTrialBonus":0.5,"perTrialBonusThreshold":0.1,"exampleCost":0.01},"classroomParams":{"A":{"a":1,"b":4},"B":{"a":4,"b":1},"C":{"a":2,"b":8},"D":{"a":8,"b":2}},"conditions":["nonSeqFull","nonSeqPartial","seqNoFeedback","seqFeedback"],"classroomPairings":[["A","B"],["C","D"]],"coinWeights":[0.2,0.5,0.8],"subjectId":"A2615YW1YERQBO","assignmentId":"3NPI0JQDAPRFIHIMD27IO4SNS1DTP0","hitId":"341H3G5YF006USP7B7C868W97H9Z08","url":"https://gershmanlab.com/experiments/alicia/teaching/experiment/?hitId=341H3G5YF006USP7B7C868W97H9Z08&workerId=A2615YW1YERQBO&assignmentId=3NPI0JQDAPRFIHIMD27IO4SNS1DTP0&a=D0PN8&tp_a=D0PN8&b=3NPI0JQDAPRFIHIMD27IO4SNS1DTP0&tp_b=3NPI0JQDAPRFIHIMD27IO4SNS1DTP0&c=365198&tp_c=365198"},{"rt":4375,"stimulus":"\n                <p>Student 6's first guess for coin weight: <b style=\"color:Tomato\";>0.65</b></p>\n                <p>Student 6's second guess for coin weight: <b style=\"color:Tomato\";>0.74</b></p>\n                <p>You received a bonus of <b>$0.24</b> based on the student's second guess.</p>\n                <p>Total bonus so far: <b>$1.03</b></p>\n                <p>Press any key to continue.</p>\n                ","response":" ","trial_type":"html-keyboard-response","trial_index":57,"time_elapsed":1181207,"internal_node_id":"0.0-56.0","params":{"nStudents":24,"maxFlips":30,"completionMinutes":45,"basePay":8,"maxBonus":9,"perTrialBonus":0.5,"perTrialBonusThreshold":0.1,"exampleCost":0.01},"classroomParams":{"A":{"a":1,"b":4},"B":{"a":4,"b":1},"C":{"a":2,"b":8},"D":{"a":8,"b":2}},"conditions":["nonSeqFull","nonSeqPartial","seqNoFeedback","seqFeedback"],"classroomPairings":[["A","B"],["C","D"]],"coinWeights":[0.2,0.5,0.8],"subjectId":"A2615YW1YERQBO","assignmentId":"3NPI0JQDAPRFIHIMD27IO4SNS1DTP0","hitId":"341H3G5YF006USP7B7C868W97H9Z08","url":"https://gershmanlab.com/experiments/alicia/teaching/experiment/?hitId=341H3G5YF006USP7B7C868W97H9Z08&workerId=A2615YW1YERQBO&assignmentId=3NPI0JQDAPRFIHIMD27IO4SNS1DTP0&a=D0PN8&tp_a=D0PN8&b=3NPI0JQDAPRFIHIMD27IO4SNS1DTP0&tp_b=3NPI0JQDAPRFIHIMD27IO4SNS1DTP0&c=365198&tp_c=365198"},{"rt":null,"stimulus":"<div style=\"font-size:60px;\">Next student</div>","response":null,"trial_type":"html-keyboard-response","trial_index":58,"time_elapsed":1183720,"internal_node_id":"0.0-57.0-0.0","params":{"nStudents":24,"maxFlips":30,"completionMinutes":45,"basePay":8,"maxBonus":9,"perTrialBonus":0.5,"perTrialBonusThreshold":0.1,"exampleCost":0.01},"classroomParams":{"A":{"a":1,"b":4},"B":{"a":4,"b":1},"C":{"a":2,"b":8},"D":{"a":8,"b":2}},"conditions":["nonSeqFull","nonSeqPartial","seqNoFeedback","seqFeedback"],"classroomPairings":[["A","B"],["C","D"]],"coinWeights":[0.2,0.5,0.8],"subjectId":"A2615YW1YERQBO","assignmentId":"3NPI0JQDAPRFIHIMD27IO4SNS1DTP0","hitId":"341H3G5YF006USP7B7C868W97H9Z08","url":"https://gershmanlab.com/experiments/alicia/teaching/experiment/?hitId=341H3G5YF006USP7B7C868W97H9Z08&workerId=A2615YW1YERQBO&assignmentId=3NPI0JQDAPRFIHIMD27IO4SNS1DTP0&a=D0PN8&tp_a=D0PN8&b=3NPI0JQDAPRFIHIMD27IO4SNS1DTP0&tp_b=3NPI0JQDAPRFIHIMD27IO4SNS1DTP0&c=365198&tp_c=365198"},{"rt":3486,"stimulus":"\n            <h4 style=\"color:Orange;\">Student 7</h4>\n            <h2>The weight of your coin is <b style=\"color:Tomato;\">0.8</b>.</h2>\n            <p>In this block, you will be giving <b>one</b> set of examples to Student 7.</p>\n                <p>You will receive feedback at the end of the block.</p>\n            ","response":0,"trial_type":"html-button-response","trial_index":59,"time_elapsed":1187207,"internal_node_id":"0.0-58.0","params":{"nStudents":24,"maxFlips":30,"completionMinutes":45,"basePay":8,"maxBonus":9,"perTrialBonus":0.5,"perTrialBonusThreshold":0.1,"exampleCost":0.01},"classroomParams":{"A":{"a":1,"b":4},"B":{"a":4,"b":1},"C":{"a":2,"b":8},"D":{"a":8,"b":2}},"conditions":["nonSeqFull","nonSeqPartial","seqNoFeedback","seqFeedback"],"classroomPairings":[["A","B"],["C","D"]],"coinWeights":[0.2,0.5,0.8],"subjectId":"A2615YW1YERQBO","assignmentId":"3NPI0JQDAPRFIHIMD27IO4SNS1DTP0","hitId":"341H3G5YF006USP7B7C868W97H9Z08","url":"https://gershmanlab.com/experiments/alicia/teaching/experiment/?hitId=341H3G5YF006USP7B7C868W97H9Z08&workerId=A2615YW1YERQBO&assignmentId=3NPI0JQDAPRFIHIMD27IO4SNS1DTP0&a=D0PN8&tp_a=D0PN8&b=3NPI0JQDAPRFIHIMD27IO4SNS1DTP0&tp_b=3NPI0JQDAPRFIHIMD27IO4SNS1DTP0&c=365198&tp_c=365198"},{"rt":36055,"response":{"heads":"20","tails":"2"},"type":"response","condition":"nonSeqPartial","trueTheta":0.8,"classrooms":["A","B"],"studentTrueClassroom":"B","exampleSet":"first","trial_type":"survey-html-form","trial_index":60,"time_elapsed":1223262,"internal_node_id":"0.0-59.0-0.0","params":{"nStudents":24,"maxFlips":30,"completionMinutes":45,"basePay":8,"maxBonus":9,"perTrialBonus":0.5,"perTrialBonusThreshold":0.1,"exampleCost":0.01},"classroomParams":{"A":{"a":1,"b":4},"B":{"a":4,"b":1},"C":{"a":2,"b":8},"D":{"a":8,"b":2}},"conditions":["nonSeqFull","nonSeqPartial","seqNoFeedback","seqFeedback"],"classroomPairings":[["A","B"],["C","D"]],"coinWeights":[0.2,0.5,0.8],"subjectId":"A2615YW1YERQBO","assignmentId":"3NPI0JQDAPRFIHIMD27IO4SNS1DTP0","hitId":"341H3G5YF006USP7B7C868W97H9Z08","url":"https://gershmanlab.com/experiments/alicia/teaching/experiment/?hitId=341H3G5YF006USP7B7C868W97H9Z08&workerId=A2615YW1YERQBO&assignmentId=3NPI0JQDAPRFIHIMD27IO4SNS1DTP0&a=D0PN8&tp_a=D0PN8&b=3NPI0JQDAPRFIHIMD27IO4SNS1DTP0&tp_b=3NPI0JQDAPRFIHIMD27IO4SNS1DTP0&c=365198&tp_c=365198","heads":20,"tails":2,"studentIndex":6,"studentTrueHypers":{"a":4,"b":1},"studentGuess":0.8888888888888888,"delta":0.0888888888888888,"totalExamples":22,"bonus":0.28,"bonusSoFar":1.31},{"rt":null,"stimulus":"Sending examples to student... ","response":null,"trial_type":"html-keyboard-response","trial_index":61,"time_elapsed":1225030,"internal_node_id":"0.0-60.0","params":{"nStudents":24,"maxFlips":30,"completionMinutes":45,"basePay":8,"maxBonus":9,"perTrialBonus":0.5,"perTrialBonusThreshold":0.1,"exampleCost":0.01},"classroomParams":{"A":{"a":1,"b":4},"B":{"a":4,"b":1},"C":{"a":2,"b":8},"D":{"a":8,"b":2}},"conditions":["nonSeqFull","nonSeqPartial","seqNoFeedback","seqFeedback"],"classroomPairings":[["A","B"],["C","D"]],"coinWeights":[0.2,0.5,0.8],"subjectId":"A2615YW1YERQBO","assignmentId":"3NPI0JQDAPRFIHIMD27IO4SNS1DTP0","hitId":"341H3G5YF006USP7B7C868W97H9Z08","url":"https://gershmanlab.com/experiments/alicia/teaching/experiment/?hitId=341H3G5YF006USP7B7C868W97H9Z08&workerId=A2615YW1YERQBO&assignmentId=3NPI0JQDAPRFIHIMD27IO4SNS1DTP0&a=D0PN8&tp_a=D0PN8&b=3NPI0JQDAPRFIHIMD27IO4SNS1DTP0&tp_b=3NPI0JQDAPRFIHIMD27IO4SNS1DTP0&c=365198&tp_c=365198"},{"rt":null,"stimulus":"Examples sent to student! Waiting for student...","response":null,"trial_type":"html-keyboard-response","trial_index":62,"time_elapsed":1229045,"internal_node_id":"0.0-61.0","params":{"nStudents":24,"maxFlips":30,"completionMinutes":45,"basePay":8,"maxBonus":9,"perTrialBonus":0.5,"perTrialBonusThreshold":0.1,"exampleCost":0.01},"classroomParams":{"A":{"a":1,"b":4},"B":{"a":4,"b":1},"C":{"a":2,"b":8},"D":{"a":8,"b":2}},"conditions":["nonSeqFull","nonSeqPartial","seqNoFeedback","seqFeedback"],"classroomPairings":[["A","B"],["C","D"]],"coinWeights":[0.2,0.5,0.8],"subjectId":"A2615YW1YERQBO","assignmentId":"3NPI0JQDAPRFIHIMD27IO4SNS1DTP0","hitId":"341H3G5YF006USP7B7C868W97H9Z08","url":"https://gershmanlab.com/experiments/alicia/teaching/experiment/?hitId=341H3G5YF006USP7B7C868W97H9Z08&workerId=A2615YW1YERQBO&assignmentId=3NPI0JQDAPRFIHIMD27IO4SNS1DTP0&a=D0PN8&tp_a=D0PN8&b=3NPI0JQDAPRFIHIMD27IO4SNS1DTP0&tp_b=3NPI0JQDAPRFIHIMD27IO4SNS1DTP0&c=365198&tp_c=365198"},{"rt":6349,"stimulus":"\n                <p>Student's guess for coin weight: <b style=\"color:Tomato;\">0.89</b></p>\n                <p>You received a bonus of <b>$0.28</b>. Total bonus so far: <b>$1.31</b></b></p>\n                <p> Press any key to continue.</p>\n                ","response":" ","trial_type":"html-keyboard-response","trial_index":63,"time_elapsed":1235397,"internal_node_id":"0.0-62.0","params":{"nStudents":24,"maxFlips":30,"completionMinutes":45,"basePay":8,"maxBonus":9,"perTrialBonus":0.5,"perTrialBonusThreshold":0.1,"exampleCost":0.01},"classroomParams":{"A":{"a":1,"b":4},"B":{"a":4,"b":1},"C":{"a":2,"b":8},"D":{"a":8,"b":2}},"conditions":["nonSeqFull","nonSeqPartial","seqNoFeedback","seqFeedback"],"classroomPairings":[["A","B"],["C","D"]],"coinWeights":[0.2,0.5,0.8],"subjectId":"A2615YW1YERQBO","assignmentId":"3NPI0JQDAPRFIHIMD27IO4SNS1DTP0","hitId":"341H3G5YF006USP7B7C868W97H9Z08","url":"https://gershmanlab.com/experiments/alicia/teaching/experiment/?hitId=341H3G5YF006USP7B7C868W97H9Z08&workerId=A2615YW1YERQBO&assignmentId=3NPI0JQDAPRFIHIMD27IO4SNS1DTP0&a=D0PN8&tp_a=D0PN8&b=3NPI0JQDAPRFIHIMD27IO4SNS1DTP0&tp_b=3NPI0JQDAPRFIHIMD27IO4SNS1DTP0&c=365198&tp_c=365198"},{"rt":null,"stimulus":"<div style=\"font-size:60px;\">Next student</div>","response":null,"trial_type":"html-keyboard-response","trial_index":64,"time_elapsed":1237404,"internal_node_id":"0.0-63.0-0.0","params":{"nStudents":24,"maxFlips":30,"completionMinutes":45,"basePay":8,"maxBonus":9,"perTrialBonus":0.5,"perTrialBonusThreshold":0.1,"exampleCost":0.01},"classroomParams":{"A":{"a":1,"b":4},"B":{"a":4,"b":1},"C":{"a":2,"b":8},"D":{"a":8,"b":2}},"conditions":["nonSeqFull","nonSeqPartial","seqNoFeedback","seqFeedback"],"classroomPairings":[["A","B"],["C","D"]],"coinWeights":[0.2,0.5,0.8],"subjectId":"A2615YW1YERQBO","assignmentId":"3NPI0JQDAPRFIHIMD27IO4SNS1DTP0","hitId":"341H3G5YF006USP7B7C868W97H9Z08","url":"https://gershmanlab.com/experiments/alicia/teaching/experiment/?hitId=341H3G5YF006USP7B7C868W97H9Z08&workerId=A2615YW1YERQBO&assignmentId=3NPI0JQDAPRFIHIMD27IO4SNS1DTP0&a=D0PN8&tp_a=D0PN8&b=3NPI0JQDAPRFIHIMD27IO4SNS1DTP0&tp_b=3NPI0JQDAPRFIHIMD27IO4SNS1DTP0&c=365198&tp_c=365198"},{"rt":3041,"stimulus":"\n            <h4 style=\"color:Orange;\">Student 8</h4>\n            <h2>The weight of your coin is <b style=\"color:Tomato;\">0.2</b>.</h2>\n            <p>In this block, you will be giving <b>two</b> sets of examples to Student 8.</p>\n                <p>You will see the student's guess after the first set of examples. You will also receive feedback at the end of the block.</p>\n            ","response":0,"trial_type":"html-button-response","trial_index":65,"time_elapsed":1240446,"internal_node_id":"0.0-64.0","params":{"nStudents":24,"maxFlips":30,"completionMinutes":45,"basePay":8,"maxBonus":9,"perTrialBonus":0.5,"perTrialBonusThreshold":0.1,"exampleCost":0.01},"classroomParams":{"A":{"a":1,"b":4},"B":{"a":4,"b":1},"C":{"a":2,"b":8},"D":{"a":8,"b":2}},"conditions":["nonSeqFull","nonSeqPartial","seqNoFeedback","seqFeedback"],"classroomPairings":[["A","B"],["C","D"]],"coinWeights":[0.2,0.5,0.8],"subjectId":"A2615YW1YERQBO","assignmentId":"3NPI0JQDAPRFIHIMD27IO4SNS1DTP0","hitId":"341H3G5YF006USP7B7C868W97H9Z08","url":"https://gershmanlab.com/experiments/alicia/teaching/experiment/?hitId=341H3G5YF006USP7B7C868W97H9Z08&workerId=A2615YW1YERQBO&assignmentId=3NPI0JQDAPRFIHIMD27IO4SNS1DTP0&a=D0PN8&tp_a=D0PN8&b=3NPI0JQDAPRFIHIMD27IO4SNS1DTP0&tp_b=3NPI0JQDAPRFIHIMD27IO4SNS1DTP0&c=365198&tp_c=365198"},{"rt":25631,"response":{"heads":"4","tails":"20"},"type":"response","condition":"seqFeedback","trueTheta":0.2,"classrooms":["C","D"],"studentTrueClassroom":"C","exampleSet":"first","trial_type":"survey-html-form","trial_index":66,"time_elapsed":1266079,"internal_node_id":"0.0-65.0-0.0","params":{"nStudents":24,"maxFlips":30,"completionMinutes":45,"basePay":8,"maxBonus":9,"perTrialBonus":0.5,"perTrialBonusThreshold":0.1,"exampleCost":0.01},"classroomParams":{"A":{"a":1,"b":4},"B":{"a":4,"b":1},"C":{"a":2,"b":8},"D":{"a":8,"b":2}},"conditions":["nonSeqFull","nonSeqPartial","seqNoFeedback","seqFeedback"],"classroomPairings":[["A","B"],["C","D"]],"coinWeights":[0.2,0.5,0.8],"subjectId":"A2615YW1YERQBO","assignmentId":"3NPI0JQDAPRFIHIMD27IO4SNS1DTP0","hitId":"341H3G5YF006USP7B7C868W97H9Z08","url":"https://gershmanlab.com/experiments/alicia/teaching/experiment/?hitId=341H3G5YF006USP7B7C868W97H9Z08&workerId=A2615YW1YERQBO&assignmentId=3NPI0JQDAPRFIHIMD27IO4SNS1DTP0&a=D0PN8&tp_a=D0PN8&b=3NPI0JQDAPRFIHIMD27IO4SNS1DTP0&tp_b=3NPI0JQDAPRFIHIMD27IO4SNS1DTP0&c=365198&tp_c=365198","heads":4,"tails":20,"studentIndex":7,"studentTrueHypers":{"a":2,"b":8},"studentGuess":0.17647058823529413,"delta":0.023529411764705882,"totalExamples":24,"bonusSoFar":1.31},{"rt":null,"stimulus":"Sending examples to student... ","response":null,"trial_type":"html-keyboard-response","trial_index":67,"time_elapsed":1267840,"internal_node_id":"0.0-66.0","params":{"nStudents":24,"maxFlips":30,"completionMinutes":45,"basePay":8,"maxBonus":9,"perTrialBonus":0.5,"perTrialBonusThreshold":0.1,"exampleCost":0.01},"classroomParams":{"A":{"a":1,"b":4},"B":{"a":4,"b":1},"C":{"a":2,"b":8},"D":{"a":8,"b":2}},"conditions":["nonSeqFull","nonSeqPartial","seqNoFeedback","seqFeedback"],"classroomPairings":[["A","B"],["C","D"]],"coinWeights":[0.2,0.5,0.8],"subjectId":"A2615YW1YERQBO","assignmentId":"3NPI0JQDAPRFIHIMD27IO4SNS1DTP0","hitId":"341H3G5YF006USP7B7C868W97H9Z08","url":"https://gershmanlab.com/experiments/alicia/teaching/experiment/?hitId=341H3G5YF006USP7B7C868W97H9Z08&workerId=A2615YW1YERQBO&assignmentId=3NPI0JQDAPRFIHIMD27IO4SNS1DTP0&a=D0PN8&tp_a=D0PN8&b=3NPI0JQDAPRFIHIMD27IO4SNS1DTP0&tp_b=3NPI0JQDAPRFIHIMD27IO4SNS1DTP0&c=365198&tp_c=365198"},{"rt":null,"stimulus":"Examples sent to student! Waiting for student...","response":null,"trial_type":"html-keyboard-response","trial_index":68,"time_elapsed":1271854,"internal_node_id":"0.0-67.0","params":{"nStudents":24,"maxFlips":30,"completionMinutes":45,"basePay":8,"maxBonus":9,"perTrialBonus":0.5,"perTrialBonusThreshold":0.1,"exampleCost":0.01},"classroomParams":{"A":{"a":1,"b":4},"B":{"a":4,"b":1},"C":{"a":2,"b":8},"D":{"a":8,"b":2}},"conditions":["nonSeqFull","nonSeqPartial","seqNoFeedback","seqFeedback"],"classroomPairings":[["A","B"],["C","D"]],"coinWeights":[0.2,0.5,0.8],"subjectId":"A2615YW1YERQBO","assignmentId":"3NPI0JQDAPRFIHIMD27IO4SNS1DTP0","hitId":"341H3G5YF006USP7B7C868W97H9Z08","url":"https://gershmanlab.com/experiments/alicia/teaching/experiment/?hitId=341H3G5YF006USP7B7C868W97H9Z08&workerId=A2615YW1YERQBO&assignmentId=3NPI0JQDAPRFIHIMD27IO4SNS1DTP0&a=D0PN8&tp_a=D0PN8&b=3NPI0JQDAPRFIHIMD27IO4SNS1DTP0&tp_b=3NPI0JQDAPRFIHIMD27IO4SNS1DTP0&c=365198&tp_c=365198"},{"rt":6006,"stimulus":"\n                <p>Student's guess for coin weight: <b style=\"color:Tomato;\">0.18</b></p>\n                <p></b></p>\n                <p>You will now send another set of examples to your student. Press any key to continue.</p>\n                ","response":" ","trial_type":"html-keyboard-response","trial_index":69,"time_elapsed":1277862,"internal_node_id":"0.0-68.0","params":{"nStudents":24,"maxFlips":30,"completionMinutes":45,"basePay":8,"maxBonus":9,"perTrialBonus":0.5,"perTrialBonusThreshold":0.1,"exampleCost":0.01},"classroomParams":{"A":{"a":1,"b":4},"B":{"a":4,"b":1},"C":{"a":2,"b":8},"D":{"a":8,"b":2}},"conditions":["nonSeqFull","nonSeqPartial","seqNoFeedback","seqFeedback"],"classroomPairings":[["A","B"],["C","D"]],"coinWeights":[0.2,0.5,0.8],"subjectId":"A2615YW1YERQBO","assignmentId":"3NPI0JQDAPRFIHIMD27IO4SNS1DTP0","hitId":"341H3G5YF006USP7B7C868W97H9Z08","url":"https://gershmanlab.com/experiments/alicia/teaching/experiment/?hitId=341H3G5YF006USP7B7C868W97H9Z08&workerId=A2615YW1YERQBO&assignmentId=3NPI0JQDAPRFIHIMD27IO4SNS1DTP0&a=D0PN8&tp_a=D0PN8&b=3NPI0JQDAPRFIHIMD27IO4SNS1DTP0&tp_b=3NPI0JQDAPRFIHIMD27IO4SNS1DTP0&c=365198&tp_c=365198"},{"rt":17878,"response":{"heads":"0","tails":"1"},"type":"response","condition":"seqFeedback","trueTheta":0.2,"classrooms":["C","D"],"studentTrueClassroom":"C","exampleSet":"second","trial_type":"survey-html-form","trial_index":70,"time_elapsed":1295741,"internal_node_id":"0.0-69.0-0.0","params":{"nStudents":24,"maxFlips":30,"completionMinutes":45,"basePay":8,"maxBonus":9,"perTrialBonus":0.5,"perTrialBonusThreshold":0.1,"exampleCost":0.01},"classroomParams":{"A":{"a":1,"b":4},"B":{"a":4,"b":1},"C":{"a":2,"b":8},"D":{"a":8,"b":2}},"conditions":["nonSeqFull","nonSeqPartial","seqNoFeedback","seqFeedback"],"classroomPairings":[["A","B"],["C","D"]],"coinWeights":[0.2,0.5,0.8],"subjectId":"A2615YW1YERQBO","assignmentId":"3NPI0JQDAPRFIHIMD27IO4SNS1DTP0","hitId":"341H3G5YF006USP7B7C868W97H9Z08","url":"https://gershmanlab.com/experiments/alicia/teaching/experiment/?hitId=341H3G5YF006USP7B7C868W97H9Z08&workerId=A2615YW1YERQBO&assignmentId=3NPI0JQDAPRFIHIMD27IO4SNS1DTP0&a=D0PN8&tp_a=D0PN8&b=3NPI0JQDAPRFIHIMD27IO4SNS1DTP0&tp_b=3NPI0JQDAPRFIHIMD27IO4SNS1DTP0&c=365198&tp_c=365198","firstResponseHeads":4,"firstResponseTails":20,"secondResponseHeads":0,"secondResponseTails":1,"studentIndex":7,"studentTrueHypers":{"a":2,"b":8},"studentGuess":0.17142857142857143,"delta":0.02857142857142858,"bonus":0.25,"bonusSoFar":1.56,"totalExamples":25},{"rt":null,"stimulus":"Sending examples to student... ","response":null,"trial_type":"html-keyboard-response","trial_index":71,"time_elapsed":1297757,"internal_node_id":"0.0-70.0","params":{"nStudents":24,"maxFlips":30,"completionMinutes":45,"basePay":8,"maxBonus":9,"perTrialBonus":0.5,"perTrialBonusThreshold":0.1,"exampleCost":0.01},"classroomParams":{"A":{"a":1,"b":4},"B":{"a":4,"b":1},"C":{"a":2,"b":8},"D":{"a":8,"b":2}},"conditions":["nonSeqFull","nonSeqPartial","seqNoFeedback","seqFeedback"],"classroomPairings":[["A","B"],["C","D"]],"coinWeights":[0.2,0.5,0.8],"subjectId":"A2615YW1YERQBO","assignmentId":"3NPI0JQDAPRFIHIMD27IO4SNS1DTP0","hitId":"341H3G5YF006USP7B7C868W97H9Z08","url":"https://gershmanlab.com/experiments/alicia/teaching/experiment/?hitId=341H3G5YF006USP7B7C868W97H9Z08&workerId=A2615YW1YERQBO&assignmentId=3NPI0JQDAPRFIHIMD27IO4SNS1DTP0&a=D0PN8&tp_a=D0PN8&b=3NPI0JQDAPRFIHIMD27IO4SNS1DTP0&tp_b=3NPI0JQDAPRFIHIMD27IO4SNS1DTP0&c=365198&tp_c=365198"},{"rt":null,"stimulus":"Examples sent to student! Waiting for student...","response":null,"trial_type":"html-keyboard-response","trial_index":72,"time_elapsed":1303274,"internal_node_id":"0.0-71.0","params":{"nStudents":24,"maxFlips":30,"completionMinutes":45,"basePay":8,"maxBonus":9,"perTrialBonus":0.5,"perTrialBonusThreshold":0.1,"exampleCost":0.01},"classroomParams":{"A":{"a":1,"b":4},"B":{"a":4,"b":1},"C":{"a":2,"b":8},"D":{"a":8,"b":2}},"conditions":["nonSeqFull","nonSeqPartial","seqNoFeedback","seqFeedback"],"classroomPairings":[["A","B"],["C","D"]],"coinWeights":[0.2,0.5,0.8],"subjectId":"A2615YW1YERQBO","assignmentId":"3NPI0JQDAPRFIHIMD27IO4SNS1DTP0","hitId":"341H3G5YF006USP7B7C868W97H9Z08","url":"https://gershmanlab.com/experiments/alicia/teaching/experiment/?hitId=341H3G5YF006USP7B7C868W97H9Z08&workerId=A2615YW1YERQBO&assignmentId=3NPI0JQDAPRFIHIMD27IO4SNS1DTP0&a=D0PN8&tp_a=D0PN8&b=3NPI0JQDAPRFIHIMD27IO4SNS1DTP0&tp_b=3NPI0JQDAPRFIHIMD27IO4SNS1DTP0&c=365198&tp_c=365198"},{"rt":8138,"stimulus":"\n                <p>Student 8's first guess for coin weight: <b style=\"color:Tomato\";>0.18</b></p>\n                <p>Student 8's second guess for coin weight: <b style=\"color:Tomato\";>0.17</b></p>\n                <p>You received a bonus of <b>$0.25</b> based on the student's second guess.</p>\n                <p>Total bonus so far: <b>$1.56</b></p>\n                <p>Press any key to continue.</p>\n                ","response":" ","trial_type":"html-keyboard-response","trial_index":73,"time_elapsed":1311413,"internal_node_id":"0.0-72.0","params":{"nStudents":24,"maxFlips":30,"completionMinutes":45,"basePay":8,"maxBonus":9,"perTrialBonus":0.5,"perTrialBonusThreshold":0.1,"exampleCost":0.01},"classroomParams":{"A":{"a":1,"b":4},"B":{"a":4,"b":1},"C":{"a":2,"b":8},"D":{"a":8,"b":2}},"conditions":["nonSeqFull","nonSeqPartial","seqNoFeedback","seqFeedback"],"classroomPairings":[["A","B"],["C","D"]],"coinWeights":[0.2,0.5,0.8],"subjectId":"A2615YW1YERQBO","assignmentId":"3NPI0JQDAPRFIHIMD27IO4SNS1DTP0","hitId":"341H3G5YF006USP7B7C868W97H9Z08","url":"https://gershmanlab.com/experiments/alicia/teaching/experiment/?hitId=341H3G5YF006USP7B7C868W97H9Z08&workerId=A2615YW1YERQBO&assignmentId=3NPI0JQDAPRFIHIMD27IO4SNS1DTP0&a=D0PN8&tp_a=D0PN8&b=3NPI0JQDAPRFIHIMD27IO4SNS1DTP0&tp_b=3NPI0JQDAPRFIHIMD27IO4SNS1DTP0&c=365198&tp_c=365198"},{"rt":null,"stimulus":"<div style=\"font-size:60px;\">Next student</div>","response":null,"trial_type":"html-keyboard-response","trial_index":74,"time_elapsed":1313429,"internal_node_id":"0.0-73.0-0.0","params":{"nStudents":24,"maxFlips":30,"completionMinutes":45,"basePay":8,"maxBonus":9,"perTrialBonus":0.5,"perTrialBonusThreshold":0.1,"exampleCost":0.01},"classroomParams":{"A":{"a":1,"b":4},"B":{"a":4,"b":1},"C":{"a":2,"b":8},"D":{"a":8,"b":2}},"conditions":["nonSeqFull","nonSeqPartial","seqNoFeedback","seqFeedback"],"classroomPairings":[["A","B"],["C","D"]],"coinWeights":[0.2,0.5,0.8],"subjectId":"A2615YW1YERQBO","assignmentId":"3NPI0JQDAPRFIHIMD27IO4SNS1DTP0","hitId":"341H3G5YF006USP7B7C868W97H9Z08","url":"https://gershmanlab.com/experiments/alicia/teaching/experiment/?hitId=341H3G5YF006USP7B7C868W97H9Z08&workerId=A2615YW1YERQBO&assignmentId=3NPI0JQDAPRFIHIMD27IO4SNS1DTP0&a=D0PN8&tp_a=D0PN8&b=3NPI0JQDAPRFIHIMD27IO4SNS1DTP0&tp_b=3NPI0JQDAPRFIHIMD27IO4SNS1DTP0&c=365198&tp_c=365198"},{"rt":3645,"stimulus":"\n            <h4 style=\"color:Orange;\">Student 9</h4>\n            <h2>The weight of your coin is <b style=\"color:Tomato;\">0.5</b>.</h2>\n            <p>In this block, you will be giving <b>one</b> set of examples to Student 9.</p>\n                <p>You will receive feedback at the end of the block.</p>\n            ","response":0,"trial_type":"html-button-response","trial_index":75,"time_elapsed":1317076,"internal_node_id":"0.0-74.0","params":{"nStudents":24,"maxFlips":30,"completionMinutes":45,"basePay":8,"maxBonus":9,"perTrialBonus":0.5,"perTrialBonusThreshold":0.1,"exampleCost":0.01},"classroomParams":{"A":{"a":1,"b":4},"B":{"a":4,"b":1},"C":{"a":2,"b":8},"D":{"a":8,"b":2}},"conditions":["nonSeqFull","nonSeqPartial","seqNoFeedback","seqFeedback"],"classroomPairings":[["A","B"],["C","D"]],"coinWeights":[0.2,0.5,0.8],"subjectId":"A2615YW1YERQBO","assignmentId":"3NPI0JQDAPRFIHIMD27IO4SNS1DTP0","hitId":"341H3G5YF006USP7B7C868W97H9Z08","url":"https://gershmanlab.com/experiments/alicia/teaching/experiment/?hitId=341H3G5YF006USP7B7C868W97H9Z08&workerId=A2615YW1YERQBO&assignmentId=3NPI0JQDAPRFIHIMD27IO4SNS1DTP0&a=D0PN8&tp_a=D0PN8&b=3NPI0JQDAPRFIHIMD27IO4SNS1DTP0&tp_b=3NPI0JQDAPRFIHIMD27IO4SNS1DTP0&c=365198&tp_c=365198"},{"rt":21423,"response":{"heads":"2","tails":"8"},"type":"response","condition":"nonSeqFull","trueTheta":0.5,"classrooms":["C","D"],"studentTrueClassroom":"D","exampleSet":"first","trial_type":"survey-html-form","trial_index":76,"time_elapsed":1338501,"internal_node_id":"0.0-75.0-0.0","params":{"nStudents":24,"maxFlips":30,"completionMinutes":45,"basePay":8,"maxBonus":9,"perTrialBonus":0.5,"perTrialBonusThreshold":0.1,"exampleCost":0.01},"classroomParams":{"A":{"a":1,"b":4},"B":{"a":4,"b":1},"C":{"a":2,"b":8},"D":{"a":8,"b":2}},"conditions":["nonSeqFull","nonSeqPartial","seqNoFeedback","seqFeedback"],"classroomPairings":[["A","B"],["C","D"]],"coinWeights":[0.2,0.5,0.8],"subjectId":"A2615YW1YERQBO","assignmentId":"3NPI0JQDAPRFIHIMD27IO4SNS1DTP0","hitId":"341H3G5YF006USP7B7C868W97H9Z08","url":"https://gershmanlab.com/experiments/alicia/teaching/experiment/?hitId=341H3G5YF006USP7B7C868W97H9Z08&workerId=A2615YW1YERQBO&assignmentId=3NPI0JQDAPRFIHIMD27IO4SNS1DTP0&a=D0PN8&tp_a=D0PN8&b=3NPI0JQDAPRFIHIMD27IO4SNS1DTP0&tp_b=3NPI0JQDAPRFIHIMD27IO4SNS1DTP0&c=365198&tp_c=365198","heads":2,"tails":8,"studentIndex":8,"studentTrueHypers":{"a":8,"b":2},"studentGuess":0.5,"delta":0,"totalExamples":10,"bonus":0.4,"bonusSoFar":1.96},{"rt":null,"stimulus":"Sending examples to student... ","response":null,"trial_type":"html-keyboard-response","trial_index":77,"time_elapsed":1340016,"internal_node_id":"0.0-76.0","params":{"nStudents":24,"maxFlips":30,"completionMinutes":45,"basePay":8,"maxBonus":9,"perTrialBonus":0.5,"perTrialBonusThreshold":0.1,"exampleCost":0.01},"classroomParams":{"A":{"a":1,"b":4},"B":{"a":4,"b":1},"C":{"a":2,"b":8},"D":{"a":8,"b":2}},"conditions":["nonSeqFull","nonSeqPartial","seqNoFeedback","seqFeedback"],"classroomPairings":[["A","B"],["C","D"]],"coinWeights":[0.2,0.5,0.8],"subjectId":"A2615YW1YERQBO","assignmentId":"3NPI0JQDAPRFIHIMD27IO4SNS1DTP0","hitId":"341H3G5YF006USP7B7C868W97H9Z08","url":"https://gershmanlab.com/experiments/alicia/teaching/experiment/?hitId=341H3G5YF006USP7B7C868W97H9Z08&workerId=A2615YW1YERQBO&assignmentId=3NPI0JQDAPRFIHIMD27IO4SNS1DTP0&a=D0PN8&tp_a=D0PN8&b=3NPI0JQDAPRFIHIMD27IO4SNS1DTP0&tp_b=3NPI0JQDAPRFIHIMD27IO4SNS1DTP0&c=365198&tp_c=365198"},{"rt":null,"stimulus":"Examples sent to student! Waiting for student...","response":null,"trial_type":"html-keyboard-response","trial_index":78,"time_elapsed":1345520,"internal_node_id":"0.0-77.0","params":{"nStudents":24,"maxFlips":30,"completionMinutes":45,"basePay":8,"maxBonus":9,"perTrialBonus":0.5,"perTrialBonusThreshold":0.1,"exampleCost":0.01},"classroomParams":{"A":{"a":1,"b":4},"B":{"a":4,"b":1},"C":{"a":2,"b":8},"D":{"a":8,"b":2}},"conditions":["nonSeqFull","nonSeqPartial","seqNoFeedback","seqFeedback"],"classroomPairings":[["A","B"],["C","D"]],"coinWeights":[0.2,0.5,0.8],"subjectId":"A2615YW1YERQBO","assignmentId":"3NPI0JQDAPRFIHIMD27IO4SNS1DTP0","hitId":"341H3G5YF006USP7B7C868W97H9Z08","url":"https://gershmanlab.com/experiments/alicia/teaching/experiment/?hitId=341H3G5YF006USP7B7C868W97H9Z08&workerId=A2615YW1YERQBO&assignmentId=3NPI0JQDAPRFIHIMD27IO4SNS1DTP0&a=D0PN8&tp_a=D0PN8&b=3NPI0JQDAPRFIHIMD27IO4SNS1DTP0&tp_b=3NPI0JQDAPRFIHIMD27IO4SNS1DTP0&c=365198&tp_c=365198"},{"rt":4499,"stimulus":"\n                <p>Student's guess for coin weight: <b style=\"color:Tomato;\">0.50</b></p>\n                <p>You received a bonus of <b>$0.4</b>. Total bonus so far: <b>$1.96</b></b></p>\n                <p> Press any key to continue.</p>\n                ","response":" ","trial_type":"html-keyboard-response","trial_index":79,"time_elapsed":1350020,"internal_node_id":"0.0-78.0","params":{"nStudents":24,"maxFlips":30,"completionMinutes":45,"basePay":8,"maxBonus":9,"perTrialBonus":0.5,"perTrialBonusThreshold":0.1,"exampleCost":0.01},"classroomParams":{"A":{"a":1,"b":4},"B":{"a":4,"b":1},"C":{"a":2,"b":8},"D":{"a":8,"b":2}},"conditions":["nonSeqFull","nonSeqPartial","seqNoFeedback","seqFeedback"],"classroomPairings":[["A","B"],["C","D"]],"coinWeights":[0.2,0.5,0.8],"subjectId":"A2615YW1YERQBO","assignmentId":"3NPI0JQDAPRFIHIMD27IO4SNS1DTP0","hitId":"341H3G5YF006USP7B7C868W97H9Z08","url":"https://gershmanlab.com/experiments/alicia/teaching/experiment/?hitId=341H3G5YF006USP7B7C868W97H9Z08&workerId=A2615YW1YERQBO&assignmentId=3NPI0JQDAPRFIHIMD27IO4SNS1DTP0&a=D0PN8&tp_a=D0PN8&b=3NPI0JQDAPRFIHIMD27IO4SNS1DTP0&tp_b=3NPI0JQDAPRFIHIMD27IO4SNS1DTP0&c=365198&tp_c=365198"},{"rt":null,"stimulus":"<div style=\"font-size:60px;\">Next student</div>","response":null,"trial_type":"html-keyboard-response","trial_index":80,"time_elapsed":1352287,"internal_node_id":"0.0-79.0-0.0","params":{"nStudents":24,"maxFlips":30,"completionMinutes":45,"basePay":8,"maxBonus":9,"perTrialBonus":0.5,"perTrialBonusThreshold":0.1,"exampleCost":0.01},"classroomParams":{"A":{"a":1,"b":4},"B":{"a":4,"b":1},"C":{"a":2,"b":8},"D":{"a":8,"b":2}},"conditions":["nonSeqFull","nonSeqPartial","seqNoFeedback","seqFeedback"],"classroomPairings":[["A","B"],["C","D"]],"coinWeights":[0.2,0.5,0.8],"subjectId":"A2615YW1YERQBO","assignmentId":"3NPI0JQDAPRFIHIMD27IO4SNS1DTP0","hitId":"341H3G5YF006USP7B7C868W97H9Z08","url":"https://gershmanlab.com/experiments/alicia/teaching/experiment/?hitId=341H3G5YF006USP7B7C868W97H9Z08&workerId=A2615YW1YERQBO&assignmentId=3NPI0JQDAPRFIHIMD27IO4SNS1DTP0&a=D0PN8&tp_a=D0PN8&b=3NPI0JQDAPRFIHIMD27IO4SNS1DTP0&tp_b=3NPI0JQDAPRFIHIMD27IO4SNS1DTP0&c=365198&tp_c=365198"},{"rt":8748,"stimulus":"\n            <h4 style=\"color:Orange;\">Student 10</h4>\n            <h2>The weight of your coin is <b style=\"color:Tomato;\">0.2</b>.</h2>\n            <p>In this block, you will be giving <b>two</b> sets of examples to Student 10.</p>\n                <p>You will see the student's guess after the first set of examples. You will also receive feedback at the end of the block.</p>\n            ","response":0,"trial_type":"html-button-response","trial_index":81,"time_elapsed":1361037,"internal_node_id":"0.0-80.0","params":{"nStudents":24,"maxFlips":30,"completionMinutes":45,"basePay":8,"maxBonus":9,"perTrialBonus":0.5,"perTrialBonusThreshold":0.1,"exampleCost":0.01},"classroomParams":{"A":{"a":1,"b":4},"B":{"a":4,"b":1},"C":{"a":2,"b":8},"D":{"a":8,"b":2}},"conditions":["nonSeqFull","nonSeqPartial","seqNoFeedback","seqFeedback"],"classroomPairings":[["A","B"],["C","D"]],"coinWeights":[0.2,0.5,0.8],"subjectId":"A2615YW1YERQBO","assignmentId":"3NPI0JQDAPRFIHIMD27IO4SNS1DTP0","hitId":"341H3G5YF006USP7B7C868W97H9Z08","url":"https://gershmanlab.com/experiments/alicia/teaching/experiment/?hitId=341H3G5YF006USP7B7C868W97H9Z08&workerId=A2615YW1YERQBO&assignmentId=3NPI0JQDAPRFIHIMD27IO4SNS1DTP0&a=D0PN8&tp_a=D0PN8&b=3NPI0JQDAPRFIHIMD27IO4SNS1DTP0&tp_b=3NPI0JQDAPRFIHIMD27IO4SNS1DTP0&c=365198&tp_c=365198"},{"rt":39112,"response":{"heads":"1","tails":"11"},"type":"response","condition":"seqFeedback","trueTheta":0.2,"classrooms":["A","B"],"studentTrueClassroom":"B","exampleSet":"first","trial_type":"survey-html-form","trial_index":82,"time_elapsed":1400153,"internal_node_id":"0.0-81.0-0.0","params":{"nStudents":24,"maxFlips":30,"completionMinutes":45,"basePay":8,"maxBonus":9,"perTrialBonus":0.5,"perTrialBonusThreshold":0.1,"exampleCost":0.01},"classroomParams":{"A":{"a":1,"b":4},"B":{"a":4,"b":1},"C":{"a":2,"b":8},"D":{"a":8,"b":2}},"conditions":["nonSeqFull","nonSeqPartial","seqNoFeedback","seqFeedback"],"classroomPairings":[["A","B"],["C","D"]],"coinWeights":[0.2,0.5,0.8],"subjectId":"A2615YW1YERQBO","assignmentId":"3NPI0JQDAPRFIHIMD27IO4SNS1DTP0","hitId":"341H3G5YF006USP7B7C868W97H9Z08","url":"https://gershmanlab.com/experiments/alicia/teaching/experiment/?hitId=341H3G5YF006USP7B7C868W97H9Z08&workerId=A2615YW1YERQBO&assignmentId=3NPI0JQDAPRFIHIMD27IO4SNS1DTP0&a=D0PN8&tp_a=D0PN8&b=3NPI0JQDAPRFIHIMD27IO4SNS1DTP0&tp_b=3NPI0JQDAPRFIHIMD27IO4SNS1DTP0&c=365198&tp_c=365198","heads":1,"tails":11,"studentIndex":9,"studentTrueHypers":{"a":4,"b":1},"studentGuess":0.29411764705882354,"delta":0.09411764705882353,"totalExamples":12,"bonusSoFar":1.96},{"rt":null,"stimulus":"Sending examples to student... ","response":null,"trial_type":"html-keyboard-response","trial_index":83,"time_elapsed":1401906,"internal_node_id":"0.0-82.0","params":{"nStudents":24,"maxFlips":30,"completionMinutes":45,"basePay":8,"maxBonus":9,"perTrialBonus":0.5,"perTrialBonusThreshold":0.1,"exampleCost":0.01},"classroomParams":{"A":{"a":1,"b":4},"B":{"a":4,"b":1},"C":{"a":2,"b":8},"D":{"a":8,"b":2}},"conditions":["nonSeqFull","nonSeqPartial","seqNoFeedback","seqFeedback"],"classroomPairings":[["A","B"],["C","D"]],"coinWeights":[0.2,0.5,0.8],"subjectId":"A2615YW1YERQBO","assignmentId":"3NPI0JQDAPRFIHIMD27IO4SNS1DTP0","hitId":"341H3G5YF006USP7B7C868W97H9Z08","url":"https://gershmanlab.com/experiments/alicia/teaching/experiment/?hitId=341H3G5YF006USP7B7C868W97H9Z08&workerId=A2615YW1YERQBO&assignmentId=3NPI0JQDAPRFIHIMD27IO4SNS1DTP0&a=D0PN8&tp_a=D0PN8&b=3NPI0JQDAPRFIHIMD27IO4SNS1DTP0&tp_b=3NPI0JQDAPRFIHIMD27IO4SNS1DTP0&c=365198&tp_c=365198"},{"rt":null,"stimulus":"Examples sent to student! Waiting for student...","response":null,"trial_type":"html-keyboard-response","trial_index":84,"time_elapsed":1407922,"internal_node_id":"0.0-83.0","params":{"nStudents":24,"maxFlips":30,"completionMinutes":45,"basePay":8,"maxBonus":9,"perTrialBonus":0.5,"perTrialBonusThreshold":0.1,"exampleCost":0.01},"classroomParams":{"A":{"a":1,"b":4},"B":{"a":4,"b":1},"C":{"a":2,"b":8},"D":{"a":8,"b":2}},"conditions":["nonSeqFull","nonSeqPartial","seqNoFeedback","seqFeedback"],"classroomPairings":[["A","B"],["C","D"]],"coinWeights":[0.2,0.5,0.8],"subjectId":"A2615YW1YERQBO","assignmentId":"3NPI0JQDAPRFIHIMD27IO4SNS1DTP0","hitId":"341H3G5YF006USP7B7C868W97H9Z08","url":"https://gershmanlab.com/experiments/alicia/teaching/experiment/?hitId=341H3G5YF006USP7B7C868W97H9Z08&workerId=A2615YW1YERQBO&assignmentId=3NPI0JQDAPRFIHIMD27IO4SNS1DTP0&a=D0PN8&tp_a=D0PN8&b=3NPI0JQDAPRFIHIMD27IO4SNS1DTP0&tp_b=3NPI0JQDAPRFIHIMD27IO4SNS1DTP0&c=365198&tp_c=365198"},{"rt":3233,"stimulus":"\n                <p>Student's guess for coin weight: <b style=\"color:Tomato;\">0.29</b></p>\n                <p></b></p>\n                <p>You will now send another set of examples to your student. Press any key to continue.</p>\n                ","response":" ","trial_type":"html-keyboard-response","trial_index":85,"time_elapsed":1411156,"internal_node_id":"0.0-84.0","params":{"nStudents":24,"maxFlips":30,"completionMinutes":45,"basePay":8,"maxBonus":9,"perTrialBonus":0.5,"perTrialBonusThreshold":0.1,"exampleCost":0.01},"classroomParams":{"A":{"a":1,"b":4},"B":{"a":4,"b":1},"C":{"a":2,"b":8},"D":{"a":8,"b":2}},"conditions":["nonSeqFull","nonSeqPartial","seqNoFeedback","seqFeedback"],"classroomPairings":[["A","B"],["C","D"]],"coinWeights":[0.2,0.5,0.8],"subjectId":"A2615YW1YERQBO","assignmentId":"3NPI0JQDAPRFIHIMD27IO4SNS1DTP0","hitId":"341H3G5YF006USP7B7C868W97H9Z08","url":"https://gershmanlab.com/experiments/alicia/teaching/experiment/?hitId=341H3G5YF006USP7B7C868W97H9Z08&workerId=A2615YW1YERQBO&assignmentId=3NPI0JQDAPRFIHIMD27IO4SNS1DTP0&a=D0PN8&tp_a=D0PN8&b=3NPI0JQDAPRFIHIMD27IO4SNS1DTP0&tp_b=3NPI0JQDAPRFIHIMD27IO4SNS1DTP0&c=365198&tp_c=365198"},{"rt":7262,"response":{"heads":"0","tails":"1"},"type":"response","condition":"seqFeedback","trueTheta":0.2,"classrooms":["A","B"],"studentTrueClassroom":"B","exampleSet":"second","trial_type":"survey-html-form","trial_index":86,"time_elapsed":1418421,"internal_node_id":"0.0-85.0-0.0","params":{"nStudents":24,"maxFlips":30,"completionMinutes":45,"basePay":8,"maxBonus":9,"perTrialBonus":0.5,"perTrialBonusThreshold":0.1,"exampleCost":0.01},"classroom