[{"rt":3595,"stimulus":"Welcome to the experiment. Press any key to begin.","response":" ","trial_type":"html-keyboard-response","trial_index":0,"time_elapsed":3600,"internal_node_id":"0.0-0.0","params":{"nStudents":24,"maxFlips":30,"completionMinutes":45,"basePay":8,"maxBonus":9,"perTrialBonus":0.5,"perTrialBonusThreshold":0.1,"exampleCost":0.01},"classroomParams":{"A":{"a":1,"b":4},"B":{"a":4,"b":1},"C":{"a":2,"b":8},"D":{"a":8,"b":2}},"conditions":["nonSeqFull","nonSeqPartial","seqNoFeedback","seqFeedback"],"classroomPairings":[["A","B"],["C","D"]],"coinWeights":[0.2,0.5,0.8],"subjectId":"A2FGKKWP33DFWS","assignmentId":"3ZDAD0O1T2ZKRQKDZTHZIHEQU0MXTS","hitId":"3YGE63DIN8J20XK20KS1742RQF60WK","url":"https://gershmanlab.com/experiments/alicia/teaching/experiment/?hitId=3YGE63DIN8J20XK20KS1742RQF60WK&workerId=A2FGKKWP33DFWS&assignmentId=3ZDAD0O1T2ZKRQKDZTHZIHEQU0MXTS&a=1DDZ8&tp_a=1DDZ8&b=3ZDAD0O1T2ZKRQKDZTHZIHEQU0MXTS&tp_b=3ZDAD0O1T2ZKRQKDZTHZIHEQU0MXTS&c=365198&tp_c=365198"},{"rt":27050,"stimulus":"\n        <h3>Please read this consent agreement carefully before deciding whether to participate in this experiment.</h3>\n        <p><b>Purpose of the research:</b> To examine how people teach effectively.</p>\n        <p><b>What you will do in this research:</b> You will teach students the weights of different coins.</p>\n        <p><b>Time required:</b> This experiment will take 45 minutes to complete.</p>\n        <p><b>Risks:</b> There are no anticipated risks associated with participating in this study.             The effects of participating should be comparable to those you would experience from viewing a computer monitor             and using a mouse and keyboard for the duration of the experiment.</p>\n        <p><b>Benefits:</b> The study provides important information about the nature of teaching.</p>\n        <p><b>Compensation:</b> You will receive <b>$8</b> for completing the experiment and a performance bonus of up to <b>$9</b>.</p>\n        <p><b>Confidentiality:</b> Your participation in this study will remain confidential.             No personally identifiable information will be associated with your data.             Your de-identified data may be shared with other researchers and used in future projects.</p>\n        <p><b>Participation and withdrawal:</b> Your participation in this study is completely voluntary and             you may refuse to participate or you may choose to withdraw at any time without penalty or loss of\n            benefits to which you are otherwise entitled.</p>\n        <p><b>How to contact the researcher:</b> If you have questions or concerns about your participation            or payment, or want to request a summary of research findings, please contact\n            Alicia Chen, aliciachen@college.harvard.edu.</p>\n        <p><b>Whom to contact about your rights in this research:</b> For questions, concerns, suggestions,             or complaints that have not been or cannot be addressed by the researcher, or to report             research-related harm, please contact the Committee on the Use of Human Subjects in Research at Harvard University,             1414 Massachusetts Avenue, Second Floor, Cambridge, MA 02138. Phone: 617-496-2847. Email: cuhs@fas.harvard.edu.</p>\n        ","response":0,"trial_type":"html-button-response","trial_index":1,"time_elapsed":30651,"internal_node_id":"0.0-1.0","params":{"nStudents":24,"maxFlips":30,"completionMinutes":45,"basePay":8,"maxBonus":9,"perTrialBonus":0.5,"perTrialBonusThreshold":0.1,"exampleCost":0.01},"classroomParams":{"A":{"a":1,"b":4},"B":{"a":4,"b":1},"C":{"a":2,"b":8},"D":{"a":8,"b":2}},"conditions":["nonSeqFull","nonSeqPartial","seqNoFeedback","seqFeedback"],"classroomPairings":[["A","B"],["C","D"]],"coinWeights":[0.2,0.5,0.8],"subjectId":"A2FGKKWP33DFWS","assignmentId":"3ZDAD0O1T2ZKRQKDZTHZIHEQU0MXTS","hitId":"3YGE63DIN8J20XK20KS1742RQF60WK","url":"https://gershmanlab.com/experiments/alicia/teaching/experiment/?hitId=3YGE63DIN8J20XK20KS1742RQF60WK&workerId=A2FGKKWP33DFWS&assignmentId=3ZDAD0O1T2ZKRQKDZTHZIHEQU0MXTS&a=1DDZ8&tp_a=1DDZ8&b=3ZDAD0O1T2ZKRQKDZTHZIHEQU0MXTS&tp_b=3ZDAD0O1T2ZKRQKDZTHZIHEQU0MXTS&c=365198&tp_c=365198"},{"view_history":[{"page_index":0,"viewing_time":7116},{"page_index":1,"viewing_time":6062},{"page_index":2,"viewing_time":35044},{"page_index":3,"viewing_time":18975},{"page_index":4,"viewing_time":24769},{"page_index":5,"viewing_time":42836},{"page_index":6,"viewing_time":41525}],"rt":176328,"trial_type":"instructions","trial_index":2,"time_elapsed":206980,"internal_node_id":"0.0-2.0-0.0","params":{"nStudents":24,"maxFlips":30,"completionMinutes":45,"basePay":8,"maxBonus":9,"perTrialBonus":0.5,"perTrialBonusThreshold":0.1,"exampleCost":0.01},"classroomParams":{"A":{"a":1,"b":4},"B":{"a":4,"b":1},"C":{"a":2,"b":8},"D":{"a":8,"b":2}},"conditions":["nonSeqFull","nonSeqPartial","seqNoFeedback","seqFeedback"],"classroomPairings":[["A","B"],["C","D"]],"coinWeights":[0.2,0.5,0.8],"subjectId":"A2FGKKWP33DFWS","assignmentId":"3ZDAD0O1T2ZKRQKDZTHZIHEQU0MXTS","hitId":"3YGE63DIN8J20XK20KS1742RQF60WK","url":"https://gershmanlab.com/experiments/alicia/teaching/experiment/?hitId=3YGE63DIN8J20XK20KS1742RQF60WK&workerId=A2FGKKWP33DFWS&assignmentId=3ZDAD0O1T2ZKRQKDZTHZIHEQU0MXTS&a=1DDZ8&tp_a=1DDZ8&b=3ZDAD0O1T2ZKRQKDZTHZIHEQU0MXTS&tp_b=3ZDAD0O1T2ZKRQKDZTHZIHEQU0MXTS&c=365198&tp_c=365198"},{"rt":53699,"response":{"Q0":"Students in different classrooms will have seen a different number of heads and tails before seeing the examples you select for them.","Q1":"By teaching efficiently and accurately/helpfully at the same time (because each example I give to the student costs money!).","Q2":"The coin lands heads 90% of the time.","Q3":"No, I will teach a <b>new</b> student each time.","Q4":"The students are also on the same alien planet as you, where coins can be unfair.","Q5":"Based on the student's second (and final) guess."},"question_order":[0,4,1,3,5,2],"trial_type":"survey-multi-choice","trial_index":3,"time_elapsed":260682,"internal_node_id":"0.0-2.0-1.0","params":{"nStudents":24,"maxFlips":30,"completionMinutes":45,"basePay":8,"maxBonus":9,"perTrialBonus":0.5,"perTrialBonusThreshold":0.1,"exampleCost":0.01},"classroomParams":{"A":{"a":1,"b":4},"B":{"a":4,"b":1},"C":{"a":2,"b":8},"D":{"a":8,"b":2}},"conditions":["nonSeqFull","nonSeqPartial","seqNoFeedback","seqFeedback"],"classroomPairings":[["A","B"],["C","D"]],"coinWeights":[0.2,0.5,0.8],"subjectId":"A2FGKKWP33DFWS","assignmentId":"3ZDAD0O1T2ZKRQKDZTHZIHEQU0MXTS","hitId":"3YGE63DIN8J20XK20KS1742RQF60WK","url":"https://gershmanlab.com/experiments/alicia/teaching/experiment/?hitId=3YGE63DIN8J20XK20KS1742RQF60WK&workerId=A2FGKKWP33DFWS&assignmentId=3ZDAD0O1T2ZKRQKDZTHZIHEQU0MXTS&a=1DDZ8&tp_a=1DDZ8&b=3ZDAD0O1T2ZKRQKDZTHZIHEQU0MXTS&tp_b=3ZDAD0O1T2ZKRQKDZTHZIHEQU0MXTS&c=365198&tp_c=365198","pass":true},{"rt":null,"stimulus":"<div style=\"font-size:30px;\">Congrats on passing the comprehension quiz! The experiment will begin in a few seconds.</div>","response":null,"trial_type":"html-keyboard-response","trial_index":4,"time_elapsed":263687,"internal_node_id":"0.0-3.0","params":{"nStudents":24,"maxFlips":30,"completionMinutes":45,"basePay":8,"maxBonus":9,"perTrialBonus":0.5,"perTrialBonusThreshold":0.1,"exampleCost":0.01},"classroomParams":{"A":{"a":1,"b":4},"B":{"a":4,"b":1},"C":{"a":2,"b":8},"D":{"a":8,"b":2}},"conditions":["nonSeqFull","nonSeqPartial","seqNoFeedback","seqFeedback"],"classroomPairings":[["A","B"],["C","D"]],"coinWeights":[0.2,0.5,0.8],"subjectId":"A2FGKKWP33DFWS","assignmentId":"3ZDAD0O1T2ZKRQKDZTHZIHEQU0MXTS","hitId":"3YGE63DIN8J20XK20KS1742RQF60WK","url":"https://gershmanlab.com/experiments/alicia/teaching/experiment/?hitId=3YGE63DIN8J20XK20KS1742RQF60WK&workerId=A2FGKKWP33DFWS&assignmentId=3ZDAD0O1T2ZKRQKDZTHZIHEQU0MXTS&a=1DDZ8&tp_a=1DDZ8&b=3ZDAD0O1T2ZKRQKDZTHZIHEQU0MXTS&tp_b=3ZDAD0O1T2ZKRQKDZTHZIHEQU0MXTS&c=365198&tp_c=365198"},{"rt":null,"stimulus":"<div style=\"font-size:50px;\">First student</div>","response":null,"trial_type":"html-keyboard-response","trial_index":5,"time_elapsed":266689,"internal_node_id":"0.0-4.0","params":{"nStudents":24,"maxFlips":30,"completionMinutes":45,"basePay":8,"maxBonus":9,"perTrialBonus":0.5,"perTrialBonusThreshold":0.1,"exampleCost":0.01},"classroomParams":{"A":{"a":1,"b":4},"B":{"a":4,"b":1},"C":{"a":2,"b":8},"D":{"a":8,"b":2}},"conditions":["nonSeqFull","nonSeqPartial","seqNoFeedback","seqFeedback"],"classroomPairings":[["A","B"],["C","D"]],"coinWeights":[0.2,0.5,0.8],"subjectId":"A2FGKKWP33DFWS","assignmentId":"3ZDAD0O1T2ZKRQKDZTHZIHEQU0MXTS","hitId":"3YGE63DIN8J20XK20KS1742RQF60WK","url":"https://gershmanlab.com/experiments/alicia/teaching/experiment/?hitId=3YGE63DIN8J20XK20KS1742RQF60WK&workerId=A2FGKKWP33DFWS&assignmentId=3ZDAD0O1T2ZKRQKDZTHZIHEQU0MXTS&a=1DDZ8&tp_a=1DDZ8&b=3ZDAD0O1T2ZKRQKDZTHZIHEQU0MXTS&tp_b=3ZDAD0O1T2ZKRQKDZTHZIHEQU0MXTS&c=365198&tp_c=365198"},{"rt":11612,"stimulus":"\n            <h4 style=\"color:Orange;\">Student 1</h4>\n            <h2>The weight of your coin is <b style=\"color:Tomato;\">0.8</b>.</h2>\n            <p>In this block, you will be giving <b>two</b> sets of examples to Student 1.</p>\n                <p>You will see the student's guess after the first set of examples. You will also receive feedback at the end of the block.</p>\n            ","response":0,"trial_type":"html-button-response","trial_index":6,"time_elapsed":278303,"internal_node_id":"0.0-5.0","params":{"nStudents":24,"maxFlips":30,"completionMinutes":45,"basePay":8,"maxBonus":9,"perTrialBonus":0.5,"perTrialBonusThreshold":0.1,"exampleCost":0.01},"classroomParams":{"A":{"a":1,"b":4},"B":{"a":4,"b":1},"C":{"a":2,"b":8},"D":{"a":8,"b":2}},"conditions":["nonSeqFull","nonSeqPartial","seqNoFeedback","seqFeedback"],"classroomPairings":[["A","B"],["C","D"]],"coinWeights":[0.2,0.5,0.8],"subjectId":"A2FGKKWP33DFWS","assignmentId":"3ZDAD0O1T2ZKRQKDZTHZIHEQU0MXTS","hitId":"3YGE63DIN8J20XK20KS1742RQF60WK","url":"https://gershmanlab.com/experiments/alicia/teaching/experiment/?hitId=3YGE63DIN8J20XK20KS1742RQF60WK&workerId=A2FGKKWP33DFWS&assignmentId=3ZDAD0O1T2ZKRQKDZTHZIHEQU0MXTS&a=1DDZ8&tp_a=1DDZ8&b=3ZDAD0O1T2ZKRQKDZTHZIHEQU0MXTS&tp_b=3ZDAD0O1T2ZKRQKDZTHZIHEQU0MXTS&c=365198&tp_c=365198"},{"rt":35025,"response":{"heads":"0","tails":"2"},"type":"response","condition":"seqFeedback","trueTheta":0.8,"classrooms":["C","D"],"studentTrueClassroom":"C","exampleSet":"first","trial_type":"survey-html-form","trial_index":7,"time_elapsed":313330,"internal_node_id":"0.0-6.0-0.0","params":{"nStudents":24,"maxFlips":30,"completionMinutes":45,"basePay":8,"maxBonus":9,"perTrialBonus":0.5,"perTrialBonusThreshold":0.1,"exampleCost":0.01},"classroomParams":{"A":{"a":1,"b":4},"B":{"a":4,"b":1},"C":{"a":2,"b":8},"D":{"a":8,"b":2}},"conditions":["nonSeqFull","nonSeqPartial","seqNoFeedback","seqFeedback"],"classroomPairings":[["A","B"],["C","D"]],"coinWeights":[0.2,0.5,0.8],"subjectId":"A2FGKKWP33DFWS","assignmentId":"3ZDAD0O1T2ZKRQKDZTHZIHEQU0MXTS","hitId":"3YGE63DIN8J20XK20KS1742RQF60WK","url":"https://gershmanlab.com/experiments/alicia/teaching/experiment/?hitId=3YGE63DIN8J20XK20KS1742RQF60WK&workerId=A2FGKKWP33DFWS&assignmentId=3ZDAD0O1T2ZKRQKDZTHZIHEQU0MXTS&a=1DDZ8&tp_a=1DDZ8&b=3ZDAD0O1T2ZKRQKDZTHZIHEQU0MXTS&tp_b=3ZDAD0O1T2ZKRQKDZTHZIHEQU0MXTS&c=365198&tp_c=365198","heads":0,"tails":2,"studentIndex":0,"studentTrueHypers":{"a":2,"b":8},"studentGuess":0.16666666666666666,"delta":0.6333333333333334,"totalExamples":2,"bonusSoFar":0},{"rt":null,"stimulus":"Sending examples to student... ","response":null,"trial_type":"html-keyboard-response","trial_index":8,"time_elapsed":315094,"internal_node_id":"0.0-7.0","params":{"nStudents":24,"maxFlips":30,"completionMinutes":45,"basePay":8,"maxBonus":9,"perTrialBonus":0.5,"perTrialBonusThreshold":0.1,"exampleCost":0.01},"classroomParams":{"A":{"a":1,"b":4},"B":{"a":4,"b":1},"C":{"a":2,"b":8},"D":{"a":8,"b":2}},"conditions":["nonSeqFull","nonSeqPartial","seqNoFeedback","seqFeedback"],"classroomPairings":[["A","B"],["C","D"]],"coinWeights":[0.2,0.5,0.8],"subjectId":"A2FGKKWP33DFWS","assignmentId":"3ZDAD0O1T2ZKRQKDZTHZIHEQU0MXTS","hitId":"3YGE63DIN8J20XK20KS1742RQF60WK","url":"https://gershmanlab.com/experiments/alicia/teaching/experiment/?hitId=3YGE63DIN8J20XK20KS1742RQF60WK&workerId=A2FGKKWP33DFWS&assignmentId=3ZDAD0O1T2ZKRQKDZTHZIHEQU0MXTS&a=1DDZ8&tp_a=1DDZ8&b=3ZDAD0O1T2ZKRQKDZTHZIHEQU0MXTS&tp_b=3ZDAD0O1T2ZKRQKDZTHZIHEQU0MXTS&c=365198&tp_c=365198"},{"rt":null,"stimulus":"Examples sent to student! Waiting for student...","response":null,"trial_type":"html-keyboard-response","trial_index":9,"time_elapsed":319596,"internal_node_id":"0.0-8.0","params":{"nStudents":24,"maxFlips":30,"completionMinutes":45,"basePay":8,"maxBonus":9,"perTrialBonus":0.5,"perTrialBonusThreshold":0.1,"exampleCost":0.01},"classroomParams":{"A":{"a":1,"b":4},"B":{"a":4,"b":1},"C":{"a":2,"b":8},"D":{"a":8,"b":2}},"conditions":["nonSeqFull","nonSeqPartial","seqNoFeedback","seqFeedback"],"classroomPairings":[["A","B"],["C","D"]],"coinWeights":[0.2,0.5,0.8],"subjectId":"A2FGKKWP33DFWS","assignmentId":"3ZDAD0O1T2ZKRQKDZTHZIHEQU0MXTS","hitId":"3YGE63DIN8J20XK20KS1742RQF60WK","url":"https://gershmanlab.com/experiments/alicia/teaching/experiment/?hitId=3YGE63DIN8J20XK20KS1742RQF60WK&workerId=A2FGKKWP33DFWS&assignmentId=3ZDAD0O1T2ZKRQKDZTHZIHEQU0MXTS&a=1DDZ8&tp_a=1DDZ8&b=3ZDAD0O1T2ZKRQKDZTHZIHEQU0MXTS&tp_b=3ZDAD0O1T2ZKRQKDZTHZIHEQU0MXTS&c=365198&tp_c=365198"},{"rt":6525,"stimulus":"\n                <p>Student's guess for coin weight: <b style=\"color:Tomato;\">0.17</b></p>\n                <p></b></p>\n                <p>You will now send another set of examples to your student. Press any key to continue.</p>\n                ","response":" ","trial_type":"html-keyboard-response","trial_index":10,"time_elapsed":326123,"internal_node_id":"0.0-9.0","params":{"nStudents":24,"maxFlips":30,"completionMinutes":45,"basePay":8,"maxBonus":9,"perTrialBonus":0.5,"perTrialBonusThreshold":0.1,"exampleCost":0.01},"classroomParams":{"A":{"a":1,"b":4},"B":{"a":4,"b":1},"C":{"a":2,"b":8},"D":{"a":8,"b":2}},"conditions":["nonSeqFull","nonSeqPartial","seqNoFeedback","seqFeedback"],"classroomPairings":[["A","B"],["C","D"]],"coinWeights":[0.2,0.5,0.8],"subjectId":"A2FGKKWP33DFWS","assignmentId":"3ZDAD0O1T2ZKRQKDZTHZIHEQU0MXTS","hitId":"3YGE63DIN8J20XK20KS1742RQF60WK","url":"https://gershmanlab.com/experiments/alicia/teaching/experiment/?hitId=3YGE63DIN8J20XK20KS1742RQF60WK&workerId=A2FGKKWP33DFWS&assignmentId=3ZDAD0O1T2ZKRQKDZTHZIHEQU0MXTS&a=1DDZ8&tp_a=1DDZ8&b=3ZDAD0O1T2ZKRQKDZTHZIHEQU0MXTS&tp_b=3ZDAD0O1T2ZKRQKDZTHZIHEQU0MXTS&c=365198&tp_c=365198"},{"rt":10080,"response":{"heads":"8","tails":"2"},"type":"response","condition":"seqFeedback","trueTheta":0.8,"classrooms":["C","D"],"studentTrueClassroom":"C","exampleSet":"second","trial_type":"survey-html-form","trial_index":11,"time_elapsed":336205,"internal_node_id":"0.0-10.0-0.0","params":{"nStudents":24,"maxFlips":30,"completionMinutes":45,"basePay":8,"maxBonus":9,"perTrialBonus":0.5,"perTrialBonusThreshold":0.1,"exampleCost":0.01},"classroomParams":{"A":{"a":1,"b":4},"B":{"a":4,"b":1},"C":{"a":2,"b":8},"D":{"a":8,"b":2}},"conditions":["nonSeqFull","nonSeqPartial","seqNoFeedback","seqFeedback"],"classroomPairings":[["A","B"],["C","D"]],"coinWeights":[0.2,0.5,0.8],"subjectId":"A2FGKKWP33DFWS","assignmentId":"3ZDAD0O1T2ZKRQKDZTHZIHEQU0MXTS","hitId":"3YGE63DIN8J20XK20KS1742RQF60WK","url":"https://gershmanlab.com/experiments/alicia/teaching/experiment/?hitId=3YGE63DIN8J20XK20KS1742RQF60WK&workerId=A2FGKKWP33DFWS&assignmentId=3ZDAD0O1T2ZKRQKDZTHZIHEQU0MXTS&a=1DDZ8&tp_a=1DDZ8&b=3ZDAD0O1T2ZKRQKDZTHZIHEQU0MXTS&tp_b=3ZDAD0O1T2ZKRQKDZTHZIHEQU0MXTS&c=365198&tp_c=365198","firstResponseHeads":0,"firstResponseTails":2,"secondResponseHeads":8,"secondResponseTails":2,"studentIndex":0,"studentTrueHypers":{"a":2,"b":8},"studentGuess":0.45454545454545453,"delta":0.3454545454545455,"bonus":0,"bonusSoFar":0,"totalExamples":12},{"rt":null,"stimulus":"Sending examples to student... ","response":null,"trial_type":"html-keyboard-response","trial_index":12,"time_elapsed":338207,"internal_node_id":"0.0-11.0","params":{"nStudents":24,"maxFlips":30,"completionMinutes":45,"basePay":8,"maxBonus":9,"perTrialBonus":0.5,"perTrialBonusThreshold":0.1,"exampleCost":0.01},"classroomParams":{"A":{"a":1,"b":4},"B":{"a":4,"b":1},"C":{"a":2,"b":8},"D":{"a":8,"b":2}},"conditions":["nonSeqFull","nonSeqPartial","seqNoFeedback","seqFeedback"],"classroomPairings":[["A","B"],["C","D"]],"coinWeights":[0.2,0.5,0.8],"subjectId":"A2FGKKWP33DFWS","assignmentId":"3ZDAD0O1T2ZKRQKDZTHZIHEQU0MXTS","hitId":"3YGE63DIN8J20XK20KS1742RQF60WK","url":"https://gershmanlab.com/experiments/alicia/teaching/experiment/?hitId=3YGE63DIN8J20XK20KS1742RQF60WK&workerId=A2FGKKWP33DFWS&assignmentId=3ZDAD0O1T2ZKRQKDZTHZIHEQU0MXTS&a=1DDZ8&tp_a=1DDZ8&b=3ZDAD0O1T2ZKRQKDZTHZIHEQU0MXTS&tp_b=3ZDAD0O1T2ZKRQKDZTHZIHEQU0MXTS&c=365198&tp_c=365198"},{"rt":null,"stimulus":"Examples sent to student! Waiting for student...","response":null,"trial_type":"html-keyboard-response","trial_index":13,"time_elapsed":343214,"internal_node_id":"0.0-12.0","params":{"nStudents":24,"maxFlips":30,"completionMinutes":45,"basePay":8,"maxBonus":9,"perTrialBonus":0.5,"perTrialBonusThreshold":0.1,"exampleCost":0.01},"classroomParams":{"A":{"a":1,"b":4},"B":{"a":4,"b":1},"C":{"a":2,"b":8},"D":{"a":8,"b":2}},"conditions":["nonSeqFull","nonSeqPartial","seqNoFeedback","seqFeedback"],"classroomPairings":[["A","B"],["C","D"]],"coinWeights":[0.2,0.5,0.8],"subjectId":"A2FGKKWP33DFWS","assignmentId":"3ZDAD0O1T2ZKRQKDZTHZIHEQU0MXTS","hitId":"3YGE63DIN8J20XK20KS1742RQF60WK","url":"https://gershmanlab.com/experiments/alicia/teaching/experiment/?hitId=3YGE63DIN8J20XK20KS1742RQF60WK&workerId=A2FGKKWP33DFWS&assignmentId=3ZDAD0O1T2ZKRQKDZTHZIHEQU0MXTS&a=1DDZ8&tp_a=1DDZ8&b=3ZDAD0O1T2ZKRQKDZTHZIHEQU0MXTS&tp_b=3ZDAD0O1T2ZKRQKDZTHZIHEQU0MXTS&c=365198&tp_c=365198"},{"rt":7538,"stimulus":"\n                <p>Student 1's first guess for coin weight: <b style=\"color:Tomato\";>0.17</b></p>\n                <p>Student 1's second guess for coin weight: <b style=\"color:Tomato\";>0.45</b></p>\n                <p>You received a bonus of <b>$0.00</b> based on the student's second guess.</p>\n                <p>Total bonus so far: <b>$0.00</b></p>\n                <p>Press any key to continue.</p>\n                ","response":" ","trial_type":"html-keyboard-response","trial_index":14,"time_elapsed":350754,"internal_node_id":"0.0-13.0","params":{"nStudents":24,"maxFlips":30,"completionMinutes":45,"basePay":8,"maxBonus":9,"perTrialBonus":0.5,"perTrialBonusThreshold":0.1,"exampleCost":0.01},"classroomParams":{"A":{"a":1,"b":4},"B":{"a":4,"b":1},"C":{"a":2,"b":8},"D":{"a":8,"b":2}},"conditions":["nonSeqFull","nonSeqPartial","seqNoFeedback","seqFeedback"],"classroomPairings":[["A","B"],["C","D"]],"coinWeights":[0.2,0.5,0.8],"subjectId":"A2FGKKWP33DFWS","assignmentId":"3ZDAD0O1T2ZKRQKDZTHZIHEQU0MXTS","hitId":"3YGE63DIN8J20XK20KS1742RQF60WK","url":"https://gershmanlab.com/experiments/alicia/teaching/experiment/?hitId=3YGE63DIN8J20XK20KS1742RQF60WK&workerId=A2FGKKWP33DFWS&assignmentId=3ZDAD0O1T2ZKRQKDZTHZIHEQU0MXTS&a=1DDZ8&tp_a=1DDZ8&b=3ZDAD0O1T2ZKRQKDZTHZIHEQU0MXTS&tp_b=3ZDAD0O1T2ZKRQKDZTHZIHEQU0MXTS&c=365198&tp_c=365198"},{"rt":null,"stimulus":"<div style=\"font-size:60px;\">Next student</div>","response":null,"trial_type":"html-keyboard-response","trial_index":15,"time_elapsed":352756,"internal_node_id":"0.0-14.0-0.0","params":{"nStudents":24,"maxFlips":30,"completionMinutes":45,"basePay":8,"maxBonus":9,"perTrialBonus":0.5,"perTrialBonusThreshold":0.1,"exampleCost":0.01},"classroomParams":{"A":{"a":1,"b":4},"B":{"a":4,"b":1},"C":{"a":2,"b":8},"D":{"a":8,"b":2}},"conditions":["nonSeqFull","nonSeqPartial","seqNoFeedback","seqFeedback"],"classroomPairings":[["A","B"],["C","D"]],"coinWeights":[0.2,0.5,0.8],"subjectId":"A2FGKKWP33DFWS","assignmentId":"3ZDAD0O1T2ZKRQKDZTHZIHEQU0MXTS","hitId":"3YGE63DIN8J20XK20KS1742RQF60WK","url":"https://gershmanlab.com/experiments/alicia/teaching/experiment/?hitId=3YGE63DIN8J20XK20KS1742RQF60WK&workerId=A2FGKKWP33DFWS&assignmentId=3ZDAD0O1T2ZKRQKDZTHZIHEQU0MXTS&a=1DDZ8&tp_a=1DDZ8&b=3ZDAD0O1T2ZKRQKDZTHZIHEQU0MXTS&tp_b=3ZDAD0O1T2ZKRQKDZTHZIHEQU0MXTS&c=365198&tp_c=365198"},{"rt":5426,"stimulus":"\n            <h4 style=\"color:Orange;\">Student 2</h4>\n            <h2>The weight of your coin is <b style=\"color:Tomato;\">0.2</b>.</h2>\n            <p>In this block, you will be giving <b>two</b> sets of examples to Student 2.</p>\n                <p>You will receive feedback at the end of the block.</p>\n            ","response":0,"trial_type":"html-button-response","trial_index":16,"time_elapsed":358183,"internal_node_id":"0.0-15.0","params":{"nStudents":24,"maxFlips":30,"completionMinutes":45,"basePay":8,"maxBonus":9,"perTrialBonus":0.5,"perTrialBonusThreshold":0.1,"exampleCost":0.01},"classroomParams":{"A":{"a":1,"b":4},"B":{"a":4,"b":1},"C":{"a":2,"b":8},"D":{"a":8,"b":2}},"conditions":["nonSeqFull","nonSeqPartial","seqNoFeedback","seqFeedback"],"classroomPairings":[["A","B"],["C","D"]],"coinWeights":[0.2,0.5,0.8],"subjectId":"A2FGKKWP33DFWS","assignmentId":"3ZDAD0O1T2ZKRQKDZTHZIHEQU0MXTS","hitId":"3YGE63DIN8J20XK20KS1742RQF60WK","url":"https://gershmanlab.com/experiments/alicia/teaching/experiment/?hitId=3YGE63DIN8J20XK20KS1742RQF60WK&workerId=A2FGKKWP33DFWS&assignmentId=3ZDAD0O1T2ZKRQKDZTHZIHEQU0MXTS&a=1DDZ8&tp_a=1DDZ8&b=3ZDAD0O1T2ZKRQKDZTHZIHEQU0MXTS&tp_b=3ZDAD0O1T2ZKRQKDZTHZIHEQU0MXTS&c=365198&tp_c=365198"},{"rt":30250,"response":{"heads":"2","tails":"0"},"type":"response","condition":"seqNoFeedback","trueTheta":0.2,"classrooms":["A","B"],"studentTrueClassroom":"B","exampleSet":"first","trial_type":"survey-html-form","trial_index":17,"time_elapsed":388434,"internal_node_id":"0.0-16.0-0.0","params":{"nStudents":24,"maxFlips":30,"completionMinutes":45,"basePay":8,"maxBonus":9,"perTrialBonus":0.5,"perTrialBonusThreshold":0.1,"exampleCost":0.01},"classroomParams":{"A":{"a":1,"b":4},"B":{"a":4,"b":1},"C":{"a":2,"b":8},"D":{"a":8,"b":2}},"conditions":["nonSeqFull","nonSeqPartial","seqNoFeedback","seqFeedback"],"classroomPairings":[["A","B"],["C","D"]],"coinWeights":[0.2,0.5,0.8],"subjectId":"A2FGKKWP33DFWS","assignmentId":"3ZDAD0O1T2ZKRQKDZTHZIHEQU0MXTS","hitId":"3YGE63DIN8J20XK20KS1742RQF60WK","url":"https://gershmanlab.com/experiments/alicia/teaching/experiment/?hitId=3YGE63DIN8J20XK20KS1742RQF60WK&workerId=A2FGKKWP33DFWS&assignmentId=3ZDAD0O1T2ZKRQKDZTHZIHEQU0MXTS&a=1DDZ8&tp_a=1DDZ8&b=3ZDAD0O1T2ZKRQKDZTHZIHEQU0MXTS&tp_b=3ZDAD0O1T2ZKRQKDZTHZIHEQU0MXTS&c=365198&tp_c=365198","heads":2,"tails":0,"studentIndex":1,"studentTrueHypers":{"a":4,"b":1},"studentGuess":0.8571428571428571,"delta":0.657142857142857,"totalExamples":2,"bonusSoFar":0},{"rt":null,"stimulus":"Sending examples to student... ","response":null,"trial_type":"html-keyboard-response","trial_index":18,"time_elapsed":390450,"internal_node_id":"0.0-17.0","params":{"nStudents":24,"maxFlips":30,"completionMinutes":45,"basePay":8,"maxBonus":9,"perTrialBonus":0.5,"perTrialBonusThreshold":0.1,"exampleCost":0.01},"classroomParams":{"A":{"a":1,"b":4},"B":{"a":4,"b":1},"C":{"a":2,"b":8},"D":{"a":8,"b":2}},"conditions":["nonSeqFull","nonSeqPartial","seqNoFeedback","seqFeedback"],"classroomPairings":[["A","B"],["C","D"]],"coinWeights":[0.2,0.5,0.8],"subjectId":"A2FGKKWP33DFWS","assignmentId":"3ZDAD0O1T2ZKRQKDZTHZIHEQU0MXTS","hitId":"3YGE63DIN8J20XK20KS1742RQF60WK","url":"https://gershmanlab.com/experiments/alicia/teaching/experiment/?hitId=3YGE63DIN8J20XK20KS1742RQF60WK&workerId=A2FGKKWP33DFWS&assignmentId=3ZDAD0O1T2ZKRQKDZTHZIHEQU0MXTS&a=1DDZ8&tp_a=1DDZ8&b=3ZDAD0O1T2ZKRQKDZTHZIHEQU0MXTS&tp_b=3ZDAD0O1T2ZKRQKDZTHZIHEQU0MXTS&c=365198&tp_c=365198"},{"rt":null,"stimulus":"Examples sent to student! Waiting for student...","response":null,"trial_type":"html-keyboard-response","trial_index":19,"time_elapsed":394963,"internal_node_id":"0.0-18.0","params":{"nStudents":24,"maxFlips":30,"completionMinutes":45,"basePay":8,"maxBonus":9,"perTrialBonus":0.5,"perTrialBonusThreshold":0.1,"exampleCost":0.01},"classroomParams":{"A":{"a":1,"b":4},"B":{"a":4,"b":1},"C":{"a":2,"b":8},"D":{"a":8,"b":2}},"conditions":["nonSeqFull","nonSeqPartial","seqNoFeedback","seqFeedback"],"classroomPairings":[["A","B"],["C","D"]],"coinWeights":[0.2,0.5,0.8],"subjectId":"A2FGKKWP33DFWS","assignmentId":"3ZDAD0O1T2ZKRQKDZTHZIHEQU0MXTS","hitId":"3YGE63DIN8J20XK20KS1742RQF60WK","url":"https://gershmanlab.com/experiments/alicia/teaching/experiment/?hitId=3YGE63DIN8J20XK20KS1742RQF60WK&workerId=A2FGKKWP33DFWS&assignmentId=3ZDAD0O1T2ZKRQKDZTHZIHEQU0MXTS&a=1DDZ8&tp_a=1DDZ8&b=3ZDAD0O1T2ZKRQKDZTHZIHEQU0MXTS&tp_b=3ZDAD0O1T2ZKRQKDZTHZIHEQU0MXTS&c=365198&tp_c=365198"},{"rt":25748,"response":{"heads":"2","tails":"0"},"type":"response","condition":"seqNoFeedback","trueTheta":0.2,"classrooms":["A","B"],"studentTrueClassroom":"B","exampleSet":"second","trial_type":"survey-html-form","trial_index":20,"time_elapsed":420713,"internal_node_id":"0.0-19.0-0.0","params":{"nStudents":24,"maxFlips":30,"completionMinutes":45,"basePay":8,"maxBonus":9,"perTrialBonus":0.5,"perTrialBonusThreshold":0.1,"exampleCost":0.01},"classroomParams":{"A":{"a":1,"b":4},"B":{"a":4,"b":1},"C":{"a":2,"b":8},"D":{"a":8,"b":2}},"conditions":["nonSeqFull","nonSeqPartial","seqNoFeedback","seqFeedback"],"classroomPairings":[["A","B"],["C","D"]],"coinWeights":[0.2,0.5,0.8],"subjectId":"A2FGKKWP33DFWS","assignmentId":"3ZDAD0O1T2ZKRQKDZTHZIHEQU0MXTS","hitId":"3YGE63DIN8J20XK20KS1742RQF60WK","url":"https://gershmanlab.com/experiments/alicia/teaching/experiment/?hitId=3YGE63DIN8J20XK20KS1742RQF60WK&workerId=A2FGKKWP33DFWS&assignmentId=3ZDAD0O1T2ZKRQKDZTHZIHEQU0MXTS&a=1DDZ8&tp_a=1DDZ8&b=3ZDAD0O1T2ZKRQKDZTHZIHEQU0MXTS&tp_b=3ZDAD0O1T2ZKRQKDZTHZIHEQU0MXTS&c=365198&tp_c=365198","firstResponseHeads":2,"firstResponseTails":0,"secondResponseHeads":2,"secondResponseTails":0,"studentIndex":1,"studentTrueHypers":{"a":4,"b":1},"studentGuess":0.8888888888888888,"delta":0.6888888888888889,"bonus":0,"bonusSoFar":0,"totalExamples":4},{"rt":null,"stimulus":"Sending examples to student... ","response":null,"trial_type":"html-keyboard-response","trial_index":21,"time_elapsed":421978,"internal_node_id":"0.0-20.0","params":{"nStudents":24,"maxFlips":30,"completionMinutes":45,"basePay":8,"maxBonus":9,"perTrialBonus":0.5,"perTrialBonusThreshold":0.1,"exampleCost":0.01},"classroomParams":{"A":{"a":1,"b":4},"B":{"a":4,"b":1},"C":{"a":2,"b":8},"D":{"a":8,"b":2}},"conditions":["nonSeqFull","nonSeqPartial","seqNoFeedback","seqFeedback"],"classroomPairings":[["A","B"],["C","D"]],"coinWeights":[0.2,0.5,0.8],"subjectId":"A2FGKKWP33DFWS","assignmentId":"3ZDAD0O1T2ZKRQKDZTHZIHEQU0MXTS","hitId":"3YGE63DIN8J20XK20KS1742RQF60WK","url":"https://gershmanlab.com/experiments/alicia/teaching/experiment/?hitId=3YGE63DIN8J20XK20KS1742RQF60WK&workerId=A2FGKKWP33DFWS&assignmentId=3ZDAD0O1T2ZKRQKDZTHZIHEQU0MXTS&a=1DDZ8&tp_a=1DDZ8&b=3ZDAD0O1T2ZKRQKDZTHZIHEQU0MXTS&tp_b=3ZDAD0O1T2ZKRQKDZTHZIHEQU0MXTS&c=365198&tp_c=365198"},{"rt":null,"stimulus":"Examples sent to student! Waiting for student...","response":null,"trial_type":"html-keyboard-response","trial_index":22,"time_elapsed":426481,"internal_node_id":"0.0-21.0","params":{"nStudents":24,"maxFlips":30,"completionMinutes":45,"basePay":8,"maxBonus":9,"perTrialBonus":0.5,"perTrialBonusThreshold":0.1,"exampleCost":0.01},"classroomParams":{"A":{"a":1,"b":4},"B":{"a":4,"b":1},"C":{"a":2,"b":8},"D":{"a":8,"b":2}},"conditions":["nonSeqFull","nonSeqPartial","seqNoFeedback","seqFeedback"],"classroomPairings":[["A","B"],["C","D"]],"coinWeights":[0.2,0.5,0.8],"subjectId":"A2FGKKWP33DFWS","assignmentId":"3ZDAD0O1T2ZKRQKDZTHZIHEQU0MXTS","hitId":"3YGE63DIN8J20XK20KS1742RQF60WK","url":"https://gershmanlab.com/experiments/alicia/teaching/experiment/?hitId=3YGE63DIN8J20XK20KS1742RQF60WK&workerId=A2FGKKWP33DFWS&assignmentId=3ZDAD0O1T2ZKRQKDZTHZIHEQU0MXTS&a=1DDZ8&tp_a=1DDZ8&b=3ZDAD0O1T2ZKRQKDZTHZIHEQU0MXTS&tp_b=3ZDAD0O1T2ZKRQKDZTHZIHEQU0MXTS&c=365198&tp_c=365198"},{"rt":6752,"stimulus":"\n                <p>Student 2's first guess for coin weight: <b style=\"color:Tomato\";>0.86</b></p>\n                <p>Student 2's second guess for coin weight: <b style=\"color:Tomato\";>0.89</b></p>\n                <p>You received a bonus of <b>$0.00</b> based on the student's second guess.</p>\n                <p>Total bonus so far: <b>$0.00</b></p>\n                <p>Press any key to continue.</p>\n                ","response":" ","trial_type":"html-keyboard-response","trial_index":23,"time_elapsed":433234,"internal_node_id":"0.0-22.0","params":{"nStudents":24,"maxFlips":30,"completionMinutes":45,"basePay":8,"maxBonus":9,"perTrialBonus":0.5,"perTrialBonusThreshold":0.1,"exampleCost":0.01},"classroomParams":{"A":{"a":1,"b":4},"B":{"a":4,"b":1},"C":{"a":2,"b":8},"D":{"a":8,"b":2}},"conditions":["nonSeqFull","nonSeqPartial","seqNoFeedback","seqFeedback"],"classroomPairings":[["A","B"],["C","D"]],"coinWeights":[0.2,0.5,0.8],"subjectId":"A2FGKKWP33DFWS","assignmentId":"3ZDAD0O1T2ZKRQKDZTHZIHEQU0MXTS","hitId":"3YGE63DIN8J20XK20KS1742RQF60WK","url":"https://gershmanlab.com/experiments/alicia/teaching/experiment/?hitId=3YGE63DIN8J20XK20KS1742RQF60WK&workerId=A2FGKKWP33DFWS&assignmentId=3ZDAD0O1T2ZKRQKDZTHZIHEQU0MXTS&a=1DDZ8&tp_a=1DDZ8&b=3ZDAD0O1T2ZKRQKDZTHZIHEQU0MXTS&tp_b=3ZDAD0O1T2ZKRQKDZTHZIHEQU0MXTS&c=365198&tp_c=365198"},{"rt":null,"stimulus":"<div style=\"font-size:60px;\">Next student</div>","response":null,"trial_type":"html-keyboard-response","trial_index":24,"time_elapsed":435750,"internal_node_id":"0.0-23.0-0.0","params":{"nStudents":24,"maxFlips":30,"completionMinutes":45,"basePay":8,"maxBonus":9,"perTrialBonus":0.5,"perTrialBonusThreshold":0.1,"exampleCost":0.01},"classroomParams":{"A":{"a":1,"b":4},"B":{"a":4,"b":1},"C":{"a":2,"b":8},"D":{"a":8,"b":2}},"conditions":["nonSeqFull","nonSeqPartial","seqNoFeedback","seqFeedback"],"classroomPairings":[["A","B"],["C","D"]],"coinWeights":[0.2,0.5,0.8],"subjectId":"A2FGKKWP33DFWS","assignmentId":"3ZDAD0O1T2ZKRQKDZTHZIHEQU0MXTS","hitId":"3YGE63DIN8J20XK20KS1742RQF60WK","url":"https://gershmanlab.com/experiments/alicia/teaching/experiment/?hitId=3YGE63DIN8J20XK20KS1742RQF60WK&workerId=A2FGKKWP33DFWS&assignmentId=3ZDAD0O1T2ZKRQKDZTHZIHEQU0MXTS&a=1DDZ8&tp_a=1DDZ8&b=3ZDAD0O1T2ZKRQKDZTHZIHEQU0MXTS&tp_b=3ZDAD0O1T2ZKRQKDZTHZIHEQU0MXTS&c=365198&tp_c=365198"},{"rt":3882,"stimulus":"\n            <h4 style=\"color:Orange;\">Student 3</h4>\n            <h2>The weight of your coin is <b style=\"color:Tomato;\">0.2</b>.</h2>\n            <p>In this block, you will be giving <b>one</b> set of examples to Student 3.</p>\n                <p>You will receive feedback at the end of the block.</p>\n            ","response":0,"trial_type":"html-button-response","trial_index":25,"time_elapsed":439633,"internal_node_id":"0.0-24.0","params":{"nStudents":24,"maxFlips":30,"completionMinutes":45,"basePay":8,"maxBonus":9,"perTrialBonus":0.5,"perTrialBonusThreshold":0.1,"exampleCost":0.01},"classroomParams":{"A":{"a":1,"b":4},"B":{"a":4,"b":1},"C":{"a":2,"b":8},"D":{"a":8,"b":2}},"conditions":["nonSeqFull","nonSeqPartial","seqNoFeedback","seqFeedback"],"classroomPairings":[["A","B"],["C","D"]],"coinWeights":[0.2,0.5,0.8],"subjectId":"A2FGKKWP33DFWS","assignmentId":"3ZDAD0O1T2ZKRQKDZTHZIHEQU0MXTS","hitId":"3YGE63DIN8J20XK20KS1742RQF60WK","url":"https://gershmanlab.com/experiments/alicia/teaching/experiment/?hitId=3YGE63DIN8J20XK20KS1742RQF60WK&workerId=A2FGKKWP33DFWS&assignmentId=3ZDAD0O1T2ZKRQKDZTHZIHEQU0MXTS&a=1DDZ8&tp_a=1DDZ8&b=3ZDAD0O1T2ZKRQKDZTHZIHEQU0MXTS&tp_b=3ZDAD0O1T2ZKRQKDZTHZIHEQU0MXTS&c=365198&tp_c=365198"},{"rt":16705,"response":{"heads":"2","tails":"8"},"type":"response","condition":"nonSeqPartial","trueTheta":0.2,"classrooms":["A","B"],"studentTrueClassroom":"A","exampleSet":"first","trial_type":"survey-html-form","trial_index":26,"time_elapsed":456339,"internal_node_id":"0.0-25.0-0.0","params":{"nStudents":24,"maxFlips":30,"completionMinutes":45,"basePay":8,"maxBonus":9,"perTrialBonus":0.5,"perTrialBonusThreshold":0.1,"exampleCost":0.01},"classroomParams":{"A":{"a":1,"b":4},"B":{"a":4,"b":1},"C":{"a":2,"b":8},"D":{"a":8,"b":2}},"conditions":["nonSeqFull","nonSeqPartial","seqNoFeedback","seqFeedback"],"classroomPairings":[["A","B"],["C","D"]],"coinWeights":[0.2,0.5,0.8],"subjectId":"A2FGKKWP33DFWS","assignmentId":"3ZDAD0O1T2ZKRQKDZTHZIHEQU0MXTS","hitId":"3YGE63DIN8J20XK20KS1742RQF60WK","url":"https://gershmanlab.com/experiments/alicia/teaching/experiment/?hitId=3YGE63DIN8J20XK20KS1742RQF60WK&workerId=A2FGKKWP33DFWS&assignmentId=3ZDAD0O1T2ZKRQKDZTHZIHEQU0MXTS&a=1DDZ8&tp_a=1DDZ8&b=3ZDAD0O1T2ZKRQKDZTHZIHEQU0MXTS&tp_b=3ZDAD0O1T2ZKRQKDZTHZIHEQU0MXTS&c=365198&tp_c=365198","heads":2,"tails":8,"studentIndex":2,"studentTrueHypers":{"a":1,"b":4},"studentGuess":0.2,"delta":0,"totalExamples":10,"bonus":0.4,"bonusSoFar":0.4},{"rt":null,"stimulus":"Sending examples to student... ","response":null,"trial_type":"html-keyboard-response","trial_index":27,"time_elapsed":458103,"internal_node_id":"0.0-26.0","params":{"nStudents":24,"maxFlips":30,"completionMinutes":45,"basePay":8,"maxBonus":9,"perTrialBonus":0.5,"perTrialBonusThreshold":0.1,"exampleCost":0.01},"classroomParams":{"A":{"a":1,"b":4},"B":{"a":4,"b":1},"C":{"a":2,"b":8},"D":{"a":8,"b":2}},"conditions":["nonSeqFull","nonSeqPartial","seqNoFeedback","seqFeedback"],"classroomPairings":[["A","B"],["C","D"]],"coinWeights":[0.2,0.5,0.8],"subjectId":"A2FGKKWP33DFWS","assignmentId":"3ZDAD0O1T2ZKRQKDZTHZIHEQU0MXTS","hitId":"3YGE63DIN8J20XK20KS1742RQF60WK","url":"https://gershmanlab.com/experiments/alicia/teaching/experiment/?hitId=3YGE63DIN8J20XK20KS1742RQF60WK&workerId=A2FGKKWP33DFWS&assignmentId=3ZDAD0O1T2ZKRQKDZTHZIHEQU0MXTS&a=1DDZ8&tp_a=1DDZ8&b=3ZDAD0O1T2ZKRQKDZTHZIHEQU0MXTS&tp_b=3ZDAD0O1T2ZKRQKDZTHZIHEQU0MXTS&c=365198&tp_c=365198"},{"rt":null,"stimulus":"Examples sent to student! Waiting for student...","response":null,"trial_type":"html-keyboard-response","trial_index":28,"time_elapsed":463605,"internal_node_id":"0.0-27.0","params":{"nStudents":24,"maxFlips":30,"completionMinutes":45,"basePay":8,"maxBonus":9,"perTrialBonus":0.5,"perTrialBonusThreshold":0.1,"exampleCost":0.01},"classroomParams":{"A":{"a":1,"b":4},"B":{"a":4,"b":1},"C":{"a":2,"b":8},"D":{"a":8,"b":2}},"conditions":["nonSeqFull","nonSeqPartial","seqNoFeedback","seqFeedback"],"classroomPairings":[["A","B"],["C","D"]],"coinWeights":[0.2,0.5,0.8],"subjectId":"A2FGKKWP33DFWS","assignmentId":"3ZDAD0O1T2ZKRQKDZTHZIHEQU0MXTS","hitId":"3YGE63DIN8J20XK20KS1742RQF60WK","url":"https://gershmanlab.com/experiments/alicia/teaching/experiment/?hitId=3YGE63DIN8J20XK20KS1742RQF60WK&workerId=A2FGKKWP33DFWS&assignmentId=3ZDAD0O1T2ZKRQKDZTHZIHEQU0MXTS&a=1DDZ8&tp_a=1DDZ8&b=3ZDAD0O1T2ZKRQKDZTHZIHEQU0MXTS&tp_b=3ZDAD0O1T2ZKRQKDZTHZIHEQU0MXTS&c=365198&tp_c=365198"},{"rt":7492,"stimulus":"\n                <p>Student's guess for coin weight: <b style=\"color:Tomato;\">0.20</b></p>\n                <p>You received a bonus of <b>$0.4</b>. Total bonus so far: <b>$0.40</b></b></p>\n                <p> Press any key to continue.</p>\n                ","response":" ","trial_type":"html-keyboard-response","trial_index":29,"time_elapsed":471098,"internal_node_id":"0.0-28.0","params":{"nStudents":24,"maxFlips":30,"completionMinutes":45,"basePay":8,"maxBonus":9,"perTrialBonus":0.5,"perTrialBonusThreshold":0.1,"exampleCost":0.01},"classroomParams":{"A":{"a":1,"b":4},"B":{"a":4,"b":1},"C":{"a":2,"b":8},"D":{"a":8,"b":2}},"conditions":["nonSeqFull","nonSeqPartial","seqNoFeedback","seqFeedback"],"classroomPairings":[["A","B"],["C","D"]],"coinWeights":[0.2,0.5,0.8],"subjectId":"A2FGKKWP33DFWS","assignmentId":"3ZDAD0O1T2ZKRQKDZTHZIHEQU0MXTS","hitId":"3YGE63DIN8J20XK20KS1742RQF60WK","url":"https://gershmanlab.com/experiments/alicia/teaching/experiment/?hitId=3YGE63DIN8J20XK20KS1742RQF60WK&workerId=A2FGKKWP33DFWS&assignmentId=3ZDAD0O1T2ZKRQKDZTHZIHEQU0MXTS&a=1DDZ8&tp_a=1DDZ8&b=3ZDAD0O1T2ZKRQKDZTHZIHEQU0MXTS&tp_b=3ZDAD0O1T2ZKRQKDZTHZIHEQU0MXTS&c=365198&tp_c=365198"},{"rt":null,"stimulus":"<div style=\"font-size:60px;\">Next student</div>","response":null,"trial_type":"html-keyboard-response","trial_index":30,"time_elapsed":473600,"internal_node_id":"0.0-29.0-0.0","params":{"nStudents":24,"maxFlips":30,"completionMinutes":45,"basePay":8,"maxBonus":9,"perTrialBonus":0.5,"perTrialBonusThreshold":0.1,"exampleCost":0.01},"classroomParams":{"A":{"a":1,"b":4},"B":{"a":4,"b":1},"C":{"a":2,"b":8},"D":{"a":8,"b":2}},"conditions":["nonSeqFull","nonSeqPartial","seqNoFeedback","seqFeedback"],"classroomPairings":[["A","B"],["C","D"]],"coinWeights":[0.2,0.5,0.8],"subjectId":"A2FGKKWP33DFWS","assignmentId":"3ZDAD0O1T2ZKRQKDZTHZIHEQU0MXTS","hitId":"3YGE63DIN8J20XK20KS1742RQF60WK","url":"https://gershmanlab.com/experiments/alicia/teaching/experiment/?hitId=3YGE63DIN8J20XK20KS1742RQF60WK&workerId=A2FGKKWP33DFWS&assignmentId=3ZDAD0O1T2ZKRQKDZTHZIHEQU0MXTS&a=1DDZ8&tp_a=1DDZ8&b=3ZDAD0O1T2ZKRQKDZTHZIHEQU0MXTS&tp_b=3ZDAD0O1T2ZKRQKDZTHZIHEQU0MXTS&c=365198&tp_c=365198"},{"rt":2277,"stimulus":"\n            <h4 style=\"color:Orange;\">Student 4</h4>\n            <h2>The weight of your coin is <b style=\"color:Tomato;\">0.8</b>.</h2>\n            <p>In this block, you will be giving <b>two</b> sets of examples to Student 4.</p>\n                <p>You will receive feedback at the end of the block.</p>\n            ","response":0,"trial_type":"html-button-response","trial_index":31,"time_elapsed":475878,"internal_node_id":"0.0-30.0","params":{"nStudents":24,"maxFlips":30,"completionMinutes":45,"basePay":8,"maxBonus":9,"perTrialBonus":0.5,"perTrialBonusThreshold":0.1,"exampleCost":0.01},"classroomParams":{"A":{"a":1,"b":4},"B":{"a":4,"b":1},"C":{"a":2,"b":8},"D":{"a":8,"b":2}},"conditions":["nonSeqFull","nonSeqPartial","seqNoFeedback","seqFeedback"],"classroomPairings":[["A","B"],["C","D"]],"coinWeights":[0.2,0.5,0.8],"subjectId":"A2FGKKWP33DFWS","assignmentId":"3ZDAD0O1T2ZKRQKDZTHZIHEQU0MXTS","hitId":"3YGE63DIN8J20XK20KS1742RQF60WK","url":"https://gershmanlab.com/experiments/alicia/teaching/experiment/?hitId=3YGE63DIN8J20XK20KS1742RQF60WK&workerId=A2FGKKWP33DFWS&assignmentId=3ZDAD0O1T2ZKRQKDZTHZIHEQU0MXTS&a=1DDZ8&tp_a=1DDZ8&b=3ZDAD0O1T2ZKRQKDZTHZIHEQU0MXTS&tp_b=3ZDAD0O1T2ZKRQKDZTHZIHEQU0MXTS&c=365198&tp_c=365198"},{"rt":14745,"response":{"heads":"10","tails":"2"},"type":"response","condition":"seqNoFeedback","trueTheta":0.8,"classrooms":["C","D"],"studentTrueClassroom":"D","exampleSet":"first","trial_type":"survey-html-form","trial_index":32,"time_elapsed":490624,"internal_node_id":"0.0-31.0-0.0","params":{"nStudents":24,"maxFlips":30,"completionMinutes":45,"basePay":8,"maxBonus":9,"perTrialBonus":0.5,"perTrialBonusThreshold":0.1,"exampleCost":0.01},"classroomParams":{"A":{"a":1,"b":4},"B":{"a":4,"b":1},"C":{"a":2,"b":8},"D":{"a":8,"b":2}},"conditions":["nonSeqFull","nonSeqPartial","seqNoFeedback","seqFeedback"],"classroomPairings":[["A","B"],["C","D"]],"coinWeights":[0.2,0.5,0.8],"subjectId":"A2FGKKWP33DFWS","assignmentId":"3ZDAD0O1T2ZKRQKDZTHZIHEQU0MXTS","hitId":"3YGE63DIN8J20XK20KS1742RQF60WK","url":"https://gershmanlab.com/experiments/alicia/teaching/experiment/?hitId=3YGE63DIN8J20XK20KS1742RQF60WK&workerId=A2FGKKWP33DFWS&assignmentId=3ZDAD0O1T2ZKRQKDZTHZIHEQU0MXTS&a=1DDZ8&tp_a=1DDZ8&b=3ZDAD0O1T2ZKRQKDZTHZIHEQU0MXTS&tp_b=3ZDAD0O1T2ZKRQKDZTHZIHEQU0MXTS&c=365198&tp_c=365198","heads":10,"tails":2,"studentIndex":3,"studentTrueHypers":{"a":8,"b":2},"studentGuess":0.8181818181818182,"delta":0.018181818181818188,"totalExamples":12,"bonusSoFar":0.4},{"rt":null,"stimulus":"Sending examples to student... ","response":null,"trial_type":"html-keyboard-response","trial_index":33,"time_elapsed":492382,"internal_node_id":"0.0-32.0","params":{"nStudents":24,"maxFlips":30,"completionMinutes":45,"basePay":8,"maxBonus":9,"perTrialBonus":0.5,"perTrialBonusThreshold":0.1,"exampleCost":0.01},"classroomParams":{"A":{"a":1,"b":4},"B":{"a":4,"b":1},"C":{"a":2,"b":8},"D":{"a":8,"b":2}},"conditions":["nonSeqFull","nonSeqPartial","seqNoFeedback","seqFeedback"],"classroomPairings":[["A","B"],["C","D"]],"coinWeights":[0.2,0.5,0.8],"subjectId":"A2FGKKWP33DFWS","assignmentId":"3ZDAD0O1T2ZKRQKDZTHZIHEQU0MXTS","hitId":"3YGE63DIN8J20XK20KS1742RQF60WK","url":"https://gershmanlab.com/experiments/alicia/teaching/experiment/?hitId=3YGE63DIN8J20XK20KS1742RQF60WK&workerId=A2FGKKWP33DFWS&assignmentId=3ZDAD0O1T2ZKRQKDZTHZIHEQU0MXTS&a=1DDZ8&tp_a=1DDZ8&b=3ZDAD0O1T2ZKRQKDZTHZIHEQU0MXTS&tp_b=3ZDAD0O1T2ZKRQKDZTHZIHEQU0MXTS&c=365198&tp_c=365198"},{"rt":null,"stimulus":"Examples sent to student! Waiting for student...","response":null,"trial_type":"html-keyboard-response","trial_index":34,"time_elapsed":498398,"internal_node_id":"0.0-33.0","params":{"nStudents":24,"maxFlips":30,"completionMinutes":45,"basePay":8,"maxBonus":9,"perTrialBonus":0.5,"perTrialBonusThreshold":0.1,"exampleCost":0.01},"classroomParams":{"A":{"a":1,"b":4},"B":{"a":4,"b":1},"C":{"a":2,"b":8},"D":{"a":8,"b":2}},"conditions":["nonSeqFull","nonSeqPartial","seqNoFeedback","seqFeedback"],"classroomPairings":[["A","B"],["C","D"]],"coinWeights":[0.2,0.5,0.8],"subjectId":"A2FGKKWP33DFWS","assignmentId":"3ZDAD0O1T2ZKRQKDZTHZIHEQU0MXTS","hitId":"3YGE63DIN8J20XK20KS1742RQF60WK","url":"https://gershmanlab.com/experiments/alicia/teaching/experiment/?hitId=3YGE63DIN8J20XK20KS1742RQF60WK&workerId=A2FGKKWP33DFWS&assignmentId=3ZDAD0O1T2ZKRQKDZTHZIHEQU0MXTS&a=1DDZ8&tp_a=1DDZ8&b=3ZDAD0O1T2ZKRQKDZTHZIHEQU0MXTS&tp_b=3ZDAD0O1T2ZKRQKDZTHZIHEQU0MXTS&c=365198&tp_c=365198"},{"rt":14901,"response":{"heads":"8","tails":"2"},"type":"response","condition":"seqNoFeedback","trueTheta":0.8,"classrooms":["C","D"],"studentTrueClassroom":"D","exampleSet":"second","trial_type":"survey-html-form","trial_index":35,"time_elapsed":513300,"internal_node_id":"0.0-34.0-0.0","params":{"nStudents":24,"maxFlips":30,"completionMinutes":45,"basePay":8,"maxBonus":9,"perTrialBonus":0.5,"perTrialBonusThreshold":0.1,"exampleCost":0.01},"classroomParams":{"A":{"a":1,"b":4},"B":{"a":4,"b":1},"C":{"a":2,"b":8},"D":{"a":8,"b":2}},"conditions":["nonSeqFull","nonSeqPartial","seqNoFeedback","seqFeedback"],"classroomPairings":[["A","B"],["C","D"]],"coinWeights":[0.2,0.5,0.8],"subjectId":"A2FGKKWP33DFWS","assignmentId":"3ZDAD0O1T2ZKRQKDZTHZIHEQU0MXTS","hitId":"3YGE63DIN8J20XK20KS1742RQF60WK","url":"https://gershmanlab.com/experiments/alicia/teaching/experiment/?hitId=3YGE63DIN8J20XK20KS1742RQF60WK&workerId=A2FGKKWP33DFWS&assignmentId=3ZDAD0O1T2ZKRQKDZTHZIHEQU0MXTS&a=1DDZ8&tp_a=1DDZ8&b=3ZDAD0O1T2ZKRQKDZTHZIHEQU0MXTS&tp_b=3ZDAD0O1T2ZKRQKDZTHZIHEQU0MXTS&c=365198&tp_c=365198","firstResponseHeads":10,"firstResponseTails":2,"secondResponseHeads":8,"secondResponseTails":2,"studentIndex":3,"studentTrueHypers":{"a":8,"b":2},"studentGuess":0.8125,"delta":0.012499999999999956,"bonus":0.28,"bonusSoFar":0.68,"totalExamples":22},{"rt":null,"stimulus":"Sending examples to student... ","response":null,"trial_type":"html-keyboard-response","trial_index":36,"time_elapsed":515315,"internal_node_id":"0.0-35.0","params":{"nStudents":24,"maxFlips":30,"completionMinutes":45,"basePay":8,"maxBonus":9,"perTrialBonus":0.5,"perTrialBonusThreshold":0.1,"exampleCost":0.01},"classroomParams":{"A":{"a":1,"b":4},"B":{"a":4,"b":1},"C":{"a":2,"b":8},"D":{"a":8,"b":2}},"conditions":["nonSeqFull","nonSeqPartial","seqNoFeedback","seqFeedback"],"classroomPairings":[["A","B"],["C","D"]],"coinWeights":[0.2,0.5,0.8],"subjectId":"A2FGKKWP33DFWS","assignmentId":"3ZDAD0O1T2ZKRQKDZTHZIHEQU0MXTS","hitId":"3YGE63DIN8J20XK20KS1742RQF60WK","url":"https://gershmanlab.com/experiments/alicia/teaching/experiment/?hitId=3YGE63DIN8J20XK20KS1742RQF60WK&workerId=A2FGKKWP33DFWS&assignmentId=3ZDAD0O1T2ZKRQKDZTHZIHEQU0MXTS&a=1DDZ8&tp_a=1DDZ8&b=3ZDAD0O1T2ZKRQKDZTHZIHEQU0MXTS&tp_b=3ZDAD0O1T2ZKRQKDZTHZIHEQU0MXTS&c=365198&tp_c=365198"},{"rt":null,"stimulus":"Examples sent to student! Waiting for student...","response":null,"trial_type":"html-keyboard-response","trial_index":37,"time_elapsed":520818,"internal_node_id":"0.0-36.0","params":{"nStudents":24,"maxFlips":30,"completionMinutes":45,"basePay":8,"maxBonus":9,"perTrialBonus":0.5,"perTrialBonusThreshold":0.1,"exampleCost":0.01},"classroomParams":{"A":{"a":1,"b":4},"B":{"a":4,"b":1},"C":{"a":2,"b":8},"D":{"a":8,"b":2}},"conditions":["nonSeqFull","nonSeqPartial","seqNoFeedback","seqFeedback"],"classroomPairings":[["A","B"],["C","D"]],"coinWeights":[0.2,0.5,0.8],"subjectId":"A2FGKKWP33DFWS","assignmentId":"3ZDAD0O1T2ZKRQKDZTHZIHEQU0MXTS","hitId":"3YGE63DIN8J20XK20KS1742RQF60WK","url":"https://gershmanlab.com/experiments/alicia/teaching/experiment/?hitId=3YGE63DIN8J20XK20KS1742RQF60WK&workerId=A2FGKKWP33DFWS&assignmentId=3ZDAD0O1T2ZKRQKDZTHZIHEQU0MXTS&a=1DDZ8&tp_a=1DDZ8&b=3ZDAD0O1T2ZKRQKDZTHZIHEQU0MXTS&tp_b=3ZDAD0O1T2ZKRQKDZTHZIHEQU0MXTS&c=365198&tp_c=365198"},{"rt":9079,"stimulus":"\n                <p>Student 4's first guess for coin weight: <b style=\"color:Tomato\";>0.82</b></p>\n                <p>Student 4's second guess for coin weight: <b style=\"color:Tomato\";>0.81</b></p>\n                <p>You received a bonus of <b>$0.28</b> based on the student's second guess.</p>\n                <p>Total bonus so far: <b>$0.68</b></p>\n                <p>Press any key to continue.</p>\n                ","response":" ","trial_type":"html-keyboard-response","trial_index":38,"time_elapsed":529898,"internal_node_id":"0.0-37.0","params":{"nStudents":24,"maxFlips":30,"completionMinutes":45,"basePay":8,"maxBonus":9,"perTrialBonus":0.5,"perTrialBonusThreshold":0.1,"exampleCost":0.01},"classroomParams":{"A":{"a":1,"b":4},"B":{"a":4,"b":1},"C":{"a":2,"b":8},"D":{"a":8,"b":2}},"conditions":["nonSeqFull","nonSeqPartial","seqNoFeedback","seqFeedback"],"classroomPairings":[["A","B"],["C","D"]],"coinWeights":[0.2,0.5,0.8],"subjectId":"A2FGKKWP33DFWS","assignmentId":"3ZDAD0O1T2ZKRQKDZTHZIHEQU0MXTS","hitId":"3YGE63DIN8J20XK20KS1742RQF60WK","url":"https://gershmanlab.com/experiments/alicia/teaching/experiment/?hitId=3YGE63DIN8J20XK20KS1742RQF60WK&workerId=A2FGKKWP33DFWS&assignmentId=3ZDAD0O1T2ZKRQKDZTHZIHEQU0MXTS&a=1DDZ8&tp_a=1DDZ8&b=3ZDAD0O1T2ZKRQKDZTHZIHEQU0MXTS&tp_b=3ZDAD0O1T2ZKRQKDZTHZIHEQU0MXTS&c=365198&tp_c=365198"},{"rt":null,"stimulus":"<div style=\"font-size:60px;\">Next student</div>","response":null,"trial_type":"html-keyboard-response","trial_index":39,"time_elapsed":532914,"internal_node_id":"0.0-38.0-0.0","params":{"nStudents":24,"maxFlips":30,"completionMinutes":45,"basePay":8,"maxBonus":9,"perTrialBonus":0.5,"perTrialBonusThreshold":0.1,"exampleCost":0.01},"classroomParams":{"A":{"a":1,"b":4},"B":{"a":4,"b":1},"C":{"a":2,"b":8},"D":{"a":8,"b":2}},"conditions":["nonSeqFull","nonSeqPartial","seqNoFeedback","seqFeedback"],"classroomPairings":[["A","B"],["C","D"]],"coinWeights":[0.2,0.5,0.8],"subjectId":"A2FGKKWP33DFWS","assignmentId":"3ZDAD0O1T2ZKRQKDZTHZIHEQU0MXTS","hitId":"3YGE63DIN8J20XK20KS1742RQF60WK","url":"https://gershmanlab.com/experiments/alicia/teaching/experiment/?hitId=3YGE63DIN8J20XK20KS1742RQF60WK&workerId=A2FGKKWP33DFWS&assignmentId=3ZDAD0O1T2ZKRQKDZTHZIHEQU0MXTS&a=1DDZ8&tp_a=1DDZ8&b=3ZDAD0O1T2ZKRQKDZTHZIHEQU0MXTS&tp_b=3ZDAD0O1T2ZKRQKDZTHZIHEQU0MXTS&c=365198&tp_c=365198"},{"rt":3218,"stimulus":"\n            <h4 style=\"color:Orange;\">Student 5</h4>\n            <h2>The weight of your coin is <b style=\"color:Tomato;\">0.5</b>.</h2>\n            <p>In this block, you will be giving <b>one</b> set of examples to Student 5.</p>\n                <p>You will receive feedback at the end of the block.</p>\n            ","response":0,"trial_type":"html-button-response","trial_index":40,"time_elapsed":536134,"internal_node_id":"0.0-39.0","params":{"nStudents":24,"maxFlips":30,"completionMinutes":45,"basePay":8,"maxBonus":9,"perTrialBonus":0.5,"perTrialBonusThreshold":0.1,"exampleCost":0.01},"classroomParams":{"A":{"a":1,"b":4},"B":{"a":4,"b":1},"C":{"a":2,"b":8},"D":{"a":8,"b":2}},"conditions":["nonSeqFull","nonSeqPartial","seqNoFeedback","seqFeedback"],"classroomPairings":[["A","B"],["C","D"]],"coinWeights":[0.2,0.5,0.8],"subjectId":"A2FGKKWP33DFWS","assignmentId":"3ZDAD0O1T2ZKRQKDZTHZIHEQU0MXTS","hitId":"3YGE63DIN8J20XK20KS1742RQF60WK","url":"https://gershmanlab.com/experiments/alicia/teaching/experiment/?hitId=3YGE63DIN8J20XK20KS1742RQF60WK&workerId=A2FGKKWP33DFWS&assignmentId=3ZDAD0O1T2ZKRQKDZTHZIHEQU0MXTS&a=1DDZ8&tp_a=1DDZ8&b=3ZDAD0O1T2ZKRQKDZTHZIHEQU0MXTS&tp_b=3ZDAD0O1T2ZKRQKDZTHZIHEQU0MXTS&c=365198&tp_c=365198"},{"rt":7819,"response":{"heads":"5","tails":"5"},"type":"response","condition":"nonSeqPartial","trueTheta":0.5,"classrooms":["A","B"],"studentTrueClassroom":"A","exampleSet":"first","trial_type":"survey-html-form","trial_index":41,"time_elapsed":543953,"internal_node_id":"0.0-40.0-0.0","params":{"nStudents":24,"maxFlips":30,"completionMinutes":45,"basePay":8,"maxBonus":9,"perTrialBonus":0.5,"perTrialBonusThreshold":0.1,"exampleCost":0.01},"classroomParams":{"A":{"a":1,"b":4},"B":{"a":4,"b":1},"C":{"a":2,"b":8},"D":{"a":8,"b":2}},"conditions":["nonSeqFull","nonSeqPartial","seqNoFeedback","seqFeedback"],"classroomPairings":[["A","B"],["C","D"]],"coinWeights":[0.2,0.5,0.8],"subjectId":"A2FGKKWP33DFWS","assignmentId":"3ZDAD0O1T2ZKRQKDZTHZIHEQU0MXTS","hitId":"3YGE63DIN8J20XK20KS1742RQF60WK","url":"https://gershmanlab.com/experiments/alicia/teaching/experiment/?hitId=3YGE63DIN8J20XK20KS1742RQF60WK&workerId=A2FGKKWP33DFWS&assignmentId=3ZDAD0O1T2ZKRQKDZTHZIHEQU0MXTS&a=1DDZ8&tp_a=1DDZ8&b=3ZDAD0O1T2ZKRQKDZTHZIHEQU0MXTS&tp_b=3ZDAD0O1T2ZKRQKDZTHZIHEQU0MXTS&c=365198&tp_c=365198","heads":5,"tails":5,"studentIndex":4,"studentTrueHypers":{"a":1,"b":4},"studentGuess":0.4,"delta":0.09999999999999998,"totalExamples":10,"bonus":0.4,"bonusSoFar":1.08},{"rt":null,"stimulus":"Sending examples to student... ","response":null,"trial_type":"html-keyboard-response","trial_index":42,"time_elapsed":545960,"internal_node_id":"0.0-41.0","params":{"nStudents":24,"maxFlips":30,"completionMinutes":45,"basePay":8,"maxBonus":9,"perTrialBonus":0.5,"perTrialBonusThreshold":0.1,"exampleCost":0.01},"classroomParams":{"A":{"a":1,"b":4},"B":{"a":4,"b":1},"C":{"a":2,"b":8},"D":{"a":8,"b":2}},"conditions":["nonSeqFull","nonSeqPartial","seqNoFeedback","seqFeedback"],"classroomPairings":[["A","B"],["C","D"]],"coinWeights":[0.2,0.5,0.8],"subjectId":"A2FGKKWP33DFWS","assignmentId":"3ZDAD0O1T2ZKRQKDZTHZIHEQU0MXTS","hitId":"3YGE63DIN8J20XK20KS1742RQF60WK","url":"https://gershmanlab.com/experiments/alicia/teaching/experiment/?hitId=3YGE63DIN8J20XK20KS1742RQF60WK&workerId=A2FGKKWP33DFWS&assignmentId=3ZDAD0O1T2ZKRQKDZTHZIHEQU0MXTS&a=1DDZ8&tp_a=1DDZ8&b=3ZDAD0O1T2ZKRQKDZTHZIHEQU0MXTS&tp_b=3ZDAD0O1T2ZKRQKDZTHZIHEQU0MXTS&c=365198&tp_c=365198"},{"rt":null,"stimulus":"Examples sent to student! Waiting for student...","response":null,"trial_type":"html-keyboard-response","trial_index":43,"time_elapsed":549961,"internal_node_id":"0.0-42.0","params":{"nStudents":24,"maxFlips":30,"completionMinutes":45,"basePay":8,"maxBonus":9,"perTrialBonus":0.5,"perTrialBonusThreshold":0.1,"exampleCost":0.01},"classroomParams":{"A":{"a":1,"b":4},"B":{"a":4,"b":1},"C":{"a":2,"b":8},"D":{"a":8,"b":2}},"conditions":["nonSeqFull","nonSeqPartial","seqNoFeedback","seqFeedback"],"classroomPairings":[["A","B"],["C","D"]],"coinWeights":[0.2,0.5,0.8],"subjectId":"A2FGKKWP33DFWS","assignmentId":"3ZDAD0O1T2ZKRQKDZTHZIHEQU0MXTS","hitId":"3YGE63DIN8J20XK20KS1742RQF60WK","url":"https://gershmanlab.com/experiments/alicia/teaching/experiment/?hitId=3YGE63DIN8J20XK20KS1742RQF60WK&workerId=A2FGKKWP33DFWS&assignmentId=3ZDAD0O1T2ZKRQKDZTHZIHEQU0MXTS&a=1DDZ8&tp_a=1DDZ8&b=3ZDAD0O1T2ZKRQKDZTHZIHEQU0MXTS&tp_b=3ZDAD0O1T2ZKRQKDZTHZIHEQU0MXTS&c=365198&tp_c=365198"},{"rt":8255,"stimulus":"\n                <p>Student's guess for coin weight: <b style=\"color:Tomato;\">0.40</b></p>\n                <p>You received a bonus of <b>$0.4</b>. Total bonus so far: <b>$1.08</b></b></p>\n                <p> Press any key to continue.</p>\n                ","response":" ","trial_type":"html-keyboard-response","trial_index":44,"time_elapsed":558217,"internal_node_id":"0.0-43.0","params":{"nStudents":24,"maxFlips":30,"completionMinutes":45,"basePay":8,"maxBonus":9,"perTrialBonus":0.5,"perTrialBonusThreshold":0.1,"exampleCost":0.01},"classroomParams":{"A":{"a":1,"b":4},"B":{"a":4,"b":1},"C":{"a":2,"b":8},"D":{"a":8,"b":2}},"conditions":["nonSeqFull","nonSeqPartial","seqNoFeedback","seqFeedback"],"classroomPairings":[["A","B"],["C","D"]],"coinWeights":[0.2,0.5,0.8],"subjectId":"A2FGKKWP33DFWS","assignmentId":"3ZDAD0O1T2ZKRQKDZTHZIHEQU0MXTS","hitId":"3YGE63DIN8J20XK20KS1742RQF60WK","url":"https://gershmanlab.com/experiments/alicia/teaching/experiment/?hitId=3YGE63DIN8J20XK20KS1742RQF60WK&workerId=A2FGKKWP33DFWS&assignmentId=3ZDAD0O1T2ZKRQKDZTHZIHEQU0MXTS&a=1DDZ8&tp_a=1DDZ8&b=3ZDAD0O1T2ZKRQKDZTHZIHEQU0MXTS&tp_b=3ZDAD0O1T2ZKRQKDZTHZIHEQU0MXTS&c=365198&tp_c=365198"},{"rt":null,"stimulus":"<div style=\"font-size:60px;\">Next student</div>","response":null,"trial_type":"html-keyboard-response","trial_index":45,"time_elapsed":561219,"internal_node_id":"0.0-44.0-0.0","params":{"nStudents":24,"maxFlips":30,"completionMinutes":45,"basePay":8,"maxBonus":9,"perTrialBonus":0.5,"perTrialBonusThreshold":0.1,"exampleCost":0.01},"classroomParams":{"A":{"a":1,"b":4},"B":{"a":4,"b":1},"C":{"a":2,"b":8},"D":{"a":8,"b":2}},"conditions":["nonSeqFull","nonSeqPartial","seqNoFeedback","seqFeedback"],"classroomPairings":[["A","B"],["C","D"]],"coinWeights":[0.2,0.5,0.8],"subjectId":"A2FGKKWP33DFWS","assignmentId":"3ZDAD0O1T2ZKRQKDZTHZIHEQU0MXTS","hitId":"3YGE63DIN8J20XK20KS1742RQF60WK","url":"https://gershmanlab.com/experiments/alicia/teaching/experiment/?hitId=3YGE63DIN8J20XK20KS1742RQF60WK&workerId=A2FGKKWP33DFWS&assignmentId=3ZDAD0O1T2ZKRQKDZTHZIHEQU0MXTS&a=1DDZ8&tp_a=1DDZ8&b=3ZDAD0O1T2ZKRQKDZTHZIHEQU0MXTS&tp_b=3ZDAD0O1T2ZKRQKDZTHZIHEQU0MXTS&c=365198&tp_c=365198"},{"rt":3613,"stimulus":"\n            <h4 style=\"color:Orange;\">Student 6</h4>\n            <h2>The weight of your coin is <b style=\"color:Tomato;\">0.2</b>.</h2>\n            <p>In this block, you will be giving <b>two</b> sets of examples to Student 6.</p>\n                <p>You will see the student's guess after the first set of examples. You will also receive feedback at the end of the block.</p>\n            ","response":0,"trial_type":"html-button-response","trial_index":46,"time_elapsed":564833,"internal_node_id":"0.0-45.0","params":{"nStudents":24,"maxFlips":30,"completionMinutes":45,"basePay":8,"maxBonus":9,"perTrialBonus":0.5,"perTrialBonusThreshold":0.1,"exampleCost":0.01},"classroomParams":{"A":{"a":1,"b":4},"B":{"a":4,"b":1},"C":{"a":2,"b":8},"D":{"a":8,"b":2}},"conditions":["nonSeqFull","nonSeqPartial","seqNoFeedback","seqFeedback"],"classroomPairings":[["A","B"],["C","D"]],"coinWeights":[0.2,0.5,0.8],"subjectId":"A2FGKKWP33DFWS","assignmentId":"3ZDAD0O1T2ZKRQKDZTHZIHEQU0MXTS","hitId":"3YGE63DIN8J20XK20KS1742RQF60WK","url":"https://gershmanlab.com/experiments/alicia/teaching/experiment/?hitId=3YGE63DIN8J20XK20KS1742RQF60WK&workerId=A2FGKKWP33DFWS&assignmentId=3ZDAD0O1T2ZKRQKDZTHZIHEQU0MXTS&a=1DDZ8&tp_a=1DDZ8&b=3ZDAD0O1T2ZKRQKDZTHZIHEQU0MXTS&tp_b=3ZDAD0O1T2ZKRQKDZTHZIHEQU0MXTS&c=365198&tp_c=365198"},{"rt":7807,"response":{"heads":"8","tails":"2"},"type":"response","condition":"seqFeedback","trueTheta":0.2,"classrooms":["A","B"],"studentTrueClassroom":"B","exampleSet":"first","trial_type":"survey-html-form","trial_index":47,"time_elapsed":572641,"internal_node_id":"0.0-46.0-0.0","params":{"nStudents":24,"maxFlips":30,"completionMinutes":45,"basePay":8,"maxBonus":9,"perTrialBonus":0.5,"perTrialBonusThreshold":0.1,"exampleCost":0.01},"classroomParams":{"A":{"a":1,"b":4},"B":{"a":4,"b":1},"C":{"a":2,"b":8},"D":{"a":8,"b":2}},"conditions":["nonSeqFull","nonSeqPartial","seqNoFeedback","seqFeedback"],"classroomPairings":[["A","B"],["C","D"]],"coinWeights":[0.2,0.5,0.8],"subjectId":"A2FGKKWP33DFWS","assignmentId":"3ZDAD0O1T2ZKRQKDZTHZIHEQU0MXTS","hitId":"3YGE63DIN8J20XK20KS1742RQF60WK","url":"https://gershmanlab.com/experiments/alicia/teaching/experiment/?hitId=3YGE63DIN8J20XK20KS1742RQF60WK&workerId=A2FGKKWP33DFWS&assignmentId=3ZDAD0O1T2ZKRQKDZTHZIHEQU0MXTS&a=1DDZ8&tp_a=1DDZ8&b=3ZDAD0O1T2ZKRQKDZTHZIHEQU0MXTS&tp_b=3ZDAD0O1T2ZKRQKDZTHZIHEQU0MXTS&c=365198&tp_c=365198","heads":8,"tails":2,"studentIndex":5,"studentTrueHypers":{"a":4,"b":1},"studentGuess":0.8,"delta":0.6000000000000001,"totalExamples":10,"bonusSoFar":1.08},{"rt":null,"stimulus":"Sending examples to student... ","response":null,"trial_type":"html-keyboard-response","trial_index":48,"time_elapsed":574143,"internal_node_id":"0.0-47.0","params":{"nStudents":24,"maxFlips":30,"completionMinutes":45,"basePay":8,"maxBonus":9,"perTrialBonus":0.5,"perTrialBonusThreshold":0.1,"exampleCost":0.01},"classroomParams":{"A":{"a":1,"b":4},"B":{"a":4,"b":1},"C":{"a":2,"b":8},"D":{"a":8,"b":2}},"conditions":["nonSeqFull","nonSeqPartial","seqNoFeedback","seqFeedback"],"classroomPairings":[["A","B"],["C","D"]],"coinWeights":[0.2,0.5,0.8],"subjectId":"A2FGKKWP33DFWS","assignmentId":"3ZDAD0O1T2ZKRQKDZTHZIHEQU0MXTS","hitId":"3YGE63DIN8J20XK20KS1742RQF60WK","url":"https://gershmanlab.com/experiments/alicia/teaching/experiment/?hitId=3YGE63DIN8J20XK20KS1742RQF60WK&workerId=A2FGKKWP33DFWS&assignmentId=3ZDAD0O1T2ZKRQKDZTHZIHEQU0MXTS&a=1DDZ8&tp_a=1DDZ8&b=3ZDAD0O1T2ZKRQKDZTHZIHEQU0MXTS&tp_b=3ZDAD0O1T2ZKRQKDZTHZIHEQU0MXTS&c=365198&tp_c=365198"},{"rt":null,"stimulus":"Examples sent to student! Waiting for student...","response":null,"trial_type":"html-keyboard-response","trial_index":49,"time_elapsed":579657,"internal_node_id":"0.0-48.0","params":{"nStudents":24,"maxFlips":30,"completionMinutes":45,"basePay":8,"maxBonus":9,"perTrialBonus":0.5,"perTrialBonusThreshold":0.1,"exampleCost":0.01},"classroomParams":{"A":{"a":1,"b":4},"B":{"a":4,"b":1},"C":{"a":2,"b":8},"D":{"a":8,"b":2}},"conditions":["nonSeqFull","nonSeqPartial","seqNoFeedback","seqFeedback"],"classroomPairings":[["A","B"],["C","D"]],"coinWeights":[0.2,0.5,0.8],"subjectId":"A2FGKKWP33DFWS","assignmentId":"3ZDAD0O1T2ZKRQKDZTHZIHEQU0MXTS","hitId":"3YGE63DIN8J20XK20KS1742RQF60WK","url":"https://gershmanlab.com/experiments/alicia/teaching/experiment/?hitId=3YGE63DIN8J20XK20KS1742RQF60WK&workerId=A2FGKKWP33DFWS&assignmentId=3ZDAD0O1T2ZKRQKDZTHZIHEQU0MXTS&a=1DDZ8&tp_a=1DDZ8&b=3ZDAD0O1T2ZKRQKDZTHZIHEQU0MXTS&tp_b=3ZDAD0O1T2ZKRQKDZTHZIHEQU0MXTS&c=365198&tp_c=365198"},{"rt":8047,"stimulus":"\n                <p>Student's guess for coin weight: <b style=\"color:Tomato;\">0.80</b></p>\n                <p></b></p>\n                <p>You will now send another set of examples to your student. Press any key to continue.</p>\n                ","response":" ","trial_type":"html-keyboard-response","trial_index":50,"time_elapsed":587706,"internal_node_id":"0.0-49.0","params":{"nStudents":24,"maxFlips":30,"completionMinutes":45,"basePay":8,"maxBonus":9,"perTrialBonus":0.5,"perTrialBonusThreshold":0.1,"exampleCost":0.01},"classroomParams":{"A":{"a":1,"b":4},"B":{"a":4,"b":1},"C":{"a":2,"b":8},"D":{"a":8,"b":2}},"conditions":["nonSeqFull","nonSeqPartial","seqNoFeedback","seqFeedback"],"classroomPairings":[["A","B"],["C","D"]],"coinWeights":[0.2,0.5,0.8],"subjectId":"A2FGKKWP33DFWS","assignmentId":"3ZDAD0O1T2ZKRQKDZTHZIHEQU0MXTS","hitId":"3YGE63DIN8J20XK20KS1742RQF60WK","url":"https://gershmanlab.com/experiments/alicia/teaching/experiment/?hitId=3YGE63DIN8J20XK20KS1742RQF60WK&workerId=A2FGKKWP33DFWS&assignmentId=3ZDAD0O1T2ZKRQKDZTHZIHEQU0MXTS&a=1DDZ8&tp_a=1DDZ8&b=3ZDAD0O1T2ZKRQKDZTHZIHEQU0MXTS&tp_b=3ZDAD0O1T2ZKRQKDZTHZIHEQU0MXTS&c=365198&tp_c=365198"},{"rt":16915,"response":{"heads":"2","tails":"8"},"type":"response","condition":"seqFeedback","trueTheta":0.2,"classrooms":["A","B"],"studentTrueClassroom":"B","exampleSet":"second","trial_type":"survey-html-form","trial_index":51,"time_elapsed":604622,"internal_node_id":"0.0-50.0-0.0","params":{"nStudents":24,"maxFlips":30,"completionMinutes":45,"basePay":8,"maxBonus":9,"perTrialBonus":0.5,"perTrialBonusThreshold":0.1,"exampleCost":0.01},"classroomParams":{"A":{"a":1,"b":4},"B":{"a":4,"b":1},"C":{"a":2,"b":8},"D":{"a":8,"b":2}},"conditions":["nonSeqFull","nonSeqPartial","seqNoFeedback","seqFeedback"],"classroomPairings":[["A","B"],["C","D"]],"coinWeights":[0.2,0.5,0.8],"subjectId":"A2FGKKWP33DFWS","assignmentId":"3ZDAD0O1T2ZKRQKDZTHZIHEQU0MXTS","hitId":"3YGE63DIN8J20XK20KS1742RQF60WK","url":"https://gershmanlab.com/experiments/alicia/teaching/experiment/?hitId=3YGE63DIN8J20XK20KS1742RQF60WK&workerId=A2FGKKWP33DFWS&assignmentId=3ZDAD0O1T2ZKRQKDZTHZIHEQU0MXTS&a=1DDZ8&tp_a=1DDZ8&b=3ZDAD0O1T2ZKRQKDZTHZIHEQU0MXTS&tp_b=3ZDAD0O1T2ZKRQKDZTHZIHEQU0MXTS&c=365198&tp_c=365198","firstResponseHeads":8,"firstResponseTails":2,"secondResponseHeads":2,"secondResponseTails":8,"studentIndex":5,"studentTrueHypers":{"a":4,"b":1},"studentGuess":0.56,"delta":0.36000000000000004,"bonus":0,"bonusSoFar":1.08,"totalExamples":20},{"rt":null,"stimulus":"Sending examples to student... ","response":null,"trial_type":"html-keyboard-response","trial_index":52,"time_elapsed":606623,"internal_node_id":"0.0-51.0","params":{"nStudents":24,"maxFlips":30,"completionMinutes":45,"basePay":8,"maxBonus":9,"perTrialBonus":0.5,"perTrialBonusThreshold":0.1,"exampleCost":0.01},"classroomParams":{"A":{"a":1,"b":4},"B":{"a":4,"b":1},"C":{"a":2,"b":8},"D":{"a":8,"b":2}},"conditions":["nonSeqFull","nonSeqPartial","seqNoFeedback","seqFeedback"],"classroomPairings":[["A","B"],["C","D"]],"coinWeights":[0.2,0.5,0.8],"subjectId":"A2FGKKWP33DFWS","assignmentId":"3ZDAD0O1T2ZKRQKDZTHZIHEQU0MXTS","hitId":"3YGE63DIN8J20XK20KS1742RQF60WK","url":"https://gershmanlab.com/experiments/alicia/teaching/experiment/?hitId=3YGE63DIN8J20XK20KS1742RQF60WK&workerId=A2FGKKWP33DFWS&assignmentId=3ZDAD0O1T2ZKRQKDZTHZIHEQU0MXTS&a=1DDZ8&tp_a=1DDZ8&b=3ZDAD0O1T2ZKRQKDZTHZIHEQU0MXTS&tp_b=3ZDAD0O1T2ZKRQKDZTHZIHEQU0MXTS&c=365198&tp_c=365198"},{"rt":null,"stimulus":"Examples sent to student! Waiting for student...","response":null,"trial_type":"html-keyboard-response","trial_index":53,"time_elapsed":612124,"internal_node_id":"0.0-52.0","params":{"nStudents":24,"maxFlips":30,"completionMinutes":45,"basePay":8,"maxBonus":9,"perTrialBonus":0.5,"perTrialBonusThreshold":0.1,"exampleCost":0.01},"classroomParams":{"A":{"a":1,"b":4},"B":{"a":4,"b":1},"C":{"a":2,"b":8},"D":{"a":8,"b":2}},"conditions":["nonSeqFull","nonSeqPartial","seqNoFeedback","seqFeedback"],"classroomPairings":[["A","B"],["C","D"]],"coinWeights":[0.2,0.5,0.8],"subjectId":"A2FGKKWP33DFWS","assignmentId":"3ZDAD0O1T2ZKRQKDZTHZIHEQU0MXTS","hitId":"3YGE63DIN8J20XK20KS1742RQF60WK","url":"https://gershmanlab.com/experiments/alicia/teaching/experiment/?hitId=3YGE63DIN8J20XK20KS1742RQF60WK&workerId=A2FGKKWP33DFWS&assignmentId=3ZDAD0O1T2ZKRQKDZTHZIHEQU0MXTS&a=1DDZ8&tp_a=1DDZ8&b=3ZDAD0O1T2ZKRQKDZTHZIHEQU0MXTS&tp_b=3ZDAD0O1T2ZKRQKDZTHZIHEQU0MXTS&c=365198&tp_c=365198"},{"rt":7276,"stimulus":"\n                <p>Student 6's first guess for coin weight: <b style=\"color:Tomato\";>0.80</b></p>\n                <p>Student 6's second guess for coin weight: <b style=\"color:Tomato\";>0.56</b></p>\n                <p>You received a bonus of <b>$0.00</b> based on the student's second guess.</p>\n                <p>Total bonus so far: <b>$1.08</b></p>\n                <p>Press any key to continue.</p>\n                ","response":" ","trial_type":"html-keyboard-response","trial_index":54,"time_elapsed":619402,"internal_node_id":"0.0-53.0","params":{"nStudents":24,"maxFlips":30,"completionMinutes":45,"basePay":8,"maxBonus":9,"perTrialBonus":0.5,"perTrialBonusThreshold":0.1,"exampleCost":0.01},"classroomParams":{"A":{"a":1,"b":4},"B":{"a":4,"b":1},"C":{"a":2,"b":8},"D":{"a":8,"b":2}},"conditions":["nonSeqFull","nonSeqPartial","seqNoFeedback","seqFeedback"],"classroomPairings":[["A","B"],["C","D"]],"coinWeights":[0.2,0.5,0.8],"subjectId":"A2FGKKWP33DFWS","assignmentId":"3ZDAD0O1T2ZKRQKDZTHZIHEQU0MXTS","hitId":"3YGE63DIN8J20XK20KS1742RQF60WK","url":"https://gershmanlab.com/experiments/alicia/teaching/experiment/?hitId=3YGE63DIN8J20XK20KS1742RQF60WK&workerId=A2FGKKWP33DFWS&assignmentId=3ZDAD0O1T2ZKRQKDZTHZIHEQU0MXTS&a=1DDZ8&tp_a=1DDZ8&b=3ZDAD0O1T2ZKRQKDZTHZIHEQU0MXTS&tp_b=3ZDAD0O1T2ZKRQKDZTHZIHEQU0MXTS&c=365198&tp_c=365198"},{"rt":null,"stimulus":"<div style=\"font-size:60px;\">Next student</div>","response":null,"trial_type":"html-keyboard-response","trial_index":55,"time_elapsed":621664,"internal_node_id":"0.0-54.0-0.0","params":{"nStudents":24,"maxFlips":30,"completionMinutes":45,"basePay":8,"maxBonus":9,"perTrialBonus":0.5,"perTrialBonusThreshold":0.1,"exampleCost":0.01},"classroomParams":{"A":{"a":1,"b":4},"B":{"a":4,"b":1},"C":{"a":2,"b":8},"D":{"a":8,"b":2}},"conditions":["nonSeqFull","nonSeqPartial","seqNoFeedback","seqFeedback"],"classroomPairings":[["A","B"],["C","D"]],"coinWeights":[0.2,0.5,0.8],"subjectId":"A2FGKKWP33DFWS","assignmentId":"3ZDAD0O1T2ZKRQKDZTHZIHEQU0MXTS","hitId":"3YGE63DIN8J20XK20KS1742RQF60WK","url":"https://gershmanlab.com/experiments/alicia/teaching/experiment/?hitId=3YGE63DIN8J20XK20KS1742RQF60WK&workerId=A2FGKKWP33DFWS&assignmentId=3ZDAD0O1T2ZKRQKDZTHZIHEQU0MXTS&a=1DDZ8&tp_a=1DDZ8&b=3ZDAD0O1T2ZKRQKDZTHZIHEQU0MXTS&tp_b=3ZDAD0O1T2ZKRQKDZTHZIHEQU0MXTS&c=365198&tp_c=365198"},{"rt":1952,"stimulus":"\n            <h4 style=\"color:Orange;\">Student 7</h4>\n            <h2>The weight of your coin is <b style=\"color:Tomato;\">0.5</b>.</h2>\n            <p>In this block, you will be giving <b>two</b> sets of examples to Student 7.</p>\n                <p>You will see the student's guess after the first set of examples. You will also receive feedback at the end of the block.</p>\n            ","response":0,"trial_type":"html-button-response","trial_index":56,"time_elapsed":623617,"internal_node_id":"0.0-55.0","params":{"nStudents":24,"maxFlips":30,"completionMinutes":45,"basePay":8,"maxBonus":9,"perTrialBonus":0.5,"perTrialBonusThreshold":0.1,"exampleCost":0.01},"classroomParams":{"A":{"a":1,"b":4},"B":{"a":4,"b":1},"C":{"a":2,"b":8},"D":{"a":8,"b":2}},"conditions":["nonSeqFull","nonSeqPartial","seqNoFeedback","seqFeedback"],"classroomPairings":[["A","B"],["C","D"]],"coinWeights":[0.2,0.5,0.8],"subjectId":"A2FGKKWP33DFWS","assignmentId":"3ZDAD0O1T2ZKRQKDZTHZIHEQU0MXTS","hitId":"3YGE63DIN8J20XK20KS1742RQF60WK","url":"https://gershmanlab.com/experiments/alicia/teaching/experiment/?hitId=3YGE63DIN8J20XK20KS1742RQF60WK&workerId=A2FGKKWP33DFWS&assignmentId=3ZDAD0O1T2ZKRQKDZTHZIHEQU0MXTS&a=1DDZ8&tp_a=1DDZ8&b=3ZDAD0O1T2ZKRQKDZTHZIHEQU0MXTS&tp_b=3ZDAD0O1T2ZKRQKDZTHZIHEQU0MXTS&c=365198&tp_c=365198"},{"rt":6691,"response":{"heads":"5","tails":"5"},"type":"response","condition":"seqFeedback","trueTheta":0.5,"classrooms":["A","B"],"studentTrueClassroom":"A","exampleSet":"first","trial_type":"survey-html-form","trial_index":57,"time_elapsed":630309,"internal_node_id":"0.0-56.0-0.0","params":{"nStudents":24,"maxFlips":30,"completionMinutes":45,"basePay":8,"maxBonus":9,"perTrialBonus":0.5,"perTrialBonusThreshold":0.1,"exampleCost":0.01},"classroomParams":{"A":{"a":1,"b":4},"B":{"a":4,"b":1},"C":{"a":2,"b":8},"D":{"a":8,"b":2}},"conditions":["nonSeqFull","nonSeqPartial","seqNoFeedback","seqFeedback"],"classroomPairings":[["A","B"],["C","D"]],"coinWeights":[0.2,0.5,0.8],"subjectId":"A2FGKKWP33DFWS","assignmentId":"3ZDAD0O1T2ZKRQKDZTHZIHEQU0MXTS","hitId":"3YGE63DIN8J20XK20KS1742RQF60WK","url":"https://gershmanlab.com/experiments/alicia/teaching/experiment/?hitId=3YGE63DIN8J20XK20KS1742RQF60WK&workerId=A2FGKKWP33DFWS&assignmentId=3ZDAD0O1T2ZKRQKDZTHZIHEQU0MXTS&a=1DDZ8&tp_a=1DDZ8&b=3ZDAD0O1T2ZKRQKDZTHZIHEQU0MXTS&tp_b=3ZDAD0O1T2ZKRQKDZTHZIHEQU0MXTS&c=365198&tp_c=365198","heads":5,"tails":5,"studentIndex":6,"studentTrueHypers":{"a":1,"b":4},"studentGuess":0.4,"delta":0.09999999999999998,"totalExamples":10,"bonusSoFar":1.08},{"rt":null,"stimulus":"Sending examples to student... ","response":null,"trial_type":"html-keyboard-response","trial_index":58,"time_elapsed":632073,"internal_node_id":"0.0-57.0","params":{"nStudents":24,"maxFlips":30,"completionMinutes":45,"basePay":8,"maxBonus":9,"perTrialBonus":0.5,"perTrialBonusThreshold":0.1,"exampleCost":0.01},"classroomParams":{"A":{"a":1,"b":4},"B":{"a":4,"b":1},"C":{"a":2,"b":8},"D":{"a":8,"b":2}},"conditions":["nonSeqFull","nonSeqPartial","seqNoFeedback","seqFeedback"],"classroomPairings":[["A","B"],["C","D"]],"coinWeights":[0.2,0.5,0.8],"subjectId":"A2FGKKWP33DFWS","assignmentId":"3ZDAD0O1T2ZKRQKDZTHZIHEQU0MXTS","hitId":"3YGE63DIN8J20XK20KS1742RQF60WK","url":"https://gershmanlab.com/experiments/alicia/teaching/experiment/?hitId=3YGE63DIN8J20XK20KS1742RQF60WK&workerId=A2FGKKWP33DFWS&assignmentId=3ZDAD0O1T2ZKRQKDZTHZIHEQU0MXTS&a=1DDZ8&tp_a=1DDZ8&b=3ZDAD0O1T2ZKRQKDZTHZIHEQU0MXTS&tp_b=3ZDAD0O1T2ZKRQKDZTHZIHEQU0MXTS&c=365198&tp_c=365198"},{"rt":null,"stimulus":"Examples sent to student! Waiting for student...","response":null,"trial_type":"html-keyboard-response","trial_index":59,"time_elapsed":638078,"internal_node_id":"0.0-58.0","params":{"nStudents":24,"maxFlips":30,"completionMinutes":45,"basePay":8,"maxBonus":9,"perTrialBonus":0.5,"perTrialBonusThreshold":0.1,"exampleCost":0.01},"classroomParams":{"A":{"a":1,"b":4},"B":{"a":4,"b":1},"C":{"a":2,"b":8},"D":{"a":8,"b":2}},"conditions":["nonSeqFull","nonSeqPartial","seqNoFeedback","seqFeedback"],"classroomPairings":[["A","B"],["C","D"]],"coinWeights":[0.2,0.5,0.8],"subjectId":"A2FGKKWP33DFWS","assignmentId":"3ZDAD0O1T2ZKRQKDZTHZIHEQU0MXTS","hitId":"3YGE63DIN8J20XK20KS1742RQF60WK","url":"https://gershmanlab.com/experiments/alicia/teaching/experiment/?hitId=3YGE63DIN8J20XK20KS1742RQF60WK&workerId=A2FGKKWP33DFWS&assignmentId=3ZDAD0O1T2ZKRQKDZTHZIHEQU0MXTS&a=1DDZ8&tp_a=1DDZ8&b=3ZDAD0O1T2ZKRQKDZTHZIHEQU0MXTS&tp_b=3ZDAD0O1T2ZKRQKDZTHZIHEQU0MXTS&c=365198&tp_c=365198"},{"rt":5275,"stimulus":"\n                <p>Student's guess for coin weight: <b style=\"color:Tomato;\">0.40</b></p>\n                <p></b></p>\n                <p>You will now send another set of examples to your student. Press any key to continue.</p>\n                ","response":" ","trial_type":"html-keyboard-response","trial_index":60,"time_elapsed":643354,"internal_node_id":"0.0-59.0","params":{"nStudents":24,"maxFlips":30,"completionMinutes":45,"basePay":8,"maxBonus":9,"perTrialBonus":0.5,"perTrialBonusThreshold":0.1,"exampleCost":0.01},"classroomParams":{"A":{"a":1,"b":4},"B":{"a":4,"b":1},"C":{"a":2,"b":8},"D":{"a":8,"b":2}},"conditions":["nonSeqFull","nonSeqPartial","seqNoFeedback","seqFeedback"],"classroomPairings":[["A","B"],["C","D"]],"coinWeights":[0.2,0.5,0.8],"subjectId":"A2FGKKWP33DFWS","assignmentId":"3ZDAD0O1T2ZKRQKDZTHZIHEQU0MXTS","hitId":"3YGE63DIN8J20XK20KS1742RQF60WK","url":"https://gershmanlab.com/experiments/alicia/teaching/experiment/?hitId=3YGE63DIN8J20XK20KS1742RQF60WK&workerId=A2FGKKWP33DFWS&assignmentId=3ZDAD0O1T2ZKRQKDZTHZIHEQU0MXTS&a=1DDZ8&tp_a=1DDZ8&b=3ZDAD0O1T2ZKRQKDZTHZIHEQU0MXTS&tp_b=3ZDAD0O1T2ZKRQKDZTHZIHEQU0MXTS&c=365198&tp_c=365198"},{"rt":8909,"response":{"heads":"5","tails":"5"},"type":"response","condition":"seqFeedback","trueTheta":0.5,"classrooms":["A","B"],"studentTrueClassroom":"A","exampleSet":"second","trial_type":"survey-html-form","trial_index":61,"time_elapsed":652264,"internal_node_id":"0.0-60.0-0.0","params":{"nStudents":24,"maxFlips":30,"completionMinutes":45,"basePay":8,"maxBonus":9,"perTrialBonus":0.5,"perTrialBonusThreshold":0.1,"exampleCost":0.01},"classroomParams":{"A":{"a":1,"b":4},"B":{"a":4,"b":1},"C":{"a":2,"b":8},"D":{"a":8,"b":2}},"conditions":["nonSeqFull","nonSeqPartial","seqNoFeedback","seqFeedback"],"classroomPairings":[["A","B"],["C","D"]],"coinWeights":[0.2,0.5,0.8],"subjectId":"A2FGKKWP33DFWS","assignmentId":"3ZDAD0O1T2ZKRQKDZTHZIHEQU0MXTS","hitId":"3YGE63DIN8J20XK20KS1742RQF60WK","url":"https://gershmanlab.com/experiments/alicia/teaching/experiment/?hitId=3YGE63DIN8J20XK20KS1742RQF60WK&workerId=A2FGKKWP33DFWS&assignmentId=3ZDAD0O1T2ZKRQKDZTHZIHEQU0MXTS&a=1DDZ8&tp_a=1DDZ8&b=3ZDAD0O1T2ZKRQKDZTHZIHEQU0MXTS&tp_b=3ZDAD0O1T2ZKRQKDZTHZIHEQU0MXTS&c=365198&tp_c=365198","firstResponseHeads":5,"firstResponseTails":5,"secondResponseHeads":5,"secondResponseTails":5,"studentIndex":6,"studentTrueHypers":{"a":1,"b":4},"studentGuess":0.44,"delta":0.06,"bonus":0.3,"bonusSoFar":1.38,"totalExamples":20},{"rt":null,"stimulus":"Sending examples to student... ","response":null,"trial_type":"html-keyboard-response","trial_index":62,"time_elapsed":653770,"internal_node_id":"0.0-61.0","params":{"nStudents":24,"maxFlips":30,"completionMinutes":45,"basePay":8,"maxBonus":9,"perTrialBonus":0.5,"perTrialBonusThreshold":0.1,"exampleCost":0.01},"classroomParams":{"A":{"a":1,"b":4},"B":{"a":4,"b":1},"C":{"a":2,"b":8},"D":{"a":8,"b":2}},"conditions":["nonSeqFull","nonSeqPartial","seqNoFeedback","seqFeedback"],"classroomPairings":[["A","B"],["C","D"]],"coinWeights":[0.2,0.5,0.8],"subjectId":"A2FGKKWP33DFWS","assignmentId":"3ZDAD0O1T2ZKRQKDZTHZIHEQU0MXTS","hitId":"3YGE63DIN8J20XK20KS1742RQF60WK","url":"https://gershmanlab.com/experiments/alicia/teaching/experiment/?hitId=3YGE63DIN8J20XK20KS1742RQF60WK&workerId=A2FGKKWP33DFWS&assignmentId=3ZDAD0O1T2ZKRQKDZTHZIHEQU0MXTS&a=1DDZ8&tp_a=1DDZ8&b=3ZDAD0O1T2ZKRQKDZTHZIHEQU0MXTS&tp_b=3ZDAD0O1T2ZKRQKDZTHZIHEQU0MXTS&c=365198&tp_c=365198"},{"rt":null,"stimulus":"Examples sent to student! Waiting for student...","response":null,"trial_type":"html-keyboard-response","trial_index":63,"time_elapsed":659775,"internal_node_id":"0.0-62.0","params":{"nStudents":24,"maxFlips":30,"completionMinutes":45,"basePay":8,"maxBonus":9,"perTrialBonus":0.5,"perTrialBonusThreshold":0.1,"exampleCost":0.01},"classroomParams":{"A":{"a":1,"b":4},"B":{"a":4,"b":1},"C":{"a":2,"b":8},"D":{"a":8,"b":2}},"conditions":["nonSeqFull","nonSeqPartial","seqNoFeedback","seqFeedback"],"classroomPairings":[["A","B"],["C","D"]],"coinWeights":[0.2,0.5,0.8],"subjectId":"A2FGKKWP33DFWS","assignmentId":"3ZDAD0O1T2ZKRQKDZTHZIHEQU0MXTS","hitId":"3YGE63DIN8J20XK20KS1742RQF60WK","url":"https://gershmanlab.com/experiments/alicia/teaching/experiment/?hitId=3YGE63DIN8J20XK20KS1742RQF60WK&workerId=A2FGKKWP33DFWS&assignmentId=3ZDAD0O1T2ZKRQKDZTHZIHEQU0MXTS&a=1DDZ8&tp_a=1DDZ8&b=3ZDAD0O1T2ZKRQKDZTHZIHEQU0MXTS&tp_b=3ZDAD0O1T2ZKRQKDZTHZIHEQU0MXTS&c=365198&tp_c=365198"},{"rt":5385,"stimulus":"\n                <p>Student 7's first guess for coin weight: <b style=\"color:Tomato\";>0.40</b></p>\n                <p>Student 7's second guess for coin weight: <b style=\"color:Tomato\";>0.44</b></p>\n                <p>You received a bonus of <b>$0.30</b> based on the student's second guess.</p>\n                <p>Total bonus so far: <b>$1.38</b></p>\n                <p>Press any key to continue.</p>\n                ","response":" ","trial_type":"html-keyboard-response","trial_index":64,"time_elapsed":665161,"internal_node_id":"0.0-63.0","params":{"nStudents":24,"maxFlips":30,"completionMinutes":45,"basePay":8,"maxBonus":9,"perTrialBonus":0.5,"perTrialBonusThreshold":0.1,"exampleCost":0.01},"classroomParams":{"A":{"a":1,"b":4},"B":{"a":4,"b":1},"C":{"a":2,"b":8},"D":{"a":8,"b":2}},"conditions":["nonSeqFull","nonSeqPartial","seqNoFeedback","seqFeedback"],"classroomPairings":[["A","B"],["C","D"]],"coinWeights":[0.2,0.5,0.8],"subjectId":"A2FGKKWP33DFWS","assignmentId":"3ZDAD0O1T2ZKRQKDZTHZIHEQU0MXTS","hitId":"3YGE63DIN8J20XK20KS1742RQF60WK","url":"https://gershmanlab.com/experiments/alicia/teaching/experiment/?hitId=3YGE63DIN8J20XK20KS1742RQF60WK&workerId=A2FGKKWP33DFWS&assignmentId=3ZDAD0O1T2ZKRQKDZTHZIHEQU0MXTS&a=1DDZ8&tp_a=1DDZ8&b=3ZDAD0O1T2ZKRQKDZTHZIHEQU0MXTS&tp_b=3ZDAD0O1T2ZKRQKDZTHZIHEQU0MXTS&c=365198&tp_c=365198"},{"rt":null,"stimulus":"<div style=\"font-size:60px;\">Next student</div>","response":null,"trial_type":"html-keyboard-response","trial_index":65,"time_elapsed":667412,"internal_node_id":"0.0-64.0-0.0","params":{"nStudents":24,"maxFlips":30,"completionMinutes":45,"basePay":8,"maxBonus":9,"perTrialBonus":0.5,"perTrialBonusThreshold":0.1,"exampleCost":0.01},"classroomParams":{"A":{"a":1,"b":4},"B":{"a":4,"b":1},"C":{"a":2,"b":8},"D":{"a":8,"b":2}},"conditions":["nonSeqFull","nonSeqPartial","seqNoFeedback","seqFeedback"],"classroomPairings":[["A","B"],["C","D"]],"coinWeights":[0.2,0.5,0.8],"subjectId":"A2FGKKWP33DFWS","assignmentId":"3ZDAD0O1T2ZKRQKDZTHZIHEQU0MXTS","hitId":"3YGE63DIN8J20XK20KS1742RQF60WK","url":"https://gershmanlab.com/experiments/alicia/teaching/experiment/?hitId=3YGE63DIN8J20XK20KS1742RQF60WK&workerId=A2FGKKWP33DFWS&assignmentId=3ZDAD0O1T2ZKRQKDZTHZIHEQU0MXTS&a=1DDZ8&tp_a=1DDZ8&b=3ZDAD0O1T2ZKRQKDZTHZIHEQU0MXTS&tp_b=3ZDAD0O1T2ZKRQKDZTHZIHEQU0MXTS&c=365198&tp_c=365198"},{"rt":2138,"stimulus":"\n            <h4 style=\"color:Orange;\">Student 8</h4>\n            <h2>The weight of your coin is <b style=\"color:Tomato;\">0.5</b>.</h2>\n            <p>In this block, you will be giving <b>two</b> sets of examples to Student 8.</p>\n                <p>You will receive feedback at the end of the block.</p>\n            ","response":0,"trial_type":"html-button-response","trial_index":66,"time_elapsed":669551,"internal_node_id":"0.0-65.0","params":{"nStudents":24,"maxFlips":30,"completionMinutes":45,"basePay":8,"maxBonus":9,"perTrialBonus":0.5,"perTrialBonusThreshold":0.1,"exampleCost":0.01},"classroomParams":{"A":{"a":1,"b":4},"B":{"a":4,"b":1},"C":{"a":2,"b":8},"D":{"a":8,"b":2}},"conditions":["nonSeqFull","nonSeqPartial","seqNoFeedback","seqFeedback"],"classroomPairings":[["A","B"],["C","D"]],"coinWeights":[0.2,0.5,0.8],"subjectId":"A2FGKKWP33DFWS","assignmentId":"3ZDAD0O1T2ZKRQKDZTHZIHEQU0MXTS","hitId":"3YGE63DIN8J20XK20KS1742RQF60WK","url":"https://gershmanlab.com/experiments/alicia/teaching/experiment/?hitId=3YGE63DIN8J20XK20KS1742RQF60WK&workerId=A2FGKKWP33DFWS&assignmentId=3ZDAD0O1T2ZKRQKDZTHZIHEQU0MXTS&a=1DDZ8&tp_a=1DDZ8&b=3ZDAD0O1T2ZKRQKDZTHZIHEQU0MXTS&tp_b=3ZDAD0O1T2ZKRQKDZTHZIHEQU0MXTS&c=365198&tp_c=365198"},{"rt":7665,"response":{"heads":"5","tails":"5"},"type":"response","condition":"seqNoFeedback","trueTheta":0.5,"classrooms":["C","D"],"studentTrueClassroom":"D","exampleSet":"first","trial_type":"survey-html-form","trial_index":67,"time_elapsed":677217,"internal_node_id":"0.0-66.0-0.0","params":{"nStudents":24,"maxFlips":30,"completionMinutes":45,"basePay":8,"maxBonus":9,"perTrialBonus":0.5,"perTrialBonusThreshold":0.1,"exampleCost":0.01},"classroomParams":{"A":{"a":1,"b":4},"B":{"a":4,"b":1},"C":{"a":2,"b":8},"D":{"a":8,"b":2}},"conditions":["nonSeqFull","nonSeqPartial","seqNoFeedback","seqFeedback"],"classroomPairings":[["A","B"],["C","D"]],"coinWeights":[0.2,0.5,0.8],"subjectId":"A2FGKKWP33DFWS","assignmentId":"3ZDAD0O1T2ZKRQKDZTHZIHEQU0MXTS","hitId":"3YGE63DIN8J20XK20KS1742RQF60WK","url":"https://gershmanlab.com/experiments/alicia/teaching/experiment/?hitId=3YGE63DIN8J20XK20KS1742RQF60WK&workerId=A2FGKKWP33DFWS&assignmentId=3ZDAD0O1T2ZKRQKDZTHZIHEQU0MXTS&a=1DDZ8&tp_a=1DDZ8&b=3ZDAD0O1T2ZKRQKDZTHZIHEQU0MXTS&tp_b=3ZDAD0O1T2ZKRQKDZTHZIHEQU0MXTS&c=365198&tp_c=365198","heads":5,"tails":5,"studentIndex":7,"studentTrueHypers":{"a":8,"b":2},"studentGuess":0.65,"delta":0.15000000000000002,"totalExamples":10,"bonusSoFar":1.38},{"rt":null,"stimulus":"Sending examples to student... ","response":null,"trial_type":"html-keyboard-response","trial_index":68,"time_elapsed":678468,"internal_node_id":"0.0-67.0","params":{"nStudents":24,"maxFlips":30,"completionMinutes":45,"basePay":8,"maxBonus":9,"perTrialBonus":0.5,"perTrialBonusThreshold":0.1,"exampleCost":0.01},"classroomParams":{"A":{"a":1,"b":4},"B":{"a":4,"b":1},"C":{"a":2,"b":8},"D":{"a":8,"b":2}},"conditions":["nonSeqFull","nonSeqPartial","seqNoFeedback","seqFeedback"],"classroomPairings":[["A","B"],["C","D"]],"coinWeights":[0.2,0.5,0.8],"subjectId":"A2FGKKWP33DFWS","assignmentId":"3ZDAD0O1T2ZKRQKDZTHZIHEQU0MXTS","hitId":"3YGE63DIN8J20XK20KS1742RQF60WK","url":"https://gershmanlab.com/experiments/alicia/teaching/experiment/?hitId=3YGE63DIN8J20XK20KS1742RQF60WK&workerId=A2FGKKWP33DFWS&assignmentId=3ZDAD0O1T2ZKRQKDZTHZIHEQU0MXTS&a=1DDZ8&tp_a=1DDZ8&b=3ZDAD0O1T2ZKRQKDZTHZIHEQU0MXTS&tp_b=3ZDAD0O1T2ZKRQKDZTHZIHEQU0MXTS&c=365198&tp_c=365198"},{"rt":null,"stimulus":"Examples sent to student! Waiting for student...","response":null,"trial_type":"html-keyboard-response","trial_index":69,"time_elapsed":682477,"internal_node_id":"0.0-68.0","params":{"nStudents":24,"maxFlips":30,"completionMinutes":45,"basePay":8,"maxBonus":9,"perTrialBonus":0.5,"perTrialBonusThreshold":0.1,"exampleCost":0.01},"classroomParams":{"A":{"a":1,"b":4},"B":{"a":4,"b":1},"C":{"a":2,"b":8},"D":{"a":8,"b":2}},"conditions":["nonSeqFull","nonSeqPartial","seqNoFeedback","seqFeedback"],"classroomPairings":[["A","B"],["C","D"]],"coinWeights":[0.2,0.5,0.8],"subjectId":"A2FGKKWP33DFWS","assignmentId":"3ZDAD0O1T2ZKRQKDZTHZIHEQU0MXTS","hitId":"3YGE63DIN8J20XK20KS1742RQF60WK","url":"https://gershmanlab.com/experiments/alicia/teaching/experiment/?hitId=3YGE63DIN8J20XK20KS1742RQF60WK&workerId=A2FGKKWP33DFWS&assignmentId=3ZDAD0O1T2ZKRQKDZTHZIHEQU0MXTS&a=1DDZ8&tp_a=1DDZ8&b=3ZDAD0O1T2ZKRQKDZTHZIHEQU0MXTS&tp_b=3ZDAD0O1T2ZKRQKDZTHZIHEQU0MXTS&c=365198&tp_c=365198"},{"rt":12805,"response":{"heads":"5","tails":"5"},"type":"response","condition":"seqNoFeedback","trueTheta":0.5,"classrooms":["C","D"],"studentTrueClassroom":"D","exampleSet":"second","trial_type":"survey-html-form","trial_index":70,"time_elapsed":695283,"internal_node_id":"0.0-69.0-0.0","params":{"nStudents":24,"maxFlips":30,"completionMinutes":45,"basePay":8,"maxBonus":9,"perTrialBonus":0.5,"perTrialBonusThreshold":0.1,"exampleCost":0.01},"classroomParams":{"A":{"a":1,"b":4},"B":{"a":4,"b":1},"C":{"a":2,"b":8},"D":{"a":8,"b":2}},"conditions":["nonSeqFull","nonSeqPartial","seqNoFeedback","seqFeedback"],"classroomPairings":[["A","B"],["C","D"]],"coinWeights":[0.2,0.5,0.8],"subjectId":"A2FGKKWP33DFWS","assignmentId":"3ZDAD0O1T2ZKRQKDZTHZIHEQU0MXTS","hitId":"3YGE63DIN8J20XK20KS1742RQF60WK","url":"https://gershmanlab.com/experiments/alicia/teaching/experiment/?hitId=3YGE63DIN8J20XK20KS1742RQF60WK&workerId=A2FGKKWP33DFWS&assignmentId=3ZDAD0O1T2ZKRQKDZTHZIHEQU0MXTS&a=1DDZ8&tp_a=1DDZ8&b=3ZDAD0O1T2ZKRQKDZTHZIHEQU0MXTS&tp_b=3ZDAD0O1T2ZKRQKDZTHZIHEQU0MXTS&c=365198&tp_c=365198","firstResponseHeads":5,"firstResponseTails":5,"secondResponseHeads":5,"secondResponseTails":5,"studentIndex":7,"studentTrueHypers":{"a":8,"b":2},"studentGuess":0.6,"delta":0.09999999999999998,"bonus":0.3,"bonusSoFar":1.68,"totalExamples":20},{"rt":null,"stimulus":"Sending examples to student... ","response":null,"trial_type":"html-keyboard-response","trial_index":71,"time_elapsed":697048,"internal_node_id":"0.0-70.0","params":{"nStudents":24,"maxFlips":30,"completionMinutes":45,"basePay":8,"maxBonus":9,"perTrialBonus":0.5,"perTrialBonusThreshold":0.1,"exampleCost":0.01},"classroomParams":{"A":{"a":1,"b":4},"B":{"a":4,"b":1},"C":{"a":2,"b":8},"D":{"a":8,"b":2}},"conditions":["nonSeqFull","nonSeqPartial","seqNoFeedback","seqFeedback"],"classroomPairings":[["A","B"],["C","D"]],"coinWeights":[0.2,0.5,0.8],"subjectId":"A2FGKKWP33DFWS","assignmentId":"3ZDAD0O1T2ZKRQKDZTHZIHEQU0MXTS","hitId":"3YGE63DIN8J20XK20KS1742RQF60WK","url":"https://gershmanlab.com/experiments/alicia/teaching/experiment/?hitId=3YGE63DIN8J20XK20KS1742RQF60WK&workerId=A2FGKKWP33DFWS&assignmentId=3ZDAD0O1T2ZKRQKDZTHZIHEQU0MXTS&a=1DDZ8&tp_a=1DDZ8&b=3ZDAD0O1T2ZKRQKDZTHZIHEQU0MXTS&tp_b=3ZDAD0O1T2ZKRQKDZTHZIHEQU0MXTS&c=365198&tp_c=365198"},{"rt":null,"stimulus":"Examples sent to student! Waiting for student...","response":null,"trial_type":"html-keyboard-response","trial_index":72,"time_elapsed":702057,"internal_node_id":"0.0-71.0","params":{"nStudents":24,"maxFlips":30,"completionMinutes":45,"basePay":8,"maxBonus":9,"perTrialBonus":0.5,"perTrialBonusThreshold":0.1,"exampleCost":0.01},"classroomParams":{"A":{"a":1,"b":4},"B":{"a":4,"b":1},"C":{"a":2,"b":8},"D":{"a":8,"b":2}},"conditions":["nonSeqFull","nonSeqPartial","seqNoFeedback","seqFeedback"],"classroomPairings":[["A","B"],["C","D"]],"coinWeights":[0.2,0.5,0.8],"subjectId":"A2FGKKWP33DFWS","assignmentId":"3ZDAD0O1T2ZKRQKDZTHZIHEQU0MXTS","hitId":"3YGE63DIN8J20XK20KS1742RQF60WK","url":"https://gershmanlab.com/experiments/alicia/teaching/experiment/?hitId=3YGE63DIN8J20XK20KS1742RQF60WK&workerId=A2FGKKWP33DFWS&assignmentId=3ZDAD0O1T2ZKRQKDZTHZIHEQU0MXTS&a=1DDZ8&tp_a=1DDZ8&b=3ZDAD0O1T2ZKRQKDZTHZIHEQU0MXTS&tp_b=3ZDAD0O1T2ZKRQKDZTHZIHEQU0MXTS&c=365198&tp_c=365198"},{"rt":6416,"stimulus":"\n                <p>Student 8's first guess for coin weight: <b style=\"color:Tomato\";>0.65</b></p>\n                <p>Student 8's second guess for coin weight: <b style=\"color:Tomato\";>0.60</b></p>\n                <p>You received a bonus of <b>$0.30</b> based on the student's second guess.</p>\n                <p>Total bonus so far: <b>$1.68</b></p>\n                <p>Press any key to continue.</p>\n                ","response":" ","trial_type":"html-keyboard-response","trial_index":73,"time_elapsed":708474,"internal_node_id":"0.0-72.0","params":{"nStudents":24,"maxFlips":30,"completionMinutes":45,"basePay":8,"maxBonus":9,"perTrialBonus":0.5,"perTrialBonusThreshold":0.1,"exampleCost":0.01},"classroomParams":{"A":{"a":1,"b":4},"B":{"a":4,"b":1},"C":{"a":2,"b":8},"D":{"a":8,"b":2}},"conditions":["nonSeqFull","nonSeqPartial","seqNoFeedback","seqFeedback"],"classroomPairings":[["A","B"],["C","D"]],"coinWeights":[0.2,0.5,0.8],"subjectId":"A2FGKKWP33DFWS","assignmentId":"3ZDAD0O1T2ZKRQKDZTHZIHEQU0MXTS","hitId":"3YGE63DIN8J20XK20KS1742RQF60WK","url":"https://gershmanlab.com/experiments/alicia/teaching/experiment/?hitId=3YGE63DIN8J20XK20KS1742RQF60WK&workerId=A2FGKKWP33DFWS&assignmentId=3ZDAD0O1T2ZKRQKDZTHZIHEQU0MXTS&a=1DDZ8&tp_a=1DDZ8&b=3ZDAD0O1T2ZKRQKDZTHZIHEQU0MXTS&tp_b=3ZDAD0O1T2ZKRQKDZTHZIHEQU0MXTS&c=365198&tp_c=365198"},{"rt":null,"stimulus":"<div style=\"font-size:60px;\">Next student</div>","response":null,"trial_type":"html-keyboard-response","trial_index":74,"time_elapsed":710733,"internal_node_id":"0.0-73.0-0.0","params":{"nStudents":24,"maxFlips":30,"completionMinutes":45,"basePay":8,"maxBonus":9,"perTrialBonus":0.5,"perTrialBonusThreshold":0.1,"exampleCost":0.01},"classroomParams":{"A":{"a":1,"b":4},"B":{"a":4,"b":1},"C":{"a":2,"b":8},"D":{"a":8,"b":2}},"conditions":["nonSeqFull","nonSeqPartial","seqNoFeedback","seqFeedback"],"classroomPairings":[["A","B"],["C","D"]],"coinWeights":[0.2,0.5,0.8],"subjectId":"A2FGKKWP33DFWS","assignmentId":"3ZDAD0O1T2ZKRQKDZTHZIHEQU0MXTS","hitId":"3YGE63DIN8J20XK20KS1742RQF60WK","url":"https://gershmanlab.com/experiments/alicia/teaching/experiment/?hitId=3YGE63DIN8J20XK20KS1742RQF60WK&workerId=A2FGKKWP33DFWS&assignmentId=3ZDAD0O1T2ZKRQKDZTHZIHEQU0MXTS&a=1DDZ8&tp_a=1DDZ8&b=3ZDAD0O1T2ZKRQKDZTHZIHEQU0MXTS&tp_b=3ZDAD0O1T2ZKRQKDZTHZIHEQU0MXTS&c=365198&tp_c=365198"},{"rt":2039,"stimulus":"\n            <h4 style=\"color:Orange;\">Student 9</h4>\n            <h2>The weight of your coin is <b style=\"color:Tomato;\">0.8</b>.</h2>\n            <p>In this block, you will be giving <b>one</b> set of examples to Student 9.</p>\n                <p>You will receive feedback at the end of the block.</p>\n            ","response":0,"trial_type":"html-button-response","trial_index":75,"time_elapsed":712774,"internal_node_id":"0.0-74.0","params":{"nStudents":24,"maxFlips":30,"completionMinutes":45,"basePay":8,"maxBonus":9,"perTrialBonus":0.5,"perTrialBonusThreshold":0.1,"exampleCost":0.01},"classroomParams":{"A":{"a":1,"b":4},"B":{"a":4,"b":1},"C":{"a":2,"b":8},"D":{"a":8,"b":2}},"conditions":["nonSeqFull","nonSeqPartial","seqNoFeedback","seqFeedback"],"classroomPairings":[["A","B"],["C","D"]],"coinWeights":[0.2,0.5,0.8],"subjectId":"A2FGKKWP33DFWS","assignmentId":"3ZDAD0O1T2ZKRQKDZTHZIHEQU0MXTS","hitId":"3YGE63DIN8J20XK20KS1742RQF60WK","url":"https://gershmanlab.com/experiments/alicia/teaching/experiment/?hitId=3YGE63DIN8J20XK20KS1742RQF60WK&workerId=A2FGKKWP33DFWS&assignmentId=3ZDAD0O1T2ZKRQKDZTHZIHEQU0MXTS&a=1DDZ8&tp_a=1DDZ8&b=3ZDAD0O1T2ZKRQKDZTHZIHEQU0MXTS&tp_b=3ZDAD0O1T2ZKRQKDZTHZIHEQU0MXTS&c=365198&tp_c=365198"},{"rt":14562,"response":{"heads":"8","tails":"2"},"type":"response","condition":"nonSeqPartial","trueTheta":0.8,"classrooms":["C","D"],"studentTrueClassroom":"D","exampleSet":"first","trial_type":"survey-html-form","trial_index":76,"time_elapsed":727337,"internal_node_id":"0.0-75.0-0.0","params":{"nStudents":24,"maxFlips":30,"completionMinutes":45,"basePay":8,"maxBonus":9,"perTrialBonus":0.5,"perTrialBonusThreshold":0.1,"exampleCost":0.01},"classroomParams":{"A":{"a":1,"b":4},"B":{"a":4,"b":1},"C":{"a":2,"b":8},"D":{"a":8,"b":2}},"conditions":["nonSeqFull","nonSeqPartial","seqNoFeedback","seqFeedback"],"classroomPairings":[["A","B"],["C","D"]],"coinWeights":[0.2,0.5,0.8],"subjectId":"A2FGKKWP33DFWS","assignmentId":"3ZDAD0O1T2ZKRQKDZTHZIHEQU0MXTS","hitId":"3YGE63DIN8J20XK20KS1742RQF60WK","url":"https://gershmanlab.com/experiments/alicia/teaching/experiment/?hitId=3YGE63DIN8J20XK20KS1742RQF60WK&workerId=A2FGKKWP33DFWS&assignmentId=3ZDAD0O1T2ZKRQKDZTHZIHEQU0MXTS&a=1DDZ8&tp_a=1DDZ8&b=3ZDAD0O1T2ZKRQKDZTHZIHEQU0MXTS&tp_b=3ZDAD0O1T2ZKRQKDZTHZIHEQU0MXTS&c=365198&tp_c=365198","heads":8,"tails":2,"studentIndex":8,"studentTrueHypers":{"a":8,"b":2},"studentGuess":0.8,"delta":0,"totalExamples":10,"bonus":0.4,"bonusSoFar":2.08},{"rt":null,"stimulus":"Sending examples to student... ","response":null,"trial_type":"html-keyboard-response","trial_index":77,"time_elapsed":729102,"internal_node_id":"0.0-76.0","params":{"nStudents":24,"maxFlips":30,"completionMinutes":45,"basePay":8,"maxBonus":9,"perTrialBonus":0.5,"perTrialBonusThreshold":0.1,"exampleCost":0.01},"classroomParams":{"A":{"a":1,"b":4},"B":{"a":4,"b":1},"C":{"a":2,"b":8},"D":{"a":8,"b":2}},"conditions":["nonSeqFull","nonSeqPartial","seqNoFeedback","seqFeedback"],"classroomPairings":[["A","B"],["C","D"]],"coinWeights":[0.2,0.5,0.8],"subjectId":"A2FGKKWP33DFWS","assignmentId":"3ZDAD0O1T2ZKRQKDZTHZIHEQU0MXTS","hitId":"3YGE63DIN8J20XK20KS1742RQF60WK","url":"https://gershmanlab.com/experiments/alicia/teaching/experiment/?hitId=3YGE63DIN8J20XK20KS1742RQF60WK&workerId=A2FGKKWP33DFWS&assignmentId=3ZDAD0O1T2ZKRQKDZTHZIHEQU0MXTS&a=1DDZ8&tp_a=1DDZ8&b=3ZDAD0O1T2ZKRQKDZTHZIHEQU0MXTS&tp_b=3ZDAD0O1T2ZKRQKDZTHZIHEQU0MXTS&c=365198&tp_c=365198"},{"rt":null,"stimulus":"Examples sent to student! Waiting for student...","response":null,"trial_type":"html-keyboard-response","trial_index":78,"time_elapsed":734106,"internal_node_id":"0.0-77.0","params":{"nStudents":24,"maxFlips":30,"completionMinutes":45,"basePay":8,"maxBonus":9,"perTrialBonus":0.5,"perTrialBonusThreshold":0.1,"exampleCost":0.01},"classroomParams":{"A":{"a":1,"b":4},"B":{"a":4,"b":1},"C":{"a":2,"b":8},"D":{"a":8,"b":2}},"conditions":["nonSeqFull","nonSeqPartial","seqNoFeedback","seqFeedback"],"classroomPairings":[["A","B"],["C","D"]],"coinWeights":[0.2,0.5,0.8],"subjectId":"A2FGKKWP33DFWS","assignmentId":"3ZDAD0O1T2ZKRQKDZTHZIHEQU0MXTS","hitId":"3YGE63DIN8J20XK20KS1742RQF60WK","url":"https://gershmanlab.com/experiments/alicia/teaching/experiment/?hitId=3YGE63DIN8J20XK20KS1742RQF60WK&workerId=A2FGKKWP33DFWS&assignmentId=3ZDAD0O1T2ZKRQKDZTHZIHEQU0MXTS&a=1DDZ8&tp_a=1DDZ8&b=3ZDAD0O1T2ZKRQKDZTHZIHEQU0MXTS&tp_b=3ZDAD0O1T2ZKRQKDZTHZIHEQU0MXTS&c=365198&tp_c=365198"},{"rt":7022,"stimulus":"\n                <p>Student's guess for coin weight: <b style=\"color:Tomato;\">0.80</b></p>\n                <p>You received a bonus of <b>$0.4</b>. Total bonus so far: <b>$2.08</b></b></p>\n                <p> Press any key to continue.</p>\n                ","response":" ","trial_type":"html-keyboard-response","trial_index":79,"time_elapsed":741130,"internal_node_id":"0.0-78.0","params":{"nStudents":24,"maxFlips":30,"completionMinutes":45,"basePay":8,"maxBonus":9,"perTrialBonus":0.5,"perTrialBonusThreshold":0.1,"exampleCost":0.01},"classroomParams":{"A":{"a":1,"b":4},"B":{"a":4,"b":1},"C":{"a":2,"b":8},"D":{"a":8,"b":2}},"conditions":["nonSeqFull","nonSeqPartial","seqNoFeedback","seqFeedback"],"classroomPairings":[["A","B"],["C","D"]],"coinWeights":[0.2,0.5,0.8],"subjectId":"A2FGKKWP33DFWS","assignmentId":"3ZDAD0O1T2ZKRQKDZTHZIHEQU0MXTS","hitId":"3YGE63DIN8J20XK20KS1742RQF60WK","url":"https://gershmanlab.com/experiments/alicia/teaching/experiment/?hitId=3YGE63DIN8J20XK20KS1742RQF60WK&workerId=A2FGKKWP33DFWS&assignmentId=3ZDAD0O1T2ZKRQKDZTHZIHEQU0MXTS&a=1DDZ8&tp_a=1DDZ8&b=3ZDAD0O1T2ZKRQKDZTHZIHEQU0MXTS&tp_b=3ZDAD0O1T2ZKRQKDZTHZIHEQU0MXTS&c=365198&tp_c=365198"},{"rt":null,"stimulus":"<div style=\"font-size:60px;\">Next student</div>","response":null,"trial_type":"html-keyboard-response","trial_index":80,"time_elapsed":743633,"internal_node_id":"0.0-79.0-0.0","params":{"nStudents":24,"maxFlips":30,"completionMinutes":45,"basePay":8,"maxBonus":9,"perTrialBonus":0.5,"perTrialBonusThreshold":0.1,"exampleCost":0.01},"classroomParams":{"A":{"a":1,"b":4},"B":{"a":4,"b":1},"C":{"a":2,"b":8},"D":{"a":8,"b":2}},"conditions":["nonSeqFull","nonSeqPartial","seqNoFeedback","seqFeedback"],"classroomPairings":[["A","B"],["C","D"]],"coinWeights":[0.2,0.5,0.8],"subjectId":"A2FGKKWP33DFWS","assignmentId":"3ZDAD0O1T2ZKRQKDZTHZIHEQU0MXTS","hitId":"3YGE63DIN8J20XK20KS1742RQF60WK","url":"https://gershmanlab.com/experiments/alicia/teaching/experiment/?hitId=3YGE63DIN8J20XK20KS1742RQF60WK&workerId=A2FGKKWP33DFWS&assignmentId=3ZDAD0O1T2ZKRQKDZTHZIHEQU0MXTS&a=1DDZ8&tp_a=1DDZ8&b=3ZDAD0O1T2ZKRQKDZTHZIHEQU0MXTS&tp_b=3ZDAD0O1T2ZKRQKDZTHZIHEQU0MXTS&c=365198&tp_c=365198"},{"rt":2679,"stimulus":"\n            <h4 style=\"color:Orange;\">Student 10</h4>\n            <h2>The weight of your coin is <b style=\"color:Tomato;\">0.2</b>.</h2>\n            <p>In this block, you will be giving <b>one</b> set of examples to Student 10.</p>\n                <p>You will receive feedback at the end of the block.</p>\n            ","response":0,"trial_type":"html-button-response","trial_index":81,"time_elapsed":746313,"internal_node_id":"0.0-80.0","params":{"nStudents":24,"maxFlips":30,"completionMinutes":45,"basePay":8,"maxBonus":9,"perTrialBonus":0.5,"perTrialBonusThreshold":0.1,"exampleCost":0.01},"classroomParams":{"A":{"a":1,"b":4},"B":{"a":4,"b":1},"C":{"a":2,"b":8},"D":{"a":8,"b":2}},"conditions":["nonSeqFull","nonSeqPartial","seqNoFeedback","seqFeedback"],"classroomPairings":[["A","B"],["C","D"]],"coinWeights":[0.2,0.5,0.8],"subjectId":"A2FGKKWP33DFWS","assignmentId":"3ZDAD0O1T2ZKRQKDZTHZIHEQU0MXTS","hitId":"3YGE63DIN8J20XK20KS1742RQF60WK","url":"https://gershmanlab.com/experiments/alicia/teaching/experiment/?hitId=3YGE63DIN8J20XK20KS1742RQF60WK&workerId=A2FGKKWP33DFWS&assignmentId=3ZDAD0O1T2ZKRQKDZTHZIHEQU0MXTS&a=1DDZ8&tp_a=1DDZ8&b=3ZDAD0O1T2ZKRQKDZTHZIHEQU0MXTS&tp_b=3ZDAD0O1T2ZKRQKDZTHZIHEQU0MXTS&c=365198&tp_c=365198"},{"rt":10005,"response":{"heads":"2","tails":"8"},"type":"response","condition":"nonSeqFull","trueTheta":0.2,"classrooms":["C","D"],"studentTrueClassroom":"C","exampleSet":"first","trial_type":"survey-html-form","trial_index":82,"time_elapsed":756319,"internal_node_id":"0.0-81.0-0.0","params":{"nStudents":24,"maxFlips":30,"completionMinutes":45,"basePay":8,"maxBonus":9,"perTrialBonus":0.5,"perTrialBonusThreshold":0.1,"exampleCost":0.01},"classroomParams":{"A":{"a":1,"b":4},"B":{"a":4,"b":1},"C":{"a":2,"b":8},"D":{"a":8,"b":2}},"conditions":["nonSeqFull","nonSeqPartial","seqNoFeedback","seqFeedback"],"classroomPairings":[["A","B"],["C","D"]],"coinWeights":[0.2,0.5,0.8],"subjectId":"A2FGKKWP33DFWS","assignmentId":"3ZDAD0O1T2ZKRQKDZTHZIHEQU0MXTS","hitId":"3YGE63DIN8J20XK20KS1742RQF60WK","url":"https://gershmanlab.com/experiments/alicia/teaching/experiment/?hitId=3YGE63DIN8J20XK20KS1742RQF60WK&workerId=A2FGKKWP33DFWS&assignmentId=3ZDAD0O1T2ZKRQKDZTHZIHEQU0MXTS&a=1DDZ8&tp_a=1DDZ8&b=3ZDAD0O1T2ZKRQKDZTHZIHEQU0MXTS&tp_b=3ZDAD0O1T2ZKRQKDZTHZIHEQU0MXTS&c=365198&tp_c=365198","heads":2,"tails":8,"studentIndex":9,"studentTrueHypers":{"a":2,"b":8},"studentGuess":0.2,"delta":0,"totalExamples":10,"bonus":0.4,"bonusSoFar":2.48},{"rt":null,"stimulus":"Sending examples to student... ","response":null,"trial_type":"html-keyboard-response","trial_index":83,"time_elapsed":758074,"internal_node_id":"0.0-82.0","params":{"nStudents":24,"maxFlips":30,"completionMinutes":45,"basePay":8,"maxBonus":9,"perTrialBonus":0.5,"perTrialBonusThreshold":0.1,"exampleCost":0.01},"classroomParams":{"A":{"a":1,"b":4},"B":{"a":4,"b":1},"C":{"a":2,"b":8},"D":{"a":8,"b":2}},"conditions":["nonSeqFull","nonSeqPartial","seqNoFeedback","seqFeedback"],"classroomPairings":[["A","B"],["C","D"]],"coinWeights":[0.2,0.5,0.8],"subjectId":"A2FGKKWP33DFWS","assignmentId":"3ZDAD0O1T2ZKRQKDZTHZIHEQU0MXTS","hitId":"3YGE63DIN8J20XK20KS1742RQF60WK","url":"https://gershmanlab.com/experiments/alicia/teaching/experiment/?hitId=3YGE63DIN8J20XK20KS1742RQF60WK&workerId=A2FGKKWP33DFWS&assignmentId=3ZDAD0O1T2ZKRQKDZTHZIHEQU0MXTS&a=1DDZ8&tp_a=1DDZ8&b=3ZDAD0O1T2ZKRQKDZTHZIHEQU0MXTS&tp_b=3ZDAD0O1T2ZKRQKDZTHZIHEQU0MXTS&c=365198&tp_c=365198"},{"rt":null,"stimulus":"Examples sent to student! Waiting for student...","response":null,"trial_type":"html-keyboard-response","trial_index":84,"time_elapsed":762590,"internal_node_id":"0.0-83.0","params":{"nStudents":24,"maxFlips":30,"completionMinutes":45,"basePay":8,"maxBonus":9,"perTrialBonus":0.5,"perTrialBonusThreshold":0.1,"exampleCost":0.01},"classroomParams":{"A":{"a":1,"b":4},"B":{"a":4,"b":1},"C":{"a":2,"b":8},"D":{"a":8,"b":2}},"conditions":["nonSeqFull","nonSeqPartial","seqNoFeedback","seqFeedback"],"classroomPairings":[["A","B"],["C","D"]],"coinWeights":[0.2,0.5,0.8],"subjectId":"A2FGKKWP33DFWS","assignmentId":"3ZDAD0O1T2ZKRQKDZTHZIHEQU0MXTS","hitId":"3YGE63DIN8J20XK20KS1742RQF60WK","url":"https://gershmanlab.com/experiments/alicia/teaching/experiment/?hitId=3YGE63DIN8J20XK20KS1742RQF60WK&workerId=A2FGKKWP33DFWS&assignmentId=3ZDAD0O1T2ZKRQKDZTHZIHEQU0MXTS&a=1DDZ8&tp_a=1DDZ8&b=3ZDAD0O1T2ZKRQKDZTHZIHEQU0MXTS&tp_b=3ZDAD0O1T2ZKRQKDZTHZIHEQU0MXTS&c=365198&tp_c=365198"},{"rt":5322,"stimulus":"\n                <p>Student's guess for coin weight: <b style=\"color:Tomato;\">0.20</b></p>\n                <p>You received a bonus of <b>$0.4</b>. Total bonus so far: <b>$2.48</b></b></p>\n                <p> Press any key to continue.</p>\n                ","response":" ","trial_type":"html-keyboard-response","trial_index":85,"time_elapsed":767914,"internal_node_id":"0.0-84.0","params":{"nStudents":24,"maxFlips":30,"completionMinutes":45,"basePay":8,"maxBonus":9,"perTrialBonus":0.5,"perTrialBonusThreshold":0.1,"exampleCost":0.01},"classroomParams":{"A":{"a":1,"b":4},"B":{"a":4,"b":1},"C":{"a":2,"b":8},"D":{"a":8,"b":2}},"conditions":["nonSeqFull","nonSeqPartial","seqNoFeedback","seqFeedback"],"classroomPairings":[["A","B"],["C","D"]],"coinWeights":[0.2,0.5,0.8],"subjectId":"A2FGKKWP33DFWS","assignmentId":"3ZDAD0O1T2ZKRQKDZTHZIHEQU0MXTS","hitId":"3YGE63DIN8J20XK20KS1742RQF60WK","url":"https://gershmanlab.com/experiments/alicia/teaching/experiment/?hitId=3YGE63DIN8J20XK20KS1742RQF60WK&workerId=A2FGKKWP33DFWS&assignmentId=3ZDAD0O1T2ZKRQKDZTHZIHEQU0MXTS&a=1DDZ8&tp_a=1DDZ8&b=3ZDAD0O1T2ZKRQKDZTHZIHEQU0MXTS&tp_b=3ZDAD0O1T2ZKRQKDZTHZIHEQU0MXTS&c=365198&tp_c=365198"},{"rt":null,"stimulus":"<div style=\"font-size:60px;\">Next student</div>","response":null,"trial_type":"html-keyboard-response","trial_index":86,"time_elapsed":770165,"internal_node_id":"0.0-85.0-0.0","params":{"nStudents":24,"maxFlips":30,"completionMinutes":45,"basePay":8,"maxBonus":9,"perTrialBonus":0.5,"perTrialBonusThreshold":0.1,"exampleCost":0.01},"classroomParams":{"A":{"a":1,"b":4},"B":{"a":4,"b":1},"C":{"a":2,"b":8},"D":{"a":8,"b":2}},"conditions":["nonSeqFull","nonSeqPartial","seqNoFeedback","seqFeedback"],"classroomPairings":[["A","B"],["C","D"]],"coinWeights":[0.2,0.5,0.8],"subjectId":"A2FGKKWP33DFWS","assignmentId":"3ZDAD0O1T2ZKRQKDZTHZIHEQU0MXTS","hitId":"3YGE63DIN8J20XK20KS1742RQF60WK","url":"h