[{"rt":6701,"stimulus":"Welcome to the experiment. Press any key to begin.","response":" ","trial_type":"html-keyboard-response","trial_index":0,"time_elapsed":6713,"internal_node_id":"0.0-0.0","params":{"nStudents":24,"maxFlips":30,"completionMinutes":45,"basePay":8,"maxBonus":9,"perTrialBonus":0.5,"perTrialBonusThreshold":0.1,"exampleCost":0.01},"classroomParams":{"A":{"a":1,"b":4},"B":{"a":4,"b":1},"C":{"a":2,"b":8},"D":{"a":8,"b":2}},"conditions":["nonSeqFull","nonSeqPartial","seqNoFeedback","seqFeedback"],"classroomPairings":[["A","B"],["C","D"]],"coinWeights":[0.2,0.5,0.8],"subjectId":"A2IQ0QCTQ3KWLT","assignmentId":"3T3IWE1XG790ITJ1DFM7O9IXXXZTQR","hitId":"3H6W48L9F4B5OEOMH57RM53ZYNHWPM","url":"https://gershmanlab.com/experiments/alicia/teaching/experiment/?hitId=3H6W48L9F4B5OEOMH57RM53ZYNHWPM&workerId=A2IQ0QCTQ3KWLT&assignmentId=3T3IWE1XG790ITJ1DFM7O9IXXXZTQR&a=XW3T8&tp_a=XW3T8&b=3T3IWE1XG790ITJ1DFM7O9IXXXZTQR&tp_b=3T3IWE1XG790ITJ1DFM7O9IXXXZTQR&c=365198&tp_c=365198"},{"rt":4216,"stimulus":"\n        <h3>Please read this consent agreement carefully before deciding whether to participate in this experiment.</h3>\n        <p><b>Purpose of the research:</b> To examine how people teach effectively.</p>\n        <p><b>What you will do in this research:</b> You will teach students the weights of different coins.</p>\n        <p><b>Time required:</b> This experiment will take 45 minutes to complete.</p>\n        <p><b>Risks:</b> There are no anticipated risks associated with participating in this study.             The effects of participating should be comparable to those you would experience from viewing a computer monitor             and using a mouse and keyboard for the duration of the experiment.</p>\n        <p><b>Benefits:</b> The study provides important information about the nature of teaching.</p>\n        <p><b>Compensation:</b> You will receive <b>$8</b> for completing the experiment and a performance bonus of up to <b>$9</b>.</p>\n        <p><b>Confidentiality:</b> Your participation in this study will remain confidential.             No personally identifiable information will be associated with your data.             Your de-identified data may be shared with other researchers and used in future projects.</p>\n        <p><b>Participation and withdrawal:</b> Your participation in this study is completely voluntary and             you may refuse to participate or you may choose to withdraw at any time without penalty or loss of\n            benefits to which you are otherwise entitled.</p>\n        <p><b>How to contact the researcher:</b> If you have questions or concerns about your participation            or payment, or want to request a summary of research findings, please contact\n            Alicia Chen, aliciachen@college.harvard.edu.</p>\n        <p><b>Whom to contact about your rights in this research:</b> For questions, concerns, suggestions,             or complaints that have not been or cannot be addressed by the researcher, or to report             research-related harm, please contact the Committee on the Use of Human Subjects in Research at Harvard University,             1414 Massachusetts Avenue, Second Floor, Cambridge, MA 02138. Phone: 617-496-2847. Email: cuhs@fas.harvard.edu.</p>\n        ","response":0,"trial_type":"html-button-response","trial_index":1,"time_elapsed":10931,"internal_node_id":"0.0-1.0","params":{"nStudents":24,"maxFlips":30,"completionMinutes":45,"basePay":8,"maxBonus":9,"perTrialBonus":0.5,"perTrialBonusThreshold":0.1,"exampleCost":0.01},"classroomParams":{"A":{"a":1,"b":4},"B":{"a":4,"b":1},"C":{"a":2,"b":8},"D":{"a":8,"b":2}},"conditions":["nonSeqFull","nonSeqPartial","seqNoFeedback","seqFeedback"],"classroomPairings":[["A","B"],["C","D"]],"coinWeights":[0.2,0.5,0.8],"subjectId":"A2IQ0QCTQ3KWLT","assignmentId":"3T3IWE1XG790ITJ1DFM7O9IXXXZTQR","hitId":"3H6W48L9F4B5OEOMH57RM53ZYNHWPM","url":"https://gershmanlab.com/experiments/alicia/teaching/experiment/?hitId=3H6W48L9F4B5OEOMH57RM53ZYNHWPM&workerId=A2IQ0QCTQ3KWLT&assignmentId=3T3IWE1XG790ITJ1DFM7O9IXXXZTQR&a=XW3T8&tp_a=XW3T8&b=3T3IWE1XG790ITJ1DFM7O9IXXXZTQR&tp_b=3T3IWE1XG790ITJ1DFM7O9IXXXZTQR&c=365198&tp_c=365198"},{"view_history":[{"page_index":0,"viewing_time":4599},{"page_index":1,"viewing_time":67528},{"page_index":2,"viewing_time":33640},{"page_index":3,"viewing_time":26102},{"page_index":4,"viewing_time":16482},{"page_index":5,"viewing_time":23796},{"page_index":6,"viewing_time":15616}],"rt":187764,"trial_type":"instructions","trial_index":2,"time_elapsed":198692,"internal_node_id":"0.0-2.0-0.0","params":{"nStudents":24,"maxFlips":30,"completionMinutes":45,"basePay":8,"maxBonus":9,"perTrialBonus":0.5,"perTrialBonusThreshold":0.1,"exampleCost":0.01},"classroomParams":{"A":{"a":1,"b":4},"B":{"a":4,"b":1},"C":{"a":2,"b":8},"D":{"a":8,"b":2}},"conditions":["nonSeqFull","nonSeqPartial","seqNoFeedback","seqFeedback"],"classroomPairings":[["A","B"],["C","D"]],"coinWeights":[0.2,0.5,0.8],"subjectId":"A2IQ0QCTQ3KWLT","assignmentId":"3T3IWE1XG790ITJ1DFM7O9IXXXZTQR","hitId":"3H6W48L9F4B5OEOMH57RM53ZYNHWPM","url":"https://gershmanlab.com/experiments/alicia/teaching/experiment/?hitId=3H6W48L9F4B5OEOMH57RM53ZYNHWPM&workerId=A2IQ0QCTQ3KWLT&assignmentId=3T3IWE1XG790ITJ1DFM7O9IXXXZTQR&a=XW3T8&tp_a=XW3T8&b=3T3IWE1XG790ITJ1DFM7O9IXXXZTQR&tp_b=3T3IWE1XG790ITJ1DFM7O9IXXXZTQR&c=365198&tp_c=365198"},{"rt":204403,"response":{"Q0":"Students in different classrooms have seen a different proportion of fair and unfair coins before seeing the examples you select for them.","Q1":"By giving 30 examples (the maximum) on each trial so I can make sure that the students' guesses are as accurate as possible.","Q2":"The coin lands heads 90% of the time.","Q3":"No, I will teach a <b>new</b> student each time.","Q4":"The students are also on the same alien planet as you, where coins can be unfair.","Q5":"Based on the student's second (and final) guess."},"question_order":[5,0,3,2,4,1],"trial_type":"survey-multi-choice","trial_index":3,"time_elapsed":403095,"internal_node_id":"0.0-2.0-1.0","params":{"nStudents":24,"maxFlips":30,"completionMinutes":45,"basePay":8,"maxBonus":9,"perTrialBonus":0.5,"perTrialBonusThreshold":0.1,"exampleCost":0.01},"classroomParams":{"A":{"a":1,"b":4},"B":{"a":4,"b":1},"C":{"a":2,"b":8},"D":{"a":8,"b":2}},"conditions":["nonSeqFull","nonSeqPartial","seqNoFeedback","seqFeedback"],"classroomPairings":[["A","B"],["C","D"]],"coinWeights":[0.2,0.5,0.8],"subjectId":"A2IQ0QCTQ3KWLT","assignmentId":"3T3IWE1XG790ITJ1DFM7O9IXXXZTQR","hitId":"3H6W48L9F4B5OEOMH57RM53ZYNHWPM","url":"https://gershmanlab.com/experiments/alicia/teaching/experiment/?hitId=3H6W48L9F4B5OEOMH57RM53ZYNHWPM&workerId=A2IQ0QCTQ3KWLT&assignmentId=3T3IWE1XG790ITJ1DFM7O9IXXXZTQR&a=XW3T8&tp_a=XW3T8&b=3T3IWE1XG790ITJ1DFM7O9IXXXZTQR&tp_b=3T3IWE1XG790ITJ1DFM7O9IXXXZTQR&c=365198&tp_c=365198","pass":false},{"rt":2782,"stimulus":"Oops, you have missed question(s) on the comprehension check! We'll show you the instructions again.","response":0,"trial_type":"html-button-response","trial_index":4,"time_elapsed":405884,"internal_node_id":"0.0-2.0-2.0-0.0","params":{"nStudents":24,"maxFlips":30,"completionMinutes":45,"basePay":8,"maxBonus":9,"perTrialBonus":0.5,"perTrialBonusThreshold":0.1,"exampleCost":0.01},"classroomParams":{"A":{"a":1,"b":4},"B":{"a":4,"b":1},"C":{"a":2,"b":8},"D":{"a":8,"b":2}},"conditions":["nonSeqFull","nonSeqPartial","seqNoFeedback","seqFeedback"],"classroomPairings":[["A","B"],["C","D"]],"coinWeights":[0.2,0.5,0.8],"subjectId":"A2IQ0QCTQ3KWLT","assignmentId":"3T3IWE1XG790ITJ1DFM7O9IXXXZTQR","hitId":"3H6W48L9F4B5OEOMH57RM53ZYNHWPM","url":"https://gershmanlab.com/experiments/alicia/teaching/experiment/?hitId=3H6W48L9F4B5OEOMH57RM53ZYNHWPM&workerId=A2IQ0QCTQ3KWLT&assignmentId=3T3IWE1XG790ITJ1DFM7O9IXXXZTQR&a=XW3T8&tp_a=XW3T8&b=3T3IWE1XG790ITJ1DFM7O9IXXXZTQR&tp_b=3T3IWE1XG790ITJ1DFM7O9IXXXZTQR&c=365198&tp_c=365198"},{"view_history":[{"page_index":0,"viewing_time":2058},{"page_index":1,"viewing_time":743},{"page_index":2,"viewing_time":990},{"page_index":3,"viewing_time":574},{"page_index":4,"viewing_time":833},{"page_index":5,"viewing_time":765},{"page_index":6,"viewing_time":1722}],"rt":7684,"trial_type":"instructions","trial_index":5,"time_elapsed":413568,"internal_node_id":"0.0-2.1-0.1","params":{"nStudents":24,"maxFlips":30,"completionMinutes":45,"basePay":8,"maxBonus":9,"perTrialBonus":0.5,"perTrialBonusThreshold":0.1,"exampleCost":0.01},"classroomParams":{"A":{"a":1,"b":4},"B":{"a":4,"b":1},"C":{"a":2,"b":8},"D":{"a":8,"b":2}},"conditions":["nonSeqFull","nonSeqPartial","seqNoFeedback","seqFeedback"],"classroomPairings":[["A","B"],["C","D"]],"coinWeights":[0.2,0.5,0.8],"subjectId":"A2IQ0QCTQ3KWLT","assignmentId":"3T3IWE1XG790ITJ1DFM7O9IXXXZTQR","hitId":"3H6W48L9F4B5OEOMH57RM53ZYNHWPM","url":"https://gershmanlab.com/experiments/alicia/teaching/experiment/?hitId=3H6W48L9F4B5OEOMH57RM53ZYNHWPM&workerId=A2IQ0QCTQ3KWLT&assignmentId=3T3IWE1XG790ITJ1DFM7O9IXXXZTQR&a=XW3T8&tp_a=XW3T8&b=3T3IWE1XG790ITJ1DFM7O9IXXXZTQR&tp_b=3T3IWE1XG790ITJ1DFM7O9IXXXZTQR&c=365198&tp_c=365198"},{"rt":134278,"response":{"Q0":"Students in different classrooms will have seen a different number of heads and tails before seeing the examples you select for them.","Q1":"By teaching efficiently and accurately/helpfully at the same time (because each example I give to the student costs money!).","Q2":"The coin lands heads 90% of the time.","Q3":"No, I will teach a <b>new</b> student each time.","Q4":"The students are also on the same alien planet as you, where coins can be unfair.","Q5":"Based on the student's second (and final) guess."},"question_order":[2,0,4,1,5,3],"trial_type":"survey-multi-choice","trial_index":6,"time_elapsed":547846,"internal_node_id":"0.0-2.1-1.1","params":{"nStudents":24,"maxFlips":30,"completionMinutes":45,"basePay":8,"maxBonus":9,"perTrialBonus":0.5,"perTrialBonusThreshold":0.1,"exampleCost":0.01},"classroomParams":{"A":{"a":1,"b":4},"B":{"a":4,"b":1},"C":{"a":2,"b":8},"D":{"a":8,"b":2}},"conditions":["nonSeqFull","nonSeqPartial","seqNoFeedback","seqFeedback"],"classroomPairings":[["A","B"],["C","D"]],"coinWeights":[0.2,0.5,0.8],"subjectId":"A2IQ0QCTQ3KWLT","assignmentId":"3T3IWE1XG790ITJ1DFM7O9IXXXZTQR","hitId":"3H6W48L9F4B5OEOMH57RM53ZYNHWPM","url":"https://gershmanlab.com/experiments/alicia/teaching/experiment/?hitId=3H6W48L9F4B5OEOMH57RM53ZYNHWPM&workerId=A2IQ0QCTQ3KWLT&assignmentId=3T3IWE1XG790ITJ1DFM7O9IXXXZTQR&a=XW3T8&tp_a=XW3T8&b=3T3IWE1XG790ITJ1DFM7O9IXXXZTQR&tp_b=3T3IWE1XG790ITJ1DFM7O9IXXXZTQR&c=365198&tp_c=365198","pass":true},{"rt":null,"stimulus":"<div style=\"font-size:30px;\">Congrats on passing the comprehension quiz! The experiment will begin in a few seconds.</div>","response":null,"trial_type":"html-keyboard-response","trial_index":7,"time_elapsed":550855,"internal_node_id":"0.0-3.0","params":{"nStudents":24,"maxFlips":30,"completionMinutes":45,"basePay":8,"maxBonus":9,"perTrialBonus":0.5,"perTrialBonusThreshold":0.1,"exampleCost":0.01},"classroomParams":{"A":{"a":1,"b":4},"B":{"a":4,"b":1},"C":{"a":2,"b":8},"D":{"a":8,"b":2}},"conditions":["nonSeqFull","nonSeqPartial","seqNoFeedback","seqFeedback"],"classroomPairings":[["A","B"],["C","D"]],"coinWeights":[0.2,0.5,0.8],"subjectId":"A2IQ0QCTQ3KWLT","assignmentId":"3T3IWE1XG790ITJ1DFM7O9IXXXZTQR","hitId":"3H6W48L9F4B5OEOMH57RM53ZYNHWPM","url":"https://gershmanlab.com/experiments/alicia/teaching/experiment/?hitId=3H6W48L9F4B5OEOMH57RM53ZYNHWPM&workerId=A2IQ0QCTQ3KWLT&assignmentId=3T3IWE1XG790ITJ1DFM7O9IXXXZTQR&a=XW3T8&tp_a=XW3T8&b=3T3IWE1XG790ITJ1DFM7O9IXXXZTQR&tp_b=3T3IWE1XG790ITJ1DFM7O9IXXXZTQR&c=365198&tp_c=365198"},{"rt":null,"stimulus":"<div style=\"font-size:50px;\">First student</div>","response":null,"trial_type":"html-keyboard-response","trial_index":8,"time_elapsed":553859,"internal_node_id":"0.0-4.0","params":{"nStudents":24,"maxFlips":30,"completionMinutes":45,"basePay":8,"maxBonus":9,"perTrialBonus":0.5,"perTrialBonusThreshold":0.1,"exampleCost":0.01},"classroomParams":{"A":{"a":1,"b":4},"B":{"a":4,"b":1},"C":{"a":2,"b":8},"D":{"a":8,"b":2}},"conditions":["nonSeqFull","nonSeqPartial","seqNoFeedback","seqFeedback"],"classroomPairings":[["A","B"],["C","D"]],"coinWeights":[0.2,0.5,0.8],"subjectId":"A2IQ0QCTQ3KWLT","assignmentId":"3T3IWE1XG790ITJ1DFM7O9IXXXZTQR","hitId":"3H6W48L9F4B5OEOMH57RM53ZYNHWPM","url":"https://gershmanlab.com/experiments/alicia/teaching/experiment/?hitId=3H6W48L9F4B5OEOMH57RM53ZYNHWPM&workerId=A2IQ0QCTQ3KWLT&assignmentId=3T3IWE1XG790ITJ1DFM7O9IXXXZTQR&a=XW3T8&tp_a=XW3T8&b=3T3IWE1XG790ITJ1DFM7O9IXXXZTQR&tp_b=3T3IWE1XG790ITJ1DFM7O9IXXXZTQR&c=365198&tp_c=365198"},{"rt":7407,"stimulus":"\n            <h4 style=\"color:Orange;\">Student 1</h4>\n            <h2>The weight of your coin is <b style=\"color:Tomato;\">0.2</b>.</h2>\n            <p>In this block, you will be giving <b>two</b> sets of examples to Student 1.</p>\n                <p>You will see the student's guess after the first set of examples. You will also receive feedback at the end of the block.</p>\n            ","response":0,"trial_type":"html-button-response","trial_index":9,"time_elapsed":561264,"internal_node_id":"0.0-5.0","params":{"nStudents":24,"maxFlips":30,"completionMinutes":45,"basePay":8,"maxBonus":9,"perTrialBonus":0.5,"perTrialBonusThreshold":0.1,"exampleCost":0.01},"classroomParams":{"A":{"a":1,"b":4},"B":{"a":4,"b":1},"C":{"a":2,"b":8},"D":{"a":8,"b":2}},"conditions":["nonSeqFull","nonSeqPartial","seqNoFeedback","seqFeedback"],"classroomPairings":[["A","B"],["C","D"]],"coinWeights":[0.2,0.5,0.8],"subjectId":"A2IQ0QCTQ3KWLT","assignmentId":"3T3IWE1XG790ITJ1DFM7O9IXXXZTQR","hitId":"3H6W48L9F4B5OEOMH57RM53ZYNHWPM","url":"https://gershmanlab.com/experiments/alicia/teaching/experiment/?hitId=3H6W48L9F4B5OEOMH57RM53ZYNHWPM&workerId=A2IQ0QCTQ3KWLT&assignmentId=3T3IWE1XG790ITJ1DFM7O9IXXXZTQR&a=XW3T8&tp_a=XW3T8&b=3T3IWE1XG790ITJ1DFM7O9IXXXZTQR&tp_b=3T3IWE1XG790ITJ1DFM7O9IXXXZTQR&c=365198&tp_c=365198"},{"rt":43495,"response":{"heads":"15","tails":"15"},"type":"response","condition":"seqFeedback","trueTheta":0.2,"classrooms":["A","B"],"studentTrueClassroom":"B","exampleSet":"first","trial_type":"survey-html-form","trial_index":10,"time_elapsed":604744,"internal_node_id":"0.0-6.0-0.0","params":{"nStudents":24,"maxFlips":30,"completionMinutes":45,"basePay":8,"maxBonus":9,"perTrialBonus":0.5,"perTrialBonusThreshold":0.1,"exampleCost":0.01},"classroomParams":{"A":{"a":1,"b":4},"B":{"a":4,"b":1},"C":{"a":2,"b":8},"D":{"a":8,"b":2}},"conditions":["nonSeqFull","nonSeqPartial","seqNoFeedback","seqFeedback"],"classroomPairings":[["A","B"],["C","D"]],"coinWeights":[0.2,0.5,0.8],"subjectId":"A2IQ0QCTQ3KWLT","assignmentId":"3T3IWE1XG790ITJ1DFM7O9IXXXZTQR","hitId":"3H6W48L9F4B5OEOMH57RM53ZYNHWPM","url":"https://gershmanlab.com/experiments/alicia/teaching/experiment/?hitId=3H6W48L9F4B5OEOMH57RM53ZYNHWPM&workerId=A2IQ0QCTQ3KWLT&assignmentId=3T3IWE1XG790ITJ1DFM7O9IXXXZTQR&a=XW3T8&tp_a=XW3T8&b=3T3IWE1XG790ITJ1DFM7O9IXXXZTQR&tp_b=3T3IWE1XG790ITJ1DFM7O9IXXXZTQR&c=365198&tp_c=365198","heads":15,"tails":15,"studentIndex":0,"studentTrueHypers":{"a":4,"b":1},"studentGuess":0.5428571428571428,"delta":0.3428571428571428,"totalExamples":30,"bonusSoFar":0},{"rt":null,"stimulus":"Sending examples to student... ","response":null,"trial_type":"html-keyboard-response","trial_index":11,"time_elapsed":606247,"internal_node_id":"0.0-7.0","params":{"nStudents":24,"maxFlips":30,"completionMinutes":45,"basePay":8,"maxBonus":9,"perTrialBonus":0.5,"perTrialBonusThreshold":0.1,"exampleCost":0.01},"classroomParams":{"A":{"a":1,"b":4},"B":{"a":4,"b":1},"C":{"a":2,"b":8},"D":{"a":8,"b":2}},"conditions":["nonSeqFull","nonSeqPartial","seqNoFeedback","seqFeedback"],"classroomPairings":[["A","B"],["C","D"]],"coinWeights":[0.2,0.5,0.8],"subjectId":"A2IQ0QCTQ3KWLT","assignmentId":"3T3IWE1XG790ITJ1DFM7O9IXXXZTQR","hitId":"3H6W48L9F4B5OEOMH57RM53ZYNHWPM","url":"https://gershmanlab.com/experiments/alicia/teaching/experiment/?hitId=3H6W48L9F4B5OEOMH57RM53ZYNHWPM&workerId=A2IQ0QCTQ3KWLT&assignmentId=3T3IWE1XG790ITJ1DFM7O9IXXXZTQR&a=XW3T8&tp_a=XW3T8&b=3T3IWE1XG790ITJ1DFM7O9IXXXZTQR&tp_b=3T3IWE1XG790ITJ1DFM7O9IXXXZTQR&c=365198&tp_c=365198"},{"rt":null,"stimulus":"Examples sent to student! Waiting for student...","response":null,"trial_type":"html-keyboard-response","trial_index":12,"time_elapsed":611751,"internal_node_id":"0.0-8.0","params":{"nStudents":24,"maxFlips":30,"completionMinutes":45,"basePay":8,"maxBonus":9,"perTrialBonus":0.5,"perTrialBonusThreshold":0.1,"exampleCost":0.01},"classroomParams":{"A":{"a":1,"b":4},"B":{"a":4,"b":1},"C":{"a":2,"b":8},"D":{"a":8,"b":2}},"conditions":["nonSeqFull","nonSeqPartial","seqNoFeedback","seqFeedback"],"classroomPairings":[["A","B"],["C","D"]],"coinWeights":[0.2,0.5,0.8],"subjectId":"A2IQ0QCTQ3KWLT","assignmentId":"3T3IWE1XG790ITJ1DFM7O9IXXXZTQR","hitId":"3H6W48L9F4B5OEOMH57RM53ZYNHWPM","url":"https://gershmanlab.com/experiments/alicia/teaching/experiment/?hitId=3H6W48L9F4B5OEOMH57RM53ZYNHWPM&workerId=A2IQ0QCTQ3KWLT&assignmentId=3T3IWE1XG790ITJ1DFM7O9IXXXZTQR&a=XW3T8&tp_a=XW3T8&b=3T3IWE1XG790ITJ1DFM7O9IXXXZTQR&tp_b=3T3IWE1XG790ITJ1DFM7O9IXXXZTQR&c=365198&tp_c=365198"},{"rt":9661,"stimulus":"\n                <p>Student's guess for coin weight: <b style=\"color:Tomato;\">0.54</b></p>\n                <p></b></p>\n                <p>You will now send another set of examples to your student. Press any key to continue.</p>\n                ","response":" ","trial_type":"html-keyboard-response","trial_index":13,"time_elapsed":621413,"internal_node_id":"0.0-9.0","params":{"nStudents":24,"maxFlips":30,"completionMinutes":45,"basePay":8,"maxBonus":9,"perTrialBonus":0.5,"perTrialBonusThreshold":0.1,"exampleCost":0.01},"classroomParams":{"A":{"a":1,"b":4},"B":{"a":4,"b":1},"C":{"a":2,"b":8},"D":{"a":8,"b":2}},"conditions":["nonSeqFull","nonSeqPartial","seqNoFeedback","seqFeedback"],"classroomPairings":[["A","B"],["C","D"]],"coinWeights":[0.2,0.5,0.8],"subjectId":"A2IQ0QCTQ3KWLT","assignmentId":"3T3IWE1XG790ITJ1DFM7O9IXXXZTQR","hitId":"3H6W48L9F4B5OEOMH57RM53ZYNHWPM","url":"https://gershmanlab.com/experiments/alicia/teaching/experiment/?hitId=3H6W48L9F4B5OEOMH57RM53ZYNHWPM&workerId=A2IQ0QCTQ3KWLT&assignmentId=3T3IWE1XG790ITJ1DFM7O9IXXXZTQR&a=XW3T8&tp_a=XW3T8&b=3T3IWE1XG790ITJ1DFM7O9IXXXZTQR&tp_b=3T3IWE1XG790ITJ1DFM7O9IXXXZTQR&c=365198&tp_c=365198"},{"rt":46063,"response":{"heads":"10","tails":"20"},"type":"response","condition":"seqFeedback","trueTheta":0.2,"classrooms":["A","B"],"studentTrueClassroom":"B","exampleSet":"second","trial_type":"survey-html-form","trial_index":14,"time_elapsed":667476,"internal_node_id":"0.0-10.0-0.0","params":{"nStudents":24,"maxFlips":30,"completionMinutes":45,"basePay":8,"maxBonus":9,"perTrialBonus":0.5,"perTrialBonusThreshold":0.1,"exampleCost":0.01},"classroomParams":{"A":{"a":1,"b":4},"B":{"a":4,"b":1},"C":{"a":2,"b":8},"D":{"a":8,"b":2}},"conditions":["nonSeqFull","nonSeqPartial","seqNoFeedback","seqFeedback"],"classroomPairings":[["A","B"],["C","D"]],"coinWeights":[0.2,0.5,0.8],"subjectId":"A2IQ0QCTQ3KWLT","assignmentId":"3T3IWE1XG790ITJ1DFM7O9IXXXZTQR","hitId":"3H6W48L9F4B5OEOMH57RM53ZYNHWPM","url":"https://gershmanlab.com/experiments/alicia/teaching/experiment/?hitId=3H6W48L9F4B5OEOMH57RM53ZYNHWPM&workerId=A2IQ0QCTQ3KWLT&assignmentId=3T3IWE1XG790ITJ1DFM7O9IXXXZTQR&a=XW3T8&tp_a=XW3T8&b=3T3IWE1XG790ITJ1DFM7O9IXXXZTQR&tp_b=3T3IWE1XG790ITJ1DFM7O9IXXXZTQR&c=365198&tp_c=365198","firstResponseHeads":15,"firstResponseTails":15,"secondResponseHeads":10,"secondResponseTails":20,"studentIndex":0,"studentTrueHypers":{"a":4,"b":1},"studentGuess":0.4461538461538462,"delta":0.24615384615384617,"bonus":0,"bonusSoFar":0,"totalExamples":60},{"rt":null,"stimulus":"Sending examples to student... ","response":null,"trial_type":"html-keyboard-response","trial_index":15,"time_elapsed":668729,"internal_node_id":"0.0-11.0","params":{"nStudents":24,"maxFlips":30,"completionMinutes":45,"basePay":8,"maxBonus":9,"perTrialBonus":0.5,"perTrialBonusThreshold":0.1,"exampleCost":0.01},"classroomParams":{"A":{"a":1,"b":4},"B":{"a":4,"b":1},"C":{"a":2,"b":8},"D":{"a":8,"b":2}},"conditions":["nonSeqFull","nonSeqPartial","seqNoFeedback","seqFeedback"],"classroomPairings":[["A","B"],["C","D"]],"coinWeights":[0.2,0.5,0.8],"subjectId":"A2IQ0QCTQ3KWLT","assignmentId":"3T3IWE1XG790ITJ1DFM7O9IXXXZTQR","hitId":"3H6W48L9F4B5OEOMH57RM53ZYNHWPM","url":"https://gershmanlab.com/experiments/alicia/teaching/experiment/?hitId=3H6W48L9F4B5OEOMH57RM53ZYNHWPM&workerId=A2IQ0QCTQ3KWLT&assignmentId=3T3IWE1XG790ITJ1DFM7O9IXXXZTQR&a=XW3T8&tp_a=XW3T8&b=3T3IWE1XG790ITJ1DFM7O9IXXXZTQR&tp_b=3T3IWE1XG790ITJ1DFM7O9IXXXZTQR&c=365198&tp_c=365198"},{"rt":null,"stimulus":"Examples sent to student! Waiting for student...","response":null,"trial_type":"html-keyboard-response","trial_index":16,"time_elapsed":673233,"internal_node_id":"0.0-12.0","params":{"nStudents":24,"maxFlips":30,"completionMinutes":45,"basePay":8,"maxBonus":9,"perTrialBonus":0.5,"perTrialBonusThreshold":0.1,"exampleCost":0.01},"classroomParams":{"A":{"a":1,"b":4},"B":{"a":4,"b":1},"C":{"a":2,"b":8},"D":{"a":8,"b":2}},"conditions":["nonSeqFull","nonSeqPartial","seqNoFeedback","seqFeedback"],"classroomPairings":[["A","B"],["C","D"]],"coinWeights":[0.2,0.5,0.8],"subjectId":"A2IQ0QCTQ3KWLT","assignmentId":"3T3IWE1XG790ITJ1DFM7O9IXXXZTQR","hitId":"3H6W48L9F4B5OEOMH57RM53ZYNHWPM","url":"https://gershmanlab.com/experiments/alicia/teaching/experiment/?hitId=3H6W48L9F4B5OEOMH57RM53ZYNHWPM&workerId=A2IQ0QCTQ3KWLT&assignmentId=3T3IWE1XG790ITJ1DFM7O9IXXXZTQR&a=XW3T8&tp_a=XW3T8&b=3T3IWE1XG790ITJ1DFM7O9IXXXZTQR&tp_b=3T3IWE1XG790ITJ1DFM7O9IXXXZTQR&c=365198&tp_c=365198"},{"rt":10889,"stimulus":"\n                <p>Student 1's first guess for coin weight: <b style=\"color:Tomato\";>0.54</b></p>\n                <p>Student 1's second guess for coin weight: <b style=\"color:Tomato\";>0.45</b></p>\n                <p>You received a bonus of <b>$0.00</b> based on the student's second guess.</p>\n                <p>Total bonus so far: <b>$0.00</b></p>\n                <p>Press any key to continue.</p>\n                ","response":" ","trial_type":"html-keyboard-response","trial_index":17,"time_elapsed":684123,"internal_node_id":"0.0-13.0","params":{"nStudents":24,"maxFlips":30,"completionMinutes":45,"basePay":8,"maxBonus":9,"perTrialBonus":0.5,"perTrialBonusThreshold":0.1,"exampleCost":0.01},"classroomParams":{"A":{"a":1,"b":4},"B":{"a":4,"b":1},"C":{"a":2,"b":8},"D":{"a":8,"b":2}},"conditions":["nonSeqFull","nonSeqPartial","seqNoFeedback","seqFeedback"],"classroomPairings":[["A","B"],["C","D"]],"coinWeights":[0.2,0.5,0.8],"subjectId":"A2IQ0QCTQ3KWLT","assignmentId":"3T3IWE1XG790ITJ1DFM7O9IXXXZTQR","hitId":"3H6W48L9F4B5OEOMH57RM53ZYNHWPM","url":"https://gershmanlab.com/experiments/alicia/teaching/experiment/?hitId=3H6W48L9F4B5OEOMH57RM53ZYNHWPM&workerId=A2IQ0QCTQ3KWLT&assignmentId=3T3IWE1XG790ITJ1DFM7O9IXXXZTQR&a=XW3T8&tp_a=XW3T8&b=3T3IWE1XG790ITJ1DFM7O9IXXXZTQR&tp_b=3T3IWE1XG790ITJ1DFM7O9IXXXZTQR&c=365198&tp_c=365198"},{"rt":null,"stimulus":"<div style=\"font-size:60px;\">Next student</div>","response":null,"trial_type":"html-keyboard-response","trial_index":18,"time_elapsed":686377,"internal_node_id":"0.0-14.0-0.0","params":{"nStudents":24,"maxFlips":30,"completionMinutes":45,"basePay":8,"maxBonus":9,"perTrialBonus":0.5,"perTrialBonusThreshold":0.1,"exampleCost":0.01},"classroomParams":{"A":{"a":1,"b":4},"B":{"a":4,"b":1},"C":{"a":2,"b":8},"D":{"a":8,"b":2}},"conditions":["nonSeqFull","nonSeqPartial","seqNoFeedback","seqFeedback"],"classroomPairings":[["A","B"],["C","D"]],"coinWeights":[0.2,0.5,0.8],"subjectId":"A2IQ0QCTQ3KWLT","assignmentId":"3T3IWE1XG790ITJ1DFM7O9IXXXZTQR","hitId":"3H6W48L9F4B5OEOMH57RM53ZYNHWPM","url":"https://gershmanlab.com/experiments/alicia/teaching/experiment/?hitId=3H6W48L9F4B5OEOMH57RM53ZYNHWPM&workerId=A2IQ0QCTQ3KWLT&assignmentId=3T3IWE1XG790ITJ1DFM7O9IXXXZTQR&a=XW3T8&tp_a=XW3T8&b=3T3IWE1XG790ITJ1DFM7O9IXXXZTQR&tp_b=3T3IWE1XG790ITJ1DFM7O9IXXXZTQR&c=365198&tp_c=365198"},{"rt":6637,"stimulus":"\n            <h4 style=\"color:Orange;\">Student 2</h4>\n            <h2>The weight of your coin is <b style=\"color:Tomato;\">0.8</b>.</h2>\n            <p>In this block, you will be giving <b>two</b> sets of examples to Student 2.</p>\n                <p>You will receive feedback at the end of the block.</p>\n            ","response":0,"trial_type":"html-button-response","trial_index":19,"time_elapsed":693015,"internal_node_id":"0.0-15.0","params":{"nStudents":24,"maxFlips":30,"completionMinutes":45,"basePay":8,"maxBonus":9,"perTrialBonus":0.5,"perTrialBonusThreshold":0.1,"exampleCost":0.01},"classroomParams":{"A":{"a":1,"b":4},"B":{"a":4,"b":1},"C":{"a":2,"b":8},"D":{"a":8,"b":2}},"conditions":["nonSeqFull","nonSeqPartial","seqNoFeedback","seqFeedback"],"classroomPairings":[["A","B"],["C","D"]],"coinWeights":[0.2,0.5,0.8],"subjectId":"A2IQ0QCTQ3KWLT","assignmentId":"3T3IWE1XG790ITJ1DFM7O9IXXXZTQR","hitId":"3H6W48L9F4B5OEOMH57RM53ZYNHWPM","url":"https://gershmanlab.com/experiments/alicia/teaching/experiment/?hitId=3H6W48L9F4B5OEOMH57RM53ZYNHWPM&workerId=A2IQ0QCTQ3KWLT&assignmentId=3T3IWE1XG790ITJ1DFM7O9IXXXZTQR&a=XW3T8&tp_a=XW3T8&b=3T3IWE1XG790ITJ1DFM7O9IXXXZTQR&tp_b=3T3IWE1XG790ITJ1DFM7O9IXXXZTQR&c=365198&tp_c=365198"},{"rt":19769,"response":{"heads":"30","tails":"0"},"type":"response","condition":"seqNoFeedback","trueTheta":0.8,"classrooms":["C","D"],"studentTrueClassroom":"D","exampleSet":"first","trial_type":"survey-html-form","trial_index":20,"time_elapsed":712784,"internal_node_id":"0.0-16.0-0.0","params":{"nStudents":24,"maxFlips":30,"completionMinutes":45,"basePay":8,"maxBonus":9,"perTrialBonus":0.5,"perTrialBonusThreshold":0.1,"exampleCost":0.01},"classroomParams":{"A":{"a":1,"b":4},"B":{"a":4,"b":1},"C":{"a":2,"b":8},"D":{"a":8,"b":2}},"conditions":["nonSeqFull","nonSeqPartial","seqNoFeedback","seqFeedback"],"classroomPairings":[["A","B"],["C","D"]],"coinWeights":[0.2,0.5,0.8],"subjectId":"A2IQ0QCTQ3KWLT","assignmentId":"3T3IWE1XG790ITJ1DFM7O9IXXXZTQR","hitId":"3H6W48L9F4B5OEOMH57RM53ZYNHWPM","url":"https://gershmanlab.com/experiments/alicia/teaching/experiment/?hitId=3H6W48L9F4B5OEOMH57RM53ZYNHWPM&workerId=A2IQ0QCTQ3KWLT&assignmentId=3T3IWE1XG790ITJ1DFM7O9IXXXZTQR&a=XW3T8&tp_a=XW3T8&b=3T3IWE1XG790ITJ1DFM7O9IXXXZTQR&tp_b=3T3IWE1XG790ITJ1DFM7O9IXXXZTQR&c=365198&tp_c=365198","heads":30,"tails":0,"studentIndex":1,"studentTrueHypers":{"a":8,"b":2},"studentGuess":0.95,"delta":0.1499999999999999,"totalExamples":30,"bonusSoFar":0},{"rt":null,"stimulus":"Sending examples to student... ","response":null,"trial_type":"html-keyboard-response","trial_index":21,"time_elapsed":714036,"internal_node_id":"0.0-17.0","params":{"nStudents":24,"maxFlips":30,"completionMinutes":45,"basePay":8,"maxBonus":9,"perTrialBonus":0.5,"perTrialBonusThreshold":0.1,"exampleCost":0.01},"classroomParams":{"A":{"a":1,"b":4},"B":{"a":4,"b":1},"C":{"a":2,"b":8},"D":{"a":8,"b":2}},"conditions":["nonSeqFull","nonSeqPartial","seqNoFeedback","seqFeedback"],"classroomPairings":[["A","B"],["C","D"]],"coinWeights":[0.2,0.5,0.8],"subjectId":"A2IQ0QCTQ3KWLT","assignmentId":"3T3IWE1XG790ITJ1DFM7O9IXXXZTQR","hitId":"3H6W48L9F4B5OEOMH57RM53ZYNHWPM","url":"https://gershmanlab.com/experiments/alicia/teaching/experiment/?hitId=3H6W48L9F4B5OEOMH57RM53ZYNHWPM&workerId=A2IQ0QCTQ3KWLT&assignmentId=3T3IWE1XG790ITJ1DFM7O9IXXXZTQR&a=XW3T8&tp_a=XW3T8&b=3T3IWE1XG790ITJ1DFM7O9IXXXZTQR&tp_b=3T3IWE1XG790ITJ1DFM7O9IXXXZTQR&c=365198&tp_c=365198"},{"rt":null,"stimulus":"Examples sent to student! Waiting for student...","response":null,"trial_type":"html-keyboard-response","trial_index":22,"time_elapsed":718539,"internal_node_id":"0.0-18.0","params":{"nStudents":24,"maxFlips":30,"completionMinutes":45,"basePay":8,"maxBonus":9,"perTrialBonus":0.5,"perTrialBonusThreshold":0.1,"exampleCost":0.01},"classroomParams":{"A":{"a":1,"b":4},"B":{"a":4,"b":1},"C":{"a":2,"b":8},"D":{"a":8,"b":2}},"conditions":["nonSeqFull","nonSeqPartial","seqNoFeedback","seqFeedback"],"classroomPairings":[["A","B"],["C","D"]],"coinWeights":[0.2,0.5,0.8],"subjectId":"A2IQ0QCTQ3KWLT","assignmentId":"3T3IWE1XG790ITJ1DFM7O9IXXXZTQR","hitId":"3H6W48L9F4B5OEOMH57RM53ZYNHWPM","url":"https://gershmanlab.com/experiments/alicia/teaching/experiment/?hitId=3H6W48L9F4B5OEOMH57RM53ZYNHWPM&workerId=A2IQ0QCTQ3KWLT&assignmentId=3T3IWE1XG790ITJ1DFM7O9IXXXZTQR&a=XW3T8&tp_a=XW3T8&b=3T3IWE1XG790ITJ1DFM7O9IXXXZTQR&tp_b=3T3IWE1XG790ITJ1DFM7O9IXXXZTQR&c=365198&tp_c=365198"},{"rt":10004,"response":{"heads":"30","tails":"0"},"type":"response","condition":"seqNoFeedback","trueTheta":0.8,"classrooms":["C","D"],"studentTrueClassroom":"D","exampleSet":"second","trial_type":"survey-html-form","trial_index":23,"time_elapsed":728544,"internal_node_id":"0.0-19.0-0.0","params":{"nStudents":24,"maxFlips":30,"completionMinutes":45,"basePay":8,"maxBonus":9,"perTrialBonus":0.5,"perTrialBonusThreshold":0.1,"exampleCost":0.01},"classroomParams":{"A":{"a":1,"b":4},"B":{"a":4,"b":1},"C":{"a":2,"b":8},"D":{"a":8,"b":2}},"conditions":["nonSeqFull","nonSeqPartial","seqNoFeedback","seqFeedback"],"classroomPairings":[["A","B"],["C","D"]],"coinWeights":[0.2,0.5,0.8],"subjectId":"A2IQ0QCTQ3KWLT","assignmentId":"3T3IWE1XG790ITJ1DFM7O9IXXXZTQR","hitId":"3H6W48L9F4B5OEOMH57RM53ZYNHWPM","url":"https://gershmanlab.com/experiments/alicia/teaching/experiment/?hitId=3H6W48L9F4B5OEOMH57RM53ZYNHWPM&workerId=A2IQ0QCTQ3KWLT&assignmentId=3T3IWE1XG790ITJ1DFM7O9IXXXZTQR&a=XW3T8&tp_a=XW3T8&b=3T3IWE1XG790ITJ1DFM7O9IXXXZTQR&tp_b=3T3IWE1XG790ITJ1DFM7O9IXXXZTQR&c=365198&tp_c=365198","firstResponseHeads":30,"firstResponseTails":0,"secondResponseHeads":30,"secondResponseTails":0,"studentIndex":1,"studentTrueHypers":{"a":8,"b":2},"studentGuess":0.9714285714285714,"delta":0.17142857142857137,"bonus":0,"bonusSoFar":0,"totalExamples":60},{"rt":null,"stimulus":"Sending examples to student... ","response":null,"trial_type":"html-keyboard-response","trial_index":24,"time_elapsed":730048,"internal_node_id":"0.0-20.0","params":{"nStudents":24,"maxFlips":30,"completionMinutes":45,"basePay":8,"maxBonus":9,"perTrialBonus":0.5,"perTrialBonusThreshold":0.1,"exampleCost":0.01},"classroomParams":{"A":{"a":1,"b":4},"B":{"a":4,"b":1},"C":{"a":2,"b":8},"D":{"a":8,"b":2}},"conditions":["nonSeqFull","nonSeqPartial","seqNoFeedback","seqFeedback"],"classroomPairings":[["A","B"],["C","D"]],"coinWeights":[0.2,0.5,0.8],"subjectId":"A2IQ0QCTQ3KWLT","assignmentId":"3T3IWE1XG790ITJ1DFM7O9IXXXZTQR","hitId":"3H6W48L9F4B5OEOMH57RM53ZYNHWPM","url":"https://gershmanlab.com/experiments/alicia/teaching/experiment/?hitId=3H6W48L9F4B5OEOMH57RM53ZYNHWPM&workerId=A2IQ0QCTQ3KWLT&assignmentId=3T3IWE1XG790ITJ1DFM7O9IXXXZTQR&a=XW3T8&tp_a=XW3T8&b=3T3IWE1XG790ITJ1DFM7O9IXXXZTQR&tp_b=3T3IWE1XG790ITJ1DFM7O9IXXXZTQR&c=365198&tp_c=365198"},{"rt":null,"stimulus":"Examples sent to student! Waiting for student...","response":null,"trial_type":"html-keyboard-response","trial_index":25,"time_elapsed":735551,"internal_node_id":"0.0-21.0","params":{"nStudents":24,"maxFlips":30,"completionMinutes":45,"basePay":8,"maxBonus":9,"perTrialBonus":0.5,"perTrialBonusThreshold":0.1,"exampleCost":0.01},"classroomParams":{"A":{"a":1,"b":4},"B":{"a":4,"b":1},"C":{"a":2,"b":8},"D":{"a":8,"b":2}},"conditions":["nonSeqFull","nonSeqPartial","seqNoFeedback","seqFeedback"],"classroomPairings":[["A","B"],["C","D"]],"coinWeights":[0.2,0.5,0.8],"subjectId":"A2IQ0QCTQ3KWLT","assignmentId":"3T3IWE1XG790ITJ1DFM7O9IXXXZTQR","hitId":"3H6W48L9F4B5OEOMH57RM53ZYNHWPM","url":"https://gershmanlab.com/experiments/alicia/teaching/experiment/?hitId=3H6W48L9F4B5OEOMH57RM53ZYNHWPM&workerId=A2IQ0QCTQ3KWLT&assignmentId=3T3IWE1XG790ITJ1DFM7O9IXXXZTQR&a=XW3T8&tp_a=XW3T8&b=3T3IWE1XG790ITJ1DFM7O9IXXXZTQR&tp_b=3T3IWE1XG790ITJ1DFM7O9IXXXZTQR&c=365198&tp_c=365198"},{"rt":23697,"stimulus":"\n                <p>Student 2's first guess for coin weight: <b style=\"color:Tomato\";>0.95</b></p>\n                <p>Student 2's second guess for coin weight: <b style=\"color:Tomato\";>0.97</b></p>\n                <p>You received a bonus of <b>$0.00</b> based on the student's second guess.</p>\n                <p>Total bonus so far: <b>$0.00</b></p>\n                <p>Press any key to continue.</p>\n                ","response":" ","trial_type":"html-keyboard-response","trial_index":26,"time_elapsed":759249,"internal_node_id":"0.0-22.0","params":{"nStudents":24,"maxFlips":30,"completionMinutes":45,"basePay":8,"maxBonus":9,"perTrialBonus":0.5,"perTrialBonusThreshold":0.1,"exampleCost":0.01},"classroomParams":{"A":{"a":1,"b":4},"B":{"a":4,"b":1},"C":{"a":2,"b":8},"D":{"a":8,"b":2}},"conditions":["nonSeqFull","nonSeqPartial","seqNoFeedback","seqFeedback"],"classroomPairings":[["A","B"],["C","D"]],"coinWeights":[0.2,0.5,0.8],"subjectId":"A2IQ0QCTQ3KWLT","assignmentId":"3T3IWE1XG790ITJ1DFM7O9IXXXZTQR","hitId":"3H6W48L9F4B5OEOMH57RM53ZYNHWPM","url":"https://gershmanlab.com/experiments/alicia/teaching/experiment/?hitId=3H6W48L9F4B5OEOMH57RM53ZYNHWPM&workerId=A2IQ0QCTQ3KWLT&assignmentId=3T3IWE1XG790ITJ1DFM7O9IXXXZTQR&a=XW3T8&tp_a=XW3T8&b=3T3IWE1XG790ITJ1DFM7O9IXXXZTQR&tp_b=3T3IWE1XG790ITJ1DFM7O9IXXXZTQR&c=365198&tp_c=365198"},{"rt":null,"stimulus":"<div style=\"font-size:60px;\">Next student</div>","response":null,"trial_type":"html-keyboard-response","trial_index":27,"time_elapsed":761755,"internal_node_id":"0.0-23.0-0.0","params":{"nStudents":24,"maxFlips":30,"completionMinutes":45,"basePay":8,"maxBonus":9,"perTrialBonus":0.5,"perTrialBonusThreshold":0.1,"exampleCost":0.01},"classroomParams":{"A":{"a":1,"b":4},"B":{"a":4,"b":1},"C":{"a":2,"b":8},"D":{"a":8,"b":2}},"conditions":["nonSeqFull","nonSeqPartial","seqNoFeedback","seqFeedback"],"classroomPairings":[["A","B"],["C","D"]],"coinWeights":[0.2,0.5,0.8],"subjectId":"A2IQ0QCTQ3KWLT","assignmentId":"3T3IWE1XG790ITJ1DFM7O9IXXXZTQR","hitId":"3H6W48L9F4B5OEOMH57RM53ZYNHWPM","url":"https://gershmanlab.com/experiments/alicia/teaching/experiment/?hitId=3H6W48L9F4B5OEOMH57RM53ZYNHWPM&workerId=A2IQ0QCTQ3KWLT&assignmentId=3T3IWE1XG790ITJ1DFM7O9IXXXZTQR&a=XW3T8&tp_a=XW3T8&b=3T3IWE1XG790ITJ1DFM7O9IXXXZTQR&tp_b=3T3IWE1XG790ITJ1DFM7O9IXXXZTQR&c=365198&tp_c=365198"},{"rt":11925,"stimulus":"\n            <h4 style=\"color:Orange;\">Student 3</h4>\n            <h2>The weight of your coin is <b style=\"color:Tomato;\">0.2</b>.</h2>\n            <p>In this block, you will be giving <b>one</b> set of examples to Student 3.</p>\n                <p>You will receive feedback at the end of the block.</p>\n            ","response":0,"trial_type":"html-button-response","trial_index":28,"time_elapsed":773680,"internal_node_id":"0.0-24.0","params":{"nStudents":24,"maxFlips":30,"completionMinutes":45,"basePay":8,"maxBonus":9,"perTrialBonus":0.5,"perTrialBonusThreshold":0.1,"exampleCost":0.01},"classroomParams":{"A":{"a":1,"b":4},"B":{"a":4,"b":1},"C":{"a":2,"b":8},"D":{"a":8,"b":2}},"conditions":["nonSeqFull","nonSeqPartial","seqNoFeedback","seqFeedback"],"classroomPairings":[["A","B"],["C","D"]],"coinWeights":[0.2,0.5,0.8],"subjectId":"A2IQ0QCTQ3KWLT","assignmentId":"3T3IWE1XG790ITJ1DFM7O9IXXXZTQR","hitId":"3H6W48L9F4B5OEOMH57RM53ZYNHWPM","url":"https://gershmanlab.com/experiments/alicia/teaching/experiment/?hitId=3H6W48L9F4B5OEOMH57RM53ZYNHWPM&workerId=A2IQ0QCTQ3KWLT&assignmentId=3T3IWE1XG790ITJ1DFM7O9IXXXZTQR&a=XW3T8&tp_a=XW3T8&b=3T3IWE1XG790ITJ1DFM7O9IXXXZTQR&tp_b=3T3IWE1XG790ITJ1DFM7O9IXXXZTQR&c=365198&tp_c=365198"},{"rt":24403,"response":{"heads":"1","tails":"4"},"type":"response","condition":"nonSeqPartial","trueTheta":0.2,"classrooms":["A","B"],"studentTrueClassroom":"B","exampleSet":"first","trial_type":"survey-html-form","trial_index":29,"time_elapsed":798084,"internal_node_id":"0.0-25.0-0.0","params":{"nStudents":24,"maxFlips":30,"completionMinutes":45,"basePay":8,"maxBonus":9,"perTrialBonus":0.5,"perTrialBonusThreshold":0.1,"exampleCost":0.01},"classroomParams":{"A":{"a":1,"b":4},"B":{"a":4,"b":1},"C":{"a":2,"b":8},"D":{"a":8,"b":2}},"conditions":["nonSeqFull","nonSeqPartial","seqNoFeedback","seqFeedback"],"classroomPairings":[["A","B"],["C","D"]],"coinWeights":[0.2,0.5,0.8],"subjectId":"A2IQ0QCTQ3KWLT","assignmentId":"3T3IWE1XG790ITJ1DFM7O9IXXXZTQR","hitId":"3H6W48L9F4B5OEOMH57RM53ZYNHWPM","url":"https://gershmanlab.com/experiments/alicia/teaching/experiment/?hitId=3H6W48L9F4B5OEOMH57RM53ZYNHWPM&workerId=A2IQ0QCTQ3KWLT&assignmentId=3T3IWE1XG790ITJ1DFM7O9IXXXZTQR&a=XW3T8&tp_a=XW3T8&b=3T3IWE1XG790ITJ1DFM7O9IXXXZTQR&tp_b=3T3IWE1XG790ITJ1DFM7O9IXXXZTQR&c=365198&tp_c=365198","heads":1,"tails":4,"studentIndex":2,"studentTrueHypers":{"a":4,"b":1},"studentGuess":0.5,"delta":0.3,"totalExamples":5,"bonus":0,"bonusSoFar":0},{"rt":null,"stimulus":"Sending examples to student... ","response":null,"trial_type":"html-keyboard-response","trial_index":30,"time_elapsed":799838,"internal_node_id":"0.0-26.0","params":{"nStudents":24,"maxFlips":30,"completionMinutes":45,"basePay":8,"maxBonus":9,"perTrialBonus":0.5,"perTrialBonusThreshold":0.1,"exampleCost":0.01},"classroomParams":{"A":{"a":1,"b":4},"B":{"a":4,"b":1},"C":{"a":2,"b":8},"D":{"a":8,"b":2}},"conditions":["nonSeqFull","nonSeqPartial","seqNoFeedback","seqFeedback"],"classroomPairings":[["A","B"],["C","D"]],"coinWeights":[0.2,0.5,0.8],"subjectId":"A2IQ0QCTQ3KWLT","assignmentId":"3T3IWE1XG790ITJ1DFM7O9IXXXZTQR","hitId":"3H6W48L9F4B5OEOMH57RM53ZYNHWPM","url":"https://gershmanlab.com/experiments/alicia/teaching/experiment/?hitId=3H6W48L9F4B5OEOMH57RM53ZYNHWPM&workerId=A2IQ0QCTQ3KWLT&assignmentId=3T3IWE1XG790ITJ1DFM7O9IXXXZTQR&a=XW3T8&tp_a=XW3T8&b=3T3IWE1XG790ITJ1DFM7O9IXXXZTQR&tp_b=3T3IWE1XG790ITJ1DFM7O9IXXXZTQR&c=365198&tp_c=365198"},{"rt":null,"stimulus":"Examples sent to student! Waiting for student...","response":null,"trial_type":"html-keyboard-response","trial_index":31,"time_elapsed":803842,"internal_node_id":"0.0-27.0","params":{"nStudents":24,"maxFlips":30,"completionMinutes":45,"basePay":8,"maxBonus":9,"perTrialBonus":0.5,"perTrialBonusThreshold":0.1,"exampleCost":0.01},"classroomParams":{"A":{"a":1,"b":4},"B":{"a":4,"b":1},"C":{"a":2,"b":8},"D":{"a":8,"b":2}},"conditions":["nonSeqFull","nonSeqPartial","seqNoFeedback","seqFeedback"],"classroomPairings":[["A","B"],["C","D"]],"coinWeights":[0.2,0.5,0.8],"subjectId":"A2IQ0QCTQ3KWLT","assignmentId":"3T3IWE1XG790ITJ1DFM7O9IXXXZTQR","hitId":"3H6W48L9F4B5OEOMH57RM53ZYNHWPM","url":"https://gershmanlab.com/experiments/alicia/teaching/experiment/?hitId=3H6W48L9F4B5OEOMH57RM53ZYNHWPM&workerId=A2IQ0QCTQ3KWLT&assignmentId=3T3IWE1XG790ITJ1DFM7O9IXXXZTQR&a=XW3T8&tp_a=XW3T8&b=3T3IWE1XG790ITJ1DFM7O9IXXXZTQR&tp_b=3T3IWE1XG790ITJ1DFM7O9IXXXZTQR&c=365198&tp_c=365198"},{"rt":4565,"stimulus":"\n                <p>Student's guess for coin weight: <b style=\"color:Tomato;\">0.50</b></p>\n                <p>You received a bonus of <b>$0</b>. Total bonus so far: <b>$0.00</b></b></p>\n                <p> Press any key to continue.</p>\n                ","response":" ","trial_type":"html-keyboard-response","trial_index":32,"time_elapsed":808408,"internal_node_id":"0.0-28.0","params":{"nStudents":24,"maxFlips":30,"completionMinutes":45,"basePay":8,"maxBonus":9,"perTrialBonus":0.5,"perTrialBonusThreshold":0.1,"exampleCost":0.01},"classroomParams":{"A":{"a":1,"b":4},"B":{"a":4,"b":1},"C":{"a":2,"b":8},"D":{"a":8,"b":2}},"conditions":["nonSeqFull","nonSeqPartial","seqNoFeedback","seqFeedback"],"classroomPairings":[["A","B"],["C","D"]],"coinWeights":[0.2,0.5,0.8],"subjectId":"A2IQ0QCTQ3KWLT","assignmentId":"3T3IWE1XG790ITJ1DFM7O9IXXXZTQR","hitId":"3H6W48L9F4B5OEOMH57RM53ZYNHWPM","url":"https://gershmanlab.com/experiments/alicia/teaching/experiment/?hitId=3H6W48L9F4B5OEOMH57RM53ZYNHWPM&workerId=A2IQ0QCTQ3KWLT&assignmentId=3T3IWE1XG790ITJ1DFM7O9IXXXZTQR&a=XW3T8&tp_a=XW3T8&b=3T3IWE1XG790ITJ1DFM7O9IXXXZTQR&tp_b=3T3IWE1XG790ITJ1DFM7O9IXXXZTQR&c=365198&tp_c=365198"},{"rt":null,"stimulus":"<div style=\"font-size:60px;\">Next student</div>","response":null,"trial_type":"html-keyboard-response","trial_index":33,"time_elapsed":810410,"internal_node_id":"0.0-29.0-0.0","params":{"nStudents":24,"maxFlips":30,"completionMinutes":45,"basePay":8,"maxBonus":9,"perTrialBonus":0.5,"perTrialBonusThreshold":0.1,"exampleCost":0.01},"classroomParams":{"A":{"a":1,"b":4},"B":{"a":4,"b":1},"C":{"a":2,"b":8},"D":{"a":8,"b":2}},"conditions":["nonSeqFull","nonSeqPartial","seqNoFeedback","seqFeedback"],"classroomPairings":[["A","B"],["C","D"]],"coinWeights":[0.2,0.5,0.8],"subjectId":"A2IQ0QCTQ3KWLT","assignmentId":"3T3IWE1XG790ITJ1DFM7O9IXXXZTQR","hitId":"3H6W48L9F4B5OEOMH57RM53ZYNHWPM","url":"https://gershmanlab.com/experiments/alicia/teaching/experiment/?hitId=3H6W48L9F4B5OEOMH57RM53ZYNHWPM&workerId=A2IQ0QCTQ3KWLT&assignmentId=3T3IWE1XG790ITJ1DFM7O9IXXXZTQR&a=XW3T8&tp_a=XW3T8&b=3T3IWE1XG790ITJ1DFM7O9IXXXZTQR&tp_b=3T3IWE1XG790ITJ1DFM7O9IXXXZTQR&c=365198&tp_c=365198"},{"rt":11400,"stimulus":"\n            <h4 style=\"color:Orange;\">Student 4</h4>\n            <h2>The weight of your coin is <b style=\"color:Tomato;\">0.8</b>.</h2>\n            <p>In this block, you will be giving <b>one</b> set of examples to Student 4.</p>\n                <p>You will receive feedback at the end of the block.</p>\n            ","response":0,"trial_type":"html-button-response","trial_index":34,"time_elapsed":821811,"internal_node_id":"0.0-30.0","params":{"nStudents":24,"maxFlips":30,"completionMinutes":45,"basePay":8,"maxBonus":9,"perTrialBonus":0.5,"perTrialBonusThreshold":0.1,"exampleCost":0.01},"classroomParams":{"A":{"a":1,"b":4},"B":{"a":4,"b":1},"C":{"a":2,"b":8},"D":{"a":8,"b":2}},"conditions":["nonSeqFull","nonSeqPartial","seqNoFeedback","seqFeedback"],"classroomPairings":[["A","B"],["C","D"]],"coinWeights":[0.2,0.5,0.8],"subjectId":"A2IQ0QCTQ3KWLT","assignmentId":"3T3IWE1XG790ITJ1DFM7O9IXXXZTQR","hitId":"3H6W48L9F4B5OEOMH57RM53ZYNHWPM","url":"https://gershmanlab.com/experiments/alicia/teaching/experiment/?hitId=3H6W48L9F4B5OEOMH57RM53ZYNHWPM&workerId=A2IQ0QCTQ3KWLT&assignmentId=3T3IWE1XG790ITJ1DFM7O9IXXXZTQR&a=XW3T8&tp_a=XW3T8&b=3T3IWE1XG790ITJ1DFM7O9IXXXZTQR&tp_b=3T3IWE1XG790ITJ1DFM7O9IXXXZTQR&c=365198&tp_c=365198"},{"rt":16628,"response":{"heads":"8","tails":"2"},"type":"response","condition":"nonSeqPartial","trueTheta":0.8,"classrooms":["C","D"],"studentTrueClassroom":"D","exampleSet":"first","trial_type":"survey-html-form","trial_index":35,"time_elapsed":838440,"internal_node_id":"0.0-31.0-0.0","params":{"nStudents":24,"maxFlips":30,"completionMinutes":45,"basePay":8,"maxBonus":9,"perTrialBonus":0.5,"perTrialBonusThreshold":0.1,"exampleCost":0.01},"classroomParams":{"A":{"a":1,"b":4},"B":{"a":4,"b":1},"C":{"a":2,"b":8},"D":{"a":8,"b":2}},"conditions":["nonSeqFull","nonSeqPartial","seqNoFeedback","seqFeedback"],"classroomPairings":[["A","B"],["C","D"]],"coinWeights":[0.2,0.5,0.8],"subjectId":"A2IQ0QCTQ3KWLT","assignmentId":"3T3IWE1XG790ITJ1DFM7O9IXXXZTQR","hitId":"3H6W48L9F4B5OEOMH57RM53ZYNHWPM","url":"https://gershmanlab.com/experiments/alicia/teaching/experiment/?hitId=3H6W48L9F4B5OEOMH57RM53ZYNHWPM&workerId=A2IQ0QCTQ3KWLT&assignmentId=3T3IWE1XG790ITJ1DFM7O9IXXXZTQR&a=XW3T8&tp_a=XW3T8&b=3T3IWE1XG790ITJ1DFM7O9IXXXZTQR&tp_b=3T3IWE1XG790ITJ1DFM7O9IXXXZTQR&c=365198&tp_c=365198","heads":8,"tails":2,"studentIndex":3,"studentTrueHypers":{"a":8,"b":2},"studentGuess":0.8,"delta":0,"totalExamples":10,"bonus":0.4,"bonusSoFar":0.4},{"rt":null,"stimulus":"Sending examples to student... ","response":null,"trial_type":"html-keyboard-response","trial_index":36,"time_elapsed":840193,"internal_node_id":"0.0-32.0","params":{"nStudents":24,"maxFlips":30,"completionMinutes":45,"basePay":8,"maxBonus":9,"perTrialBonus":0.5,"perTrialBonusThreshold":0.1,"exampleCost":0.01},"classroomParams":{"A":{"a":1,"b":4},"B":{"a":4,"b":1},"C":{"a":2,"b":8},"D":{"a":8,"b":2}},"conditions":["nonSeqFull","nonSeqPartial","seqNoFeedback","seqFeedback"],"classroomPairings":[["A","B"],["C","D"]],"coinWeights":[0.2,0.5,0.8],"subjectId":"A2IQ0QCTQ3KWLT","assignmentId":"3T3IWE1XG790ITJ1DFM7O9IXXXZTQR","hitId":"3H6W48L9F4B5OEOMH57RM53ZYNHWPM","url":"https://gershmanlab.com/experiments/alicia/teaching/experiment/?hitId=3H6W48L9F4B5OEOMH57RM53ZYNHWPM&workerId=A2IQ0QCTQ3KWLT&assignmentId=3T3IWE1XG790ITJ1DFM7O9IXXXZTQR&a=XW3T8&tp_a=XW3T8&b=3T3IWE1XG790ITJ1DFM7O9IXXXZTQR&tp_b=3T3IWE1XG790ITJ1DFM7O9IXXXZTQR&c=365198&tp_c=365198"},{"rt":null,"stimulus":"Examples sent to student! Waiting for student...","response":null,"trial_type":"html-keyboard-response","trial_index":37,"time_elapsed":846195,"internal_node_id":"0.0-33.0","params":{"nStudents":24,"maxFlips":30,"completionMinutes":45,"basePay":8,"maxBonus":9,"perTrialBonus":0.5,"perTrialBonusThreshold":0.1,"exampleCost":0.01},"classroomParams":{"A":{"a":1,"b":4},"B":{"a":4,"b":1},"C":{"a":2,"b":8},"D":{"a":8,"b":2}},"conditions":["nonSeqFull","nonSeqPartial","seqNoFeedback","seqFeedback"],"classroomPairings":[["A","B"],["C","D"]],"coinWeights":[0.2,0.5,0.8],"subjectId":"A2IQ0QCTQ3KWLT","assignmentId":"3T3IWE1XG790ITJ1DFM7O9IXXXZTQR","hitId":"3H6W48L9F4B5OEOMH57RM53ZYNHWPM","url":"https://gershmanlab.com/experiments/alicia/teaching/experiment/?hitId=3H6W48L9F4B5OEOMH57RM53ZYNHWPM&workerId=A2IQ0QCTQ3KWLT&assignmentId=3T3IWE1XG790ITJ1DFM7O9IXXXZTQR&a=XW3T8&tp_a=XW3T8&b=3T3IWE1XG790ITJ1DFM7O9IXXXZTQR&tp_b=3T3IWE1XG790ITJ1DFM7O9IXXXZTQR&c=365198&tp_c=365198"},{"rt":4499,"stimulus":"\n                <p>Student's guess for coin weight: <b style=\"color:Tomato;\">0.80</b></p>\n                <p>You received a bonus of <b>$0.4</b>. Total bonus so far: <b>$0.40</b></b></p>\n                <p> Press any key to continue.</p>\n                ","response":" ","trial_type":"html-keyboard-response","trial_index":38,"time_elapsed":850695,"internal_node_id":"0.0-34.0","params":{"nStudents":24,"maxFlips":30,"completionMinutes":45,"basePay":8,"maxBonus":9,"perTrialBonus":0.5,"perTrialBonusThreshold":0.1,"exampleCost":0.01},"classroomParams":{"A":{"a":1,"b":4},"B":{"a":4,"b":1},"C":{"a":2,"b":8},"D":{"a":8,"b":2}},"conditions":["nonSeqFull","nonSeqPartial","seqNoFeedback","seqFeedback"],"classroomPairings":[["A","B"],["C","D"]],"coinWeights":[0.2,0.5,0.8],"subjectId":"A2IQ0QCTQ3KWLT","assignmentId":"3T3IWE1XG790ITJ1DFM7O9IXXXZTQR","hitId":"3H6W48L9F4B5OEOMH57RM53ZYNHWPM","url":"https://gershmanlab.com/experiments/alicia/teaching/experiment/?hitId=3H6W48L9F4B5OEOMH57RM53ZYNHWPM&workerId=A2IQ0QCTQ3KWLT&assignmentId=3T3IWE1XG790ITJ1DFM7O9IXXXZTQR&a=XW3T8&tp_a=XW3T8&b=3T3IWE1XG790ITJ1DFM7O9IXXXZTQR&tp_b=3T3IWE1XG790ITJ1DFM7O9IXXXZTQR&c=365198&tp_c=365198"},{"rt":null,"stimulus":"<div style=\"font-size:60px;\">Next student</div>","response":null,"trial_type":"html-keyboard-response","trial_index":39,"time_elapsed":853197,"internal_node_id":"0.0-35.0-0.0","params":{"nStudents":24,"maxFlips":30,"completionMinutes":45,"basePay":8,"maxBonus":9,"perTrialBonus":0.5,"perTrialBonusThreshold":0.1,"exampleCost":0.01},"classroomParams":{"A":{"a":1,"b":4},"B":{"a":4,"b":1},"C":{"a":2,"b":8},"D":{"a":8,"b":2}},"conditions":["nonSeqFull","nonSeqPartial","seqNoFeedback","seqFeedback"],"classroomPairings":[["A","B"],["C","D"]],"coinWeights":[0.2,0.5,0.8],"subjectId":"A2IQ0QCTQ3KWLT","assignmentId":"3T3IWE1XG790ITJ1DFM7O9IXXXZTQR","hitId":"3H6W48L9F4B5OEOMH57RM53ZYNHWPM","url":"https://gershmanlab.com/experiments/alicia/teaching/experiment/?hitId=3H6W48L9F4B5OEOMH57RM53ZYNHWPM&workerId=A2IQ0QCTQ3KWLT&assignmentId=3T3IWE1XG790ITJ1DFM7O9IXXXZTQR&a=XW3T8&tp_a=XW3T8&b=3T3IWE1XG790ITJ1DFM7O9IXXXZTQR&tp_b=3T3IWE1XG790ITJ1DFM7O9IXXXZTQR&c=365198&tp_c=365198"},{"rt":2229,"stimulus":"\n            <h4 style=\"color:Orange;\">Student 5</h4>\n            <h2>The weight of your coin is <b style=\"color:Tomato;\">0.5</b>.</h2>\n            <p>In this block, you will be giving <b>one</b> set of examples to Student 5.</p>\n                <p>You will receive feedback at the end of the block.</p>\n            ","response":0,"trial_type":"html-button-response","trial_index":40,"time_elapsed":855428,"internal_node_id":"0.0-36.0","params":{"nStudents":24,"maxFlips":30,"completionMinutes":45,"basePay":8,"maxBonus":9,"perTrialBonus":0.5,"perTrialBonusThreshold":0.1,"exampleCost":0.01},"classroomParams":{"A":{"a":1,"b":4},"B":{"a":4,"b":1},"C":{"a":2,"b":8},"D":{"a":8,"b":2}},"conditions":["nonSeqFull","nonSeqPartial","seqNoFeedback","seqFeedback"],"classroomPairings":[["A","B"],["C","D"]],"coinWeights":[0.2,0.5,0.8],"subjectId":"A2IQ0QCTQ3KWLT","assignmentId":"3T3IWE1XG790ITJ1DFM7O9IXXXZTQR","hitId":"3H6W48L9F4B5OEOMH57RM53ZYNHWPM","url":"https://gershmanlab.com/experiments/alicia/teaching/experiment/?hitId=3H6W48L9F4B5OEOMH57RM53ZYNHWPM&workerId=A2IQ0QCTQ3KWLT&assignmentId=3T3IWE1XG790ITJ1DFM7O9IXXXZTQR&a=XW3T8&tp_a=XW3T8&b=3T3IWE1XG790ITJ1DFM7O9IXXXZTQR&tp_b=3T3IWE1XG790ITJ1DFM7O9IXXXZTQR&c=365198&tp_c=365198"},{"rt":5771,"response":{"heads":"5","tails":"5"},"type":"response","condition":"nonSeqPartial","trueTheta":0.5,"classrooms":["C","D"],"studentTrueClassroom":"C","exampleSet":"first","trial_type":"survey-html-form","trial_index":41,"time_elapsed":861200,"internal_node_id":"0.0-37.0-0.0","params":{"nStudents":24,"maxFlips":30,"completionMinutes":45,"basePay":8,"maxBonus":9,"perTrialBonus":0.5,"perTrialBonusThreshold":0.1,"exampleCost":0.01},"classroomParams":{"A":{"a":1,"b":4},"B":{"a":4,"b":1},"C":{"a":2,"b":8},"D":{"a":8,"b":2}},"conditions":["nonSeqFull","nonSeqPartial","seqNoFeedback","seqFeedback"],"classroomPairings":[["A","B"],["C","D"]],"coinWeights":[0.2,0.5,0.8],"subjectId":"A2IQ0QCTQ3KWLT","assignmentId":"3T3IWE1XG790ITJ1DFM7O9IXXXZTQR","hitId":"3H6W48L9F4B5OEOMH57RM53ZYNHWPM","url":"https://gershmanlab.com/experiments/alicia/teaching/experiment/?hitId=3H6W48L9F4B5OEOMH57RM53ZYNHWPM&workerId=A2IQ0QCTQ3KWLT&assignmentId=3T3IWE1XG790ITJ1DFM7O9IXXXZTQR&a=XW3T8&tp_a=XW3T8&b=3T3IWE1XG790ITJ1DFM7O9IXXXZTQR&tp_b=3T3IWE1XG790ITJ1DFM7O9IXXXZTQR&c=365198&tp_c=365198","heads":5,"tails":5,"studentIndex":4,"studentTrueHypers":{"a":2,"b":8},"studentGuess":0.35,"delta":0.15000000000000002,"totalExamples":10,"bonus":0,"bonusSoFar":0.4},{"rt":null,"stimulus":"Sending examples to student... ","response":null,"trial_type":"html-keyboard-response","trial_index":42,"time_elapsed":863203,"internal_node_id":"0.0-38.0","params":{"nStudents":24,"maxFlips":30,"completionMinutes":45,"basePay":8,"maxBonus":9,"perTrialBonus":0.5,"perTrialBonusThreshold":0.1,"exampleCost":0.01},"classroomParams":{"A":{"a":1,"b":4},"B":{"a":4,"b":1},"C":{"a":2,"b":8},"D":{"a":8,"b":2}},"conditions":["nonSeqFull","nonSeqPartial","seqNoFeedback","seqFeedback"],"classroomPairings":[["A","B"],["C","D"]],"coinWeights":[0.2,0.5,0.8],"subjectId":"A2IQ0QCTQ3KWLT","assignmentId":"3T3IWE1XG790ITJ1DFM7O9IXXXZTQR","hitId":"3H6W48L9F4B5OEOMH57RM53ZYNHWPM","url":"https://gershmanlab.com/experiments/alicia/teaching/experiment/?hitId=3H6W48L9F4B5OEOMH57RM53ZYNHWPM&workerId=A2IQ0QCTQ3KWLT&assignmentId=3T3IWE1XG790ITJ1DFM7O9IXXXZTQR&a=XW3T8&tp_a=XW3T8&b=3T3IWE1XG790ITJ1DFM7O9IXXXZTQR&tp_b=3T3IWE1XG790ITJ1DFM7O9IXXXZTQR&c=365198&tp_c=365198"},{"rt":null,"stimulus":"Examples sent to student! Waiting for student...","response":null,"trial_type":"html-keyboard-response","trial_index":43,"time_elapsed":868205,"internal_node_id":"0.0-39.0","params":{"nStudents":24,"maxFlips":30,"completionMinutes":45,"basePay":8,"maxBonus":9,"perTrialBonus":0.5,"perTrialBonusThreshold":0.1,"exampleCost":0.01},"classroomParams":{"A":{"a":1,"b":4},"B":{"a":4,"b":1},"C":{"a":2,"b":8},"D":{"a":8,"b":2}},"conditions":["nonSeqFull","nonSeqPartial","seqNoFeedback","seqFeedback"],"classroomPairings":[["A","B"],["C","D"]],"coinWeights":[0.2,0.5,0.8],"subjectId":"A2IQ0QCTQ3KWLT","assignmentId":"3T3IWE1XG790ITJ1DFM7O9IXXXZTQR","hitId":"3H6W48L9F4B5OEOMH57RM53ZYNHWPM","url":"https://gershmanlab.com/experiments/alicia/teaching/experiment/?hitId=3H6W48L9F4B5OEOMH57RM53ZYNHWPM&workerId=A2IQ0QCTQ3KWLT&assignmentId=3T3IWE1XG790ITJ1DFM7O9IXXXZTQR&a=XW3T8&tp_a=XW3T8&b=3T3IWE1XG790ITJ1DFM7O9IXXXZTQR&tp_b=3T3IWE1XG790ITJ1DFM7O9IXXXZTQR&c=365198&tp_c=365198"},{"rt":11595,"stimulus":"\n                <p>Student's guess for coin weight: <b style=\"color:Tomato;\">0.35</b></p>\n                <p>You received a bonus of <b>$0</b>. Total bonus so far: <b>$0.40</b></b></p>\n                <p> Press any key to continue.</p>\n                ","response":" ","trial_type":"html-keyboard-response","trial_index":44,"time_elapsed":879801,"internal_node_id":"0.0-40.0","params":{"nStudents":24,"maxFlips":30,"completionMinutes":45,"basePay":8,"maxBonus":9,"perTrialBonus":0.5,"perTrialBonusThreshold":0.1,"exampleCost":0.01},"classroomParams":{"A":{"a":1,"b":4},"B":{"a":4,"b":1},"C":{"a":2,"b":8},"D":{"a":8,"b":2}},"conditions":["nonSeqFull","nonSeqPartial","seqNoFeedback","seqFeedback"],"classroomPairings":[["A","B"],["C","D"]],"coinWeights":[0.2,0.5,0.8],"subjectId":"A2IQ0QCTQ3KWLT","assignmentId":"3T3IWE1XG790ITJ1DFM7O9IXXXZTQR","hitId":"3H6W48L9F4B5OEOMH57RM53ZYNHWPM","url":"https://gershmanlab.com/experiments/alicia/teaching/experiment/?hitId=3H6W48L9F4B5OEOMH57RM53ZYNHWPM&workerId=A2IQ0QCTQ3KWLT&assignmentId=3T3IWE1XG790ITJ1DFM7O9IXXXZTQR&a=XW3T8&tp_a=XW3T8&b=3T3IWE1XG790ITJ1DFM7O9IXXXZTQR&tp_b=3T3IWE1XG790ITJ1DFM7O9IXXXZTQR&c=365198&tp_c=365198"},{"rt":null,"stimulus":"<div style=\"font-size:60px;\">Next student</div>","response":null,"trial_type":"html-keyboard-response","trial_index":45,"time_elapsed":882052,"internal_node_id":"0.0-41.0-0.0","params":{"nStudents":24,"maxFlips":30,"completionMinutes":45,"basePay":8,"maxBonus":9,"perTrialBonus":0.5,"perTrialBonusThreshold":0.1,"exampleCost":0.01},"classroomParams":{"A":{"a":1,"b":4},"B":{"a":4,"b":1},"C":{"a":2,"b":8},"D":{"a":8,"b":2}},"conditions":["nonSeqFull","nonSeqPartial","seqNoFeedback","seqFeedback"],"classroomPairings":[["A","B"],["C","D"]],"coinWeights":[0.2,0.5,0.8],"subjectId":"A2IQ0QCTQ3KWLT","assignmentId":"3T3IWE1XG790ITJ1DFM7O9IXXXZTQR","hitId":"3H6W48L9F4B5OEOMH57RM53ZYNHWPM","url":"https://gershmanlab.com/experiments/alicia/teaching/experiment/?hitId=3H6W48L9F4B5OEOMH57RM53ZYNHWPM&workerId=A2IQ0QCTQ3KWLT&assignmentId=3T3IWE1XG790ITJ1DFM7O9IXXXZTQR&a=XW3T8&tp_a=XW3T8&b=3T3IWE1XG790ITJ1DFM7O9IXXXZTQR&tp_b=3T3IWE1XG790ITJ1DFM7O9IXXXZTQR&c=365198&tp_c=365198"},{"rt":3954,"stimulus":"\n            <h4 style=\"color:Orange;\">Student 6</h4>\n            <h2>The weight of your coin is <b style=\"color:Tomato;\">0.5</b>.</h2>\n            <p>In this block, you will be giving <b>two</b> sets of examples to Student 6.</p>\n                <p>You will see the student's guess after the first set of examples. You will also receive feedback at the end of the block.</p>\n            ","response":0,"trial_type":"html-button-response","trial_index":46,"time_elapsed":886007,"internal_node_id":"0.0-42.0","params":{"nStudents":24,"maxFlips":30,"completionMinutes":45,"basePay":8,"maxBonus":9,"perTrialBonus":0.5,"perTrialBonusThreshold":0.1,"exampleCost":0.01},"classroomParams":{"A":{"a":1,"b":4},"B":{"a":4,"b":1},"C":{"a":2,"b":8},"D":{"a":8,"b":2}},"conditions":["nonSeqFull","nonSeqPartial","seqNoFeedback","seqFeedback"],"classroomPairings":[["A","B"],["C","D"]],"coinWeights":[0.2,0.5,0.8],"subjectId":"A2IQ0QCTQ3KWLT","assignmentId":"3T3IWE1XG790ITJ1DFM7O9IXXXZTQR","hitId":"3H6W48L9F4B5OEOMH57RM53ZYNHWPM","url":"https://gershmanlab.com/experiments/alicia/teaching/experiment/?hitId=3H6W48L9F4B5OEOMH57RM53ZYNHWPM&workerId=A2IQ0QCTQ3KWLT&assignmentId=3T3IWE1XG790ITJ1DFM7O9IXXXZTQR&a=XW3T8&tp_a=XW3T8&b=3T3IWE1XG790ITJ1DFM7O9IXXXZTQR&tp_b=3T3IWE1XG790ITJ1DFM7O9IXXXZTQR&c=365198&tp_c=365198"},{"rt":14479,"response":{"heads":"6","tails":"3"},"type":"response","condition":"seqFeedback","trueTheta":0.5,"classrooms":["C","D"],"studentTrueClassroom":"D","exampleSet":"first","trial_type":"survey-html-form","trial_index":47,"time_elapsed":900487,"internal_node_id":"0.0-43.0-0.0","params":{"nStudents":24,"maxFlips":30,"completionMinutes":45,"basePay":8,"maxBonus":9,"perTrialBonus":0.5,"perTrialBonusThreshold":0.1,"exampleCost":0.01},"classroomParams":{"A":{"a":1,"b":4},"B":{"a":4,"b":1},"C":{"a":2,"b":8},"D":{"a":8,"b":2}},"conditions":["nonSeqFull","nonSeqPartial","seqNoFeedback","seqFeedback"],"classroomPairings":[["A","B"],["C","D"]],"coinWeights":[0.2,0.5,0.8],"subjectId":"A2IQ0QCTQ3KWLT","assignmentId":"3T3IWE1XG790ITJ1DFM7O9IXXXZTQR","hitId":"3H6W48L9F4B5OEOMH57RM53ZYNHWPM","url":"https://gershmanlab.com/experiments/alicia/teaching/experiment/?hitId=3H6W48L9F4B5OEOMH57RM53ZYNHWPM&workerId=A2IQ0QCTQ3KWLT&assignmentId=3T3IWE1XG790ITJ1DFM7O9IXXXZTQR&a=XW3T8&tp_a=XW3T8&b=3T3IWE1XG790ITJ1DFM7O9IXXXZTQR&tp_b=3T3IWE1XG790ITJ1DFM7O9IXXXZTQR&c=365198&tp_c=365198","heads":6,"tails":3,"studentIndex":5,"studentTrueHypers":{"a":8,"b":2},"studentGuess":0.7368421052631579,"delta":0.23684210526315785,"totalExamples":9,"bonusSoFar":0.4},{"rt":null,"stimulus":"Sending examples to student... ","response":null,"trial_type":"html-keyboard-response","trial_index":48,"time_elapsed":901739,"internal_node_id":"0.0-44.0","params":{"nStudents":24,"maxFlips":30,"completionMinutes":45,"basePay":8,"maxBonus":9,"perTrialBonus":0.5,"perTrialBonusThreshold":0.1,"exampleCost":0.01},"classroomParams":{"A":{"a":1,"b":4},"B":{"a":4,"b":1},"C":{"a":2,"b":8},"D":{"a":8,"b":2}},"conditions":["nonSeqFull","nonSeqPartial","seqNoFeedback","seqFeedback"],"classroomPairings":[["A","B"],["C","D"]],"coinWeights":[0.2,0.5,0.8],"subjectId":"A2IQ0QCTQ3KWLT","assignmentId":"3T3IWE1XG790ITJ1DFM7O9IXXXZTQR","hitId":"3H6W48L9F4B5OEOMH57RM53ZYNHWPM","url":"https://gershmanlab.com/experiments/alicia/teaching/experiment/?hitId=3H6W48L9F4B5OEOMH57RM53ZYNHWPM&workerId=A2IQ0QCTQ3KWLT&assignmentId=3T3IWE1XG790ITJ1DFM7O9IXXXZTQR&a=XW3T8&tp_a=XW3T8&b=3T3IWE1XG790ITJ1DFM7O9IXXXZTQR&tp_b=3T3IWE1XG790ITJ1DFM7O9IXXXZTQR&c=365198&tp_c=365198"},{"rt":null,"stimulus":"Examples sent to student! Waiting for student...","response":null,"trial_type":"html-keyboard-response","trial_index":49,"time_elapsed":905744,"internal_node_id":"0.0-45.0","params":{"nStudents":24,"maxFlips":30,"completionMinutes":45,"basePay":8,"maxBonus":9,"perTrialBonus":0.5,"perTrialBonusThreshold":0.1,"exampleCost":0.01},"classroomParams":{"A":{"a":1,"b":4},"B":{"a":4,"b":1},"C":{"a":2,"b":8},"D":{"a":8,"b":2}},"conditions":["nonSeqFull","nonSeqPartial","seqNoFeedback","seqFeedback"],"classroomPairings":[["A","B"],["C","D"]],"coinWeights":[0.2,0.5,0.8],"subjectId":"A2IQ0QCTQ3KWLT","assignmentId":"3T3IWE1XG790ITJ1DFM7O9IXXXZTQR","hitId":"3H6W48L9F4B5OEOMH57RM53ZYNHWPM","url":"https://gershmanlab.com/experiments/alicia/teaching/experiment/?hitId=3H6W48L9F4B5OEOMH57RM53ZYNHWPM&workerId=A2IQ0QCTQ3KWLT&assignmentId=3T3IWE1XG790ITJ1DFM7O9IXXXZTQR&a=XW3T8&tp_a=XW3T8&b=3T3IWE1XG790ITJ1DFM7O9IXXXZTQR&tp_b=3T3IWE1XG790ITJ1DFM7O9IXXXZTQR&c=365198&tp_c=365198"},{"rt":5389,"stimulus":"\n                <p>Student's guess for coin weight: <b style=\"color:Tomato;\">0.74</b></p>\n                <p></b></p>\n                <p>You will now send another set of examples to your student. Press any key to continue.</p>\n                ","response":" ","trial_type":"html-keyboard-response","trial_index":50,"time_elapsed":911134,"internal_node_id":"0.0-46.0","params":{"nStudents":24,"maxFlips":30,"completionMinutes":45,"basePay":8,"maxBonus":9,"perTrialBonus":0.5,"perTrialBonusThreshold":0.1,"exampleCost":0.01},"classroomParams":{"A":{"a":1,"b":4},"B":{"a":4,"b":1},"C":{"a":2,"b":8},"D":{"a":8,"b":2}},"conditions":["nonSeqFull","nonSeqPartial","seqNoFeedback","seqFeedback"],"classroomPairings":[["A","B"],["C","D"]],"coinWeights":[0.2,0.5,0.8],"subjectId":"A2IQ0QCTQ3KWLT","assignmentId":"3T3IWE1XG790ITJ1DFM7O9IXXXZTQR","hitId":"3H6W48L9F4B5OEOMH57RM53ZYNHWPM","url":"https://gershmanlab.com/experiments/alicia/teaching/experiment/?hitId=3H6W48L9F4B5OEOMH57RM53ZYNHWPM&workerId=A2IQ0QCTQ3KWLT&assignmentId=3T3IWE1XG790ITJ1DFM7O9IXXXZTQR&a=XW3T8&tp_a=XW3T8&b=3T3IWE1XG790ITJ1DFM7O9IXXXZTQR&tp_b=3T3IWE1XG790ITJ1DFM7O9IXXXZTQR&c=365198&tp_c=365198"},{"rt":36415,"response":{"heads":"5","tails":"0"},"type":"response","condition":"seqFeedback","trueTheta":0.5,"classrooms":["C","D"],"studentTrueClassroom":"D","exampleSet":"second","trial_type":"survey-html-form","trial_index":51,"time_elapsed":947549,"internal_node_id":"0.0-47.0-0.0","params":{"nStudents":24,"maxFlips":30,"completionMinutes":45,"basePay":8,"maxBonus":9,"perTrialBonus":0.5,"perTrialBonusThreshold":0.1,"exampleCost":0.01},"classroomParams":{"A":{"a":1,"b":4},"B":{"a":4,"b":1},"C":{"a":2,"b":8},"D":{"a":8,"b":2}},"conditions":["nonSeqFull","nonSeqPartial","seqNoFeedback","seqFeedback"],"classroomPairings":[["A","B"],["C","D"]],"coinWeights":[0.2,0.5,0.8],"subjectId":"A2IQ0QCTQ3KWLT","assignmentId":"3T3IWE1XG790ITJ1DFM7O9IXXXZTQR","hitId":"3H6W48L9F4B5OEOMH57RM53ZYNHWPM","url":"https://gershmanlab.com/experiments/alicia/teaching/experiment/?hitId=3H6W48L9F4B5OEOMH57RM53ZYNHWPM&workerId=A2IQ0QCTQ3KWLT&assignmentId=3T3IWE1XG790ITJ1DFM7O9IXXXZTQR&a=XW3T8&tp_a=XW3T8&b=3T3IWE1XG790ITJ1DFM7O9IXXXZTQR&tp_b=3T3IWE1XG790ITJ1DFM7O9IXXXZTQR&c=365198&tp_c=365198","firstResponseHeads":6,"firstResponseTails":3,"secondResponseHeads":5,"secondResponseTails":0,"studentIndex":5,"studentTrueHypers":{"a":8,"b":2},"studentGuess":0.7916666666666666,"delta":0.29166666666666663,"bonus":0,"bonusSoFar":0.4,"totalExamples":14},{"rt":null,"stimulus":"Sending examples to student... ","response":null,"trial_type":"html-keyboard-response","trial_index":52,"time_elapsed":949551,"internal_node_id":"0.0-48.0","params":{"nStudents":24,"maxFlips":30,"completionMinutes":45,"basePay":8,"maxBonus":9,"perTrialBonus":0.5,"perTrialBonusThreshold":0.1,"exampleCost":0.01},"classroomParams":{"A":{"a":1,"b":4},"B":{"a":4,"b":1},"C":{"a":2,"b":8},"D":{"a":8,"b":2}},"conditions":["nonSeqFull","nonSeqPartial","seqNoFeedback","seqFeedback"],"classroomPairings":[["A","B"],["C","D"]],"coinWeights":[0.2,0.5,0.8],"subjectId":"A2IQ0QCTQ3KWLT","assignmentId":"3T3IWE1XG790ITJ1DFM7O9IXXXZTQR","hitId":"3H6W48L9F4B5OEOMH57RM53ZYNHWPM","url":"https://gershmanlab.com/experiments/alicia/teaching/experiment/?hitId=3H6W48L9F4B5OEOMH57RM53ZYNHWPM&workerId=A2IQ0QCTQ3KWLT&assignmentId=3T3IWE1XG790ITJ1DFM7O9IXXXZTQR&a=XW3T8&tp_a=XW3T8&b=3T3IWE1XG790ITJ1DFM7O9IXXXZTQR&tp_b=3T3IWE1XG790ITJ1DFM7O9IXXXZTQR&c=365198&tp_c=365198"},{"rt":null,"stimulus":"Examples sent to student! Waiting for student...","response":null,"trial_type":"html-keyboard-response","trial_index":53,"time_elapsed":953555,"internal_node_id":"0.0-49.0","params":{"nStudents":24,"maxFlips":30,"completionMinutes":45,"basePay":8,"maxBonus":9,"perTrialBonus":0.5,"perTrialBonusThreshold":0.1,"exampleCost":0.01},"classroomParams":{"A":{"a":1,"b":4},"B":{"a":4,"b":1},"C":{"a":2,"b":8},"D":{"a":8,"b":2}},"conditions":["nonSeqFull","nonSeqPartial","seqNoFeedback","seqFeedback"],"classroomPairings":[["A","B"],["C","D"]],"coinWeights":[0.2,0.5,0.8],"subjectId":"A2IQ0QCTQ3KWLT","assignmentId":"3T3IWE1XG790ITJ1DFM7O9IXXXZTQR","hitId":"3H6W48L9F4B5OEOMH57RM53ZYNHWPM","url":"https://gershmanlab.com/experiments/alicia/teaching/experiment/?hitId=3H6W48L9F4B5OEOMH57RM53ZYNHWPM&workerId=A2IQ0QCTQ3KWLT&assignmentId=3T3IWE1XG790ITJ1DFM7O9IXXXZTQR&a=XW3T8&tp_a=XW3T8&b=3T3IWE1XG790ITJ1DFM7O9IXXXZTQR&tp_b=3T3IWE1XG790ITJ1DFM7O9IXXXZTQR&c=365198&tp_c=365198"},{"rt":5353,"stimulus":"\n                <p>Student 6's first guess for coin weight: <b style=\"color:Tomato\";>0.74</b></p>\n                <p>Student 6's second guess for coin weight: <b style=\"color:Tomato\";>0.79</b></p>\n                <p>You received a bonus of <b>$0.00</b> based on the student's second guess.</p>\n                <p>Total bonus so far: <b>$0.40</b></p>\n                <p>Press any key to continue.</p>\n                ","response":" ","trial_type":"html-keyboard-response","trial_index":54,"time_elapsed":958909,"internal_node_id":"0.0-50.0","params":{"nStudents":24,"maxFlips":30,"completionMinutes":45,"basePay":8,"maxBonus":9,"perTrialBonus":0.5,"perTrialBonusThreshold":0.1,"exampleCost":0.01},"classroomParams":{"A":{"a":1,"b":4},"B":{"a":4,"b":1},"C":{"a":2,"b":8},"D":{"a":8,"b":2}},"conditions":["nonSeqFull","nonSeqPartial","seqNoFeedback","seqFeedback"],"classroomPairings":[["A","B"],["C","D"]],"coinWeights":[0.2,0.5,0.8],"subjectId":"A2IQ0QCTQ3KWLT","assignmentId":"3T3IWE1XG790ITJ1DFM7O9IXXXZTQR","hitId":"3H6W48L9F4B5OEOMH57RM53ZYNHWPM","url":"https://gershmanlab.com/experiments/alicia/teaching/experiment/?hitId=3H6W48L9F4B5OEOMH57RM53ZYNHWPM&workerId=A2IQ0QCTQ3KWLT&assignmentId=3T3IWE1XG790ITJ1DFM7O9IXXXZTQR&a=XW3T8&tp_a=XW3T8&b=3T3IWE1XG790ITJ1DFM7O9IXXXZTQR&tp_b=3T3IWE1XG790ITJ1DFM7O9IXXXZTQR&c=365198&tp_c=365198"},{"rt":null,"stimulus":"<div style=\"font-size:60px;\">Next student</div>","response":null,"trial_type":"html-keyboard-response","trial_index":55,"time_elapsed":960915,"internal_node_id":"0.0-51.0-0.0","params":{"nStudents":24,"maxFlips":30,"completionMinutes":45,"basePay":8,"maxBonus":9,"perTrialBonus":0.5,"perTrialBonusThreshold":0.1,"exampleCost":0.01},"classroomParams":{"A":{"a":1,"b":4},"B":{"a":4,"b":1},"C":{"a":2,"b":8},"D":{"a":8,"b":2}},"conditions":["nonSeqFull","nonSeqPartial","seqNoFeedback","seqFeedback"],"classroomPairings":[["A","B"],["C","D"]],"coinWeights":[0.2,0.5,0.8],"subjectId":"A2IQ0QCTQ3KWLT","assignmentId":"3T3IWE1XG790ITJ1DFM7O9IXXXZTQR","hitId":"3H6W48L9F4B5OEOMH57RM53ZYNHWPM","url":"https://gershmanlab.com/experiments/alicia/teaching/experiment/?hitId=3H6W48L9F4B5OEOMH57RM53ZYNHWPM&workerId=A2IQ0QCTQ3KWLT&assignmentId=3T3IWE1XG790ITJ1DFM7O9IXXXZTQR&a=XW3T8&tp_a=XW3T8&b=3T3IWE1XG790ITJ1DFM7O9IXXXZTQR&tp_b=3T3IWE1XG790ITJ1DFM7O9IXXXZTQR&c=365198&tp_c=365198"},{"rt":2327,"stimulus":"\n            <h4 style=\"color:Orange;\">Student 7</h4>\n            <h2>The weight of your coin is <b style=\"color:Tomato;\">0.8</b>.</h2>\n            <p>In this block, you will be giving <b>two</b> sets of examples to Student 7.</p>\n                <p>You will see the student's guess after the first set of examples. You will also receive feedback at the end of the block.</p>\n            ","response":0,"trial_type":"html-button-response","trial_index":56,"time_elapsed":963242,"internal_node_id":"0.0-52.0","params":{"nStudents":24,"maxFlips":30,"completionMinutes":45,"basePay":8,"maxBonus":9,"perTrialBonus":0.5,"perTrialBonusThreshold":0.1,"exampleCost":0.01},"classroomParams":{"A":{"a":1,"b":4},"B":{"a":4,"b":1},"C":{"a":2,"b":8},"D":{"a":8,"b":2}},"conditions":["nonSeqFull","nonSeqPartial","seqNoFeedback","seqFeedback"],"classroomPairings":[["A","B"],["C","D"]],"coinWeights":[0.2,0.5,0.8],"subjectId":"A2IQ0QCTQ3KWLT","assignmentId":"3T3IWE1XG790ITJ1DFM7O9IXXXZTQR","hitId":"3H6W48L9F4B5OEOMH57RM53ZYNHWPM","url":"https://gershmanlab.com/experiments/alicia/teaching/experiment/?hitId=3H6W48L9F4B5OEOMH57RM53ZYNHWPM&workerId=A2IQ0QCTQ3KWLT&assignmentId=3T3IWE1XG790ITJ1DFM7O9IXXXZTQR&a=XW3T8&tp_a=XW3T8&b=3T3IWE1XG790ITJ1DFM7O9IXXXZTQR&tp_b=3T3IWE1XG790ITJ1DFM7O9IXXXZTQR&c=365198&tp_c=365198"},{"rt":8516,"response":{"heads":"8","tails":"0"},"type":"response","condition":"seqFeedback","trueTheta":0.8,"classrooms":["A","B"],"studentTrueClassroom":"B","exampleSet":"first","trial_type":"survey-html-form","trial_index":57,"time_elapsed":971760,"internal_node_id":"0.0-53.0-0.0","params":{"nStudents":24,"maxFlips":30,"completionMinutes":45,"basePay":8,"maxBonus":9,"perTrialBonus":0.5,"perTrialBonusThreshold":0.1,"exampleCost":0.01},"classroomParams":{"A":{"a":1,"b":4},"B":{"a":4,"b":1},"C":{"a":2,"b":8},"D":{"a":8,"b":2}},"conditions":["nonSeqFull","nonSeqPartial","seqNoFeedback","seqFeedback"],"classroomPairings":[["A","B"],["C","D"]],"coinWeights":[0.2,0.5,0.8],"subjectId":"A2IQ0QCTQ3KWLT","assignmentId":"3T3IWE1XG790ITJ1DFM7O9IXXXZTQR","hitId":"3H6W48L9F4B5OEOMH57RM53ZYNHWPM","url":"https://gershmanlab.com/experiments/alicia/teaching/experiment/?hitId=3H6W48L9F4B5OEOMH57RM53ZYNHWPM&workerId=A2IQ0QCTQ3KWLT&assignmentId=3T3IWE1XG790ITJ1DFM7O9IXXXZTQR&a=XW3T8&tp_a=XW3T8&b=3T3IWE1XG790ITJ1DFM7O9IXXXZTQR&tp_b=3T3IWE1XG790ITJ1DFM7O9IXXXZTQR&c=365198&tp_c=365198","heads":8,"tails":0,"studentIndex":6,"studentTrueHypers":{"a":4,"b":1},"studentGuess":0.9230769230769231,"delta":0.12307692307692308,"totalExamples":8,"bonusSoFar":0.4},{"rt":null,"stimulus":"Sending examples to student... ","response":null,"trial_type":"html-keyboard-response","trial_index":58,"time_elapsed":973014,"internal_node_id":"0.0-54.0","params":{"nStudents":24,"maxFlips":30,"completionMinutes":45,"basePay":8,"maxBonus":9,"perTrialBonus":0.5,"perTrialBonusThreshold":0.1,"exampleCost":0.01},"classroomParams":{"A":{"a":1,"b":4},"B":{"a":4,"b":1},"C":{"a":2,"b":8},"D":{"a":8,"b":2}},"conditions":["nonSeqFull","nonSeqPartial","seqNoFeedback","seqFeedback"],"classroomPairings":[["A","B"],["C","D"]],"coinWeights":[0.2,0.5,0.8],"subjectId":"A2IQ0QCTQ3KWLT","assignmentId":"3T3IWE1XG790ITJ1DFM7O9IXXXZTQR","hitId":"3H6W48L9F4B5OEOMH57RM53ZYNHWPM","url":"https://gershmanlab.com/experiments/alicia/teaching/experiment/?hitId=3H6W48L9F4B5OEOMH57RM53ZYNHWPM&workerId=A2IQ0QCTQ3KWLT&assignmentId=3T3IWE1XG790ITJ1DFM7O9IXXXZTQR&a=XW3T8&tp_a=XW3T8&b=3T3IWE1XG790ITJ1DFM7O9IXXXZTQR&tp_b=3T3IWE1XG790ITJ1DFM7O9IXXXZTQR&c=365198&tp_c=365198"},{"rt":null,"stimulus":"Examples sent to student! Waiting for student...","response":null,"trial_type":"html-keyboard-response","trial_index":59,"time_elapsed":978518,"internal_node_id":"0.0-55.0","params":{"nStudents":24,"maxFlips":30,"completionMinutes":45,"basePay":8,"maxBonus":9,"perTrialBonus":0.5,"perTrialBonusThreshold":0.1,"exampleCost":0.01},"classroomParams":{"A":{"a":1,"b":4},"B":{"a":4,"b":1},"C":{"a":2,"b":8},"D":{"a":8,"b":2}},"conditions":["nonSeqFull","nonSeqPartial","seqNoFeedback","seqFeedback"],"classroomPairings":[["A","B"],["C","D"]],"coinWeights":[0.2,0.5,0.8],"subjectId":"A2IQ0QCTQ3KWLT","assignmentId":"3T3IWE1XG790ITJ1DFM7O9IXXXZTQR","hitId":"3H6W48L9F4B5OEOMH57RM53ZYNHWPM","url":"https://gershmanlab.com/experiments/alicia/teaching/experiment/?hitId=3H6W48L9F4B5OEOMH57RM53ZYNHWPM&workerId=A2IQ0QCTQ3KWLT&assignmentId=3T3IWE1XG790ITJ1DFM7O9IXXXZTQR&a=XW3T8&tp_a=XW3T8&b=3T3IWE1XG790ITJ1DFM7O9IXXXZTQR&tp_b=3T3IWE1XG790ITJ1DFM7O9IXXXZTQR&c=365198&tp_c=365198"},{"rt":3837,"stimulus":"\n                <p>Student's guess for coin weight: <b style=\"color:Tomato;\">0.92</b></p>\n                <p></b></p>\n                <p>You will now send another set of examples to your student. Press any key to continue.</p>\n                ","response":" ","trial_type":"html-keyboard-response","trial_index":60,"time_elapsed":982356,"internal_node_id":"0.0-56.0","params":{"nStudents":24,"maxFlips":30,"completionMinutes":45,"basePay":8,"maxBonus":9,"perTrialBonus":0.5,"perTrialBonusThreshold":0.1,"exampleCost":0.01},"classroomParams":{"A":{"a":1,"b":4},"B":{"a":4,"b":1},"C":{"a":2,"b":8},"D":{"a":8,"b":2}},"conditions":["nonSeqFull","nonSeqPartial","seqNoFeedback","seqFeedback"],"classroomPairings":[["A","B"],["C","D"]],"coinWeights":[0.2,0.5,0.8],"subjectId":"A2IQ0QCTQ3KWLT","assignmentId":"3T3IWE1XG790ITJ1DFM7O9IXXXZTQR","hitId":"3H6W48L9F4B5OEOMH57RM53ZYNHWPM","url":"https://gershmanlab.com/experiments/alicia/teaching/experiment/?hitId=3H6W48L9F4B5OEOMH57RM53ZYNHWPM&workerId=A2IQ0QCTQ3KWLT&assignmentId=3T3IWE1XG790ITJ1DFM7O9IXXXZTQR&a=XW3T8&tp_a=XW3T8&b=3T3IWE1XG790ITJ1DFM7O9IXXXZTQR&tp_b=3T3IWE1XG790ITJ1DFM7O9IXXXZTQR&c=365198&tp_c=365198"},{"rt":6312,"response":{"heads":"8","tails":"0"},"type":"response","condition":"seqFeedback","trueTheta":0.8,"classrooms":["A","B"],"studentTrueClassroom":"B","exampleSet":"second","trial_type":"survey-html-form","trial_index":61,"time_elapsed":988669,"internal_node_id":"0.0-57.0-0.0","params":{"nStudents":24,"maxFlips":30,"completionMinutes":45,"basePay":8,"maxBonus":9,"perTrialBonus":0.5,"perTrialBonusThreshold":0.1,"exampleCost":0.01},"classroomParams":{"A":{"a":1,"b":4},"B":{"a":4,"b":1},"C":{"a":2,"b":8},"D":{"a":8,"b":2}},"conditions":["nonSeqFull","nonSeqPartial","seqNoFeedback","seqFeedback"],"classroomPairings":[["A","B"],["C","D"]],"coinWeights":[0.2,0.5,0.8],"subjectId":"A2IQ0QCTQ3KWLT","assignmentId":"3T3IWE1XG790ITJ1DFM7O9IXXXZTQR","hitId":"3H6W48L9F4B5OEOMH57RM53ZYNHWPM","url":"https://gershmanlab.com/experiments/alicia/teaching/experiment/?hitId=3H6W48L9F4B5OEOMH57RM53ZYNHWPM&workerId=A2IQ0QCTQ3KWLT&assignmentId=3T3IWE1XG790ITJ1DFM7O9IXXXZTQR&a=XW3T8&tp_a=XW3T8&b=3T3IWE1XG790ITJ1DFM7O9IXXXZTQR&tp_b=3T3IWE1XG790ITJ1DFM7O9IXXXZTQR&c=365198&tp_c=365198","firstResponseHeads":8,"firstResponseTails":0,"secondResponseHeads":8,"secondResponseTails":0,"studentIndex":6,"studentTrueHypers":{"a":4,"b":1},"studentGuess":0.9523809523809523,"delta":0.15238095238095228,"bonus":0,"bonusSoFar":0.4,"totalExamples":16},{"rt":null,"stimulus":"Sending examples to student... ","response":null,"trial_type":"html-keyboard-response","trial_index":62,"time_elapsed":990674,"internal_node_id":"0.0-58.0","params":{"nStudents":24,"maxFlips":30,"completionMinutes":45,"basePay":8,"maxBonus":9,"perTrialBonus":0.5,"perTrialBonusThreshold":0.1,"exampleCost":0.01},"classroomParams":{"A":{"a":1,"b":4},"B":{"a":4,"b":1},"C":{"a":2,"b":8},"D":{"a":8,"b":2}},"conditions":["nonSeqFull","nonSeqPartial","seqNoFeedback","seqFeedback"],"classroomPairings":[["A","B"],["C","D"]],"coinWeights":[0.2,0.5,0.8],"subjectId":"A2IQ0QCTQ3KWLT","assignmentId":"3T3IWE1XG790ITJ1DFM7O9IXXXZTQR","hitId":"3H6W48L9F4B5OEOMH57RM53ZYNHWPM","url":"https://gershmanlab.com/experiments/alicia/teaching/experiment/?hitId=3H6W48L9F4B5OEOMH57RM53ZYNHWPM&workerId=A2IQ0QCTQ3KWLT&assignmentId=3T3IWE1XG790ITJ1DFM7O9IXXXZTQR&a=XW3T8&tp_a=XW3T8&b=3T3IWE1XG790ITJ1DFM7O9IXXXZTQR&tp_b=3T3IWE1XG790ITJ1DFM7O9IXXXZTQR&c=365198&tp_c=365198"},{"rt":null,"stimulus":"Examples sent to student! Waiting for student...","response":null,"trial_type":"html-keyboard-response","trial_index":63,"time_elapsed":995678,"internal_node_id":"0.0-59.0","params":{"nStudents":24,"maxFlips":30,"completionMinutes":45,"basePay":8,"maxBonus":9,"perTrialBonus":0.5,"perTrialBonusThreshold":0.1,"exampleCost":0.01},"classroomParams":{"A":{"a":1,"b":4},"B":{"a":4,"b":1},"C":{"a":2,"b":8},"D":{"a":8,"b":2}},"conditions":["nonSeqFull","nonSeqPartial","seqNoFeedback","seqFeedback"],"classroomPairings":[["A","B"],["C","D"]],"coinWeights":[0.2,0.5,0.8],"subjectId":"A2IQ0QCTQ3KWLT","assignmentId":"3T3IWE1XG790ITJ1DFM7O9IXXXZTQR","hitId":"3H6W48L9F4B5OEOMH57RM53ZYNHWPM","url":"https://gershmanlab.com/experiments/alicia/teaching/experiment/?hitId=3H6W48L9F4B5OEOMH57RM53ZYNHWPM&workerId=A2IQ0QCTQ3KWLT&assignmentId=3T3IWE1XG790ITJ1DFM7O9IXXXZTQR&a=XW3T8&tp_a=XW3T8&b=3T3IWE1XG790ITJ1DFM7O9IXXXZTQR&tp_b=3T3IWE1XG790ITJ1DFM7O9IXXXZTQR&c=365198&tp_c=365198"},{"rt":4253,"stimulus":"\n                <p>Student 7's first guess for coin weight: <b style=\"color:Tomato\";>0.92</b></p>\n                <p>Student 7's second guess for coin weight: <b style=\"color:Tomato\";>0.95</b></p>\n                <p>You received a bonus of <b>$0.00</b> based on the student's second guess.</p>\n                <p>Total bonus so far: <b>$0.40</b></p>\n                <p>Press any key to continue.</p>\n                ","response":" ","trial_type":"html-keyboard-response","trial_index":64,"time_elapsed":999932,"internal_node_id":"0.0-60.0","params":{"nStudents":24,"maxFlips":30,"completionMinutes":45,"basePay":8,"maxBonus":9,"perTrialBonus":0.5,"perTrialBonusThreshold":0.1,"exampleCost":0.01},"classroomParams":{"A":{"a":1,"b":4},"B":{"a":4,"b":1},"C":{"a":2,"b":8},"D":{"a":8,"b":2}},"conditions":["nonSeqFull","nonSeqPartial","seqNoFeedback","seqFeedback"],"classroomPairings":[["A","B"],["C","D"]],"coinWeights":[0.2,0.5,0.8],"subjectId":"A2IQ0QCTQ3KWLT","assignmentId":"3T3IWE1XG790ITJ1DFM7O9IXXXZTQR","hitId":"3H6W48L9F4B5OEOMH57RM53ZYNHWPM","url":"https://gershmanlab.com/experiments/alicia/teaching/experiment/?hitId=3H6W48L9F4B5OEOMH57RM53ZYNHWPM&workerId=A2IQ0QCTQ3KWLT&assignmentId=3T3IWE1XG790ITJ1DFM7O9IXXXZTQR&a=XW3T8&tp_a=XW3T8&b=3T3IWE1XG790ITJ1DFM7O9IXXXZTQR&tp_b=3T3IWE1XG790ITJ1DFM7O9IXXXZTQR&c=365198&tp_c=365198"},{"rt":null,"stimulus":"<div style=\"font-size:60px;\">Next student</div>","response":null,"trial_type":"html-keyboard-response","trial_index":65,"time_elapsed":1001934,"internal_node_id":"0.0-61.0-0.0","params":{"nStudents":24,"maxFlips":30,"completionMinutes":45,"basePay":8,"maxBonus":9,"perTrialBonus":0.5,"perTrialBonusThreshold":0.1,"exampleCost":0.01},"classroomParams":{"A":{"a":1,"b":4},"B":{"a":4,"b":1},"C":{"a":2,"b":8},"D":{"a":8,"b":2}},"conditions":["nonSeqFull","nonSeqPartial","seqNoFeedback","seqFeedback"],"classroomPairings":[["A","B"],["C","D"]],"coinWeights":[0.2,0.5,0.8],"subjectId":"A2IQ0QCTQ3KWLT","assignmentId":"3T3IWE1XG790ITJ1DFM7O9IXXXZTQR","hitId":"3H6W48L9F4B5OEOMH57RM53ZYNHWPM","url":"https://gershmanlab.com/experiments/alicia/teaching/experiment/?hitId=3H6W48L9F4B5OEOMH57RM53ZYNHWPM&workerId=A2IQ0QCTQ3KWLT&assignmentId=3T3IWE1XG790ITJ1DFM7O9IXXXZTQR&a=XW3T8&tp_a=XW3T8&b=3T3IWE1XG790ITJ1DFM7O9IXXXZTQR&tp_b=3T3IWE1XG790ITJ1DFM7O9IXXXZTQR&c=365198&tp_c=365198"},{"rt":2698,"stimulus":"\n            <h4 style=\"color:Orange;\">Student 8</h4>\n            <h2>The weight of your coin is <b style=\"color:Tomato;\">0.2</b>.</h2>\n            <p>In this block, you will be giving <b>two</b> sets of examples to Student 8.</p>\n                <p>You will receive feedback at the end of the block.</p>\n            ","response":0,"trial_type":"html-button-response","trial_index":66,"time_elapsed":1004633,"internal_node_id":"0.0-62.0","params":{"nStudents":24,"maxFlips":30,"completionMinutes":45,"basePay":8,"maxBonus":9,"perTrialBonus":0.5,"perTrialBonusThreshold":0.1,"exampleCost":0.01},"classroomParams":{"A":{"a":1,"b":4},"B":{"a":4,"b":1},"C":{"a":2,"b":8},"D":{"a":8,"b":2}},"conditions":["nonSeqFull","nonSeqPartial","seqNoFeedback","seqFeedback"],"classroomPairings":[["A","B"],["C","D"]],"coinWeights":[0.2,0.5,0.8],"subjectId":"A2IQ0QCTQ3KWLT","assignmentId":"3T3IWE1XG790ITJ1DFM7O9IXXXZTQR","hitId":"3H6W48L9F4B5OEOMH57RM53ZYNHWPM","url":"https://gershmanlab.com/experiments/alicia/teaching/experiment/?hitId=3H6W48L9F4B5OEOMH57RM53ZYNHWPM&workerId=A2IQ0QCTQ3KWLT&assignmentId=3T3IWE1XG790ITJ1DFM7O9IXXXZTQR&a=XW3T8&tp_a=XW3T8&b=3T3IWE1XG790ITJ1DFM7O9IXXXZTQR&tp_b=3T3IWE1XG790ITJ1DFM7O9IXXXZTQR&c=365198&tp_c=365198"},{"rt":7200,"response":{"heads":"2","tails":"8"},"type":"response","condition":"seqNoFeedback","trueTheta":0.2,"classrooms":["C","D"],"studentTrueClassroom":"C","exampleSet":"first","trial_type":"survey-html-form","trial_index":67,"time_elapsed":1011834,"internal_node_id":"0.0-63.0-0.0","params":{"nStudents":24,"maxFlips":30,"completionMinutes":45,"basePay":8,"maxBonus":9,"perTrialBonus":0.5,"perTrialBonusThreshold":0.1,"exampleCost":0.01},"classroomParams":{"A":{"a":1,"b":4},"B":{"a":4,"b":1},"C":{"a":2,"b":8},"D":{"a":8,"b":2}},"conditions":["nonSeqFull","nonSeqPartial","seqNoFeedback","seqFeedback"],"classroomPairings":[["A","B"],["C","D"]],"coinWeights":[0.2,0.5,0.8],"subjectId":"A2IQ0QCTQ3KWLT","assignmentId":"3T3IWE1XG790ITJ1DFM7O9IXXXZTQR","hitId":"3H6W48L9F4B5OEOMH57RM53ZYNHWPM","url":"https://gershmanlab.com/experiments/alicia/teaching/experiment/?hitId=3H6W48L9F4B5OEOMH57RM53ZYNHWPM&workerId=A2IQ0QCTQ3KWLT&assignmentId=3T3IWE1XG790ITJ1DFM7O9IXXXZTQR&a=XW3T8&tp_a=XW3T8&b=3T3IWE1XG790ITJ1DFM7O9IXXXZTQR&tp_b=3T3IWE1XG790ITJ1DFM7O9IXXXZTQR&c=365198&tp_c=365198","heads":2,"tails":8,"studentIndex":7,"studentTrueHypers":{"a":2,"b":8},"studentGuess":0.2,"delta":0,"totalExamples":10,"bonusSoFar":0.4},{"rt":null,"stimulus":"Sending examples to student... ","response":null,"trial_type":"html-keyboard-response","trial_index":68,"time_elapsed":1013337,"internal_node_id":"0.0-64.0","params":{"nStudents":24,"maxFlips":30,"completionMinutes":45,"basePay":8,"maxBonus":9,"perTrialBonus":0.5,"perTrialBonusThreshold":0.1,"exampleCost":0.01},"classroomParams":{"A":{"a":1,"b":4},"B":{"a":4,"b":1},"C":{"a":2,"b":8},"D":{"a":8,"b":2}},"conditions":["nonSeqFull","nonSeqPartial","seqNoFeedback","seqFeedback"],"classroomPairings":[["A","B"],["C","D"]],"coinWeights":[0.2,0.5,0.8],"subjectId":"A2IQ0QCTQ3KWLT","assignmentId":"3T3IWE1XG790ITJ1DFM7O9IXXXZTQR","hitId":"3H6W48L9F4B5OEOMH57RM53ZYNHWPM","url":"https://gershmanlab.com/experiments/alicia/teaching/experiment/?hitId=3H6W48L9F4B5OEOMH57RM53ZYNHWPM&workerId=A2IQ0QCTQ3KWLT&assignmentId=3T3IWE1XG790ITJ1DFM7O9IXXXZTQR&a=XW3T8&tp_a=XW3T8&b=3T3IWE1XG790ITJ1DFM7O9IXXXZTQR&tp_b=3T3IWE1XG790ITJ1DFM7O9IXXXZTQR&c=365198&tp_c=365198"},{"rt":null,"stimulus":"Examples sent to student! Waiting for student...","response":null,"trial_type":"html-keyboard-response","trial_index":69,"time_elapsed":1018341,"internal_node_id":"0.0-65.0","params":{"nStudents":24,"maxFlips":30,"completionMinutes":45,"basePay":8,"maxBonus":9,"perTrialBonus":0.5,"perTrialBonusThreshold":0.1,"exampleCost":0.01},"classroomParams":{"A":{"a":1,"b":4},"B":{"a":4,"b":1},"C":{"a":2,"b":8},"D":{"a":8,"b":2}},"conditions":["nonSeqFull","nonSeqPartial","seqNoFeedback","seqFeedback"],"classroomPairings":[["A","B"],["C","D"]],"coinWeights":[0.2,0.5,0.8],"subjectId":"A2IQ0QCTQ3KWLT","assignmentId":"3T3IWE1XG790ITJ1DFM7O9IXXXZTQR","hitId":"3H6W48L9F4B5OEOMH57RM53ZYNHWPM","url":"https://gershmanlab.com/experiments/alicia/teaching/experiment/?hitId=3H6W48L9F4B5OEOMH57RM53ZYNHWPM&workerId=A2IQ0QCTQ3KWLT&assignmentId=3T3IWE1XG790ITJ1DFM7O9IXXXZTQR&a=XW3T8&tp_a=XW3T8&b=3T3IWE1XG790ITJ1DFM7O9IXXXZTQR&tp_b=3T3IWE1XG790ITJ1DFM7O9IXXXZTQR&c=365198&tp_c=365198"},{"rt":9142,"response":{"heads":"2","tails":"8"},"type":"response","condition":"seqNoFeedback","trueTheta":0.2,"classrooms":["C","D"],"studentTrueClassroom":"C","exampleSet":"second","trial_type":"survey-html-form","trial_index":70,"time_elapsed":1027484,"internal_node_id":"0.0-66.0-0.0","params":{"nStudents":24,"maxFlips":30,"completionMinutes":45,"basePay":8,"maxBonus":9,"perTrialBonus":0.5,"perTrialBonusThreshold":0.1,"exampleCost":0.01},"classroomParams":{"A":{"a":1,"b":4},"B":{"a":4,"b":1},"C":{"a":2,"b":8},"D":{"a":8,"b":2}},"conditions":["nonSeqFull","nonSeqPartial","seqNoFeedback","seqFeedback"],"classroomPairings":[["A","B"],["C","D"]],"coinWeights":[0.2,0.5,0.8],"subjectId":"A2IQ0QCTQ3KWLT","assignmentId":"3T3IWE1XG790ITJ1DFM7O9IXXXZTQR","hitId":"3H6W48L9F4B5OEOMH57RM53ZYNHWPM","url":"https://gershmanlab.com/experiments/alicia/teaching/experiment/?hitId=3H6W48L9F4B5OEOMH57RM53ZYNHWPM&workerId=A2IQ0QCTQ3KWLT&assignmentId=3T3IWE1XG790ITJ1DFM7O9IXXXZTQR&a=XW3T8&tp_a=XW3T8&b=3T3IWE1XG790ITJ1DFM7O9IXXXZTQR&tp_b=3T3IWE1XG790ITJ1DFM7O9IXXXZTQR&c=365198&tp_c=365198","firstResponseHeads":2,"firstResponseTails":8,"secondResponseHeads":2,"secondResponseTails":8,"studentIndex":7,"studentTrueHypers":{"a":2,"b":8},"studentGuess":0.2,"delta":0,"bonus":0.3,"bonusSoFar":0.7,"totalExamples":20},{"rt":null,"stimulus":"Sending examples to student... ","response":null,"trial_type":"html-keyboard-response","trial_index":71,"time_elapsed":1028737,"internal_node_id":"0.0-67.0","params":{"nStudents":24,"maxFlips":30,"completionMinutes":45,"basePay":8,"maxBonus":9,"perTrialBonus":0.5,"perTrialBonusThreshold":0.1,"exampleCost":0.01},"classroomParams":{"A":{"a":1,"b":4},"B":{"a":4,"b":1},"C":{"a":2,"b":8},"D":{"a":8,"b":2}},"conditions":["nonSeqFull","nonSeqPartial","seqNoFeedback","seqFeedback"],"classroomPairings":[["A","B"],["C","D"]],"coinWeights":[0.2,0.5,0.8],"subjectId":"A2IQ0QCTQ3KWLT","assignmentId":"3T3IWE1XG790ITJ1DFM7O9IXXXZTQR","hitId":"3H6W48L9F4B5OEOMH57RM53ZYNHWPM","url":"https://gershmanlab.com/experiments/alicia/teaching/experiment/?hitId=3H6W48L9F4B5OEOMH57RM53ZYNHWPM&workerId=A2IQ0QCTQ3KWLT&assignmentId=3T3IWE1XG790ITJ1DFM7O9IXXXZTQR&a=XW3T8&tp_a=XW3T8&b=3T3IWE1XG790ITJ1DFM7O9IXXXZTQR&tp_b=3T3IWE1XG790ITJ1DFM7O9IXXXZTQR&c=365198&tp_c=365198"},{"rt":null,"stimulus":"Examples sent to student! Waiting for student...","response":null,"trial_type":"html-keyboard-response","trial_index":72,"time_elapsed":1033239,"internal_node_id":"0.0-68.0","params":{"nStudents":24,"maxFlips":30,"completionMinutes":45,"basePay":8,"maxBonus":9,"perTrialBonus":0.5,"perTrialBonusThreshold":0.1,"exampleCost":0.01},"classroomParams":{"A":{"a":1,"b":4},"B":{"a":4,"b":1},"C":{"a":2,"b":8},"D":{"a":8,"b":2}},"conditions":["nonSeqFull","nonSeqPartial","seqNoFeedback","seqFeedback"],"classroomPairings":[["A","B"],["C","D"]],"coinWeights":[0.2,0.5,0.8],"subjectId":"A2IQ0QCTQ3KWLT","assignmentId":"3T3IWE1XG790ITJ1DFM7O9IXXXZTQR","hitId":"3H6W48L9F4B5OEOMH57RM53ZYNHWPM","url":"https://gershmanlab.com/experiments/alicia/teaching/experiment/?hitId=3H6W48L9F4B5OEOMH57RM53ZYNHWPM&workerId=A2IQ0QCTQ3KWLT&assignmentId=3T3IWE1XG790ITJ1DFM7O9IXXXZTQR&a=XW3T8&tp_a=XW3T8&b=3T3IWE1XG790ITJ1DFM7O9IXXXZTQR&tp_b=3T3IWE1XG790ITJ1DFM7O9IXXXZTQR&c=365198&tp_c=365198"},{"rt":3507,"stimulus":"\n                <p>Student 8's first guess for coin weight: <b style=\"color:Tomato\";>0.20</b></p>\n                <p>Student 8's second guess for coin weight: <b style=\"color:Tomato\";>0.20</b></p>\n                <p>You received a bonus of <b>$0.30</b> based on the student's second guess.</p>\n                <p>Total bonus so far: <b>$0.70</b></p>\n                <p>Press any key to continue.</p>\n                ","response":" ","trial_type":"html-keyboard-response","trial_index":73,"time_elapsed":1036747,"internal_node_id":"0.0-69.0","params":{"nStudents":24,"maxFlips":30,"completionMinutes":45,"basePay":8,"maxBonus":9,"perTrialBonus":0.5,"perTrialBonusThreshold":0.1,"exampleCost":0.01},"classroomParams":{"A":{"a":1,"b":4},"B":{"a":4,"b":1},"C":{"a":2,"b":8},"D":{"a":8,"b":2}},"conditions":["nonSeqFull","nonSeqPartial","seqNoFeedback","seqFeedback"],"classroomPairings":[["A","B"],["C","D"]],"coinWeights":[0.2,0.5,0.8],"subjectId":"A2IQ0QCTQ3KWLT","assignmentId":"3T3IWE1XG790ITJ1DFM7O9IXXXZTQR","hitId":"3H6W48L9F4B5OEOMH57RM53ZYNHWPM","url":"https://gershmanlab.com/experiments/alicia/teaching/experiment/?hitId=3H6W48L9F4B5OEOMH57RM53ZYNHWPM&workerId=A2IQ0QCTQ3KWLT&assignmentId=3T3IWE1XG790ITJ1DFM7O9IXXXZTQR&a=XW3T8&tp_a=XW3T8&b=3T3IWE1XG790ITJ1DFM7O9IXXXZTQR&tp_b=3T3IWE1XG790ITJ1DFM7O9IXXXZTQR&c=365198&tp_c=365198"},{"rt":null,"stimulus":"<div style=\"font-size:60px;\">Next student</div>","response":null,"trial_type":"html-keyboard-response","trial_index":74,"time_elapsed":1039249,"internal_node_id":"0.0-70.0-0.0","params":{"nStudents":24,"maxFlips":30,"completionMinutes":45,"basePay":8,"maxBonus":9,"perTrialBonus":0.5,"perTrialBonusThreshold":0.1,"exampleCost":0.01},"classroomParams":{"A":{"a":1,"b":4},"B":{"a":4,"b":1},"C":{"a":2,"b":8},"D":{"a":8,"b":2}},"conditions":["nonSeqFull","nonSeqPartial","seqNoFeedback","seqFeedback"],"classroomPairings":[["A","B"],["C","D"]],"coinWeights":[0.2,0.5,0.8],"subjectId":"A2IQ0QCTQ3KWLT","assignmentId":"3T3IWE1XG790ITJ1DFM7O9IXXXZTQR","hitId":"3H6W48L9F4B5OEOMH57RM53ZYNHWPM","url":"https://gershmanlab.com/experiments/alicia/teaching/experiment/?hitId=3H6W48L9F4B5OEOMH57RM53ZYNHWPM&workerId=A2IQ0QCTQ3KWLT&assignmentId=3T3IWE1XG790ITJ1DFM7O9IXXXZTQR&a=XW3T8&tp_a=XW3T8&b=3T3IWE1XG790ITJ1DFM7O9IXXXZTQR&tp_b=3T3IWE1XG790ITJ1DFM7O9IXXXZTQR&c=365198&tp_c=365198"},{"rt":3321,"stimulus":"\n            <h4 style=\"color:Orange;\">Student 9</h4>\n            <h2>The weight of your coin is <b style=\"color:Tomato;\">0.5</b>.</h2>\n            <p>In this block, you will be giving <b>two</b> sets of examples to Student 9.</p>\n                <p>You will receive feedback at the end of the block.</p>\n            ","response":0,"trial_type":"html-button-response","trial_index":75,"time_elapsed":1042570,"internal_node_id":"0.0-71.0","params":{"nStudents":24,"maxFlips":30,"completionMinutes":45,"basePay":8,"maxBonus":9,"perTrialBonus":0.5,"perTrialBonusThreshold":0.1,"exampleCost":0.01},"classroomParams":{"A":{"a":1,"b":4},"B":{"a":4,"b":1},"C":{"a":2,"b":8},"D":{"a":8,"b":2}},"conditions":["nonSeqFull","nonSeqPartial","seqNoFeedback","seqFeedback"],"classroomPairings":[["A","B"],["C","D"]],"coinWeights":[0.2,0.5,0.8],"subjectId":"A2IQ0QCTQ3KWLT","assignmentId":"3T3IWE1XG790ITJ1DFM7O9IXXXZTQR","hitId":"3H6W48L9F4B5OEOMH57RM53ZYNHWPM","url":"https://gershmanlab.com/experiments/alicia/teaching/experiment/?hitId=3H6W48L9F4B5OEOMH57RM53ZYNHWPM&workerId=A2IQ0QCTQ3KWLT&assignmentId=3T3IWE1XG790ITJ1DFM7O9IXXXZTQR&a=XW3T8&tp_a=XW3T8&b=3T3IWE1XG790ITJ1DFM7O9IXXXZTQR&tp_b=3T3IWE1XG790ITJ1DFM7O9IXXXZTQR&c=365198&tp_c=365198"},{"rt":14929,"response":{"heads":"6","tails":"1"},"type":"response","condition":"seqNoFeedback","trueTheta":0.5,"classrooms":["A","B"],"studentTrueClassroom":"A","exampleSet":"first","trial_type":"survey-html-form","trial_index":76,"time_elapsed":1057500,"internal_node_id":"0.0-72.0-0.0","params":{"nStudents":24,"maxFlips":30,"completionMinutes":45,"basePay":8,"maxBonus":9,"perTrialBonus":0.5,"perTrialBonusThreshold":0.1,"exampleCost":0.01},"classroomParams":{"A":{"a":1,"b":4},"B":{"a":4,"b":1},"C":{"a":2,"b":8},"D":{"a":8,"b":2}},"conditions":["nonSeqFull","nonSeqPartial","seqNoFeedback","seqFeedback"],"classroomPairings":[["A","B"],["C","D"]],"coinWeights":[0.2,0.5,0.8],"subjectId":"A2IQ0QCTQ3KWLT","assignmentId":"3T3IWE1XG790ITJ1DFM7O9IXXXZTQR","hitId":"3H6W48L9F4B5OEOMH57RM53ZYNHWPM","url":"https://gershmanlab.com/experiments/alicia/teaching/experiment/?hitId=3H6W48L9F4B5OEOMH57RM53ZYNHWPM&workerId=A2IQ0QCTQ3KWLT&assignmentId=3T3IWE1XG790ITJ1DFM7O9IXXXZTQR&a=XW3T8&tp_a=XW3T8&b=3T3IWE1XG790ITJ1DFM7O9IXXXZTQR&tp_b=3T3IWE1XG790ITJ1DFM7O9IXXXZTQR&c=365198&tp_c=365198","heads":6,"tails":1,"studentIndex":8,"studentTrueHypers":{"a":1,"b":4},"studentGuess":0.5833333333333334,"delta":0.08333333333333337,"totalExamples":7,"bonusSoFar":0.7},{"rt":null,"stimulus":"Sending examples to student... ","response":null,"trial_type":"html-keyboard-response","trial_index":77,"time_elapsed":1058757,"internal_node_id":"0.0-73.0","params":{"nStudents":24,"maxFlips":30,"completionMinutes":45,"basePay":8,"maxBonus":9,"perTrialBonus":0.5,"perTrialBonusThreshold":0.1,"exampleCost":0.01},"classroomParams":{"A":{"a":1,"b":4},"B":{"a":4,"b":1},"C":{"a":2,"b":8},"D":{"a":8,"b":2}},"conditions":["nonSeqFull","nonSeqPartial","seqNoFeedback","seqFeedback"],"classroomPairings":[["A","B"],["C","D"]],"coinWeights":[0.2,0.5,0.8],"subjectId":"A2IQ0QCTQ3KWLT","assignmentId":"3T3IWE1XG790ITJ1DFM7O9IXXXZTQR","hitId":"3H6W48L9F4B5OEOMH57RM53ZYNHWPM","url":"https://gershmanlab.com/experiments/alicia/teaching/experiment/?hitId=3H6W48L9F4B5OEOMH57RM53ZYNHWPM&workerId=A2IQ0QCTQ3KWLT&assignmentId=3T3IWE1XG790ITJ1DFM7O9IXXXZTQR&a=XW3T8&tp_a=XW3T8&b=3T3IWE1XG790ITJ1DFM7O9IXXXZTQR&tp_b=3T3IWE1XG790ITJ1DFM7O9IXXXZTQR&c=365198&tp_c=365198"},{"rt":null,"stimulus":"Examples sent to student! Waiting for student...","response":null,"trial_type":"html-keyboard-response","trial_index":78,"time_elapsed":1064260,"internal_node_id":"0.0-74.0","params":{"nStudents":24,"maxFlips":30,"completionMinutes":45,"basePay":8,"maxBonus":9,"perTrialBonus":0.5,"perTrialBonusThreshold":0.1,"exampleCost":0.01},"classroomParams":{"A":{"a":1,"b":4},"B":{"a":4,"b":1},"C":{"a":2,"b":8},"D":{"a":8,"b":2}},"conditions":["nonSeqFull","nonSeqPartial","seqNoFeedback","seqFeedback"],"classroomPairings":[["A","B"],["C","D"]],"coinWeights":[0.2,0.5,0.8],"subjectId":"A2IQ0QCTQ3KWLT","assignmentId":"3T3IWE1XG790ITJ1DFM7O9IXXXZTQR","hitId":"3H6W48L9F4B5OEOMH57RM53ZYNHWPM","url":"https://gershmanlab.com/experiments/alicia/teaching/experiment/?hitId=3H6W48L9F4B5OEOMH57RM53ZYNHWPM&workerId=A2IQ0QCTQ3KWLT&assignmentId=3T3IWE1XG790ITJ1DFM7O9IXXXZTQR&a=XW3T8&tp_a=XW3T8&b=3T3IWE1XG790ITJ1DFM7O9IXXXZTQR&tp_b=3T3IWE1XG790ITJ1DFM7O9IXXXZTQR&c=365198&tp_c=365198"},{"rt":10902,"response":{"heads":"6","tails":"2"},"type":"response","condition":"seqNoFeedback","trueTheta":0.5,"classrooms":["A","B"],"studentTrueClassroom":"A","exampleSet":"second","trial_type":"survey-html-form","trial_index":79,"time_elapsed":1075163,"internal_node_id":"0.0-75.0-0.0","params":{"nStudents":24,"maxFlips":30,"completionMinutes":45,"basePay":8,"maxBonus":9,"perTrialBonus":0.5,"perTrialBonusThreshold":0.1,"exampleCost":0.01},"classroomParams":{"A":{"a":1,"b":4},"B":{"a":4,"b":1},"C":{"a":2,"b":8},"D":{"a":8,"b":2}},"conditions":["nonSeqFull","nonSeqPartial","seqNoFeedback","seqFeedback"],"classroomPairings":[["A","B"],["C","D"]],"coinWeights":[0.2,0.5,0.8],"subjectId":"A2IQ0QCTQ3KWLT","assignmentId":"3T3IWE1XG790ITJ1DFM7O9IXXXZTQR","hitId":"3H6W48L9F4B5OEOMH57RM53ZYNHWPM","url":"https://gershmanlab.com/experiments/alicia/teaching/experiment/?hitId=3H6W48L9F4B5OEOMH57RM53ZYNHWPM&workerId=A2IQ0QCTQ3KWLT&assignmentId=3T3IWE1XG790ITJ1DFM7O9IXXXZTQR&a=XW3T8&tp_a=XW3T8&b=3T3IWE1XG790ITJ1DFM7O9IXXXZTQR&tp_b=3T3IWE1XG790ITJ1DFM7O9IXXXZTQR&c=365198&tp_c=365198","firstResponseHeads":6,"firstResponseTails":1,"secondResponseHeads":6,"secondResponseTails":2,"studentIndex":8,"studentTrueHypers":{"a":1,"b":4},"studentGuess":0.65,"delta":0.15000000000000002,"bonus":0,"bonusSoFar":0.7,"totalExamples":15},{"rt":null,"stimulus":"Sending examples to student... ","response":null,"trial_type":"html-keyboard-response","trial_index":80,"time_elapsed":1076916,"internal_node_id":"0.0-76.0","params":{"nStudents":24,"maxFlips":30,"completionMinutes":45,"basePay":8,"maxBonus":9,"perTrialBonus":0.5,"perTrialBonusThreshold":0.1,"exampleCost":0.01},"classroomParams":{"A":{"a":1,"b":4},"B":{"a":4,"b":1},"C":{"a":2,"b":8},"D":{"a":8,"b":2}},"conditions":["nonSeqFull","nonSeqPartial","seqNoFeedback","seqFeedback"],"classroomPairings":[["A","B"],["C","D"]],"coinWeights":[0.2,0.5,0.8],"subjectId":"A2IQ0QCTQ3KWLT","assignmentId":"3T3IWE1XG790ITJ1DFM7O9IXXXZTQR","hitId":"3H6W48L9F4B5OEOMH57RM53ZYNHWPM","url":"https://gershmanlab.com/experiments/alicia/teaching/experiment/?hitId=3H6W48L9F4B5OEOMH57RM53ZYNHWPM&workerId=A2IQ0QCTQ3KWLT&assignmentId=3T3IWE1XG790ITJ1DFM7O9IXXXZTQR&a=XW3T8&tp_a=XW3T8&b=3T3IWE1XG790ITJ1DFM7O9IXXXZTQR&tp_b=3T3IWE1XG790ITJ1DFM7O9IXXXZTQR&c=365198&tp_c=365198"},{"rt":null,"stimulus":"Examples sent to student! Waiting for student...","response":null,"trial_type":"html-keyboard-response","trial_index":81,"time_elapsed":1082920,"internal_node_id":"0.0-77.0","params":{"nStudents":24,"maxFlips":30,"completionMinutes":45,"basePay":8,"maxBonus":9,"perTrialBonus":0.5,"perTrialBonusThreshold":0.1,"exampleCost":0.01},"classroomParams":{"A":{"a":1,"b":4},"B":{"a":4,"b":1},"C":{"a":2,"b":8},"D":{"a":8,"b":2}},"conditions":["nonSeqFull","nonSeqPartial","seqNoFeedback","seqFeedback"],"classroomPairings":[["A","B"],["C","D"]],"coinWeights":[0.2,0.5,0.8],"subjectId":"A2IQ0QCTQ3KWLT","assignmentId":"3T3IWE1XG790ITJ1DFM7O9IXXXZTQR","hitId":"3H6W48L9F4B5OEOMH57RM53ZYNHWPM","url":"https://gershmanlab.com/experiments/alicia/teaching/experiment/?hitId=3H6W48L9F4B5OEOMH57RM53ZYNHWPM&workerId=A2IQ0QCTQ3KWLT&assignmentId=3T3IWE1XG790ITJ1DFM7O9IXXXZTQR&a=XW3T8&tp_a=XW3T8&b=3T3IWE1XG790ITJ1DFM7O9IXXXZTQR&tp_b=3T3IWE1XG790ITJ1DFM7O9IXXXZTQR&c=365198&tp_c=365198"},{"rt":2953,"stimulus":"\n                <p>Student 9's first guess for coin weight: <b style=\"color:Tomato\";>0.58</b></p>\n                <p>Student 9's second guess for coin weight: <b style=\"color:Tomato\";>0.65</b></p>\n                <p>You received a bonus of <b>$0.00</b> based on the student's second guess.</p>\n                <p>Total bonus so far: <b>$0.70</b></p>\n                <p>Press any key to continue.</p>\n                ","response":" ","trial_type":"html-keyboard-response","trial_index":82,"time_elapsed":1085874,"internal_node_id":"0.0-78.0","params":{"nStudents":24,"maxFlips":30,"completionMinutes":45,"basePay":8,"maxBonus":9,"perTrialBonus":0.5,"perTrialBonusThreshold":0.1,"exampleCost":0.01},"classroomParams":{"A":{"a":1,"b":4},"B":{"a":4,"b":1},"C":{"a":2,"b":8},"D":{"a":8,"b":2}},"conditions":["nonSeqFull","nonSeqPartial","seqNoFeedback","seqFeedback"],"classroomPairings":[["A","B"],["C","D"]],"coinWeights":[0.2,0.5,0.8],"subjectId":"A2IQ0QCTQ3KWLT","assignmentId":"3T3IWE1XG790ITJ1DFM7O9IXXXZTQR","hitId":"3H6W48L9F4B5OEOMH57RM53ZYNHWPM","url":"https://gershmanlab.com/experiments/alicia/teaching/experiment/?hitId=3H6W48L9F4B5OEOMH57RM53ZYNHWPM&workerId=A2IQ0QCTQ3KWLT&assignmentId=3T3IWE1XG790ITJ1DFM7O9IXXXZTQR&a=XW3T8&tp_a=XW3T8&b=3T3IWE1XG790ITJ1DFM7O9IXXXZTQR&tp_b=3T3IWE1XG790ITJ1DFM7O9IXXXZTQR&c=365198&tp_c=365198"},{"rt":null,"stimulus":"<div style=\"font-size:60px;\">Next student</div>","response":null,"trial_type":"html-keyboard-response","trial_index":83,"time_elapsed":1087876,"internal_node_id":"0.0-79.0-0.0","params":{"nStudents":24,"maxFlips":30,"completionMinutes":45,"basePay":8,"maxBonus":9,"perTrialBonus":0.5,"perTrialBonusThreshold":0.1,"exampleCost":0.01},"classroomParams":{"A":{"a":1,"b":4},"B":{"a":4,"b":1},"C":{"a":2,"b":8},"D":{"a":8,"b":2}},"conditions":["nonSeqFull","nonSeqPartial","seqNoFeedback","seqFeedback"],"classroomPairings":[["A","B"],["C","D"]],"coinWeights":[0.2,0.5,0.8],"subjectId":"A2IQ0QCTQ3KWLT","assignmentId":"3T3IWE1XG790ITJ1DFM7O9IXXXZTQR","hitId":"3H6W48L9F4B5OEOMH57RM53ZYNHWPM","url":"https://gershmanlab.com/experiments/alicia/teaching/experiment/?hitId=3H6W48L9F4B5OEOMH57RM53ZYNHWPM&workerId=A2IQ0QCTQ3KWLT&assignmentId=3T3IWE1XG790ITJ1DFM7O9IXXXZTQR&a=XW3T8&tp_a=XW3T8&b=3T3IWE1XG790ITJ1DFM7O9IXXXZTQR&tp_b=3T3IWE1XG790ITJ1DFM7O9IXXXZTQR&c=365198&tp_c=365198"},{"rt":71363,"stimulus":"\n            <h4 style=\"color:Orange;\">Student 10</h4>\n            <h2>The weight of your coin is <b style=\"color:Tomato;\">0.8</b>.</h2>\n            <p>In this block, you will be giving <b>two</b> sets of examples to Student 10.</p>\n                <p>You will receive feedback at the end of the block.</p>\n            ","response":0,"trial_type":"html-button-response","trial_index":84,"time_elapsed":1159239,"internal_node_id":"0.0-80.0","params":{"nStudents":24,"maxFlips":30,"completionMinutes":45,"basePay":8,"maxBonus":9,"perTrialBonus":0.5,"perTrialBonusThreshold":0.1,"exampleCost":0.01},"classroomParams":{"A":{"a":1,"b":4},"B":{"a":4,"b":1},"C":{"a":2,"b":8},"D":{"a":8,"b":2}},"conditions":["nonSeqFull","nonSeqPartial","seqNoFeedback","seqFeedback"],"classroomPairings":[["A","B"],["C","D"]],"coinWeights":[0.2,0.5,0.8],"subjectId":"A2IQ0QCTQ3KWLT","assignmentId":"3T3IWE1XG790ITJ1DFM7O9IXXXZTQR","hitId":"3H6W48L9F4B5OEOMH57RM53ZYNHWPM","url":"https://gershmanlab.com/experiments/alicia/teaching/experiment/?hitId=3H6W48L9F4B5OEOMH57RM53ZYNHWPM&workerId=A2IQ0QCTQ3KWLT&assignmentId=3T3IWE1XG790ITJ1DFM7O9IXXXZTQR&a=XW3T8&tp_a=XW3T8&b=3T3IWE1XG790ITJ1DFM7O9IXXXZTQR&tp_b=3T3IWE1XG790ITJ1DFM7O9IXXXZTQR&c=365198&tp_c=365198"},{"rt":6705,"response":{"heads":"8","tails":"0"},"type":"response","condition":"seqNoFeedback","trueTheta":0.8,"classrooms":["A","B"],"studentTrueClassroom":"B","exampleSet":"first","trial_type":"survey-html-form","trial_index":85,"time_elapsed":1165945,"internal_node_id":"0.0-81.0-0.0","params":{"nStudents":24,"maxFlips":30,"completionMinutes":45,"basePay":8,"maxBonus":9,"perTrialBonus":0.5,"perTrialBonusThreshold":0.1,"exampleCost":0.01},"classroomParams":{"A":{"a":1,"b":4},"B":{"a":4,"b":1},"C":{"a":2,"b":8},"D":{"a":8,"b":2}},"conditions":["nonSeqFull","nonSeqPartial","seqNoFeedback","seqFeedback"],"classroomPairings":[["A","B"],["C","D"]],"coinWeights":[0.2,0.5,0.8],"subjectId":"A2IQ0QCTQ3KWLT","assignmentId":"3T3IWE1XG790ITJ1DFM7O9IXXXZTQR","hitId":"3H6W48L9F4B5OEOMH57RM53ZYNHWPM","url":"https://gershmanlab.com/experiments/alicia/teaching/experiment/?hitId=3H6W48L9F4B5OEOMH57RM53ZYNHWPM&workerId=A2IQ0QCTQ3KWLT&assignmentId=3T3IWE1XG790ITJ1DFM7O9IXXXZTQR&a=XW3T8&tp_a=XW3T8&b=3T3IWE1XG790ITJ1DFM7O9IXXXZTQR&tp_b=3T3IWE1XG790ITJ1DFM7O9IXXXZTQR&c=365198&tp_c=365198","heads":8,"tails":0,"studentIndex":9,"studentTrueHypers":{"a":4,"b":1},"studentGuess":0.9230769230769231,"delta":0.12307692307692308,"totalExamples":8,"bonusSoFar":0.7},{"rt":null,"stimulus":"Sending examples to student... ","response":null,"trial_type":"html-keyboard-response",