[{"rt":2515,"stimulus":"Welcome to the experiment. Press any key to begin.","response":"s","trial_type":"html-keyboard-response","trial_index":0,"time_elapsed":2530,"internal_node_id":"0.0-0.0","params":{"nStudents":24,"maxFlips":30,"completionMinutes":45,"basePay":8,"maxBonus":9,"perTrialBonus":0.5,"perTrialBonusThreshold":0.1,"exampleCost":0.01},"classroomParams":{"A":{"a":1,"b":4},"B":{"a":4,"b":1},"C":{"a":2,"b":8},"D":{"a":8,"b":2}},"conditions":["nonSeqFull","nonSeqPartial","seqNoFeedback","seqFeedback"],"classroomPairings":[["A","B"],["C","D"]],"coinWeights":[0.2,0.5,0.8],"subjectId":"A2QTL039A5VV3I","assignmentId":"3ZY8KE4ISKPFVLNQIAMMPR6IUIFQV4","hitId":"3QGHA0EA0JM3KKNCY0PQRLYAHJ3BWH","url":"https://gershmanlab.com/experiments/alicia/teaching/experiment/?hitId=3QGHA0EA0JM3KKNCY0PQRLYAHJ3BWH&workerId=A2QTL039A5VV3I&assignmentId=3ZY8KE4ISKPFVLNQIAMMPR6IUIFQV4&a=IKYZ8&tp_a=IKYZ8&b=3ZY8KE4ISKPFVLNQIAMMPR6IUIFQV4&tp_b=3ZY8KE4ISKPFVLNQIAMMPR6IUIFQV4&c=365198&tp_c=365198"},{"rt":9002,"stimulus":"\n        <h3>Please read this consent agreement carefully before deciding whether to participate in this experiment.</h3>\n        <p><b>Purpose of the research:</b> To examine how people teach effectively.</p>\n        <p><b>What you will do in this research:</b> You will teach students the weights of different coins.</p>\n        <p><b>Time required:</b> This experiment will take 45 minutes to complete.</p>\n        <p><b>Risks:</b> There are no anticipated risks associated with participating in this study.             The effects of participating should be comparable to those you would experience from viewing a computer monitor             and using a mouse and keyboard for the duration of the experiment.</p>\n        <p><b>Benefits:</b> The study provides important information about the nature of teaching.</p>\n        <p><b>Compensation:</b> You will receive <b>$8</b> for completing the experiment and a performance bonus of up to <b>$9</b>.</p>\n        <p><b>Confidentiality:</b> Your participation in this study will remain confidential.             No personally identifiable information will be associated with your data.             Your de-identified data may be shared with other researchers and used in future projects.</p>\n        <p><b>Participation and withdrawal:</b> Your participation in this study is completely voluntary and             you may refuse to participate or you may choose to withdraw at any time without penalty or loss of\n            benefits to which you are otherwise entitled.</p>\n        <p><b>How to contact the researcher:</b> If you have questions or concerns about your participation            or payment, or want to request a summary of research findings, please contact\n            Alicia Chen, aliciachen@college.harvard.edu.</p>\n        <p><b>Whom to contact about your rights in this research:</b> For questions, concerns, suggestions,             or complaints that have not been or cannot be addressed by the researcher, or to report             research-related harm, please contact the Committee on the Use of Human Subjects in Research at Harvard University,             1414 Massachusetts Avenue, Second Floor, Cambridge, MA 02138. Phone: 617-496-2847. Email: cuhs@fas.harvard.edu.</p>\n        ","response":0,"trial_type":"html-button-response","trial_index":1,"time_elapsed":11535,"internal_node_id":"0.0-1.0","params":{"nStudents":24,"maxFlips":30,"completionMinutes":45,"basePay":8,"maxBonus":9,"perTrialBonus":0.5,"perTrialBonusThreshold":0.1,"exampleCost":0.01},"classroomParams":{"A":{"a":1,"b":4},"B":{"a":4,"b":1},"C":{"a":2,"b":8},"D":{"a":8,"b":2}},"conditions":["nonSeqFull","nonSeqPartial","seqNoFeedback","seqFeedback"],"classroomPairings":[["A","B"],["C","D"]],"coinWeights":[0.2,0.5,0.8],"subjectId":"A2QTL039A5VV3I","assignmentId":"3ZY8KE4ISKPFVLNQIAMMPR6IUIFQV4","hitId":"3QGHA0EA0JM3KKNCY0PQRLYAHJ3BWH","url":"https://gershmanlab.com/experiments/alicia/teaching/experiment/?hitId=3QGHA0EA0JM3KKNCY0PQRLYAHJ3BWH&workerId=A2QTL039A5VV3I&assignmentId=3ZY8KE4ISKPFVLNQIAMMPR6IUIFQV4&a=IKYZ8&tp_a=IKYZ8&b=3ZY8KE4ISKPFVLNQIAMMPR6IUIFQV4&tp_b=3ZY8KE4ISKPFVLNQIAMMPR6IUIFQV4&c=365198&tp_c=365198"},{"view_history":[{"page_index":0,"viewing_time":193574},{"page_index":1,"viewing_time":9675},{"page_index":2,"viewing_time":13969},{"page_index":3,"viewing_time":7996},{"page_index":4,"viewing_time":4440},{"page_index":5,"viewing_time":31044},{"page_index":6,"viewing_time":12800}],"rt":273498,"trial_type":"instructions","trial_index":2,"time_elapsed":285035,"internal_node_id":"0.0-2.0-0.0","params":{"nStudents":24,"maxFlips":30,"completionMinutes":45,"basePay":8,"maxBonus":9,"perTrialBonus":0.5,"perTrialBonusThreshold":0.1,"exampleCost":0.01},"classroomParams":{"A":{"a":1,"b":4},"B":{"a":4,"b":1},"C":{"a":2,"b":8},"D":{"a":8,"b":2}},"conditions":["nonSeqFull","nonSeqPartial","seqNoFeedback","seqFeedback"],"classroomPairings":[["A","B"],["C","D"]],"coinWeights":[0.2,0.5,0.8],"subjectId":"A2QTL039A5VV3I","assignmentId":"3ZY8KE4ISKPFVLNQIAMMPR6IUIFQV4","hitId":"3QGHA0EA0JM3KKNCY0PQRLYAHJ3BWH","url":"https://gershmanlab.com/experiments/alicia/teaching/experiment/?hitId=3QGHA0EA0JM3KKNCY0PQRLYAHJ3BWH&workerId=A2QTL039A5VV3I&assignmentId=3ZY8KE4ISKPFVLNQIAMMPR6IUIFQV4&a=IKYZ8&tp_a=IKYZ8&b=3ZY8KE4ISKPFVLNQIAMMPR6IUIFQV4&tp_b=3ZY8KE4ISKPFVLNQIAMMPR6IUIFQV4&c=365198&tp_c=365198"},{"rt":154149,"response":{"Q0":"Students in different classrooms will have seen a different number of heads and tails before seeing the examples you select for them.","Q1":"By teaching efficiently and accurately/helpfully at the same time (because each example I give to the student costs money!).","Q2":"The coin lands heads 90% of the time.","Q3":"No, I will teach a <b>new</b> student each time.","Q4":"The students are also on the same alien planet as you, where coins can be unfair.","Q5":"Based on the student's second (and final) guess."},"question_order":[3,2,5,1,0,4],"trial_type":"survey-multi-choice","trial_index":3,"time_elapsed":439188,"internal_node_id":"0.0-2.0-1.0","params":{"nStudents":24,"maxFlips":30,"completionMinutes":45,"basePay":8,"maxBonus":9,"perTrialBonus":0.5,"perTrialBonusThreshold":0.1,"exampleCost":0.01},"classroomParams":{"A":{"a":1,"b":4},"B":{"a":4,"b":1},"C":{"a":2,"b":8},"D":{"a":8,"b":2}},"conditions":["nonSeqFull","nonSeqPartial","seqNoFeedback","seqFeedback"],"classroomPairings":[["A","B"],["C","D"]],"coinWeights":[0.2,0.5,0.8],"subjectId":"A2QTL039A5VV3I","assignmentId":"3ZY8KE4ISKPFVLNQIAMMPR6IUIFQV4","hitId":"3QGHA0EA0JM3KKNCY0PQRLYAHJ3BWH","url":"https://gershmanlab.com/experiments/alicia/teaching/experiment/?hitId=3QGHA0EA0JM3KKNCY0PQRLYAHJ3BWH&workerId=A2QTL039A5VV3I&assignmentId=3ZY8KE4ISKPFVLNQIAMMPR6IUIFQV4&a=IKYZ8&tp_a=IKYZ8&b=3ZY8KE4ISKPFVLNQIAMMPR6IUIFQV4&tp_b=3ZY8KE4ISKPFVLNQIAMMPR6IUIFQV4&c=365198&tp_c=365198","pass":true},{"rt":null,"stimulus":"<div style=\"font-size:30px;\">Congrats on passing the comprehension quiz! The experiment will begin in a few seconds.</div>","response":null,"trial_type":"html-keyboard-response","trial_index":4,"time_elapsed":442203,"internal_node_id":"0.0-3.0","params":{"nStudents":24,"maxFlips":30,"completionMinutes":45,"basePay":8,"maxBonus":9,"perTrialBonus":0.5,"perTrialBonusThreshold":0.1,"exampleCost":0.01},"classroomParams":{"A":{"a":1,"b":4},"B":{"a":4,"b":1},"C":{"a":2,"b":8},"D":{"a":8,"b":2}},"conditions":["nonSeqFull","nonSeqPartial","seqNoFeedback","seqFeedback"],"classroomPairings":[["A","B"],["C","D"]],"coinWeights":[0.2,0.5,0.8],"subjectId":"A2QTL039A5VV3I","assignmentId":"3ZY8KE4ISKPFVLNQIAMMPR6IUIFQV4","hitId":"3QGHA0EA0JM3KKNCY0PQRLYAHJ3BWH","url":"https://gershmanlab.com/experiments/alicia/teaching/experiment/?hitId=3QGHA0EA0JM3KKNCY0PQRLYAHJ3BWH&workerId=A2QTL039A5VV3I&assignmentId=3ZY8KE4ISKPFVLNQIAMMPR6IUIFQV4&a=IKYZ8&tp_a=IKYZ8&b=3ZY8KE4ISKPFVLNQIAMMPR6IUIFQV4&tp_b=3ZY8KE4ISKPFVLNQIAMMPR6IUIFQV4&c=365198&tp_c=365198"},{"rt":null,"stimulus":"<div style=\"font-size:50px;\">First student</div>","response":null,"trial_type":"html-keyboard-response","trial_index":5,"time_elapsed":445213,"internal_node_id":"0.0-4.0","params":{"nStudents":24,"maxFlips":30,"completionMinutes":45,"basePay":8,"maxBonus":9,"perTrialBonus":0.5,"perTrialBonusThreshold":0.1,"exampleCost":0.01},"classroomParams":{"A":{"a":1,"b":4},"B":{"a":4,"b":1},"C":{"a":2,"b":8},"D":{"a":8,"b":2}},"conditions":["nonSeqFull","nonSeqPartial","seqNoFeedback","seqFeedback"],"classroomPairings":[["A","B"],["C","D"]],"coinWeights":[0.2,0.5,0.8],"subjectId":"A2QTL039A5VV3I","assignmentId":"3ZY8KE4ISKPFVLNQIAMMPR6IUIFQV4","hitId":"3QGHA0EA0JM3KKNCY0PQRLYAHJ3BWH","url":"https://gershmanlab.com/experiments/alicia/teaching/experiment/?hitId=3QGHA0EA0JM3KKNCY0PQRLYAHJ3BWH&workerId=A2QTL039A5VV3I&assignmentId=3ZY8KE4ISKPFVLNQIAMMPR6IUIFQV4&a=IKYZ8&tp_a=IKYZ8&b=3ZY8KE4ISKPFVLNQIAMMPR6IUIFQV4&tp_b=3ZY8KE4ISKPFVLNQIAMMPR6IUIFQV4&c=365198&tp_c=365198"},{"rt":22272,"stimulus":"\n            <h4 style=\"color:Orange;\">Student 1</h4>\n            <h2>The weight of your coin is <b style=\"color:Tomato;\">0.8</b>.</h2>\n            <p>In this block, you will be giving <b>two</b> sets of examples to Student 1.</p>\n                <p>You will see the student's guess after the first set of examples. You will also receive feedback at the end of the block.</p>\n            ","response":0,"trial_type":"html-button-response","trial_index":6,"time_elapsed":467487,"internal_node_id":"0.0-5.0","params":{"nStudents":24,"maxFlips":30,"completionMinutes":45,"basePay":8,"maxBonus":9,"perTrialBonus":0.5,"perTrialBonusThreshold":0.1,"exampleCost":0.01},"classroomParams":{"A":{"a":1,"b":4},"B":{"a":4,"b":1},"C":{"a":2,"b":8},"D":{"a":8,"b":2}},"conditions":["nonSeqFull","nonSeqPartial","seqNoFeedback","seqFeedback"],"classroomPairings":[["A","B"],["C","D"]],"coinWeights":[0.2,0.5,0.8],"subjectId":"A2QTL039A5VV3I","assignmentId":"3ZY8KE4ISKPFVLNQIAMMPR6IUIFQV4","hitId":"3QGHA0EA0JM3KKNCY0PQRLYAHJ3BWH","url":"https://gershmanlab.com/experiments/alicia/teaching/experiment/?hitId=3QGHA0EA0JM3KKNCY0PQRLYAHJ3BWH&workerId=A2QTL039A5VV3I&assignmentId=3ZY8KE4ISKPFVLNQIAMMPR6IUIFQV4&a=IKYZ8&tp_a=IKYZ8&b=3ZY8KE4ISKPFVLNQIAMMPR6IUIFQV4&tp_b=3ZY8KE4ISKPFVLNQIAMMPR6IUIFQV4&c=365198&tp_c=365198"},{"rt":24058,"response":{"heads":"8","tails":"2"},"type":"response","condition":"seqFeedback","trueTheta":0.8,"classrooms":["C","D"],"studentTrueClassroom":"D","exampleSet":"first","trial_type":"survey-html-form","trial_index":7,"time_elapsed":491547,"internal_node_id":"0.0-6.0-0.0","params":{"nStudents":24,"maxFlips":30,"completionMinutes":45,"basePay":8,"maxBonus":9,"perTrialBonus":0.5,"perTrialBonusThreshold":0.1,"exampleCost":0.01},"classroomParams":{"A":{"a":1,"b":4},"B":{"a":4,"b":1},"C":{"a":2,"b":8},"D":{"a":8,"b":2}},"conditions":["nonSeqFull","nonSeqPartial","seqNoFeedback","seqFeedback"],"classroomPairings":[["A","B"],["C","D"]],"coinWeights":[0.2,0.5,0.8],"subjectId":"A2QTL039A5VV3I","assignmentId":"3ZY8KE4ISKPFVLNQIAMMPR6IUIFQV4","hitId":"3QGHA0EA0JM3KKNCY0PQRLYAHJ3BWH","url":"https://gershmanlab.com/experiments/alicia/teaching/experiment/?hitId=3QGHA0EA0JM3KKNCY0PQRLYAHJ3BWH&workerId=A2QTL039A5VV3I&assignmentId=3ZY8KE4ISKPFVLNQIAMMPR6IUIFQV4&a=IKYZ8&tp_a=IKYZ8&b=3ZY8KE4ISKPFVLNQIAMMPR6IUIFQV4&tp_b=3ZY8KE4ISKPFVLNQIAMMPR6IUIFQV4&c=365198&tp_c=365198","heads":8,"tails":2,"studentIndex":0,"studentTrueHypers":{"a":8,"b":2},"studentGuess":0.8,"delta":0,"totalExamples":10,"bonusSoFar":0},{"rt":null,"stimulus":"Sending examples to student... ","response":null,"trial_type":"html-keyboard-response","trial_index":8,"time_elapsed":493300,"internal_node_id":"0.0-7.0","params":{"nStudents":24,"maxFlips":30,"completionMinutes":45,"basePay":8,"maxBonus":9,"perTrialBonus":0.5,"perTrialBonusThreshold":0.1,"exampleCost":0.01},"classroomParams":{"A":{"a":1,"b":4},"B":{"a":4,"b":1},"C":{"a":2,"b":8},"D":{"a":8,"b":2}},"conditions":["nonSeqFull","nonSeqPartial","seqNoFeedback","seqFeedback"],"classroomPairings":[["A","B"],["C","D"]],"coinWeights":[0.2,0.5,0.8],"subjectId":"A2QTL039A5VV3I","assignmentId":"3ZY8KE4ISKPFVLNQIAMMPR6IUIFQV4","hitId":"3QGHA0EA0JM3KKNCY0PQRLYAHJ3BWH","url":"https://gershmanlab.com/experiments/alicia/teaching/experiment/?hitId=3QGHA0EA0JM3KKNCY0PQRLYAHJ3BWH&workerId=A2QTL039A5VV3I&assignmentId=3ZY8KE4ISKPFVLNQIAMMPR6IUIFQV4&a=IKYZ8&tp_a=IKYZ8&b=3ZY8KE4ISKPFVLNQIAMMPR6IUIFQV4&tp_b=3ZY8KE4ISKPFVLNQIAMMPR6IUIFQV4&c=365198&tp_c=365198"},{"rt":null,"stimulus":"Examples sent to student! Waiting for student...","response":null,"trial_type":"html-keyboard-response","trial_index":9,"time_elapsed":497312,"internal_node_id":"0.0-8.0","params":{"nStudents":24,"maxFlips":30,"completionMinutes":45,"basePay":8,"maxBonus":9,"perTrialBonus":0.5,"perTrialBonusThreshold":0.1,"exampleCost":0.01},"classroomParams":{"A":{"a":1,"b":4},"B":{"a":4,"b":1},"C":{"a":2,"b":8},"D":{"a":8,"b":2}},"conditions":["nonSeqFull","nonSeqPartial","seqNoFeedback","seqFeedback"],"classroomPairings":[["A","B"],["C","D"]],"coinWeights":[0.2,0.5,0.8],"subjectId":"A2QTL039A5VV3I","assignmentId":"3ZY8KE4ISKPFVLNQIAMMPR6IUIFQV4","hitId":"3QGHA0EA0JM3KKNCY0PQRLYAHJ3BWH","url":"https://gershmanlab.com/experiments/alicia/teaching/experiment/?hitId=3QGHA0EA0JM3KKNCY0PQRLYAHJ3BWH&workerId=A2QTL039A5VV3I&assignmentId=3ZY8KE4ISKPFVLNQIAMMPR6IUIFQV4&a=IKYZ8&tp_a=IKYZ8&b=3ZY8KE4ISKPFVLNQIAMMPR6IUIFQV4&tp_b=3ZY8KE4ISKPFVLNQIAMMPR6IUIFQV4&c=365198&tp_c=365198"},{"rt":null,"stimulus":"\n                <p>Student's guess for coin weight: <b style=\"color:Tomato;\">0.80</b></p>\n                <p></b></p>\n                <p>You will now send another set of examples to your student. Press any key to continue.</p>\n                ","response":null,"trial_type":"html-keyboard-response","trial_index":10,"time_elapsed":527319,"internal_node_id":"0.0-9.0","params":{"nStudents":24,"maxFlips":30,"completionMinutes":45,"basePay":8,"maxBonus":9,"perTrialBonus":0.5,"perTrialBonusThreshold":0.1,"exampleCost":0.01},"classroomParams":{"A":{"a":1,"b":4},"B":{"a":4,"b":1},"C":{"a":2,"b":8},"D":{"a":8,"b":2}},"conditions":["nonSeqFull","nonSeqPartial","seqNoFeedback","seqFeedback"],"classroomPairings":[["A","B"],["C","D"]],"coinWeights":[0.2,0.5,0.8],"subjectId":"A2QTL039A5VV3I","assignmentId":"3ZY8KE4ISKPFVLNQIAMMPR6IUIFQV4","hitId":"3QGHA0EA0JM3KKNCY0PQRLYAHJ3BWH","url":"https://gershmanlab.com/experiments/alicia/teaching/experiment/?hitId=3QGHA0EA0JM3KKNCY0PQRLYAHJ3BWH&workerId=A2QTL039A5VV3I&assignmentId=3ZY8KE4ISKPFVLNQIAMMPR6IUIFQV4&a=IKYZ8&tp_a=IKYZ8&b=3ZY8KE4ISKPFVLNQIAMMPR6IUIFQV4&tp_b=3ZY8KE4ISKPFVLNQIAMMPR6IUIFQV4&c=365198&tp_c=365198"},{"rt":33881,"response":{"heads":"0","tails":"0"},"type":"response","condition":"seqFeedback","trueTheta":0.8,"classrooms":["C","D"],"studentTrueClassroom":"D","exampleSet":"second","trial_type":"survey-html-form","trial_index":11,"time_elapsed":561203,"internal_node_id":"0.0-10.0-0.0","params":{"nStudents":24,"maxFlips":30,"completionMinutes":45,"basePay":8,"maxBonus":9,"perTrialBonus":0.5,"perTrialBonusThreshold":0.1,"exampleCost":0.01},"classroomParams":{"A":{"a":1,"b":4},"B":{"a":4,"b":1},"C":{"a":2,"b":8},"D":{"a":8,"b":2}},"conditions":["nonSeqFull","nonSeqPartial","seqNoFeedback","seqFeedback"],"classroomPairings":[["A","B"],["C","D"]],"coinWeights":[0.2,0.5,0.8],"subjectId":"A2QTL039A5VV3I","assignmentId":"3ZY8KE4ISKPFVLNQIAMMPR6IUIFQV4","hitId":"3QGHA0EA0JM3KKNCY0PQRLYAHJ3BWH","url":"https://gershmanlab.com/experiments/alicia/teaching/experiment/?hitId=3QGHA0EA0JM3KKNCY0PQRLYAHJ3BWH&workerId=A2QTL039A5VV3I&assignmentId=3ZY8KE4ISKPFVLNQIAMMPR6IUIFQV4&a=IKYZ8&tp_a=IKYZ8&b=3ZY8KE4ISKPFVLNQIAMMPR6IUIFQV4&tp_b=3ZY8KE4ISKPFVLNQIAMMPR6IUIFQV4&c=365198&tp_c=365198","firstResponseHeads":8,"firstResponseTails":2,"secondResponseHeads":0,"secondResponseTails":0,"studentIndex":0,"studentTrueHypers":{"a":8,"b":2},"studentGuess":0.8,"delta":0,"bonus":0.4,"bonusSoFar":0.4,"totalExamples":10},{"rt":4137,"response":{"heads":"0","tails":"0"},"type":"response","condition":"seqFeedback","trueTheta":0.8,"classrooms":["C","D"],"studentTrueClassroom":"D","exampleSet":"second","trial_type":"survey-html-form","trial_index":12,"time_elapsed":565343,"internal_node_id":"0.0-10.1-0.1","params":{"nStudents":24,"maxFlips":30,"completionMinutes":45,"basePay":8,"maxBonus":9,"perTrialBonus":0.5,"perTrialBonusThreshold":0.1,"exampleCost":0.01},"classroomParams":{"A":{"a":1,"b":4},"B":{"a":4,"b":1},"C":{"a":2,"b":8},"D":{"a":8,"b":2}},"conditions":["nonSeqFull","nonSeqPartial","seqNoFeedback","seqFeedback"],"classroomPairings":[["A","B"],["C","D"]],"coinWeights":[0.2,0.5,0.8],"subjectId":"A2QTL039A5VV3I","assignmentId":"3ZY8KE4ISKPFVLNQIAMMPR6IUIFQV4","hitId":"3QGHA0EA0JM3KKNCY0PQRLYAHJ3BWH","url":"https://gershmanlab.com/experiments/alicia/teaching/experiment/?hitId=3QGHA0EA0JM3KKNCY0PQRLYAHJ3BWH&workerId=A2QTL039A5VV3I&assignmentId=3ZY8KE4ISKPFVLNQIAMMPR6IUIFQV4&a=IKYZ8&tp_a=IKYZ8&b=3ZY8KE4ISKPFVLNQIAMMPR6IUIFQV4&tp_b=3ZY8KE4ISKPFVLNQIAMMPR6IUIFQV4&c=365198&tp_c=365198","firstResponseHeads":8,"firstResponseTails":2,"secondResponseHeads":0,"secondResponseTails":0,"studentIndex":0,"studentTrueHypers":{"a":8,"b":2},"studentGuess":0.8,"delta":0,"bonus":0.4,"bonusSoFar":0.8,"totalExamples":10},{"rt":4311,"response":{"heads":"4","tails":"1"},"type":"response","condition":"seqFeedback","trueTheta":0.8,"classrooms":["C","D"],"studentTrueClassroom":"D","exampleSet":"second","trial_type":"survey-html-form","trial_index":13,"time_elapsed":569656,"internal_node_id":"0.0-10.2-0.2","params":{"nStudents":24,"maxFlips":30,"completionMinutes":45,"basePay":8,"maxBonus":9,"perTrialBonus":0.5,"perTrialBonusThreshold":0.1,"exampleCost":0.01},"classroomParams":{"A":{"a":1,"b":4},"B":{"a":4,"b":1},"C":{"a":2,"b":8},"D":{"a":8,"b":2}},"conditions":["nonSeqFull","nonSeqPartial","seqNoFeedback","seqFeedback"],"classroomPairings":[["A","B"],["C","D"]],"coinWeights":[0.2,0.5,0.8],"subjectId":"A2QTL039A5VV3I","assignmentId":"3ZY8KE4ISKPFVLNQIAMMPR6IUIFQV4","hitId":"3QGHA0EA0JM3KKNCY0PQRLYAHJ3BWH","url":"https://gershmanlab.com/experiments/alicia/teaching/experiment/?hitId=3QGHA0EA0JM3KKNCY0PQRLYAHJ3BWH&workerId=A2QTL039A5VV3I&assignmentId=3ZY8KE4ISKPFVLNQIAMMPR6IUIFQV4&a=IKYZ8&tp_a=IKYZ8&b=3ZY8KE4ISKPFVLNQIAMMPR6IUIFQV4&tp_b=3ZY8KE4ISKPFVLNQIAMMPR6IUIFQV4&c=365198&tp_c=365198","firstResponseHeads":8,"firstResponseTails":2,"secondResponseHeads":4,"secondResponseTails":1,"studentIndex":0,"studentTrueHypers":{"a":8,"b":2},"studentGuess":0.8,"delta":0,"bonus":0.35,"bonusSoFar":1.15,"totalExamples":15},{"rt":null,"stimulus":"Sending examples to student... ","response":null,"trial_type":"html-keyboard-response","trial_index":14,"time_elapsed":571662,"internal_node_id":"0.0-11.0","params":{"nStudents":24,"maxFlips":30,"completionMinutes":45,"basePay":8,"maxBonus":9,"perTrialBonus":0.5,"perTrialBonusThreshold":0.1,"exampleCost":0.01},"classroomParams":{"A":{"a":1,"b":4},"B":{"a":4,"b":1},"C":{"a":2,"b":8},"D":{"a":8,"b":2}},"conditions":["nonSeqFull","nonSeqPartial","seqNoFeedback","seqFeedback"],"classroomPairings":[["A","B"],["C","D"]],"coinWeights":[0.2,0.5,0.8],"subjectId":"A2QTL039A5VV3I","assignmentId":"3ZY8KE4ISKPFVLNQIAMMPR6IUIFQV4","hitId":"3QGHA0EA0JM3KKNCY0PQRLYAHJ3BWH","url":"https://gershmanlab.com/experiments/alicia/teaching/experiment/?hitId=3QGHA0EA0JM3KKNCY0PQRLYAHJ3BWH&workerId=A2QTL039A5VV3I&assignmentId=3ZY8KE4ISKPFVLNQIAMMPR6IUIFQV4&a=IKYZ8&tp_a=IKYZ8&b=3ZY8KE4ISKPFVLNQIAMMPR6IUIFQV4&tp_b=3ZY8KE4ISKPFVLNQIAMMPR6IUIFQV4&c=365198&tp_c=365198"},{"rt":null,"stimulus":"Examples sent to student! Waiting for student...","response":null,"trial_type":"html-keyboard-response","trial_index":15,"time_elapsed":576179,"internal_node_id":"0.0-12.0","params":{"nStudents":24,"maxFlips":30,"completionMinutes":45,"basePay":8,"maxBonus":9,"perTrialBonus":0.5,"perTrialBonusThreshold":0.1,"exampleCost":0.01},"classroomParams":{"A":{"a":1,"b":4},"B":{"a":4,"b":1},"C":{"a":2,"b":8},"D":{"a":8,"b":2}},"conditions":["nonSeqFull","nonSeqPartial","seqNoFeedback","seqFeedback"],"classroomPairings":[["A","B"],["C","D"]],"coinWeights":[0.2,0.5,0.8],"subjectId":"A2QTL039A5VV3I","assignmentId":"3ZY8KE4ISKPFVLNQIAMMPR6IUIFQV4","hitId":"3QGHA0EA0JM3KKNCY0PQRLYAHJ3BWH","url":"https://gershmanlab.com/experiments/alicia/teaching/experiment/?hitId=3QGHA0EA0JM3KKNCY0PQRLYAHJ3BWH&workerId=A2QTL039A5VV3I&assignmentId=3ZY8KE4ISKPFVLNQIAMMPR6IUIFQV4&a=IKYZ8&tp_a=IKYZ8&b=3ZY8KE4ISKPFVLNQIAMMPR6IUIFQV4&tp_b=3ZY8KE4ISKPFVLNQIAMMPR6IUIFQV4&c=365198&tp_c=365198"},{"rt":8369,"stimulus":"\n                <p>Student 1's first guess for coin weight: <b style=\"color:Tomato\";>0.80</b></p>\n                <p>Student 1's second guess for coin weight: <b style=\"color:Tomato\";>0.80</b></p>\n                <p>You received a bonus of <b>$0.40</b> based on the student's second guess.</p>\n                <p>Total bonus so far: <b>$1.15</b></p>\n                <p>Press any key to continue.</p>\n                ","response":" ","trial_type":"html-keyboard-response","trial_index":16,"time_elapsed":584553,"internal_node_id":"0.0-13.0","params":{"nStudents":24,"maxFlips":30,"completionMinutes":45,"basePay":8,"maxBonus":9,"perTrialBonus":0.5,"perTrialBonusThreshold":0.1,"exampleCost":0.01},"classroomParams":{"A":{"a":1,"b":4},"B":{"a":4,"b":1},"C":{"a":2,"b":8},"D":{"a":8,"b":2}},"conditions":["nonSeqFull","nonSeqPartial","seqNoFeedback","seqFeedback"],"classroomPairings":[["A","B"],["C","D"]],"coinWeights":[0.2,0.5,0.8],"subjectId":"A2QTL039A5VV3I","assignmentId":"3ZY8KE4ISKPFVLNQIAMMPR6IUIFQV4","hitId":"3QGHA0EA0JM3KKNCY0PQRLYAHJ3BWH","url":"https://gershmanlab.com/experiments/alicia/teaching/experiment/?hitId=3QGHA0EA0JM3KKNCY0PQRLYAHJ3BWH&workerId=A2QTL039A5VV3I&assignmentId=3ZY8KE4ISKPFVLNQIAMMPR6IUIFQV4&a=IKYZ8&tp_a=IKYZ8&b=3ZY8KE4ISKPFVLNQIAMMPR6IUIFQV4&tp_b=3ZY8KE4ISKPFVLNQIAMMPR6IUIFQV4&c=365198&tp_c=365198"},{"rt":null,"stimulus":"<div style=\"font-size:60px;\">Next student</div>","response":null,"trial_type":"html-keyboard-response","trial_index":17,"time_elapsed":586811,"internal_node_id":"0.0-14.0-0.0","params":{"nStudents":24,"maxFlips":30,"completionMinutes":45,"basePay":8,"maxBonus":9,"perTrialBonus":0.5,"perTrialBonusThreshold":0.1,"exampleCost":0.01},"classroomParams":{"A":{"a":1,"b":4},"B":{"a":4,"b":1},"C":{"a":2,"b":8},"D":{"a":8,"b":2}},"conditions":["nonSeqFull","nonSeqPartial","seqNoFeedback","seqFeedback"],"classroomPairings":[["A","B"],["C","D"]],"coinWeights":[0.2,0.5,0.8],"subjectId":"A2QTL039A5VV3I","assignmentId":"3ZY8KE4ISKPFVLNQIAMMPR6IUIFQV4","hitId":"3QGHA0EA0JM3KKNCY0PQRLYAHJ3BWH","url":"https://gershmanlab.com/experiments/alicia/teaching/experiment/?hitId=3QGHA0EA0JM3KKNCY0PQRLYAHJ3BWH&workerId=A2QTL039A5VV3I&assignmentId=3ZY8KE4ISKPFVLNQIAMMPR6IUIFQV4&a=IKYZ8&tp_a=IKYZ8&b=3ZY8KE4ISKPFVLNQIAMMPR6IUIFQV4&tp_b=3ZY8KE4ISKPFVLNQIAMMPR6IUIFQV4&c=365198&tp_c=365198"},{"rt":4058,"stimulus":"\n            <h4 style=\"color:Orange;\">Student 2</h4>\n            <h2>The weight of your coin is <b style=\"color:Tomato;\">0.2</b>.</h2>\n            <p>In this block, you will be giving <b>one</b> set of examples to Student 2.</p>\n                <p>You will receive feedback at the end of the block.</p>\n            ","response":0,"trial_type":"html-button-response","trial_index":18,"time_elapsed":590873,"internal_node_id":"0.0-15.0","params":{"nStudents":24,"maxFlips":30,"completionMinutes":45,"basePay":8,"maxBonus":9,"perTrialBonus":0.5,"perTrialBonusThreshold":0.1,"exampleCost":0.01},"classroomParams":{"A":{"a":1,"b":4},"B":{"a":4,"b":1},"C":{"a":2,"b":8},"D":{"a":8,"b":2}},"conditions":["nonSeqFull","nonSeqPartial","seqNoFeedback","seqFeedback"],"classroomPairings":[["A","B"],["C","D"]],"coinWeights":[0.2,0.5,0.8],"subjectId":"A2QTL039A5VV3I","assignmentId":"3ZY8KE4ISKPFVLNQIAMMPR6IUIFQV4","hitId":"3QGHA0EA0JM3KKNCY0PQRLYAHJ3BWH","url":"https://gershmanlab.com/experiments/alicia/teaching/experiment/?hitId=3QGHA0EA0JM3KKNCY0PQRLYAHJ3BWH&workerId=A2QTL039A5VV3I&assignmentId=3ZY8KE4ISKPFVLNQIAMMPR6IUIFQV4&a=IKYZ8&tp_a=IKYZ8&b=3ZY8KE4ISKPFVLNQIAMMPR6IUIFQV4&tp_b=3ZY8KE4ISKPFVLNQIAMMPR6IUIFQV4&c=365198&tp_c=365198"},{"rt":5117,"response":{"heads":"1","tails":"4"},"type":"response","condition":"nonSeqFull","trueTheta":0.2,"classrooms":["A","B"],"studentTrueClassroom":"B","exampleSet":"first","trial_type":"survey-html-form","trial_index":19,"time_elapsed":595992,"internal_node_id":"0.0-16.0-0.0","params":{"nStudents":24,"maxFlips":30,"completionMinutes":45,"basePay":8,"maxBonus":9,"perTrialBonus":0.5,"perTrialBonusThreshold":0.1,"exampleCost":0.01},"classroomParams":{"A":{"a":1,"b":4},"B":{"a":4,"b":1},"C":{"a":2,"b":8},"D":{"a":8,"b":2}},"conditions":["nonSeqFull","nonSeqPartial","seqNoFeedback","seqFeedback"],"classroomPairings":[["A","B"],["C","D"]],"coinWeights":[0.2,0.5,0.8],"subjectId":"A2QTL039A5VV3I","assignmentId":"3ZY8KE4ISKPFVLNQIAMMPR6IUIFQV4","hitId":"3QGHA0EA0JM3KKNCY0PQRLYAHJ3BWH","url":"https://gershmanlab.com/experiments/alicia/teaching/experiment/?hitId=3QGHA0EA0JM3KKNCY0PQRLYAHJ3BWH&workerId=A2QTL039A5VV3I&assignmentId=3ZY8KE4ISKPFVLNQIAMMPR6IUIFQV4&a=IKYZ8&tp_a=IKYZ8&b=3ZY8KE4ISKPFVLNQIAMMPR6IUIFQV4&tp_b=3ZY8KE4ISKPFVLNQIAMMPR6IUIFQV4&c=365198&tp_c=365198","heads":1,"tails":4,"studentIndex":1,"studentTrueHypers":{"a":4,"b":1},"studentGuess":0.5,"delta":0.3,"totalExamples":5,"bonus":0,"bonusSoFar":1.15},{"rt":null,"stimulus":"Sending examples to student... ","response":null,"trial_type":"html-keyboard-response","trial_index":20,"time_elapsed":597500,"internal_node_id":"0.0-17.0","params":{"nStudents":24,"maxFlips":30,"completionMinutes":45,"basePay":8,"maxBonus":9,"perTrialBonus":0.5,"perTrialBonusThreshold":0.1,"exampleCost":0.01},"classroomParams":{"A":{"a":1,"b":4},"B":{"a":4,"b":1},"C":{"a":2,"b":8},"D":{"a":8,"b":2}},"conditions":["nonSeqFull","nonSeqPartial","seqNoFeedback","seqFeedback"],"classroomPairings":[["A","B"],["C","D"]],"coinWeights":[0.2,0.5,0.8],"subjectId":"A2QTL039A5VV3I","assignmentId":"3ZY8KE4ISKPFVLNQIAMMPR6IUIFQV4","hitId":"3QGHA0EA0JM3KKNCY0PQRLYAHJ3BWH","url":"https://gershmanlab.com/experiments/alicia/teaching/experiment/?hitId=3QGHA0EA0JM3KKNCY0PQRLYAHJ3BWH&workerId=A2QTL039A5VV3I&assignmentId=3ZY8KE4ISKPFVLNQIAMMPR6IUIFQV4&a=IKYZ8&tp_a=IKYZ8&b=3ZY8KE4ISKPFVLNQIAMMPR6IUIFQV4&tp_b=3ZY8KE4ISKPFVLNQIAMMPR6IUIFQV4&c=365198&tp_c=365198"},{"rt":null,"stimulus":"Examples sent to student! Waiting for student...","response":null,"trial_type":"html-keyboard-response","trial_index":21,"time_elapsed":603505,"internal_node_id":"0.0-18.0","params":{"nStudents":24,"maxFlips":30,"completionMinutes":45,"basePay":8,"maxBonus":9,"perTrialBonus":0.5,"perTrialBonusThreshold":0.1,"exampleCost":0.01},"classroomParams":{"A":{"a":1,"b":4},"B":{"a":4,"b":1},"C":{"a":2,"b":8},"D":{"a":8,"b":2}},"conditions":["nonSeqFull","nonSeqPartial","seqNoFeedback","seqFeedback"],"classroomPairings":[["A","B"],["C","D"]],"coinWeights":[0.2,0.5,0.8],"subjectId":"A2QTL039A5VV3I","assignmentId":"3ZY8KE4ISKPFVLNQIAMMPR6IUIFQV4","hitId":"3QGHA0EA0JM3KKNCY0PQRLYAHJ3BWH","url":"https://gershmanlab.com/experiments/alicia/teaching/experiment/?hitId=3QGHA0EA0JM3KKNCY0PQRLYAHJ3BWH&workerId=A2QTL039A5VV3I&assignmentId=3ZY8KE4ISKPFVLNQIAMMPR6IUIFQV4&a=IKYZ8&tp_a=IKYZ8&b=3ZY8KE4ISKPFVLNQIAMMPR6IUIFQV4&tp_b=3ZY8KE4ISKPFVLNQIAMMPR6IUIFQV4&c=365198&tp_c=365198"},{"rt":9026,"stimulus":"\n                <p>Student's guess for coin weight: <b style=\"color:Tomato;\">0.50</b></p>\n                <p>You received a bonus of <b>$0</b>. Total bonus so far: <b>$1.15</b></b></p>\n                <p> Press any key to continue.</p>\n                ","response":"s","trial_type":"html-keyboard-response","trial_index":22,"time_elapsed":612533,"internal_node_id":"0.0-19.0","params":{"nStudents":24,"maxFlips":30,"completionMinutes":45,"basePay":8,"maxBonus":9,"perTrialBonus":0.5,"perTrialBonusThreshold":0.1,"exampleCost":0.01},"classroomParams":{"A":{"a":1,"b":4},"B":{"a":4,"b":1},"C":{"a":2,"b":8},"D":{"a":8,"b":2}},"conditions":["nonSeqFull","nonSeqPartial","seqNoFeedback","seqFeedback"],"classroomPairings":[["A","B"],["C","D"]],"coinWeights":[0.2,0.5,0.8],"subjectId":"A2QTL039A5VV3I","assignmentId":"3ZY8KE4ISKPFVLNQIAMMPR6IUIFQV4","hitId":"3QGHA0EA0JM3KKNCY0PQRLYAHJ3BWH","url":"https://gershmanlab.com/experiments/alicia/teaching/experiment/?hitId=3QGHA0EA0JM3KKNCY0PQRLYAHJ3BWH&workerId=A2QTL039A5VV3I&assignmentId=3ZY8KE4ISKPFVLNQIAMMPR6IUIFQV4&a=IKYZ8&tp_a=IKYZ8&b=3ZY8KE4ISKPFVLNQIAMMPR6IUIFQV4&tp_b=3ZY8KE4ISKPFVLNQIAMMPR6IUIFQV4&c=365198&tp_c=365198"},{"rt":null,"stimulus":"<div style=\"font-size:60px;\">Next student</div>","response":null,"trial_type":"html-keyboard-response","trial_index":23,"time_elapsed":614790,"internal_node_id":"0.0-20.0-0.0","params":{"nStudents":24,"maxFlips":30,"completionMinutes":45,"basePay":8,"maxBonus":9,"perTrialBonus":0.5,"perTrialBonusThreshold":0.1,"exampleCost":0.01},"classroomParams":{"A":{"a":1,"b":4},"B":{"a":4,"b":1},"C":{"a":2,"b":8},"D":{"a":8,"b":2}},"conditions":["nonSeqFull","nonSeqPartial","seqNoFeedback","seqFeedback"],"classroomPairings":[["A","B"],["C","D"]],"coinWeights":[0.2,0.5,0.8],"subjectId":"A2QTL039A5VV3I","assignmentId":"3ZY8KE4ISKPFVLNQIAMMPR6IUIFQV4","hitId":"3QGHA0EA0JM3KKNCY0PQRLYAHJ3BWH","url":"https://gershmanlab.com/experiments/alicia/teaching/experiment/?hitId=3QGHA0EA0JM3KKNCY0PQRLYAHJ3BWH&workerId=A2QTL039A5VV3I&assignmentId=3ZY8KE4ISKPFVLNQIAMMPR6IUIFQV4&a=IKYZ8&tp_a=IKYZ8&b=3ZY8KE4ISKPFVLNQIAMMPR6IUIFQV4&tp_b=3ZY8KE4ISKPFVLNQIAMMPR6IUIFQV4&c=365198&tp_c=365198"},{"rt":2231,"stimulus":"\n            <h4 style=\"color:Orange;\">Student 3</h4>\n            <h2>The weight of your coin is <b style=\"color:Tomato;\">0.5</b>.</h2>\n            <p>In this block, you will be giving <b>one</b> set of examples to Student 3.</p>\n                <p>You will receive feedback at the end of the block.</p>\n            ","response":0,"trial_type":"html-button-response","trial_index":24,"time_elapsed":617023,"internal_node_id":"0.0-21.0","params":{"nStudents":24,"maxFlips":30,"completionMinutes":45,"basePay":8,"maxBonus":9,"perTrialBonus":0.5,"perTrialBonusThreshold":0.1,"exampleCost":0.01},"classroomParams":{"A":{"a":1,"b":4},"B":{"a":4,"b":1},"C":{"a":2,"b":8},"D":{"a":8,"b":2}},"conditions":["nonSeqFull","nonSeqPartial","seqNoFeedback","seqFeedback"],"classroomPairings":[["A","B"],["C","D"]],"coinWeights":[0.2,0.5,0.8],"subjectId":"A2QTL039A5VV3I","assignmentId":"3ZY8KE4ISKPFVLNQIAMMPR6IUIFQV4","hitId":"3QGHA0EA0JM3KKNCY0PQRLYAHJ3BWH","url":"https://gershmanlab.com/experiments/alicia/teaching/experiment/?hitId=3QGHA0EA0JM3KKNCY0PQRLYAHJ3BWH&workerId=A2QTL039A5VV3I&assignmentId=3ZY8KE4ISKPFVLNQIAMMPR6IUIFQV4&a=IKYZ8&tp_a=IKYZ8&b=3ZY8KE4ISKPFVLNQIAMMPR6IUIFQV4&tp_b=3ZY8KE4ISKPFVLNQIAMMPR6IUIFQV4&c=365198&tp_c=365198"},{"rt":12038,"response":{"heads":"3","tails":"3"},"type":"response","condition":"nonSeqPartial","trueTheta":0.5,"classrooms":["C","D"],"studentTrueClassroom":"C","exampleSet":"first","trial_type":"survey-html-form","trial_index":25,"time_elapsed":629064,"internal_node_id":"0.0-22.0-0.0","params":{"nStudents":24,"maxFlips":30,"completionMinutes":45,"basePay":8,"maxBonus":9,"perTrialBonus":0.5,"perTrialBonusThreshold":0.1,"exampleCost":0.01},"classroomParams":{"A":{"a":1,"b":4},"B":{"a":4,"b":1},"C":{"a":2,"b":8},"D":{"a":8,"b":2}},"conditions":["nonSeqFull","nonSeqPartial","seqNoFeedback","seqFeedback"],"classroomPairings":[["A","B"],["C","D"]],"coinWeights":[0.2,0.5,0.8],"subjectId":"A2QTL039A5VV3I","assignmentId":"3ZY8KE4ISKPFVLNQIAMMPR6IUIFQV4","hitId":"3QGHA0EA0JM3KKNCY0PQRLYAHJ3BWH","url":"https://gershmanlab.com/experiments/alicia/teaching/experiment/?hitId=3QGHA0EA0JM3KKNCY0PQRLYAHJ3BWH&workerId=A2QTL039A5VV3I&assignmentId=3ZY8KE4ISKPFVLNQIAMMPR6IUIFQV4&a=IKYZ8&tp_a=IKYZ8&b=3ZY8KE4ISKPFVLNQIAMMPR6IUIFQV4&tp_b=3ZY8KE4ISKPFVLNQIAMMPR6IUIFQV4&c=365198&tp_c=365198","heads":3,"tails":3,"studentIndex":2,"studentTrueHypers":{"a":2,"b":8},"studentGuess":0.3125,"delta":0.1875,"totalExamples":6,"bonus":0,"bonusSoFar":1.15},{"rt":null,"stimulus":"Sending examples to student... ","response":null,"trial_type":"html-keyboard-response","trial_index":26,"time_elapsed":631066,"internal_node_id":"0.0-23.0","params":{"nStudents":24,"maxFlips":30,"completionMinutes":45,"basePay":8,"maxBonus":9,"perTrialBonus":0.5,"perTrialBonusThreshold":0.1,"exampleCost":0.01},"classroomParams":{"A":{"a":1,"b":4},"B":{"a":4,"b":1},"C":{"a":2,"b":8},"D":{"a":8,"b":2}},"conditions":["nonSeqFull","nonSeqPartial","seqNoFeedback","seqFeedback"],"classroomPairings":[["A","B"],["C","D"]],"coinWeights":[0.2,0.5,0.8],"subjectId":"A2QTL039A5VV3I","assignmentId":"3ZY8KE4ISKPFVLNQIAMMPR6IUIFQV4","hitId":"3QGHA0EA0JM3KKNCY0PQRLYAHJ3BWH","url":"https://gershmanlab.com/experiments/alicia/teaching/experiment/?hitId=3QGHA0EA0JM3KKNCY0PQRLYAHJ3BWH&workerId=A2QTL039A5VV3I&assignmentId=3ZY8KE4ISKPFVLNQIAMMPR6IUIFQV4&a=IKYZ8&tp_a=IKYZ8&b=3ZY8KE4ISKPFVLNQIAMMPR6IUIFQV4&tp_b=3ZY8KE4ISKPFVLNQIAMMPR6IUIFQV4&c=365198&tp_c=365198"},{"rt":null,"stimulus":"Examples sent to student! Waiting for student...","response":null,"trial_type":"html-keyboard-response","trial_index":27,"time_elapsed":636572,"internal_node_id":"0.0-24.0","params":{"nStudents":24,"maxFlips":30,"completionMinutes":45,"basePay":8,"maxBonus":9,"perTrialBonus":0.5,"perTrialBonusThreshold":0.1,"exampleCost":0.01},"classroomParams":{"A":{"a":1,"b":4},"B":{"a":4,"b":1},"C":{"a":2,"b":8},"D":{"a":8,"b":2}},"conditions":["nonSeqFull","nonSeqPartial","seqNoFeedback","seqFeedback"],"classroomPairings":[["A","B"],["C","D"]],"coinWeights":[0.2,0.5,0.8],"subjectId":"A2QTL039A5VV3I","assignmentId":"3ZY8KE4ISKPFVLNQIAMMPR6IUIFQV4","hitId":"3QGHA0EA0JM3KKNCY0PQRLYAHJ3BWH","url":"https://gershmanlab.com/experiments/alicia/teaching/experiment/?hitId=3QGHA0EA0JM3KKNCY0PQRLYAHJ3BWH&workerId=A2QTL039A5VV3I&assignmentId=3ZY8KE4ISKPFVLNQIAMMPR6IUIFQV4&a=IKYZ8&tp_a=IKYZ8&b=3ZY8KE4ISKPFVLNQIAMMPR6IUIFQV4&tp_b=3ZY8KE4ISKPFVLNQIAMMPR6IUIFQV4&c=365198&tp_c=365198"},{"rt":17823,"stimulus":"\n                <p>Student's guess for coin weight: <b style=\"color:Tomato;\">0.31</b></p>\n                <p>You received a bonus of <b>$0</b>. Total bonus so far: <b>$1.15</b></b></p>\n                <p> Press any key to continue.</p>\n                ","response":"enter","trial_type":"html-keyboard-response","trial_index":28,"time_elapsed":654393,"internal_node_id":"0.0-25.0","params":{"nStudents":24,"maxFlips":30,"completionMinutes":45,"basePay":8,"maxBonus":9,"perTrialBonus":0.5,"perTrialBonusThreshold":0.1,"exampleCost":0.01},"classroomParams":{"A":{"a":1,"b":4},"B":{"a":4,"b":1},"C":{"a":2,"b":8},"D":{"a":8,"b":2}},"conditions":["nonSeqFull","nonSeqPartial","seqNoFeedback","seqFeedback"],"classroomPairings":[["A","B"],["C","D"]],"coinWeights":[0.2,0.5,0.8],"subjectId":"A2QTL039A5VV3I","assignmentId":"3ZY8KE4ISKPFVLNQIAMMPR6IUIFQV4","hitId":"3QGHA0EA0JM3KKNCY0PQRLYAHJ3BWH","url":"https://gershmanlab.com/experiments/alicia/teaching/experiment/?hitId=3QGHA0EA0JM3KKNCY0PQRLYAHJ3BWH&workerId=A2QTL039A5VV3I&assignmentId=3ZY8KE4ISKPFVLNQIAMMPR6IUIFQV4&a=IKYZ8&tp_a=IKYZ8&b=3ZY8KE4ISKPFVLNQIAMMPR6IUIFQV4&tp_b=3ZY8KE4ISKPFVLNQIAMMPR6IUIFQV4&c=365198&tp_c=365198"},{"rt":null,"stimulus":"<div style=\"font-size:60px;\">Next student</div>","response":null,"trial_type":"html-keyboard-response","trial_index":29,"time_elapsed":656650,"internal_node_id":"0.0-26.0-0.0","params":{"nStudents":24,"maxFlips":30,"completionMinutes":45,"basePay":8,"maxBonus":9,"perTrialBonus":0.5,"perTrialBonusThreshold":0.1,"exampleCost":0.01},"classroomParams":{"A":{"a":1,"b":4},"B":{"a":4,"b":1},"C":{"a":2,"b":8},"D":{"a":8,"b":2}},"conditions":["nonSeqFull","nonSeqPartial","seqNoFeedback","seqFeedback"],"classroomPairings":[["A","B"],["C","D"]],"coinWeights":[0.2,0.5,0.8],"subjectId":"A2QTL039A5VV3I","assignmentId":"3ZY8KE4ISKPFVLNQIAMMPR6IUIFQV4","hitId":"3QGHA0EA0JM3KKNCY0PQRLYAHJ3BWH","url":"https://gershmanlab.com/experiments/alicia/teaching/experiment/?hitId=3QGHA0EA0JM3KKNCY0PQRLYAHJ3BWH&workerId=A2QTL039A5VV3I&assignmentId=3ZY8KE4ISKPFVLNQIAMMPR6IUIFQV4&a=IKYZ8&tp_a=IKYZ8&b=3ZY8KE4ISKPFVLNQIAMMPR6IUIFQV4&tp_b=3ZY8KE4ISKPFVLNQIAMMPR6IUIFQV4&c=365198&tp_c=365198"},{"rt":6125,"stimulus":"\n            <h4 style=\"color:Orange;\">Student 4</h4>\n            <h2>The weight of your coin is <b style=\"color:Tomato;\">0.2</b>.</h2>\n            <p>In this block, you will be giving <b>one</b> set of examples to Student 4.</p>\n                <p>You will receive feedback at the end of the block.</p>\n            ","response":0,"trial_type":"html-button-response","trial_index":30,"time_elapsed":662777,"internal_node_id":"0.0-27.0","params":{"nStudents":24,"maxFlips":30,"completionMinutes":45,"basePay":8,"maxBonus":9,"perTrialBonus":0.5,"perTrialBonusThreshold":0.1,"exampleCost":0.01},"classroomParams":{"A":{"a":1,"b":4},"B":{"a":4,"b":1},"C":{"a":2,"b":8},"D":{"a":8,"b":2}},"conditions":["nonSeqFull","nonSeqPartial","seqNoFeedback","seqFeedback"],"classroomPairings":[["A","B"],["C","D"]],"coinWeights":[0.2,0.5,0.8],"subjectId":"A2QTL039A5VV3I","assignmentId":"3ZY8KE4ISKPFVLNQIAMMPR6IUIFQV4","hitId":"3QGHA0EA0JM3KKNCY0PQRLYAHJ3BWH","url":"https://gershmanlab.com/experiments/alicia/teaching/experiment/?hitId=3QGHA0EA0JM3KKNCY0PQRLYAHJ3BWH&workerId=A2QTL039A5VV3I&assignmentId=3ZY8KE4ISKPFVLNQIAMMPR6IUIFQV4&a=IKYZ8&tp_a=IKYZ8&b=3ZY8KE4ISKPFVLNQIAMMPR6IUIFQV4&tp_b=3ZY8KE4ISKPFVLNQIAMMPR6IUIFQV4&c=365198&tp_c=365198"},{"rt":5601,"response":{"heads":"1","tails":"5"},"type":"response","condition":"nonSeqPartial","trueTheta":0.2,"classrooms":["C","D"],"studentTrueClassroom":"C","exampleSet":"first","trial_type":"survey-html-form","trial_index":31,"time_elapsed":668381,"internal_node_id":"0.0-28.0-0.0","params":{"nStudents":24,"maxFlips":30,"completionMinutes":45,"basePay":8,"maxBonus":9,"perTrialBonus":0.5,"perTrialBonusThreshold":0.1,"exampleCost":0.01},"classroomParams":{"A":{"a":1,"b":4},"B":{"a":4,"b":1},"C":{"a":2,"b":8},"D":{"a":8,"b":2}},"conditions":["nonSeqFull","nonSeqPartial","seqNoFeedback","seqFeedback"],"classroomPairings":[["A","B"],["C","D"]],"coinWeights":[0.2,0.5,0.8],"subjectId":"A2QTL039A5VV3I","assignmentId":"3ZY8KE4ISKPFVLNQIAMMPR6IUIFQV4","hitId":"3QGHA0EA0JM3KKNCY0PQRLYAHJ3BWH","url":"https://gershmanlab.com/experiments/alicia/teaching/experiment/?hitId=3QGHA0EA0JM3KKNCY0PQRLYAHJ3BWH&workerId=A2QTL039A5VV3I&assignmentId=3ZY8KE4ISKPFVLNQIAMMPR6IUIFQV4&a=IKYZ8&tp_a=IKYZ8&b=3ZY8KE4ISKPFVLNQIAMMPR6IUIFQV4&tp_b=3ZY8KE4ISKPFVLNQIAMMPR6IUIFQV4&c=365198&tp_c=365198","heads":1,"tails":5,"studentIndex":3,"studentTrueHypers":{"a":2,"b":8},"studentGuess":0.1875,"delta":0.012500000000000011,"totalExamples":6,"bonus":0.44,"bonusSoFar":1.59},{"rt":null,"stimulus":"Sending examples to student... ","response":null,"trial_type":"html-keyboard-response","trial_index":32,"time_elapsed":670137,"internal_node_id":"0.0-29.0","params":{"nStudents":24,"maxFlips":30,"completionMinutes":45,"basePay":8,"maxBonus":9,"perTrialBonus":0.5,"perTrialBonusThreshold":0.1,"exampleCost":0.01},"classroomParams":{"A":{"a":1,"b":4},"B":{"a":4,"b":1},"C":{"a":2,"b":8},"D":{"a":8,"b":2}},"conditions":["nonSeqFull","nonSeqPartial","seqNoFeedback","seqFeedback"],"classroomPairings":[["A","B"],["C","D"]],"coinWeights":[0.2,0.5,0.8],"subjectId":"A2QTL039A5VV3I","assignmentId":"3ZY8KE4ISKPFVLNQIAMMPR6IUIFQV4","hitId":"3QGHA0EA0JM3KKNCY0PQRLYAHJ3BWH","url":"https://gershmanlab.com/experiments/alicia/teaching/experiment/?hitId=3QGHA0EA0JM3KKNCY0PQRLYAHJ3BWH&workerId=A2QTL039A5VV3I&assignmentId=3ZY8KE4ISKPFVLNQIAMMPR6IUIFQV4&a=IKYZ8&tp_a=IKYZ8&b=3ZY8KE4ISKPFVLNQIAMMPR6IUIFQV4&tp_b=3ZY8KE4ISKPFVLNQIAMMPR6IUIFQV4&c=365198&tp_c=365198"},{"rt":null,"stimulus":"Examples sent to student! Waiting for student...","response":null,"trial_type":"html-keyboard-response","trial_index":33,"time_elapsed":676142,"internal_node_id":"0.0-30.0","params":{"nStudents":24,"maxFlips":30,"completionMinutes":45,"basePay":8,"maxBonus":9,"perTrialBonus":0.5,"perTrialBonusThreshold":0.1,"exampleCost":0.01},"classroomParams":{"A":{"a":1,"b":4},"B":{"a":4,"b":1},"C":{"a":2,"b":8},"D":{"a":8,"b":2}},"conditions":["nonSeqFull","nonSeqPartial","seqNoFeedback","seqFeedback"],"classroomPairings":[["A","B"],["C","D"]],"coinWeights":[0.2,0.5,0.8],"subjectId":"A2QTL039A5VV3I","assignmentId":"3ZY8KE4ISKPFVLNQIAMMPR6IUIFQV4","hitId":"3QGHA0EA0JM3KKNCY0PQRLYAHJ3BWH","url":"https://gershmanlab.com/experiments/alicia/teaching/experiment/?hitId=3QGHA0EA0JM3KKNCY0PQRLYAHJ3BWH&workerId=A2QTL039A5VV3I&assignmentId=3ZY8KE4ISKPFVLNQIAMMPR6IUIFQV4&a=IKYZ8&tp_a=IKYZ8&b=3ZY8KE4ISKPFVLNQIAMMPR6IUIFQV4&tp_b=3ZY8KE4ISKPFVLNQIAMMPR6IUIFQV4&c=365198&tp_c=365198"},{"rt":2249,"stimulus":"\n                <p>Student's guess for coin weight: <b style=\"color:Tomato;\">0.19</b></p>\n                <p>You received a bonus of <b>$0.44</b>. Total bonus so far: <b>$1.59</b></b></p>\n                <p> Press any key to continue.</p>\n                ","response":" ","trial_type":"html-keyboard-response","trial_index":34,"time_elapsed":678392,"internal_node_id":"0.0-31.0","params":{"nStudents":24,"maxFlips":30,"completionMinutes":45,"basePay":8,"maxBonus":9,"perTrialBonus":0.5,"perTrialBonusThreshold":0.1,"exampleCost":0.01},"classroomParams":{"A":{"a":1,"b":4},"B":{"a":4,"b":1},"C":{"a":2,"b":8},"D":{"a":8,"b":2}},"conditions":["nonSeqFull","nonSeqPartial","seqNoFeedback","seqFeedback"],"classroomPairings":[["A","B"],["C","D"]],"coinWeights":[0.2,0.5,0.8],"subjectId":"A2QTL039A5VV3I","assignmentId":"3ZY8KE4ISKPFVLNQIAMMPR6IUIFQV4","hitId":"3QGHA0EA0JM3KKNCY0PQRLYAHJ3BWH","url":"https://gershmanlab.com/experiments/alicia/teaching/experiment/?hitId=3QGHA0EA0JM3KKNCY0PQRLYAHJ3BWH&workerId=A2QTL039A5VV3I&assignmentId=3ZY8KE4ISKPFVLNQIAMMPR6IUIFQV4&a=IKYZ8&tp_a=IKYZ8&b=3ZY8KE4ISKPFVLNQIAMMPR6IUIFQV4&tp_b=3ZY8KE4ISKPFVLNQIAMMPR6IUIFQV4&c=365198&tp_c=365198"},{"rt":null,"stimulus":"<div style=\"font-size:60px;\">Next student</div>","response":null,"trial_type":"html-keyboard-response","trial_index":35,"time_elapsed":680648,"internal_node_id":"0.0-32.0-0.0","params":{"nStudents":24,"maxFlips":30,"completionMinutes":45,"basePay":8,"maxBonus":9,"perTrialBonus":0.5,"perTrialBonusThreshold":0.1,"exampleCost":0.01},"classroomParams":{"A":{"a":1,"b":4},"B":{"a":4,"b":1},"C":{"a":2,"b":8},"D":{"a":8,"b":2}},"conditions":["nonSeqFull","nonSeqPartial","seqNoFeedback","seqFeedback"],"classroomPairings":[["A","B"],["C","D"]],"coinWeights":[0.2,0.5,0.8],"subjectId":"A2QTL039A5VV3I","assignmentId":"3ZY8KE4ISKPFVLNQIAMMPR6IUIFQV4","hitId":"3QGHA0EA0JM3KKNCY0PQRLYAHJ3BWH","url":"https://gershmanlab.com/experiments/alicia/teaching/experiment/?hitId=3QGHA0EA0JM3KKNCY0PQRLYAHJ3BWH&workerId=A2QTL039A5VV3I&assignmentId=3ZY8KE4ISKPFVLNQIAMMPR6IUIFQV4&a=IKYZ8&tp_a=IKYZ8&b=3ZY8KE4ISKPFVLNQIAMMPR6IUIFQV4&tp_b=3ZY8KE4ISKPFVLNQIAMMPR6IUIFQV4&c=365198&tp_c=365198"},{"rt":10746,"stimulus":"\n            <h4 style=\"color:Orange;\">Student 5</h4>\n            <h2>The weight of your coin is <b style=\"color:Tomato;\">0.8</b>.</h2>\n            <p>In this block, you will be giving <b>one</b> set of examples to Student 5.</p>\n                <p>You will receive feedback at the end of the block.</p>\n            ","response":0,"trial_type":"html-button-response","trial_index":36,"time_elapsed":691397,"internal_node_id":"0.0-33.0","params":{"nStudents":24,"maxFlips":30,"completionMinutes":45,"basePay":8,"maxBonus":9,"perTrialBonus":0.5,"perTrialBonusThreshold":0.1,"exampleCost":0.01},"classroomParams":{"A":{"a":1,"b":4},"B":{"a":4,"b":1},"C":{"a":2,"b":8},"D":{"a":8,"b":2}},"conditions":["nonSeqFull","nonSeqPartial","seqNoFeedback","seqFeedback"],"classroomPairings":[["A","B"],["C","D"]],"coinWeights":[0.2,0.5,0.8],"subjectId":"A2QTL039A5VV3I","assignmentId":"3ZY8KE4ISKPFVLNQIAMMPR6IUIFQV4","hitId":"3QGHA0EA0JM3KKNCY0PQRLYAHJ3BWH","url":"https://gershmanlab.com/experiments/alicia/teaching/experiment/?hitId=3QGHA0EA0JM3KKNCY0PQRLYAHJ3BWH&workerId=A2QTL039A5VV3I&assignmentId=3ZY8KE4ISKPFVLNQIAMMPR6IUIFQV4&a=IKYZ8&tp_a=IKYZ8&b=3ZY8KE4ISKPFVLNQIAMMPR6IUIFQV4&tp_b=3ZY8KE4ISKPFVLNQIAMMPR6IUIFQV4&c=365198&tp_c=365198"},{"rt":5119,"response":{"heads":"4","tails":"1"},"type":"response","condition":"nonSeqPartial","trueTheta":0.8,"classrooms":["C","D"],"studentTrueClassroom":"C","exampleSet":"first","trial_type":"survey-html-form","trial_index":37,"time_elapsed":696518,"internal_node_id":"0.0-34.0-0.0","params":{"nStudents":24,"maxFlips":30,"completionMinutes":45,"basePay":8,"maxBonus":9,"perTrialBonus":0.5,"perTrialBonusThreshold":0.1,"exampleCost":0.01},"classroomParams":{"A":{"a":1,"b":4},"B":{"a":4,"b":1},"C":{"a":2,"b":8},"D":{"a":8,"b":2}},"conditions":["nonSeqFull","nonSeqPartial","seqNoFeedback","seqFeedback"],"classroomPairings":[["A","B"],["C","D"]],"coinWeights":[0.2,0.5,0.8],"subjectId":"A2QTL039A5VV3I","assignmentId":"3ZY8KE4ISKPFVLNQIAMMPR6IUIFQV4","hitId":"3QGHA0EA0JM3KKNCY0PQRLYAHJ3BWH","url":"https://gershmanlab.com/experiments/alicia/teaching/experiment/?hitId=3QGHA0EA0JM3KKNCY0PQRLYAHJ3BWH&workerId=A2QTL039A5VV3I&assignmentId=3ZY8KE4ISKPFVLNQIAMMPR6IUIFQV4&a=IKYZ8&tp_a=IKYZ8&b=3ZY8KE4ISKPFVLNQIAMMPR6IUIFQV4&tp_b=3ZY8KE4ISKPFVLNQIAMMPR6IUIFQV4&c=365198&tp_c=365198","heads":4,"tails":1,"studentIndex":4,"studentTrueHypers":{"a":2,"b":8},"studentGuess":0.4,"delta":0.4,"totalExamples":5,"bonus":0,"bonusSoFar":1.59},{"rt":null,"stimulus":"Sending examples to student... ","response":null,"trial_type":"html-keyboard-response","trial_index":38,"time_elapsed":698277,"internal_node_id":"0.0-35.0","params":{"nStudents":24,"maxFlips":30,"completionMinutes":45,"basePay":8,"maxBonus":9,"perTrialBonus":0.5,"perTrialBonusThreshold":0.1,"exampleCost":0.01},"classroomParams":{"A":{"a":1,"b":4},"B":{"a":4,"b":1},"C":{"a":2,"b":8},"D":{"a":8,"b":2}},"conditions":["nonSeqFull","nonSeqPartial","seqNoFeedback","seqFeedback"],"classroomPairings":[["A","B"],["C","D"]],"coinWeights":[0.2,0.5,0.8],"subjectId":"A2QTL039A5VV3I","assignmentId":"3ZY8KE4ISKPFVLNQIAMMPR6IUIFQV4","hitId":"3QGHA0EA0JM3KKNCY0PQRLYAHJ3BWH","url":"https://gershmanlab.com/experiments/alicia/teaching/experiment/?hitId=3QGHA0EA0JM3KKNCY0PQRLYAHJ3BWH&workerId=A2QTL039A5VV3I&assignmentId=3ZY8KE4ISKPFVLNQIAMMPR6IUIFQV4&a=IKYZ8&tp_a=IKYZ8&b=3ZY8KE4ISKPFVLNQIAMMPR6IUIFQV4&tp_b=3ZY8KE4ISKPFVLNQIAMMPR6IUIFQV4&c=365198&tp_c=365198"},{"rt":null,"stimulus":"Examples sent to student! Waiting for student...","response":null,"trial_type":"html-keyboard-response","trial_index":39,"time_elapsed":702286,"internal_node_id":"0.0-36.0","params":{"nStudents":24,"maxFlips":30,"completionMinutes":45,"basePay":8,"maxBonus":9,"perTrialBonus":0.5,"perTrialBonusThreshold":0.1,"exampleCost":0.01},"classroomParams":{"A":{"a":1,"b":4},"B":{"a":4,"b":1},"C":{"a":2,"b":8},"D":{"a":8,"b":2}},"conditions":["nonSeqFull","nonSeqPartial","seqNoFeedback","seqFeedback"],"classroomPairings":[["A","B"],["C","D"]],"coinWeights":[0.2,0.5,0.8],"subjectId":"A2QTL039A5VV3I","assignmentId":"3ZY8KE4ISKPFVLNQIAMMPR6IUIFQV4","hitId":"3QGHA0EA0JM3KKNCY0PQRLYAHJ3BWH","url":"https://gershmanlab.com/experiments/alicia/teaching/experiment/?hitId=3QGHA0EA0JM3KKNCY0PQRLYAHJ3BWH&workerId=A2QTL039A5VV3I&assignmentId=3ZY8KE4ISKPFVLNQIAMMPR6IUIFQV4&a=IKYZ8&tp_a=IKYZ8&b=3ZY8KE4ISKPFVLNQIAMMPR6IUIFQV4&tp_b=3ZY8KE4ISKPFVLNQIAMMPR6IUIFQV4&c=365198&tp_c=365198"},{"rt":20526,"stimulus":"\n                <p>Student's guess for coin weight: <b style=\"color:Tomato;\">0.40</b></p>\n                <p>You received a bonus of <b>$0</b>. Total bonus so far: <b>$1.59</b></b></p>\n                <p> Press any key to continue.</p>\n                ","response":" ","trial_type":"html-keyboard-response","trial_index":40,"time_elapsed":722810,"internal_node_id":"0.0-37.0","params":{"nStudents":24,"maxFlips":30,"completionMinutes":45,"basePay":8,"maxBonus":9,"perTrialBonus":0.5,"perTrialBonusThreshold":0.1,"exampleCost":0.01},"classroomParams":{"A":{"a":1,"b":4},"B":{"a":4,"b":1},"C":{"a":2,"b":8},"D":{"a":8,"b":2}},"conditions":["nonSeqFull","nonSeqPartial","seqNoFeedback","seqFeedback"],"classroomPairings":[["A","B"],["C","D"]],"coinWeights":[0.2,0.5,0.8],"subjectId":"A2QTL039A5VV3I","assignmentId":"3ZY8KE4ISKPFVLNQIAMMPR6IUIFQV4","hitId":"3QGHA0EA0JM3KKNCY0PQRLYAHJ3BWH","url":"https://gershmanlab.com/experiments/alicia/teaching/experiment/?hitId=3QGHA0EA0JM3KKNCY0PQRLYAHJ3BWH&workerId=A2QTL039A5VV3I&assignmentId=3ZY8KE4ISKPFVLNQIAMMPR6IUIFQV4&a=IKYZ8&tp_a=IKYZ8&b=3ZY8KE4ISKPFVLNQIAMMPR6IUIFQV4&tp_b=3ZY8KE4ISKPFVLNQIAMMPR6IUIFQV4&c=365198&tp_c=365198"},{"rt":null,"stimulus":"<div style=\"font-size:60px;\">Next student</div>","response":null,"trial_type":"html-keyboard-response","trial_index":41,"time_elapsed":725814,"internal_node_id":"0.0-38.0-0.0","params":{"nStudents":24,"maxFlips":30,"completionMinutes":45,"basePay":8,"maxBonus":9,"perTrialBonus":0.5,"perTrialBonusThreshold":0.1,"exampleCost":0.01},"classroomParams":{"A":{"a":1,"b":4},"B":{"a":4,"b":1},"C":{"a":2,"b":8},"D":{"a":8,"b":2}},"conditions":["nonSeqFull","nonSeqPartial","seqNoFeedback","seqFeedback"],"classroomPairings":[["A","B"],["C","D"]],"coinWeights":[0.2,0.5,0.8],"subjectId":"A2QTL039A5VV3I","assignmentId":"3ZY8KE4ISKPFVLNQIAMMPR6IUIFQV4","hitId":"3QGHA0EA0JM3KKNCY0PQRLYAHJ3BWH","url":"https://gershmanlab.com/experiments/alicia/teaching/experiment/?hitId=3QGHA0EA0JM3KKNCY0PQRLYAHJ3BWH&workerId=A2QTL039A5VV3I&assignmentId=3ZY8KE4ISKPFVLNQIAMMPR6IUIFQV4&a=IKYZ8&tp_a=IKYZ8&b=3ZY8KE4ISKPFVLNQIAMMPR6IUIFQV4&tp_b=3ZY8KE4ISKPFVLNQIAMMPR6IUIFQV4&c=365198&tp_c=365198"},{"rt":1336,"stimulus":"\n            <h4 style=\"color:Orange;\">Student 6</h4>\n            <h2>The weight of your coin is <b style=\"color:Tomato;\">0.5</b>.</h2>\n            <p>In this block, you will be giving <b>two</b> sets of examples to Student 6.</p>\n                <p>You will see the student's guess after the first set of examples. You will also receive feedback at the end of the block.</p>\n            ","response":0,"trial_type":"html-button-response","trial_index":42,"time_elapsed":727152,"internal_node_id":"0.0-39.0","params":{"nStudents":24,"maxFlips":30,"completionMinutes":45,"basePay":8,"maxBonus":9,"perTrialBonus":0.5,"perTrialBonusThreshold":0.1,"exampleCost":0.01},"classroomParams":{"A":{"a":1,"b":4},"B":{"a":4,"b":1},"C":{"a":2,"b":8},"D":{"a":8,"b":2}},"conditions":["nonSeqFull","nonSeqPartial","seqNoFeedback","seqFeedback"],"classroomPairings":[["A","B"],["C","D"]],"coinWeights":[0.2,0.5,0.8],"subjectId":"A2QTL039A5VV3I","assignmentId":"3ZY8KE4ISKPFVLNQIAMMPR6IUIFQV4","hitId":"3QGHA0EA0JM3KKNCY0PQRLYAHJ3BWH","url":"https://gershmanlab.com/experiments/alicia/teaching/experiment/?hitId=3QGHA0EA0JM3KKNCY0PQRLYAHJ3BWH&workerId=A2QTL039A5VV3I&assignmentId=3ZY8KE4ISKPFVLNQIAMMPR6IUIFQV4&a=IKYZ8&tp_a=IKYZ8&b=3ZY8KE4ISKPFVLNQIAMMPR6IUIFQV4&tp_b=3ZY8KE4ISKPFVLNQIAMMPR6IUIFQV4&c=365198&tp_c=365198"},{"rt":11122,"response":{"heads":"5","tails":"5"},"type":"response","condition":"seqFeedback","trueTheta":0.5,"classrooms":["C","D"],"studentTrueClassroom":"D","exampleSet":"first","trial_type":"survey-html-form","trial_index":43,"time_elapsed":738276,"internal_node_id":"0.0-40.0-0.0","params":{"nStudents":24,"maxFlips":30,"completionMinutes":45,"basePay":8,"maxBonus":9,"perTrialBonus":0.5,"perTrialBonusThreshold":0.1,"exampleCost":0.01},"classroomParams":{"A":{"a":1,"b":4},"B":{"a":4,"b":1},"C":{"a":2,"b":8},"D":{"a":8,"b":2}},"conditions":["nonSeqFull","nonSeqPartial","seqNoFeedback","seqFeedback"],"classroomPairings":[["A","B"],["C","D"]],"coinWeights":[0.2,0.5,0.8],"subjectId":"A2QTL039A5VV3I","assignmentId":"3ZY8KE4ISKPFVLNQIAMMPR6IUIFQV4","hitId":"3QGHA0EA0JM3KKNCY0PQRLYAHJ3BWH","url":"https://gershmanlab.com/experiments/alicia/teaching/experiment/?hitId=3QGHA0EA0JM3KKNCY0PQRLYAHJ3BWH&workerId=A2QTL039A5VV3I&assignmentId=3ZY8KE4ISKPFVLNQIAMMPR6IUIFQV4&a=IKYZ8&tp_a=IKYZ8&b=3ZY8KE4ISKPFVLNQIAMMPR6IUIFQV4&tp_b=3ZY8KE4ISKPFVLNQIAMMPR6IUIFQV4&c=365198&tp_c=365198","heads":5,"tails":5,"studentIndex":5,"studentTrueHypers":{"a":8,"b":2},"studentGuess":0.65,"delta":0.15000000000000002,"totalExamples":10,"bonusSoFar":1.59},{"rt":null,"stimulus":"Sending examples to student... ","response":null,"trial_type":"html-keyboard-response","trial_index":44,"time_elapsed":740033,"internal_node_id":"0.0-41.0","params":{"nStudents":24,"maxFlips":30,"completionMinutes":45,"basePay":8,"maxBonus":9,"perTrialBonus":0.5,"perTrialBonusThreshold":0.1,"exampleCost":0.01},"classroomParams":{"A":{"a":1,"b":4},"B":{"a":4,"b":1},"C":{"a":2,"b":8},"D":{"a":8,"b":2}},"conditions":["nonSeqFull","nonSeqPartial","seqNoFeedback","seqFeedback"],"classroomPairings":[["A","B"],["C","D"]],"coinWeights":[0.2,0.5,0.8],"subjectId":"A2QTL039A5VV3I","assignmentId":"3ZY8KE4ISKPFVLNQIAMMPR6IUIFQV4","hitId":"3QGHA0EA0JM3KKNCY0PQRLYAHJ3BWH","url":"https://gershmanlab.com/experiments/alicia/teaching/experiment/?hitId=3QGHA0EA0JM3KKNCY0PQRLYAHJ3BWH&workerId=A2QTL039A5VV3I&assignmentId=3ZY8KE4ISKPFVLNQIAMMPR6IUIFQV4&a=IKYZ8&tp_a=IKYZ8&b=3ZY8KE4ISKPFVLNQIAMMPR6IUIFQV4&tp_b=3ZY8KE4ISKPFVLNQIAMMPR6IUIFQV4&c=365198&tp_c=365198"},{"rt":null,"stimulus":"Examples sent to student! Waiting for student...","response":null,"trial_type":"html-keyboard-response","trial_index":45,"time_elapsed":746040,"internal_node_id":"0.0-42.0","params":{"nStudents":24,"maxFlips":30,"completionMinutes":45,"basePay":8,"maxBonus":9,"perTrialBonus":0.5,"perTrialBonusThreshold":0.1,"exampleCost":0.01},"classroomParams":{"A":{"a":1,"b":4},"B":{"a":4,"b":1},"C":{"a":2,"b":8},"D":{"a":8,"b":2}},"conditions":["nonSeqFull","nonSeqPartial","seqNoFeedback","seqFeedback"],"classroomPairings":[["A","B"],["C","D"]],"coinWeights":[0.2,0.5,0.8],"subjectId":"A2QTL039A5VV3I","assignmentId":"3ZY8KE4ISKPFVLNQIAMMPR6IUIFQV4","hitId":"3QGHA0EA0JM3KKNCY0PQRLYAHJ3BWH","url":"https://gershmanlab.com/experiments/alicia/teaching/experiment/?hitId=3QGHA0EA0JM3KKNCY0PQRLYAHJ3BWH&workerId=A2QTL039A5VV3I&assignmentId=3ZY8KE4ISKPFVLNQIAMMPR6IUIFQV4&a=IKYZ8&tp_a=IKYZ8&b=3ZY8KE4ISKPFVLNQIAMMPR6IUIFQV4&tp_b=3ZY8KE4ISKPFVLNQIAMMPR6IUIFQV4&c=365198&tp_c=365198"},{"rt":3598,"stimulus":"\n                <p>Student's guess for coin weight: <b style=\"color:Tomato;\">0.65</b></p>\n                <p></b></p>\n                <p>You will now send another set of examples to your student. Press any key to continue.</p>\n                ","response":" ","trial_type":"html-keyboard-response","trial_index":46,"time_elapsed":749641,"internal_node_id":"0.0-43.0","params":{"nStudents":24,"maxFlips":30,"completionMinutes":45,"basePay":8,"maxBonus":9,"perTrialBonus":0.5,"perTrialBonusThreshold":0.1,"exampleCost":0.01},"classroomParams":{"A":{"a":1,"b":4},"B":{"a":4,"b":1},"C":{"a":2,"b":8},"D":{"a":8,"b":2}},"conditions":["nonSeqFull","nonSeqPartial","seqNoFeedback","seqFeedback"],"classroomPairings":[["A","B"],["C","D"]],"coinWeights":[0.2,0.5,0.8],"subjectId":"A2QTL039A5VV3I","assignmentId":"3ZY8KE4ISKPFVLNQIAMMPR6IUIFQV4","hitId":"3QGHA0EA0JM3KKNCY0PQRLYAHJ3BWH","url":"https://gershmanlab.com/experiments/alicia/teaching/experiment/?hitId=3QGHA0EA0JM3KKNCY0PQRLYAHJ3BWH&workerId=A2QTL039A5VV3I&assignmentId=3ZY8KE4ISKPFVLNQIAMMPR6IUIFQV4&a=IKYZ8&tp_a=IKYZ8&b=3ZY8KE4ISKPFVLNQIAMMPR6IUIFQV4&tp_b=3ZY8KE4ISKPFVLNQIAMMPR6IUIFQV4&c=365198&tp_c=365198"},{"rt":11634,"response":{"heads":"5","tails":"5"},"type":"response","condition":"seqFeedback","trueTheta":0.5,"classrooms":["C","D"],"studentTrueClassroom":"D","exampleSet":"second","trial_type":"survey-html-form","trial_index":47,"time_elapsed":761276,"internal_node_id":"0.0-44.0-0.0","params":{"nStudents":24,"maxFlips":30,"completionMinutes":45,"basePay":8,"maxBonus":9,"perTrialBonus":0.5,"perTrialBonusThreshold":0.1,"exampleCost":0.01},"classroomParams":{"A":{"a":1,"b":4},"B":{"a":4,"b":1},"C":{"a":2,"b":8},"D":{"a":8,"b":2}},"conditions":["nonSeqFull","nonSeqPartial","seqNoFeedback","seqFeedback"],"classroomPairings":[["A","B"],["C","D"]],"coinWeights":[0.2,0.5,0.8],"subjectId":"A2QTL039A5VV3I","assignmentId":"3ZY8KE4ISKPFVLNQIAMMPR6IUIFQV4","hitId":"3QGHA0EA0JM3KKNCY0PQRLYAHJ3BWH","url":"https://gershmanlab.com/experiments/alicia/teaching/experiment/?hitId=3QGHA0EA0JM3KKNCY0PQRLYAHJ3BWH&workerId=A2QTL039A5VV3I&assignmentId=3ZY8KE4ISKPFVLNQIAMMPR6IUIFQV4&a=IKYZ8&tp_a=IKYZ8&b=3ZY8KE4ISKPFVLNQIAMMPR6IUIFQV4&tp_b=3ZY8KE4ISKPFVLNQIAMMPR6IUIFQV4&c=365198&tp_c=365198","firstResponseHeads":5,"firstResponseTails":5,"secondResponseHeads":5,"secondResponseTails":5,"studentIndex":5,"studentTrueHypers":{"a":8,"b":2},"studentGuess":0.6,"delta":0.09999999999999998,"bonus":0.3,"bonusSoFar":1.89,"totalExamples":20},{"rt":null,"stimulus":"Sending examples to student... ","response":null,"trial_type":"html-keyboard-response","trial_index":48,"time_elapsed":763283,"internal_node_id":"0.0-45.0","params":{"nStudents":24,"maxFlips":30,"completionMinutes":45,"basePay":8,"maxBonus":9,"perTrialBonus":0.5,"perTrialBonusThreshold":0.1,"exampleCost":0.01},"classroomParams":{"A":{"a":1,"b":4},"B":{"a":4,"b":1},"C":{"a":2,"b":8},"D":{"a":8,"b":2}},"conditions":["nonSeqFull","nonSeqPartial","seqNoFeedback","seqFeedback"],"classroomPairings":[["A","B"],["C","D"]],"coinWeights":[0.2,0.5,0.8],"subjectId":"A2QTL039A5VV3I","assignmentId":"3ZY8KE4ISKPFVLNQIAMMPR6IUIFQV4","hitId":"3QGHA0EA0JM3KKNCY0PQRLYAHJ3BWH","url":"https://gershmanlab.com/experiments/alicia/teaching/experiment/?hitId=3QGHA0EA0JM3KKNCY0PQRLYAHJ3BWH&workerId=A2QTL039A5VV3I&assignmentId=3ZY8KE4ISKPFVLNQIAMMPR6IUIFQV4&a=IKYZ8&tp_a=IKYZ8&b=3ZY8KE4ISKPFVLNQIAMMPR6IUIFQV4&tp_b=3ZY8KE4ISKPFVLNQIAMMPR6IUIFQV4&c=365198&tp_c=365198"},{"rt":null,"stimulus":"Examples sent to student! Waiting for student...","response":null,"trial_type":"html-keyboard-response","trial_index":49,"time_elapsed":769294,"internal_node_id":"0.0-46.0","params":{"nStudents":24,"maxFlips":30,"completionMinutes":45,"basePay":8,"maxBonus":9,"perTrialBonus":0.5,"perTrialBonusThreshold":0.1,"exampleCost":0.01},"classroomParams":{"A":{"a":1,"b":4},"B":{"a":4,"b":1},"C":{"a":2,"b":8},"D":{"a":8,"b":2}},"conditions":["nonSeqFull","nonSeqPartial","seqNoFeedback","seqFeedback"],"classroomPairings":[["A","B"],["C","D"]],"coinWeights":[0.2,0.5,0.8],"subjectId":"A2QTL039A5VV3I","assignmentId":"3ZY8KE4ISKPFVLNQIAMMPR6IUIFQV4","hitId":"3QGHA0EA0JM3KKNCY0PQRLYAHJ3BWH","url":"https://gershmanlab.com/experiments/alicia/teaching/experiment/?hitId=3QGHA0EA0JM3KKNCY0PQRLYAHJ3BWH&workerId=A2QTL039A5VV3I&assignmentId=3ZY8KE4ISKPFVLNQIAMMPR6IUIFQV4&a=IKYZ8&tp_a=IKYZ8&b=3ZY8KE4ISKPFVLNQIAMMPR6IUIFQV4&tp_b=3ZY8KE4ISKPFVLNQIAMMPR6IUIFQV4&c=365198&tp_c=365198"},{"rt":4124,"stimulus":"\n                <p>Student 6's first guess for coin weight: <b style=\"color:Tomato\";>0.65</b></p>\n                <p>Student 6's second guess for coin weight: <b style=\"color:Tomato\";>0.60</b></p>\n                <p>You received a bonus of <b>$0.30</b> based on the student's second guess.</p>\n                <p>Total bonus so far: <b>$1.89</b></p>\n                <p>Press any key to continue.</p>\n                ","response":" ","trial_type":"html-keyboard-response","trial_index":50,"time_elapsed":773420,"internal_node_id":"0.0-47.0","params":{"nStudents":24,"maxFlips":30,"completionMinutes":45,"basePay":8,"maxBonus":9,"perTrialBonus":0.5,"perTrialBonusThreshold":0.1,"exampleCost":0.01},"classroomParams":{"A":{"a":1,"b":4},"B":{"a":4,"b":1},"C":{"a":2,"b":8},"D":{"a":8,"b":2}},"conditions":["nonSeqFull","nonSeqPartial","seqNoFeedback","seqFeedback"],"classroomPairings":[["A","B"],["C","D"]],"coinWeights":[0.2,0.5,0.8],"subjectId":"A2QTL039A5VV3I","assignmentId":"3ZY8KE4ISKPFVLNQIAMMPR6IUIFQV4","hitId":"3QGHA0EA0JM3KKNCY0PQRLYAHJ3BWH","url":"https://gershmanlab.com/experiments/alicia/teaching/experiment/?hitId=3QGHA0EA0JM3KKNCY0PQRLYAHJ3BWH&workerId=A2QTL039A5VV3I&assignmentId=3ZY8KE4ISKPFVLNQIAMMPR6IUIFQV4&a=IKYZ8&tp_a=IKYZ8&b=3ZY8KE4ISKPFVLNQIAMMPR6IUIFQV4&tp_b=3ZY8KE4ISKPFVLNQIAMMPR6IUIFQV4&c=365198&tp_c=365198"},{"rt":null,"stimulus":"<div style=\"font-size:60px;\">Next student</div>","response":null,"trial_type":"html-keyboard-response","trial_index":51,"time_elapsed":775925,"internal_node_id":"0.0-48.0-0.0","params":{"nStudents":24,"maxFlips":30,"completionMinutes":45,"basePay":8,"maxBonus":9,"perTrialBonus":0.5,"perTrialBonusThreshold":0.1,"exampleCost":0.01},"classroomParams":{"A":{"a":1,"b":4},"B":{"a":4,"b":1},"C":{"a":2,"b":8},"D":{"a":8,"b":2}},"conditions":["nonSeqFull","nonSeqPartial","seqNoFeedback","seqFeedback"],"classroomPairings":[["A","B"],["C","D"]],"coinWeights":[0.2,0.5,0.8],"subjectId":"A2QTL039A5VV3I","assignmentId":"3ZY8KE4ISKPFVLNQIAMMPR6IUIFQV4","hitId":"3QGHA0EA0JM3KKNCY0PQRLYAHJ3BWH","url":"https://gershmanlab.com/experiments/alicia/teaching/experiment/?hitId=3QGHA0EA0JM3KKNCY0PQRLYAHJ3BWH&workerId=A2QTL039A5VV3I&assignmentId=3ZY8KE4ISKPFVLNQIAMMPR6IUIFQV4&a=IKYZ8&tp_a=IKYZ8&b=3ZY8KE4ISKPFVLNQIAMMPR6IUIFQV4&tp_b=3ZY8KE4ISKPFVLNQIAMMPR6IUIFQV4&c=365198&tp_c=365198"},{"rt":16397,"stimulus":"\n            <h4 style=\"color:Orange;\">Student 7</h4>\n            <h2>The weight of your coin is <b style=\"color:Tomato;\">0.5</b>.</h2>\n            <p>In this block, you will be giving <b>one</b> set of examples to Student 7.</p>\n                <p>You will receive feedback at the end of the block.</p>\n            ","response":0,"trial_type":"html-button-response","trial_index":52,"time_elapsed":792332,"internal_node_id":"0.0-49.0","params":{"nStudents":24,"maxFlips":30,"completionMinutes":45,"basePay":8,"maxBonus":9,"perTrialBonus":0.5,"perTrialBonusThreshold":0.1,"exampleCost":0.01},"classroomParams":{"A":{"a":1,"b":4},"B":{"a":4,"b":1},"C":{"a":2,"b":8},"D":{"a":8,"b":2}},"conditions":["nonSeqFull","nonSeqPartial","seqNoFeedback","seqFeedback"],"classroomPairings":[["A","B"],["C","D"]],"coinWeights":[0.2,0.5,0.8],"subjectId":"A2QTL039A5VV3I","assignmentId":"3ZY8KE4ISKPFVLNQIAMMPR6IUIFQV4","hitId":"3QGHA0EA0JM3KKNCY0PQRLYAHJ3BWH","url":"https://gershmanlab.com/experiments/alicia/teaching/experiment/?hitId=3QGHA0EA0JM3KKNCY0PQRLYAHJ3BWH&workerId=A2QTL039A5VV3I&assignmentId=3ZY8KE4ISKPFVLNQIAMMPR6IUIFQV4&a=IKYZ8&tp_a=IKYZ8&b=3ZY8KE4ISKPFVLNQIAMMPR6IUIFQV4&tp_b=3ZY8KE4ISKPFVLNQIAMMPR6IUIFQV4&c=365198&tp_c=365198"},{"rt":4643,"response":{"heads":"8","tails":"8"},"type":"response","condition":"nonSeqFull","trueTheta":0.5,"classrooms":["C","D"],"studentTrueClassroom":"D","exampleSet":"first","trial_type":"survey-html-form","trial_index":53,"time_elapsed":796977,"internal_node_id":"0.0-50.0-0.0","params":{"nStudents":24,"maxFlips":30,"completionMinutes":45,"basePay":8,"maxBonus":9,"perTrialBonus":0.5,"perTrialBonusThreshold":0.1,"exampleCost":0.01},"classroomParams":{"A":{"a":1,"b":4},"B":{"a":4,"b":1},"C":{"a":2,"b":8},"D":{"a":8,"b":2}},"conditions":["nonSeqFull","nonSeqPartial","seqNoFeedback","seqFeedback"],"classroomPairings":[["A","B"],["C","D"]],"coinWeights":[0.2,0.5,0.8],"subjectId":"A2QTL039A5VV3I","assignmentId":"3ZY8KE4ISKPFVLNQIAMMPR6IUIFQV4","hitId":"3QGHA0EA0JM3KKNCY0PQRLYAHJ3BWH","url":"https://gershmanlab.com/experiments/alicia/teaching/experiment/?hitId=3QGHA0EA0JM3KKNCY0PQRLYAHJ3BWH&workerId=A2QTL039A5VV3I&assignmentId=3ZY8KE4ISKPFVLNQIAMMPR6IUIFQV4&a=IKYZ8&tp_a=IKYZ8&b=3ZY8KE4ISKPFVLNQIAMMPR6IUIFQV4&tp_b=3ZY8KE4ISKPFVLNQIAMMPR6IUIFQV4&c=365198&tp_c=365198","heads":8,"tails":8,"studentIndex":6,"studentTrueHypers":{"a":8,"b":2},"studentGuess":0.6153846153846154,"delta":0.11538461538461542,"totalExamples":16,"bonus":0,"bonusSoFar":1.89},{"rt":null,"stimulus":"Sending examples to student... ","response":null,"trial_type":"html-keyboard-response","trial_index":54,"time_elapsed":798999,"internal_node_id":"0.0-51.0","params":{"nStudents":24,"maxFlips":30,"completionMinutes":45,"basePay":8,"maxBonus":9,"perTrialBonus":0.5,"perTrialBonusThreshold":0.1,"exampleCost":0.01},"classroomParams":{"A":{"a":1,"b":4},"B":{"a":4,"b":1},"C":{"a":2,"b":8},"D":{"a":8,"b":2}},"conditions":["nonSeqFull","nonSeqPartial","seqNoFeedback","seqFeedback"],"classroomPairings":[["A","B"],["C","D"]],"coinWeights":[0.2,0.5,0.8],"subjectId":"A2QTL039A5VV3I","assignmentId":"3ZY8KE4ISKPFVLNQIAMMPR6IUIFQV4","hitId":"3QGHA0EA0JM3KKNCY0PQRLYAHJ3BWH","url":"https://gershmanlab.com/experiments/alicia/teaching/experiment/?hitId=3QGHA0EA0JM3KKNCY0PQRLYAHJ3BWH&workerId=A2QTL039A5VV3I&assignmentId=3ZY8KE4ISKPFVLNQIAMMPR6IUIFQV4&a=IKYZ8&tp_a=IKYZ8&b=3ZY8KE4ISKPFVLNQIAMMPR6IUIFQV4&tp_b=3ZY8KE4ISKPFVLNQIAMMPR6IUIFQV4&c=365198&tp_c=365198"},{"rt":null,"stimulus":"Examples sent to student! Waiting for student...","response":null,"trial_type":"html-keyboard-response","trial_index":55,"time_elapsed":803504,"internal_node_id":"0.0-52.0","params":{"nStudents":24,"maxFlips":30,"completionMinutes":45,"basePay":8,"maxBonus":9,"perTrialBonus":0.5,"perTrialBonusThreshold":0.1,"exampleCost":0.01},"classroomParams":{"A":{"a":1,"b":4},"B":{"a":4,"b":1},"C":{"a":2,"b":8},"D":{"a":8,"b":2}},"conditions":["nonSeqFull","nonSeqPartial","seqNoFeedback","seqFeedback"],"classroomPairings":[["A","B"],["C","D"]],"coinWeights":[0.2,0.5,0.8],"subjectId":"A2QTL039A5VV3I","assignmentId":"3ZY8KE4ISKPFVLNQIAMMPR6IUIFQV4","hitId":"3QGHA0EA0JM3KKNCY0PQRLYAHJ3BWH","url":"https://gershmanlab.com/experiments/alicia/teaching/experiment/?hitId=3QGHA0EA0JM3KKNCY0PQRLYAHJ3BWH&workerId=A2QTL039A5VV3I&assignmentId=3ZY8KE4ISKPFVLNQIAMMPR6IUIFQV4&a=IKYZ8&tp_a=IKYZ8&b=3ZY8KE4ISKPFVLNQIAMMPR6IUIFQV4&tp_b=3ZY8KE4ISKPFVLNQIAMMPR6IUIFQV4&c=365198&tp_c=365198"},{"rt":null,"stimulus":"\n                <p>Student's guess for coin weight: <b style=\"color:Tomato;\">0.62</b></p>\n                <p>You received a bonus of <b>$0</b>. Total bonus so far: <b>$1.89</b></b></p>\n                <p> Press any key to continue.</p>\n                ","response":null,"trial_type":"html-keyboard-response","trial_index":56,"time_elapsed":833512,"internal_node_id":"0.0-53.0","params":{"nStudents":24,"maxFlips":30,"completionMinutes":45,"basePay":8,"maxBonus":9,"perTrialBonus":0.5,"perTrialBonusThreshold":0.1,"exampleCost":0.01},"classroomParams":{"A":{"a":1,"b":4},"B":{"a":4,"b":1},"C":{"a":2,"b":8},"D":{"a":8,"b":2}},"conditions":["nonSeqFull","nonSeqPartial","seqNoFeedback","seqFeedback"],"classroomPairings":[["A","B"],["C","D"]],"coinWeights":[0.2,0.5,0.8],"subjectId":"A2QTL039A5VV3I","assignmentId":"3ZY8KE4ISKPFVLNQIAMMPR6IUIFQV4","hitId":"3QGHA0EA0JM3KKNCY0PQRLYAHJ3BWH","url":"https://gershmanlab.com/experiments/alicia/teaching/experiment/?hitId=3QGHA0EA0JM3KKNCY0PQRLYAHJ3BWH&workerId=A2QTL039A5VV3I&assignmentId=3ZY8KE4ISKPFVLNQIAMMPR6IUIFQV4&a=IKYZ8&tp_a=IKYZ8&b=3ZY8KE4ISKPFVLNQIAMMPR6IUIFQV4&tp_b=3ZY8KE4ISKPFVLNQIAMMPR6IUIFQV4&c=365198&tp_c=365198"},{"rt":null,"stimulus":"<div style=\"font-size:60px;\">Next student</div>","response":null,"trial_type":"html-keyboard-response","trial_index":57,"time_elapsed":836025,"internal_node_id":"0.0-54.0-0.0","params":{"nStudents":24,"maxFlips":30,"completionMinutes":45,"basePay":8,"maxBonus":9,"perTrialBonus":0.5,"perTrialBonusThreshold":0.1,"exampleCost":0.01},"classroomParams":{"A":{"a":1,"b":4},"B":{"a":4,"b":1},"C":{"a":2,"b":8},"D":{"a":8,"b":2}},"conditions":["nonSeqFull","nonSeqPartial","seqNoFeedback","seqFeedback"],"classroomPairings":[["A","B"],["C","D"]],"coinWeights":[0.2,0.5,0.8],"subjectId":"A2QTL039A5VV3I","assignmentId":"3ZY8KE4ISKPFVLNQIAMMPR6IUIFQV4","hitId":"3QGHA0EA0JM3KKNCY0PQRLYAHJ3BWH","url":"https://gershmanlab.com/experiments/alicia/teaching/experiment/?hitId=3QGHA0EA0JM3KKNCY0PQRLYAHJ3BWH&workerId=A2QTL039A5VV3I&assignmentId=3ZY8KE4ISKPFVLNQIAMMPR6IUIFQV4&a=IKYZ8&tp_a=IKYZ8&b=3ZY8KE4ISKPFVLNQIAMMPR6IUIFQV4&tp_b=3ZY8KE4ISKPFVLNQIAMMPR6IUIFQV4&c=365198&tp_c=365198"},{"rt":51053,"stimulus":"\n            <h4 style=\"color:Orange;\">Student 8</h4>\n            <h2>The weight of your coin is <b style=\"color:Tomato;\">0.2</b>.</h2>\n            <p>In this block, you will be giving <b>two</b> sets of examples to Student 8.</p>\n                <p>You will see the student's guess after the first set of examples. You will also receive feedback at the end of the block.</p>\n            ","response":0,"trial_type":"html-button-response","trial_index":58,"time_elapsed":887080,"internal_node_id":"0.0-55.0","params":{"nStudents":24,"maxFlips":30,"completionMinutes":45,"basePay":8,"maxBonus":9,"perTrialBonus":0.5,"perTrialBonusThreshold":0.1,"exampleCost":0.01},"classroomParams":{"A":{"a":1,"b":4},"B":{"a":4,"b":1},"C":{"a":2,"b":8},"D":{"a":8,"b":2}},"conditions":["nonSeqFull","nonSeqPartial","seqNoFeedback","seqFeedback"],"classroomPairings":[["A","B"],["C","D"]],"coinWeights":[0.2,0.5,0.8],"subjectId":"A2QTL039A5VV3I","assignmentId":"3ZY8KE4ISKPFVLNQIAMMPR6IUIFQV4","hitId":"3QGHA0EA0JM3KKNCY0PQRLYAHJ3BWH","url":"https://gershmanlab.com/experiments/alicia/teaching/experiment/?hitId=3QGHA0EA0JM3KKNCY0PQRLYAHJ3BWH&workerId=A2QTL039A5VV3I&assignmentId=3ZY8KE4ISKPFVLNQIAMMPR6IUIFQV4&a=IKYZ8&tp_a=IKYZ8&b=3ZY8KE4ISKPFVLNQIAMMPR6IUIFQV4&tp_b=3ZY8KE4ISKPFVLNQIAMMPR6IUIFQV4&c=365198&tp_c=365198"},{"rt":4461,"response":{"heads":"1","tails":"4"},"type":"response","condition":"seqFeedback","trueTheta":0.2,"classrooms":["C","D"],"studentTrueClassroom":"D","exampleSet":"first","trial_type":"survey-html-form","trial_index":59,"time_elapsed":891543,"internal_node_id":"0.0-56.0-0.0","params":{"nStudents":24,"maxFlips":30,"completionMinutes":45,"basePay":8,"maxBonus":9,"perTrialBonus":0.5,"perTrialBonusThreshold":0.1,"exampleCost":0.01},"classroomParams":{"A":{"a":1,"b":4},"B":{"a":4,"b":1},"C":{"a":2,"b":8},"D":{"a":8,"b":2}},"conditions":["nonSeqFull","nonSeqPartial","seqNoFeedback","seqFeedback"],"classroomPairings":[["A","B"],["C","D"]],"coinWeights":[0.2,0.5,0.8],"subjectId":"A2QTL039A5VV3I","assignmentId":"3ZY8KE4ISKPFVLNQIAMMPR6IUIFQV4","hitId":"3QGHA0EA0JM3KKNCY0PQRLYAHJ3BWH","url":"https://gershmanlab.com/experiments/alicia/teaching/experiment/?hitId=3QGHA0EA0JM3KKNCY0PQRLYAHJ3BWH&workerId=A2QTL039A5VV3I&assignmentId=3ZY8KE4ISKPFVLNQIAMMPR6IUIFQV4&a=IKYZ8&tp_a=IKYZ8&b=3ZY8KE4ISKPFVLNQIAMMPR6IUIFQV4&tp_b=3ZY8KE4ISKPFVLNQIAMMPR6IUIFQV4&c=365198&tp_c=365198","heads":1,"tails":4,"studentIndex":7,"studentTrueHypers":{"a":8,"b":2},"studentGuess":0.6,"delta":0.39999999999999997,"totalExamples":5,"bonusSoFar":1.89},{"rt":null,"stimulus":"Sending examples to student... ","response":null,"trial_type":"html-keyboard-response","trial_index":60,"time_elapsed":893300,"internal_node_id":"0.0-57.0","params":{"nStudents":24,"maxFlips":30,"completionMinutes":45,"basePay":8,"maxBonus":9,"perTrialBonus":0.5,"perTrialBonusThreshold":0.1,"exampleCost":0.01},"classroomParams":{"A":{"a":1,"b":4},"B":{"a":4,"b":1},"C":{"a":2,"b":8},"D":{"a":8,"b":2}},"conditions":["nonSeqFull","nonSeqPartial","seqNoFeedback","seqFeedback"],"classroomPairings":[["A","B"],["C","D"]],"coinWeights":[0.2,0.5,0.8],"subjectId":"A2QTL039A5VV3I","assignmentId":"3ZY8KE4ISKPFVLNQIAMMPR6IUIFQV4","hitId":"3QGHA0EA0JM3KKNCY0PQRLYAHJ3BWH","url":"https://gershmanlab.com/experiments/alicia/teaching/experiment/?hitId=3QGHA0EA0JM3KKNCY0PQRLYAHJ3BWH&workerId=A2QTL039A5VV3I&assignmentId=3ZY8KE4ISKPFVLNQIAMMPR6IUIFQV4&a=IKYZ8&tp_a=IKYZ8&b=3ZY8KE4ISKPFVLNQIAMMPR6IUIFQV4&tp_b=3ZY8KE4ISKPFVLNQIAMMPR6IUIFQV4&c=365198&tp_c=365198"},{"rt":null,"stimulus":"Examples sent to student! Waiting for student...","response":null,"trial_type":"html-keyboard-response","trial_index":61,"time_elapsed":899308,"internal_node_id":"0.0-58.0","params":{"nStudents":24,"maxFlips":30,"completionMinutes":45,"basePay":8,"maxBonus":9,"perTrialBonus":0.5,"perTrialBonusThreshold":0.1,"exampleCost":0.01},"classroomParams":{"A":{"a":1,"b":4},"B":{"a":4,"b":1},"C":{"a":2,"b":8},"D":{"a":8,"b":2}},"conditions":["nonSeqFull","nonSeqPartial","seqNoFeedback","seqFeedback"],"classroomPairings":[["A","B"],["C","D"]],"coinWeights":[0.2,0.5,0.8],"subjectId":"A2QTL039A5VV3I","assignmentId":"3ZY8KE4ISKPFVLNQIAMMPR6IUIFQV4","hitId":"3QGHA0EA0JM3KKNCY0PQRLYAHJ3BWH","url":"https://gershmanlab.com/experiments/alicia/teaching/experiment/?hitId=3QGHA0EA0JM3KKNCY0PQRLYAHJ3BWH&workerId=A2QTL039A5VV3I&assignmentId=3ZY8KE4ISKPFVLNQIAMMPR6IUIFQV4&a=IKYZ8&tp_a=IKYZ8&b=3ZY8KE4ISKPFVLNQIAMMPR6IUIFQV4&tp_b=3ZY8KE4ISKPFVLNQIAMMPR6IUIFQV4&c=365198&tp_c=365198"},{"rt":12158,"stimulus":"\n                <p>Student's guess for coin weight: <b style=\"color:Tomato;\">0.60</b></p>\n                <p></b></p>\n                <p>You will now send another set of examples to your student. Press any key to continue.</p>\n                ","response":"enter","trial_type":"html-keyboard-response","trial_index":62,"time_elapsed":911469,"internal_node_id":"0.0-59.0","params":{"nStudents":24,"maxFlips":30,"completionMinutes":45,"basePay":8,"maxBonus":9,"perTrialBonus":0.5,"perTrialBonusThreshold":0.1,"exampleCost":0.01},"classroomParams":{"A":{"a":1,"b":4},"B":{"a":4,"b":1},"C":{"a":2,"b":8},"D":{"a":8,"b":2}},"conditions":["nonSeqFull","nonSeqPartial","seqNoFeedback","seqFeedback"],"classroomPairings":[["A","B"],["C","D"]],"coinWeights":[0.2,0.5,0.8],"subjectId":"A2QTL039A5VV3I","assignmentId":"3ZY8KE4ISKPFVLNQIAMMPR6IUIFQV4","hitId":"3QGHA0EA0JM3KKNCY0PQRLYAHJ3BWH","url":"https://gershmanlab.com/experiments/alicia/teaching/experiment/?hitId=3QGHA0EA0JM3KKNCY0PQRLYAHJ3BWH&workerId=A2QTL039A5VV3I&assignmentId=3ZY8KE4ISKPFVLNQIAMMPR6IUIFQV4&a=IKYZ8&tp_a=IKYZ8&b=3ZY8KE4ISKPFVLNQIAMMPR6IUIFQV4&tp_b=3ZY8KE4ISKPFVLNQIAMMPR6IUIFQV4&c=365198&tp_c=365198"},{"rt":7648,"response":{"heads":"1","tails":"7"},"type":"response","condition":"seqFeedback","trueTheta":0.2,"classrooms":["C","D"],"studentTrueClassroom":"D","exampleSet":"second","trial_type":"survey-html-form","trial_index":63,"time_elapsed":919119,"internal_node_id":"0.0-60.0-0.0","params":{"nStudents":24,"maxFlips":30,"completionMinutes":45,"basePay":8,"maxBonus":9,"perTrialBonus":0.5,"perTrialBonusThreshold":0.1,"exampleCost":0.01},"classroomParams":{"A":{"a":1,"b":4},"B":{"a":4,"b":1},"C":{"a":2,"b":8},"D":{"a":8,"b":2}},"conditions":["nonSeqFull","nonSeqPartial","seqNoFeedback","seqFeedback"],"classroomPairings":[["A","B"],["C","D"]],"coinWeights":[0.2,0.5,0.8],"subjectId":"A2QTL039A5VV3I","assignmentId":"3ZY8KE4ISKPFVLNQIAMMPR6IUIFQV4","hitId":"3QGHA0EA0JM3KKNCY0PQRLYAHJ3BWH","url":"https://gershmanlab.com/experiments/alicia/teaching/experiment/?hitId=3QGHA0EA0JM3KKNCY0PQRLYAHJ3BWH&workerId=A2QTL039A5VV3I&assignmentId=3ZY8KE4ISKPFVLNQIAMMPR6IUIFQV4&a=IKYZ8&tp_a=IKYZ8&b=3ZY8KE4ISKPFVLNQIAMMPR6IUIFQV4&tp_b=3ZY8KE4ISKPFVLNQIAMMPR6IUIFQV4&c=365198&tp_c=365198","firstResponseHeads":1,"firstResponseTails":4,"secondResponseHeads":1,"secondResponseTails":7,"studentIndex":7,"studentTrueHypers":{"a":8,"b":2},"studentGuess":0.43478260869565216,"delta":0.23478260869565215,"bonus":0,"bonusSoFar":1.89,"totalExamples":13},{"rt":null,"stimulus":"Sending examples to student... ","response":null,"trial_type":"html-keyboard-response","trial_index":64,"time_elapsed":920622,"internal_node_id":"0.0-61.0","params":{"nStudents":24,"maxFlips":30,"completionMinutes":45,"basePay":8,"maxBonus":9,"perTrialBonus":0.5,"perTrialBonusThreshold":0.1,"exampleCost":0.01},"classroomParams":{"A":{"a":1,"b":4},"B":{"a":4,"b":1},"C":{"a":2,"b":8},"D":{"a":8,"b":2}},"conditions":["nonSeqFull","nonSeqPartial","seqNoFeedback","seqFeedback"],"classroomPairings":[["A","B"],["C","D"]],"coinWeights":[0.2,0.5,0.8],"subjectId":"A2QTL039A5VV3I","assignmentId":"3ZY8KE4ISKPFVLNQIAMMPR6IUIFQV4","hitId":"3QGHA0EA0JM3KKNCY0PQRLYAHJ3BWH","url":"https://gershmanlab.com/experiments/alicia/teaching/experiment/?hitId=3QGHA0EA0JM3KKNCY0PQRLYAHJ3BWH&workerId=A2QTL039A5VV3I&assignmentId=3ZY8KE4ISKPFVLNQIAMMPR6IUIFQV4&a=IKYZ8&tp_a=IKYZ8&b=3ZY8KE4ISKPFVLNQIAMMPR6IUIFQV4&tp_b=3ZY8KE4ISKPFVLNQIAMMPR6IUIFQV4&c=365198&tp_c=365198"},{"rt":null,"stimulus":"Examples sent to student! Waiting for student...","response":null,"trial_type":"html-keyboard-response","trial_index":65,"time_elapsed":926629,"internal_node_id":"0.0-62.0","params":{"nStudents":24,"maxFlips":30,"completionMinutes":45,"basePay":8,"maxBonus":9,"perTrialBonus":0.5,"perTrialBonusThreshold":0.1,"exampleCost":0.01},"classroomParams":{"A":{"a":1,"b":4},"B":{"a":4,"b":1},"C":{"a":2,"b":8},"D":{"a":8,"b":2}},"conditions":["nonSeqFull","nonSeqPartial","seqNoFeedback","seqFeedback"],"classroomPairings":[["A","B"],["C","D"]],"coinWeights":[0.2,0.5,0.8],"subjectId":"A2QTL039A5VV3I","assignmentId":"3ZY8KE4ISKPFVLNQIAMMPR6IUIFQV4","hitId":"3QGHA0EA0JM3KKNCY0PQRLYAHJ3BWH","url":"https://gershmanlab.com/experiments/alicia/teaching/experiment/?hitId=3QGHA0EA0JM3KKNCY0PQRLYAHJ3BWH&workerId=A2QTL039A5VV3I&assignmentId=3ZY8KE4ISKPFVLNQIAMMPR6IUIFQV4&a=IKYZ8&tp_a=IKYZ8&b=3ZY8KE4ISKPFVLNQIAMMPR6IUIFQV4&tp_b=3ZY8KE4ISKPFVLNQIAMMPR6IUIFQV4&c=365198&tp_c=365198"},{"rt":25047,"stimulus":"\n                <p>Student 8's first guess for coin weight: <b style=\"color:Tomato\";>0.60</b></p>\n                <p>Student 8's second guess for coin weight: <b style=\"color:Tomato\";>0.43</b></p>\n                <p>You received a bonus of <b>$0.00</b> based on the student's second guess.</p>\n                <p>Total bonus so far: <b>$1.89</b></p>\n                <p>Press any key to continue.</p>\n                ","response":" ","trial_type":"html-keyboard-response","trial_index":66,"time_elapsed":951680,"internal_node_id":"0.0-63.0","params":{"nStudents":24,"maxFlips":30,"completionMinutes":45,"basePay":8,"maxBonus":9,"perTrialBonus":0.5,"perTrialBonusThreshold":0.1,"exampleCost":0.01},"classroomParams":{"A":{"a":1,"b":4},"B":{"a":4,"b":1},"C":{"a":2,"b":8},"D":{"a":8,"b":2}},"conditions":["nonSeqFull","nonSeqPartial","seqNoFeedback","seqFeedback"],"classroomPairings":[["A","B"],["C","D"]],"coinWeights":[0.2,0.5,0.8],"subjectId":"A2QTL039A5VV3I","assignmentId":"3ZY8KE4ISKPFVLNQIAMMPR6IUIFQV4","hitId":"3QGHA0EA0JM3KKNCY0PQRLYAHJ3BWH","url":"https://gershmanlab.com/experiments/alicia/teaching/experiment/?hitId=3QGHA0EA0JM3KKNCY0PQRLYAHJ3BWH&workerId=A2QTL039A5VV3I&assignmentId=3ZY8KE4ISKPFVLNQIAMMPR6IUIFQV4&a=IKYZ8&tp_a=IKYZ8&b=3ZY8KE4ISKPFVLNQIAMMPR6IUIFQV4&tp_b=3ZY8KE4ISKPFVLNQIAMMPR6IUIFQV4&c=365198&tp_c=365198"},{"rt":null,"stimulus":"<div style=\"font-size:60px;\">Next student</div>","response":null,"trial_type":"html-keyboard-response","trial_index":67,"time_elapsed":954681,"internal_node_id":"0.0-64.0-0.0","params":{"nStudents":24,"maxFlips":30,"completionMinutes":45,"basePay":8,"maxBonus":9,"perTrialBonus":0.5,"perTrialBonusThreshold":0.1,"exampleCost":0.01},"classroomParams":{"A":{"a":1,"b":4},"B":{"a":4,"b":1},"C":{"a":2,"b":8},"D":{"a":8,"b":2}},"conditions":["nonSeqFull","nonSeqPartial","seqNoFeedback","seqFeedback"],"classroomPairings":[["A","B"],["C","D"]],"coinWeights":[0.2,0.5,0.8],"subjectId":"A2QTL039A5VV3I","assignmentId":"3ZY8KE4ISKPFVLNQIAMMPR6IUIFQV4","hitId":"3QGHA0EA0JM3KKNCY0PQRLYAHJ3BWH","url":"https://gershmanlab.com/experiments/alicia/teaching/experiment/?hitId=3QGHA0EA0JM3KKNCY0PQRLYAHJ3BWH&workerId=A2QTL039A5VV3I&assignmentId=3ZY8KE4ISKPFVLNQIAMMPR6IUIFQV4&a=IKYZ8&tp_a=IKYZ8&b=3ZY8KE4ISKPFVLNQIAMMPR6IUIFQV4&tp_b=3ZY8KE4ISKPFVLNQIAMMPR6IUIFQV4&c=365198&tp_c=365198"},{"rt":4844,"stimulus":"\n            <h4 style=\"color:Orange;\">Student 9</h4>\n            <h2>The weight of your coin is <b style=\"color:Tomato;\">0.2</b>.</h2>\n            <p>In this block, you will be giving <b>one</b> set of examples to Student 9.</p>\n                <p>You will receive feedback at the end of the block.</p>\n            ","response":0,"trial_type":"html-button-response","trial_index":68,"time_elapsed":959527,"internal_node_id":"0.0-65.0","params":{"nStudents":24,"maxFlips":30,"completionMinutes":45,"basePay":8,"maxBonus":9,"perTrialBonus":0.5,"perTrialBonusThreshold":0.1,"exampleCost":0.01},"classroomParams":{"A":{"a":1,"b":4},"B":{"a":4,"b":1},"C":{"a":2,"b":8},"D":{"a":8,"b":2}},"conditions":["nonSeqFull","nonSeqPartial","seqNoFeedback","seqFeedback"],"classroomPairings":[["A","B"],["C","D"]],"coinWeights":[0.2,0.5,0.8],"subjectId":"A2QTL039A5VV3I","assignmentId":"3ZY8KE4ISKPFVLNQIAMMPR6IUIFQV4","hitId":"3QGHA0EA0JM3KKNCY0PQRLYAHJ3BWH","url":"https://gershmanlab.com/experiments/alicia/teaching/experiment/?hitId=3QGHA0EA0JM3KKNCY0PQRLYAHJ3BWH&workerId=A2QTL039A5VV3I&assignmentId=3ZY8KE4ISKPFVLNQIAMMPR6IUIFQV4&a=IKYZ8&tp_a=IKYZ8&b=3ZY8KE4ISKPFVLNQIAMMPR6IUIFQV4&tp_b=3ZY8KE4ISKPFVLNQIAMMPR6IUIFQV4&c=365198&tp_c=365198"},{"rt":4422,"response":{"heads":"0","tails":"5"},"type":"response","condition":"nonSeqPartial","trueTheta":0.2,"classrooms":["A","B"],"studentTrueClassroom":"A","exampleSet":"first","trial_type":"survey-html-form","trial_index":69,"time_elapsed":963951,"internal_node_id":"0.0-66.0-0.0","params":{"nStudents":24,"maxFlips":30,"completionMinutes":45,"basePay":8,"maxBonus":9,"perTrialBonus":0.5,"perTrialBonusThreshold":0.1,"exampleCost":0.01},"classroomParams":{"A":{"a":1,"b":4},"B":{"a":4,"b":1},"C":{"a":2,"b":8},"D":{"a":8,"b":2}},"conditions":["nonSeqFull","nonSeqPartial","seqNoFeedback","seqFeedback"],"classroomPairings":[["A","B"],["C","D"]],"coinWeights":[0.2,0.5,0.8],"subjectId":"A2QTL039A5VV3I","assignmentId":"3ZY8KE4ISKPFVLNQIAMMPR6IUIFQV4","hitId":"3QGHA0EA0JM3KKNCY0PQRLYAHJ3BWH","url":"https://gershmanlab.com/experiments/alicia/teaching/experiment/?hitId=3QGHA0EA0JM3KKNCY0PQRLYAHJ3BWH&workerId=A2QTL039A5VV3I&assignmentId=3ZY8KE4ISKPFVLNQIAMMPR6IUIFQV4&a=IKYZ8&tp_a=IKYZ8&b=3ZY8KE4ISKPFVLNQIAMMPR6IUIFQV4&tp_b=3ZY8KE4ISKPFVLNQIAMMPR6IUIFQV4&c=365198&tp_c=365198","heads":0,"tails":5,"studentIndex":8,"studentTrueHypers":{"a":1,"b":4},"studentGuess":0.1,"delta":0.1,"totalExamples":5,"bonus":0.45,"bonusSoFar":2.34},{"rt":null,"stimulus":"Sending examples to student... ","response":null,"trial_type":"html-keyboard-response","trial_index":70,"time_elapsed":965711,"internal_node_id":"0.0-67.0","params":{"nStudents":24,"maxFlips":30,"completionMinutes":45,"basePay":8,"maxBonus":9,"perTrialBonus":0.5,"perTrialBonusThreshold":0.1,"exampleCost":0.01},"classroomParams":{"A":{"a":1,"b":4},"B":{"a":4,"b":1},"C":{"a":2,"b":8},"D":{"a":8,"b":2}},"conditions":["nonSeqFull","nonSeqPartial","seqNoFeedback","seqFeedback"],"classroomPairings":[["A","B"],["C","D"]],"coinWeights":[0.2,0.5,0.8],"subjectId":"A2QTL039A5VV3I","assignmentId":"3ZY8KE4ISKPFVLNQIAMMPR6IUIFQV4","hitId":"3QGHA0EA0JM3KKNCY0PQRLYAHJ3BWH","url":"https://gershmanlab.com/experiments/alicia/teaching/experiment/?hitId=3QGHA0EA0JM3KKNCY0PQRLYAHJ3BWH&workerId=A2QTL039A5VV3I&assignmentId=3ZY8KE4ISKPFVLNQIAMMPR6IUIFQV4&a=IKYZ8&tp_a=IKYZ8&b=3ZY8KE4ISKPFVLNQIAMMPR6IUIFQV4&tp_b=3ZY8KE4ISKPFVLNQIAMMPR6IUIFQV4&c=365198&tp_c=365198"},{"rt":null,"stimulus":"Examples sent to student! Waiting for student...","response":null,"trial_type":"html-keyboard-response","trial_index":71,"time_elapsed":970221,"internal_node_id":"0.0-68.0","params":{"nStudents":24,"maxFlips":30,"completionMinutes":45,"basePay":8,"maxBonus":9,"perTrialBonus":0.5,"perTrialBonusThreshold":0.1,"exampleCost":0.01},"classroomParams":{"A":{"a":1,"b":4},"B":{"a":4,"b":1},"C":{"a":2,"b":8},"D":{"a":8,"b":2}},"conditions":["nonSeqFull","nonSeqPartial","seqNoFeedback","seqFeedback"],"classroomPairings":[["A","B"],["C","D"]],"coinWeights":[0.2,0.5,0.8],"subjectId":"A2QTL039A5VV3I","assignmentId":"3ZY8KE4ISKPFVLNQIAMMPR6IUIFQV4","hitId":"3QGHA0EA0JM3KKNCY0PQRLYAHJ3BWH","url":"https://gershmanlab.com/experiments/alicia/teaching/experiment/?hitId=3QGHA0EA0JM3KKNCY0PQRLYAHJ3BWH&workerId=A2QTL039A5VV3I&assignmentId=3ZY8KE4ISKPFVLNQIAMMPR6IUIFQV4&a=IKYZ8&tp_a=IKYZ8&b=3ZY8KE4ISKPFVLNQIAMMPR6IUIFQV4&tp_b=3ZY8KE4ISKPFVLNQIAMMPR6IUIFQV4&c=365198&tp_c=365198"},{"rt":12569,"stimulus":"\n                <p>Student's guess for coin weight: <b style=\"color:Tomato;\">0.10</b></p>\n                <p>You received a bonus of <b>$0.45</b>. Total bonus so far: <b>$2.34</b></b></p>\n                <p> Press any key to continue.</p>\n                ","response":"d","trial_type":"html-keyboard-response","trial_index":72,"time_elapsed":982793,"internal_node_id":"0.0-69.0","params":{"nStudents":24,"maxFlips":30,"completionMinutes":45,"basePay":8,"maxBonus":9,"perTrialBonus":0.5,"perTrialBonusThreshold":0.1,"exampleCost":0.01},"classroomParams":{"A":{"a":1,"b":4},"B":{"a":4,"b":1},"C":{"a":2,"b":8},"D":{"a":8,"b":2}},"conditions":["nonSeqFull","nonSeqPartial","seqNoFeedback","seqFeedback"],"classroomPairings":[["A","B"],["C","D"]],"coinWeights":[0.2,0.5,0.8],"subjectId":"A2QTL039A5VV3I","assignmentId":"3ZY8KE4ISKPFVLNQIAMMPR6IUIFQV4","hitId":"3QGHA0EA0JM3KKNCY0PQRLYAHJ3BWH","url":"https://gershmanlab.com/experiments/alicia/teaching/experiment/?hitId=3QGHA0EA0JM3KKNCY0PQRLYAHJ3BWH&workerId=A2QTL039A5VV3I&assignmentId=3ZY8KE4ISKPFVLNQIAMMPR6IUIFQV4&a=IKYZ8&tp_a=IKYZ8&b=3ZY8KE4ISKPFVLNQIAMMPR6IUIFQV4&tp_b=3ZY8KE4ISKPFVLNQIAMMPR6IUIFQV4&c=365198&tp_c=365198"},{"rt":null,"stimulus":"<div style=\"font-size:60px;\">Next student</div>","response":null,"trial_type":"html-keyboard-response","trial_index":73,"time_elapsed":985047,"internal_node_id":"0.0-70.0-0.0","params":{"nStudents":24,"maxFlips":30,"completionMinutes":45,"basePay":8,"maxBonus":9,"perTrialBonus":0.5,"perTrialBonusThreshold":0.1,"exampleCost":0.01},"classroomParams":{"A":{"a":1,"b":4},"B":{"a":4,"b":1},"C":{"a":2,"b":8},"D":{"a":8,"b":2}},"conditions":["nonSeqFull","nonSeqPartial","seqNoFeedback","seqFeedback"],"classroomPairings":[["A","B"],["C","D"]],"coinWeights":[0.2,0.5,0.8],"subjectId":"A2QTL039A5VV3I","assignmentId":"3ZY8KE4ISKPFVLNQIAMMPR6IUIFQV4","hitId":"3QGHA0EA0JM3KKNCY0PQRLYAHJ3BWH","url":"https://gershmanlab.com/experiments/alicia/teaching/experiment/?hitId=3QGHA0EA0JM3KKNCY0PQRLYAHJ3BWH&workerId=A2QTL039A5VV3I&assignmentId=3ZY8KE4ISKPFVLNQIAMMPR6IUIFQV4&a=IKYZ8&tp_a=IKYZ8&b=3ZY8KE4ISKPFVLNQIAMMPR6IUIFQV4&tp_b=3ZY8KE4ISKPFVLNQIAMMPR6IUIFQV4&c=365198&tp_c=365198"},{"rt":1787,"stimulus":"\n            <h4 style=\"color:Orange;\">Student 10</h4>\n            <h2>The weight of your coin is <b style=\"color:Tomato;\">0.8</b>.</h2>\n            <p>In this block, you will be giving <b>one</b> set of examples to Student 10.</p>\n                <p>You will receive feedback at the end of the block.</p>\n            ","response":0,"trial_type":"html-button-response","trial_index":74,"time_elapsed":986835,"internal_node_id":"0.0-71.0","params":{"nStudents":24,"maxFlips":30,"completionMinutes":45,"basePay":8,"maxBonus":9,"perTrialBonus":0.5,"perTrialBonusThreshold":0.1,"exampleCost":0.01},"classroomParams":{"A":{"a":1,"b":4},"B":{"a":4,"b":1},"C":{"a":2,"b":8},"D":{"a":8,"b":2}},"conditions":["nonSeqFull","nonSeqPartial","seqNoFeedback","seqFeedback"],"classroomPairings":[["A","B"],["C","D"]],"coinWeights":[0.2,0.5,0.8],"subjectId":"A2QTL039A5VV3I","assignmentId":"3ZY8KE4ISKPFVLNQIAMMPR6IUIFQV4","hitId":"3QGHA0EA0JM3KKNCY0PQRLYAHJ3BWH","url":"https://gershmanlab.com/experiments/alicia/teaching/experiment/?hitId=3QGHA0EA0JM3KKNCY0PQRLYAHJ3BWH&workerId=A2QTL039A5VV3I&assignmentId=3ZY8KE4ISKPFVLNQIAMMPR6IUIFQV4&a=IKYZ8&tp_a=IKYZ8&b=3ZY8KE4ISKPFVLNQIAMMPR6IUIFQV4&tp_b=3ZY8KE4ISKPFVLNQIAMMPR6IUIFQV4&c=365198&tp_c=365198"},{"rt":2370,"response":{"heads":"4","tails":"0"},"type":"response","condition":"nonSeqFull","trueTheta":0.8,"classrooms":["C","D"],"studentTrueClassroom":"D","exampleSet":"first","trial_type":"survey-html-form","trial_index":75,"time_elapsed":989208,"internal_node_id":"0.0-72.0-0.0","params":{"nStudents":24,"maxFlips":30,"completionMinutes":45,"basePay":8,"maxBonus":9,"perTrialBonus":0.5,"perTrialBonusThreshold":0.1,"exampleCost":0.01},"classroomParams":{"A":{"a":1,"b":4},"B":{"a":4,"b":1},"C":{"a":2,"b":8},"D":{"a":8,"b":2}},"conditions":["nonSeqFull","nonSeqPartial","seqNoFeedback","seqFeedback"],"classroomPairings":[["A","B"],["C","D"]],"coinWeights":[0.2,0.5,0.8],"subjectId":"A2QTL039A5VV3I","assignmentId":"3ZY8KE4ISKPFVLNQIAMMPR6IUIFQV4","hitId":"3QGHA0EA0JM3KKNCY0PQRLYAHJ3BWH","url":"https://gershmanlab.com/experiments/alicia/teaching/experiment/?hitId=3QGHA0EA0JM3KKNCY0PQRLYAHJ3BWH&workerId=A2QTL039A5VV3I&assignmentId=3ZY8KE4ISKPFVLNQIAMMPR6IUIFQV4&a=IKYZ8&tp_a=IKYZ8&b=3ZY8KE4ISKPFVLNQIAMMPR6IUIFQV4&tp_b=3ZY8KE4ISKPFVLNQIAMMPR6IUIFQV4&c=365198&tp_c=365198","heads":4,"tails":0,"studentIndex":9,"studentTrueHypers":{"a":8,"b":2},"studentGuess":0.8571428571428571,"delta":0.05714285714285705,"totalExamples":4,"bonus":0.46,"bonusSoFar":2.8},{"rt":null,"stimulus":"Sending examples to student... ","response":null,"trial_type":"html-keyboard-response","trial_index":76,"time_elapsed":990464,"internal_node_id":"0.0-73.0","params":{"nStudents":24,"maxFlips":30,"completionMinutes":45,"basePay":8,"maxBonus":9,"perTrialBonus":0.5,"perTrialBonusThreshold":0.1,"exampleCost":0.01},"classroomParams":{"A":{"a":1,"b":4},"B":{"a":4,"b":1},"C":{"a":2,"b":8},"D":{"a":8,"b":2}},"conditions":["nonSeqFull","nonSeqPartial","seqNoFeedback","seqFeedback"],"classroomPairings":[["A","B"],["C","D"]],"coinWeights":[0.2,0.5,0.8],"subjectId":"A2QTL039A5VV3I","assignmentId":"3ZY8KE4ISKPFVLNQIAMMPR6IUIFQV4","hitId":"3QGHA0EA0JM3KKNCY0PQRLYAHJ3BWH","url":"https://gershmanlab.com/experiments/alicia/teaching/experiment/?hitId=3QGHA0EA0JM3KKNCY0PQRLYAHJ3BWH&workerId=A2QTL039A5VV3I&assignmentId=3ZY8KE4ISKPFVLNQIAMMPR6IUIFQV4&a=IKYZ8&tp_a=IKYZ8&b=3ZY8KE4ISKPFVLNQIAMMPR6IUIFQV4&tp_b=3ZY8KE4ISKPFVLNQIAMMPR6IUIFQV4&c=365198&tp_c=365198"},{"rt":null,"stimulus":"Examples sent to student! Waiting for student...","response":null,"trial_type":"html-keyboard-response","trial_index":77,"time_elapsed":994471,"internal_node_id":"0.0-74.0","params":{"nStudents":24,"maxFlips":30,"completionMinutes":45,"basePay":8,"maxBonus":9,"perTrialBonus":0.5,"perTrialBonusThreshold":0.1,"exampleCost":0.01},"classroomParams":{"A":{"a":1,"b":4},"B":{"a":4,"b":1},"C":{"a":2,"b":8},"D":{"a":8,"b":2}},"conditions":["nonSeqFull","nonSeqPartial","seqNoFeedback","seqFeedback"],"classroomPairings":[["A","B"],["C","D"]],"coinWeights":[0.2,0.5,0.8],"subjectId":"A2QTL039A5VV3I","assignmentId":"3ZY8KE4ISKPFVLNQIAMMPR6IUIFQV4","hitId":"3QGHA0EA0JM3KKNCY0PQRLYAHJ3BWH","url":"https://gershmanlab.com/experiments/alicia/teaching/experiment/?hitId=3QGHA0EA0JM3KKNCY0PQRLYAHJ3BWH&workerId=A2QTL039A5VV3I&assignmentId=3ZY8KE4ISKPFVLNQIAMMPR6IUIFQV4&a=IKYZ8&tp_a=IKYZ8&b=3ZY8KE4ISKPFVLNQIAMMPR6IUIFQV4&tp_b=3ZY8KE4ISKPFVLNQIAMMPR6IUIFQV4&c=365198&tp_c=365198"},{"rt":3717,"stimulus":"\n                <p>Student's guess for coin weight: <b style=\"color:Tomato;\">0.86</b></p>\n                <p>You received a bonus of <b>$0.46</b>. Total bonus so far: <b>$2.80</b></b></p>\n                <p> Press any key to continue.</p>\n                ","response":" ","trial_type":"html-keyboard-response","trial_index":78,"time_elapsed":998190,"internal_node_id":"0.0-75.0","params":{"nStudents":24,"maxFlips":30,"completionMinutes":45,"basePay":8,"maxBonus":9,"perTrialBonus":0.5,"perTrialBonusThreshold":0.1,"exampleCost":0.01},"classroomParams":{"A":{"a":1,"b":4},"B":{"a":4,"b":1},"C":{"a":2,"b":8},"D":{"a":8,"b":2}},"conditions":["nonSeqFull","nonSeqPartial","seqNoFeedback","seqFeedback"],"classroomPairings":[["A","B"],["C","D"]],"coinWeights":[0.2,0.5,0.8],"subjectId":"A2QTL039A5VV3I","assignmentId":"3ZY8KE4ISKPFVLNQIAMMPR6IUIFQV4","hitId":"3QGHA0EA0JM3KKNCY0PQRLYAHJ3BWH","url":"https://gershmanlab.com/experiments/alicia/teaching/experiment/?hitId=3QGHA0EA0JM3KKNCY0PQRLYAHJ3BWH&workerId=A2QTL039A5VV3I&assignmentId=3ZY8KE4ISKPFVLNQIAMMPR6IUIFQV4&a=IKYZ8&tp_a=IKYZ8&b=3ZY8KE4ISKPFVLNQIAMMPR6IUIFQV4&tp_b=3ZY8KE4ISKPFVLNQIAMMPR6IUIFQV4&c=365198&tp_c=365198"},{"rt":null,"stimulus":"<div style=\"font-size:60px;\">Next student</div>","response":null,"trial_type":"html-keyboard-response","trial_index":79,"time_elapsed":1000450,"internal_node_id":"0.0-76.0-0.0","params":{"nStudents":24,"maxFlips":30,"completionMinutes":45,"basePay":8,"maxBonus":9,"perTrialBonus":0.5,"perTrialBonusThreshold":0.1,"exampleCost":0.01},"classroomParams":{"A":{"a":1,"b":4},"B":{"a":4,"b":1},"C":{"a":2,"b":8},"D":{"a":8,"b":2}},"conditions":["nonSeqFull","nonSeqPartial","seqNoFeedback","seqFeedback"],"classroomPairings":[["A","B"],["C","D"]],"coinWeights":[0.2,0.5,0.8],"subjectId":"A2QTL039A5VV3I","assignmentId":"3ZY8KE4ISKPFVLNQIAMMPR6IUIFQV4","hitId":"3QGHA0EA0JM3KKNCY0PQRLYAHJ3BWH","url":"https://gershmanlab.com/experiments/alicia/teaching/experiment/?hitId=3QGHA0EA0JM3KKNCY0PQRLYAHJ3BWH&workerId=A2QTL039A5VV3I&assignmentId=3ZY8KE4ISKPFVLNQIAMMPR6IUIFQV4&a=IKYZ8&tp_a=IKYZ8&b=3ZY8KE4ISKPFVLNQIAMMPR6IUIFQV4&tp_b=3ZY8KE4ISKPFVLNQIAMMPR6IUIFQV4&c=365198&tp_c=365198"},{"rt":1882,"stimulus":"\n            <h4 style=\"color:Orange;\">Student 11</h4>\n            <h2>The weight of your coin is <b style=\"color:Tomato;\">0.2</b>.</h2>\n            <p>In this block, you will be giving <b>one</b> set of examples to Student 11.</p>\n                <p>You will receive feedback at the end of the block.</p>\n            ","response":0,"trial_type":"html-button-response","trial_index":80,"time_elapsed":1002335,"internal_node_id":"0.0-77.0","params":{"nStudents":24,"maxFlips":30,"completionMinutes":45,"basePay":8,"maxBonus":9,"perTrialBonus":0.5,"perTrialBonusThreshold":0.1,"exampleCost":0.01},"classroomParams":{"A":{"a":1,"b":4},"B":{"a":4,"b":1},"C":{"a":2,"b":8},"D":{"a":8,"b":2}},"conditions":["nonSeqFull","nonSeqPartial","seqNoFeedback","seqFeedback"],"classroomPairings":[["A","B"],["C","D"]],"coinWeights":[0.2,0.5,0.8],"subjectId":"A2QTL039A5VV3I","assignmentId":"3ZY8KE4ISKPFVLNQIAMMPR6IUIFQV4","hitId":"3QGHA0EA0JM3KKNCY0PQRLYAHJ3BWH","url":"https://gershmanlab.com/experiments/alicia/teaching/experiment/?hitId=3QGHA0EA0JM3KKNCY0PQRLYAHJ3BWH&workerId=A2QTL039A5VV3I&assignmentId=3ZY8KE4ISKPFVLNQIAMMPR6IUIFQV4&a=IKYZ8&tp_a=IKYZ8&b=3ZY8KE4ISKPFVLNQIAMMPR6IUIFQV4&tp_b=3ZY8KE4ISKPFVLNQIAMMPR6IUIFQV4&c=365198&tp_c=365198"},{"rt":3047,"response":{"heads":"0","tails":"4"},"type":"response","condition":"nonSeqFull","trueTheta":0.2,"classrooms":["C","D"],"studentTrueClassroom":"D","exampleSet":"first","trial_type":"survey-html-form","trial_index":81,"time_elapsed":1005384,"internal_node_id":"0.0-78.0-0.0","params":{"nStudents":24,"maxFlips":30,"completionMinutes":45,"basePay":8,"maxBonus":9,"perTrialBonus":0.5,"perTrialBonusThreshold":0.1,"exampleCost":0.01},"classroomParams":{"A":{"a":1,"b":4},"B":{"a":4,"b":1},"C":{"a":2,"b":8},"D":{"a":8,"b":2}},"conditions":["nonSeqFull","nonSeqPartial","seqNoFeedback","seqFeedback"],"classroomPairings":[["A","B"],["C","D"]],"coinWeights":[0.2,0.5,0.8],"subjectId":"A2QTL039A5VV3I","assignmentId":"3ZY8KE4ISKPFVLNQIAMMPR6IUIFQV4","hitId":"3QGHA0EA0JM3KKNCY0PQRLYAHJ3BWH","url":"https://gershmanlab.com/experiments/alicia/teaching/experiment/?hitId=3QGHA0EA0JM3KKNCY0PQRLYAHJ3BWH&workerId=A2QTL039A5VV3I&assignmentId=3ZY8KE4ISKPFVLNQIAMMPR6IUIFQV4&a=IKYZ8&tp_a=IKYZ8&b=3ZY8KE4ISKPFVLNQIAMMPR6IUIFQV4&tp_b=3ZY8KE4ISKPFVLNQIAMMPR6IUIFQV4&c=365198&tp_c=365198","heads":0,"tails":4,"studentIndex":10,"studentTrueHypers":{"a":8,"b":2},"studentGuess":0.5714285714285714,"delta":0.3714285714285714,"totalExamples":4,"bonus":0,"bonusSoFar":2.8},{"rt":null,"stimulus":"Sending examples to student... ","response":null,"trial_type":"html-keyboard-response","trial_index":82,"time_elapsed":1006644,"internal_node_id":"0.0-79.0","params":{"nStudents":24,"maxFlips":30,"completionMinutes":45,"basePay":8,"maxBonus":9,"perTrialBonus":0.5,"perTrialBonusThreshold":0.1,"exampleCost":0.01},"classroomParams":{"A":{"a":1,"b":4},"B":{"a":4,"b":1},"C":{"a":2,"b":8},"D":{"a":8,"b":2}},"conditions":["nonSeqFull","nonSeqPartial","seqNoFeedback","seqFeedback"],"classroomPairings":[["A","B"],["C","D"]],"coinWeights":[0.2,0.5,0.8],"subjectId":"A2QTL039A5VV3I","assignmentId":"3ZY8KE4ISKPFVLNQIAMMPR6IUIFQV4","hitId":"3QGHA0EA0JM3KKNCY0PQRLYAHJ3BWH","url":"https://gershmanlab.com/experiments/alicia/teaching/experiment/?hitId=3QGHA0EA0JM3KKNCY0PQRLYAHJ3BWH&workerId=A2QTL039A5VV3I&assignmentId=3ZY8KE4ISKPFVLNQIAMMPR6IUIFQV4&a=IKYZ8&tp_a=IKYZ8&b=3ZY8KE4ISKPFVLNQIAMMPR6IUIFQV4&tp_b=3ZY8KE4ISKPFVLNQIAMMPR6IUIFQV4&c=365198&tp_c=365198"},{"rt":null,"stimulus":"Examples sent to student! Waiting for student...","response":null,"trial_type":"html-keyboard-response","trial_index":83,"time_elapsed":1012151,"internal_node_id":"0.0-80.0","params":{"nStudents":24,"maxFlips":30,"completionMinutes":45,"basePay":8,"maxBonus":9,"perTrialBonus":0.5,"perTrialBonusThreshold":0.1,"exampleCost":0.01},"classroomParams":{"A":{"a":1,"b":4},"B":{"a":4,"b":1},"C":{"a":2,"b":8},"D":{"a":8,"b":2}},"conditions":["nonSeqFull","nonSeqPartial","seqNoFeedback","seqFeedback"],"classroomPairings":[["A","B"],["C","D"]],"coinWeights":[0.2,0.5,0.8],"subjectId":"A2QTL039A5VV3I","assignmentId":"3ZY8KE4ISKPFVLNQIAMMPR6IUIFQV4","hitId":"3QGHA0EA0JM3KKNCY0PQRLYAHJ3BWH","url":"https://gershmanlab.com/experiments/alicia/teaching/experiment/?hitId=3QGHA0EA0JM3KKNCY0PQRLYAHJ3BWH&workerId=A2QTL039A5VV3I&assignmentId=3ZY8KE4ISKPFVLNQIAMMPR6IUIFQV4&a=IKYZ8&tp_a=IKYZ8&b=3ZY8KE4ISKPFVLNQIAMMPR6IUIFQV4&tp_b=3ZY8KE4ISKPFVLNQIAMMPR6IUIFQV4&c=365198&tp_c=365198"},{"rt":8680,"stimulus":"\n                <p>Student's guess for coin weight: <b style=\"color:Tomato;\">0.57</b></p>\n                <p>You received a bonus of <b>$0</b>. Total bonus so far: <b>$2.80</b></b></p>\n                <p> Press any key to continue.</p>\n                ","response":" ","trial_type":"html-keyboard-response","trial_index":84,"time_elapsed":1020833,"internal_node_id":"0.0-81.0","params":{"nStudents":24,"maxFlips":30,"completionMinutes":45,"basePay":8,"maxBonus":9,"perTrialBonus":0.5,"perTrialBonusThreshold":0.1,"exampleCost":0.01},"classroomParams":{"A":{"a":1,"b":4},"B":{"a":4,"b":1},"C":{"a":2,"b":8},"D":{"a":8,"b":2}},"conditions":["nonSeqFull","nonSeqPartial","seqNoFeedback","seqFeedback"],"classroomPairings":[["A","B"],["C","D"]],"coinWeights":[0.2,0.5,0.8],"subjectId":"A2QTL039A5VV3I","assignmentId":"3ZY8KE4ISKPFVLNQIAMMPR6IUIFQV4","hitId":"3QGHA0EA0JM3KKNCY0PQRLYAHJ3BWH","url":"https://gershmanlab.com/experiments/alicia/teaching/experiment/?hitId=3QGHA0EA0JM3KKNCY0PQRLYAHJ3BWH&workerId=A2QTL039A5VV3I&assignmentId=3ZY8KE4ISKPFVLNQIAMMPR6IUIFQV4&a=IKYZ8&tp_a=IKYZ8&b=3ZY8KE4ISKPFVLNQIAMMPR6IUIFQV4&tp_b=3ZY8KE4ISKPFVLNQIAMMPR6IUIFQV4&c=365198&tp_c=365198"},{"rt":null,"stimulus":"<div style=\"font-size:60px;\">Next student</div>","response":null,"trial_type":"html-keyboard-response","trial_index":85,"time_elapsed":1023336,"internal_node_id":"0.0-82.0-0.0","params":{"nStudents":24,"maxFlips":30,"completionMinutes":45,"basePay":8,"maxBonus":9,"perTrialBonus":0.5,"perTrialBonusThreshold":0.1,"exampleCost":0.01},"classroomParams":{"A":{"a":1,"b":4},"B":{"a":4,"b":1},"C":{"a":2,"b":8},"D":{"a":8,"b":2}},"conditions":["nonSeqFull","nonSeqPartial","seqNoFeedback","seqFeedback"],"classroomPairings":[["A","B"],["C","D"]],"coinWeights":[0.2,0.5,0.8],"subjectId":"A2QTL039A5VV3I","assignmentId":"3ZY8KE4ISKPFVLNQIAMMPR6IUIFQV4","hitId":"3QGHA0EA0JM3KKNCY0PQRLYAHJ3BWH","url":"https://gershmanlab.com/experiments/alicia/teaching/experiment/?hitId=3QGHA0EA0JM3KKNCY0PQRLYAHJ3BWH&workerId=A2QTL039A5VV3I&assignmentId=3ZY8KE4ISKPFVLNQIAMMPR6IUIFQV4&a=IKYZ8&tp_a=IKYZ8&b=3ZY8KE4ISKPFVLNQIAMMPR6IUIFQV4&tp_b=3ZY8KE4ISKPFVLNQIAMMPR6IUIFQV4&c=365198&tp_c=365198"},{"rt":5657,"stimulus":"\n            <h4 style=\"color:Orange;\">Student 12</h4>\n            <h2>The weight of your coin is <b style=\"color:Tomato;\">0.8</b>.</h2>\n            <p>In this block, you will be giving <b>one</b> set of examples to Student 12.</p>\n                <p>You will receive feedback at the end of the block.</p>\n            ","response":0,"trial_type":"html-button-response","trial_index":86,"time_elapsed":1028995,"internal_node_id":"0.0-83.0","params":{"nStudents":24,"maxFlips":30,"completionMinutes":45,"basePay":8,"maxBonus":9,"perTrialBonus":0.5,"perTrialBonusThreshold":0.1,"exampleCost":0.01},"classroomParams":{"A":{"a":1,"b":4},"B":{"a":4,"b":1},"C":{"a":2,"b":8},"D":{"a":8,"b":2}},"conditions":["nonSeqFull","nonSeqPartial","seqNoFeedback","seqFeedback"],"classroomPairi