[{"rt":9895,"stimulus":"Welcome to the experiment. Press any key to begin.","response":"enter","trial_type":"html-keyboard-response","trial_index":0,"time_elapsed":9929,"internal_node_id":"0.0-0.0","params":{"nStudents":24,"maxFlips":30,"completionMinutes":45,"basePay":8,"maxBonus":9,"perTrialBonus":0.5,"perTrialBonusThreshold":0.1,"exampleCost":0.01},"classroomParams":{"A":{"a":1,"b":4},"B":{"a":4,"b":1},"C":{"a":2,"b":8},"D":{"a":8,"b":2}},"conditions":["nonSeqFull","nonSeqPartial","seqNoFeedback","seqFeedback"],"classroomPairings":[["A","B"],["C","D"]],"coinWeights":[0.2,0.5,0.8],"subjectId":"A34YDGVZKRJ0LZ","assignmentId":"3OLQQLKKNTBH7NXRSUD3SM6AGSKJE0","hitId":"3QGHA0EA0JM3KKNCY0PQRLYAHJ3BWH","url":"https://gershmanlab.com/experiments/alicia/teaching/experiment/?hitId=3QGHA0EA0JM3KKNCY0PQRLYAHJ3BWH&workerId=A34YDGVZKRJ0LZ&assignmentId=3OLQQLKKNTBH7NXRSUD3SM6AGSKJE0&a=KQLO8&tp_a=KQLO8&b=3OLQQLKKNTBH7NXRSUD3SM6AGSKJE0&tp_b=3OLQQLKKNTBH7NXRSUD3SM6AGSKJE0&c=365198&tp_c=365198"},{"rt":15089,"stimulus":"\n        <h3>Please read this consent agreement carefully before deciding whether to participate in this experiment.</h3>\n        <p><b>Purpose of the research:</b> To examine how people teach effectively.</p>\n        <p><b>What you will do in this research:</b> You will teach students the weights of different coins.</p>\n        <p><b>Time required:</b> This experiment will take 45 minutes to complete.</p>\n        <p><b>Risks:</b> There are no anticipated risks associated with participating in this study.             The effects of participating should be comparable to those you would experience from viewing a computer monitor             and using a mouse and keyboard for the duration of the experiment.</p>\n        <p><b>Benefits:</b> The study provides important information about the nature of teaching.</p>\n        <p><b>Compensation:</b> You will receive <b>$8</b> for completing the experiment and a performance bonus of up to <b>$9</b>.</p>\n        <p><b>Confidentiality:</b> Your participation in this study will remain confidential.             No personally identifiable information will be associated with your data.             Your de-identified data may be shared with other researchers and used in future projects.</p>\n        <p><b>Participation and withdrawal:</b> Your participation in this study is completely voluntary and             you may refuse to participate or you may choose to withdraw at any time without penalty or loss of\n            benefits to which you are otherwise entitled.</p>\n        <p><b>How to contact the researcher:</b> If you have questions or concerns about your participation            or payment, or want to request a summary of research findings, please contact\n            Alicia Chen, aliciachen@college.harvard.edu.</p>\n        <p><b>Whom to contact about your rights in this research:</b> For questions, concerns, suggestions,             or complaints that have not been or cannot be addressed by the researcher, or to report             research-related harm, please contact the Committee on the Use of Human Subjects in Research at Harvard University,             1414 Massachusetts Avenue, Second Floor, Cambridge, MA 02138. Phone: 617-496-2847. Email: cuhs@fas.harvard.edu.</p>\n        ","response":0,"trial_type":"html-button-response","trial_index":1,"time_elapsed":25021,"internal_node_id":"0.0-1.0","params":{"nStudents":24,"maxFlips":30,"completionMinutes":45,"basePay":8,"maxBonus":9,"perTrialBonus":0.5,"perTrialBonusThreshold":0.1,"exampleCost":0.01},"classroomParams":{"A":{"a":1,"b":4},"B":{"a":4,"b":1},"C":{"a":2,"b":8},"D":{"a":8,"b":2}},"conditions":["nonSeqFull","nonSeqPartial","seqNoFeedback","seqFeedback"],"classroomPairings":[["A","B"],["C","D"]],"coinWeights":[0.2,0.5,0.8],"subjectId":"A34YDGVZKRJ0LZ","assignmentId":"3OLQQLKKNTBH7NXRSUD3SM6AGSKJE0","hitId":"3QGHA0EA0JM3KKNCY0PQRLYAHJ3BWH","url":"https://gershmanlab.com/experiments/alicia/teaching/experiment/?hitId=3QGHA0EA0JM3KKNCY0PQRLYAHJ3BWH&workerId=A34YDGVZKRJ0LZ&assignmentId=3OLQQLKKNTBH7NXRSUD3SM6AGSKJE0&a=KQLO8&tp_a=KQLO8&b=3OLQQLKKNTBH7NXRSUD3SM6AGSKJE0&tp_b=3OLQQLKKNTBH7NXRSUD3SM6AGSKJE0&c=365198&tp_c=365198"},{"view_history":[{"page_index":0,"viewing_time":6394},{"page_index":1,"viewing_time":4865},{"page_index":2,"viewing_time":54526},{"page_index":3,"viewing_time":26040},{"page_index":4,"viewing_time":94695},{"page_index":5,"viewing_time":28576},{"page_index":6,"viewing_time":55750}],"rt":270846,"trial_type":"instructions","trial_index":2,"time_elapsed":295876,"internal_node_id":"0.0-2.0-0.0","params":{"nStudents":24,"maxFlips":30,"completionMinutes":45,"basePay":8,"maxBonus":9,"perTrialBonus":0.5,"perTrialBonusThreshold":0.1,"exampleCost":0.01},"classroomParams":{"A":{"a":1,"b":4},"B":{"a":4,"b":1},"C":{"a":2,"b":8},"D":{"a":8,"b":2}},"conditions":["nonSeqFull","nonSeqPartial","seqNoFeedback","seqFeedback"],"classroomPairings":[["A","B"],["C","D"]],"coinWeights":[0.2,0.5,0.8],"subjectId":"A34YDGVZKRJ0LZ","assignmentId":"3OLQQLKKNTBH7NXRSUD3SM6AGSKJE0","hitId":"3QGHA0EA0JM3KKNCY0PQRLYAHJ3BWH","url":"https://gershmanlab.com/experiments/alicia/teaching/experiment/?hitId=3QGHA0EA0JM3KKNCY0PQRLYAHJ3BWH&workerId=A34YDGVZKRJ0LZ&assignmentId=3OLQQLKKNTBH7NXRSUD3SM6AGSKJE0&a=KQLO8&tp_a=KQLO8&b=3OLQQLKKNTBH7NXRSUD3SM6AGSKJE0&tp_b=3OLQQLKKNTBH7NXRSUD3SM6AGSKJE0&c=365198&tp_c=365198"},{"rt":116879,"response":{"Q0":"Students in different classrooms will have seen a different number of heads and tails before seeing the examples you select for them.","Q1":"By teaching efficiently and accurately/helpfully at the same time (because each example I give to the student costs money!).","Q2":"The coin lands heads 90% of the time.","Q3":"No, I will teach a <b>new</b> student each time.","Q4":"The students are also on the same alien planet as you, where coins can be unfair.","Q5":"Based on the student's second (and final) guess."},"question_order":[0,3,4,5,2,1],"trial_type":"survey-multi-choice","trial_index":3,"time_elapsed":412767,"internal_node_id":"0.0-2.0-1.0","params":{"nStudents":24,"maxFlips":30,"completionMinutes":45,"basePay":8,"maxBonus":9,"perTrialBonus":0.5,"perTrialBonusThreshold":0.1,"exampleCost":0.01},"classroomParams":{"A":{"a":1,"b":4},"B":{"a":4,"b":1},"C":{"a":2,"b":8},"D":{"a":8,"b":2}},"conditions":["nonSeqFull","nonSeqPartial","seqNoFeedback","seqFeedback"],"classroomPairings":[["A","B"],["C","D"]],"coinWeights":[0.2,0.5,0.8],"subjectId":"A34YDGVZKRJ0LZ","assignmentId":"3OLQQLKKNTBH7NXRSUD3SM6AGSKJE0","hitId":"3QGHA0EA0JM3KKNCY0PQRLYAHJ3BWH","url":"https://gershmanlab.com/experiments/alicia/teaching/experiment/?hitId=3QGHA0EA0JM3KKNCY0PQRLYAHJ3BWH&workerId=A34YDGVZKRJ0LZ&assignmentId=3OLQQLKKNTBH7NXRSUD3SM6AGSKJE0&a=KQLO8&tp_a=KQLO8&b=3OLQQLKKNTBH7NXRSUD3SM6AGSKJE0&tp_b=3OLQQLKKNTBH7NXRSUD3SM6AGSKJE0&c=365198&tp_c=365198","pass":true},{"rt":null,"stimulus":"<div style=\"font-size:30px;\">Congrats on passing the comprehension quiz! The experiment will begin in a few seconds.</div>","response":null,"trial_type":"html-keyboard-response","trial_index":4,"time_elapsed":415780,"internal_node_id":"0.0-3.0","params":{"nStudents":24,"maxFlips":30,"completionMinutes":45,"basePay":8,"maxBonus":9,"perTrialBonus":0.5,"perTrialBonusThreshold":0.1,"exampleCost":0.01},"classroomParams":{"A":{"a":1,"b":4},"B":{"a":4,"b":1},"C":{"a":2,"b":8},"D":{"a":8,"b":2}},"conditions":["nonSeqFull","nonSeqPartial","seqNoFeedback","seqFeedback"],"classroomPairings":[["A","B"],["C","D"]],"coinWeights":[0.2,0.5,0.8],"subjectId":"A34YDGVZKRJ0LZ","assignmentId":"3OLQQLKKNTBH7NXRSUD3SM6AGSKJE0","hitId":"3QGHA0EA0JM3KKNCY0PQRLYAHJ3BWH","url":"https://gershmanlab.com/experiments/alicia/teaching/experiment/?hitId=3QGHA0EA0JM3KKNCY0PQRLYAHJ3BWH&workerId=A34YDGVZKRJ0LZ&assignmentId=3OLQQLKKNTBH7NXRSUD3SM6AGSKJE0&a=KQLO8&tp_a=KQLO8&b=3OLQQLKKNTBH7NXRSUD3SM6AGSKJE0&tp_b=3OLQQLKKNTBH7NXRSUD3SM6AGSKJE0&c=365198&tp_c=365198"},{"rt":null,"stimulus":"<div style=\"font-size:50px;\">First student</div>","response":null,"trial_type":"html-keyboard-response","trial_index":5,"time_elapsed":418783,"internal_node_id":"0.0-4.0","params":{"nStudents":24,"maxFlips":30,"completionMinutes":45,"basePay":8,"maxBonus":9,"perTrialBonus":0.5,"perTrialBonusThreshold":0.1,"exampleCost":0.01},"classroomParams":{"A":{"a":1,"b":4},"B":{"a":4,"b":1},"C":{"a":2,"b":8},"D":{"a":8,"b":2}},"conditions":["nonSeqFull","nonSeqPartial","seqNoFeedback","seqFeedback"],"classroomPairings":[["A","B"],["C","D"]],"coinWeights":[0.2,0.5,0.8],"subjectId":"A34YDGVZKRJ0LZ","assignmentId":"3OLQQLKKNTBH7NXRSUD3SM6AGSKJE0","hitId":"3QGHA0EA0JM3KKNCY0PQRLYAHJ3BWH","url":"https://gershmanlab.com/experiments/alicia/teaching/experiment/?hitId=3QGHA0EA0JM3KKNCY0PQRLYAHJ3BWH&workerId=A34YDGVZKRJ0LZ&assignmentId=3OLQQLKKNTBH7NXRSUD3SM6AGSKJE0&a=KQLO8&tp_a=KQLO8&b=3OLQQLKKNTBH7NXRSUD3SM6AGSKJE0&tp_b=3OLQQLKKNTBH7NXRSUD3SM6AGSKJE0&c=365198&tp_c=365198"},{"rt":8983,"stimulus":"\n            <h4 style=\"color:Orange;\">Student 1</h4>\n            <h2>The weight of your coin is <b style=\"color:Tomato;\">0.5</b>.</h2>\n            <p>In this block, you will be giving <b>two</b> sets of examples to Student 1.</p>\n                <p>You will see the student's guess after the first set of examples. You will also receive feedback at the end of the block.</p>\n            ","response":0,"trial_type":"html-button-response","trial_index":6,"time_elapsed":427768,"internal_node_id":"0.0-5.0","params":{"nStudents":24,"maxFlips":30,"completionMinutes":45,"basePay":8,"maxBonus":9,"perTrialBonus":0.5,"perTrialBonusThreshold":0.1,"exampleCost":0.01},"classroomParams":{"A":{"a":1,"b":4},"B":{"a":4,"b":1},"C":{"a":2,"b":8},"D":{"a":8,"b":2}},"conditions":["nonSeqFull","nonSeqPartial","seqNoFeedback","seqFeedback"],"classroomPairings":[["A","B"],["C","D"]],"coinWeights":[0.2,0.5,0.8],"subjectId":"A34YDGVZKRJ0LZ","assignmentId":"3OLQQLKKNTBH7NXRSUD3SM6AGSKJE0","hitId":"3QGHA0EA0JM3KKNCY0PQRLYAHJ3BWH","url":"https://gershmanlab.com/experiments/alicia/teaching/experiment/?hitId=3QGHA0EA0JM3KKNCY0PQRLYAHJ3BWH&workerId=A34YDGVZKRJ0LZ&assignmentId=3OLQQLKKNTBH7NXRSUD3SM6AGSKJE0&a=KQLO8&tp_a=KQLO8&b=3OLQQLKKNTBH7NXRSUD3SM6AGSKJE0&tp_b=3OLQQLKKNTBH7NXRSUD3SM6AGSKJE0&c=365198&tp_c=365198"},{"rt":25128,"response":{"heads":"5","tails":"5"},"type":"response","condition":"seqFeedback","trueTheta":0.5,"classrooms":["C","D"],"studentTrueClassroom":"C","exampleSet":"first","trial_type":"survey-html-form","trial_index":7,"time_elapsed":452900,"internal_node_id":"0.0-6.0-0.0","params":{"nStudents":24,"maxFlips":30,"completionMinutes":45,"basePay":8,"maxBonus":9,"perTrialBonus":0.5,"perTrialBonusThreshold":0.1,"exampleCost":0.01},"classroomParams":{"A":{"a":1,"b":4},"B":{"a":4,"b":1},"C":{"a":2,"b":8},"D":{"a":8,"b":2}},"conditions":["nonSeqFull","nonSeqPartial","seqNoFeedback","seqFeedback"],"classroomPairings":[["A","B"],["C","D"]],"coinWeights":[0.2,0.5,0.8],"subjectId":"A34YDGVZKRJ0LZ","assignmentId":"3OLQQLKKNTBH7NXRSUD3SM6AGSKJE0","hitId":"3QGHA0EA0JM3KKNCY0PQRLYAHJ3BWH","url":"https://gershmanlab.com/experiments/alicia/teaching/experiment/?hitId=3QGHA0EA0JM3KKNCY0PQRLYAHJ3BWH&workerId=A34YDGVZKRJ0LZ&assignmentId=3OLQQLKKNTBH7NXRSUD3SM6AGSKJE0&a=KQLO8&tp_a=KQLO8&b=3OLQQLKKNTBH7NXRSUD3SM6AGSKJE0&tp_b=3OLQQLKKNTBH7NXRSUD3SM6AGSKJE0&c=365198&tp_c=365198","heads":5,"tails":5,"studentIndex":0,"studentTrueHypers":{"a":2,"b":8},"studentGuess":0.35,"delta":0.15000000000000002,"totalExamples":10,"bonusSoFar":0},{"rt":null,"stimulus":"Sending examples to student... ","response":null,"trial_type":"html-keyboard-response","trial_index":8,"time_elapsed":454154,"internal_node_id":"0.0-7.0","params":{"nStudents":24,"maxFlips":30,"completionMinutes":45,"basePay":8,"maxBonus":9,"perTrialBonus":0.5,"perTrialBonusThreshold":0.1,"exampleCost":0.01},"classroomParams":{"A":{"a":1,"b":4},"B":{"a":4,"b":1},"C":{"a":2,"b":8},"D":{"a":8,"b":2}},"conditions":["nonSeqFull","nonSeqPartial","seqNoFeedback","seqFeedback"],"classroomPairings":[["A","B"],["C","D"]],"coinWeights":[0.2,0.5,0.8],"subjectId":"A34YDGVZKRJ0LZ","assignmentId":"3OLQQLKKNTBH7NXRSUD3SM6AGSKJE0","hitId":"3QGHA0EA0JM3KKNCY0PQRLYAHJ3BWH","url":"https://gershmanlab.com/experiments/alicia/teaching/experiment/?hitId=3QGHA0EA0JM3KKNCY0PQRLYAHJ3BWH&workerId=A34YDGVZKRJ0LZ&assignmentId=3OLQQLKKNTBH7NXRSUD3SM6AGSKJE0&a=KQLO8&tp_a=KQLO8&b=3OLQQLKKNTBH7NXRSUD3SM6AGSKJE0&tp_b=3OLQQLKKNTBH7NXRSUD3SM6AGSKJE0&c=365198&tp_c=365198"},{"rt":null,"stimulus":"Examples sent to student! Waiting for student...","response":null,"trial_type":"html-keyboard-response","trial_index":9,"time_elapsed":460161,"internal_node_id":"0.0-8.0","params":{"nStudents":24,"maxFlips":30,"completionMinutes":45,"basePay":8,"maxBonus":9,"perTrialBonus":0.5,"perTrialBonusThreshold":0.1,"exampleCost":0.01},"classroomParams":{"A":{"a":1,"b":4},"B":{"a":4,"b":1},"C":{"a":2,"b":8},"D":{"a":8,"b":2}},"conditions":["nonSeqFull","nonSeqPartial","seqNoFeedback","seqFeedback"],"classroomPairings":[["A","B"],["C","D"]],"coinWeights":[0.2,0.5,0.8],"subjectId":"A34YDGVZKRJ0LZ","assignmentId":"3OLQQLKKNTBH7NXRSUD3SM6AGSKJE0","hitId":"3QGHA0EA0JM3KKNCY0PQRLYAHJ3BWH","url":"https://gershmanlab.com/experiments/alicia/teaching/experiment/?hitId=3QGHA0EA0JM3KKNCY0PQRLYAHJ3BWH&workerId=A34YDGVZKRJ0LZ&assignmentId=3OLQQLKKNTBH7NXRSUD3SM6AGSKJE0&a=KQLO8&tp_a=KQLO8&b=3OLQQLKKNTBH7NXRSUD3SM6AGSKJE0&tp_b=3OLQQLKKNTBH7NXRSUD3SM6AGSKJE0&c=365198&tp_c=365198"},{"rt":5011,"stimulus":"\n                <p>Student's guess for coin weight: <b style=\"color:Tomato;\">0.35</b></p>\n                <p></b></p>\n                <p>You will now send another set of examples to your student. Press any key to continue.</p>\n                ","response":"enter","trial_type":"html-keyboard-response","trial_index":10,"time_elapsed":465174,"internal_node_id":"0.0-9.0","params":{"nStudents":24,"maxFlips":30,"completionMinutes":45,"basePay":8,"maxBonus":9,"perTrialBonus":0.5,"perTrialBonusThreshold":0.1,"exampleCost":0.01},"classroomParams":{"A":{"a":1,"b":4},"B":{"a":4,"b":1},"C":{"a":2,"b":8},"D":{"a":8,"b":2}},"conditions":["nonSeqFull","nonSeqPartial","seqNoFeedback","seqFeedback"],"classroomPairings":[["A","B"],["C","D"]],"coinWeights":[0.2,0.5,0.8],"subjectId":"A34YDGVZKRJ0LZ","assignmentId":"3OLQQLKKNTBH7NXRSUD3SM6AGSKJE0","hitId":"3QGHA0EA0JM3KKNCY0PQRLYAHJ3BWH","url":"https://gershmanlab.com/experiments/alicia/teaching/experiment/?hitId=3QGHA0EA0JM3KKNCY0PQRLYAHJ3BWH&workerId=A34YDGVZKRJ0LZ&assignmentId=3OLQQLKKNTBH7NXRSUD3SM6AGSKJE0&a=KQLO8&tp_a=KQLO8&b=3OLQQLKKNTBH7NXRSUD3SM6AGSKJE0&tp_b=3OLQQLKKNTBH7NXRSUD3SM6AGSKJE0&c=365198&tp_c=365198"},{"rt":7553,"response":{"heads":"5","tails":"5"},"type":"response","condition":"seqFeedback","trueTheta":0.5,"classrooms":["C","D"],"studentTrueClassroom":"C","exampleSet":"second","trial_type":"survey-html-form","trial_index":11,"time_elapsed":472729,"internal_node_id":"0.0-10.0-0.0","params":{"nStudents":24,"maxFlips":30,"completionMinutes":45,"basePay":8,"maxBonus":9,"perTrialBonus":0.5,"perTrialBonusThreshold":0.1,"exampleCost":0.01},"classroomParams":{"A":{"a":1,"b":4},"B":{"a":4,"b":1},"C":{"a":2,"b":8},"D":{"a":8,"b":2}},"conditions":["nonSeqFull","nonSeqPartial","seqNoFeedback","seqFeedback"],"classroomPairings":[["A","B"],["C","D"]],"coinWeights":[0.2,0.5,0.8],"subjectId":"A34YDGVZKRJ0LZ","assignmentId":"3OLQQLKKNTBH7NXRSUD3SM6AGSKJE0","hitId":"3QGHA0EA0JM3KKNCY0PQRLYAHJ3BWH","url":"https://gershmanlab.com/experiments/alicia/teaching/experiment/?hitId=3QGHA0EA0JM3KKNCY0PQRLYAHJ3BWH&workerId=A34YDGVZKRJ0LZ&assignmentId=3OLQQLKKNTBH7NXRSUD3SM6AGSKJE0&a=KQLO8&tp_a=KQLO8&b=3OLQQLKKNTBH7NXRSUD3SM6AGSKJE0&tp_b=3OLQQLKKNTBH7NXRSUD3SM6AGSKJE0&c=365198&tp_c=365198","firstResponseHeads":5,"firstResponseTails":5,"secondResponseHeads":5,"secondResponseTails":5,"studentIndex":0,"studentTrueHypers":{"a":2,"b":8},"studentGuess":0.4,"delta":0.09999999999999998,"bonus":0.3,"bonusSoFar":0.3,"totalExamples":20},{"rt":null,"stimulus":"Sending examples to student... ","response":null,"trial_type":"html-keyboard-response","trial_index":12,"time_elapsed":474238,"internal_node_id":"0.0-11.0","params":{"nStudents":24,"maxFlips":30,"completionMinutes":45,"basePay":8,"maxBonus":9,"perTrialBonus":0.5,"perTrialBonusThreshold":0.1,"exampleCost":0.01},"classroomParams":{"A":{"a":1,"b":4},"B":{"a":4,"b":1},"C":{"a":2,"b":8},"D":{"a":8,"b":2}},"conditions":["nonSeqFull","nonSeqPartial","seqNoFeedback","seqFeedback"],"classroomPairings":[["A","B"],["C","D"]],"coinWeights":[0.2,0.5,0.8],"subjectId":"A34YDGVZKRJ0LZ","assignmentId":"3OLQQLKKNTBH7NXRSUD3SM6AGSKJE0","hitId":"3QGHA0EA0JM3KKNCY0PQRLYAHJ3BWH","url":"https://gershmanlab.com/experiments/alicia/teaching/experiment/?hitId=3QGHA0EA0JM3KKNCY0PQRLYAHJ3BWH&workerId=A34YDGVZKRJ0LZ&assignmentId=3OLQQLKKNTBH7NXRSUD3SM6AGSKJE0&a=KQLO8&tp_a=KQLO8&b=3OLQQLKKNTBH7NXRSUD3SM6AGSKJE0&tp_b=3OLQQLKKNTBH7NXRSUD3SM6AGSKJE0&c=365198&tp_c=365198"},{"rt":null,"stimulus":"Examples sent to student! Waiting for student...","response":null,"trial_type":"html-keyboard-response","trial_index":13,"time_elapsed":478240,"internal_node_id":"0.0-12.0","params":{"nStudents":24,"maxFlips":30,"completionMinutes":45,"basePay":8,"maxBonus":9,"perTrialBonus":0.5,"perTrialBonusThreshold":0.1,"exampleCost":0.01},"classroomParams":{"A":{"a":1,"b":4},"B":{"a":4,"b":1},"C":{"a":2,"b":8},"D":{"a":8,"b":2}},"conditions":["nonSeqFull","nonSeqPartial","seqNoFeedback","seqFeedback"],"classroomPairings":[["A","B"],["C","D"]],"coinWeights":[0.2,0.5,0.8],"subjectId":"A34YDGVZKRJ0LZ","assignmentId":"3OLQQLKKNTBH7NXRSUD3SM6AGSKJE0","hitId":"3QGHA0EA0JM3KKNCY0PQRLYAHJ3BWH","url":"https://gershmanlab.com/experiments/alicia/teaching/experiment/?hitId=3QGHA0EA0JM3KKNCY0PQRLYAHJ3BWH&workerId=A34YDGVZKRJ0LZ&assignmentId=3OLQQLKKNTBH7NXRSUD3SM6AGSKJE0&a=KQLO8&tp_a=KQLO8&b=3OLQQLKKNTBH7NXRSUD3SM6AGSKJE0&tp_b=3OLQQLKKNTBH7NXRSUD3SM6AGSKJE0&c=365198&tp_c=365198"},{"rt":3726,"stimulus":"\n                <p>Student 1's first guess for coin weight: <b style=\"color:Tomato\";>0.35</b></p>\n                <p>Student 1's second guess for coin weight: <b style=\"color:Tomato\";>0.40</b></p>\n                <p>You received a bonus of <b>$0.30</b> based on the student's second guess.</p>\n                <p>Total bonus so far: <b>$0.30</b></p>\n                <p>Press any key to continue.</p>\n                ","response":" ","trial_type":"html-keyboard-response","trial_index":14,"time_elapsed":481969,"internal_node_id":"0.0-13.0","params":{"nStudents":24,"maxFlips":30,"completionMinutes":45,"basePay":8,"maxBonus":9,"perTrialBonus":0.5,"perTrialBonusThreshold":0.1,"exampleCost":0.01},"classroomParams":{"A":{"a":1,"b":4},"B":{"a":4,"b":1},"C":{"a":2,"b":8},"D":{"a":8,"b":2}},"conditions":["nonSeqFull","nonSeqPartial","seqNoFeedback","seqFeedback"],"classroomPairings":[["A","B"],["C","D"]],"coinWeights":[0.2,0.5,0.8],"subjectId":"A34YDGVZKRJ0LZ","assignmentId":"3OLQQLKKNTBH7NXRSUD3SM6AGSKJE0","hitId":"3QGHA0EA0JM3KKNCY0PQRLYAHJ3BWH","url":"https://gershmanlab.com/experiments/alicia/teaching/experiment/?hitId=3QGHA0EA0JM3KKNCY0PQRLYAHJ3BWH&workerId=A34YDGVZKRJ0LZ&assignmentId=3OLQQLKKNTBH7NXRSUD3SM6AGSKJE0&a=KQLO8&tp_a=KQLO8&b=3OLQQLKKNTBH7NXRSUD3SM6AGSKJE0&tp_b=3OLQQLKKNTBH7NXRSUD3SM6AGSKJE0&c=365198&tp_c=365198"},{"rt":null,"stimulus":"<div style=\"font-size:60px;\">Next student</div>","response":null,"trial_type":"html-keyboard-response","trial_index":15,"time_elapsed":483974,"internal_node_id":"0.0-14.0-0.0","params":{"nStudents":24,"maxFlips":30,"completionMinutes":45,"basePay":8,"maxBonus":9,"perTrialBonus":0.5,"perTrialBonusThreshold":0.1,"exampleCost":0.01},"classroomParams":{"A":{"a":1,"b":4},"B":{"a":4,"b":1},"C":{"a":2,"b":8},"D":{"a":8,"b":2}},"conditions":["nonSeqFull","nonSeqPartial","seqNoFeedback","seqFeedback"],"classroomPairings":[["A","B"],["C","D"]],"coinWeights":[0.2,0.5,0.8],"subjectId":"A34YDGVZKRJ0LZ","assignmentId":"3OLQQLKKNTBH7NXRSUD3SM6AGSKJE0","hitId":"3QGHA0EA0JM3KKNCY0PQRLYAHJ3BWH","url":"https://gershmanlab.com/experiments/alicia/teaching/experiment/?hitId=3QGHA0EA0JM3KKNCY0PQRLYAHJ3BWH&workerId=A34YDGVZKRJ0LZ&assignmentId=3OLQQLKKNTBH7NXRSUD3SM6AGSKJE0&a=KQLO8&tp_a=KQLO8&b=3OLQQLKKNTBH7NXRSUD3SM6AGSKJE0&tp_b=3OLQQLKKNTBH7NXRSUD3SM6AGSKJE0&c=365198&tp_c=365198"},{"rt":3507,"stimulus":"\n            <h4 style=\"color:Orange;\">Student 2</h4>\n            <h2>The weight of your coin is <b style=\"color:Tomato;\">0.2</b>.</h2>\n            <p>In this block, you will be giving <b>one</b> set of examples to Student 2.</p>\n                <p>You will receive feedback at the end of the block.</p>\n            ","response":0,"trial_type":"html-button-response","trial_index":16,"time_elapsed":487483,"internal_node_id":"0.0-15.0","params":{"nStudents":24,"maxFlips":30,"completionMinutes":45,"basePay":8,"maxBonus":9,"perTrialBonus":0.5,"perTrialBonusThreshold":0.1,"exampleCost":0.01},"classroomParams":{"A":{"a":1,"b":4},"B":{"a":4,"b":1},"C":{"a":2,"b":8},"D":{"a":8,"b":2}},"conditions":["nonSeqFull","nonSeqPartial","seqNoFeedback","seqFeedback"],"classroomPairings":[["A","B"],["C","D"]],"coinWeights":[0.2,0.5,0.8],"subjectId":"A34YDGVZKRJ0LZ","assignmentId":"3OLQQLKKNTBH7NXRSUD3SM6AGSKJE0","hitId":"3QGHA0EA0JM3KKNCY0PQRLYAHJ3BWH","url":"https://gershmanlab.com/experiments/alicia/teaching/experiment/?hitId=3QGHA0EA0JM3KKNCY0PQRLYAHJ3BWH&workerId=A34YDGVZKRJ0LZ&assignmentId=3OLQQLKKNTBH7NXRSUD3SM6AGSKJE0&a=KQLO8&tp_a=KQLO8&b=3OLQQLKKNTBH7NXRSUD3SM6AGSKJE0&tp_b=3OLQQLKKNTBH7NXRSUD3SM6AGSKJE0&c=365198&tp_c=365198"},{"rt":14443,"response":{"heads":"2","tails":"8"},"type":"response","condition":"nonSeqFull","trueTheta":0.2,"classrooms":["A","B"],"studentTrueClassroom":"A","exampleSet":"first","trial_type":"survey-html-form","trial_index":17,"time_elapsed":501928,"internal_node_id":"0.0-16.0-0.0","params":{"nStudents":24,"maxFlips":30,"completionMinutes":45,"basePay":8,"maxBonus":9,"perTrialBonus":0.5,"perTrialBonusThreshold":0.1,"exampleCost":0.01},"classroomParams":{"A":{"a":1,"b":4},"B":{"a":4,"b":1},"C":{"a":2,"b":8},"D":{"a":8,"b":2}},"conditions":["nonSeqFull","nonSeqPartial","seqNoFeedback","seqFeedback"],"classroomPairings":[["A","B"],["C","D"]],"coinWeights":[0.2,0.5,0.8],"subjectId":"A34YDGVZKRJ0LZ","assignmentId":"3OLQQLKKNTBH7NXRSUD3SM6AGSKJE0","hitId":"3QGHA0EA0JM3KKNCY0PQRLYAHJ3BWH","url":"https://gershmanlab.com/experiments/alicia/teaching/experiment/?hitId=3QGHA0EA0JM3KKNCY0PQRLYAHJ3BWH&workerId=A34YDGVZKRJ0LZ&assignmentId=3OLQQLKKNTBH7NXRSUD3SM6AGSKJE0&a=KQLO8&tp_a=KQLO8&b=3OLQQLKKNTBH7NXRSUD3SM6AGSKJE0&tp_b=3OLQQLKKNTBH7NXRSUD3SM6AGSKJE0&c=365198&tp_c=365198","heads":2,"tails":8,"studentIndex":1,"studentTrueHypers":{"a":1,"b":4},"studentGuess":0.2,"delta":0,"totalExamples":10,"bonus":0.4,"bonusSoFar":0.7},{"rt":null,"stimulus":"Sending examples to student... ","response":null,"trial_type":"html-keyboard-response","trial_index":18,"time_elapsed":503681,"internal_node_id":"0.0-17.0","params":{"nStudents":24,"maxFlips":30,"completionMinutes":45,"basePay":8,"maxBonus":9,"perTrialBonus":0.5,"perTrialBonusThreshold":0.1,"exampleCost":0.01},"classroomParams":{"A":{"a":1,"b":4},"B":{"a":4,"b":1},"C":{"a":2,"b":8},"D":{"a":8,"b":2}},"conditions":["nonSeqFull","nonSeqPartial","seqNoFeedback","seqFeedback"],"classroomPairings":[["A","B"],["C","D"]],"coinWeights":[0.2,0.5,0.8],"subjectId":"A34YDGVZKRJ0LZ","assignmentId":"3OLQQLKKNTBH7NXRSUD3SM6AGSKJE0","hitId":"3QGHA0EA0JM3KKNCY0PQRLYAHJ3BWH","url":"https://gershmanlab.com/experiments/alicia/teaching/experiment/?hitId=3QGHA0EA0JM3KKNCY0PQRLYAHJ3BWH&workerId=A34YDGVZKRJ0LZ&assignmentId=3OLQQLKKNTBH7NXRSUD3SM6AGSKJE0&a=KQLO8&tp_a=KQLO8&b=3OLQQLKKNTBH7NXRSUD3SM6AGSKJE0&tp_b=3OLQQLKKNTBH7NXRSUD3SM6AGSKJE0&c=365198&tp_c=365198"},{"rt":null,"stimulus":"Examples sent to student! Waiting for student...","response":null,"trial_type":"html-keyboard-response","trial_index":19,"time_elapsed":508689,"internal_node_id":"0.0-18.0","params":{"nStudents":24,"maxFlips":30,"completionMinutes":45,"basePay":8,"maxBonus":9,"perTrialBonus":0.5,"perTrialBonusThreshold":0.1,"exampleCost":0.01},"classroomParams":{"A":{"a":1,"b":4},"B":{"a":4,"b":1},"C":{"a":2,"b":8},"D":{"a":8,"b":2}},"conditions":["nonSeqFull","nonSeqPartial","seqNoFeedback","seqFeedback"],"classroomPairings":[["A","B"],["C","D"]],"coinWeights":[0.2,0.5,0.8],"subjectId":"A34YDGVZKRJ0LZ","assignmentId":"3OLQQLKKNTBH7NXRSUD3SM6AGSKJE0","hitId":"3QGHA0EA0JM3KKNCY0PQRLYAHJ3BWH","url":"https://gershmanlab.com/experiments/alicia/teaching/experiment/?hitId=3QGHA0EA0JM3KKNCY0PQRLYAHJ3BWH&workerId=A34YDGVZKRJ0LZ&assignmentId=3OLQQLKKNTBH7NXRSUD3SM6AGSKJE0&a=KQLO8&tp_a=KQLO8&b=3OLQQLKKNTBH7NXRSUD3SM6AGSKJE0&tp_b=3OLQQLKKNTBH7NXRSUD3SM6AGSKJE0&c=365198&tp_c=365198"},{"rt":5325,"stimulus":"\n                <p>Student's guess for coin weight: <b style=\"color:Tomato;\">0.20</b></p>\n                <p>You received a bonus of <b>$0.4</b>. Total bonus so far: <b>$0.70</b></b></p>\n                <p> Press any key to continue.</p>\n                ","response":" ","trial_type":"html-keyboard-response","trial_index":20,"time_elapsed":514016,"internal_node_id":"0.0-19.0","params":{"nStudents":24,"maxFlips":30,"completionMinutes":45,"basePay":8,"maxBonus":9,"perTrialBonus":0.5,"perTrialBonusThreshold":0.1,"exampleCost":0.01},"classroomParams":{"A":{"a":1,"b":4},"B":{"a":4,"b":1},"C":{"a":2,"b":8},"D":{"a":8,"b":2}},"conditions":["nonSeqFull","nonSeqPartial","seqNoFeedback","seqFeedback"],"classroomPairings":[["A","B"],["C","D"]],"coinWeights":[0.2,0.5,0.8],"subjectId":"A34YDGVZKRJ0LZ","assignmentId":"3OLQQLKKNTBH7NXRSUD3SM6AGSKJE0","hitId":"3QGHA0EA0JM3KKNCY0PQRLYAHJ3BWH","url":"https://gershmanlab.com/experiments/alicia/teaching/experiment/?hitId=3QGHA0EA0JM3KKNCY0PQRLYAHJ3BWH&workerId=A34YDGVZKRJ0LZ&assignmentId=3OLQQLKKNTBH7NXRSUD3SM6AGSKJE0&a=KQLO8&tp_a=KQLO8&b=3OLQQLKKNTBH7NXRSUD3SM6AGSKJE0&tp_b=3OLQQLKKNTBH7NXRSUD3SM6AGSKJE0&c=365198&tp_c=365198"},{"rt":null,"stimulus":"<div style=\"font-size:60px;\">Next student</div>","response":null,"trial_type":"html-keyboard-response","trial_index":21,"time_elapsed":517021,"internal_node_id":"0.0-20.0-0.0","params":{"nStudents":24,"maxFlips":30,"completionMinutes":45,"basePay":8,"maxBonus":9,"perTrialBonus":0.5,"perTrialBonusThreshold":0.1,"exampleCost":0.01},"classroomParams":{"A":{"a":1,"b":4},"B":{"a":4,"b":1},"C":{"a":2,"b":8},"D":{"a":8,"b":2}},"conditions":["nonSeqFull","nonSeqPartial","seqNoFeedback","seqFeedback"],"classroomPairings":[["A","B"],["C","D"]],"coinWeights":[0.2,0.5,0.8],"subjectId":"A34YDGVZKRJ0LZ","assignmentId":"3OLQQLKKNTBH7NXRSUD3SM6AGSKJE0","hitId":"3QGHA0EA0JM3KKNCY0PQRLYAHJ3BWH","url":"https://gershmanlab.com/experiments/alicia/teaching/experiment/?hitId=3QGHA0EA0JM3KKNCY0PQRLYAHJ3BWH&workerId=A34YDGVZKRJ0LZ&assignmentId=3OLQQLKKNTBH7NXRSUD3SM6AGSKJE0&a=KQLO8&tp_a=KQLO8&b=3OLQQLKKNTBH7NXRSUD3SM6AGSKJE0&tp_b=3OLQQLKKNTBH7NXRSUD3SM6AGSKJE0&c=365198&tp_c=365198"},{"rt":8839,"stimulus":"\n            <h4 style=\"color:Orange;\">Student 3</h4>\n            <h2>The weight of your coin is <b style=\"color:Tomato;\">0.8</b>.</h2>\n            <p>In this block, you will be giving <b>two</b> sets of examples to Student 3.</p>\n                <p>You will receive feedback at the end of the block.</p>\n            ","response":0,"trial_type":"html-button-response","trial_index":22,"time_elapsed":525862,"internal_node_id":"0.0-21.0","params":{"nStudents":24,"maxFlips":30,"completionMinutes":45,"basePay":8,"maxBonus":9,"perTrialBonus":0.5,"perTrialBonusThreshold":0.1,"exampleCost":0.01},"classroomParams":{"A":{"a":1,"b":4},"B":{"a":4,"b":1},"C":{"a":2,"b":8},"D":{"a":8,"b":2}},"conditions":["nonSeqFull","nonSeqPartial","seqNoFeedback","seqFeedback"],"classroomPairings":[["A","B"],["C","D"]],"coinWeights":[0.2,0.5,0.8],"subjectId":"A34YDGVZKRJ0LZ","assignmentId":"3OLQQLKKNTBH7NXRSUD3SM6AGSKJE0","hitId":"3QGHA0EA0JM3KKNCY0PQRLYAHJ3BWH","url":"https://gershmanlab.com/experiments/alicia/teaching/experiment/?hitId=3QGHA0EA0JM3KKNCY0PQRLYAHJ3BWH&workerId=A34YDGVZKRJ0LZ&assignmentId=3OLQQLKKNTBH7NXRSUD3SM6AGSKJE0&a=KQLO8&tp_a=KQLO8&b=3OLQQLKKNTBH7NXRSUD3SM6AGSKJE0&tp_b=3OLQQLKKNTBH7NXRSUD3SM6AGSKJE0&c=365198&tp_c=365198"},{"rt":8823,"response":{"heads":"8","tails":"2"},"type":"response","condition":"seqNoFeedback","trueTheta":0.8,"classrooms":["C","D"],"studentTrueClassroom":"C","exampleSet":"first","trial_type":"survey-html-form","trial_index":23,"time_elapsed":534687,"internal_node_id":"0.0-22.0-0.0","params":{"nStudents":24,"maxFlips":30,"completionMinutes":45,"basePay":8,"maxBonus":9,"perTrialBonus":0.5,"perTrialBonusThreshold":0.1,"exampleCost":0.01},"classroomParams":{"A":{"a":1,"b":4},"B":{"a":4,"b":1},"C":{"a":2,"b":8},"D":{"a":8,"b":2}},"conditions":["nonSeqFull","nonSeqPartial","seqNoFeedback","seqFeedback"],"classroomPairings":[["A","B"],["C","D"]],"coinWeights":[0.2,0.5,0.8],"subjectId":"A34YDGVZKRJ0LZ","assignmentId":"3OLQQLKKNTBH7NXRSUD3SM6AGSKJE0","hitId":"3QGHA0EA0JM3KKNCY0PQRLYAHJ3BWH","url":"https://gershmanlab.com/experiments/alicia/teaching/experiment/?hitId=3QGHA0EA0JM3KKNCY0PQRLYAHJ3BWH&workerId=A34YDGVZKRJ0LZ&assignmentId=3OLQQLKKNTBH7NXRSUD3SM6AGSKJE0&a=KQLO8&tp_a=KQLO8&b=3OLQQLKKNTBH7NXRSUD3SM6AGSKJE0&tp_b=3OLQQLKKNTBH7NXRSUD3SM6AGSKJE0&c=365198&tp_c=365198","heads":8,"tails":2,"studentIndex":2,"studentTrueHypers":{"a":2,"b":8},"studentGuess":0.5,"delta":0.30000000000000004,"totalExamples":10,"bonusSoFar":0.7},{"rt":null,"stimulus":"Sending examples to student... ","response":null,"trial_type":"html-keyboard-response","trial_index":24,"time_elapsed":536445,"internal_node_id":"0.0-23.0","params":{"nStudents":24,"maxFlips":30,"completionMinutes":45,"basePay":8,"maxBonus":9,"perTrialBonus":0.5,"perTrialBonusThreshold":0.1,"exampleCost":0.01},"classroomParams":{"A":{"a":1,"b":4},"B":{"a":4,"b":1},"C":{"a":2,"b":8},"D":{"a":8,"b":2}},"conditions":["nonSeqFull","nonSeqPartial","seqNoFeedback","seqFeedback"],"classroomPairings":[["A","B"],["C","D"]],"coinWeights":[0.2,0.5,0.8],"subjectId":"A34YDGVZKRJ0LZ","assignmentId":"3OLQQLKKNTBH7NXRSUD3SM6AGSKJE0","hitId":"3QGHA0EA0JM3KKNCY0PQRLYAHJ3BWH","url":"https://gershmanlab.com/experiments/alicia/teaching/experiment/?hitId=3QGHA0EA0JM3KKNCY0PQRLYAHJ3BWH&workerId=A34YDGVZKRJ0LZ&assignmentId=3OLQQLKKNTBH7NXRSUD3SM6AGSKJE0&a=KQLO8&tp_a=KQLO8&b=3OLQQLKKNTBH7NXRSUD3SM6AGSKJE0&tp_b=3OLQQLKKNTBH7NXRSUD3SM6AGSKJE0&c=365198&tp_c=365198"},{"rt":null,"stimulus":"Examples sent to student! Waiting for student...","response":null,"trial_type":"html-keyboard-response","trial_index":25,"time_elapsed":541947,"internal_node_id":"0.0-24.0","params":{"nStudents":24,"maxFlips":30,"completionMinutes":45,"basePay":8,"maxBonus":9,"perTrialBonus":0.5,"perTrialBonusThreshold":0.1,"exampleCost":0.01},"classroomParams":{"A":{"a":1,"b":4},"B":{"a":4,"b":1},"C":{"a":2,"b":8},"D":{"a":8,"b":2}},"conditions":["nonSeqFull","nonSeqPartial","seqNoFeedback","seqFeedback"],"classroomPairings":[["A","B"],["C","D"]],"coinWeights":[0.2,0.5,0.8],"subjectId":"A34YDGVZKRJ0LZ","assignmentId":"3OLQQLKKNTBH7NXRSUD3SM6AGSKJE0","hitId":"3QGHA0EA0JM3KKNCY0PQRLYAHJ3BWH","url":"https://gershmanlab.com/experiments/alicia/teaching/experiment/?hitId=3QGHA0EA0JM3KKNCY0PQRLYAHJ3BWH&workerId=A34YDGVZKRJ0LZ&assignmentId=3OLQQLKKNTBH7NXRSUD3SM6AGSKJE0&a=KQLO8&tp_a=KQLO8&b=3OLQQLKKNTBH7NXRSUD3SM6AGSKJE0&tp_b=3OLQQLKKNTBH7NXRSUD3SM6AGSKJE0&c=365198&tp_c=365198"},{"rt":21490,"response":{"heads":"8","tails":"2"},"type":"response","condition":"seqNoFeedback","trueTheta":0.8,"classrooms":["C","D"],"studentTrueClassroom":"C","exampleSet":"second","trial_type":"survey-html-form","trial_index":26,"time_elapsed":563439,"internal_node_id":"0.0-25.0-0.0","params":{"nStudents":24,"maxFlips":30,"completionMinutes":45,"basePay":8,"maxBonus":9,"perTrialBonus":0.5,"perTrialBonusThreshold":0.1,"exampleCost":0.01},"classroomParams":{"A":{"a":1,"b":4},"B":{"a":4,"b":1},"C":{"a":2,"b":8},"D":{"a":8,"b":2}},"conditions":["nonSeqFull","nonSeqPartial","seqNoFeedback","seqFeedback"],"classroomPairings":[["A","B"],["C","D"]],"coinWeights":[0.2,0.5,0.8],"subjectId":"A34YDGVZKRJ0LZ","assignmentId":"3OLQQLKKNTBH7NXRSUD3SM6AGSKJE0","hitId":"3QGHA0EA0JM3KKNCY0PQRLYAHJ3BWH","url":"https://gershmanlab.com/experiments/alicia/teaching/experiment/?hitId=3QGHA0EA0JM3KKNCY0PQRLYAHJ3BWH&workerId=A34YDGVZKRJ0LZ&assignmentId=3OLQQLKKNTBH7NXRSUD3SM6AGSKJE0&a=KQLO8&tp_a=KQLO8&b=3OLQQLKKNTBH7NXRSUD3SM6AGSKJE0&tp_b=3OLQQLKKNTBH7NXRSUD3SM6AGSKJE0&c=365198&tp_c=365198","firstResponseHeads":8,"firstResponseTails":2,"secondResponseHeads":8,"secondResponseTails":2,"studentIndex":2,"studentTrueHypers":{"a":2,"b":8},"studentGuess":0.6,"delta":0.20000000000000007,"bonus":0,"bonusSoFar":0.7,"totalExamples":20},{"rt":null,"stimulus":"Sending examples to student... ","response":null,"trial_type":"html-keyboard-response","trial_index":27,"time_elapsed":565442,"internal_node_id":"0.0-26.0","params":{"nStudents":24,"maxFlips":30,"completionMinutes":45,"basePay":8,"maxBonus":9,"perTrialBonus":0.5,"perTrialBonusThreshold":0.1,"exampleCost":0.01},"classroomParams":{"A":{"a":1,"b":4},"B":{"a":4,"b":1},"C":{"a":2,"b":8},"D":{"a":8,"b":2}},"conditions":["nonSeqFull","nonSeqPartial","seqNoFeedback","seqFeedback"],"classroomPairings":[["A","B"],["C","D"]],"coinWeights":[0.2,0.5,0.8],"subjectId":"A34YDGVZKRJ0LZ","assignmentId":"3OLQQLKKNTBH7NXRSUD3SM6AGSKJE0","hitId":"3QGHA0EA0JM3KKNCY0PQRLYAHJ3BWH","url":"https://gershmanlab.com/experiments/alicia/teaching/experiment/?hitId=3QGHA0EA0JM3KKNCY0PQRLYAHJ3BWH&workerId=A34YDGVZKRJ0LZ&assignmentId=3OLQQLKKNTBH7NXRSUD3SM6AGSKJE0&a=KQLO8&tp_a=KQLO8&b=3OLQQLKKNTBH7NXRSUD3SM6AGSKJE0&tp_b=3OLQQLKKNTBH7NXRSUD3SM6AGSKJE0&c=365198&tp_c=365198"},{"rt":null,"stimulus":"Examples sent to student! Waiting for student...","response":null,"trial_type":"html-keyboard-response","trial_index":28,"time_elapsed":571449,"internal_node_id":"0.0-27.0","params":{"nStudents":24,"maxFlips":30,"completionMinutes":45,"basePay":8,"maxBonus":9,"perTrialBonus":0.5,"perTrialBonusThreshold":0.1,"exampleCost":0.01},"classroomParams":{"A":{"a":1,"b":4},"B":{"a":4,"b":1},"C":{"a":2,"b":8},"D":{"a":8,"b":2}},"conditions":["nonSeqFull","nonSeqPartial","seqNoFeedback","seqFeedback"],"classroomPairings":[["A","B"],["C","D"]],"coinWeights":[0.2,0.5,0.8],"subjectId":"A34YDGVZKRJ0LZ","assignmentId":"3OLQQLKKNTBH7NXRSUD3SM6AGSKJE0","hitId":"3QGHA0EA0JM3KKNCY0PQRLYAHJ3BWH","url":"https://gershmanlab.com/experiments/alicia/teaching/experiment/?hitId=3QGHA0EA0JM3KKNCY0PQRLYAHJ3BWH&workerId=A34YDGVZKRJ0LZ&assignmentId=3OLQQLKKNTBH7NXRSUD3SM6AGSKJE0&a=KQLO8&tp_a=KQLO8&b=3OLQQLKKNTBH7NXRSUD3SM6AGSKJE0&tp_b=3OLQQLKKNTBH7NXRSUD3SM6AGSKJE0&c=365198&tp_c=365198"},{"rt":3761,"stimulus":"\n                <p>Student 3's first guess for coin weight: <b style=\"color:Tomato\";>0.50</b></p>\n                <p>Student 3's second guess for coin weight: <b style=\"color:Tomato\";>0.60</b></p>\n                <p>You received a bonus of <b>$0.00</b> based on the student's second guess.</p>\n                <p>Total bonus so far: <b>$0.70</b></p>\n                <p>Press any key to continue.</p>\n                ","response":" ","trial_type":"html-keyboard-response","trial_index":29,"time_elapsed":575212,"internal_node_id":"0.0-28.0","params":{"nStudents":24,"maxFlips":30,"completionMinutes":45,"basePay":8,"maxBonus":9,"perTrialBonus":0.5,"perTrialBonusThreshold":0.1,"exampleCost":0.01},"classroomParams":{"A":{"a":1,"b":4},"B":{"a":4,"b":1},"C":{"a":2,"b":8},"D":{"a":8,"b":2}},"conditions":["nonSeqFull","nonSeqPartial","seqNoFeedback","seqFeedback"],"classroomPairings":[["A","B"],["C","D"]],"coinWeights":[0.2,0.5,0.8],"subjectId":"A34YDGVZKRJ0LZ","assignmentId":"3OLQQLKKNTBH7NXRSUD3SM6AGSKJE0","hitId":"3QGHA0EA0JM3KKNCY0PQRLYAHJ3BWH","url":"https://gershmanlab.com/experiments/alicia/teaching/experiment/?hitId=3QGHA0EA0JM3KKNCY0PQRLYAHJ3BWH&workerId=A34YDGVZKRJ0LZ&assignmentId=3OLQQLKKNTBH7NXRSUD3SM6AGSKJE0&a=KQLO8&tp_a=KQLO8&b=3OLQQLKKNTBH7NXRSUD3SM6AGSKJE0&tp_b=3OLQQLKKNTBH7NXRSUD3SM6AGSKJE0&c=365198&tp_c=365198"},{"rt":null,"stimulus":"<div style=\"font-size:60px;\">Next student</div>","response":null,"trial_type":"html-keyboard-response","trial_index":30,"time_elapsed":577717,"internal_node_id":"0.0-29.0-0.0","params":{"nStudents":24,"maxFlips":30,"completionMinutes":45,"basePay":8,"maxBonus":9,"perTrialBonus":0.5,"perTrialBonusThreshold":0.1,"exampleCost":0.01},"classroomParams":{"A":{"a":1,"b":4},"B":{"a":4,"b":1},"C":{"a":2,"b":8},"D":{"a":8,"b":2}},"conditions":["nonSeqFull","nonSeqPartial","seqNoFeedback","seqFeedback"],"classroomPairings":[["A","B"],["C","D"]],"coinWeights":[0.2,0.5,0.8],"subjectId":"A34YDGVZKRJ0LZ","assignmentId":"3OLQQLKKNTBH7NXRSUD3SM6AGSKJE0","hitId":"3QGHA0EA0JM3KKNCY0PQRLYAHJ3BWH","url":"https://gershmanlab.com/experiments/alicia/teaching/experiment/?hitId=3QGHA0EA0JM3KKNCY0PQRLYAHJ3BWH&workerId=A34YDGVZKRJ0LZ&assignmentId=3OLQQLKKNTBH7NXRSUD3SM6AGSKJE0&a=KQLO8&tp_a=KQLO8&b=3OLQQLKKNTBH7NXRSUD3SM6AGSKJE0&tp_b=3OLQQLKKNTBH7NXRSUD3SM6AGSKJE0&c=365198&tp_c=365198"},{"rt":6480,"stimulus":"\n            <h4 style=\"color:Orange;\">Student 4</h4>\n            <h2>The weight of your coin is <b style=\"color:Tomato;\">0.8</b>.</h2>\n            <p>In this block, you will be giving <b>two</b> sets of examples to Student 4.</p>\n                <p>You will see the student's guess after the first set of examples. You will also receive feedback at the end of the block.</p>\n            ","response":0,"trial_type":"html-button-response","trial_index":31,"time_elapsed":584199,"internal_node_id":"0.0-30.0","params":{"nStudents":24,"maxFlips":30,"completionMinutes":45,"basePay":8,"maxBonus":9,"perTrialBonus":0.5,"perTrialBonusThreshold":0.1,"exampleCost":0.01},"classroomParams":{"A":{"a":1,"b":4},"B":{"a":4,"b":1},"C":{"a":2,"b":8},"D":{"a":8,"b":2}},"conditions":["nonSeqFull","nonSeqPartial","seqNoFeedback","seqFeedback"],"classroomPairings":[["A","B"],["C","D"]],"coinWeights":[0.2,0.5,0.8],"subjectId":"A34YDGVZKRJ0LZ","assignmentId":"3OLQQLKKNTBH7NXRSUD3SM6AGSKJE0","hitId":"3QGHA0EA0JM3KKNCY0PQRLYAHJ3BWH","url":"https://gershmanlab.com/experiments/alicia/teaching/experiment/?hitId=3QGHA0EA0JM3KKNCY0PQRLYAHJ3BWH&workerId=A34YDGVZKRJ0LZ&assignmentId=3OLQQLKKNTBH7NXRSUD3SM6AGSKJE0&a=KQLO8&tp_a=KQLO8&b=3OLQQLKKNTBH7NXRSUD3SM6AGSKJE0&tp_b=3OLQQLKKNTBH7NXRSUD3SM6AGSKJE0&c=365198&tp_c=365198"},{"rt":44457,"response":{"heads":"8","tails":"2"},"type":"response","condition":"seqFeedback","trueTheta":0.8,"classrooms":["C","D"],"studentTrueClassroom":"D","exampleSet":"first","trial_type":"survey-html-form","trial_index":32,"time_elapsed":628660,"internal_node_id":"0.0-31.0-0.0","params":{"nStudents":24,"maxFlips":30,"completionMinutes":45,"basePay":8,"maxBonus":9,"perTrialBonus":0.5,"perTrialBonusThreshold":0.1,"exampleCost":0.01},"classroomParams":{"A":{"a":1,"b":4},"B":{"a":4,"b":1},"C":{"a":2,"b":8},"D":{"a":8,"b":2}},"conditions":["nonSeqFull","nonSeqPartial","seqNoFeedback","seqFeedback"],"classroomPairings":[["A","B"],["C","D"]],"coinWeights":[0.2,0.5,0.8],"subjectId":"A34YDGVZKRJ0LZ","assignmentId":"3OLQQLKKNTBH7NXRSUD3SM6AGSKJE0","hitId":"3QGHA0EA0JM3KKNCY0PQRLYAHJ3BWH","url":"https://gershmanlab.com/experiments/alicia/teaching/experiment/?hitId=3QGHA0EA0JM3KKNCY0PQRLYAHJ3BWH&workerId=A34YDGVZKRJ0LZ&assignmentId=3OLQQLKKNTBH7NXRSUD3SM6AGSKJE0&a=KQLO8&tp_a=KQLO8&b=3OLQQLKKNTBH7NXRSUD3SM6AGSKJE0&tp_b=3OLQQLKKNTBH7NXRSUD3SM6AGSKJE0&c=365198&tp_c=365198","heads":8,"tails":2,"studentIndex":3,"studentTrueHypers":{"a":8,"b":2},"studentGuess":0.8,"delta":0,"totalExamples":10,"bonusSoFar":0.7},{"rt":null,"stimulus":"Sending examples to student... ","response":null,"trial_type":"html-keyboard-response","trial_index":33,"time_elapsed":630417,"internal_node_id":"0.0-32.0","params":{"nStudents":24,"maxFlips":30,"completionMinutes":45,"basePay":8,"maxBonus":9,"perTrialBonus":0.5,"perTrialBonusThreshold":0.1,"exampleCost":0.01},"classroomParams":{"A":{"a":1,"b":4},"B":{"a":4,"b":1},"C":{"a":2,"b":8},"D":{"a":8,"b":2}},"conditions":["nonSeqFull","nonSeqPartial","seqNoFeedback","seqFeedback"],"classroomPairings":[["A","B"],["C","D"]],"coinWeights":[0.2,0.5,0.8],"subjectId":"A34YDGVZKRJ0LZ","assignmentId":"3OLQQLKKNTBH7NXRSUD3SM6AGSKJE0","hitId":"3QGHA0EA0JM3KKNCY0PQRLYAHJ3BWH","url":"https://gershmanlab.com/experiments/alicia/teaching/experiment/?hitId=3QGHA0EA0JM3KKNCY0PQRLYAHJ3BWH&workerId=A34YDGVZKRJ0LZ&assignmentId=3OLQQLKKNTBH7NXRSUD3SM6AGSKJE0&a=KQLO8&tp_a=KQLO8&b=3OLQQLKKNTBH7NXRSUD3SM6AGSKJE0&tp_b=3OLQQLKKNTBH7NXRSUD3SM6AGSKJE0&c=365198&tp_c=365198"},{"rt":null,"stimulus":"Examples sent to student! Waiting for student...","response":null,"trial_type":"html-keyboard-response","trial_index":34,"time_elapsed":635922,"internal_node_id":"0.0-33.0","params":{"nStudents":24,"maxFlips":30,"completionMinutes":45,"basePay":8,"maxBonus":9,"perTrialBonus":0.5,"perTrialBonusThreshold":0.1,"exampleCost":0.01},"classroomParams":{"A":{"a":1,"b":4},"B":{"a":4,"b":1},"C":{"a":2,"b":8},"D":{"a":8,"b":2}},"conditions":["nonSeqFull","nonSeqPartial","seqNoFeedback","seqFeedback"],"classroomPairings":[["A","B"],["C","D"]],"coinWeights":[0.2,0.5,0.8],"subjectId":"A34YDGVZKRJ0LZ","assignmentId":"3OLQQLKKNTBH7NXRSUD3SM6AGSKJE0","hitId":"3QGHA0EA0JM3KKNCY0PQRLYAHJ3BWH","url":"https://gershmanlab.com/experiments/alicia/teaching/experiment/?hitId=3QGHA0EA0JM3KKNCY0PQRLYAHJ3BWH&workerId=A34YDGVZKRJ0LZ&assignmentId=3OLQQLKKNTBH7NXRSUD3SM6AGSKJE0&a=KQLO8&tp_a=KQLO8&b=3OLQQLKKNTBH7NXRSUD3SM6AGSKJE0&tp_b=3OLQQLKKNTBH7NXRSUD3SM6AGSKJE0&c=365198&tp_c=365198"},{"rt":4329,"stimulus":"\n                <p>Student's guess for coin weight: <b style=\"color:Tomato;\">0.80</b></p>\n                <p></b></p>\n                <p>You will now send another set of examples to your student. Press any key to continue.</p>\n                ","response":" ","trial_type":"html-keyboard-response","trial_index":35,"time_elapsed":640253,"internal_node_id":"0.0-34.0","params":{"nStudents":24,"maxFlips":30,"completionMinutes":45,"basePay":8,"maxBonus":9,"perTrialBonus":0.5,"perTrialBonusThreshold":0.1,"exampleCost":0.01},"classroomParams":{"A":{"a":1,"b":4},"B":{"a":4,"b":1},"C":{"a":2,"b":8},"D":{"a":8,"b":2}},"conditions":["nonSeqFull","nonSeqPartial","seqNoFeedback","seqFeedback"],"classroomPairings":[["A","B"],["C","D"]],"coinWeights":[0.2,0.5,0.8],"subjectId":"A34YDGVZKRJ0LZ","assignmentId":"3OLQQLKKNTBH7NXRSUD3SM6AGSKJE0","hitId":"3QGHA0EA0JM3KKNCY0PQRLYAHJ3BWH","url":"https://gershmanlab.com/experiments/alicia/teaching/experiment/?hitId=3QGHA0EA0JM3KKNCY0PQRLYAHJ3BWH&workerId=A34YDGVZKRJ0LZ&assignmentId=3OLQQLKKNTBH7NXRSUD3SM6AGSKJE0&a=KQLO8&tp_a=KQLO8&b=3OLQQLKKNTBH7NXRSUD3SM6AGSKJE0&tp_b=3OLQQLKKNTBH7NXRSUD3SM6AGSKJE0&c=365198&tp_c=365198"},{"rt":12543,"response":{"heads":"8","tails":"2"},"type":"response","condition":"seqFeedback","trueTheta":0.8,"classrooms":["C","D"],"studentTrueClassroom":"D","exampleSet":"second","trial_type":"survey-html-form","trial_index":36,"time_elapsed":652797,"internal_node_id":"0.0-35.0-0.0","params":{"nStudents":24,"maxFlips":30,"completionMinutes":45,"basePay":8,"maxBonus":9,"perTrialBonus":0.5,"perTrialBonusThreshold":0.1,"exampleCost":0.01},"classroomParams":{"A":{"a":1,"b":4},"B":{"a":4,"b":1},"C":{"a":2,"b":8},"D":{"a":8,"b":2}},"conditions":["nonSeqFull","nonSeqPartial","seqNoFeedback","seqFeedback"],"classroomPairings":[["A","B"],["C","D"]],"coinWeights":[0.2,0.5,0.8],"subjectId":"A34YDGVZKRJ0LZ","assignmentId":"3OLQQLKKNTBH7NXRSUD3SM6AGSKJE0","hitId":"3QGHA0EA0JM3KKNCY0PQRLYAHJ3BWH","url":"https://gershmanlab.com/experiments/alicia/teaching/experiment/?hitId=3QGHA0EA0JM3KKNCY0PQRLYAHJ3BWH&workerId=A34YDGVZKRJ0LZ&assignmentId=3OLQQLKKNTBH7NXRSUD3SM6AGSKJE0&a=KQLO8&tp_a=KQLO8&b=3OLQQLKKNTBH7NXRSUD3SM6AGSKJE0&tp_b=3OLQQLKKNTBH7NXRSUD3SM6AGSKJE0&c=365198&tp_c=365198","firstResponseHeads":8,"firstResponseTails":2,"secondResponseHeads":8,"secondResponseTails":2,"studentIndex":3,"studentTrueHypers":{"a":8,"b":2},"studentGuess":0.8,"delta":0,"bonus":0.3,"bonusSoFar":1,"totalExamples":20},{"rt":null,"stimulus":"Sending examples to student... ","response":null,"trial_type":"html-keyboard-response","trial_index":37,"time_elapsed":654304,"internal_node_id":"0.0-36.0","params":{"nStudents":24,"maxFlips":30,"completionMinutes":45,"basePay":8,"maxBonus":9,"perTrialBonus":0.5,"perTrialBonusThreshold":0.1,"exampleCost":0.01},"classroomParams":{"A":{"a":1,"b":4},"B":{"a":4,"b":1},"C":{"a":2,"b":8},"D":{"a":8,"b":2}},"conditions":["nonSeqFull","nonSeqPartial","seqNoFeedback","seqFeedback"],"classroomPairings":[["A","B"],["C","D"]],"coinWeights":[0.2,0.5,0.8],"subjectId":"A34YDGVZKRJ0LZ","assignmentId":"3OLQQLKKNTBH7NXRSUD3SM6AGSKJE0","hitId":"3QGHA0EA0JM3KKNCY0PQRLYAHJ3BWH","url":"https://gershmanlab.com/experiments/alicia/teaching/experiment/?hitId=3QGHA0EA0JM3KKNCY0PQRLYAHJ3BWH&workerId=A34YDGVZKRJ0LZ&assignmentId=3OLQQLKKNTBH7NXRSUD3SM6AGSKJE0&a=KQLO8&tp_a=KQLO8&b=3OLQQLKKNTBH7NXRSUD3SM6AGSKJE0&tp_b=3OLQQLKKNTBH7NXRSUD3SM6AGSKJE0&c=365198&tp_c=365198"},{"rt":null,"stimulus":"Examples sent to student! Waiting for student...","response":null,"trial_type":"html-keyboard-response","trial_index":38,"time_elapsed":659308,"internal_node_id":"0.0-37.0","params":{"nStudents":24,"maxFlips":30,"completionMinutes":45,"basePay":8,"maxBonus":9,"perTrialBonus":0.5,"perTrialBonusThreshold":0.1,"exampleCost":0.01},"classroomParams":{"A":{"a":1,"b":4},"B":{"a":4,"b":1},"C":{"a":2,"b":8},"D":{"a":8,"b":2}},"conditions":["nonSeqFull","nonSeqPartial","seqNoFeedback","seqFeedback"],"classroomPairings":[["A","B"],["C","D"]],"coinWeights":[0.2,0.5,0.8],"subjectId":"A34YDGVZKRJ0LZ","assignmentId":"3OLQQLKKNTBH7NXRSUD3SM6AGSKJE0","hitId":"3QGHA0EA0JM3KKNCY0PQRLYAHJ3BWH","url":"https://gershmanlab.com/experiments/alicia/teaching/experiment/?hitId=3QGHA0EA0JM3KKNCY0PQRLYAHJ3BWH&workerId=A34YDGVZKRJ0LZ&assignmentId=3OLQQLKKNTBH7NXRSUD3SM6AGSKJE0&a=KQLO8&tp_a=KQLO8&b=3OLQQLKKNTBH7NXRSUD3SM6AGSKJE0&tp_b=3OLQQLKKNTBH7NXRSUD3SM6AGSKJE0&c=365198&tp_c=365198"},{"rt":4410,"stimulus":"\n                <p>Student 4's first guess for coin weight: <b style=\"color:Tomato\";>0.80</b></p>\n                <p>Student 4's second guess for coin weight: <b style=\"color:Tomato\";>0.80</b></p>\n                <p>You received a bonus of <b>$0.30</b> based on the student's second guess.</p>\n                <p>Total bonus so far: <b>$1.00</b></p>\n                <p>Press any key to continue.</p>\n                ","response":" ","trial_type":"html-keyboard-response","trial_index":39,"time_elapsed":663720,"internal_node_id":"0.0-38.0","params":{"nStudents":24,"maxFlips":30,"completionMinutes":45,"basePay":8,"maxBonus":9,"perTrialBonus":0.5,"perTrialBonusThreshold":0.1,"exampleCost":0.01},"classroomParams":{"A":{"a":1,"b":4},"B":{"a":4,"b":1},"C":{"a":2,"b":8},"D":{"a":8,"b":2}},"conditions":["nonSeqFull","nonSeqPartial","seqNoFeedback","seqFeedback"],"classroomPairings":[["A","B"],["C","D"]],"coinWeights":[0.2,0.5,0.8],"subjectId":"A34YDGVZKRJ0LZ","assignmentId":"3OLQQLKKNTBH7NXRSUD3SM6AGSKJE0","hitId":"3QGHA0EA0JM3KKNCY0PQRLYAHJ3BWH","url":"https://gershmanlab.com/experiments/alicia/teaching/experiment/?hitId=3QGHA0EA0JM3KKNCY0PQRLYAHJ3BWH&workerId=A34YDGVZKRJ0LZ&assignmentId=3OLQQLKKNTBH7NXRSUD3SM6AGSKJE0&a=KQLO8&tp_a=KQLO8&b=3OLQQLKKNTBH7NXRSUD3SM6AGSKJE0&tp_b=3OLQQLKKNTBH7NXRSUD3SM6AGSKJE0&c=365198&tp_c=365198"},{"rt":null,"stimulus":"<div style=\"font-size:60px;\">Next student</div>","response":null,"trial_type":"html-keyboard-response","trial_index":40,"time_elapsed":665975,"internal_node_id":"0.0-39.0-0.0","params":{"nStudents":24,"maxFlips":30,"completionMinutes":45,"basePay":8,"maxBonus":9,"perTrialBonus":0.5,"perTrialBonusThreshold":0.1,"exampleCost":0.01},"classroomParams":{"A":{"a":1,"b":4},"B":{"a":4,"b":1},"C":{"a":2,"b":8},"D":{"a":8,"b":2}},"conditions":["nonSeqFull","nonSeqPartial","seqNoFeedback","seqFeedback"],"classroomPairings":[["A","B"],["C","D"]],"coinWeights":[0.2,0.5,0.8],"subjectId":"A34YDGVZKRJ0LZ","assignmentId":"3OLQQLKKNTBH7NXRSUD3SM6AGSKJE0","hitId":"3QGHA0EA0JM3KKNCY0PQRLYAHJ3BWH","url":"https://gershmanlab.com/experiments/alicia/teaching/experiment/?hitId=3QGHA0EA0JM3KKNCY0PQRLYAHJ3BWH&workerId=A34YDGVZKRJ0LZ&assignmentId=3OLQQLKKNTBH7NXRSUD3SM6AGSKJE0&a=KQLO8&tp_a=KQLO8&b=3OLQQLKKNTBH7NXRSUD3SM6AGSKJE0&tp_b=3OLQQLKKNTBH7NXRSUD3SM6AGSKJE0&c=365198&tp_c=365198"},{"rt":2910,"stimulus":"\n            <h4 style=\"color:Orange;\">Student 5</h4>\n            <h2>The weight of your coin is <b style=\"color:Tomato;\">0.2</b>.</h2>\n            <p>In this block, you will be giving <b>one</b> set of examples to Student 5.</p>\n                <p>You will receive feedback at the end of the block.</p>\n            ","response":0,"trial_type":"html-button-response","trial_index":41,"time_elapsed":668887,"internal_node_id":"0.0-40.0","params":{"nStudents":24,"maxFlips":30,"completionMinutes":45,"basePay":8,"maxBonus":9,"perTrialBonus":0.5,"perTrialBonusThreshold":0.1,"exampleCost":0.01},"classroomParams":{"A":{"a":1,"b":4},"B":{"a":4,"b":1},"C":{"a":2,"b":8},"D":{"a":8,"b":2}},"conditions":["nonSeqFull","nonSeqPartial","seqNoFeedback","seqFeedback"],"classroomPairings":[["A","B"],["C","D"]],"coinWeights":[0.2,0.5,0.8],"subjectId":"A34YDGVZKRJ0LZ","assignmentId":"3OLQQLKKNTBH7NXRSUD3SM6AGSKJE0","hitId":"3QGHA0EA0JM3KKNCY0PQRLYAHJ3BWH","url":"https://gershmanlab.com/experiments/alicia/teaching/experiment/?hitId=3QGHA0EA0JM3KKNCY0PQRLYAHJ3BWH&workerId=A34YDGVZKRJ0LZ&assignmentId=3OLQQLKKNTBH7NXRSUD3SM6AGSKJE0&a=KQLO8&tp_a=KQLO8&b=3OLQQLKKNTBH7NXRSUD3SM6AGSKJE0&tp_b=3OLQQLKKNTBH7NXRSUD3SM6AGSKJE0&c=365198&tp_c=365198"},{"rt":8046,"response":{"heads":"2","tails":"8"},"type":"response","condition":"nonSeqPartial","trueTheta":0.2,"classrooms":["C","D"],"studentTrueClassroom":"D","exampleSet":"first","trial_type":"survey-html-form","trial_index":42,"time_elapsed":676935,"internal_node_id":"0.0-41.0-0.0","params":{"nStudents":24,"maxFlips":30,"completionMinutes":45,"basePay":8,"maxBonus":9,"perTrialBonus":0.5,"perTrialBonusThreshold":0.1,"exampleCost":0.01},"classroomParams":{"A":{"a":1,"b":4},"B":{"a":4,"b":1},"C":{"a":2,"b":8},"D":{"a":8,"b":2}},"conditions":["nonSeqFull","nonSeqPartial","seqNoFeedback","seqFeedback"],"classroomPairings":[["A","B"],["C","D"]],"coinWeights":[0.2,0.5,0.8],"subjectId":"A34YDGVZKRJ0LZ","assignmentId":"3OLQQLKKNTBH7NXRSUD3SM6AGSKJE0","hitId":"3QGHA0EA0JM3KKNCY0PQRLYAHJ3BWH","url":"https://gershmanlab.com/experiments/alicia/teaching/experiment/?hitId=3QGHA0EA0JM3KKNCY0PQRLYAHJ3BWH&workerId=A34YDGVZKRJ0LZ&assignmentId=3OLQQLKKNTBH7NXRSUD3SM6AGSKJE0&a=KQLO8&tp_a=KQLO8&b=3OLQQLKKNTBH7NXRSUD3SM6AGSKJE0&tp_b=3OLQQLKKNTBH7NXRSUD3SM6AGSKJE0&c=365198&tp_c=365198","heads":2,"tails":8,"studentIndex":4,"studentTrueHypers":{"a":8,"b":2},"studentGuess":0.5,"delta":0.3,"totalExamples":10,"bonus":0,"bonusSoFar":1},{"rt":null,"stimulus":"Sending examples to student... ","response":null,"trial_type":"html-keyboard-response","trial_index":43,"time_elapsed":678942,"internal_node_id":"0.0-42.0","params":{"nStudents":24,"maxFlips":30,"completionMinutes":45,"basePay":8,"maxBonus":9,"perTrialBonus":0.5,"perTrialBonusThreshold":0.1,"exampleCost":0.01},"classroomParams":{"A":{"a":1,"b":4},"B":{"a":4,"b":1},"C":{"a":2,"b":8},"D":{"a":8,"b":2}},"conditions":["nonSeqFull","nonSeqPartial","seqNoFeedback","seqFeedback"],"classroomPairings":[["A","B"],["C","D"]],"coinWeights":[0.2,0.5,0.8],"subjectId":"A34YDGVZKRJ0LZ","assignmentId":"3OLQQLKKNTBH7NXRSUD3SM6AGSKJE0","hitId":"3QGHA0EA0JM3KKNCY0PQRLYAHJ3BWH","url":"https://gershmanlab.com/experiments/alicia/teaching/experiment/?hitId=3QGHA0EA0JM3KKNCY0PQRLYAHJ3BWH&workerId=A34YDGVZKRJ0LZ&assignmentId=3OLQQLKKNTBH7NXRSUD3SM6AGSKJE0&a=KQLO8&tp_a=KQLO8&b=3OLQQLKKNTBH7NXRSUD3SM6AGSKJE0&tp_b=3OLQQLKKNTBH7NXRSUD3SM6AGSKJE0&c=365198&tp_c=365198"},{"rt":null,"stimulus":"Examples sent to student! Waiting for student...","response":null,"trial_type":"html-keyboard-response","trial_index":44,"time_elapsed":683944,"internal_node_id":"0.0-43.0","params":{"nStudents":24,"maxFlips":30,"completionMinutes":45,"basePay":8,"maxBonus":9,"perTrialBonus":0.5,"perTrialBonusThreshold":0.1,"exampleCost":0.01},"classroomParams":{"A":{"a":1,"b":4},"B":{"a":4,"b":1},"C":{"a":2,"b":8},"D":{"a":8,"b":2}},"conditions":["nonSeqFull","nonSeqPartial","seqNoFeedback","seqFeedback"],"classroomPairings":[["A","B"],["C","D"]],"coinWeights":[0.2,0.5,0.8],"subjectId":"A34YDGVZKRJ0LZ","assignmentId":"3OLQQLKKNTBH7NXRSUD3SM6AGSKJE0","hitId":"3QGHA0EA0JM3KKNCY0PQRLYAHJ3BWH","url":"https://gershmanlab.com/experiments/alicia/teaching/experiment/?hitId=3QGHA0EA0JM3KKNCY0PQRLYAHJ3BWH&workerId=A34YDGVZKRJ0LZ&assignmentId=3OLQQLKKNTBH7NXRSUD3SM6AGSKJE0&a=KQLO8&tp_a=KQLO8&b=3OLQQLKKNTBH7NXRSUD3SM6AGSKJE0&tp_b=3OLQQLKKNTBH7NXRSUD3SM6AGSKJE0&c=365198&tp_c=365198"},{"rt":5387,"stimulus":"\n                <p>Student's guess for coin weight: <b style=\"color:Tomato;\">0.50</b></p>\n                <p>You received a bonus of <b>$0</b>. Total bonus so far: <b>$1.00</b></b></p>\n                <p> Press any key to continue.</p>\n                ","response":" ","trial_type":"html-keyboard-response","trial_index":45,"time_elapsed":689333,"internal_node_id":"0.0-44.0","params":{"nStudents":24,"maxFlips":30,"completionMinutes":45,"basePay":8,"maxBonus":9,"perTrialBonus":0.5,"perTrialBonusThreshold":0.1,"exampleCost":0.01},"classroomParams":{"A":{"a":1,"b":4},"B":{"a":4,"b":1},"C":{"a":2,"b":8},"D":{"a":8,"b":2}},"conditions":["nonSeqFull","nonSeqPartial","seqNoFeedback","seqFeedback"],"classroomPairings":[["A","B"],["C","D"]],"coinWeights":[0.2,0.5,0.8],"subjectId":"A34YDGVZKRJ0LZ","assignmentId":"3OLQQLKKNTBH7NXRSUD3SM6AGSKJE0","hitId":"3QGHA0EA0JM3KKNCY0PQRLYAHJ3BWH","url":"https://gershmanlab.com/experiments/alicia/teaching/experiment/?hitId=3QGHA0EA0JM3KKNCY0PQRLYAHJ3BWH&workerId=A34YDGVZKRJ0LZ&assignmentId=3OLQQLKKNTBH7NXRSUD3SM6AGSKJE0&a=KQLO8&tp_a=KQLO8&b=3OLQQLKKNTBH7NXRSUD3SM6AGSKJE0&tp_b=3OLQQLKKNTBH7NXRSUD3SM6AGSKJE0&c=365198&tp_c=365198"},{"rt":null,"stimulus":"<div style=\"font-size:60px;\">Next student</div>","response":null,"trial_type":"html-keyboard-response","trial_index":46,"time_elapsed":691589,"internal_node_id":"0.0-45.0-0.0","params":{"nStudents":24,"maxFlips":30,"completionMinutes":45,"basePay":8,"maxBonus":9,"perTrialBonus":0.5,"perTrialBonusThreshold":0.1,"exampleCost":0.01},"classroomParams":{"A":{"a":1,"b":4},"B":{"a":4,"b":1},"C":{"a":2,"b":8},"D":{"a":8,"b":2}},"conditions":["nonSeqFull","nonSeqPartial","seqNoFeedback","seqFeedback"],"classroomPairings":[["A","B"],["C","D"]],"coinWeights":[0.2,0.5,0.8],"subjectId":"A34YDGVZKRJ0LZ","assignmentId":"3OLQQLKKNTBH7NXRSUD3SM6AGSKJE0","hitId":"3QGHA0EA0JM3KKNCY0PQRLYAHJ3BWH","url":"https://gershmanlab.com/experiments/alicia/teaching/experiment/?hitId=3QGHA0EA0JM3KKNCY0PQRLYAHJ3BWH&workerId=A34YDGVZKRJ0LZ&assignmentId=3OLQQLKKNTBH7NXRSUD3SM6AGSKJE0&a=KQLO8&tp_a=KQLO8&b=3OLQQLKKNTBH7NXRSUD3SM6AGSKJE0&tp_b=3OLQQLKKNTBH7NXRSUD3SM6AGSKJE0&c=365198&tp_c=365198"},{"rt":2418,"stimulus":"\n            <h4 style=\"color:Orange;\">Student 6</h4>\n            <h2>The weight of your coin is <b style=\"color:Tomato;\">0.2</b>.</h2>\n            <p>In this block, you will be giving <b>two</b> sets of examples to Student 6.</p>\n                <p>You will receive feedback at the end of the block.</p>\n            ","response":0,"trial_type":"html-button-response","trial_index":47,"time_elapsed":694008,"internal_node_id":"0.0-46.0","params":{"nStudents":24,"maxFlips":30,"completionMinutes":45,"basePay":8,"maxBonus":9,"perTrialBonus":0.5,"perTrialBonusThreshold":0.1,"exampleCost":0.01},"classroomParams":{"A":{"a":1,"b":4},"B":{"a":4,"b":1},"C":{"a":2,"b":8},"D":{"a":8,"b":2}},"conditions":["nonSeqFull","nonSeqPartial","seqNoFeedback","seqFeedback"],"classroomPairings":[["A","B"],["C","D"]],"coinWeights":[0.2,0.5,0.8],"subjectId":"A34YDGVZKRJ0LZ","assignmentId":"3OLQQLKKNTBH7NXRSUD3SM6AGSKJE0","hitId":"3QGHA0EA0JM3KKNCY0PQRLYAHJ3BWH","url":"https://gershmanlab.com/experiments/alicia/teaching/experiment/?hitId=3QGHA0EA0JM3KKNCY0PQRLYAHJ3BWH&workerId=A34YDGVZKRJ0LZ&assignmentId=3OLQQLKKNTBH7NXRSUD3SM6AGSKJE0&a=KQLO8&tp_a=KQLO8&b=3OLQQLKKNTBH7NXRSUD3SM6AGSKJE0&tp_b=3OLQQLKKNTBH7NXRSUD3SM6AGSKJE0&c=365198&tp_c=365198"},{"rt":3279,"response":{"heads":"2","tails":"0"},"type":"response","condition":"seqNoFeedback","trueTheta":0.2,"classrooms":["A","B"],"studentTrueClassroom":"B","exampleSet":"first","trial_type":"survey-html-form","trial_index":48,"time_elapsed":697289,"internal_node_id":"0.0-47.0-0.0","params":{"nStudents":24,"maxFlips":30,"completionMinutes":45,"basePay":8,"maxBonus":9,"perTrialBonus":0.5,"perTrialBonusThreshold":0.1,"exampleCost":0.01},"classroomParams":{"A":{"a":1,"b":4},"B":{"a":4,"b":1},"C":{"a":2,"b":8},"D":{"a":8,"b":2}},"conditions":["nonSeqFull","nonSeqPartial","seqNoFeedback","seqFeedback"],"classroomPairings":[["A","B"],["C","D"]],"coinWeights":[0.2,0.5,0.8],"subjectId":"A34YDGVZKRJ0LZ","assignmentId":"3OLQQLKKNTBH7NXRSUD3SM6AGSKJE0","hitId":"3QGHA0EA0JM3KKNCY0PQRLYAHJ3BWH","url":"https://gershmanlab.com/experiments/alicia/teaching/experiment/?hitId=3QGHA0EA0JM3KKNCY0PQRLYAHJ3BWH&workerId=A34YDGVZKRJ0LZ&assignmentId=3OLQQLKKNTBH7NXRSUD3SM6AGSKJE0&a=KQLO8&tp_a=KQLO8&b=3OLQQLKKNTBH7NXRSUD3SM6AGSKJE0&tp_b=3OLQQLKKNTBH7NXRSUD3SM6AGSKJE0&c=365198&tp_c=365198","heads":2,"tails":0,"studentIndex":5,"studentTrueHypers":{"a":4,"b":1},"studentGuess":0.8571428571428571,"delta":0.657142857142857,"totalExamples":2,"bonusSoFar":1},{"rt":null,"stimulus":"Sending examples to student... ","response":null,"trial_type":"html-keyboard-response","trial_index":49,"time_elapsed":699292,"internal_node_id":"0.0-48.0","params":{"nStudents":24,"maxFlips":30,"completionMinutes":45,"basePay":8,"maxBonus":9,"perTrialBonus":0.5,"perTrialBonusThreshold":0.1,"exampleCost":0.01},"classroomParams":{"A":{"a":1,"b":4},"B":{"a":4,"b":1},"C":{"a":2,"b":8},"D":{"a":8,"b":2}},"conditions":["nonSeqFull","nonSeqPartial","seqNoFeedback","seqFeedback"],"classroomPairings":[["A","B"],["C","D"]],"coinWeights":[0.2,0.5,0.8],"subjectId":"A34YDGVZKRJ0LZ","assignmentId":"3OLQQLKKNTBH7NXRSUD3SM6AGSKJE0","hitId":"3QGHA0EA0JM3KKNCY0PQRLYAHJ3BWH","url":"https://gershmanlab.com/experiments/alicia/teaching/experiment/?hitId=3QGHA0EA0JM3KKNCY0PQRLYAHJ3BWH&workerId=A34YDGVZKRJ0LZ&assignmentId=3OLQQLKKNTBH7NXRSUD3SM6AGSKJE0&a=KQLO8&tp_a=KQLO8&b=3OLQQLKKNTBH7NXRSUD3SM6AGSKJE0&tp_b=3OLQQLKKNTBH7NXRSUD3SM6AGSKJE0&c=365198&tp_c=365198"},{"rt":null,"stimulus":"Examples sent to student! Waiting for student...","response":null,"trial_type":"html-keyboard-response","trial_index":50,"time_elapsed":704296,"internal_node_id":"0.0-49.0","params":{"nStudents":24,"maxFlips":30,"completionMinutes":45,"basePay":8,"maxBonus":9,"perTrialBonus":0.5,"perTrialBonusThreshold":0.1,"exampleCost":0.01},"classroomParams":{"A":{"a":1,"b":4},"B":{"a":4,"b":1},"C":{"a":2,"b":8},"D":{"a":8,"b":2}},"conditions":["nonSeqFull","nonSeqPartial","seqNoFeedback","seqFeedback"],"classroomPairings":[["A","B"],["C","D"]],"coinWeights":[0.2,0.5,0.8],"subjectId":"A34YDGVZKRJ0LZ","assignmentId":"3OLQQLKKNTBH7NXRSUD3SM6AGSKJE0","hitId":"3QGHA0EA0JM3KKNCY0PQRLYAHJ3BWH","url":"https://gershmanlab.com/experiments/alicia/teaching/experiment/?hitId=3QGHA0EA0JM3KKNCY0PQRLYAHJ3BWH&workerId=A34YDGVZKRJ0LZ&assignmentId=3OLQQLKKNTBH7NXRSUD3SM6AGSKJE0&a=KQLO8&tp_a=KQLO8&b=3OLQQLKKNTBH7NXRSUD3SM6AGSKJE0&tp_b=3OLQQLKKNTBH7NXRSUD3SM6AGSKJE0&c=365198&tp_c=365198"},{"rt":12970,"response":{"heads":"2","tails":"0"},"type":"response","condition":"seqNoFeedback","trueTheta":0.2,"classrooms":["A","B"],"studentTrueClassroom":"B","exampleSet":"second","trial_type":"survey-html-form","trial_index":51,"time_elapsed":717268,"internal_node_id":"0.0-50.0-0.0","params":{"nStudents":24,"maxFlips":30,"completionMinutes":45,"basePay":8,"maxBonus":9,"perTrialBonus":0.5,"perTrialBonusThreshold":0.1,"exampleCost":0.01},"classroomParams":{"A":{"a":1,"b":4},"B":{"a":4,"b":1},"C":{"a":2,"b":8},"D":{"a":8,"b":2}},"conditions":["nonSeqFull","nonSeqPartial","seqNoFeedback","seqFeedback"],"classroomPairings":[["A","B"],["C","D"]],"coinWeights":[0.2,0.5,0.8],"subjectId":"A34YDGVZKRJ0LZ","assignmentId":"3OLQQLKKNTBH7NXRSUD3SM6AGSKJE0","hitId":"3QGHA0EA0JM3KKNCY0PQRLYAHJ3BWH","url":"https://gershmanlab.com/experiments/alicia/teaching/experiment/?hitId=3QGHA0EA0JM3KKNCY0PQRLYAHJ3BWH&workerId=A34YDGVZKRJ0LZ&assignmentId=3OLQQLKKNTBH7NXRSUD3SM6AGSKJE0&a=KQLO8&tp_a=KQLO8&b=3OLQQLKKNTBH7NXRSUD3SM6AGSKJE0&tp_b=3OLQQLKKNTBH7NXRSUD3SM6AGSKJE0&c=365198&tp_c=365198","firstResponseHeads":2,"firstResponseTails":0,"secondResponseHeads":2,"secondResponseTails":0,"studentIndex":5,"studentTrueHypers":{"a":4,"b":1},"studentGuess":0.8888888888888888,"delta":0.6888888888888889,"bonus":0,"bonusSoFar":1,"totalExamples":4},{"rt":null,"stimulus":"Sending examples to student... ","response":null,"trial_type":"html-keyboard-response","trial_index":52,"time_elapsed":718519,"internal_node_id":"0.0-51.0","params":{"nStudents":24,"maxFlips":30,"completionMinutes":45,"basePay":8,"maxBonus":9,"perTrialBonus":0.5,"perTrialBonusThreshold":0.1,"exampleCost":0.01},"classroomParams":{"A":{"a":1,"b":4},"B":{"a":4,"b":1},"C":{"a":2,"b":8},"D":{"a":8,"b":2}},"conditions":["nonSeqFull","nonSeqPartial","seqNoFeedback","seqFeedback"],"classroomPairings":[["A","B"],["C","D"]],"coinWeights":[0.2,0.5,0.8],"subjectId":"A34YDGVZKRJ0LZ","assignmentId":"3OLQQLKKNTBH7NXRSUD3SM6AGSKJE0","hitId":"3QGHA0EA0JM3KKNCY0PQRLYAHJ3BWH","url":"https://gershmanlab.com/experiments/alicia/teaching/experiment/?hitId=3QGHA0EA0JM3KKNCY0PQRLYAHJ3BWH&workerId=A34YDGVZKRJ0LZ&assignmentId=3OLQQLKKNTBH7NXRSUD3SM6AGSKJE0&a=KQLO8&tp_a=KQLO8&b=3OLQQLKKNTBH7NXRSUD3SM6AGSKJE0&tp_b=3OLQQLKKNTBH7NXRSUD3SM6AGSKJE0&c=365198&tp_c=365198"},{"rt":null,"stimulus":"Examples sent to student! Waiting for student...","response":null,"trial_type":"html-keyboard-response","trial_index":53,"time_elapsed":724526,"internal_node_id":"0.0-52.0","params":{"nStudents":24,"maxFlips":30,"completionMinutes":45,"basePay":8,"maxBonus":9,"perTrialBonus":0.5,"perTrialBonusThreshold":0.1,"exampleCost":0.01},"classroomParams":{"A":{"a":1,"b":4},"B":{"a":4,"b":1},"C":{"a":2,"b":8},"D":{"a":8,"b":2}},"conditions":["nonSeqFull","nonSeqPartial","seqNoFeedback","seqFeedback"],"classroomPairings":[["A","B"],["C","D"]],"coinWeights":[0.2,0.5,0.8],"subjectId":"A34YDGVZKRJ0LZ","assignmentId":"3OLQQLKKNTBH7NXRSUD3SM6AGSKJE0","hitId":"3QGHA0EA0JM3KKNCY0PQRLYAHJ3BWH","url":"https://gershmanlab.com/experiments/alicia/teaching/experiment/?hitId=3QGHA0EA0JM3KKNCY0PQRLYAHJ3BWH&workerId=A34YDGVZKRJ0LZ&assignmentId=3OLQQLKKNTBH7NXRSUD3SM6AGSKJE0&a=KQLO8&tp_a=KQLO8&b=3OLQQLKKNTBH7NXRSUD3SM6AGSKJE0&tp_b=3OLQQLKKNTBH7NXRSUD3SM6AGSKJE0&c=365198&tp_c=365198"},{"rt":3771,"stimulus":"\n                <p>Student 6's first guess for coin weight: <b style=\"color:Tomato\";>0.86</b></p>\n                <p>Student 6's second guess for coin weight: <b style=\"color:Tomato\";>0.89</b></p>\n                <p>You received a bonus of <b>$0.00</b> based on the student's second guess.</p>\n                <p>Total bonus so far: <b>$1.00</b></p>\n                <p>Press any key to continue.</p>\n                ","response":" ","trial_type":"html-keyboard-response","trial_index":54,"time_elapsed":728299,"internal_node_id":"0.0-53.0","params":{"nStudents":24,"maxFlips":30,"completionMinutes":45,"basePay":8,"maxBonus":9,"perTrialBonus":0.5,"perTrialBonusThreshold":0.1,"exampleCost":0.01},"classroomParams":{"A":{"a":1,"b":4},"B":{"a":4,"b":1},"C":{"a":2,"b":8},"D":{"a":8,"b":2}},"conditions":["nonSeqFull","nonSeqPartial","seqNoFeedback","seqFeedback"],"classroomPairings":[["A","B"],["C","D"]],"coinWeights":[0.2,0.5,0.8],"subjectId":"A34YDGVZKRJ0LZ","assignmentId":"3OLQQLKKNTBH7NXRSUD3SM6AGSKJE0","hitId":"3QGHA0EA0JM3KKNCY0PQRLYAHJ3BWH","url":"https://gershmanlab.com/experiments/alicia/teaching/experiment/?hitId=3QGHA0EA0JM3KKNCY0PQRLYAHJ3BWH&workerId=A34YDGVZKRJ0LZ&assignmentId=3OLQQLKKNTBH7NXRSUD3SM6AGSKJE0&a=KQLO8&tp_a=KQLO8&b=3OLQQLKKNTBH7NXRSUD3SM6AGSKJE0&tp_b=3OLQQLKKNTBH7NXRSUD3SM6AGSKJE0&c=365198&tp_c=365198"},{"rt":null,"stimulus":"<div style=\"font-size:60px;\">Next student</div>","response":null,"trial_type":"html-keyboard-response","trial_index":55,"time_elapsed":730555,"internal_node_id":"0.0-54.0-0.0","params":{"nStudents":24,"maxFlips":30,"completionMinutes":45,"basePay":8,"maxBonus":9,"perTrialBonus":0.5,"perTrialBonusThreshold":0.1,"exampleCost":0.01},"classroomParams":{"A":{"a":1,"b":4},"B":{"a":4,"b":1},"C":{"a":2,"b":8},"D":{"a":8,"b":2}},"conditions":["nonSeqFull","nonSeqPartial","seqNoFeedback","seqFeedback"],"classroomPairings":[["A","B"],["C","D"]],"coinWeights":[0.2,0.5,0.8],"subjectId":"A34YDGVZKRJ0LZ","assignmentId":"3OLQQLKKNTBH7NXRSUD3SM6AGSKJE0","hitId":"3QGHA0EA0JM3KKNCY0PQRLYAHJ3BWH","url":"https://gershmanlab.com/experiments/alicia/teaching/experiment/?hitId=3QGHA0EA0JM3KKNCY0PQRLYAHJ3BWH&workerId=A34YDGVZKRJ0LZ&assignmentId=3OLQQLKKNTBH7NXRSUD3SM6AGSKJE0&a=KQLO8&tp_a=KQLO8&b=3OLQQLKKNTBH7NXRSUD3SM6AGSKJE0&tp_b=3OLQQLKKNTBH7NXRSUD3SM6AGSKJE0&c=365198&tp_c=365198"},{"rt":2385,"stimulus":"\n            <h4 style=\"color:Orange;\">Student 7</h4>\n            <h2>The weight of your coin is <b style=\"color:Tomato;\">0.8</b>.</h2>\n            <p>In this block, you will be giving <b>one</b> set of examples to Student 7.</p>\n                <p>You will receive feedback at the end of the block.</p>\n            ","response":0,"trial_type":"html-button-response","trial_index":56,"time_elapsed":732941,"internal_node_id":"0.0-55.0","params":{"nStudents":24,"maxFlips":30,"completionMinutes":45,"basePay":8,"maxBonus":9,"perTrialBonus":0.5,"perTrialBonusThreshold":0.1,"exampleCost":0.01},"classroomParams":{"A":{"a":1,"b":4},"B":{"a":4,"b":1},"C":{"a":2,"b":8},"D":{"a":8,"b":2}},"conditions":["nonSeqFull","nonSeqPartial","seqNoFeedback","seqFeedback"],"classroomPairings":[["A","B"],["C","D"]],"coinWeights":[0.2,0.5,0.8],"subjectId":"A34YDGVZKRJ0LZ","assignmentId":"3OLQQLKKNTBH7NXRSUD3SM6AGSKJE0","hitId":"3QGHA0EA0JM3KKNCY0PQRLYAHJ3BWH","url":"https://gershmanlab.com/experiments/alicia/teaching/experiment/?hitId=3QGHA0EA0JM3KKNCY0PQRLYAHJ3BWH&workerId=A34YDGVZKRJ0LZ&assignmentId=3OLQQLKKNTBH7NXRSUD3SM6AGSKJE0&a=KQLO8&tp_a=KQLO8&b=3OLQQLKKNTBH7NXRSUD3SM6AGSKJE0&tp_b=3OLQQLKKNTBH7NXRSUD3SM6AGSKJE0&c=365198&tp_c=365198"},{"rt":7393,"response":{"heads":"8","tails":"2"},"type":"response","condition":"nonSeqFull","trueTheta":0.8,"classrooms":["A","B"],"studentTrueClassroom":"B","exampleSet":"first","trial_type":"survey-html-form","trial_index":57,"time_elapsed":740336,"internal_node_id":"0.0-56.0-0.0","params":{"nStudents":24,"maxFlips":30,"completionMinutes":45,"basePay":8,"maxBonus":9,"perTrialBonus":0.5,"perTrialBonusThreshold":0.1,"exampleCost":0.01},"classroomParams":{"A":{"a":1,"b":4},"B":{"a":4,"b":1},"C":{"a":2,"b":8},"D":{"a":8,"b":2}},"conditions":["nonSeqFull","nonSeqPartial","seqNoFeedback","seqFeedback"],"classroomPairings":[["A","B"],["C","D"]],"coinWeights":[0.2,0.5,0.8],"subjectId":"A34YDGVZKRJ0LZ","assignmentId":"3OLQQLKKNTBH7NXRSUD3SM6AGSKJE0","hitId":"3QGHA0EA0JM3KKNCY0PQRLYAHJ3BWH","url":"https://gershmanlab.com/experiments/alicia/teaching/experiment/?hitId=3QGHA0EA0JM3KKNCY0PQRLYAHJ3BWH&workerId=A34YDGVZKRJ0LZ&assignmentId=3OLQQLKKNTBH7NXRSUD3SM6AGSKJE0&a=KQLO8&tp_a=KQLO8&b=3OLQQLKKNTBH7NXRSUD3SM6AGSKJE0&tp_b=3OLQQLKKNTBH7NXRSUD3SM6AGSKJE0&c=365198&tp_c=365198","heads":8,"tails":2,"studentIndex":6,"studentTrueHypers":{"a":4,"b":1},"studentGuess":0.8,"delta":0,"totalExamples":10,"bonus":0.4,"bonusSoFar":1.4},{"rt":null,"stimulus":"Sending examples to student... ","response":null,"trial_type":"html-keyboard-response","trial_index":58,"time_elapsed":742093,"internal_node_id":"0.0-57.0","params":{"nStudents":24,"maxFlips":30,"completionMinutes":45,"basePay":8,"maxBonus":9,"perTrialBonus":0.5,"perTrialBonusThreshold":0.1,"exampleCost":0.01},"classroomParams":{"A":{"a":1,"b":4},"B":{"a":4,"b":1},"C":{"a":2,"b":8},"D":{"a":8,"b":2}},"conditions":["nonSeqFull","nonSeqPartial","seqNoFeedback","seqFeedback"],"classroomPairings":[["A","B"],["C","D"]],"coinWeights":[0.2,0.5,0.8],"subjectId":"A34YDGVZKRJ0LZ","assignmentId":"3OLQQLKKNTBH7NXRSUD3SM6AGSKJE0","hitId":"3QGHA0EA0JM3KKNCY0PQRLYAHJ3BWH","url":"https://gershmanlab.com/experiments/alicia/teaching/experiment/?hitId=3QGHA0EA0JM3KKNCY0PQRLYAHJ3BWH&workerId=A34YDGVZKRJ0LZ&assignmentId=3OLQQLKKNTBH7NXRSUD3SM6AGSKJE0&a=KQLO8&tp_a=KQLO8&b=3OLQQLKKNTBH7NXRSUD3SM6AGSKJE0&tp_b=3OLQQLKKNTBH7NXRSUD3SM6AGSKJE0&c=365198&tp_c=365198"},{"rt":null,"stimulus":"Examples sent to student! Waiting for student...","response":null,"trial_type":"html-keyboard-response","trial_index":59,"time_elapsed":748098,"internal_node_id":"0.0-58.0","params":{"nStudents":24,"maxFlips":30,"completionMinutes":45,"basePay":8,"maxBonus":9,"perTrialBonus":0.5,"perTrialBonusThreshold":0.1,"exampleCost":0.01},"classroomParams":{"A":{"a":1,"b":4},"B":{"a":4,"b":1},"C":{"a":2,"b":8},"D":{"a":8,"b":2}},"conditions":["nonSeqFull","nonSeqPartial","seqNoFeedback","seqFeedback"],"classroomPairings":[["A","B"],["C","D"]],"coinWeights":[0.2,0.5,0.8],"subjectId":"A34YDGVZKRJ0LZ","assignmentId":"3OLQQLKKNTBH7NXRSUD3SM6AGSKJE0","hitId":"3QGHA0EA0JM3KKNCY0PQRLYAHJ3BWH","url":"https://gershmanlab.com/experiments/alicia/teaching/experiment/?hitId=3QGHA0EA0JM3KKNCY0PQRLYAHJ3BWH&workerId=A34YDGVZKRJ0LZ&assignmentId=3OLQQLKKNTBH7NXRSUD3SM6AGSKJE0&a=KQLO8&tp_a=KQLO8&b=3OLQQLKKNTBH7NXRSUD3SM6AGSKJE0&tp_b=3OLQQLKKNTBH7NXRSUD3SM6AGSKJE0&c=365198&tp_c=365198"},{"rt":3995,"stimulus":"\n                <p>Student's guess for coin weight: <b style=\"color:Tomato;\">0.80</b></p>\n                <p>You received a bonus of <b>$0.4</b>. Total bonus so far: <b>$1.40</b></b></p>\n                <p> Press any key to continue.</p>\n                ","response":" ","trial_type":"html-keyboard-response","trial_index":60,"time_elapsed":752094,"internal_node_id":"0.0-59.0","params":{"nStudents":24,"maxFlips":30,"completionMinutes":45,"basePay":8,"maxBonus":9,"perTrialBonus":0.5,"perTrialBonusThreshold":0.1,"exampleCost":0.01},"classroomParams":{"A":{"a":1,"b":4},"B":{"a":4,"b":1},"C":{"a":2,"b":8},"D":{"a":8,"b":2}},"conditions":["nonSeqFull","nonSeqPartial","seqNoFeedback","seqFeedback"],"classroomPairings":[["A","B"],["C","D"]],"coinWeights":[0.2,0.5,0.8],"subjectId":"A34YDGVZKRJ0LZ","assignmentId":"3OLQQLKKNTBH7NXRSUD3SM6AGSKJE0","hitId":"3QGHA0EA0JM3KKNCY0PQRLYAHJ3BWH","url":"https://gershmanlab.com/experiments/alicia/teaching/experiment/?hitId=3QGHA0EA0JM3KKNCY0PQRLYAHJ3BWH&workerId=A34YDGVZKRJ0LZ&assignmentId=3OLQQLKKNTBH7NXRSUD3SM6AGSKJE0&a=KQLO8&tp_a=KQLO8&b=3OLQQLKKNTBH7NXRSUD3SM6AGSKJE0&tp_b=3OLQQLKKNTBH7NXRSUD3SM6AGSKJE0&c=365198&tp_c=365198"},{"rt":null,"stimulus":"<div style=\"font-size:60px;\">Next student</div>","response":null,"trial_type":"html-keyboard-response","trial_index":61,"time_elapsed":754348,"internal_node_id":"0.0-60.0-0.0","params":{"nStudents":24,"maxFlips":30,"completionMinutes":45,"basePay":8,"maxBonus":9,"perTrialBonus":0.5,"perTrialBonusThreshold":0.1,"exampleCost":0.01},"classroomParams":{"A":{"a":1,"b":4},"B":{"a":4,"b":1},"C":{"a":2,"b":8},"D":{"a":8,"b":2}},"conditions":["nonSeqFull","nonSeqPartial","seqNoFeedback","seqFeedback"],"classroomPairings":[["A","B"],["C","D"]],"coinWeights":[0.2,0.5,0.8],"subjectId":"A34YDGVZKRJ0LZ","assignmentId":"3OLQQLKKNTBH7NXRSUD3SM6AGSKJE0","hitId":"3QGHA0EA0JM3KKNCY0PQRLYAHJ3BWH","url":"https://gershmanlab.com/experiments/alicia/teaching/experiment/?hitId=3QGHA0EA0JM3KKNCY0PQRLYAHJ3BWH&workerId=A34YDGVZKRJ0LZ&assignmentId=3OLQQLKKNTBH7NXRSUD3SM6AGSKJE0&a=KQLO8&tp_a=KQLO8&b=3OLQQLKKNTBH7NXRSUD3SM6AGSKJE0&tp_b=3OLQQLKKNTBH7NXRSUD3SM6AGSKJE0&c=365198&tp_c=365198"},{"rt":1460,"stimulus":"\n            <h4 style=\"color:Orange;\">Student 8</h4>\n            <h2>The weight of your coin is <b style=\"color:Tomato;\">0.5</b>.</h2>\n            <p>In this block, you will be giving <b>one</b> set of examples to Student 8.</p>\n                <p>You will receive feedback at the end of the block.</p>\n            ","response":0,"trial_type":"html-button-response","trial_index":62,"time_elapsed":755810,"internal_node_id":"0.0-61.0","params":{"nStudents":24,"maxFlips":30,"completionMinutes":45,"basePay":8,"maxBonus":9,"perTrialBonus":0.5,"perTrialBonusThreshold":0.1,"exampleCost":0.01},"classroomParams":{"A":{"a":1,"b":4},"B":{"a":4,"b":1},"C":{"a":2,"b":8},"D":{"a":8,"b":2}},"conditions":["nonSeqFull","nonSeqPartial","seqNoFeedback","seqFeedback"],"classroomPairings":[["A","B"],["C","D"]],"coinWeights":[0.2,0.5,0.8],"subjectId":"A34YDGVZKRJ0LZ","assignmentId":"3OLQQLKKNTBH7NXRSUD3SM6AGSKJE0","hitId":"3QGHA0EA0JM3KKNCY0PQRLYAHJ3BWH","url":"https://gershmanlab.com/experiments/alicia/teaching/experiment/?hitId=3QGHA0EA0JM3KKNCY0PQRLYAHJ3BWH&workerId=A34YDGVZKRJ0LZ&assignmentId=3OLQQLKKNTBH7NXRSUD3SM6AGSKJE0&a=KQLO8&tp_a=KQLO8&b=3OLQQLKKNTBH7NXRSUD3SM6AGSKJE0&tp_b=3OLQQLKKNTBH7NXRSUD3SM6AGSKJE0&c=365198&tp_c=365198"},{"rt":9883,"response":{"heads":"5","tails":"5"},"type":"response","condition":"nonSeqFull","trueTheta":0.5,"classrooms":["C","D"],"studentTrueClassroom":"C","exampleSet":"first","trial_type":"survey-html-form","trial_index":63,"time_elapsed":765694,"internal_node_id":"0.0-62.0-0.0","params":{"nStudents":24,"maxFlips":30,"completionMinutes":45,"basePay":8,"maxBonus":9,"perTrialBonus":0.5,"perTrialBonusThreshold":0.1,"exampleCost":0.01},"classroomParams":{"A":{"a":1,"b":4},"B":{"a":4,"b":1},"C":{"a":2,"b":8},"D":{"a":8,"b":2}},"conditions":["nonSeqFull","nonSeqPartial","seqNoFeedback","seqFeedback"],"classroomPairings":[["A","B"],["C","D"]],"coinWeights":[0.2,0.5,0.8],"subjectId":"A34YDGVZKRJ0LZ","assignmentId":"3OLQQLKKNTBH7NXRSUD3SM6AGSKJE0","hitId":"3QGHA0EA0JM3KKNCY0PQRLYAHJ3BWH","url":"https://gershmanlab.com/experiments/alicia/teaching/experiment/?hitId=3QGHA0EA0JM3KKNCY0PQRLYAHJ3BWH&workerId=A34YDGVZKRJ0LZ&assignmentId=3OLQQLKKNTBH7NXRSUD3SM6AGSKJE0&a=KQLO8&tp_a=KQLO8&b=3OLQQLKKNTBH7NXRSUD3SM6AGSKJE0&tp_b=3OLQQLKKNTBH7NXRSUD3SM6AGSKJE0&c=365198&tp_c=365198","heads":5,"tails":5,"studentIndex":7,"studentTrueHypers":{"a":2,"b":8},"studentGuess":0.35,"delta":0.15000000000000002,"totalExamples":10,"bonus":0,"bonusSoFar":1.4},{"rt":null,"stimulus":"Sending examples to student... ","response":null,"trial_type":"html-keyboard-response","trial_index":64,"time_elapsed":767451,"internal_node_id":"0.0-63.0","params":{"nStudents":24,"maxFlips":30,"completionMinutes":45,"basePay":8,"maxBonus":9,"perTrialBonus":0.5,"perTrialBonusThreshold":0.1,"exampleCost":0.01},"classroomParams":{"A":{"a":1,"b":4},"B":{"a":4,"b":1},"C":{"a":2,"b":8},"D":{"a":8,"b":2}},"conditions":["nonSeqFull","nonSeqPartial","seqNoFeedback","seqFeedback"],"classroomPairings":[["A","B"],["C","D"]],"coinWeights":[0.2,0.5,0.8],"subjectId":"A34YDGVZKRJ0LZ","assignmentId":"3OLQQLKKNTBH7NXRSUD3SM6AGSKJE0","hitId":"3QGHA0EA0JM3KKNCY0PQRLYAHJ3BWH","url":"https://gershmanlab.com/experiments/alicia/teaching/experiment/?hitId=3QGHA0EA0JM3KKNCY0PQRLYAHJ3BWH&workerId=A34YDGVZKRJ0LZ&assignmentId=3OLQQLKKNTBH7NXRSUD3SM6AGSKJE0&a=KQLO8&tp_a=KQLO8&b=3OLQQLKKNTBH7NXRSUD3SM6AGSKJE0&tp_b=3OLQQLKKNTBH7NXRSUD3SM6AGSKJE0&c=365198&tp_c=365198"},{"rt":null,"stimulus":"Examples sent to student! Waiting for student...","response":null,"trial_type":"html-keyboard-response","trial_index":65,"time_elapsed":771953,"internal_node_id":"0.0-64.0","params":{"nStudents":24,"maxFlips":30,"completionMinutes":45,"basePay":8,"maxBonus":9,"perTrialBonus":0.5,"perTrialBonusThreshold":0.1,"exampleCost":0.01},"classroomParams":{"A":{"a":1,"b":4},"B":{"a":4,"b":1},"C":{"a":2,"b":8},"D":{"a":8,"b":2}},"conditions":["nonSeqFull","nonSeqPartial","seqNoFeedback","seqFeedback"],"classroomPairings":[["A","B"],["C","D"]],"coinWeights":[0.2,0.5,0.8],"subjectId":"A34YDGVZKRJ0LZ","assignmentId":"3OLQQLKKNTBH7NXRSUD3SM6AGSKJE0","hitId":"3QGHA0EA0JM3KKNCY0PQRLYAHJ3BWH","url":"https://gershmanlab.com/experiments/alicia/teaching/experiment/?hitId=3QGHA0EA0JM3KKNCY0PQRLYAHJ3BWH&workerId=A34YDGVZKRJ0LZ&assignmentId=3OLQQLKKNTBH7NXRSUD3SM6AGSKJE0&a=KQLO8&tp_a=KQLO8&b=3OLQQLKKNTBH7NXRSUD3SM6AGSKJE0&tp_b=3OLQQLKKNTBH7NXRSUD3SM6AGSKJE0&c=365198&tp_c=365198"},{"rt":3413,"stimulus":"\n                <p>Student's guess for coin weight: <b style=\"color:Tomato;\">0.35</b></p>\n                <p>You received a bonus of <b>$0</b>. Total bonus so far: <b>$1.40</b></b></p>\n                <p> Press any key to continue.</p>\n                ","response":" ","trial_type":"html-keyboard-response","trial_index":66,"time_elapsed":775367,"internal_node_id":"0.0-65.0","params":{"nStudents":24,"maxFlips":30,"completionMinutes":45,"basePay":8,"maxBonus":9,"perTrialBonus":0.5,"perTrialBonusThreshold":0.1,"exampleCost":0.01},"classroomParams":{"A":{"a":1,"b":4},"B":{"a":4,"b":1},"C":{"a":2,"b":8},"D":{"a":8,"b":2}},"conditions":["nonSeqFull","nonSeqPartial","seqNoFeedback","seqFeedback"],"classroomPairings":[["A","B"],["C","D"]],"coinWeights":[0.2,0.5,0.8],"subjectId":"A34YDGVZKRJ0LZ","assignmentId":"3OLQQLKKNTBH7NXRSUD3SM6AGSKJE0","hitId":"3QGHA0EA0JM3KKNCY0PQRLYAHJ3BWH","url":"https://gershmanlab.com/experiments/alicia/teaching/experiment/?hitId=3QGHA0EA0JM3KKNCY0PQRLYAHJ3BWH&workerId=A34YDGVZKRJ0LZ&assignmentId=3OLQQLKKNTBH7NXRSUD3SM6AGSKJE0&a=KQLO8&tp_a=KQLO8&b=3OLQQLKKNTBH7NXRSUD3SM6AGSKJE0&tp_b=3OLQQLKKNTBH7NXRSUD3SM6AGSKJE0&c=365198&tp_c=365198"},{"rt":null,"stimulus":"<div style=\"font-size:60px;\">Next student</div>","response":null,"trial_type":"html-keyboard-response","trial_index":67,"time_elapsed":778370,"internal_node_id":"0.0-66.0-0.0","params":{"nStudents":24,"maxFlips":30,"completionMinutes":45,"basePay":8,"maxBonus":9,"perTrialBonus":0.5,"perTrialBonusThreshold":0.1,"exampleCost":0.01},"classroomParams":{"A":{"a":1,"b":4},"B":{"a":4,"b":1},"C":{"a":2,"b":8},"D":{"a":8,"b":2}},"conditions":["nonSeqFull","nonSeqPartial","seqNoFeedback","seqFeedback"],"classroomPairings":[["A","B"],["C","D"]],"coinWeights":[0.2,0.5,0.8],"subjectId":"A34YDGVZKRJ0LZ","assignmentId":"3OLQQLKKNTBH7NXRSUD3SM6AGSKJE0","hitId":"3QGHA0EA0JM3KKNCY0PQRLYAHJ3BWH","url":"https://gershmanlab.com/experiments/alicia/teaching/experiment/?hitId=3QGHA0EA0JM3KKNCY0PQRLYAHJ3BWH&workerId=A34YDGVZKRJ0LZ&assignmentId=3OLQQLKKNTBH7NXRSUD3SM6AGSKJE0&a=KQLO8&tp_a=KQLO8&b=3OLQQLKKNTBH7NXRSUD3SM6AGSKJE0&tp_b=3OLQQLKKNTBH7NXRSUD3SM6AGSKJE0&c=365198&tp_c=365198"},{"rt":2180,"stimulus":"\n            <h4 style=\"color:Orange;\">Student 9</h4>\n            <h2>The weight of your coin is <b style=\"color:Tomato;\">0.5</b>.</h2>\n            <p>In this block, you will be giving <b>one</b> set of examples to Student 9.</p>\n                <p>You will receive feedback at the end of the block.</p>\n            ","response":0,"trial_type":"html-button-response","trial_index":68,"time_elapsed":780551,"internal_node_id":"0.0-67.0","params":{"nStudents":24,"maxFlips":30,"completionMinutes":45,"basePay":8,"maxBonus":9,"perTrialBonus":0.5,"perTrialBonusThreshold":0.1,"exampleCost":0.01},"classroomParams":{"A":{"a":1,"b":4},"B":{"a":4,"b":1},"C":{"a":2,"b":8},"D":{"a":8,"b":2}},"conditions":["nonSeqFull","nonSeqPartial","seqNoFeedback","seqFeedback"],"classroomPairings":[["A","B"],["C","D"]],"coinWeights":[0.2,0.5,0.8],"subjectId":"A34YDGVZKRJ0LZ","assignmentId":"3OLQQLKKNTBH7NXRSUD3SM6AGSKJE0","hitId":"3QGHA0EA0JM3KKNCY0PQRLYAHJ3BWH","url":"https://gershmanlab.com/experiments/alicia/teaching/experiment/?hitId=3QGHA0EA0JM3KKNCY0PQRLYAHJ3BWH&workerId=A34YDGVZKRJ0LZ&assignmentId=3OLQQLKKNTBH7NXRSUD3SM6AGSKJE0&a=KQLO8&tp_a=KQLO8&b=3OLQQLKKNTBH7NXRSUD3SM6AGSKJE0&tp_b=3OLQQLKKNTBH7NXRSUD3SM6AGSKJE0&c=365198&tp_c=365198"},{"rt":11894,"response":{"heads":"1","tails":"1"},"type":"response","condition":"nonSeqFull","trueTheta":0.5,"classrooms":["A","B"],"studentTrueClassroom":"B","exampleSet":"first","trial_type":"survey-html-form","trial_index":69,"time_elapsed":792447,"internal_node_id":"0.0-68.0-0.0","params":{"nStudents":24,"maxFlips":30,"completionMinutes":45,"basePay":8,"maxBonus":9,"perTrialBonus":0.5,"perTrialBonusThreshold":0.1,"exampleCost":0.01},"classroomParams":{"A":{"a":1,"b":4},"B":{"a":4,"b":1},"C":{"a":2,"b":8},"D":{"a":8,"b":2}},"conditions":["nonSeqFull","nonSeqPartial","seqNoFeedback","seqFeedback"],"classroomPairings":[["A","B"],["C","D"]],"coinWeights":[0.2,0.5,0.8],"subjectId":"A34YDGVZKRJ0LZ","assignmentId":"3OLQQLKKNTBH7NXRSUD3SM6AGSKJE0","hitId":"3QGHA0EA0JM3KKNCY0PQRLYAHJ3BWH","url":"https://gershmanlab.com/experiments/alicia/teaching/experiment/?hitId=3QGHA0EA0JM3KKNCY0PQRLYAHJ3BWH&workerId=A34YDGVZKRJ0LZ&assignmentId=3OLQQLKKNTBH7NXRSUD3SM6AGSKJE0&a=KQLO8&tp_a=KQLO8&b=3OLQQLKKNTBH7NXRSUD3SM6AGSKJE0&tp_b=3OLQQLKKNTBH7NXRSUD3SM6AGSKJE0&c=365198&tp_c=365198","heads":1,"tails":1,"studentIndex":8,"studentTrueHypers":{"a":4,"b":1},"studentGuess":0.7142857142857143,"delta":0.2142857142857143,"totalExamples":2,"bonus":0,"bonusSoFar":1.4},{"rt":null,"stimulus":"Sending examples to student... ","response":null,"trial_type":"html-keyboard-response","trial_index":70,"time_elapsed":794199,"internal_node_id":"0.0-69.0","params":{"nStudents":24,"maxFlips":30,"completionMinutes":45,"basePay":8,"maxBonus":9,"perTrialBonus":0.5,"perTrialBonusThreshold":0.1,"exampleCost":0.01},"classroomParams":{"A":{"a":1,"b":4},"B":{"a":4,"b":1},"C":{"a":2,"b":8},"D":{"a":8,"b":2}},"conditions":["nonSeqFull","nonSeqPartial","seqNoFeedback","seqFeedback"],"classroomPairings":[["A","B"],["C","D"]],"coinWeights":[0.2,0.5,0.8],"subjectId":"A34YDGVZKRJ0LZ","assignmentId":"3OLQQLKKNTBH7NXRSUD3SM6AGSKJE0","hitId":"3QGHA0EA0JM3KKNCY0PQRLYAHJ3BWH","url":"https://gershmanlab.com/experiments/alicia/teaching/experiment/?hitId=3QGHA0EA0JM3KKNCY0PQRLYAHJ3BWH&workerId=A34YDGVZKRJ0LZ&assignmentId=3OLQQLKKNTBH7NXRSUD3SM6AGSKJE0&a=KQLO8&tp_a=KQLO8&b=3OLQQLKKNTBH7NXRSUD3SM6AGSKJE0&tp_b=3OLQQLKKNTBH7NXRSUD3SM6AGSKJE0&c=365198&tp_c=365198"},{"rt":null,"stimulus":"Examples sent to student! Waiting for student...","response":null,"trial_type":"html-keyboard-response","trial_index":71,"time_elapsed":798206,"internal_node_id":"0.0-70.0","params":{"nStudents":24,"maxFlips":30,"completionMinutes":45,"basePay":8,"maxBonus":9,"perTrialBonus":0.5,"perTrialBonusThreshold":0.1,"exampleCost":0.01},"classroomParams":{"A":{"a":1,"b":4},"B":{"a":4,"b":1},"C":{"a":2,"b":8},"D":{"a":8,"b":2}},"conditions":["nonSeqFull","nonSeqPartial","seqNoFeedback","seqFeedback"],"classroomPairings":[["A","B"],["C","D"]],"coinWeights":[0.2,0.5,0.8],"subjectId":"A34YDGVZKRJ0LZ","assignmentId":"3OLQQLKKNTBH7NXRSUD3SM6AGSKJE0","hitId":"3QGHA0EA0JM3KKNCY0PQRLYAHJ3BWH","url":"https://gershmanlab.com/experiments/alicia/teaching/experiment/?hitId=3QGHA0EA0JM3KKNCY0PQRLYAHJ3BWH&workerId=A34YDGVZKRJ0LZ&assignmentId=3OLQQLKKNTBH7NXRSUD3SM6AGSKJE0&a=KQLO8&tp_a=KQLO8&b=3OLQQLKKNTBH7NXRSUD3SM6AGSKJE0&tp_b=3OLQQLKKNTBH7NXRSUD3SM6AGSKJE0&c=365198&tp_c=365198"},{"rt":2676,"stimulus":"\n                <p>Student's guess for coin weight: <b style=\"color:Tomato;\">0.71</b></p>\n                <p>You received a bonus of <b>$0</b>. Total bonus so far: <b>$1.40</b></b></p>\n                <p> Press any key to continue.</p>\n                ","response":" ","trial_type":"html-keyboard-response","trial_index":72,"time_elapsed":800883,"internal_node_id":"0.0-71.0","params":{"nStudents":24,"maxFlips":30,"completionMinutes":45,"basePay":8,"maxBonus":9,"perTrialBonus":0.5,"perTrialBonusThreshold":0.1,"exampleCost":0.01},"classroomParams":{"A":{"a":1,"b":4},"B":{"a":4,"b":1},"C":{"a":2,"b":8},"D":{"a":8,"b":2}},"conditions":["nonSeqFull","nonSeqPartial","seqNoFeedback","seqFeedback"],"classroomPairings":[["A","B"],["C","D"]],"coinWeights":[0.2,0.5,0.8],"subjectId":"A34YDGVZKRJ0LZ","assignmentId":"3OLQQLKKNTBH7NXRSUD3SM6AGSKJE0","hitId":"3QGHA0EA0JM3KKNCY0PQRLYAHJ3BWH","url":"https://gershmanlab.com/experiments/alicia/teaching/experiment/?hitId=3QGHA0EA0JM3KKNCY0PQRLYAHJ3BWH&workerId=A34YDGVZKRJ0LZ&assignmentId=3OLQQLKKNTBH7NXRSUD3SM6AGSKJE0&a=KQLO8&tp_a=KQLO8&b=3OLQQLKKNTBH7NXRSUD3SM6AGSKJE0&tp_b=3OLQQLKKNTBH7NXRSUD3SM6AGSKJE0&c=365198&tp_c=365198"},{"rt":null,"stimulus":"<div style=\"font-size:60px;\">Next student</div>","response":null,"trial_type":"html-keyboard-response","trial_index":73,"time_elapsed":802889,"internal_node_id":"0.0-72.0-0.0","params":{"nStudents":24,"maxFlips":30,"completionMinutes":45,"basePay":8,"maxBonus":9,"perTrialBonus":0.5,"perTrialBonusThreshold":0.1,"exampleCost":0.01},"classroomParams":{"A":{"a":1,"b":4},"B":{"a":4,"b":1},"C":{"a":2,"b":8},"D":{"a":8,"b":2}},"conditions":["nonSeqFull","nonSeqPartial","seqNoFeedback","seqFeedback"],"classroomPairings":[["A","B"],["C","D"]],"coinWeights":[0.2,0.5,0.8],"subjectId":"A34YDGVZKRJ0LZ","assignmentId":"3OLQQLKKNTBH7NXRSUD3SM6AGSKJE0","hitId":"3QGHA0EA0JM3KKNCY0PQRLYAHJ3BWH","url":"https://gershmanlab.com/experiments/alicia/teaching/experiment/?hitId=3QGHA0EA0JM3KKNCY0PQRLYAHJ3BWH&workerId=A34YDGVZKRJ0LZ&assignmentId=3OLQQLKKNTBH7NXRSUD3SM6AGSKJE0&a=KQLO8&tp_a=KQLO8&b=3OLQQLKKNTBH7NXRSUD3SM6AGSKJE0&tp_b=3OLQQLKKNTBH7NXRSUD3SM6AGSKJE0&c=365198&tp_c=365198"},{"rt":2060,"stimulus":"\n            <h4 style=\"color:Orange;\">Student 10</h4>\n            <h2>The weight of your coin is <b style=\"color:Tomato;\">0.5</b>.</h2>\n            <p>In this block, you will be giving <b>one</b> set of examples to Student 10.</p>\n                <p>You will receive feedback at the end of the block.</p>\n            ","response":0,"trial_type":"html-button-response","trial_index":74,"time_elapsed":804951,"internal_node_id":"0.0-73.0","params":{"nStudents":24,"maxFlips":30,"completionMinutes":45,"basePay":8,"maxBonus":9,"perTrialBonus":0.5,"perTrialBonusThreshold":0.1,"exampleCost":0.01},"classroomParams":{"A":{"a":1,"b":4},"B":{"a":4,"b":1},"C":{"a":2,"b":8},"D":{"a":8,"b":2}},"conditions":["nonSeqFull","nonSeqPartial","seqNoFeedback","seqFeedback"],"classroomPairings":[["A","B"],["C","D"]],"coinWeights":[0.2,0.5,0.8],"subjectId":"A34YDGVZKRJ0LZ","assignmentId":"3OLQQLKKNTBH7NXRSUD3SM6AGSKJE0","hitId":"3QGHA0EA0JM3KKNCY0PQRLYAHJ3BWH","url":"https://gershmanlab.com/experiments/alicia/teaching/experiment/?hitId=3QGHA0EA0JM3KKNCY0PQRLYAHJ3BWH&workerId=A34YDGVZKRJ0LZ&assignmentId=3OLQQLKKNTBH7NXRSUD3SM6AGSKJE0&a=KQLO8&tp_a=KQLO8&b=3OLQQLKKNTBH7NXRSUD3SM6AGSKJE0&tp_b=3OLQQLKKNTBH7NXRSUD3SM6AGSKJE0&c=365198&tp_c=365198"},{"rt":6294,"response":{"heads":"5","tails":"5"},"type":"response","condition":"nonSeqPartial","trueTheta":0.5,"classrooms":["C","D"],"studentTrueClassroom":"C","exampleSet":"first","trial_type":"survey-html-form","trial_index":75,"time_elapsed":811247,"internal_node_id":"0.0-74.0-0.0","params":{"nStudents":24,"maxFlips":30,"completionMinutes":45,"basePay":8,"maxBonus":9,"perTrialBonus":0.5,"perTrialBonusThreshold":0.1,"exampleCost":0.01},"classroomParams":{"A":{"a":1,"b":4},"B":{"a":4,"b":1},"C":{"a":2,"b":8},"D":{"a":8,"b":2}},"conditions":["nonSeqFull","nonSeqPartial","seqNoFeedback","seqFeedback"],"classroomPairings":[["A","B"],["C","D"]],"coinWeights":[0.2,0.5,0.8],"subjectId":"A34YDGVZKRJ0LZ","assignmentId":"3OLQQLKKNTBH7NXRSUD3SM6AGSKJE0","hitId":"3QGHA0EA0JM3KKNCY0PQRLYAHJ3BWH","url":"https://gershmanlab.com/experiments/alicia/teaching/experiment/?hitId=3QGHA0EA0JM3KKNCY0PQRLYAHJ3BWH&workerId=A34YDGVZKRJ0LZ&assignmentId=3OLQQLKKNTBH7NXRSUD3SM6AGSKJE0&a=KQLO8&tp_a=KQLO8&b=3OLQQLKKNTBH7NXRSUD3SM6AGSKJE0&tp_b=3OLQQLKKNTBH7NXRSUD3SM6AGSKJE0&c=365198&tp_c=365198","heads":5,"tails":5,"studentIndex":9,"studentTrueHypers":{"a":2,"b":8},"studentGuess":0.35,"delta":0.15000000000000002,"totalExamples":10,"bonus":0,"bonusSoFar":1.4},{"rt":null,"stimulus":"Sending examples to student... ","response":null,"trial_type":"html-keyboard-response","trial_index":76,"time_elapsed":813000,"internal_node_id":"0.0-75.0","params":{"nStudents":24,"maxFlips":30,"completionMinutes":45,"basePay":8,"maxBonus":9,"perTrialBonus":0.5,"perTrialBonusThreshold":0.1,"exampleCost":0.01},"classroomParams":{"A":{"a":1,"b":4},"B":{"a":4,"b":1},"C":{"a":2,"b":8},"D":{"a":8,"b":2}},"conditions":["nonSeqFull","nonSeqPartial","seqNoFeedback","seqFeedback"],"classroomPairings":[["A","B"],["C","D"]],"coinWeights":[0.2,0.5,0.8],"subjectId":"A34YDGVZKRJ0LZ","assignmentId":"3OLQQLKKNTBH7NXRSUD3SM6AGSKJE0","hitId":"3QGHA0EA0JM3KKNCY0PQRLYAHJ3BWH","url":"https://gershmanlab.com/experiments/alicia/teaching/experiment/?hitId=3QGHA0EA0JM3KKNCY0PQRLYAHJ3BWH&workerId=A34YDGVZKRJ0LZ&assignmentId=3OLQQLKKNTBH7NXRSUD3SM6AGSKJE0&a=KQLO8&tp_a=KQLO8&b=3OLQQLKKNTBH7NXRSUD3SM6AGSKJE0&tp_b=3OLQQLKKNTBH7NXRSUD3SM6AGSKJE0&c=365198&tp_c=365198"},{"rt":null,"stimulus":"Examples sent to student! Waiting for student...","response":null,"trial_type":"html-keyboard-response","trial_index":77,"time_elapsed":818004,"internal_node_id":"0.0-76.0","params":{"nStudents":24,"maxFlips":30,"completionMinutes":45,"basePay":8,"maxBonus":9,"perTrialBonus":0.5,"perTrialBonusThreshold":0.1,"exampleCost":0.01},"classroomParams":{"A":{"a":1,"b":4},"B":{"a":4,"b":1},"C":{"a":2,"b":8},"D":{"a":8,"b":2}},"conditions":["nonSeqFull","nonSeqPartial","seqNoFeedback","seqFeedback"],"classroomPairings":[["A","B"],["C","D"]],"coinWeights":[0.2,0.5,0.8],"subjectId":"A34YDGVZKRJ0LZ","assignmentId":"3OLQQLKKNTBH7NXRSUD3SM6AGSKJE0","hitId":"3QGHA0EA0JM3KKNCY0PQRLYAHJ3BWH","url":"https://gershmanlab.com/experiments/alicia/teaching/experiment/?hitId=3QGHA0EA0JM3KKNCY0PQRLYAHJ3BWH&workerId=A34YDGVZKRJ0LZ&assignmentId=3OLQQLKKNTBH7NXRSUD3SM6AGSKJE0&a=KQLO8&tp_a=KQLO8&b=3OLQQLKKNTBH7NXRSUD3SM6AGSKJE0&tp_b=3OLQQLKKNTBH7NXRSUD3SM6AGSKJE0&c=365198&tp_c=365198"},{"rt":2002,"stimulus":"\n                <p>Student's guess for coin weight: <b style=\"color:Tomato;\">0.35</b></p>\n                <p>You received a bonus of <b>$0</b>. Total bonus so far: <b>$1.40</b></b></p>\n                <p> Press any key to continue.</p>\n                ","response":" ","trial_type":"html-keyboard-response","trial_index":78,"time_elapsed":820007,"internal_node_id":"0.0-77.0","params":{"nStudents":24,"maxFlips":30,"completionMinutes":45,"basePay":8,"maxBonus":9,"perTrialBonus":0.5,"perTrialBonusThreshold":0.1,"exampleCost":0.01},"classroomParams":{"A":{"a":1,"b":4},"B":{"a":4,"b":1},"C":{"a":2,"b":8},"D":{"a":8,"b":2}},"conditions":["nonSeqFull","nonSeqPartial","seqNoFeedback","seqFeedback"],"classroomPairings":[["A","B"],["C","D"]],"coinWeights":[0.2,0.5,0.8],"subjectId":"A34YDGVZKRJ0LZ","assignmentId":"3OLQQLKKNTBH7NXRSUD3SM6AGSKJE0","hitId":"3QGHA0EA0JM3KKNCY0PQRLYAHJ3BWH","url":"https://gershmanlab.com/experiments/alicia/teaching/experiment/?hitId=3QGHA0EA0JM3KKNCY0PQRLYAHJ3BWH&workerId=A34YDGVZKRJ0LZ&assignmentId=3OLQQLKKNTBH7NXRSUD3SM6AGSKJE0&a=KQLO8&tp_a=KQLO8&b=3OLQQLKKNTBH7NXRSUD3SM6AGSKJE0&tp_b=3OLQQLKKNTBH7NXRSUD3SM6AGSKJE0&c=365198&tp_c=365198"},{"rt":null,"stimulus":"<div style=\"font-size:60px;\">Next student</div>","response":null,"trial_type":"html-keyboard-response","trial_index":79,"time_elapsed":822514,"internal_node_id":"0.0-78.0-0.0","params":{"nStudents":24,"maxFlips":30,"completionMinutes":45,"basePay":8,"maxBonus":9,"perTrialBonus":0.5,"perTrialBonusThreshold":0.1,"exampleCost":0.01},"classroomParams":{"A":{"a":1,"b":4},"B":{"a":4,"b":1},"C":{"a":2,"b":8},"D":{"a":8,"b":2}},"conditions":["nonSeqFull","nonSeqPartial","seqNoFeedback","seqFeedback"],"classroomPairings":[["A","B"],["C","D"]],"coinWeights":[0.2,0.5,0.8],"subjectId":"A34YDGVZKRJ0LZ","assignmentId":"3OLQQLKKNTBH7NXRSUD3SM6AGSKJE0","hitId":"3QGHA0EA0JM3KKNCY0PQRLYAHJ3BWH","url":"https://gershmanlab.com/experiments/alicia/teaching/experiment/?hitId=3QGHA0EA0JM3KKNCY0PQRLYAHJ3BWH&workerId=A34YDGVZKRJ0LZ&assignmentId=3OLQQLKKNTBH7NXRSUD3SM6AGSKJE0&a=KQLO8&tp_a=KQLO8&b=3OLQQLKKNTBH7NXRSUD3SM6AGSKJE0&tp_b=3OLQQLKKNTBH7NXRSUD3SM6AGSKJE0&c=365198&tp_c=365198"},{"rt":2510,"stimulus":"\n            <h4 style=\"color:Orange;\">Student 11</h4>\n            <h2>The weight of your coin is <b style=\"color:Tomato;\">0.5</b>.</h2>\n            <p>In this block, you will be giving <b>one</b> set of examples to Student 11.</p>\n                <p>You will receive feedback at the end of the block.</p>\n            ","response":0,"trial_type":"html-button-response","trial_index":80,"time_elapsed":825026,"internal_node_id":"0.0-79.0","params":{"nStudents":24,"maxFlips":30,"completionMinutes":45,"basePay":8,"maxBonus":9,"perTrialBonus":0.5,"perTrialBonusThreshold":0.1,"exampleCost":0.01},"classroomParams":{"A":{"a":1,"b":4},"B":{"a":4,"b":1},"C":{"a":2,"b":8},"D":{"a":8,"b":2}},"conditions":["nonSeqFull","nonSeqPartial","seqNoFeedback","seqFeedback"],"classroomPairings":[["A","B"],["C","D"]],"coinWeights":[0.2,0.5,0.8],"subjectId":"A34YDGVZKRJ0LZ","assignmentId":"3OLQQLKKNTBH7NXRSUD3SM6AGSKJE0","hitId":"3QGHA0EA0JM3KKNCY0PQRLYAHJ3BWH","url":"https://gershmanlab.com/experiments/alicia/teaching/experiment/?hitId=3QGHA0EA0JM3KKNCY0PQRLYAHJ3BWH&workerId=A34YDGVZKRJ0LZ&assignmentId=3OLQQLKKNTBH7NXRSUD3SM6AGSKJE0&a=KQLO8&tp_a=KQLO8&b=3OLQQLKKNTBH7NXRSUD3SM6AGSKJE0&tp_b=3OLQQLKKNTBH7NXRSUD3SM6AGSKJE0&c=365198&tp_c=365198"},{"rt":27519,"response":{"heads":"4","tails":"1"},"type":"response","condition":"nonSeqPartial","trueTheta":0.5,"classrooms":["A","B"],"studentTrueClassroom":"A","exampleSet":"first","trial_type":"survey-html-form","trial_index":81,"time_elapsed":852547,"internal_node_id":"0.0-80.0-0.0","params":{"nStudents":24,"maxFlips":30,"completionMinutes":45,"basePay":8,"maxBonus":9,"perTrialBonus":0.5,"perTrialBonusThreshold":0.1,"exampleCost":0.01},"classroomParams":{"A":{"a":1,"b":4},"B":{"a":4,"b":1},"C":{"a":2,"b":8},"D":{"a":8,"b":2}},"conditions":["nonSeqFull","nonSeqPartial","seqNoFeedback","seqFeedback"],"classroomPairings":[["A","B"],["C","D"]],"coinWeights":[0.2,0.5,0.8],"subjectId":"A34YDGVZKRJ0LZ","assignmentId":"3OLQQLKKNTBH7NXRSUD3SM6AGSKJE0","hitId":"3QGHA0EA0JM3KKNCY0PQRLYAHJ3BWH","url":"https://gershmanlab.com/experiments/alicia/teaching/experiment/?hitId=3QGHA0EA0JM3KKNCY0PQRLYAHJ3BWH&workerId=A34YDGVZKRJ0LZ&assignmentId=3OLQQLKKNTBH7NXRSUD3SM6AGSKJE0&a=KQLO8&tp_a=KQLO8&b=3OLQQLKKNTBH7NXRSUD3SM6AGSKJE0&tp_b=3OLQQLKKNTBH7NXRSUD3SM6AGSKJE0&c=365198&tp_c=365198","heads":4,"tails":1,"studentIndex":10,"studentTrueHypers":{"a":1,"b":4},"studentGuess":0.5,"delta":0,"totalExamples":5,"bonus":0.45,"bonusSoFar":1.85},{"rt":null,"stimulus":"Sending examples to student... ","response":null,"trial_type":"html-keyboard-response","trial_index":82,"time_elapsed":854553,"internal_node_id":"0.0-81.0","params":{"nStudents":24,"maxFlips":30,"completionMinutes":45,"basePay":8,"maxBonus":9,"perTrialBonus":0.5,"perTrialBonusThreshold":0.1,"exampleCost":0.01},"classroomParams":{"A":{"a":1,"b":4},"B":{"a":4,"b":1},"C":{"a":2,"b":8},"D":{"a":8,"b":2}},"conditions":["nonSeqFull","nonSeqPartial","seqNoFeedback","seqFeedback"],"classroomPairings":[["A","B"],["C","D"]],"coinWeights":[0.2,0.5,0.8],"subjectId":"A34YDGVZKRJ0LZ","assignmentId":"3OLQQLKKNTBH7NXRSUD3SM6AGSKJE0","hitId":"3QGHA0EA0JM3KKNCY0PQRLYAHJ3BWH","url":"https://gershmanlab.com/experiments/alicia/teaching/experiment/?hitId=3QGHA0EA0JM3KKNCY0PQRLYAHJ3BWH&workerId=A34YDGVZKRJ0LZ&assignmentId=3OLQQLKKNTBH7NXRSUD3SM6AGSKJE0&a=KQLO8&tp_a=KQLO8&b=3OLQQLKKNTBH7NXRSUD3SM6AGSKJE0&tp_b=3OLQQLKKNTBH7NXRSUD3SM6AGSKJE0&c=365198&tp_c=365198"},{"rt":null,"stimulus":"Examples sent to student! Waiting for student...","response":null,"trial_type":"html-keyboard-response","trial_index":83,"time_elapsed":859059,"internal_node_id":"0.0-82.0","params":{"nStudents":24,"maxFlips":30,"completionMinutes":45,"basePay":8,"maxBonus":9,"perTrialBonus":0.5,"perTrialBonusThreshold":0.1,"exampleCost":0.01},"classroomParams":{"A":{"a":1,"b":4},"B":{"a":4,"b":1},"C":{"a":2,"b":8},"D":{"a":8,"b":2}},"conditions":["nonSeqFull","nonSeqPartial","seqNoFeedback","seqFeedback"],"classroomPairings":[["A","B"],["C","D"]],"coinWeights":[0.2,0.5,0.8],"subjectId":"A34YDGVZKRJ0LZ","assignmentId":"3OLQQLKKNTBH7NXRSUD3SM6AGSKJE0","hitId":"3QGHA0EA0JM3KKNCY0PQRLYAHJ3BWH","url":"https://gershmanlab.com/experiments/alicia/teaching/experiment/?hitId=3QGHA0EA0JM3KKNCY0PQRLYAHJ3BWH&workerId=A34YDGVZKRJ0LZ&assignmentId=3OLQQLKKNTBH7NXRSUD3SM6AGSKJE0&a=KQLO8&tp_a=KQLO8&b=3OLQQLKKNTBH7NXRSUD3SM6AGSKJE0&tp_b=3OLQQLKKNTBH7NXRSUD3SM6AGSKJE0&c=365198&tp_c=365198"},{"rt":7618,"stimulus":"\n                <p>Student's guess for coin weight: <b style=\"color:Tomato;\">0.50</b></p>\n                <p>You received a bonus of <b>$0.45</b>. Total bonus so far: <b>$1.85</b></b></p>\n                <p> Press any key to continue.</p>\n                ","response":" ","trial_type":"html-keyboard-response","trial_index":84,"time_elapsed":866678,"internal_node_id":"0.0-83.0","params":{"nStudents":24,"maxFlips":30,"completionMinutes":45,"basePay":8,"maxBonus":9,"perTrialBonus":0.5,"perTrialBonusThreshold":0.1,"exampleCost":0.01},"classroomParams":{"A":{"a":1,"b":4},"B":{"a":4,"b":1},"C":{"a":2,"b":8},"D":{"a":8,"b":2}},"conditions":["nonSeqFull","nonSeqPartial","seqNoFeedback","seqFeedback"],"classroomPairings":[["A","B"],["C","D"]],"coinWeights":[0.2,0.5,0.8],"subjectId":"A34YDGVZKRJ0LZ","assignmentId":"3OLQQLKKNTBH7NXRSUD3SM6AGSKJE0","hitId":"3QGHA0EA0JM3KKNCY0PQRLYAHJ3BWH","url":"https://gershmanlab.com/experiments/alicia/teaching/experiment/?hitId=3QGHA0EA0JM3KKNCY0PQRLYAHJ3BWH&workerId=A34YDGVZKRJ0LZ&assignmentId=3OLQQLKKNTBH7NXRSUD3SM6AGSKJE0&a=KQLO8&tp_a=KQLO8&b=3OLQQLKKNTBH7NXRSUD3SM6AGSKJE0&tp_b=3OLQQLKKNTBH7NXRSUD3SM6AGSKJE0&c=365198&tp_c=365198"},{"rt":null,"stimulus":"<div style=\"font-size:60px;\">Next student</div>","response":null,"trial_type":"html-keyboard-response","trial_index":85,"time_elapsed":868930,"internal_node_id":"0.0-84.0-0.0","params":{"nStudents":24,"maxFlips":30,"completionMinutes":45,"basePay":8,"maxBonus":9,"perTrialBonus":0.5,"perTrialBonusThreshold":0.1,"exampleCost":0.01},"classroomParams":{"A":{"a":1,"b":4},"B":{"a":4,"b":1},"C":{"a":2,"b":8},"D":{"a":8,"b":2}},"conditions":["nonSeqFull","nonSeqPartial","seqNoFeedback","seqFeedback"],"classroomPairings":[["A","B"],["C","D"]],"coinWeights":[0.2,0.5,0.8],"subjectId":"A34YDGVZKRJ0LZ","assignmentId":"3OLQQLKKNTBH7NXRSUD3SM6AGSKJE0","hitId":"3QGHA0EA0JM3KKNCY0PQRLYAHJ3BWH","url":"https://gershmanlab.com/experiments/alicia/teaching/experiment/?hitId=3QGHA0EA0JM3KKNCY0PQRLYAHJ3BWH&workerId=A34YDGVZKRJ0LZ&assignmentId=3OLQQLKKNTBH7NXRSUD3SM6AGSKJE0&a=KQLO8&tp_a=KQLO8&b=3OLQQLKKNTBH7NXRSUD3SM6AGSKJE0&tp_b=3OLQQLKKNTBH7NXRSUD3SM6AGSKJE0&c=365198&tp_c=365198"},{"rt":1780,"stimulus":"\n            <h4 style=\"color:Orange;\">Student 12</h4>\n            <h2>The weight of your coin is <b style=\"color:Tomato;\">0.8</b>.</h2>\n            <p>In this block, you will be giving <b>one</b> set of examples to Student 12.</p>\n                <p>You will receive feedback at the end of the block.</p>\n            ","response":0,"trial_type":"html-button-response","trial_index":86,"time_elapsed":870711,"internal_node_id":"0.0-85.0","params":{"nStudents":24,"maxFlips":30,"completionMinutes":45,"basePay":8,"maxBonus":9,"perTrialBonus":0.5,"perTrialBonusThreshold":0.1,"exampleCost":0.01},"classroomParams":{"A":{"a":1,"b":4},"B":{"a":4,"b":1},"C":{"a":2,"b":8},"D":{"a":8,"b":2}},"conditions":["nonSeqFull","nonSeqPartial","seqNoFeedback","seqFeedback"],"classroomPairings":[["A","B"],["C","D"]],"coinWeights":[0.2,0.5,0.8],"subjectId":"A34YDGVZKRJ0LZ","assignmentId":"3OLQQLKKNTBH7NXRSUD3SM6AGSKJE0","hitId":"3QGHA0EA0JM3KKNCY0PQRLYAHJ3BWH","url":"https://gershmanlab.com/experiments/alicia/teaching/experiment/?hitId=3QGHA0EA0JM3KKNCY0PQRLYAHJ3BWH&workerId=A34YDGVZKRJ0LZ&assignmentId=3OLQQLKKNTBH7NXRSUD3SM6AGSKJE0&a=KQLO8&tp_a=KQLO8&b=3OLQQLKKNTBH7NXRSUD3SM6AGSKJE0&tp_b=3OLQQLKKNTBH7NXRSUD3SM6AGSKJE0&c=365198&tp_c=365198"},{"rt":15346,"response":{"h