[{"rt":4883,"stimulus":"Welcome to the experiment. Press any key to begin.","response":"y","trial_type":"html-keyboard-response","trial_index":0,"time_elapsed":4959,"internal_node_id":"0.0-0.0","params":{"nStudents":24,"maxFlips":30,"completionMinutes":45,"basePay":8,"maxBonus":9,"perTrialBonus":0.5,"perTrialBonusThreshold":0.1,"exampleCost":0.01},"classroomParams":{"A":{"a":1,"b":4},"B":{"a":4,"b":1},"C":{"a":2,"b":8},"D":{"a":8,"b":2}},"conditions":["nonSeqFull","nonSeqPartial","seqNoFeedback","seqFeedback"],"classroomPairings":[["A","B"],["C","D"]],"coinWeights":[0.2,0.5,0.8],"subjectId":"A3RMV9ZGFJ0HHF","assignmentId":"3KB8R4ZV1FT99IV6AXQAU189L3RBGP","hitId":"3H6W48L9F4B5OEOMH57RM53ZYNHWPM","url":"https://gershmanlab.com/experiments/alicia/teaching/experiment/?hitId=3H6W48L9F4B5OEOMH57RM53ZYNHWPM&workerId=A3RMV9ZGFJ0HHF&assignmentId=3KB8R4ZV1FT99IV6AXQAU189L3RBGP&a=VRBK8&tp_a=VRBK8&b=3KB8R4ZV1FT99IV6AXQAU189L3RBGP&tp_b=3KB8R4ZV1FT99IV6AXQAU189L3RBGP&c=365198&tp_c=365198"},{"rt":9963,"stimulus":"\n        <h3>Please read this consent agreement carefully before deciding whether to participate in this experiment.</h3>\n        <p><b>Purpose of the research:</b> To examine how people teach effectively.</p>\n        <p><b>What you will do in this research:</b> You will teach students the weights of different coins.</p>\n        <p><b>Time required:</b> This experiment will take 45 minutes to complete.</p>\n        <p><b>Risks:</b> There are no anticipated risks associated with participating in this study.             The effects of participating should be comparable to those you would experience from viewing a computer monitor             and using a mouse and keyboard for the duration of the experiment.</p>\n        <p><b>Benefits:</b> The study provides important information about the nature of teaching.</p>\n        <p><b>Compensation:</b> You will receive <b>$8</b> for completing the experiment and a performance bonus of up to <b>$9</b>.</p>\n        <p><b>Confidentiality:</b> Your participation in this study will remain confidential.             No personally identifiable information will be associated with your data.             Your de-identified data may be shared with other researchers and used in future projects.</p>\n        <p><b>Participation and withdrawal:</b> Your participation in this study is completely voluntary and             you may refuse to participate or you may choose to withdraw at any time without penalty or loss of\n            benefits to which you are otherwise entitled.</p>\n        <p><b>How to contact the researcher:</b> If you have questions or concerns about your participation            or payment, or want to request a summary of research findings, please contact\n            Alicia Chen, aliciachen@college.harvard.edu.</p>\n        <p><b>Whom to contact about your rights in this research:</b> For questions, concerns, suggestions,             or complaints that have not been or cannot be addressed by the researcher, or to report             research-related harm, please contact the Committee on the Use of Human Subjects in Research at Harvard University,             1414 Massachusetts Avenue, Second Floor, Cambridge, MA 02138. Phone: 617-496-2847. Email: cuhs@fas.harvard.edu.</p>\n        ","response":0,"trial_type":"html-button-response","trial_index":1,"time_elapsed":14930,"internal_node_id":"0.0-1.0","params":{"nStudents":24,"maxFlips":30,"completionMinutes":45,"basePay":8,"maxBonus":9,"perTrialBonus":0.5,"perTrialBonusThreshold":0.1,"exampleCost":0.01},"classroomParams":{"A":{"a":1,"b":4},"B":{"a":4,"b":1},"C":{"a":2,"b":8},"D":{"a":8,"b":2}},"conditions":["nonSeqFull","nonSeqPartial","seqNoFeedback","seqFeedback"],"classroomPairings":[["A","B"],["C","D"]],"coinWeights":[0.2,0.5,0.8],"subjectId":"A3RMV9ZGFJ0HHF","assignmentId":"3KB8R4ZV1FT99IV6AXQAU189L3RBGP","hitId":"3H6W48L9F4B5OEOMH57RM53ZYNHWPM","url":"https://gershmanlab.com/experiments/alicia/teaching/experiment/?hitId=3H6W48L9F4B5OEOMH57RM53ZYNHWPM&workerId=A3RMV9ZGFJ0HHF&assignmentId=3KB8R4ZV1FT99IV6AXQAU189L3RBGP&a=VRBK8&tp_a=VRBK8&b=3KB8R4ZV1FT99IV6AXQAU189L3RBGP&tp_b=3KB8R4ZV1FT99IV6AXQAU189L3RBGP&c=365198&tp_c=365198"},{"view_history":[{"page_index":0,"viewing_time":10567},{"page_index":1,"viewing_time":5245},{"page_index":2,"viewing_time":53626},{"page_index":3,"viewing_time":31695},{"page_index":4,"viewing_time":12672},{"page_index":5,"viewing_time":31296},{"page_index":6,"viewing_time":55721}],"rt":200823,"trial_type":"instructions","trial_index":2,"time_elapsed":215757,"internal_node_id":"0.0-2.0-0.0","params":{"nStudents":24,"maxFlips":30,"completionMinutes":45,"basePay":8,"maxBonus":9,"perTrialBonus":0.5,"perTrialBonusThreshold":0.1,"exampleCost":0.01},"classroomParams":{"A":{"a":1,"b":4},"B":{"a":4,"b":1},"C":{"a":2,"b":8},"D":{"a":8,"b":2}},"conditions":["nonSeqFull","nonSeqPartial","seqNoFeedback","seqFeedback"],"classroomPairings":[["A","B"],["C","D"]],"coinWeights":[0.2,0.5,0.8],"subjectId":"A3RMV9ZGFJ0HHF","assignmentId":"3KB8R4ZV1FT99IV6AXQAU189L3RBGP","hitId":"3H6W48L9F4B5OEOMH57RM53ZYNHWPM","url":"https://gershmanlab.com/experiments/alicia/teaching/experiment/?hitId=3H6W48L9F4B5OEOMH57RM53ZYNHWPM&workerId=A3RMV9ZGFJ0HHF&assignmentId=3KB8R4ZV1FT99IV6AXQAU189L3RBGP&a=VRBK8&tp_a=VRBK8&b=3KB8R4ZV1FT99IV6AXQAU189L3RBGP&tp_b=3KB8R4ZV1FT99IV6AXQAU189L3RBGP&c=365198&tp_c=365198"},{"rt":55299,"response":{"Q0":"Students in different classrooms will have seen a different number of heads and tails before seeing the examples you select for them.","Q1":"By teaching efficiently and accurately/helpfully at the same time (because each example I give to the student costs money!).","Q2":"The coin lands heads 90% of the time.","Q3":"No, I will teach a <b>new</b> student each time.","Q4":"The students are also on the same alien planet as you, where coins can be unfair.","Q5":"Based on the student's second (and final) guess."},"question_order":[1,4,5,2,3,0],"trial_type":"survey-multi-choice","trial_index":3,"time_elapsed":271067,"internal_node_id":"0.0-2.0-1.0","params":{"nStudents":24,"maxFlips":30,"completionMinutes":45,"basePay":8,"maxBonus":9,"perTrialBonus":0.5,"perTrialBonusThreshold":0.1,"exampleCost":0.01},"classroomParams":{"A":{"a":1,"b":4},"B":{"a":4,"b":1},"C":{"a":2,"b":8},"D":{"a":8,"b":2}},"conditions":["nonSeqFull","nonSeqPartial","seqNoFeedback","seqFeedback"],"classroomPairings":[["A","B"],["C","D"]],"coinWeights":[0.2,0.5,0.8],"subjectId":"A3RMV9ZGFJ0HHF","assignmentId":"3KB8R4ZV1FT99IV6AXQAU189L3RBGP","hitId":"3H6W48L9F4B5OEOMH57RM53ZYNHWPM","url":"https://gershmanlab.com/experiments/alicia/teaching/experiment/?hitId=3H6W48L9F4B5OEOMH57RM53ZYNHWPM&workerId=A3RMV9ZGFJ0HHF&assignmentId=3KB8R4ZV1FT99IV6AXQAU189L3RBGP&a=VRBK8&tp_a=VRBK8&b=3KB8R4ZV1FT99IV6AXQAU189L3RBGP&tp_b=3KB8R4ZV1FT99IV6AXQAU189L3RBGP&c=365198&tp_c=365198","pass":true},{"rt":null,"stimulus":"<div style=\"font-size:30px;\">Congrats on passing the comprehension quiz! The experiment will begin in a few seconds.</div>","response":null,"trial_type":"html-keyboard-response","trial_index":4,"time_elapsed":274081,"internal_node_id":"0.0-3.0","params":{"nStudents":24,"maxFlips":30,"completionMinutes":45,"basePay":8,"maxBonus":9,"perTrialBonus":0.5,"perTrialBonusThreshold":0.1,"exampleCost":0.01},"classroomParams":{"A":{"a":1,"b":4},"B":{"a":4,"b":1},"C":{"a":2,"b":8},"D":{"a":8,"b":2}},"conditions":["nonSeqFull","nonSeqPartial","seqNoFeedback","seqFeedback"],"classroomPairings":[["A","B"],["C","D"]],"coinWeights":[0.2,0.5,0.8],"subjectId":"A3RMV9ZGFJ0HHF","assignmentId":"3KB8R4ZV1FT99IV6AXQAU189L3RBGP","hitId":"3H6W48L9F4B5OEOMH57RM53ZYNHWPM","url":"https://gershmanlab.com/experiments/alicia/teaching/experiment/?hitId=3H6W48L9F4B5OEOMH57RM53ZYNHWPM&workerId=A3RMV9ZGFJ0HHF&assignmentId=3KB8R4ZV1FT99IV6AXQAU189L3RBGP&a=VRBK8&tp_a=VRBK8&b=3KB8R4ZV1FT99IV6AXQAU189L3RBGP&tp_b=3KB8R4ZV1FT99IV6AXQAU189L3RBGP&c=365198&tp_c=365198"},{"rt":null,"stimulus":"<div style=\"font-size:50px;\">First student</div>","response":null,"trial_type":"html-keyboard-response","trial_index":5,"time_elapsed":277088,"internal_node_id":"0.0-4.0","params":{"nStudents":24,"maxFlips":30,"completionMinutes":45,"basePay":8,"maxBonus":9,"perTrialBonus":0.5,"perTrialBonusThreshold":0.1,"exampleCost":0.01},"classroomParams":{"A":{"a":1,"b":4},"B":{"a":4,"b":1},"C":{"a":2,"b":8},"D":{"a":8,"b":2}},"conditions":["nonSeqFull","nonSeqPartial","seqNoFeedback","seqFeedback"],"classroomPairings":[["A","B"],["C","D"]],"coinWeights":[0.2,0.5,0.8],"subjectId":"A3RMV9ZGFJ0HHF","assignmentId":"3KB8R4ZV1FT99IV6AXQAU189L3RBGP","hitId":"3H6W48L9F4B5OEOMH57RM53ZYNHWPM","url":"https://gershmanlab.com/experiments/alicia/teaching/experiment/?hitId=3H6W48L9F4B5OEOMH57RM53ZYNHWPM&workerId=A3RMV9ZGFJ0HHF&assignmentId=3KB8R4ZV1FT99IV6AXQAU189L3RBGP&a=VRBK8&tp_a=VRBK8&b=3KB8R4ZV1FT99IV6AXQAU189L3RBGP&tp_b=3KB8R4ZV1FT99IV6AXQAU189L3RBGP&c=365198&tp_c=365198"},{"rt":10864,"stimulus":"\n            <h4 style=\"color:Orange;\">Student 1</h4>\n            <h2>The weight of your coin is <b style=\"color:Tomato;\">0.5</b>.</h2>\n            <p>In this block, you will be giving <b>one</b> set of examples to Student 1.</p>\n                <p>You will receive feedback at the end of the block.</p>\n            ","response":0,"trial_type":"html-button-response","trial_index":6,"time_elapsed":287958,"internal_node_id":"0.0-5.0","params":{"nStudents":24,"maxFlips":30,"completionMinutes":45,"basePay":8,"maxBonus":9,"perTrialBonus":0.5,"perTrialBonusThreshold":0.1,"exampleCost":0.01},"classroomParams":{"A":{"a":1,"b":4},"B":{"a":4,"b":1},"C":{"a":2,"b":8},"D":{"a":8,"b":2}},"conditions":["nonSeqFull","nonSeqPartial","seqNoFeedback","seqFeedback"],"classroomPairings":[["A","B"],["C","D"]],"coinWeights":[0.2,0.5,0.8],"subjectId":"A3RMV9ZGFJ0HHF","assignmentId":"3KB8R4ZV1FT99IV6AXQAU189L3RBGP","hitId":"3H6W48L9F4B5OEOMH57RM53ZYNHWPM","url":"https://gershmanlab.com/experiments/alicia/teaching/experiment/?hitId=3H6W48L9F4B5OEOMH57RM53ZYNHWPM&workerId=A3RMV9ZGFJ0HHF&assignmentId=3KB8R4ZV1FT99IV6AXQAU189L3RBGP&a=VRBK8&tp_a=VRBK8&b=3KB8R4ZV1FT99IV6AXQAU189L3RBGP&tp_b=3KB8R4ZV1FT99IV6AXQAU189L3RBGP&c=365198&tp_c=365198"},{"rt":27043,"response":{"heads":"2","tails":"2"},"type":"response","condition":"nonSeqFull","trueTheta":0.5,"classrooms":["C","D"],"studentTrueClassroom":"C","exampleSet":"first","trial_type":"survey-html-form","trial_index":7,"time_elapsed":315010,"internal_node_id":"0.0-6.0-0.0","params":{"nStudents":24,"maxFlips":30,"completionMinutes":45,"basePay":8,"maxBonus":9,"perTrialBonus":0.5,"perTrialBonusThreshold":0.1,"exampleCost":0.01},"classroomParams":{"A":{"a":1,"b":4},"B":{"a":4,"b":1},"C":{"a":2,"b":8},"D":{"a":8,"b":2}},"conditions":["nonSeqFull","nonSeqPartial","seqNoFeedback","seqFeedback"],"classroomPairings":[["A","B"],["C","D"]],"coinWeights":[0.2,0.5,0.8],"subjectId":"A3RMV9ZGFJ0HHF","assignmentId":"3KB8R4ZV1FT99IV6AXQAU189L3RBGP","hitId":"3H6W48L9F4B5OEOMH57RM53ZYNHWPM","url":"https://gershmanlab.com/experiments/alicia/teaching/experiment/?hitId=3H6W48L9F4B5OEOMH57RM53ZYNHWPM&workerId=A3RMV9ZGFJ0HHF&assignmentId=3KB8R4ZV1FT99IV6AXQAU189L3RBGP&a=VRBK8&tp_a=VRBK8&b=3KB8R4ZV1FT99IV6AXQAU189L3RBGP&tp_b=3KB8R4ZV1FT99IV6AXQAU189L3RBGP&c=365198&tp_c=365198","heads":2,"tails":2,"studentIndex":0,"studentTrueHypers":{"a":2,"b":8},"studentGuess":0.2857142857142857,"delta":0.2142857142857143,"totalExamples":4,"bonus":0,"bonusSoFar":0},{"rt":null,"stimulus":"Sending examples to student... ","response":null,"trial_type":"html-keyboard-response","trial_index":8,"time_elapsed":316766,"internal_node_id":"0.0-7.0","params":{"nStudents":24,"maxFlips":30,"completionMinutes":45,"basePay":8,"maxBonus":9,"perTrialBonus":0.5,"perTrialBonusThreshold":0.1,"exampleCost":0.01},"classroomParams":{"A":{"a":1,"b":4},"B":{"a":4,"b":1},"C":{"a":2,"b":8},"D":{"a":8,"b":2}},"conditions":["nonSeqFull","nonSeqPartial","seqNoFeedback","seqFeedback"],"classroomPairings":[["A","B"],["C","D"]],"coinWeights":[0.2,0.5,0.8],"subjectId":"A3RMV9ZGFJ0HHF","assignmentId":"3KB8R4ZV1FT99IV6AXQAU189L3RBGP","hitId":"3H6W48L9F4B5OEOMH57RM53ZYNHWPM","url":"https://gershmanlab.com/experiments/alicia/teaching/experiment/?hitId=3H6W48L9F4B5OEOMH57RM53ZYNHWPM&workerId=A3RMV9ZGFJ0HHF&assignmentId=3KB8R4ZV1FT99IV6AXQAU189L3RBGP&a=VRBK8&tp_a=VRBK8&b=3KB8R4ZV1FT99IV6AXQAU189L3RBGP&tp_b=3KB8R4ZV1FT99IV6AXQAU189L3RBGP&c=365198&tp_c=365198"},{"rt":null,"stimulus":"Examples sent to student! Waiting for student...","response":null,"trial_type":"html-keyboard-response","trial_index":9,"time_elapsed":321769,"internal_node_id":"0.0-8.0","params":{"nStudents":24,"maxFlips":30,"completionMinutes":45,"basePay":8,"maxBonus":9,"perTrialBonus":0.5,"perTrialBonusThreshold":0.1,"exampleCost":0.01},"classroomParams":{"A":{"a":1,"b":4},"B":{"a":4,"b":1},"C":{"a":2,"b":8},"D":{"a":8,"b":2}},"conditions":["nonSeqFull","nonSeqPartial","seqNoFeedback","seqFeedback"],"classroomPairings":[["A","B"],["C","D"]],"coinWeights":[0.2,0.5,0.8],"subjectId":"A3RMV9ZGFJ0HHF","assignmentId":"3KB8R4ZV1FT99IV6AXQAU189L3RBGP","hitId":"3H6W48L9F4B5OEOMH57RM53ZYNHWPM","url":"https://gershmanlab.com/experiments/alicia/teaching/experiment/?hitId=3H6W48L9F4B5OEOMH57RM53ZYNHWPM&workerId=A3RMV9ZGFJ0HHF&assignmentId=3KB8R4ZV1FT99IV6AXQAU189L3RBGP&a=VRBK8&tp_a=VRBK8&b=3KB8R4ZV1FT99IV6AXQAU189L3RBGP&tp_b=3KB8R4ZV1FT99IV6AXQAU189L3RBGP&c=365198&tp_c=365198"},{"rt":3672,"stimulus":"\n                <p>Student's guess for coin weight: <b style=\"color:Tomato;\">0.29</b></p>\n                <p>You received a bonus of <b>$0</b>. Total bonus so far: <b>$0.00</b></b></p>\n                <p> Press any key to continue.</p>\n                ","response":"h","trial_type":"html-keyboard-response","trial_index":10,"time_elapsed":325447,"internal_node_id":"0.0-9.0","params":{"nStudents":24,"maxFlips":30,"completionMinutes":45,"basePay":8,"maxBonus":9,"perTrialBonus":0.5,"perTrialBonusThreshold":0.1,"exampleCost":0.01},"classroomParams":{"A":{"a":1,"b":4},"B":{"a":4,"b":1},"C":{"a":2,"b":8},"D":{"a":8,"b":2}},"conditions":["nonSeqFull","nonSeqPartial","seqNoFeedback","seqFeedback"],"classroomPairings":[["A","B"],["C","D"]],"coinWeights":[0.2,0.5,0.8],"subjectId":"A3RMV9ZGFJ0HHF","assignmentId":"3KB8R4ZV1FT99IV6AXQAU189L3RBGP","hitId":"3H6W48L9F4B5OEOMH57RM53ZYNHWPM","url":"https://gershmanlab.com/experiments/alicia/teaching/experiment/?hitId=3H6W48L9F4B5OEOMH57RM53ZYNHWPM&workerId=A3RMV9ZGFJ0HHF&assignmentId=3KB8R4ZV1FT99IV6AXQAU189L3RBGP&a=VRBK8&tp_a=VRBK8&b=3KB8R4ZV1FT99IV6AXQAU189L3RBGP&tp_b=3KB8R4ZV1FT99IV6AXQAU189L3RBGP&c=365198&tp_c=365198"},{"rt":null,"stimulus":"<div style=\"font-size:60px;\">Next student</div>","response":null,"trial_type":"html-keyboard-response","trial_index":11,"time_elapsed":327701,"internal_node_id":"0.0-10.0-0.0","params":{"nStudents":24,"maxFlips":30,"completionMinutes":45,"basePay":8,"maxBonus":9,"perTrialBonus":0.5,"perTrialBonusThreshold":0.1,"exampleCost":0.01},"classroomParams":{"A":{"a":1,"b":4},"B":{"a":4,"b":1},"C":{"a":2,"b":8},"D":{"a":8,"b":2}},"conditions":["nonSeqFull","nonSeqPartial","seqNoFeedback","seqFeedback"],"classroomPairings":[["A","B"],["C","D"]],"coinWeights":[0.2,0.5,0.8],"subjectId":"A3RMV9ZGFJ0HHF","assignmentId":"3KB8R4ZV1FT99IV6AXQAU189L3RBGP","hitId":"3H6W48L9F4B5OEOMH57RM53ZYNHWPM","url":"https://gershmanlab.com/experiments/alicia/teaching/experiment/?hitId=3H6W48L9F4B5OEOMH57RM53ZYNHWPM&workerId=A3RMV9ZGFJ0HHF&assignmentId=3KB8R4ZV1FT99IV6AXQAU189L3RBGP&a=VRBK8&tp_a=VRBK8&b=3KB8R4ZV1FT99IV6AXQAU189L3RBGP&tp_b=3KB8R4ZV1FT99IV6AXQAU189L3RBGP&c=365198&tp_c=365198"},{"rt":8198,"stimulus":"\n            <h4 style=\"color:Orange;\">Student 2</h4>\n            <h2>The weight of your coin is <b style=\"color:Tomato;\">0.2</b>.</h2>\n            <p>In this block, you will be giving <b>two</b> sets of examples to Student 2.</p>\n                <p>You will see the student's guess after the first set of examples. You will also receive feedback at the end of the block.</p>\n            ","response":0,"trial_type":"html-button-response","trial_index":12,"time_elapsed":335906,"internal_node_id":"0.0-11.0","params":{"nStudents":24,"maxFlips":30,"completionMinutes":45,"basePay":8,"maxBonus":9,"perTrialBonus":0.5,"perTrialBonusThreshold":0.1,"exampleCost":0.01},"classroomParams":{"A":{"a":1,"b":4},"B":{"a":4,"b":1},"C":{"a":2,"b":8},"D":{"a":8,"b":2}},"conditions":["nonSeqFull","nonSeqPartial","seqNoFeedback","seqFeedback"],"classroomPairings":[["A","B"],["C","D"]],"coinWeights":[0.2,0.5,0.8],"subjectId":"A3RMV9ZGFJ0HHF","assignmentId":"3KB8R4ZV1FT99IV6AXQAU189L3RBGP","hitId":"3H6W48L9F4B5OEOMH57RM53ZYNHWPM","url":"https://gershmanlab.com/experiments/alicia/teaching/experiment/?hitId=3H6W48L9F4B5OEOMH57RM53ZYNHWPM&workerId=A3RMV9ZGFJ0HHF&assignmentId=3KB8R4ZV1FT99IV6AXQAU189L3RBGP&a=VRBK8&tp_a=VRBK8&b=3KB8R4ZV1FT99IV6AXQAU189L3RBGP&tp_b=3KB8R4ZV1FT99IV6AXQAU189L3RBGP&c=365198&tp_c=365198"},{"rt":17835,"response":{"heads":"2","tails":"8"},"type":"response","condition":"seqFeedback","trueTheta":0.2,"classrooms":["A","B"],"studentTrueClassroom":"A","exampleSet":"first","trial_type":"survey-html-form","trial_index":13,"time_elapsed":353745,"internal_node_id":"0.0-12.0-0.0","params":{"nStudents":24,"maxFlips":30,"completionMinutes":45,"basePay":8,"maxBonus":9,"perTrialBonus":0.5,"perTrialBonusThreshold":0.1,"exampleCost":0.01},"classroomParams":{"A":{"a":1,"b":4},"B":{"a":4,"b":1},"C":{"a":2,"b":8},"D":{"a":8,"b":2}},"conditions":["nonSeqFull","nonSeqPartial","seqNoFeedback","seqFeedback"],"classroomPairings":[["A","B"],["C","D"]],"coinWeights":[0.2,0.5,0.8],"subjectId":"A3RMV9ZGFJ0HHF","assignmentId":"3KB8R4ZV1FT99IV6AXQAU189L3RBGP","hitId":"3H6W48L9F4B5OEOMH57RM53ZYNHWPM","url":"https://gershmanlab.com/experiments/alicia/teaching/experiment/?hitId=3H6W48L9F4B5OEOMH57RM53ZYNHWPM&workerId=A3RMV9ZGFJ0HHF&assignmentId=3KB8R4ZV1FT99IV6AXQAU189L3RBGP&a=VRBK8&tp_a=VRBK8&b=3KB8R4ZV1FT99IV6AXQAU189L3RBGP&tp_b=3KB8R4ZV1FT99IV6AXQAU189L3RBGP&c=365198&tp_c=365198","heads":2,"tails":8,"studentIndex":1,"studentTrueHypers":{"a":1,"b":4},"studentGuess":0.2,"delta":0,"totalExamples":10,"bonusSoFar":0},{"rt":null,"stimulus":"Sending examples to student... ","response":null,"trial_type":"html-keyboard-response","trial_index":14,"time_elapsed":355255,"internal_node_id":"0.0-13.0","params":{"nStudents":24,"maxFlips":30,"completionMinutes":45,"basePay":8,"maxBonus":9,"perTrialBonus":0.5,"perTrialBonusThreshold":0.1,"exampleCost":0.01},"classroomParams":{"A":{"a":1,"b":4},"B":{"a":4,"b":1},"C":{"a":2,"b":8},"D":{"a":8,"b":2}},"conditions":["nonSeqFull","nonSeqPartial","seqNoFeedback","seqFeedback"],"classroomPairings":[["A","B"],["C","D"]],"coinWeights":[0.2,0.5,0.8],"subjectId":"A3RMV9ZGFJ0HHF","assignmentId":"3KB8R4ZV1FT99IV6AXQAU189L3RBGP","hitId":"3H6W48L9F4B5OEOMH57RM53ZYNHWPM","url":"https://gershmanlab.com/experiments/alicia/teaching/experiment/?hitId=3H6W48L9F4B5OEOMH57RM53ZYNHWPM&workerId=A3RMV9ZGFJ0HHF&assignmentId=3KB8R4ZV1FT99IV6AXQAU189L3RBGP&a=VRBK8&tp_a=VRBK8&b=3KB8R4ZV1FT99IV6AXQAU189L3RBGP&tp_b=3KB8R4ZV1FT99IV6AXQAU189L3RBGP&c=365198&tp_c=365198"},{"rt":null,"stimulus":"Examples sent to student! Waiting for student...","response":null,"trial_type":"html-keyboard-response","trial_index":15,"time_elapsed":360259,"internal_node_id":"0.0-14.0","params":{"nStudents":24,"maxFlips":30,"completionMinutes":45,"basePay":8,"maxBonus":9,"perTrialBonus":0.5,"perTrialBonusThreshold":0.1,"exampleCost":0.01},"classroomParams":{"A":{"a":1,"b":4},"B":{"a":4,"b":1},"C":{"a":2,"b":8},"D":{"a":8,"b":2}},"conditions":["nonSeqFull","nonSeqPartial","seqNoFeedback","seqFeedback"],"classroomPairings":[["A","B"],["C","D"]],"coinWeights":[0.2,0.5,0.8],"subjectId":"A3RMV9ZGFJ0HHF","assignmentId":"3KB8R4ZV1FT99IV6AXQAU189L3RBGP","hitId":"3H6W48L9F4B5OEOMH57RM53ZYNHWPM","url":"https://gershmanlab.com/experiments/alicia/teaching/experiment/?hitId=3H6W48L9F4B5OEOMH57RM53ZYNHWPM&workerId=A3RMV9ZGFJ0HHF&assignmentId=3KB8R4ZV1FT99IV6AXQAU189L3RBGP&a=VRBK8&tp_a=VRBK8&b=3KB8R4ZV1FT99IV6AXQAU189L3RBGP&tp_b=3KB8R4ZV1FT99IV6AXQAU189L3RBGP&c=365198&tp_c=365198"},{"rt":3095,"stimulus":"\n                <p>Student's guess for coin weight: <b style=\"color:Tomato;\">0.20</b></p>\n                <p></b></p>\n                <p>You will now send another set of examples to your student. Press any key to continue.</p>\n                ","response":"b","trial_type":"html-keyboard-response","trial_index":16,"time_elapsed":363357,"internal_node_id":"0.0-15.0","params":{"nStudents":24,"maxFlips":30,"completionMinutes":45,"basePay":8,"maxBonus":9,"perTrialBonus":0.5,"perTrialBonusThreshold":0.1,"exampleCost":0.01},"classroomParams":{"A":{"a":1,"b":4},"B":{"a":4,"b":1},"C":{"a":2,"b":8},"D":{"a":8,"b":2}},"conditions":["nonSeqFull","nonSeqPartial","seqNoFeedback","seqFeedback"],"classroomPairings":[["A","B"],["C","D"]],"coinWeights":[0.2,0.5,0.8],"subjectId":"A3RMV9ZGFJ0HHF","assignmentId":"3KB8R4ZV1FT99IV6AXQAU189L3RBGP","hitId":"3H6W48L9F4B5OEOMH57RM53ZYNHWPM","url":"https://gershmanlab.com/experiments/alicia/teaching/experiment/?hitId=3H6W48L9F4B5OEOMH57RM53ZYNHWPM&workerId=A3RMV9ZGFJ0HHF&assignmentId=3KB8R4ZV1FT99IV6AXQAU189L3RBGP&a=VRBK8&tp_a=VRBK8&b=3KB8R4ZV1FT99IV6AXQAU189L3RBGP&tp_b=3KB8R4ZV1FT99IV6AXQAU189L3RBGP&c=365198&tp_c=365198"},{"rt":24695,"response":{"heads":"1","tails":"4"},"type":"response","condition":"seqFeedback","trueTheta":0.2,"classrooms":["A","B"],"studentTrueClassroom":"A","exampleSet":"second","trial_type":"survey-html-form","trial_index":17,"time_elapsed":388060,"internal_node_id":"0.0-16.0-0.0","params":{"nStudents":24,"maxFlips":30,"completionMinutes":45,"basePay":8,"maxBonus":9,"perTrialBonus":0.5,"perTrialBonusThreshold":0.1,"exampleCost":0.01},"classroomParams":{"A":{"a":1,"b":4},"B":{"a":4,"b":1},"C":{"a":2,"b":8},"D":{"a":8,"b":2}},"conditions":["nonSeqFull","nonSeqPartial","seqNoFeedback","seqFeedback"],"classroomPairings":[["A","B"],["C","D"]],"coinWeights":[0.2,0.5,0.8],"subjectId":"A3RMV9ZGFJ0HHF","assignmentId":"3KB8R4ZV1FT99IV6AXQAU189L3RBGP","hitId":"3H6W48L9F4B5OEOMH57RM53ZYNHWPM","url":"https://gershmanlab.com/experiments/alicia/teaching/experiment/?hitId=3H6W48L9F4B5OEOMH57RM53ZYNHWPM&workerId=A3RMV9ZGFJ0HHF&assignmentId=3KB8R4ZV1FT99IV6AXQAU189L3RBGP&a=VRBK8&tp_a=VRBK8&b=3KB8R4ZV1FT99IV6AXQAU189L3RBGP&tp_b=3KB8R4ZV1FT99IV6AXQAU189L3RBGP&c=365198&tp_c=365198","firstResponseHeads":2,"firstResponseTails":8,"secondResponseHeads":1,"secondResponseTails":4,"studentIndex":1,"studentTrueHypers":{"a":1,"b":4},"studentGuess":0.2,"delta":0,"bonus":0.35,"bonusSoFar":0.35,"totalExamples":15},{"rt":null,"stimulus":"Sending examples to student... ","response":null,"trial_type":"html-keyboard-response","trial_index":18,"time_elapsed":389819,"internal_node_id":"0.0-17.0","params":{"nStudents":24,"maxFlips":30,"completionMinutes":45,"basePay":8,"maxBonus":9,"perTrialBonus":0.5,"perTrialBonusThreshold":0.1,"exampleCost":0.01},"classroomParams":{"A":{"a":1,"b":4},"B":{"a":4,"b":1},"C":{"a":2,"b":8},"D":{"a":8,"b":2}},"conditions":["nonSeqFull","nonSeqPartial","seqNoFeedback","seqFeedback"],"classroomPairings":[["A","B"],["C","D"]],"coinWeights":[0.2,0.5,0.8],"subjectId":"A3RMV9ZGFJ0HHF","assignmentId":"3KB8R4ZV1FT99IV6AXQAU189L3RBGP","hitId":"3H6W48L9F4B5OEOMH57RM53ZYNHWPM","url":"https://gershmanlab.com/experiments/alicia/teaching/experiment/?hitId=3H6W48L9F4B5OEOMH57RM53ZYNHWPM&workerId=A3RMV9ZGFJ0HHF&assignmentId=3KB8R4ZV1FT99IV6AXQAU189L3RBGP&a=VRBK8&tp_a=VRBK8&b=3KB8R4ZV1FT99IV6AXQAU189L3RBGP&tp_b=3KB8R4ZV1FT99IV6AXQAU189L3RBGP&c=365198&tp_c=365198"},{"rt":null,"stimulus":"Examples sent to student! Waiting for student...","response":null,"trial_type":"html-keyboard-response","trial_index":19,"time_elapsed":395322,"internal_node_id":"0.0-18.0","params":{"nStudents":24,"maxFlips":30,"completionMinutes":45,"basePay":8,"maxBonus":9,"perTrialBonus":0.5,"perTrialBonusThreshold":0.1,"exampleCost":0.01},"classroomParams":{"A":{"a":1,"b":4},"B":{"a":4,"b":1},"C":{"a":2,"b":8},"D":{"a":8,"b":2}},"conditions":["nonSeqFull","nonSeqPartial","seqNoFeedback","seqFeedback"],"classroomPairings":[["A","B"],["C","D"]],"coinWeights":[0.2,0.5,0.8],"subjectId":"A3RMV9ZGFJ0HHF","assignmentId":"3KB8R4ZV1FT99IV6AXQAU189L3RBGP","hitId":"3H6W48L9F4B5OEOMH57RM53ZYNHWPM","url":"https://gershmanlab.com/experiments/alicia/teaching/experiment/?hitId=3H6W48L9F4B5OEOMH57RM53ZYNHWPM&workerId=A3RMV9ZGFJ0HHF&assignmentId=3KB8R4ZV1FT99IV6AXQAU189L3RBGP&a=VRBK8&tp_a=VRBK8&b=3KB8R4ZV1FT99IV6AXQAU189L3RBGP&tp_b=3KB8R4ZV1FT99IV6AXQAU189L3RBGP&c=365198&tp_c=365198"},{"rt":3647,"stimulus":"\n                <p>Student 2's first guess for coin weight: <b style=\"color:Tomato\";>0.20</b></p>\n                <p>Student 2's second guess for coin weight: <b style=\"color:Tomato\";>0.20</b></p>\n                <p>You received a bonus of <b>$0.35</b> based on the student's second guess.</p>\n                <p>Total bonus so far: <b>$0.35</b></p>\n                <p>Press any key to continue.</p>\n                ","response":"n","trial_type":"html-keyboard-response","trial_index":20,"time_elapsed":398975,"internal_node_id":"0.0-19.0","params":{"nStudents":24,"maxFlips":30,"completionMinutes":45,"basePay":8,"maxBonus":9,"perTrialBonus":0.5,"perTrialBonusThreshold":0.1,"exampleCost":0.01},"classroomParams":{"A":{"a":1,"b":4},"B":{"a":4,"b":1},"C":{"a":2,"b":8},"D":{"a":8,"b":2}},"conditions":["nonSeqFull","nonSeqPartial","seqNoFeedback","seqFeedback"],"classroomPairings":[["A","B"],["C","D"]],"coinWeights":[0.2,0.5,0.8],"subjectId":"A3RMV9ZGFJ0HHF","assignmentId":"3KB8R4ZV1FT99IV6AXQAU189L3RBGP","hitId":"3H6W48L9F4B5OEOMH57RM53ZYNHWPM","url":"https://gershmanlab.com/experiments/alicia/teaching/experiment/?hitId=3H6W48L9F4B5OEOMH57RM53ZYNHWPM&workerId=A3RMV9ZGFJ0HHF&assignmentId=3KB8R4ZV1FT99IV6AXQAU189L3RBGP&a=VRBK8&tp_a=VRBK8&b=3KB8R4ZV1FT99IV6AXQAU189L3RBGP&tp_b=3KB8R4ZV1FT99IV6AXQAU189L3RBGP&c=365198&tp_c=365198"},{"rt":null,"stimulus":"<div style=\"font-size:60px;\">Next student</div>","response":null,"trial_type":"html-keyboard-response","trial_index":21,"time_elapsed":401479,"internal_node_id":"0.0-20.0-0.0","params":{"nStudents":24,"maxFlips":30,"completionMinutes":45,"basePay":8,"maxBonus":9,"perTrialBonus":0.5,"perTrialBonusThreshold":0.1,"exampleCost":0.01},"classroomParams":{"A":{"a":1,"b":4},"B":{"a":4,"b":1},"C":{"a":2,"b":8},"D":{"a":8,"b":2}},"conditions":["nonSeqFull","nonSeqPartial","seqNoFeedback","seqFeedback"],"classroomPairings":[["A","B"],["C","D"]],"coinWeights":[0.2,0.5,0.8],"subjectId":"A3RMV9ZGFJ0HHF","assignmentId":"3KB8R4ZV1FT99IV6AXQAU189L3RBGP","hitId":"3H6W48L9F4B5OEOMH57RM53ZYNHWPM","url":"https://gershmanlab.com/experiments/alicia/teaching/experiment/?hitId=3H6W48L9F4B5OEOMH57RM53ZYNHWPM&workerId=A3RMV9ZGFJ0HHF&assignmentId=3KB8R4ZV1FT99IV6AXQAU189L3RBGP&a=VRBK8&tp_a=VRBK8&b=3KB8R4ZV1FT99IV6AXQAU189L3RBGP&tp_b=3KB8R4ZV1FT99IV6AXQAU189L3RBGP&c=365198&tp_c=365198"},{"rt":4702,"stimulus":"\n            <h4 style=\"color:Orange;\">Student 3</h4>\n            <h2>The weight of your coin is <b style=\"color:Tomato;\">0.2</b>.</h2>\n            <p>In this block, you will be giving <b>one</b> set of examples to Student 3.</p>\n                <p>You will receive feedback at the end of the block.</p>\n            ","response":0,"trial_type":"html-button-response","trial_index":22,"time_elapsed":406186,"internal_node_id":"0.0-21.0","params":{"nStudents":24,"maxFlips":30,"completionMinutes":45,"basePay":8,"maxBonus":9,"perTrialBonus":0.5,"perTrialBonusThreshold":0.1,"exampleCost":0.01},"classroomParams":{"A":{"a":1,"b":4},"B":{"a":4,"b":1},"C":{"a":2,"b":8},"D":{"a":8,"b":2}},"conditions":["nonSeqFull","nonSeqPartial","seqNoFeedback","seqFeedback"],"classroomPairings":[["A","B"],["C","D"]],"coinWeights":[0.2,0.5,0.8],"subjectId":"A3RMV9ZGFJ0HHF","assignmentId":"3KB8R4ZV1FT99IV6AXQAU189L3RBGP","hitId":"3H6W48L9F4B5OEOMH57RM53ZYNHWPM","url":"https://gershmanlab.com/experiments/alicia/teaching/experiment/?hitId=3H6W48L9F4B5OEOMH57RM53ZYNHWPM&workerId=A3RMV9ZGFJ0HHF&assignmentId=3KB8R4ZV1FT99IV6AXQAU189L3RBGP&a=VRBK8&tp_a=VRBK8&b=3KB8R4ZV1FT99IV6AXQAU189L3RBGP&tp_b=3KB8R4ZV1FT99IV6AXQAU189L3RBGP&c=365198&tp_c=365198"},{"rt":16166,"response":{"heads":"1","tails":"4"},"type":"response","condition":"nonSeqPartial","trueTheta":0.2,"classrooms":["A","B"],"studentTrueClassroom":"B","exampleSet":"first","trial_type":"survey-html-form","trial_index":23,"time_elapsed":422360,"internal_node_id":"0.0-22.0-0.0","params":{"nStudents":24,"maxFlips":30,"completionMinutes":45,"basePay":8,"maxBonus":9,"perTrialBonus":0.5,"perTrialBonusThreshold":0.1,"exampleCost":0.01},"classroomParams":{"A":{"a":1,"b":4},"B":{"a":4,"b":1},"C":{"a":2,"b":8},"D":{"a":8,"b":2}},"conditions":["nonSeqFull","nonSeqPartial","seqNoFeedback","seqFeedback"],"classroomPairings":[["A","B"],["C","D"]],"coinWeights":[0.2,0.5,0.8],"subjectId":"A3RMV9ZGFJ0HHF","assignmentId":"3KB8R4ZV1FT99IV6AXQAU189L3RBGP","hitId":"3H6W48L9F4B5OEOMH57RM53ZYNHWPM","url":"https://gershmanlab.com/experiments/alicia/teaching/experiment/?hitId=3H6W48L9F4B5OEOMH57RM53ZYNHWPM&workerId=A3RMV9ZGFJ0HHF&assignmentId=3KB8R4ZV1FT99IV6AXQAU189L3RBGP&a=VRBK8&tp_a=VRBK8&b=3KB8R4ZV1FT99IV6AXQAU189L3RBGP&tp_b=3KB8R4ZV1FT99IV6AXQAU189L3RBGP&c=365198&tp_c=365198","heads":1,"tails":4,"studentIndex":2,"studentTrueHypers":{"a":4,"b":1},"studentGuess":0.5,"delta":0.3,"totalExamples":5,"bonus":0,"bonusSoFar":0.35},{"rt":null,"stimulus":"Sending examples to student... ","response":null,"trial_type":"html-keyboard-response","trial_index":24,"time_elapsed":424363,"internal_node_id":"0.0-23.0","params":{"nStudents":24,"maxFlips":30,"completionMinutes":45,"basePay":8,"maxBonus":9,"perTrialBonus":0.5,"perTrialBonusThreshold":0.1,"exampleCost":0.01},"classroomParams":{"A":{"a":1,"b":4},"B":{"a":4,"b":1},"C":{"a":2,"b":8},"D":{"a":8,"b":2}},"conditions":["nonSeqFull","nonSeqPartial","seqNoFeedback","seqFeedback"],"classroomPairings":[["A","B"],["C","D"]],"coinWeights":[0.2,0.5,0.8],"subjectId":"A3RMV9ZGFJ0HHF","assignmentId":"3KB8R4ZV1FT99IV6AXQAU189L3RBGP","hitId":"3H6W48L9F4B5OEOMH57RM53ZYNHWPM","url":"https://gershmanlab.com/experiments/alicia/teaching/experiment/?hitId=3H6W48L9F4B5OEOMH57RM53ZYNHWPM&workerId=A3RMV9ZGFJ0HHF&assignmentId=3KB8R4ZV1FT99IV6AXQAU189L3RBGP&a=VRBK8&tp_a=VRBK8&b=3KB8R4ZV1FT99IV6AXQAU189L3RBGP&tp_b=3KB8R4ZV1FT99IV6AXQAU189L3RBGP&c=365198&tp_c=365198"},{"rt":null,"stimulus":"Examples sent to student! Waiting for student...","response":null,"trial_type":"html-keyboard-response","trial_index":25,"time_elapsed":429366,"internal_node_id":"0.0-24.0","params":{"nStudents":24,"maxFlips":30,"completionMinutes":45,"basePay":8,"maxBonus":9,"perTrialBonus":0.5,"perTrialBonusThreshold":0.1,"exampleCost":0.01},"classroomParams":{"A":{"a":1,"b":4},"B":{"a":4,"b":1},"C":{"a":2,"b":8},"D":{"a":8,"b":2}},"conditions":["nonSeqFull","nonSeqPartial","seqNoFeedback","seqFeedback"],"classroomPairings":[["A","B"],["C","D"]],"coinWeights":[0.2,0.5,0.8],"subjectId":"A3RMV9ZGFJ0HHF","assignmentId":"3KB8R4ZV1FT99IV6AXQAU189L3RBGP","hitId":"3H6W48L9F4B5OEOMH57RM53ZYNHWPM","url":"https://gershmanlab.com/experiments/alicia/teaching/experiment/?hitId=3H6W48L9F4B5OEOMH57RM53ZYNHWPM&workerId=A3RMV9ZGFJ0HHF&assignmentId=3KB8R4ZV1FT99IV6AXQAU189L3RBGP&a=VRBK8&tp_a=VRBK8&b=3KB8R4ZV1FT99IV6AXQAU189L3RBGP&tp_b=3KB8R4ZV1FT99IV6AXQAU189L3RBGP&c=365198&tp_c=365198"},{"rt":3858,"stimulus":"\n                <p>Student's guess for coin weight: <b style=\"color:Tomato;\">0.50</b></p>\n                <p>You received a bonus of <b>$0</b>. Total bonus so far: <b>$0.35</b></b></p>\n                <p> Press any key to continue.</p>\n                ","response":"n","trial_type":"html-keyboard-response","trial_index":26,"time_elapsed":433227,"internal_node_id":"0.0-25.0","params":{"nStudents":24,"maxFlips":30,"completionMinutes":45,"basePay":8,"maxBonus":9,"perTrialBonus":0.5,"perTrialBonusThreshold":0.1,"exampleCost":0.01},"classroomParams":{"A":{"a":1,"b":4},"B":{"a":4,"b":1},"C":{"a":2,"b":8},"D":{"a":8,"b":2}},"conditions":["nonSeqFull","nonSeqPartial","seqNoFeedback","seqFeedback"],"classroomPairings":[["A","B"],["C","D"]],"coinWeights":[0.2,0.5,0.8],"subjectId":"A3RMV9ZGFJ0HHF","assignmentId":"3KB8R4ZV1FT99IV6AXQAU189L3RBGP","hitId":"3H6W48L9F4B5OEOMH57RM53ZYNHWPM","url":"https://gershmanlab.com/experiments/alicia/teaching/experiment/?hitId=3H6W48L9F4B5OEOMH57RM53ZYNHWPM&workerId=A3RMV9ZGFJ0HHF&assignmentId=3KB8R4ZV1FT99IV6AXQAU189L3RBGP&a=VRBK8&tp_a=VRBK8&b=3KB8R4ZV1FT99IV6AXQAU189L3RBGP&tp_b=3KB8R4ZV1FT99IV6AXQAU189L3RBGP&c=365198&tp_c=365198"},{"rt":null,"stimulus":"<div style=\"font-size:60px;\">Next student</div>","response":null,"trial_type":"html-keyboard-response","trial_index":27,"time_elapsed":435483,"internal_node_id":"0.0-26.0-0.0","params":{"nStudents":24,"maxFlips":30,"completionMinutes":45,"basePay":8,"maxBonus":9,"perTrialBonus":0.5,"perTrialBonusThreshold":0.1,"exampleCost":0.01},"classroomParams":{"A":{"a":1,"b":4},"B":{"a":4,"b":1},"C":{"a":2,"b":8},"D":{"a":8,"b":2}},"conditions":["nonSeqFull","nonSeqPartial","seqNoFeedback","seqFeedback"],"classroomPairings":[["A","B"],["C","D"]],"coinWeights":[0.2,0.5,0.8],"subjectId":"A3RMV9ZGFJ0HHF","assignmentId":"3KB8R4ZV1FT99IV6AXQAU189L3RBGP","hitId":"3H6W48L9F4B5OEOMH57RM53ZYNHWPM","url":"https://gershmanlab.com/experiments/alicia/teaching/experiment/?hitId=3H6W48L9F4B5OEOMH57RM53ZYNHWPM&workerId=A3RMV9ZGFJ0HHF&assignmentId=3KB8R4ZV1FT99IV6AXQAU189L3RBGP&a=VRBK8&tp_a=VRBK8&b=3KB8R4ZV1FT99IV6AXQAU189L3RBGP&tp_b=3KB8R4ZV1FT99IV6AXQAU189L3RBGP&c=365198&tp_c=365198"},{"rt":3124,"stimulus":"\n            <h4 style=\"color:Orange;\">Student 4</h4>\n            <h2>The weight of your coin is <b style=\"color:Tomato;\">0.8</b>.</h2>\n            <p>In this block, you will be giving <b>one</b> set of examples to Student 4.</p>\n                <p>You will receive feedback at the end of the block.</p>\n            ","response":0,"trial_type":"html-button-response","trial_index":28,"time_elapsed":438610,"internal_node_id":"0.0-27.0","params":{"nStudents":24,"maxFlips":30,"completionMinutes":45,"basePay":8,"maxBonus":9,"perTrialBonus":0.5,"perTrialBonusThreshold":0.1,"exampleCost":0.01},"classroomParams":{"A":{"a":1,"b":4},"B":{"a":4,"b":1},"C":{"a":2,"b":8},"D":{"a":8,"b":2}},"conditions":["nonSeqFull","nonSeqPartial","seqNoFeedback","seqFeedback"],"classroomPairings":[["A","B"],["C","D"]],"coinWeights":[0.2,0.5,0.8],"subjectId":"A3RMV9ZGFJ0HHF","assignmentId":"3KB8R4ZV1FT99IV6AXQAU189L3RBGP","hitId":"3H6W48L9F4B5OEOMH57RM53ZYNHWPM","url":"https://gershmanlab.com/experiments/alicia/teaching/experiment/?hitId=3H6W48L9F4B5OEOMH57RM53ZYNHWPM&workerId=A3RMV9ZGFJ0HHF&assignmentId=3KB8R4ZV1FT99IV6AXQAU189L3RBGP&a=VRBK8&tp_a=VRBK8&b=3KB8R4ZV1FT99IV6AXQAU189L3RBGP&tp_b=3KB8R4ZV1FT99IV6AXQAU189L3RBGP&c=365198&tp_c=365198"},{"rt":8853,"response":{"heads":"8","tails":"2"},"type":"response","condition":"nonSeqFull","trueTheta":0.8,"classrooms":["A","B"],"studentTrueClassroom":"A","exampleSet":"first","trial_type":"survey-html-form","trial_index":29,"time_elapsed":447468,"internal_node_id":"0.0-28.0-0.0","params":{"nStudents":24,"maxFlips":30,"completionMinutes":45,"basePay":8,"maxBonus":9,"perTrialBonus":0.5,"perTrialBonusThreshold":0.1,"exampleCost":0.01},"classroomParams":{"A":{"a":1,"b":4},"B":{"a":4,"b":1},"C":{"a":2,"b":8},"D":{"a":8,"b":2}},"conditions":["nonSeqFull","nonSeqPartial","seqNoFeedback","seqFeedback"],"classroomPairings":[["A","B"],["C","D"]],"coinWeights":[0.2,0.5,0.8],"subjectId":"A3RMV9ZGFJ0HHF","assignmentId":"3KB8R4ZV1FT99IV6AXQAU189L3RBGP","hitId":"3H6W48L9F4B5OEOMH57RM53ZYNHWPM","url":"https://gershmanlab.com/experiments/alicia/teaching/experiment/?hitId=3H6W48L9F4B5OEOMH57RM53ZYNHWPM&workerId=A3RMV9ZGFJ0HHF&assignmentId=3KB8R4ZV1FT99IV6AXQAU189L3RBGP&a=VRBK8&tp_a=VRBK8&b=3KB8R4ZV1FT99IV6AXQAU189L3RBGP&tp_b=3KB8R4ZV1FT99IV6AXQAU189L3RBGP&c=365198&tp_c=365198","heads":8,"tails":2,"studentIndex":3,"studentTrueHypers":{"a":1,"b":4},"studentGuess":0.6,"delta":0.20000000000000007,"totalExamples":10,"bonus":0,"bonusSoFar":0.35},{"rt":null,"stimulus":"Sending examples to student... ","response":null,"trial_type":"html-keyboard-response","trial_index":30,"time_elapsed":448972,"internal_node_id":"0.0-29.0","params":{"nStudents":24,"maxFlips":30,"completionMinutes":45,"basePay":8,"maxBonus":9,"perTrialBonus":0.5,"perTrialBonusThreshold":0.1,"exampleCost":0.01},"classroomParams":{"A":{"a":1,"b":4},"B":{"a":4,"b":1},"C":{"a":2,"b":8},"D":{"a":8,"b":2}},"conditions":["nonSeqFull","nonSeqPartial","seqNoFeedback","seqFeedback"],"classroomPairings":[["A","B"],["C","D"]],"coinWeights":[0.2,0.5,0.8],"subjectId":"A3RMV9ZGFJ0HHF","assignmentId":"3KB8R4ZV1FT99IV6AXQAU189L3RBGP","hitId":"3H6W48L9F4B5OEOMH57RM53ZYNHWPM","url":"https://gershmanlab.com/experiments/alicia/teaching/experiment/?hitId=3H6W48L9F4B5OEOMH57RM53ZYNHWPM&workerId=A3RMV9ZGFJ0HHF&assignmentId=3KB8R4ZV1FT99IV6AXQAU189L3RBGP&a=VRBK8&tp_a=VRBK8&b=3KB8R4ZV1FT99IV6AXQAU189L3RBGP&tp_b=3KB8R4ZV1FT99IV6AXQAU189L3RBGP&c=365198&tp_c=365198"},{"rt":null,"stimulus":"Examples sent to student! Waiting for student...","response":null,"trial_type":"html-keyboard-response","trial_index":31,"time_elapsed":453475,"internal_node_id":"0.0-30.0","params":{"nStudents":24,"maxFlips":30,"completionMinutes":45,"basePay":8,"maxBonus":9,"perTrialBonus":0.5,"perTrialBonusThreshold":0.1,"exampleCost":0.01},"classroomParams":{"A":{"a":1,"b":4},"B":{"a":4,"b":1},"C":{"a":2,"b":8},"D":{"a":8,"b":2}},"conditions":["nonSeqFull","nonSeqPartial","seqNoFeedback","seqFeedback"],"classroomPairings":[["A","B"],["C","D"]],"coinWeights":[0.2,0.5,0.8],"subjectId":"A3RMV9ZGFJ0HHF","assignmentId":"3KB8R4ZV1FT99IV6AXQAU189L3RBGP","hitId":"3H6W48L9F4B5OEOMH57RM53ZYNHWPM","url":"https://gershmanlab.com/experiments/alicia/teaching/experiment/?hitId=3H6W48L9F4B5OEOMH57RM53ZYNHWPM&workerId=A3RMV9ZGFJ0HHF&assignmentId=3KB8R4ZV1FT99IV6AXQAU189L3RBGP&a=VRBK8&tp_a=VRBK8&b=3KB8R4ZV1FT99IV6AXQAU189L3RBGP&tp_b=3KB8R4ZV1FT99IV6AXQAU189L3RBGP&c=365198&tp_c=365198"},{"rt":2355,"stimulus":"\n                <p>Student's guess for coin weight: <b style=\"color:Tomato;\">0.60</b></p>\n                <p>You received a bonus of <b>$0</b>. Total bonus so far: <b>$0.35</b></b></p>\n                <p> Press any key to continue.</p>\n                ","response":"b","trial_type":"html-keyboard-response","trial_index":32,"time_elapsed":455837,"internal_node_id":"0.0-31.0","params":{"nStudents":24,"maxFlips":30,"completionMinutes":45,"basePay":8,"maxBonus":9,"perTrialBonus":0.5,"perTrialBonusThreshold":0.1,"exampleCost":0.01},"classroomParams":{"A":{"a":1,"b":4},"B":{"a":4,"b":1},"C":{"a":2,"b":8},"D":{"a":8,"b":2}},"conditions":["nonSeqFull","nonSeqPartial","seqNoFeedback","seqFeedback"],"classroomPairings":[["A","B"],["C","D"]],"coinWeights":[0.2,0.5,0.8],"subjectId":"A3RMV9ZGFJ0HHF","assignmentId":"3KB8R4ZV1FT99IV6AXQAU189L3RBGP","hitId":"3H6W48L9F4B5OEOMH57RM53ZYNHWPM","url":"https://gershmanlab.com/experiments/alicia/teaching/experiment/?hitId=3H6W48L9F4B5OEOMH57RM53ZYNHWPM&workerId=A3RMV9ZGFJ0HHF&assignmentId=3KB8R4ZV1FT99IV6AXQAU189L3RBGP&a=VRBK8&tp_a=VRBK8&b=3KB8R4ZV1FT99IV6AXQAU189L3RBGP&tp_b=3KB8R4ZV1FT99IV6AXQAU189L3RBGP&c=365198&tp_c=365198"},{"rt":null,"stimulus":"<div style=\"font-size:60px;\">Next student</div>","response":null,"trial_type":"html-keyboard-response","trial_index":33,"time_elapsed":458341,"internal_node_id":"0.0-32.0-0.0","params":{"nStudents":24,"maxFlips":30,"completionMinutes":45,"basePay":8,"maxBonus":9,"perTrialBonus":0.5,"perTrialBonusThreshold":0.1,"exampleCost":0.01},"classroomParams":{"A":{"a":1,"b":4},"B":{"a":4,"b":1},"C":{"a":2,"b":8},"D":{"a":8,"b":2}},"conditions":["nonSeqFull","nonSeqPartial","seqNoFeedback","seqFeedback"],"classroomPairings":[["A","B"],["C","D"]],"coinWeights":[0.2,0.5,0.8],"subjectId":"A3RMV9ZGFJ0HHF","assignmentId":"3KB8R4ZV1FT99IV6AXQAU189L3RBGP","hitId":"3H6W48L9F4B5OEOMH57RM53ZYNHWPM","url":"https://gershmanlab.com/experiments/alicia/teaching/experiment/?hitId=3H6W48L9F4B5OEOMH57RM53ZYNHWPM&workerId=A3RMV9ZGFJ0HHF&assignmentId=3KB8R4ZV1FT99IV6AXQAU189L3RBGP&a=VRBK8&tp_a=VRBK8&b=3KB8R4ZV1FT99IV6AXQAU189L3RBGP&tp_b=3KB8R4ZV1FT99IV6AXQAU189L3RBGP&c=365198&tp_c=365198"},{"rt":2670,"stimulus":"\n            <h4 style=\"color:Orange;\">Student 5</h4>\n            <h2>The weight of your coin is <b style=\"color:Tomato;\">0.2</b>.</h2>\n            <p>In this block, you will be giving <b>one</b> set of examples to Student 5.</p>\n                <p>You will receive feedback at the end of the block.</p>\n            ","response":0,"trial_type":"html-button-response","trial_index":34,"time_elapsed":461015,"internal_node_id":"0.0-33.0","params":{"nStudents":24,"maxFlips":30,"completionMinutes":45,"basePay":8,"maxBonus":9,"perTrialBonus":0.5,"perTrialBonusThreshold":0.1,"exampleCost":0.01},"classroomParams":{"A":{"a":1,"b":4},"B":{"a":4,"b":1},"C":{"a":2,"b":8},"D":{"a":8,"b":2}},"conditions":["nonSeqFull","nonSeqPartial","seqNoFeedback","seqFeedback"],"classroomPairings":[["A","B"],["C","D"]],"coinWeights":[0.2,0.5,0.8],"subjectId":"A3RMV9ZGFJ0HHF","assignmentId":"3KB8R4ZV1FT99IV6AXQAU189L3RBGP","hitId":"3H6W48L9F4B5OEOMH57RM53ZYNHWPM","url":"https://gershmanlab.com/experiments/alicia/teaching/experiment/?hitId=3H6W48L9F4B5OEOMH57RM53ZYNHWPM&workerId=A3RMV9ZGFJ0HHF&assignmentId=3KB8R4ZV1FT99IV6AXQAU189L3RBGP&a=VRBK8&tp_a=VRBK8&b=3KB8R4ZV1FT99IV6AXQAU189L3RBGP&tp_b=3KB8R4ZV1FT99IV6AXQAU189L3RBGP&c=365198&tp_c=365198"},{"rt":9280,"response":{"heads":"2","tails":"8"},"type":"response","condition":"nonSeqFull","trueTheta":0.2,"classrooms":["A","B"],"studentTrueClassroom":"A","exampleSet":"first","trial_type":"survey-html-form","trial_index":35,"time_elapsed":470299,"internal_node_id":"0.0-34.0-0.0","params":{"nStudents":24,"maxFlips":30,"completionMinutes":45,"basePay":8,"maxBonus":9,"perTrialBonus":0.5,"perTrialBonusThreshold":0.1,"exampleCost":0.01},"classroomParams":{"A":{"a":1,"b":4},"B":{"a":4,"b":1},"C":{"a":2,"b":8},"D":{"a":8,"b":2}},"conditions":["nonSeqFull","nonSeqPartial","seqNoFeedback","seqFeedback"],"classroomPairings":[["A","B"],["C","D"]],"coinWeights":[0.2,0.5,0.8],"subjectId":"A3RMV9ZGFJ0HHF","assignmentId":"3KB8R4ZV1FT99IV6AXQAU189L3RBGP","hitId":"3H6W48L9F4B5OEOMH57RM53ZYNHWPM","url":"https://gershmanlab.com/experiments/alicia/teaching/experiment/?hitId=3H6W48L9F4B5OEOMH57RM53ZYNHWPM&workerId=A3RMV9ZGFJ0HHF&assignmentId=3KB8R4ZV1FT99IV6AXQAU189L3RBGP&a=VRBK8&tp_a=VRBK8&b=3KB8R4ZV1FT99IV6AXQAU189L3RBGP&tp_b=3KB8R4ZV1FT99IV6AXQAU189L3RBGP&c=365198&tp_c=365198","heads":2,"tails":8,"studentIndex":4,"studentTrueHypers":{"a":1,"b":4},"studentGuess":0.2,"delta":0,"totalExamples":10,"bonus":0.4,"bonusSoFar":0.75},{"rt":null,"stimulus":"Sending examples to student... ","response":null,"trial_type":"html-keyboard-response","trial_index":36,"time_elapsed":472053,"internal_node_id":"0.0-35.0","params":{"nStudents":24,"maxFlips":30,"completionMinutes":45,"basePay":8,"maxBonus":9,"perTrialBonus":0.5,"perTrialBonusThreshold":0.1,"exampleCost":0.01},"classroomParams":{"A":{"a":1,"b":4},"B":{"a":4,"b":1},"C":{"a":2,"b":8},"D":{"a":8,"b":2}},"conditions":["nonSeqFull","nonSeqPartial","seqNoFeedback","seqFeedback"],"classroomPairings":[["A","B"],["C","D"]],"coinWeights":[0.2,0.5,0.8],"subjectId":"A3RMV9ZGFJ0HHF","assignmentId":"3KB8R4ZV1FT99IV6AXQAU189L3RBGP","hitId":"3H6W48L9F4B5OEOMH57RM53ZYNHWPM","url":"https://gershmanlab.com/experiments/alicia/teaching/experiment/?hitId=3H6W48L9F4B5OEOMH57RM53ZYNHWPM&workerId=A3RMV9ZGFJ0HHF&assignmentId=3KB8R4ZV1FT99IV6AXQAU189L3RBGP&a=VRBK8&tp_a=VRBK8&b=3KB8R4ZV1FT99IV6AXQAU189L3RBGP&tp_b=3KB8R4ZV1FT99IV6AXQAU189L3RBGP&c=365198&tp_c=365198"},{"rt":null,"stimulus":"Examples sent to student! Waiting for student...","response":null,"trial_type":"html-keyboard-response","trial_index":37,"time_elapsed":477557,"internal_node_id":"0.0-36.0","params":{"nStudents":24,"maxFlips":30,"completionMinutes":45,"basePay":8,"maxBonus":9,"perTrialBonus":0.5,"perTrialBonusThreshold":0.1,"exampleCost":0.01},"classroomParams":{"A":{"a":1,"b":4},"B":{"a":4,"b":1},"C":{"a":2,"b":8},"D":{"a":8,"b":2}},"conditions":["nonSeqFull","nonSeqPartial","seqNoFeedback","seqFeedback"],"classroomPairings":[["A","B"],["C","D"]],"coinWeights":[0.2,0.5,0.8],"subjectId":"A3RMV9ZGFJ0HHF","assignmentId":"3KB8R4ZV1FT99IV6AXQAU189L3RBGP","hitId":"3H6W48L9F4B5OEOMH57RM53ZYNHWPM","url":"https://gershmanlab.com/experiments/alicia/teaching/experiment/?hitId=3H6W48L9F4B5OEOMH57RM53ZYNHWPM&workerId=A3RMV9ZGFJ0HHF&assignmentId=3KB8R4ZV1FT99IV6AXQAU189L3RBGP&a=VRBK8&tp_a=VRBK8&b=3KB8R4ZV1FT99IV6AXQAU189L3RBGP&tp_b=3KB8R4ZV1FT99IV6AXQAU189L3RBGP&c=365198&tp_c=365198"},{"rt":3434,"stimulus":"\n                <p>Student's guess for coin weight: <b style=\"color:Tomato;\">0.20</b></p>\n                <p>You received a bonus of <b>$0.4</b>. Total bonus so far: <b>$0.75</b></b></p>\n                <p> Press any key to continue.</p>\n                ","response":" ","trial_type":"html-keyboard-response","trial_index":38,"time_elapsed":480998,"internal_node_id":"0.0-37.0","params":{"nStudents":24,"maxFlips":30,"completionMinutes":45,"basePay":8,"maxBonus":9,"perTrialBonus":0.5,"perTrialBonusThreshold":0.1,"exampleCost":0.01},"classroomParams":{"A":{"a":1,"b":4},"B":{"a":4,"b":1},"C":{"a":2,"b":8},"D":{"a":8,"b":2}},"conditions":["nonSeqFull","nonSeqPartial","seqNoFeedback","seqFeedback"],"classroomPairings":[["A","B"],["C","D"]],"coinWeights":[0.2,0.5,0.8],"subjectId":"A3RMV9ZGFJ0HHF","assignmentId":"3KB8R4ZV1FT99IV6AXQAU189L3RBGP","hitId":"3H6W48L9F4B5OEOMH57RM53ZYNHWPM","url":"https://gershmanlab.com/experiments/alicia/teaching/experiment/?hitId=3H6W48L9F4B5OEOMH57RM53ZYNHWPM&workerId=A3RMV9ZGFJ0HHF&assignmentId=3KB8R4ZV1FT99IV6AXQAU189L3RBGP&a=VRBK8&tp_a=VRBK8&b=3KB8R4ZV1FT99IV6AXQAU189L3RBGP&tp_b=3KB8R4ZV1FT99IV6AXQAU189L3RBGP&c=365198&tp_c=365198"},{"rt":null,"stimulus":"<div style=\"font-size:60px;\">Next student</div>","response":null,"trial_type":"html-keyboard-response","trial_index":39,"time_elapsed":483500,"internal_node_id":"0.0-38.0-0.0","params":{"nStudents":24,"maxFlips":30,"completionMinutes":45,"basePay":8,"maxBonus":9,"perTrialBonus":0.5,"perTrialBonusThreshold":0.1,"exampleCost":0.01},"classroomParams":{"A":{"a":1,"b":4},"B":{"a":4,"b":1},"C":{"a":2,"b":8},"D":{"a":8,"b":2}},"conditions":["nonSeqFull","nonSeqPartial","seqNoFeedback","seqFeedback"],"classroomPairings":[["A","B"],["C","D"]],"coinWeights":[0.2,0.5,0.8],"subjectId":"A3RMV9ZGFJ0HHF","assignmentId":"3KB8R4ZV1FT99IV6AXQAU189L3RBGP","hitId":"3H6W48L9F4B5OEOMH57RM53ZYNHWPM","url":"https://gershmanlab.com/experiments/alicia/teaching/experiment/?hitId=3H6W48L9F4B5OEOMH57RM53ZYNHWPM&workerId=A3RMV9ZGFJ0HHF&assignmentId=3KB8R4ZV1FT99IV6AXQAU189L3RBGP&a=VRBK8&tp_a=VRBK8&b=3KB8R4ZV1FT99IV6AXQAU189L3RBGP&tp_b=3KB8R4ZV1FT99IV6AXQAU189L3RBGP&c=365198&tp_c=365198"},{"rt":2450,"stimulus":"\n            <h4 style=\"color:Orange;\">Student 6</h4>\n            <h2>The weight of your coin is <b style=\"color:Tomato;\">0.5</b>.</h2>\n            <p>In this block, you will be giving <b>one</b> set of examples to Student 6.</p>\n                <p>You will receive feedback at the end of the block.</p>\n            ","response":0,"trial_type":"html-button-response","trial_index":40,"time_elapsed":485954,"internal_node_id":"0.0-39.0","params":{"nStudents":24,"maxFlips":30,"completionMinutes":45,"basePay":8,"maxBonus":9,"perTrialBonus":0.5,"perTrialBonusThreshold":0.1,"exampleCost":0.01},"classroomParams":{"A":{"a":1,"b":4},"B":{"a":4,"b":1},"C":{"a":2,"b":8},"D":{"a":8,"b":2}},"conditions":["nonSeqFull","nonSeqPartial","seqNoFeedback","seqFeedback"],"classroomPairings":[["A","B"],["C","D"]],"coinWeights":[0.2,0.5,0.8],"subjectId":"A3RMV9ZGFJ0HHF","assignmentId":"3KB8R4ZV1FT99IV6AXQAU189L3RBGP","hitId":"3H6W48L9F4B5OEOMH57RM53ZYNHWPM","url":"https://gershmanlab.com/experiments/alicia/teaching/experiment/?hitId=3H6W48L9F4B5OEOMH57RM53ZYNHWPM&workerId=A3RMV9ZGFJ0HHF&assignmentId=3KB8R4ZV1FT99IV6AXQAU189L3RBGP&a=VRBK8&tp_a=VRBK8&b=3KB8R4ZV1FT99IV6AXQAU189L3RBGP&tp_b=3KB8R4ZV1FT99IV6AXQAU189L3RBGP&c=365198&tp_c=365198"},{"rt":18017,"response":{"heads":"10","tails":"10"},"type":"response","condition":"nonSeqFull","trueTheta":0.5,"classrooms":["A","B"],"studentTrueClassroom":"A","exampleSet":"first","trial_type":"survey-html-form","trial_index":41,"time_elapsed":503978,"internal_node_id":"0.0-40.0-0.0","params":{"nStudents":24,"maxFlips":30,"completionMinutes":45,"basePay":8,"maxBonus":9,"perTrialBonus":0.5,"perTrialBonusThreshold":0.1,"exampleCost":0.01},"classroomParams":{"A":{"a":1,"b":4},"B":{"a":4,"b":1},"C":{"a":2,"b":8},"D":{"a":8,"b":2}},"conditions":["nonSeqFull","nonSeqPartial","seqNoFeedback","seqFeedback"],"classroomPairings":[["A","B"],["C","D"]],"coinWeights":[0.2,0.5,0.8],"subjectId":"A3RMV9ZGFJ0HHF","assignmentId":"3KB8R4ZV1FT99IV6AXQAU189L3RBGP","hitId":"3H6W48L9F4B5OEOMH57RM53ZYNHWPM","url":"https://gershmanlab.com/experiments/alicia/teaching/experiment/?hitId=3H6W48L9F4B5OEOMH57RM53ZYNHWPM&workerId=A3RMV9ZGFJ0HHF&assignmentId=3KB8R4ZV1FT99IV6AXQAU189L3RBGP&a=VRBK8&tp_a=VRBK8&b=3KB8R4ZV1FT99IV6AXQAU189L3RBGP&tp_b=3KB8R4ZV1FT99IV6AXQAU189L3RBGP&c=365198&tp_c=365198","heads":10,"tails":10,"studentIndex":5,"studentTrueHypers":{"a":1,"b":4},"studentGuess":0.44,"delta":0.06,"totalExamples":20,"bonus":0.3,"bonusSoFar":1.05},{"rt":null,"stimulus":"Sending examples to student... ","response":null,"trial_type":"html-keyboard-response","trial_index":42,"time_elapsed":505732,"internal_node_id":"0.0-41.0","params":{"nStudents":24,"maxFlips":30,"completionMinutes":45,"basePay":8,"maxBonus":9,"perTrialBonus":0.5,"perTrialBonusThreshold":0.1,"exampleCost":0.01},"classroomParams":{"A":{"a":1,"b":4},"B":{"a":4,"b":1},"C":{"a":2,"b":8},"D":{"a":8,"b":2}},"conditions":["nonSeqFull","nonSeqPartial","seqNoFeedback","seqFeedback"],"classroomPairings":[["A","B"],["C","D"]],"coinWeights":[0.2,0.5,0.8],"subjectId":"A3RMV9ZGFJ0HHF","assignmentId":"3KB8R4ZV1FT99IV6AXQAU189L3RBGP","hitId":"3H6W48L9F4B5OEOMH57RM53ZYNHWPM","url":"https://gershmanlab.com/experiments/alicia/teaching/experiment/?hitId=3H6W48L9F4B5OEOMH57RM53ZYNHWPM&workerId=A3RMV9ZGFJ0HHF&assignmentId=3KB8R4ZV1FT99IV6AXQAU189L3RBGP&a=VRBK8&tp_a=VRBK8&b=3KB8R4ZV1FT99IV6AXQAU189L3RBGP&tp_b=3KB8R4ZV1FT99IV6AXQAU189L3RBGP&c=365198&tp_c=365198"},{"rt":null,"stimulus":"Examples sent to student! Waiting for student...","response":null,"trial_type":"html-keyboard-response","trial_index":43,"time_elapsed":511239,"internal_node_id":"0.0-42.0","params":{"nStudents":24,"maxFlips":30,"completionMinutes":45,"basePay":8,"maxBonus":9,"perTrialBonus":0.5,"perTrialBonusThreshold":0.1,"exampleCost":0.01},"classroomParams":{"A":{"a":1,"b":4},"B":{"a":4,"b":1},"C":{"a":2,"b":8},"D":{"a":8,"b":2}},"conditions":["nonSeqFull","nonSeqPartial","seqNoFeedback","seqFeedback"],"classroomPairings":[["A","B"],["C","D"]],"coinWeights":[0.2,0.5,0.8],"subjectId":"A3RMV9ZGFJ0HHF","assignmentId":"3KB8R4ZV1FT99IV6AXQAU189L3RBGP","hitId":"3H6W48L9F4B5OEOMH57RM53ZYNHWPM","url":"https://gershmanlab.com/experiments/alicia/teaching/experiment/?hitId=3H6W48L9F4B5OEOMH57RM53ZYNHWPM&workerId=A3RMV9ZGFJ0HHF&assignmentId=3KB8R4ZV1FT99IV6AXQAU189L3RBGP&a=VRBK8&tp_a=VRBK8&b=3KB8R4ZV1FT99IV6AXQAU189L3RBGP&tp_b=3KB8R4ZV1FT99IV6AXQAU189L3RBGP&c=365198&tp_c=365198"},{"rt":6046,"stimulus":"\n                <p>Student's guess for coin weight: <b style=\"color:Tomato;\">0.44</b></p>\n                <p>You received a bonus of <b>$0.3</b>. Total bonus so far: <b>$1.05</b></b></p>\n                <p> Press any key to continue.</p>\n                ","response":" ","trial_type":"html-keyboard-response","trial_index":44,"time_elapsed":517294,"internal_node_id":"0.0-43.0","params":{"nStudents":24,"maxFlips":30,"completionMinutes":45,"basePay":8,"maxBonus":9,"perTrialBonus":0.5,"perTrialBonusThreshold":0.1,"exampleCost":0.01},"classroomParams":{"A":{"a":1,"b":4},"B":{"a":4,"b":1},"C":{"a":2,"b":8},"D":{"a":8,"b":2}},"conditions":["nonSeqFull","nonSeqPartial","seqNoFeedback","seqFeedback"],"classroomPairings":[["A","B"],["C","D"]],"coinWeights":[0.2,0.5,0.8],"subjectId":"A3RMV9ZGFJ0HHF","assignmentId":"3KB8R4ZV1FT99IV6AXQAU189L3RBGP","hitId":"3H6W48L9F4B5OEOMH57RM53ZYNHWPM","url":"https://gershmanlab.com/experiments/alicia/teaching/experiment/?hitId=3H6W48L9F4B5OEOMH57RM53ZYNHWPM&workerId=A3RMV9ZGFJ0HHF&assignmentId=3KB8R4ZV1FT99IV6AXQAU189L3RBGP&a=VRBK8&tp_a=VRBK8&b=3KB8R4ZV1FT99IV6AXQAU189L3RBGP&tp_b=3KB8R4ZV1FT99IV6AXQAU189L3RBGP&c=365198&tp_c=365198"},{"rt":null,"stimulus":"<div style=\"font-size:60px;\">Next student</div>","response":null,"trial_type":"html-keyboard-response","trial_index":45,"time_elapsed":519797,"internal_node_id":"0.0-44.0-0.0","params":{"nStudents":24,"maxFlips":30,"completionMinutes":45,"basePay":8,"maxBonus":9,"perTrialBonus":0.5,"perTrialBonusThreshold":0.1,"exampleCost":0.01},"classroomParams":{"A":{"a":1,"b":4},"B":{"a":4,"b":1},"C":{"a":2,"b":8},"D":{"a":8,"b":2}},"conditions":["nonSeqFull","nonSeqPartial","seqNoFeedback","seqFeedback"],"classroomPairings":[["A","B"],["C","D"]],"coinWeights":[0.2,0.5,0.8],"subjectId":"A3RMV9ZGFJ0HHF","assignmentId":"3KB8R4ZV1FT99IV6AXQAU189L3RBGP","hitId":"3H6W48L9F4B5OEOMH57RM53ZYNHWPM","url":"https://gershmanlab.com/experiments/alicia/teaching/experiment/?hitId=3H6W48L9F4B5OEOMH57RM53ZYNHWPM&workerId=A3RMV9ZGFJ0HHF&assignmentId=3KB8R4ZV1FT99IV6AXQAU189L3RBGP&a=VRBK8&tp_a=VRBK8&b=3KB8R4ZV1FT99IV6AXQAU189L3RBGP&tp_b=3KB8R4ZV1FT99IV6AXQAU189L3RBGP&c=365198&tp_c=365198"},{"rt":3262,"stimulus":"\n            <h4 style=\"color:Orange;\">Student 7</h4>\n            <h2>The weight of your coin is <b style=\"color:Tomato;\">0.5</b>.</h2>\n            <p>In this block, you will be giving <b>two</b> sets of examples to Student 7.</p>\n                <p>You will receive feedback at the end of the block.</p>\n            ","response":0,"trial_type":"html-button-response","trial_index":46,"time_elapsed":523064,"internal_node_id":"0.0-45.0","params":{"nStudents":24,"maxFlips":30,"completionMinutes":45,"basePay":8,"maxBonus":9,"perTrialBonus":0.5,"perTrialBonusThreshold":0.1,"exampleCost":0.01},"classroomParams":{"A":{"a":1,"b":4},"B":{"a":4,"b":1},"C":{"a":2,"b":8},"D":{"a":8,"b":2}},"conditions":["nonSeqFull","nonSeqPartial","seqNoFeedback","seqFeedback"],"classroomPairings":[["A","B"],["C","D"]],"coinWeights":[0.2,0.5,0.8],"subjectId":"A3RMV9ZGFJ0HHF","assignmentId":"3KB8R4ZV1FT99IV6AXQAU189L3RBGP","hitId":"3H6W48L9F4B5OEOMH57RM53ZYNHWPM","url":"https://gershmanlab.com/experiments/alicia/teaching/experiment/?hitId=3H6W48L9F4B5OEOMH57RM53ZYNHWPM&workerId=A3RMV9ZGFJ0HHF&assignmentId=3KB8R4ZV1FT99IV6AXQAU189L3RBGP&a=VRBK8&tp_a=VRBK8&b=3KB8R4ZV1FT99IV6AXQAU189L3RBGP&tp_b=3KB8R4ZV1FT99IV6AXQAU189L3RBGP&c=365198&tp_c=365198"},{"rt":8494,"response":{"heads":"15","tails":"15"},"type":"response","condition":"seqNoFeedback","trueTheta":0.5,"classrooms":["C","D"],"studentTrueClassroom":"D","exampleSet":"first","trial_type":"survey-html-form","trial_index":47,"time_elapsed":531562,"internal_node_id":"0.0-46.0-0.0","params":{"nStudents":24,"maxFlips":30,"completionMinutes":45,"basePay":8,"maxBonus":9,"perTrialBonus":0.5,"perTrialBonusThreshold":0.1,"exampleCost":0.01},"classroomParams":{"A":{"a":1,"b":4},"B":{"a":4,"b":1},"C":{"a":2,"b":8},"D":{"a":8,"b":2}},"conditions":["nonSeqFull","nonSeqPartial","seqNoFeedback","seqFeedback"],"classroomPairings":[["A","B"],["C","D"]],"coinWeights":[0.2,0.5,0.8],"subjectId":"A3RMV9ZGFJ0HHF","assignmentId":"3KB8R4ZV1FT99IV6AXQAU189L3RBGP","hitId":"3H6W48L9F4B5OEOMH57RM53ZYNHWPM","url":"https://gershmanlab.com/experiments/alicia/teaching/experiment/?hitId=3H6W48L9F4B5OEOMH57RM53ZYNHWPM&workerId=A3RMV9ZGFJ0HHF&assignmentId=3KB8R4ZV1FT99IV6AXQAU189L3RBGP&a=VRBK8&tp_a=VRBK8&b=3KB8R4ZV1FT99IV6AXQAU189L3RBGP&tp_b=3KB8R4ZV1FT99IV6AXQAU189L3RBGP&c=365198&tp_c=365198","heads":15,"tails":15,"studentIndex":6,"studentTrueHypers":{"a":8,"b":2},"studentGuess":0.575,"delta":0.07499999999999996,"totalExamples":30,"bonusSoFar":1.05},{"rt":null,"stimulus":"Sending examples to student... ","response":null,"trial_type":"html-keyboard-response","trial_index":48,"time_elapsed":533067,"internal_node_id":"0.0-47.0","params":{"nStudents":24,"maxFlips":30,"completionMinutes":45,"basePay":8,"maxBonus":9,"perTrialBonus":0.5,"perTrialBonusThreshold":0.1,"exampleCost":0.01},"classroomParams":{"A":{"a":1,"b":4},"B":{"a":4,"b":1},"C":{"a":2,"b":8},"D":{"a":8,"b":2}},"conditions":["nonSeqFull","nonSeqPartial","seqNoFeedback","seqFeedback"],"classroomPairings":[["A","B"],["C","D"]],"coinWeights":[0.2,0.5,0.8],"subjectId":"A3RMV9ZGFJ0HHF","assignmentId":"3KB8R4ZV1FT99IV6AXQAU189L3RBGP","hitId":"3H6W48L9F4B5OEOMH57RM53ZYNHWPM","url":"https://gershmanlab.com/experiments/alicia/teaching/experiment/?hitId=3H6W48L9F4B5OEOMH57RM53ZYNHWPM&workerId=A3RMV9ZGFJ0HHF&assignmentId=3KB8R4ZV1FT99IV6AXQAU189L3RBGP&a=VRBK8&tp_a=VRBK8&b=3KB8R4ZV1FT99IV6AXQAU189L3RBGP&tp_b=3KB8R4ZV1FT99IV6AXQAU189L3RBGP&c=365198&tp_c=365198"},{"rt":null,"stimulus":"Examples sent to student! Waiting for student...","response":null,"trial_type":"html-keyboard-response","trial_index":49,"time_elapsed":537075,"internal_node_id":"0.0-48.0","params":{"nStudents":24,"maxFlips":30,"completionMinutes":45,"basePay":8,"maxBonus":9,"perTrialBonus":0.5,"perTrialBonusThreshold":0.1,"exampleCost":0.01},"classroomParams":{"A":{"a":1,"b":4},"B":{"a":4,"b":1},"C":{"a":2,"b":8},"D":{"a":8,"b":2}},"conditions":["nonSeqFull","nonSeqPartial","seqNoFeedback","seqFeedback"],"classroomPairings":[["A","B"],["C","D"]],"coinWeights":[0.2,0.5,0.8],"subjectId":"A3RMV9ZGFJ0HHF","assignmentId":"3KB8R4ZV1FT99IV6AXQAU189L3RBGP","hitId":"3H6W48L9F4B5OEOMH57RM53ZYNHWPM","url":"https://gershmanlab.com/experiments/alicia/teaching/experiment/?hitId=3H6W48L9F4B5OEOMH57RM53ZYNHWPM&workerId=A3RMV9ZGFJ0HHF&assignmentId=3KB8R4ZV1FT99IV6AXQAU189L3RBGP&a=VRBK8&tp_a=VRBK8&b=3KB8R4ZV1FT99IV6AXQAU189L3RBGP&tp_b=3KB8R4ZV1FT99IV6AXQAU189L3RBGP&c=365198&tp_c=365198"},{"rt":13294,"response":{"heads":"2","tails":"2"},"type":"response","condition":"seqNoFeedback","trueTheta":0.5,"classrooms":["C","D"],"studentTrueClassroom":"D","exampleSet":"second","trial_type":"survey-html-form","trial_index":50,"time_elapsed":550378,"internal_node_id":"0.0-49.0-0.0","params":{"nStudents":24,"maxFlips":30,"completionMinutes":45,"basePay":8,"maxBonus":9,"perTrialBonus":0.5,"perTrialBonusThreshold":0.1,"exampleCost":0.01},"classroomParams":{"A":{"a":1,"b":4},"B":{"a":4,"b":1},"C":{"a":2,"b":8},"D":{"a":8,"b":2}},"conditions":["nonSeqFull","nonSeqPartial","seqNoFeedback","seqFeedback"],"classroomPairings":[["A","B"],["C","D"]],"coinWeights":[0.2,0.5,0.8],"subjectId":"A3RMV9ZGFJ0HHF","assignmentId":"3KB8R4ZV1FT99IV6AXQAU189L3RBGP","hitId":"3H6W48L9F4B5OEOMH57RM53ZYNHWPM","url":"https://gershmanlab.com/experiments/alicia/teaching/experiment/?hitId=3H6W48L9F4B5OEOMH57RM53ZYNHWPM&workerId=A3RMV9ZGFJ0HHF&assignmentId=3KB8R4ZV1FT99IV6AXQAU189L3RBGP&a=VRBK8&tp_a=VRBK8&b=3KB8R4ZV1FT99IV6AXQAU189L3RBGP&tp_b=3KB8R4ZV1FT99IV6AXQAU189L3RBGP&c=365198&tp_c=365198","firstResponseHeads":15,"firstResponseTails":15,"secondResponseHeads":2,"secondResponseTails":2,"studentIndex":6,"studentTrueHypers":{"a":8,"b":2},"studentGuess":0.5681818181818182,"delta":0.06818181818181823,"bonus":0.16,"bonusSoFar":1.21,"totalExamples":34},{"rt":null,"stimulus":"Sending examples to student... ","response":null,"trial_type":"html-keyboard-response","trial_index":51,"time_elapsed":552382,"internal_node_id":"0.0-50.0","params":{"nStudents":24,"maxFlips":30,"completionMinutes":45,"basePay":8,"maxBonus":9,"perTrialBonus":0.5,"perTrialBonusThreshold":0.1,"exampleCost":0.01},"classroomParams":{"A":{"a":1,"b":4},"B":{"a":4,"b":1},"C":{"a":2,"b":8},"D":{"a":8,"b":2}},"conditions":["nonSeqFull","nonSeqPartial","seqNoFeedback","seqFeedback"],"classroomPairings":[["A","B"],["C","D"]],"coinWeights":[0.2,0.5,0.8],"subjectId":"A3RMV9ZGFJ0HHF","assignmentId":"3KB8R4ZV1FT99IV6AXQAU189L3RBGP","hitId":"3H6W48L9F4B5OEOMH57RM53ZYNHWPM","url":"https://gershmanlab.com/experiments/alicia/teaching/experiment/?hitId=3H6W48L9F4B5OEOMH57RM53ZYNHWPM&workerId=A3RMV9ZGFJ0HHF&assignmentId=3KB8R4ZV1FT99IV6AXQAU189L3RBGP&a=VRBK8&tp_a=VRBK8&b=3KB8R4ZV1FT99IV6AXQAU189L3RBGP&tp_b=3KB8R4ZV1FT99IV6AXQAU189L3RBGP&c=365198&tp_c=365198"},{"rt":null,"stimulus":"Examples sent to student! Waiting for student...","response":null,"trial_type":"html-keyboard-response","trial_index":52,"time_elapsed":558385,"internal_node_id":"0.0-51.0","params":{"nStudents":24,"maxFlips":30,"completionMinutes":45,"basePay":8,"maxBonus":9,"perTrialBonus":0.5,"perTrialBonusThreshold":0.1,"exampleCost":0.01},"classroomParams":{"A":{"a":1,"b":4},"B":{"a":4,"b":1},"C":{"a":2,"b":8},"D":{"a":8,"b":2}},"conditions":["nonSeqFull","nonSeqPartial","seqNoFeedback","seqFeedback"],"classroomPairings":[["A","B"],["C","D"]],"coinWeights":[0.2,0.5,0.8],"subjectId":"A3RMV9ZGFJ0HHF","assignmentId":"3KB8R4ZV1FT99IV6AXQAU189L3RBGP","hitId":"3H6W48L9F4B5OEOMH57RM53ZYNHWPM","url":"https://gershmanlab.com/experiments/alicia/teaching/experiment/?hitId=3H6W48L9F4B5OEOMH57RM53ZYNHWPM&workerId=A3RMV9ZGFJ0HHF&assignmentId=3KB8R4ZV1FT99IV6AXQAU189L3RBGP&a=VRBK8&tp_a=VRBK8&b=3KB8R4ZV1FT99IV6AXQAU189L3RBGP&tp_b=3KB8R4ZV1FT99IV6AXQAU189L3RBGP&c=365198&tp_c=365198"},{"rt":5413,"stimulus":"\n                <p>Student 7's first guess for coin weight: <b style=\"color:Tomato\";>0.57</b></p>\n                <p>Student 7's second guess for coin weight: <b style=\"color:Tomato\";>0.57</b></p>\n                <p>You received a bonus of <b>$0.16</b> based on the student's second guess.</p>\n                <p>Total bonus so far: <b>$1.21</b></p>\n                <p>Press any key to continue.</p>\n                ","response":" ","trial_type":"html-keyboard-response","trial_index":53,"time_elapsed":563801,"internal_node_id":"0.0-52.0","params":{"nStudents":24,"maxFlips":30,"completionMinutes":45,"basePay":8,"maxBonus":9,"perTrialBonus":0.5,"perTrialBonusThreshold":0.1,"exampleCost":0.01},"classroomParams":{"A":{"a":1,"b":4},"B":{"a":4,"b":1},"C":{"a":2,"b":8},"D":{"a":8,"b":2}},"conditions":["nonSeqFull","nonSeqPartial","seqNoFeedback","seqFeedback"],"classroomPairings":[["A","B"],["C","D"]],"coinWeights":[0.2,0.5,0.8],"subjectId":"A3RMV9ZGFJ0HHF","assignmentId":"3KB8R4ZV1FT99IV6AXQAU189L3RBGP","hitId":"3H6W48L9F4B5OEOMH57RM53ZYNHWPM","url":"https://gershmanlab.com/experiments/alicia/teaching/experiment/?hitId=3H6W48L9F4B5OEOMH57RM53ZYNHWPM&workerId=A3RMV9ZGFJ0HHF&assignmentId=3KB8R4ZV1FT99IV6AXQAU189L3RBGP&a=VRBK8&tp_a=VRBK8&b=3KB8R4ZV1FT99IV6AXQAU189L3RBGP&tp_b=3KB8R4ZV1FT99IV6AXQAU189L3RBGP&c=365198&tp_c=365198"},{"rt":null,"stimulus":"<div style=\"font-size:60px;\">Next student</div>","response":null,"trial_type":"html-keyboard-response","trial_index":54,"time_elapsed":566053,"internal_node_id":"0.0-53.0-0.0","params":{"nStudents":24,"maxFlips":30,"completionMinutes":45,"basePay":8,"maxBonus":9,"perTrialBonus":0.5,"perTrialBonusThreshold":0.1,"exampleCost":0.01},"classroomParams":{"A":{"a":1,"b":4},"B":{"a":4,"b":1},"C":{"a":2,"b":8},"D":{"a":8,"b":2}},"conditions":["nonSeqFull","nonSeqPartial","seqNoFeedback","seqFeedback"],"classroomPairings":[["A","B"],["C","D"]],"coinWeights":[0.2,0.5,0.8],"subjectId":"A3RMV9ZGFJ0HHF","assignmentId":"3KB8R4ZV1FT99IV6AXQAU189L3RBGP","hitId":"3H6W48L9F4B5OEOMH57RM53ZYNHWPM","url":"https://gershmanlab.com/experiments/alicia/teaching/experiment/?hitId=3H6W48L9F4B5OEOMH57RM53ZYNHWPM&workerId=A3RMV9ZGFJ0HHF&assignmentId=3KB8R4ZV1FT99IV6AXQAU189L3RBGP&a=VRBK8&tp_a=VRBK8&b=3KB8R4ZV1FT99IV6AXQAU189L3RBGP&tp_b=3KB8R4ZV1FT99IV6AXQAU189L3RBGP&c=365198&tp_c=365198"},{"rt":2522,"stimulus":"\n            <h4 style=\"color:Orange;\">Student 8</h4>\n            <h2>The weight of your coin is <b style=\"color:Tomato;\">0.8</b>.</h2>\n            <p>In this block, you will be giving <b>two</b> sets of examples to Student 8.</p>\n                <p>You will receive feedback at the end of the block.</p>\n            ","response":0,"trial_type":"html-button-response","trial_index":55,"time_elapsed":568580,"internal_node_id":"0.0-54.0","params":{"nStudents":24,"maxFlips":30,"completionMinutes":45,"basePay":8,"maxBonus":9,"perTrialBonus":0.5,"perTrialBonusThreshold":0.1,"exampleCost":0.01},"classroomParams":{"A":{"a":1,"b":4},"B":{"a":4,"b":1},"C":{"a":2,"b":8},"D":{"a":8,"b":2}},"conditions":["nonSeqFull","nonSeqPartial","seqNoFeedback","seqFeedback"],"classroomPairings":[["A","B"],["C","D"]],"coinWeights":[0.2,0.5,0.8],"subjectId":"A3RMV9ZGFJ0HHF","assignmentId":"3KB8R4ZV1FT99IV6AXQAU189L3RBGP","hitId":"3H6W48L9F4B5OEOMH57RM53ZYNHWPM","url":"https://gershmanlab.com/experiments/alicia/teaching/experiment/?hitId=3H6W48L9F4B5OEOMH57RM53ZYNHWPM&workerId=A3RMV9ZGFJ0HHF&assignmentId=3KB8R4ZV1FT99IV6AXQAU189L3RBGP&a=VRBK8&tp_a=VRBK8&b=3KB8R4ZV1FT99IV6AXQAU189L3RBGP&tp_b=3KB8R4ZV1FT99IV6AXQAU189L3RBGP&c=365198&tp_c=365198"},{"rt":13211,"response":{"heads":"16","tails":"4"},"type":"response","condition":"seqNoFeedback","trueTheta":0.8,"classrooms":["C","D"],"studentTrueClassroom":"D","exampleSet":"first","trial_type":"survey-html-form","trial_index":56,"time_elapsed":581796,"internal_node_id":"0.0-55.0-0.0","params":{"nStudents":24,"maxFlips":30,"completionMinutes":45,"basePay":8,"maxBonus":9,"perTrialBonus":0.5,"perTrialBonusThreshold":0.1,"exampleCost":0.01},"classroomParams":{"A":{"a":1,"b":4},"B":{"a":4,"b":1},"C":{"a":2,"b":8},"D":{"a":8,"b":2}},"conditions":["nonSeqFull","nonSeqPartial","seqNoFeedback","seqFeedback"],"classroomPairings":[["A","B"],["C","D"]],"coinWeights":[0.2,0.5,0.8],"subjectId":"A3RMV9ZGFJ0HHF","assignmentId":"3KB8R4ZV1FT99IV6AXQAU189L3RBGP","hitId":"3H6W48L9F4B5OEOMH57RM53ZYNHWPM","url":"https://gershmanlab.com/experiments/alicia/teaching/experiment/?hitId=3H6W48L9F4B5OEOMH57RM53ZYNHWPM&workerId=A3RMV9ZGFJ0HHF&assignmentId=3KB8R4ZV1FT99IV6AXQAU189L3RBGP&a=VRBK8&tp_a=VRBK8&b=3KB8R4ZV1FT99IV6AXQAU189L3RBGP&tp_b=3KB8R4ZV1FT99IV6AXQAU189L3RBGP&c=365198&tp_c=365198","heads":16,"tails":4,"studentIndex":7,"studentTrueHypers":{"a":8,"b":2},"studentGuess":0.8,"delta":0,"totalExamples":20,"bonusSoFar":1.21},{"rt":null,"stimulus":"Sending examples to student... ","response":null,"trial_type":"html-keyboard-response","trial_index":57,"time_elapsed":583551,"internal_node_id":"0.0-56.0","params":{"nStudents":24,"maxFlips":30,"completionMinutes":45,"basePay":8,"maxBonus":9,"perTrialBonus":0.5,"perTrialBonusThreshold":0.1,"exampleCost":0.01},"classroomParams":{"A":{"a":1,"b":4},"B":{"a":4,"b":1},"C":{"a":2,"b":8},"D":{"a":8,"b":2}},"conditions":["nonSeqFull","nonSeqPartial","seqNoFeedback","seqFeedback"],"classroomPairings":[["A","B"],["C","D"]],"coinWeights":[0.2,0.5,0.8],"subjectId":"A3RMV9ZGFJ0HHF","assignmentId":"3KB8R4ZV1FT99IV6AXQAU189L3RBGP","hitId":"3H6W48L9F4B5OEOMH57RM53ZYNHWPM","url":"https://gershmanlab.com/experiments/alicia/teaching/experiment/?hitId=3H6W48L9F4B5OEOMH57RM53ZYNHWPM&workerId=A3RMV9ZGFJ0HHF&assignmentId=3KB8R4ZV1FT99IV6AXQAU189L3RBGP&a=VRBK8&tp_a=VRBK8&b=3KB8R4ZV1FT99IV6AXQAU189L3RBGP&tp_b=3KB8R4ZV1FT99IV6AXQAU189L3RBGP&c=365198&tp_c=365198"},{"rt":null,"stimulus":"Examples sent to student! Waiting for student...","response":null,"trial_type":"html-keyboard-response","trial_index":58,"time_elapsed":589057,"internal_node_id":"0.0-57.0","params":{"nStudents":24,"maxFlips":30,"completionMinutes":45,"basePay":8,"maxBonus":9,"perTrialBonus":0.5,"perTrialBonusThreshold":0.1,"exampleCost":0.01},"classroomParams":{"A":{"a":1,"b":4},"B":{"a":4,"b":1},"C":{"a":2,"b":8},"D":{"a":8,"b":2}},"conditions":["nonSeqFull","nonSeqPartial","seqNoFeedback","seqFeedback"],"classroomPairings":[["A","B"],["C","D"]],"coinWeights":[0.2,0.5,0.8],"subjectId":"A3RMV9ZGFJ0HHF","assignmentId":"3KB8R4ZV1FT99IV6AXQAU189L3RBGP","hitId":"3H6W48L9F4B5OEOMH57RM53ZYNHWPM","url":"https://gershmanlab.com/experiments/alicia/teaching/experiment/?hitId=3H6W48L9F4B5OEOMH57RM53ZYNHWPM&workerId=A3RMV9ZGFJ0HHF&assignmentId=3KB8R4ZV1FT99IV6AXQAU189L3RBGP&a=VRBK8&tp_a=VRBK8&b=3KB8R4ZV1FT99IV6AXQAU189L3RBGP&tp_b=3KB8R4ZV1FT99IV6AXQAU189L3RBGP&c=365198&tp_c=365198"},{"rt":10957,"response":{"heads":"16","tails":"4"},"type":"response","condition":"seqNoFeedback","trueTheta":0.8,"classrooms":["C","D"],"studentTrueClassroom":"D","exampleSet":"second","trial_type":"survey-html-form","trial_index":59,"time_elapsed":600022,"internal_node_id":"0.0-58.0-0.0","params":{"nStudents":24,"maxFlips":30,"completionMinutes":45,"basePay":8,"maxBonus":9,"perTrialBonus":0.5,"perTrialBonusThreshold":0.1,"exampleCost":0.01},"classroomParams":{"A":{"a":1,"b":4},"B":{"a":4,"b":1},"C":{"a":2,"b":8},"D":{"a":8,"b":2}},"conditions":["nonSeqFull","nonSeqPartial","seqNoFeedback","seqFeedback"],"classroomPairings":[["A","B"],["C","D"]],"coinWeights":[0.2,0.5,0.8],"subjectId":"A3RMV9ZGFJ0HHF","assignmentId":"3KB8R4ZV1FT99IV6AXQAU189L3RBGP","hitId":"3H6W48L9F4B5OEOMH57RM53ZYNHWPM","url":"https://gershmanlab.com/experiments/alicia/teaching/experiment/?hitId=3H6W48L9F4B5OEOMH57RM53ZYNHWPM&workerId=A3RMV9ZGFJ0HHF&assignmentId=3KB8R4ZV1FT99IV6AXQAU189L3RBGP&a=VRBK8&tp_a=VRBK8&b=3KB8R4ZV1FT99IV6AXQAU189L3RBGP&tp_b=3KB8R4ZV1FT99IV6AXQAU189L3RBGP&c=365198&tp_c=365198","firstResponseHeads":16,"firstResponseTails":4,"secondResponseHeads":16,"secondResponseTails":4,"studentIndex":7,"studentTrueHypers":{"a":8,"b":2},"studentGuess":0.8,"delta":0,"bonus":0.1,"bonusSoFar":1.31,"totalExamples":40},{"rt":null,"stimulus":"Sending examples to student... ","response":null,"trial_type":"html-keyboard-response","trial_index":60,"time_elapsed":601525,"internal_node_id":"0.0-59.0","params":{"nStudents":24,"maxFlips":30,"completionMinutes":45,"basePay":8,"maxBonus":9,"perTrialBonus":0.5,"perTrialBonusThreshold":0.1,"exampleCost":0.01},"classroomParams":{"A":{"a":1,"b":4},"B":{"a":4,"b":1},"C":{"a":2,"b":8},"D":{"a":8,"b":2}},"conditions":["nonSeqFull","nonSeqPartial","seqNoFeedback","seqFeedback"],"classroomPairings":[["A","B"],["C","D"]],"coinWeights":[0.2,0.5,0.8],"subjectId":"A3RMV9ZGFJ0HHF","assignmentId":"3KB8R4ZV1FT99IV6AXQAU189L3RBGP","hitId":"3H6W48L9F4B5OEOMH57RM53ZYNHWPM","url":"https://gershmanlab.com/experiments/alicia/teaching/experiment/?hitId=3H6W48L9F4B5OEOMH57RM53ZYNHWPM&workerId=A3RMV9ZGFJ0HHF&assignmentId=3KB8R4ZV1FT99IV6AXQAU189L3RBGP&a=VRBK8&tp_a=VRBK8&b=3KB8R4ZV1FT99IV6AXQAU189L3RBGP&tp_b=3KB8R4ZV1FT99IV6AXQAU189L3RBGP&c=365198&tp_c=365198"},{"rt":null,"stimulus":"Examples sent to student! Waiting for student...","response":null,"trial_type":"html-keyboard-response","trial_index":61,"time_elapsed":606028,"internal_node_id":"0.0-60.0","params":{"nStudents":24,"maxFlips":30,"completionMinutes":45,"basePay":8,"maxBonus":9,"perTrialBonus":0.5,"perTrialBonusThreshold":0.1,"exampleCost":0.01},"classroomParams":{"A":{"a":1,"b":4},"B":{"a":4,"b":1},"C":{"a":2,"b":8},"D":{"a":8,"b":2}},"conditions":["nonSeqFull","nonSeqPartial","seqNoFeedback","seqFeedback"],"classroomPairings":[["A","B"],["C","D"]],"coinWeights":[0.2,0.5,0.8],"subjectId":"A3RMV9ZGFJ0HHF","assignmentId":"3KB8R4ZV1FT99IV6AXQAU189L3RBGP","hitId":"3H6W48L9F4B5OEOMH57RM53ZYNHWPM","url":"https://gershmanlab.com/experiments/alicia/teaching/experiment/?hitId=3H6W48L9F4B5OEOMH57RM53ZYNHWPM&workerId=A3RMV9ZGFJ0HHF&assignmentId=3KB8R4ZV1FT99IV6AXQAU189L3RBGP&a=VRBK8&tp_a=VRBK8&b=3KB8R4ZV1FT99IV6AXQAU189L3RBGP&tp_b=3KB8R4ZV1FT99IV6AXQAU189L3RBGP&c=365198&tp_c=365198"},{"rt":5374,"stimulus":"\n                <p>Student 8's first guess for coin weight: <b style=\"color:Tomato\";>0.80</b></p>\n                <p>Student 8's second guess for coin weight: <b style=\"color:Tomato\";>0.80</b></p>\n                <p>You received a bonus of <b>$0.10</b> based on the student's second guess.</p>\n                <p>Total bonus so far: <b>$1.31</b></p>\n                <p>Press any key to continue.</p>\n                ","response":" ","trial_type":"html-keyboard-response","trial_index":62,"time_elapsed":611405,"internal_node_id":"0.0-61.0","params":{"nStudents":24,"maxFlips":30,"completionMinutes":45,"basePay":8,"maxBonus":9,"perTrialBonus":0.5,"perTrialBonusThreshold":0.1,"exampleCost":0.01},"classroomParams":{"A":{"a":1,"b":4},"B":{"a":4,"b":1},"C":{"a":2,"b":8},"D":{"a":8,"b":2}},"conditions":["nonSeqFull","nonSeqPartial","seqNoFeedback","seqFeedback"],"classroomPairings":[["A","B"],["C","D"]],"coinWeights":[0.2,0.5,0.8],"subjectId":"A3RMV9ZGFJ0HHF","assignmentId":"3KB8R4ZV1FT99IV6AXQAU189L3RBGP","hitId":"3H6W48L9F4B5OEOMH57RM53ZYNHWPM","url":"https://gershmanlab.com/experiments/alicia/teaching/experiment/?hitId=3H6W48L9F4B5OEOMH57RM53ZYNHWPM&workerId=A3RMV9ZGFJ0HHF&assignmentId=3KB8R4ZV1FT99IV6AXQAU189L3RBGP&a=VRBK8&tp_a=VRBK8&b=3KB8R4ZV1FT99IV6AXQAU189L3RBGP&tp_b=3KB8R4ZV1FT99IV6AXQAU189L3RBGP&c=365198&tp_c=365198"},{"rt":null,"stimulus":"<div style=\"font-size:60px;\">Next student</div>","response":null,"trial_type":"html-keyboard-response","trial_index":63,"time_elapsed":613409,"internal_node_id":"0.0-62.0-0.0","params":{"nStudents":24,"maxFlips":30,"completionMinutes":45,"basePay":8,"maxBonus":9,"perTrialBonus":0.5,"perTrialBonusThreshold":0.1,"exampleCost":0.01},"classroomParams":{"A":{"a":1,"b":4},"B":{"a":4,"b":1},"C":{"a":2,"b":8},"D":{"a":8,"b":2}},"conditions":["nonSeqFull","nonSeqPartial","seqNoFeedback","seqFeedback"],"classroomPairings":[["A","B"],["C","D"]],"coinWeights":[0.2,0.5,0.8],"subjectId":"A3RMV9ZGFJ0HHF","assignmentId":"3KB8R4ZV1FT99IV6AXQAU189L3RBGP","hitId":"3H6W48L9F4B5OEOMH57RM53ZYNHWPM","url":"https://gershmanlab.com/experiments/alicia/teaching/experiment/?hitId=3H6W48L9F4B5OEOMH57RM53ZYNHWPM&workerId=A3RMV9ZGFJ0HHF&assignmentId=3KB8R4ZV1FT99IV6AXQAU189L3RBGP&a=VRBK8&tp_a=VRBK8&b=3KB8R4ZV1FT99IV6AXQAU189L3RBGP&tp_b=3KB8R4ZV1FT99IV6AXQAU189L3RBGP&c=365198&tp_c=365198"},{"rt":2029,"stimulus":"\n            <h4 style=\"color:Orange;\">Student 9</h4>\n            <h2>The weight of your coin is <b style=\"color:Tomato;\">0.2</b>.</h2>\n            <p>In this block, you will be giving <b>two</b> sets of examples to Student 9.</p>\n                <p>You will see the student's guess after the first set of examples. You will also receive feedback at the end of the block.</p>\n            ","response":0,"trial_type":"html-button-response","trial_index":64,"time_elapsed":615444,"internal_node_id":"0.0-63.0","params":{"nStudents":24,"maxFlips":30,"completionMinutes":45,"basePay":8,"maxBonus":9,"perTrialBonus":0.5,"perTrialBonusThreshold":0.1,"exampleCost":0.01},"classroomParams":{"A":{"a":1,"b":4},"B":{"a":4,"b":1},"C":{"a":2,"b":8},"D":{"a":8,"b":2}},"conditions":["nonSeqFull","nonSeqPartial","seqNoFeedback","seqFeedback"],"classroomPairings":[["A","B"],["C","D"]],"coinWeights":[0.2,0.5,0.8],"subjectId":"A3RMV9ZGFJ0HHF","assignmentId":"3KB8R4ZV1FT99IV6AXQAU189L3RBGP","hitId":"3H6W48L9F4B5OEOMH57RM53ZYNHWPM","url":"https://gershmanlab.com/experiments/alicia/teaching/experiment/?hitId=3H6W48L9F4B5OEOMH57RM53ZYNHWPM&workerId=A3RMV9ZGFJ0HHF&assignmentId=3KB8R4ZV1FT99IV6AXQAU189L3RBGP&a=VRBK8&tp_a=VRBK8&b=3KB8R4ZV1FT99IV6AXQAU189L3RBGP&tp_b=3KB8R4ZV1FT99IV6AXQAU189L3RBGP&c=365198&tp_c=365198"},{"rt":20625,"response":{"heads":"4","tails":"16"},"type":"response","condition":"seqFeedback","trueTheta":0.2,"classrooms":["C","D"],"studentTrueClassroom":"C","exampleSet":"first","trial_type":"survey-html-form","trial_index":65,"time_elapsed":636075,"internal_node_id":"0.0-64.0-0.0","params":{"nStudents":24,"maxFlips":30,"completionMinutes":45,"basePay":8,"maxBonus":9,"perTrialBonus":0.5,"perTrialBonusThreshold":0.1,"exampleCost":0.01},"classroomParams":{"A":{"a":1,"b":4},"B":{"a":4,"b":1},"C":{"a":2,"b":8},"D":{"a":8,"b":2}},"conditions":["nonSeqFull","nonSeqPartial","seqNoFeedback","seqFeedback"],"classroomPairings":[["A","B"],["C","D"]],"coinWeights":[0.2,0.5,0.8],"subjectId":"A3RMV9ZGFJ0HHF","assignmentId":"3KB8R4ZV1FT99IV6AXQAU189L3RBGP","hitId":"3H6W48L9F4B5OEOMH57RM53ZYNHWPM","url":"https://gershmanlab.com/experiments/alicia/teaching/experiment/?hitId=3H6W48L9F4B5OEOMH57RM53ZYNHWPM&workerId=A3RMV9ZGFJ0HHF&assignmentId=3KB8R4ZV1FT99IV6AXQAU189L3RBGP&a=VRBK8&tp_a=VRBK8&b=3KB8R4ZV1FT99IV6AXQAU189L3RBGP&tp_b=3KB8R4ZV1FT99IV6AXQAU189L3RBGP&c=365198&tp_c=365198","heads":4,"tails":16,"studentIndex":8,"studentTrueHypers":{"a":2,"b":8},"studentGuess":0.2,"delta":0,"totalExamples":20,"bonusSoFar":1.31},{"rt":null,"stimulus":"Sending examples to student... ","response":null,"trial_type":"html-keyboard-response","trial_index":66,"time_elapsed":637831,"internal_node_id":"0.0-65.0","params":{"nStudents":24,"maxFlips":30,"completionMinutes":45,"basePay":8,"maxBonus":9,"perTrialBonus":0.5,"perTrialBonusThreshold":0.1,"exampleCost":0.01},"classroomParams":{"A":{"a":1,"b":4},"B":{"a":4,"b":1},"C":{"a":2,"b":8},"D":{"a":8,"b":2}},"conditions":["nonSeqFull","nonSeqPartial","seqNoFeedback","seqFeedback"],"classroomPairings":[["A","B"],["C","D"]],"coinWeights":[0.2,0.5,0.8],"subjectId":"A3RMV9ZGFJ0HHF","assignmentId":"3KB8R4ZV1FT99IV6AXQAU189L3RBGP","hitId":"3H6W48L9F4B5OEOMH57RM53ZYNHWPM","url":"https://gershmanlab.com/experiments/alicia/teaching/experiment/?hitId=3H6W48L9F4B5OEOMH57RM53ZYNHWPM&workerId=A3RMV9ZGFJ0HHF&assignmentId=3KB8R4ZV1FT99IV6AXQAU189L3RBGP&a=VRBK8&tp_a=VRBK8&b=3KB8R4ZV1FT99IV6AXQAU189L3RBGP&tp_b=3KB8R4ZV1FT99IV6AXQAU189L3RBGP&c=365198&tp_c=365198"},{"rt":null,"stimulus":"Examples sent to student! Waiting for student...","response":null,"trial_type":"html-keyboard-response","trial_index":67,"time_elapsed":643837,"internal_node_id":"0.0-66.0","params":{"nStudents":24,"maxFlips":30,"completionMinutes":45,"basePay":8,"maxBonus":9,"perTrialBonus":0.5,"perTrialBonusThreshold":0.1,"exampleCost":0.01},"classroomParams":{"A":{"a":1,"b":4},"B":{"a":4,"b":1},"C":{"a":2,"b":8},"D":{"a":8,"b":2}},"conditions":["nonSeqFull","nonSeqPartial","seqNoFeedback","seqFeedback"],"classroomPairings":[["A","B"],["C","D"]],"coinWeights":[0.2,0.5,0.8],"subjectId":"A3RMV9ZGFJ0HHF","assignmentId":"3KB8R4ZV1FT99IV6AXQAU189L3RBGP","hitId":"3H6W48L9F4B5OEOMH57RM53ZYNHWPM","url":"https://gershmanlab.com/experiments/alicia/teaching/experiment/?hitId=3H6W48L9F4B5OEOMH57RM53ZYNHWPM&workerId=A3RMV9ZGFJ0HHF&assignmentId=3KB8R4ZV1FT99IV6AXQAU189L3RBGP&a=VRBK8&tp_a=VRBK8&b=3KB8R4ZV1FT99IV6AXQAU189L3RBGP&tp_b=3KB8R4ZV1FT99IV6AXQAU189L3RBGP&c=365198&tp_c=365198"},{"rt":3674,"stimulus":"\n                <p>Student's guess for coin weight: <b style=\"color:Tomato;\">0.20</b></p>\n                <p></b></p>\n                <p>You will now send another set of examples to your student. Press any key to continue.</p>\n                ","response":" ","trial_type":"html-keyboard-response","trial_index":68,"time_elapsed":647516,"internal_node_id":"0.0-67.0","params":{"nStudents":24,"maxFlips":30,"completionMinutes":45,"basePay":8,"maxBonus":9,"perTrialBonus":0.5,"perTrialBonusThreshold":0.1,"exampleCost":0.01},"classroomParams":{"A":{"a":1,"b":4},"B":{"a":4,"b":1},"C":{"a":2,"b":8},"D":{"a":8,"b":2}},"conditions":["nonSeqFull","nonSeqPartial","seqNoFeedback","seqFeedback"],"classroomPairings":[["A","B"],["C","D"]],"coinWeights":[0.2,0.5,0.8],"subjectId":"A3RMV9ZGFJ0HHF","assignmentId":"3KB8R4ZV1FT99IV6AXQAU189L3RBGP","hitId":"3H6W48L9F4B5OEOMH57RM53ZYNHWPM","url":"https://gershmanlab.com/experiments/alicia/teaching/experiment/?hitId=3H6W48L9F4B5OEOMH57RM53ZYNHWPM&workerId=A3RMV9ZGFJ0HHF&assignmentId=3KB8R4ZV1FT99IV6AXQAU189L3RBGP&a=VRBK8&tp_a=VRBK8&b=3KB8R4ZV1FT99IV6AXQAU189L3RBGP&tp_b=3KB8R4ZV1FT99IV6AXQAU189L3RBGP&c=365198&tp_c=365198"},{"rt":7359,"response":{"heads":"2","tails":"8"},"type":"response","condition":"seqFeedback","trueTheta":0.2,"classrooms":["C","D"],"studentTrueClassroom":"C","exampleSet":"second","trial_type":"survey-html-form","trial_index":69,"time_elapsed":654882,"internal_node_id":"0.0-68.0-0.0","params":{"nStudents":24,"maxFlips":30,"completionMinutes":45,"basePay":8,"maxBonus":9,"perTrialBonus":0.5,"perTrialBonusThreshold":0.1,"exampleCost":0.01},"classroomParams":{"A":{"a":1,"b":4},"B":{"a":4,"b":1},"C":{"a":2,"b":8},"D":{"a":8,"b":2}},"conditions":["nonSeqFull","nonSeqPartial","seqNoFeedback","seqFeedback"],"classroomPairings":[["A","B"],["C","D"]],"coinWeights":[0.2,0.5,0.8],"subjectId":"A3RMV9ZGFJ0HHF","assignmentId":"3KB8R4ZV1FT99IV6AXQAU189L3RBGP","hitId":"3H6W48L9F4B5OEOMH57RM53ZYNHWPM","url":"https://gershmanlab.com/experiments/alicia/teaching/experiment/?hitId=3H6W48L9F4B5OEOMH57RM53ZYNHWPM&workerId=A3RMV9ZGFJ0HHF&assignmentId=3KB8R4ZV1FT99IV6AXQAU189L3RBGP&a=VRBK8&tp_a=VRBK8&b=3KB8R4ZV1FT99IV6AXQAU189L3RBGP&tp_b=3KB8R4ZV1FT99IV6AXQAU189L3RBGP&c=365198&tp_c=365198","firstResponseHeads":4,"firstResponseTails":16,"secondResponseHeads":2,"secondResponseTails":8,"studentIndex":8,"studentTrueHypers":{"a":2,"b":8},"studentGuess":0.2,"delta":0,"bonus":0.2,"bonusSoFar":1.51,"totalExamples":30},{"rt":null,"stimulus":"Sending examples to student... ","response":null,"trial_type":"html-keyboard-response","trial_index":70,"time_elapsed":656386,"internal_node_id":"0.0-69.0","params":{"nStudents":24,"maxFlips":30,"completionMinutes":45,"basePay":8,"maxBonus":9,"perTrialBonus":0.5,"perTrialBonusThreshold":0.1,"exampleCost":0.01},"classroomParams":{"A":{"a":1,"b":4},"B":{"a":4,"b":1},"C":{"a":2,"b":8},"D":{"a":8,"b":2}},"conditions":["nonSeqFull","nonSeqPartial","seqNoFeedback","seqFeedback"],"classroomPairings":[["A","B"],["C","D"]],"coinWeights":[0.2,0.5,0.8],"subjectId":"A3RMV9ZGFJ0HHF","assignmentId":"3KB8R4ZV1FT99IV6AXQAU189L3RBGP","hitId":"3H6W48L9F4B5OEOMH57RM53ZYNHWPM","url":"https://gershmanlab.com/experiments/alicia/teaching/experiment/?hitId=3H6W48L9F4B5OEOMH57RM53ZYNHWPM&workerId=A3RMV9ZGFJ0HHF&assignmentId=3KB8R4ZV1FT99IV6AXQAU189L3RBGP&a=VRBK8&tp_a=VRBK8&b=3KB8R4ZV1FT99IV6AXQAU189L3RBGP&tp_b=3KB8R4ZV1FT99IV6AXQAU189L3RBGP&c=365198&tp_c=365198"},{"rt":null,"stimulus":"Examples sent to student! Waiting for student...","response":null,"trial_type":"html-keyboard-response","trial_index":71,"time_elapsed":661389,"internal_node_id":"0.0-70.0","params":{"nStudents":24,"maxFlips":30,"completionMinutes":45,"basePay":8,"maxBonus":9,"perTrialBonus":0.5,"perTrialBonusThreshold":0.1,"exampleCost":0.01},"classroomParams":{"A":{"a":1,"b":4},"B":{"a":4,"b":1},"C":{"a":2,"b":8},"D":{"a":8,"b":2}},"conditions":["nonSeqFull","nonSeqPartial","seqNoFeedback","seqFeedback"],"classroomPairings":[["A","B"],["C","D"]],"coinWeights":[0.2,0.5,0.8],"subjectId":"A3RMV9ZGFJ0HHF","assignmentId":"3KB8R4ZV1FT99IV6AXQAU189L3RBGP","hitId":"3H6W48L9F4B5OEOMH57RM53ZYNHWPM","url":"https://gershmanlab.com/experiments/alicia/teaching/experiment/?hitId=3H6W48L9F4B5OEOMH57RM53ZYNHWPM&workerId=A3RMV9ZGFJ0HHF&assignmentId=3KB8R4ZV1FT99IV6AXQAU189L3RBGP&a=VRBK8&tp_a=VRBK8&b=3KB8R4ZV1FT99IV6AXQAU189L3RBGP&tp_b=3KB8R4ZV1FT99IV6AXQAU189L3RBGP&c=365198&tp_c=365198"},{"rt":2256,"stimulus":"\n                <p>Student 9's first guess for coin weight: <b style=\"color:Tomato\";>0.20</b></p>\n                <p>Student 9's second guess for coin weight: <b style=\"color:Tomato\";>0.20</b></p>\n                <p>You received a bonus of <b>$0.20</b> based on the student's second guess.</p>\n                <p>Total bonus so far: <b>$1.51</b></p>\n                <p>Press any key to continue.</p>\n                ","response":" ","trial_type":"html-keyboard-response","trial_index":72,"time_elapsed":663649,"internal_node_id":"0.0-71.0","params":{"nStudents":24,"maxFlips":30,"completionMinutes":45,"basePay":8,"maxBonus":9,"perTrialBonus":0.5,"perTrialBonusThreshold":0.1,"exampleCost":0.01},"classroomParams":{"A":{"a":1,"b":4},"B":{"a":4,"b":1},"C":{"a":2,"b":8},"D":{"a":8,"b":2}},"conditions":["nonSeqFull","nonSeqPartial","seqNoFeedback","seqFeedback"],"classroomPairings":[["A","B"],["C","D"]],"coinWeights":[0.2,0.5,0.8],"subjectId":"A3RMV9ZGFJ0HHF","assignmentId":"3KB8R4ZV1FT99IV6AXQAU189L3RBGP","hitId":"3H6W48L9F4B5OEOMH57RM53ZYNHWPM","url":"https://gershmanlab.com/experiments/alicia/teaching/experiment/?hitId=3H6W48L9F4B5OEOMH57RM53ZYNHWPM&workerId=A3RMV9ZGFJ0HHF&assignmentId=3KB8R4ZV1FT99IV6AXQAU189L3RBGP&a=VRBK8&tp_a=VRBK8&b=3KB8R4ZV1FT99IV6AXQAU189L3RBGP&tp_b=3KB8R4ZV1FT99IV6AXQAU189L3RBGP&c=365198&tp_c=365198"},{"rt":null,"stimulus":"<div style=\"font-size:60px;\">Next student</div>","response":null,"trial_type":"html-keyboard-response","trial_index":73,"time_elapsed":666652,"internal_node_id":"0.0-72.0-0.0","params":{"nStudents":24,"maxFlips":30,"completionMinutes":45,"basePay":8,"maxBonus":9,"perTrialBonus":0.5,"perTrialBonusThreshold":0.1,"exampleCost":0.01},"classroomParams":{"A":{"a":1,"b":4},"B":{"a":4,"b":1},"C":{"a":2,"b":8},"D":{"a":8,"b":2}},"conditions":["nonSeqFull","nonSeqPartial","seqNoFeedback","seqFeedback"],"classroomPairings":[["A","B"],["C","D"]],"coinWeights":[0.2,0.5,0.8],"subjectId":"A3RMV9ZGFJ0HHF","assignmentId":"3KB8R4ZV1FT99IV6AXQAU189L3RBGP","hitId":"3H6W48L9F4B5OEOMH57RM53ZYNHWPM","url":"https://gershmanlab.com/experiments/alicia/teaching/experiment/?hitId=3H6W48L9F4B5OEOMH57RM53ZYNHWPM&workerId=A3RMV9ZGFJ0HHF&assignmentId=3KB8R4ZV1FT99IV6AXQAU189L3RBGP&a=VRBK8&tp_a=VRBK8&b=3KB8R4ZV1FT99IV6AXQAU189L3RBGP&tp_b=3KB8R4ZV1FT99IV6AXQAU189L3RBGP&c=365198&tp_c=365198"},{"rt":2268,"stimulus":"\n            <h4 style=\"color:Orange;\">Student 10</h4>\n            <h2>The weight of your coin is <b style=\"color:Tomato;\">0.5</b>.</h2>\n            <p>In this block, you will be giving <b>two</b> sets of examples to Student 10.</p>\n                <p>You will receive feedback at the end of the block.</p>\n            ","response":0,"trial_type":"html-button-response","trial_index":74,"time_elapsed":668925,"internal_node_id":"0.0-73.0","params":{"nStudents":24,"maxFlips":30,"completionMinutes":45,"basePay":8,"maxBonus":9,"perTrialBonus":0.5,"perTrialBonusThreshold":0.1,"exampleCost":0.01},"classroomParams":{"A":{"a":1,"b":4},"B":{"a":4,"b":1},"C":{"a":2,"b":8},"D":{"a":8,"b":2}},"conditions":["nonSeqFull","nonSeqPartial","seqNoFeedback","seqFeedback"],"classroomPairings":[["A","B"],["C","D"]],"coinWeights":[0.2,0.5,0.8],"subjectId":"A3RMV9ZGFJ0HHF","assignmentId":"3KB8R4ZV1FT99IV6AXQAU189L3RBGP","hitId":"3H6W48L9F4B5OEOMH57RM53ZYNHWPM","url":"https://gershmanlab.com/experiments/alicia/teaching/experiment/?hitId=3H6W48L9F4B5OEOMH57RM53ZYNHWPM&workerId=A3RMV9ZGFJ0HHF&assignmentId=3KB8R4ZV1FT99IV6AXQAU189L3RBGP&a=VRBK8&tp_a=VRBK8&b=3KB8R4ZV1FT99IV6AXQAU189L3RBGP&tp_b=3KB8R4ZV1FT99IV6AXQAU189L3RBGP&c=365198&tp_c=365198"},{"rt":8053,"response":{"heads":"15","tails":"15"},"type":"response","condition":"seqNoFeedback","trueTheta":0.5,"classrooms":["A","B"],"studentTrueClassroom":"B","exampleSet":"first","trial_type":"survey-html-form","trial_index":75,"time_elapsed":676985,"internal_node_id":"0.0-74.0-0.0","params":{"nStudents":24,"maxFlips":30,"completionMinutes":45,"basePay":8,"maxBonus":9,"perTrialBonus":0.5,"perTrialBonusThreshold":0.1,"exampleCost":0.01},"classroomParams":{"A":{"a":1,"b":4},"B":{"a":4,"b":1},"C":{"a":2,"b":8},"D":{"a":8,"b":2}},"conditions":["nonSeqFull","nonSeqPartial","seqNoFeedback","seqFeedback"],"classroomPairings":[["A","B"],["C","D"]],"coinWeights":[0.2,0.5,0.8],"subjectId":"A3RMV9ZGFJ0HHF","assignmentId":"3KB8R4ZV1FT99IV6AXQAU189L3RBGP","hitId":"3H6W48L9F4B5OEOMH57RM53ZYNHWPM","url":"https://gershmanlab.com/experiments/alicia/teaching/experiment/?hitId=3H6W48L9F4B5OEOMH57RM53ZYNHWPM&workerId=A3RMV9ZGFJ0HHF&assignmentId=3KB8R4ZV1FT99IV6AXQAU189L3RBGP&a=VRBK8&tp_a=VRBK8&b=3KB8R4ZV1FT99IV6AXQAU189L3RBGP&tp_b=3KB8R4ZV1FT99IV6AXQAU189L3RBGP&c=365198&tp_c=365198","heads":15,"tails":15,"studentIndex":9,"studentTrueHypers":{"a":4,"b":1},"studentGuess":0.5428571428571428,"delta":0.042857142857142816,"totalExamples":30,"bonusSoFar":1.51},{"rt":null,"stimulus":"Sending examples to student... ","response":null,"trial_type":"html-keyboard-response","trial_index":76,"time_elapsed":678489,"internal_node_id":"0.0-75.0","params":{"nStudents":24,"maxFlips":30,"completionMinutes":45,"basePay":8,"maxBonus":9,"perTrialBonus":0.5,"perTrialBonusThreshold":0.1,"exampleCost":0.01},"classroomParams":{"A":{"a":1,"b":4},"B":{"a":4,"b":1},"C":{"a":2,"b":8},"D":{"a":8,"b":2}},"conditions":["nonSeqFull","nonSeqPartial","seqNoFeedback","seqFeedback"],"classroomPairings":[["A","B"],["C","D"]],"coinWeights":[0.2,0.5,0.8],"subjectId":"A3RMV9ZGFJ0HHF","assignmentId":"3KB8R4ZV1FT99IV6AXQAU189L3RBGP","hitId":"3H6W48L9F4B5OEOMH57RM53ZYNHWPM","url":"https://gershmanlab.com/experiments/alicia/teaching/experiment/?hitId=3H6W48L9F4B5OEOMH57RM53ZYNHWPM&workerId=A3RMV9ZGFJ0HHF&assignmentId=3KB8R4ZV1FT99IV6AXQAU189L3RBGP&a=VRBK8&tp_a=VRBK8&b=3KB8R4ZV1FT99IV6AXQAU189L3RBGP&tp_b=3KB8R4ZV1FT99IV6AXQAU189L3RBGP&c=365198&tp_c=365198"},{"rt":null,"stimulus":"Examples sent to student! Waiting for student...","response":null,"trial_type":"html-keyboard-response","trial_index":77,"time_elapsed":684491,"internal_node_id":"0.0-76.0","params":{"nStudents":24,"maxFlips":30,"completionMinutes":45,"basePay":8,"maxBonus":9,"perTrialBonus":0.5,"perTrialBonusThreshold":0.1,"exampleCost":0.01},"classroomParams":{"A":{"a":1,"b":4},"B":{"a":4,"b":1},"C":{"a":2,"b":8},"D":{"a":8,"b":2}},"conditions":["nonSeqFull","nonSeqPartial","seqNoFeedback","seqFeedback"],"classroomPairings":[["A","B"],["C","D"]],"coinWeights":[0.2,0.5,0.8],"subjectId":"A3RMV9ZGFJ0HHF","assignmentId":"3KB8R4ZV1FT99IV6AXQAU189L3RBGP","hitId":"3H6W48L9F4B5OEOMH57RM53ZYNHWPM","url":"https://gershmanlab.com/experiments/alicia/teaching/experiment/?hitId=3H6W48L9F4B5OEOMH57RM53ZYNHWPM&workerId=A3RMV9ZGFJ0HHF&assignmentId=3KB8R4ZV1FT99IV6AXQAU189L3RBGP&a=VRBK8&tp_a=VRBK8&b=3KB8R4ZV1FT99IV6AXQAU189L3RBGP&tp_b=3KB8R4ZV1FT99IV6AXQAU189L3RBGP&c=365198&tp_c=365198"},{"rt":8186,"response":{"heads":"5","tails":"5"},"type":"response","condition":"seqNoFeedback","trueTheta":0.5,"classrooms":["A","B"],"studentTrueClassroom":"B","exampleSet":"second","trial_type":"survey-html-form","trial_index":78,"time_elapsed":692681,"internal_node_id":"0.0-77.0-0.0","params":{"nStudents":24,"maxFlips":30,"completionMinutes":45,"basePay":8,"maxBonus":9,"perTrialBonus":0.5,"perTrialBonusThreshold":0.1,"exampleCost":0.01},"classroomParams":{"A":{"a":1,"b":4},"B":{"a":4,"b":1},"C":{"a":2,"b":8},"D":{"a":8,"b":2}},"conditions":["nonSeqFull","nonSeqPartial","seqNoFeedback","seqFeedback"],"classroomPairings":[["A","B"],["C","D"]],"coinWeights":[0.2,0.5,0.8],"subjectId":"A3RMV9ZGFJ0HHF","assignmentId":"3KB8R4ZV1FT99IV6AXQAU189L3RBGP","hitId":"3H6W48L9F4B5OEOMH57RM53ZYNHWPM","url":"https://gershmanlab.com/experiments/alicia/teaching/experiment/?hitId=3H6W48L9F4B5OEOMH57RM53ZYNHWPM&workerId=A3RMV9ZGFJ0HHF&assignmentId=3KB8R4ZV1FT99IV6AXQAU189L3RBGP&a=VRBK8&tp_a=VRBK8&b=3KB8R4ZV1FT99IV6AXQAU189L3RBGP&tp_b=3KB8R4ZV1FT99IV6AXQAU189L3RBGP&c=365198&tp_c=365198","firstResponseHeads":15,"firstResponseTails":15,"secondResponseHeads":5,"secondResponseTails":5,"studentIndex":9,"studentTrueHypers":{"a":4,"b":1},"studentGuess":0.5333333333333333,"delta":0.033333333333333326,"bonus":0.1,"bonusSoFar":1.61,"totalExamples":40},{"rt":null,"stimulus":"Sending examples to student... ","response":null,"trial_type":"html-keyboard-response","trial_index":79,"time_elapsed":694685,"internal_node_id":"0.0-78.0","params":{"nStudents":24,"maxFlips":30,"completionMinutes":45,"basePay":8,"maxBonus":9,"perTrialBonus":0.5,"perTrialBonusThreshold":0.1,"exampleCost":0.01},"classroomParams":{"A":{"a":1,"b":4},"B":{"a":4,"b":1},"C":{"a":2,"b":8},"D":{"a":8,"b":2}},"conditions":["nonSeqFull","nonSeqPartial","seqNoFeedback","seqFeedback"],"classroomPairings":[["A","B"],["C","D"]],"coinWeights":[0.2,0.5,0.8],"subjectId":"A3RMV9ZGFJ0HHF","assignmentId":"3KB8R4ZV1FT99IV6AXQAU189L3RBGP","hitId":"3H6W48L9F4B5OEOMH57RM53ZYNHWPM","url":"https://gershmanlab.com/experiments/alicia/teaching/experiment/?hitId=3H6W48L9F4B5OEOMH57RM53ZYNHWPM&workerId=A3RMV9ZGFJ0HHF&assignmentId=3KB8R4ZV1FT99IV6AXQAU189L3RBGP&a=VRBK8&tp_a=VRBK8&b=3KB8R4ZV1FT99IV6AXQAU189L3RBGP&tp_b=3KB8R4ZV1FT99IV6AXQAU189L3RBGP&c=365198&tp_c=365198"},{"rt":null,"stimulus":"Examples sent to student! Waiting for student...","response":null,"trial_type":"html-keyboard-response","trial_index":80,"time_elapsed":699688,"internal_node_id":"0.0-79.0","params":{"nStudents":24,"maxFlips":30,"completionMinutes":45,"basePay":8,"maxBonus":9,"perTrialBonus":0.5,"perTrialBonusThreshold":0.1,"exampleCost":0.01},"classroomParams":{"A":{"a":1,"b":4},"B":{"a":4,"b":1},"C":{"a":2,"b":8},"D":{"a":8,"b":2}},"conditions":["nonSeqFull","nonSeqPartial","seqNoFeedback","seqFeedback"],"classroomPairings":[["A","B"],["C","D"]],"coinWeights":[0.2,0.5,0.8],"subjectId":"A3RMV9ZGFJ0HHF","assignmentId":"3KB8R4ZV1FT99IV6AXQAU189L3RBGP","hitId":"3H6W48L9F4B5OEOMH57RM53ZYNHWPM","url":"https://gershmanlab.com/experiments/alicia/teaching/experiment/?hitId=3H6W48L9F4B5OEOMH57RM53ZYNHWPM&workerId=A3RMV9ZGFJ0HHF&assignmentId=3KB8R4ZV1FT99IV6AXQAU189L3RBGP&a=VRBK8&tp_a=VRBK8&b=3KB8R4ZV1FT99IV6AXQAU189L3RBGP&tp_b=3KB8R4ZV1FT99IV6AXQAU189L3RBGP&c=365198&tp_c=365198"},{"rt":3138,"stimulus":"\n                <p>Student 10's first guess for coin weight: <b style=\"color:Tomato\";>0.54</b></p>\n                <p>Student 10's second guess for coin weight: <b style=\"color:Tomato\";>0.53</b></p>\n                <p>You received a bonus of <b>$0.10</b> based on the student's second guess.</p>\n                <p>Total bonus so far: <b>$1.61</b></p>\n                <p>Press any key to continue.</p>\n                ","response":" ","trial_type":"html-keyboard-response","trial_index":81,"time_elapsed":702832,"internal_node_id":"0.0-80.0","params":{"nStudents":24,"maxFlips":30,"completionMinutes":45,"basePay":8,"maxBonus":9,"perTrialBonus":0.5,"perTrialBonusThreshold":0.1,"exampleCost":0.01},"classroomParams":{"A":{"a":1,"b":4},"B":{"a":4,"b":1},"C":{"a":2,"b":8},"D":{"a":8,"b":2}},"conditions":["nonSeqFull","nonSeqPartial","seqNoFeedback","seqFeedback"],"classroomPairings":[["A","B"],["C","D"]],"coinWeights":[0.2,0.5,0.8],"subjectId":"A3RMV9ZGFJ0HHF","assignmentId":"3KB8R4ZV1FT99IV6AXQAU189L3RBGP","hitId":"3H6W48L9F4B5OEOMH57RM53ZYNHWPM","url":"https://gershmanlab.com/experiments/alicia/teaching/experiment/?hitId=3H6W48L9F4B5OEOMH57RM53ZYNHWPM&workerId=A3RMV9ZGFJ0HHF&assignmentId=3KB8R4ZV1FT99IV6AXQAU189L3RBGP&a=VRBK8&tp_a=VRBK8&b=3KB8R4ZV1FT99IV6AXQAU189L3RBGP&tp_b=3KB8R4ZV1FT99IV6AXQAU189L3RBGP&c=365198&tp_c=365198"},{"rt":null,"stimulus":"<div style=\"font-size:60px;\">Next student</div>","response":null,"trial_type":"html-keyboard-response","trial_index":82,"time_elapsed":705335,"internal_node_id":"0.0-81.0-0.0","params":{"nStudents":24,"maxFlips":30,"completionMinutes":45,"basePay":8,"maxBonus":9,"perTrialBonus":0.5,"perTrialBonusThreshold":0.1,"exampleCost":0.01},"classroomParams":{"A":{"a":1,"b":4},"B":{"a":4,"b":1},"C":{"a":2,"b":8},"D":{"a":8,"b":2}},"conditions":["nonSeqFull","nonSeqPartial","seqNoFeedback","seqFeedback"],"classroomPairings":[["A","B"],["C","D"]],"coinWeights":[0.2,0.5,0.8],"subjectId":"A3RMV9ZGFJ0HHF","assignmentId":"3KB8R4ZV1FT99IV6AXQAU189L3RBGP","hitId":"3H6W48L9F4B5OEOMH57RM53ZYNHWPM","url":"https://gershmanlab.com/experiments/alicia/teaching/experiment/?hitId=3H6W48L9F4B5OEOMH57RM53ZYNHWPM&workerId=A3RMV9ZGFJ0HHF&assignmentId=3KB8R4ZV1FT99IV6AXQAU189L3RBGP&a=VRBK8&tp_a=VRBK8&b=3KB8R4ZV1FT99IV6AXQAU189L3RBGP&tp_b=3KB8R4ZV1FT99IV6AXQAU189L3RBGP&c=365198&tp_c=365198"},{"rt":2073,"stimulus":"\n            <h4 style=\"color:Orange;\">Student 11</h4>\n            <h2>The weight of your coin is <b style=\"color:Tomato;\">0.8</b>.</h2>\n            <p>In this block, you will be giving <b>two</b> sets of examples to Student 11.</p>\n                <p>You will see the student's guess after the first set of examples. You will also receive feedback at the end of the block.</p>\n            ","response":0,"trial_type":"html-button-response","trial_index":83,"time_elapsed":707412,"internal_node_id":"0.0-82.0","params":{"nStudents":24,"maxFlips":30,"completionMinutes":45,"basePay":8,"maxBonus":9,"perTrialBonus":0.5,"perTrialBonusThreshold":0.1,"exampleCost":0.01},"classroomParams":{"A":{"a":1,"b":4},"B":{"a":4,"b":1},"C":{"a":2,"b":8},"D":{"a":8,"b":2}},"conditions":["nonSeqFull","nonSeqPartial","seqNoFeedback","seqFeedback"],"classroomPairings":[["A","B"],["C","D"]],"coinWeights":[0.2,0.5,0.8],"subjectId":"A3RMV9ZGFJ0HHF","assignmentId":"3KB8R4ZV1FT99IV6AXQAU189L3RBGP","hitId":"3H6W48L9F4B5OEOMH57RM53ZYNHWPM","url":"https://gershmanlab.com/experiments/alicia/teaching/experiment/?hitId=3H6W48L9F4B5OEOMH57RM53ZYNHWPM&workerId=A3RMV9ZGFJ0HHF&assignmentId=3KB8R4ZV1FT99IV6AXQAU189L3RBGP&a=VRBK8&tp_a=VRBK8&b=3KB8R4ZV1FT99IV6AXQAU189L3RBGP&tp_b=3KB8R4ZV1FT99IV6AXQAU189L3RBGP&c=365198&tp_c=365198"},{"rt":11671,"response":{"heads":"16","tails":"4"},"type":"response","condition":"seqFeedback","trueTheta":0.8,"classrooms":["A","B"],"studentTrueClassroom":"A","exampleSet":"first","trial_type":"survey-html-form","trial_index":84,"time_elapsed":719091,"internal_node_id":"0.0-83.0-0.0","params":{"nStudents":24,"maxFlips":30,"completionMinutes":45,"basePay":8,"maxBonus":9,"perTrialBonus":0.5,"perTrialBonusThreshold":0.1,"exampleCost":0.01},"classroomParams":{"A":{"a":1,"b":4},"B":{"a":4,"b":1},"C":{"a":2,"b":8},"D":{"a":8,"b":2}},"conditions":["nonSeqFull","nonSeqPartial","seqNoFeedback","seqFeedback"],"classroomPairings":[["A","B"],["C","D"]],"coinWeights":[0.2,0.5,0.8],"subjectId":"A3RMV9ZGFJ0HHF","assignmentId":"3KB8R4ZV1FT99IV6AXQAU189L3RBGP","hitId":"3H6W48L9F4B5OEOMH57RM53ZYNHWPM","url":"https://gershmanlab.com/experiments/alicia/teaching/experiment/?hitId=3H6W48L9F4B5OEOMH57RM53ZYNHWPM&workerId=A3RMV9ZGFJ0HHF&assignmentId=3KB8R4ZV1FT99IV6AXQAU189L3RBGP&a=VRBK8&tp_a=VRBK8&b=3KB8R4ZV1FT99IV6AXQAU189L3RBGP&tp_b=3KB8R4ZV1FT99IV6AXQAU189L3RBGP&c=365198&tp_c=365198","heads":16,"tails":4,"studentIndex":10,"studentTrueHypers":{"a":1,"b":4},"studentGuess":0.68,"delta":0.12,"totalExamples":20,"bonusSoFar":1.61},{"rt":null,"stimulus":"Sending examples to student... ","response":null,"trial_type":"html-keyboard-response","trial_index":85,"time_elapsed":720846,"internal_node_id":"0.0-84.0","params":{"nStudents":24,"maxFlips":30,"completionMinutes":45,"basePay":8,"maxBonus":9,"perTrialBonus":0.5,"perTrialBonusThreshold":0.1,"exampleCost":0.01},"classroomParams":{"A":{"a":1,"b":4},"B":{"a":4,"b":1},"C":{"a":2,"b":8},"D":{"a":8,"b":2}},"conditions":["nonSeqFull","nonSeqPartial","seqNoFeedback","seqFeedback"],"classroomPairings":[["A","B"],["C","D"]],"coinWeights":[0.2,0.5,0.8],"subjectId":"A3RMV9ZGFJ0HHF","assignmentId":"3KB8R4ZV1FT99IV6AXQAU189L3RBGP","hitId":"3H6W48L9F4B5OEOMH57RM53ZYNHWPM","url":"https://gershmanlab.com/experiments/alicia/teaching/experiment/?hitId=3H6W48L9F4B5OEOMH57RM53ZYNHWPM&workerId=A3RMV9ZGFJ0HHF&assignmentId=3KB8R4ZV1FT99IV6AXQAU189L3RBGP&a=VRBK8&tp_a=VRBK8&b=3KB8R4ZV1FT99IV6AXQAU189L3RBGP&tp_b=3KB8R4ZV1FT99IV6AXQAU189L3RBGP&c=365198&tp_c=365198"},{"rt":null,"stimulus":"Examples sent to student! Waiting for student...","response":null,"trial_type":"html-keyboard-response","trial_index":86,"time_elapsed":725350,"internal_node_id":"0.0-85.0","params":{"nStudents":24,"maxFlips":30,"completionMinutes":45,"basePay":8,"maxBonus":9,"perTrialBonus":0.5,"perTrialBonusThreshold":0.1,"exampleCost":0.01},"classroomParams":{"A":{"a":1,"b":4},"B":{"a":4,"b":1},"C":{"a":2,"b":8},"D":{"a":8,"b":2}},"conditions":["nonSeqFull","nonSeqPartial","seqNoFeedback","seqFeedback"],"classroomPairings":[["A","B"],["C","D"]],"coinWeights":[0.2,0.5,0.8],"subjectId":"A3RMV9ZGFJ0HHF","assignmentId":"3KB8R4ZV1FT99IV6AXQAU189L3RBGP","hitId":"3H6W48L9F4B5OEOMH57RM53ZYNHWPM","url":"https://gershmanlab.com/experiments/alicia/teaching/experiment/?hitId=3H6W48L9F4B5OEOMH57RM53ZYNHWPM&workerId=A3RMV9ZGFJ0HHF&assignmentId=3KB8R4ZV1FT99IV6AXQAU189L3RBGP&a=VRBK8&tp_a=VRBK8&b=3KB8R4ZV1FT99IV6AXQAU189L3RBGP&tp_b=3KB8R4ZV1FT99IV6AXQAU189L3RBGP&c=36519