[{"rt":2918,"stimulus":"Welcome to the experiment. Press any key to begin.","response":"enter","trial_type":"html-keyboard-response","trial_index":0,"time_elapsed":2937,"internal_node_id":"0.0-0.0","params":{"nStudents":24,"maxFlips":30,"completionMinutes":45,"basePay":8,"maxBonus":9,"perTrialBonus":0.5,"perTrialBonusThreshold":0.1,"exampleCost":0.01},"classroomParams":{"A":{"a":1,"b":4},"B":{"a":4,"b":1},"C":{"a":2,"b":8},"D":{"a":8,"b":2}},"conditions":["nonSeqFull","nonSeqPartial","seqNoFeedback","seqFeedback"],"classroomPairings":[["A","B"],["C","D"]],"coinWeights":[0.2,0.5,0.8],"subjectId":"A3V2XCDF45VN9X","assignmentId":"3ZDAD0O1T2ZKRQKDZTHZIHEQU0MTXO","hitId":"3QGHA0EA0JM3KKNCY0PQRLYAHJ3BWH","url":"https://gershmanlab.com/experiments/alicia/teaching/experiment/?hitId=3QGHA0EA0JM3KKNCY0PQRLYAHJ3BWH&workerId=A3V2XCDF45VN9X&assignmentId=3ZDAD0O1T2ZKRQKDZTHZIHEQU0MTXO&a=1DDZ8&tp_a=1DDZ8&b=3ZDAD0O1T2ZKRQKDZTHZIHEQU0MTXO&tp_b=3ZDAD0O1T2ZKRQKDZTHZIHEQU0MTXO&c=365198&tp_c=365198"},{"rt":9203,"stimulus":"\n        <h3>Please read this consent agreement carefully before deciding whether to participate in this experiment.</h3>\n        <p><b>Purpose of the research:</b> To examine how people teach effectively.</p>\n        <p><b>What you will do in this research:</b> You will teach students the weights of different coins.</p>\n        <p><b>Time required:</b> This experiment will take 45 minutes to complete.</p>\n        <p><b>Risks:</b> There are no anticipated risks associated with participating in this study.             The effects of participating should be comparable to those you would experience from viewing a computer monitor             and using a mouse and keyboard for the duration of the experiment.</p>\n        <p><b>Benefits:</b> The study provides important information about the nature of teaching.</p>\n        <p><b>Compensation:</b> You will receive <b>$8</b> for completing the experiment and a performance bonus of up to <b>$9</b>.</p>\n        <p><b>Confidentiality:</b> Your participation in this study will remain confidential.             No personally identifiable information will be associated with your data.             Your de-identified data may be shared with other researchers and used in future projects.</p>\n        <p><b>Participation and withdrawal:</b> Your participation in this study is completely voluntary and             you may refuse to participate or you may choose to withdraw at any time without penalty or loss of\n            benefits to which you are otherwise entitled.</p>\n        <p><b>How to contact the researcher:</b> If you have questions or concerns about your participation            or payment, or want to request a summary of research findings, please contact\n            Alicia Chen, aliciachen@college.harvard.edu.</p>\n        <p><b>Whom to contact about your rights in this research:</b> For questions, concerns, suggestions,             or complaints that have not been or cannot be addressed by the researcher, or to report             research-related harm, please contact the Committee on the Use of Human Subjects in Research at Harvard University,             1414 Massachusetts Avenue, Second Floor, Cambridge, MA 02138. Phone: 617-496-2847. Email: cuhs@fas.harvard.edu.</p>\n        ","response":0,"trial_type":"html-button-response","trial_index":1,"time_elapsed":12142,"internal_node_id":"0.0-1.0","params":{"nStudents":24,"maxFlips":30,"completionMinutes":45,"basePay":8,"maxBonus":9,"perTrialBonus":0.5,"perTrialBonusThreshold":0.1,"exampleCost":0.01},"classroomParams":{"A":{"a":1,"b":4},"B":{"a":4,"b":1},"C":{"a":2,"b":8},"D":{"a":8,"b":2}},"conditions":["nonSeqFull","nonSeqPartial","seqNoFeedback","seqFeedback"],"classroomPairings":[["A","B"],["C","D"]],"coinWeights":[0.2,0.5,0.8],"subjectId":"A3V2XCDF45VN9X","assignmentId":"3ZDAD0O1T2ZKRQKDZTHZIHEQU0MTXO","hitId":"3QGHA0EA0JM3KKNCY0PQRLYAHJ3BWH","url":"https://gershmanlab.com/experiments/alicia/teaching/experiment/?hitId=3QGHA0EA0JM3KKNCY0PQRLYAHJ3BWH&workerId=A3V2XCDF45VN9X&assignmentId=3ZDAD0O1T2ZKRQKDZTHZIHEQU0MTXO&a=1DDZ8&tp_a=1DDZ8&b=3ZDAD0O1T2ZKRQKDZTHZIHEQU0MTXO&tp_b=3ZDAD0O1T2ZKRQKDZTHZIHEQU0MTXO&c=365198&tp_c=365198"},{"view_history":[{"page_index":0,"viewing_time":5747},{"page_index":1,"viewing_time":18675},{"page_index":2,"viewing_time":36226},{"page_index":3,"viewing_time":17248},{"page_index":4,"viewing_time":21756},{"page_index":5,"viewing_time":21679},{"page_index":6,"viewing_time":24391}],"rt":145724,"trial_type":"instructions","trial_index":2,"time_elapsed":157864,"internal_node_id":"0.0-2.0-0.0","params":{"nStudents":24,"maxFlips":30,"completionMinutes":45,"basePay":8,"maxBonus":9,"perTrialBonus":0.5,"perTrialBonusThreshold":0.1,"exampleCost":0.01},"classroomParams":{"A":{"a":1,"b":4},"B":{"a":4,"b":1},"C":{"a":2,"b":8},"D":{"a":8,"b":2}},"conditions":["nonSeqFull","nonSeqPartial","seqNoFeedback","seqFeedback"],"classroomPairings":[["A","B"],["C","D"]],"coinWeights":[0.2,0.5,0.8],"subjectId":"A3V2XCDF45VN9X","assignmentId":"3ZDAD0O1T2ZKRQKDZTHZIHEQU0MTXO","hitId":"3QGHA0EA0JM3KKNCY0PQRLYAHJ3BWH","url":"https://gershmanlab.com/experiments/alicia/teaching/experiment/?hitId=3QGHA0EA0JM3KKNCY0PQRLYAHJ3BWH&workerId=A3V2XCDF45VN9X&assignmentId=3ZDAD0O1T2ZKRQKDZTHZIHEQU0MTXO&a=1DDZ8&tp_a=1DDZ8&b=3ZDAD0O1T2ZKRQKDZTHZIHEQU0MTXO&tp_b=3ZDAD0O1T2ZKRQKDZTHZIHEQU0MTXO&c=365198&tp_c=365198"},{"rt":143475,"response":{"Q0":"Students in different classrooms have seen a different proportion of fair and unfair coins before seeing the examples you select for them.","Q1":"By teaching efficiently and accurately/helpfully at the same time (because each example I give to the student costs money!).","Q2":"The coin lands heads 90% of the time.","Q3":"Yes, I might encounter the same student twice.","Q4":"The students are also on the same alien planet as you, where coins can be unfair.","Q5":"Based on both guesses."},"question_order":[1,2,3,0,5,4],"trial_type":"survey-multi-choice","trial_index":3,"time_elapsed":301339,"internal_node_id":"0.0-2.0-1.0","params":{"nStudents":24,"maxFlips":30,"completionMinutes":45,"basePay":8,"maxBonus":9,"perTrialBonus":0.5,"perTrialBonusThreshold":0.1,"exampleCost":0.01},"classroomParams":{"A":{"a":1,"b":4},"B":{"a":4,"b":1},"C":{"a":2,"b":8},"D":{"a":8,"b":2}},"conditions":["nonSeqFull","nonSeqPartial","seqNoFeedback","seqFeedback"],"classroomPairings":[["A","B"],["C","D"]],"coinWeights":[0.2,0.5,0.8],"subjectId":"A3V2XCDF45VN9X","assignmentId":"3ZDAD0O1T2ZKRQKDZTHZIHEQU0MTXO","hitId":"3QGHA0EA0JM3KKNCY0PQRLYAHJ3BWH","url":"https://gershmanlab.com/experiments/alicia/teaching/experiment/?hitId=3QGHA0EA0JM3KKNCY0PQRLYAHJ3BWH&workerId=A3V2XCDF45VN9X&assignmentId=3ZDAD0O1T2ZKRQKDZTHZIHEQU0MTXO&a=1DDZ8&tp_a=1DDZ8&b=3ZDAD0O1T2ZKRQKDZTHZIHEQU0MTXO&tp_b=3ZDAD0O1T2ZKRQKDZTHZIHEQU0MTXO&c=365198&tp_c=365198","pass":false},{"rt":3249,"stimulus":"Oops, you have missed question(s) on the comprehension check! We'll show you the instructions again.","response":0,"trial_type":"html-button-response","trial_index":4,"time_elapsed":304591,"internal_node_id":"0.0-2.0-2.0-0.0","params":{"nStudents":24,"maxFlips":30,"completionMinutes":45,"basePay":8,"maxBonus":9,"perTrialBonus":0.5,"perTrialBonusThreshold":0.1,"exampleCost":0.01},"classroomParams":{"A":{"a":1,"b":4},"B":{"a":4,"b":1},"C":{"a":2,"b":8},"D":{"a":8,"b":2}},"conditions":["nonSeqFull","nonSeqPartial","seqNoFeedback","seqFeedback"],"classroomPairings":[["A","B"],["C","D"]],"coinWeights":[0.2,0.5,0.8],"subjectId":"A3V2XCDF45VN9X","assignmentId":"3ZDAD0O1T2ZKRQKDZTHZIHEQU0MTXO","hitId":"3QGHA0EA0JM3KKNCY0PQRLYAHJ3BWH","url":"https://gershmanlab.com/experiments/alicia/teaching/experiment/?hitId=3QGHA0EA0JM3KKNCY0PQRLYAHJ3BWH&workerId=A3V2XCDF45VN9X&assignmentId=3ZDAD0O1T2ZKRQKDZTHZIHEQU0MTXO&a=1DDZ8&tp_a=1DDZ8&b=3ZDAD0O1T2ZKRQKDZTHZIHEQU0MTXO&tp_b=3ZDAD0O1T2ZKRQKDZTHZIHEQU0MTXO&c=365198&tp_c=365198"},{"view_history":[{"page_index":0,"viewing_time":828},{"page_index":1,"viewing_time":1159},{"page_index":2,"viewing_time":1193},{"page_index":3,"viewing_time":776},{"page_index":4,"viewing_time":1136},{"page_index":5,"viewing_time":821},{"page_index":6,"viewing_time":3285}],"rt":9199,"trial_type":"instructions","trial_index":5,"time_elapsed":313790,"internal_node_id":"0.0-2.1-0.1","params":{"nStudents":24,"maxFlips":30,"completionMinutes":45,"basePay":8,"maxBonus":9,"perTrialBonus":0.5,"perTrialBonusThreshold":0.1,"exampleCost":0.01},"classroomParams":{"A":{"a":1,"b":4},"B":{"a":4,"b":1},"C":{"a":2,"b":8},"D":{"a":8,"b":2}},"conditions":["nonSeqFull","nonSeqPartial","seqNoFeedback","seqFeedback"],"classroomPairings":[["A","B"],["C","D"]],"coinWeights":[0.2,0.5,0.8],"subjectId":"A3V2XCDF45VN9X","assignmentId":"3ZDAD0O1T2ZKRQKDZTHZIHEQU0MTXO","hitId":"3QGHA0EA0JM3KKNCY0PQRLYAHJ3BWH","url":"https://gershmanlab.com/experiments/alicia/teaching/experiment/?hitId=3QGHA0EA0JM3KKNCY0PQRLYAHJ3BWH&workerId=A3V2XCDF45VN9X&assignmentId=3ZDAD0O1T2ZKRQKDZTHZIHEQU0MTXO&a=1DDZ8&tp_a=1DDZ8&b=3ZDAD0O1T2ZKRQKDZTHZIHEQU0MTXO&tp_b=3ZDAD0O1T2ZKRQKDZTHZIHEQU0MTXO&c=365198&tp_c=365198"},{"rt":220054,"response":{"Q0":"Students in different classrooms will have seen a different number of heads and tails before seeing the examples you select for them.","Q1":"By teaching efficiently and accurately/helpfully at the same time (because each example I give to the student costs money!).","Q2":"The coin lands heads 90% of the time.","Q3":"Yes, I might encounter the same student twice.","Q4":"The students are also on the same alien planet as you, where coins can be unfair.","Q5":"Based on the student's second (and final) guess."},"question_order":[0,1,3,2,4,5],"trial_type":"survey-multi-choice","trial_index":6,"time_elapsed":533842,"internal_node_id":"0.0-2.1-1.1","params":{"nStudents":24,"maxFlips":30,"completionMinutes":45,"basePay":8,"maxBonus":9,"perTrialBonus":0.5,"perTrialBonusThreshold":0.1,"exampleCost":0.01},"classroomParams":{"A":{"a":1,"b":4},"B":{"a":4,"b":1},"C":{"a":2,"b":8},"D":{"a":8,"b":2}},"conditions":["nonSeqFull","nonSeqPartial","seqNoFeedback","seqFeedback"],"classroomPairings":[["A","B"],["C","D"]],"coinWeights":[0.2,0.5,0.8],"subjectId":"A3V2XCDF45VN9X","assignmentId":"3ZDAD0O1T2ZKRQKDZTHZIHEQU0MTXO","hitId":"3QGHA0EA0JM3KKNCY0PQRLYAHJ3BWH","url":"https://gershmanlab.com/experiments/alicia/teaching/experiment/?hitId=3QGHA0EA0JM3KKNCY0PQRLYAHJ3BWH&workerId=A3V2XCDF45VN9X&assignmentId=3ZDAD0O1T2ZKRQKDZTHZIHEQU0MTXO&a=1DDZ8&tp_a=1DDZ8&b=3ZDAD0O1T2ZKRQKDZTHZIHEQU0MTXO&tp_b=3ZDAD0O1T2ZKRQKDZTHZIHEQU0MTXO&c=365198&tp_c=365198","pass":false},{"rt":3181,"stimulus":"Oops, you have missed question(s) on the comprehension check! We'll show you the instructions again.","response":0,"trial_type":"html-button-response","trial_index":7,"time_elapsed":537026,"internal_node_id":"0.0-2.1-2.1-0.1","params":{"nStudents":24,"maxFlips":30,"completionMinutes":45,"basePay":8,"maxBonus":9,"perTrialBonus":0.5,"perTrialBonusThreshold":0.1,"exampleCost":0.01},"classroomParams":{"A":{"a":1,"b":4},"B":{"a":4,"b":1},"C":{"a":2,"b":8},"D":{"a":8,"b":2}},"conditions":["nonSeqFull","nonSeqPartial","seqNoFeedback","seqFeedback"],"classroomPairings":[["A","B"],["C","D"]],"coinWeights":[0.2,0.5,0.8],"subjectId":"A3V2XCDF45VN9X","assignmentId":"3ZDAD0O1T2ZKRQKDZTHZIHEQU0MTXO","hitId":"3QGHA0EA0JM3KKNCY0PQRLYAHJ3BWH","url":"https://gershmanlab.com/experiments/alicia/teaching/experiment/?hitId=3QGHA0EA0JM3KKNCY0PQRLYAHJ3BWH&workerId=A3V2XCDF45VN9X&assignmentId=3ZDAD0O1T2ZKRQKDZTHZIHEQU0MTXO&a=1DDZ8&tp_a=1DDZ8&b=3ZDAD0O1T2ZKRQKDZTHZIHEQU0MTXO&tp_b=3ZDAD0O1T2ZKRQKDZTHZIHEQU0MTXO&c=365198&tp_c=365198"},{"view_history":[{"page_index":0,"viewing_time":800},{"page_index":1,"viewing_time":606},{"page_index":2,"viewing_time":866},{"page_index":3,"viewing_time":529},{"page_index":4,"viewing_time":923},{"page_index":5,"viewing_time":1710},{"page_index":4,"viewing_time":2700},{"page_index":3,"viewing_time":969},{"page_index":2,"viewing_time":2169},{"page_index":1,"viewing_time":2959},{"page_index":2,"viewing_time":29431},{"page_index":3,"viewing_time":24177},{"page_index":4,"viewing_time":17888},{"page_index":5,"viewing_time":25482},{"page_index":6,"viewing_time":36327}],"rt":147536,"trial_type":"instructions","trial_index":8,"time_elapsed":684560,"internal_node_id":"0.0-2.2-0.2","params":{"nStudents":24,"maxFlips":30,"completionMinutes":45,"basePay":8,"maxBonus":9,"perTrialBonus":0.5,"perTrialBonusThreshold":0.1,"exampleCost":0.01},"classroomParams":{"A":{"a":1,"b":4},"B":{"a":4,"b":1},"C":{"a":2,"b":8},"D":{"a":8,"b":2}},"conditions":["nonSeqFull","nonSeqPartial","seqNoFeedback","seqFeedback"],"classroomPairings":[["A","B"],["C","D"]],"coinWeights":[0.2,0.5,0.8],"subjectId":"A3V2XCDF45VN9X","assignmentId":"3ZDAD0O1T2ZKRQKDZTHZIHEQU0MTXO","hitId":"3QGHA0EA0JM3KKNCY0PQRLYAHJ3BWH","url":"https://gershmanlab.com/experiments/alicia/teaching/experiment/?hitId=3QGHA0EA0JM3KKNCY0PQRLYAHJ3BWH&workerId=A3V2XCDF45VN9X&assignmentId=3ZDAD0O1T2ZKRQKDZTHZIHEQU0MTXO&a=1DDZ8&tp_a=1DDZ8&b=3ZDAD0O1T2ZKRQKDZTHZIHEQU0MTXO&tp_b=3ZDAD0O1T2ZKRQKDZTHZIHEQU0MTXO&c=365198&tp_c=365198"},{"rt":46710,"response":{"Q0":"Students in different classrooms will have seen a different number of heads and tails before seeing the examples you select for them.","Q1":"By giving as few examples as possible.","Q2":"The coin lands heads 90% of the time.","Q3":"Yes, I might encounter the same student twice.","Q4":"The students are also on the same alien planet as you, where coins can be unfair.","Q5":"Based on the student's second (and final) guess."},"question_order":[1,2,0,4,3,5],"trial_type":"survey-multi-choice","trial_index":9,"time_elapsed":731270,"internal_node_id":"0.0-2.2-1.2","params":{"nStudents":24,"maxFlips":30,"completionMinutes":45,"basePay":8,"maxBonus":9,"perTrialBonus":0.5,"perTrialBonusThreshold":0.1,"exampleCost":0.01},"classroomParams":{"A":{"a":1,"b":4},"B":{"a":4,"b":1},"C":{"a":2,"b":8},"D":{"a":8,"b":2}},"conditions":["nonSeqFull","nonSeqPartial","seqNoFeedback","seqFeedback"],"classroomPairings":[["A","B"],["C","D"]],"coinWeights":[0.2,0.5,0.8],"subjectId":"A3V2XCDF45VN9X","assignmentId":"3ZDAD0O1T2ZKRQKDZTHZIHEQU0MTXO","hitId":"3QGHA0EA0JM3KKNCY0PQRLYAHJ3BWH","url":"https://gershmanlab.com/experiments/alicia/teaching/experiment/?hitId=3QGHA0EA0JM3KKNCY0PQRLYAHJ3BWH&workerId=A3V2XCDF45VN9X&assignmentId=3ZDAD0O1T2ZKRQKDZTHZIHEQU0MTXO&a=1DDZ8&tp_a=1DDZ8&b=3ZDAD0O1T2ZKRQKDZTHZIHEQU0MTXO&tp_b=3ZDAD0O1T2ZKRQKDZTHZIHEQU0MTXO&c=365198&tp_c=365198","pass":false},{"rt":1797,"stimulus":"Oops, you have missed question(s) on the comprehension check! We'll show you the instructions again.","response":0,"trial_type":"html-button-response","trial_index":10,"time_elapsed":733070,"internal_node_id":"0.0-2.2-2.2-0.2","params":{"nStudents":24,"maxFlips":30,"completionMinutes":45,"basePay":8,"maxBonus":9,"perTrialBonus":0.5,"perTrialBonusThreshold":0.1,"exampleCost":0.01},"classroomParams":{"A":{"a":1,"b":4},"B":{"a":4,"b":1},"C":{"a":2,"b":8},"D":{"a":8,"b":2}},"conditions":["nonSeqFull","nonSeqPartial","seqNoFeedback","seqFeedback"],"classroomPairings":[["A","B"],["C","D"]],"coinWeights":[0.2,0.5,0.8],"subjectId":"A3V2XCDF45VN9X","assignmentId":"3ZDAD0O1T2ZKRQKDZTHZIHEQU0MTXO","hitId":"3QGHA0EA0JM3KKNCY0PQRLYAHJ3BWH","url":"https://gershmanlab.com/experiments/alicia/teaching/experiment/?hitId=3QGHA0EA0JM3KKNCY0PQRLYAHJ3BWH&workerId=A3V2XCDF45VN9X&assignmentId=3ZDAD0O1T2ZKRQKDZTHZIHEQU0MTXO&a=1DDZ8&tp_a=1DDZ8&b=3ZDAD0O1T2ZKRQKDZTHZIHEQU0MTXO&tp_b=3ZDAD0O1T2ZKRQKDZTHZIHEQU0MTXO&c=365198&tp_c=365198"},{"view_history":[{"page_index":0,"viewing_time":935},{"page_index":1,"viewing_time":167},{"page_index":2,"viewing_time":934},{"page_index":3,"viewing_time":461},{"page_index":4,"viewing_time":968},{"page_index":5,"viewing_time":664},{"page_index":6,"viewing_time":765}],"rt":4894,"trial_type":"instructions","trial_index":11,"time_elapsed":737964,"internal_node_id":"0.0-2.3-0.3","params":{"nStudents":24,"maxFlips":30,"completionMinutes":45,"basePay":8,"maxBonus":9,"perTrialBonus":0.5,"perTrialBonusThreshold":0.1,"exampleCost":0.01},"classroomParams":{"A":{"a":1,"b":4},"B":{"a":4,"b":1},"C":{"a":2,"b":8},"D":{"a":8,"b":2}},"conditions":["nonSeqFull","nonSeqPartial","seqNoFeedback","seqFeedback"],"classroomPairings":[["A","B"],["C","D"]],"coinWeights":[0.2,0.5,0.8],"subjectId":"A3V2XCDF45VN9X","assignmentId":"3ZDAD0O1T2ZKRQKDZTHZIHEQU0MTXO","hitId":"3QGHA0EA0JM3KKNCY0PQRLYAHJ3BWH","url":"https://gershmanlab.com/experiments/alicia/teaching/experiment/?hitId=3QGHA0EA0JM3KKNCY0PQRLYAHJ3BWH&workerId=A3V2XCDF45VN9X&assignmentId=3ZDAD0O1T2ZKRQKDZTHZIHEQU0MTXO&a=1DDZ8&tp_a=1DDZ8&b=3ZDAD0O1T2ZKRQKDZTHZIHEQU0MTXO&tp_b=3ZDAD0O1T2ZKRQKDZTHZIHEQU0MTXO&c=365198&tp_c=365198"},{"rt":38441,"response":{"Q0":"Students in different classrooms will have seen a different number of heads and tails before seeing the examples you select for them.","Q1":"By giving as few examples as possible.","Q2":"The coin lands heads 90% of the time.","Q3":"No, I will teach a <b>new</b> student each time.","Q4":"The students are also on the same alien planet as you, where coins can be unfair.","Q5":"Based on the student's second (and final) guess."},"question_order":[2,0,1,4,5,3],"trial_type":"survey-multi-choice","trial_index":12,"time_elapsed":776406,"internal_node_id":"0.0-2.3-1.3","params":{"nStudents":24,"maxFlips":30,"completionMinutes":45,"basePay":8,"maxBonus":9,"perTrialBonus":0.5,"perTrialBonusThreshold":0.1,"exampleCost":0.01},"classroomParams":{"A":{"a":1,"b":4},"B":{"a":4,"b":1},"C":{"a":2,"b":8},"D":{"a":8,"b":2}},"conditions":["nonSeqFull","nonSeqPartial","seqNoFeedback","seqFeedback"],"classroomPairings":[["A","B"],["C","D"]],"coinWeights":[0.2,0.5,0.8],"subjectId":"A3V2XCDF45VN9X","assignmentId":"3ZDAD0O1T2ZKRQKDZTHZIHEQU0MTXO","hitId":"3QGHA0EA0JM3KKNCY0PQRLYAHJ3BWH","url":"https://gershmanlab.com/experiments/alicia/teaching/experiment/?hitId=3QGHA0EA0JM3KKNCY0PQRLYAHJ3BWH&workerId=A3V2XCDF45VN9X&assignmentId=3ZDAD0O1T2ZKRQKDZTHZIHEQU0MTXO&a=1DDZ8&tp_a=1DDZ8&b=3ZDAD0O1T2ZKRQKDZTHZIHEQU0MTXO&tp_b=3ZDAD0O1T2ZKRQKDZTHZIHEQU0MTXO&c=365198&tp_c=365198","pass":false},{"rt":2888,"stimulus":"Oops, you have missed question(s) on the comprehension check! We'll show you the instructions again.","response":0,"trial_type":"html-button-response","trial_index":13,"time_elapsed":779297,"internal_node_id":"0.0-2.3-2.3-0.3","params":{"nStudents":24,"maxFlips":30,"completionMinutes":45,"basePay":8,"maxBonus":9,"perTrialBonus":0.5,"perTrialBonusThreshold":0.1,"exampleCost":0.01},"classroomParams":{"A":{"a":1,"b":4},"B":{"a":4,"b":1},"C":{"a":2,"b":8},"D":{"a":8,"b":2}},"conditions":["nonSeqFull","nonSeqPartial","seqNoFeedback","seqFeedback"],"classroomPairings":[["A","B"],["C","D"]],"coinWeights":[0.2,0.5,0.8],"subjectId":"A3V2XCDF45VN9X","assignmentId":"3ZDAD0O1T2ZKRQKDZTHZIHEQU0MTXO","hitId":"3QGHA0EA0JM3KKNCY0PQRLYAHJ3BWH","url":"https://gershmanlab.com/experiments/alicia/teaching/experiment/?hitId=3QGHA0EA0JM3KKNCY0PQRLYAHJ3BWH&workerId=A3V2XCDF45VN9X&assignmentId=3ZDAD0O1T2ZKRQKDZTHZIHEQU0MTXO&a=1DDZ8&tp_a=1DDZ8&b=3ZDAD0O1T2ZKRQKDZTHZIHEQU0MTXO&tp_b=3ZDAD0O1T2ZKRQKDZTHZIHEQU0MTXO&c=365198&tp_c=365198"},{"view_history":[{"page_index":0,"viewing_time":1069},{"page_index":1,"viewing_time":551},{"page_index":2,"viewing_time":1046},{"page_index":3,"viewing_time":518},{"page_index":4,"viewing_time":1215},{"page_index":5,"viewing_time":720},{"page_index":6,"viewing_time":1091}],"rt":6210,"trial_type":"instructions","trial_index":14,"time_elapsed":785507,"internal_node_id":"0.0-2.4-0.4","params":{"nStudents":24,"maxFlips":30,"completionMinutes":45,"basePay":8,"maxBonus":9,"perTrialBonus":0.5,"perTrialBonusThreshold":0.1,"exampleCost":0.01},"classroomParams":{"A":{"a":1,"b":4},"B":{"a":4,"b":1},"C":{"a":2,"b":8},"D":{"a":8,"b":2}},"conditions":["nonSeqFull","nonSeqPartial","seqNoFeedback","seqFeedback"],"classroomPairings":[["A","B"],["C","D"]],"coinWeights":[0.2,0.5,0.8],"subjectId":"A3V2XCDF45VN9X","assignmentId":"3ZDAD0O1T2ZKRQKDZTHZIHEQU0MTXO","hitId":"3QGHA0EA0JM3KKNCY0PQRLYAHJ3BWH","url":"https://gershmanlab.com/experiments/alicia/teaching/experiment/?hitId=3QGHA0EA0JM3KKNCY0PQRLYAHJ3BWH&workerId=A3V2XCDF45VN9X&assignmentId=3ZDAD0O1T2ZKRQKDZTHZIHEQU0MTXO&a=1DDZ8&tp_a=1DDZ8&b=3ZDAD0O1T2ZKRQKDZTHZIHEQU0MTXO&tp_b=3ZDAD0O1T2ZKRQKDZTHZIHEQU0MTXO&c=365198&tp_c=365198"},{"rt":192131,"response":{"Q0":"Students in different classrooms will have seen a different number of heads and tails before seeing the examples you select for them.","Q1":"By teaching efficiently and accurately/helpfully at the same time (because each example I give to the student costs money!).","Q2":"The coin lands heads 90% of the time.","Q3":"No, I will teach a <b>new</b> student each time.","Q4":"The students are also on the same alien planet as you, where coins can be unfair.","Q5":"Based on the student's second (and final) guess."},"question_order":[2,0,1,4,5,3],"trial_type":"survey-multi-choice","trial_index":15,"time_elapsed":977636,"internal_node_id":"0.0-2.4-1.4","params":{"nStudents":24,"maxFlips":30,"completionMinutes":45,"basePay":8,"maxBonus":9,"perTrialBonus":0.5,"perTrialBonusThreshold":0.1,"exampleCost":0.01},"classroomParams":{"A":{"a":1,"b":4},"B":{"a":4,"b":1},"C":{"a":2,"b":8},"D":{"a":8,"b":2}},"conditions":["nonSeqFull","nonSeqPartial","seqNoFeedback","seqFeedback"],"classroomPairings":[["A","B"],["C","D"]],"coinWeights":[0.2,0.5,0.8],"subjectId":"A3V2XCDF45VN9X","assignmentId":"3ZDAD0O1T2ZKRQKDZTHZIHEQU0MTXO","hitId":"3QGHA0EA0JM3KKNCY0PQRLYAHJ3BWH","url":"https://gershmanlab.com/experiments/alicia/teaching/experiment/?hitId=3QGHA0EA0JM3KKNCY0PQRLYAHJ3BWH&workerId=A3V2XCDF45VN9X&assignmentId=3ZDAD0O1T2ZKRQKDZTHZIHEQU0MTXO&a=1DDZ8&tp_a=1DDZ8&b=3ZDAD0O1T2ZKRQKDZTHZIHEQU0MTXO&tp_b=3ZDAD0O1T2ZKRQKDZTHZIHEQU0MTXO&c=365198&tp_c=365198","pass":true},{"rt":null,"stimulus":"<div style=\"font-size:30px;\">Congrats on passing the comprehension quiz! The experiment will begin in a few seconds.</div>","response":null,"trial_type":"html-keyboard-response","trial_index":16,"time_elapsed":980640,"internal_node_id":"0.0-3.0","params":{"nStudents":24,"maxFlips":30,"completionMinutes":45,"basePay":8,"maxBonus":9,"perTrialBonus":0.5,"perTrialBonusThreshold":0.1,"exampleCost":0.01},"classroomParams":{"A":{"a":1,"b":4},"B":{"a":4,"b":1},"C":{"a":2,"b":8},"D":{"a":8,"b":2}},"conditions":["nonSeqFull","nonSeqPartial","seqNoFeedback","seqFeedback"],"classroomPairings":[["A","B"],["C","D"]],"coinWeights":[0.2,0.5,0.8],"subjectId":"A3V2XCDF45VN9X","assignmentId":"3ZDAD0O1T2ZKRQKDZTHZIHEQU0MTXO","hitId":"3QGHA0EA0JM3KKNCY0PQRLYAHJ3BWH","url":"https://gershmanlab.com/experiments/alicia/teaching/experiment/?hitId=3QGHA0EA0JM3KKNCY0PQRLYAHJ3BWH&workerId=A3V2XCDF45VN9X&assignmentId=3ZDAD0O1T2ZKRQKDZTHZIHEQU0MTXO&a=1DDZ8&tp_a=1DDZ8&b=3ZDAD0O1T2ZKRQKDZTHZIHEQU0MTXO&tp_b=3ZDAD0O1T2ZKRQKDZTHZIHEQU0MTXO&c=365198&tp_c=365198"},{"rt":null,"stimulus":"<div style=\"font-size:50px;\">First student</div>","response":null,"trial_type":"html-keyboard-response","trial_index":17,"time_elapsed":983643,"internal_node_id":"0.0-4.0","params":{"nStudents":24,"maxFlips":30,"completionMinutes":45,"basePay":8,"maxBonus":9,"perTrialBonus":0.5,"perTrialBonusThreshold":0.1,"exampleCost":0.01},"classroomParams":{"A":{"a":1,"b":4},"B":{"a":4,"b":1},"C":{"a":2,"b":8},"D":{"a":8,"b":2}},"conditions":["nonSeqFull","nonSeqPartial","seqNoFeedback","seqFeedback"],"classroomPairings":[["A","B"],["C","D"]],"coinWeights":[0.2,0.5,0.8],"subjectId":"A3V2XCDF45VN9X","assignmentId":"3ZDAD0O1T2ZKRQKDZTHZIHEQU0MTXO","hitId":"3QGHA0EA0JM3KKNCY0PQRLYAHJ3BWH","url":"https://gershmanlab.com/experiments/alicia/teaching/experiment/?hitId=3QGHA0EA0JM3KKNCY0PQRLYAHJ3BWH&workerId=A3V2XCDF45VN9X&assignmentId=3ZDAD0O1T2ZKRQKDZTHZIHEQU0MTXO&a=1DDZ8&tp_a=1DDZ8&b=3ZDAD0O1T2ZKRQKDZTHZIHEQU0MTXO&tp_b=3ZDAD0O1T2ZKRQKDZTHZIHEQU0MTXO&c=365198&tp_c=365198"},{"rt":9123,"stimulus":"\n            <h4 style=\"color:Orange;\">Student 1</h4>\n            <h2>The weight of your coin is <b style=\"color:Tomato;\">0.2</b>.</h2>\n            <p>In this block, you will be giving <b>one</b> set of examples to Student 1.</p>\n                <p>You will receive feedback at the end of the block.</p>\n            ","response":0,"trial_type":"html-button-response","trial_index":18,"time_elapsed":992767,"internal_node_id":"0.0-5.0","params":{"nStudents":24,"maxFlips":30,"completionMinutes":45,"basePay":8,"maxBonus":9,"perTrialBonus":0.5,"perTrialBonusThreshold":0.1,"exampleCost":0.01},"classroomParams":{"A":{"a":1,"b":4},"B":{"a":4,"b":1},"C":{"a":2,"b":8},"D":{"a":8,"b":2}},"conditions":["nonSeqFull","nonSeqPartial","seqNoFeedback","seqFeedback"],"classroomPairings":[["A","B"],["C","D"]],"coinWeights":[0.2,0.5,0.8],"subjectId":"A3V2XCDF45VN9X","assignmentId":"3ZDAD0O1T2ZKRQKDZTHZIHEQU0MTXO","hitId":"3QGHA0EA0JM3KKNCY0PQRLYAHJ3BWH","url":"https://gershmanlab.com/experiments/alicia/teaching/experiment/?hitId=3QGHA0EA0JM3KKNCY0PQRLYAHJ3BWH&workerId=A3V2XCDF45VN9X&assignmentId=3ZDAD0O1T2ZKRQKDZTHZIHEQU0MTXO&a=1DDZ8&tp_a=1DDZ8&b=3ZDAD0O1T2ZKRQKDZTHZIHEQU0MTXO&tp_b=3ZDAD0O1T2ZKRQKDZTHZIHEQU0MTXO&c=365198&tp_c=365198"},{"rt":72855,"response":{"heads":"1","tails":"4"},"type":"response","condition":"nonSeqPartial","trueTheta":0.2,"classrooms":["A","B"],"studentTrueClassroom":"B","exampleSet":"first","trial_type":"survey-html-form","trial_index":19,"time_elapsed":1065623,"internal_node_id":"0.0-6.0-0.0","params":{"nStudents":24,"maxFlips":30,"completionMinutes":45,"basePay":8,"maxBonus":9,"perTrialBonus":0.5,"perTrialBonusThreshold":0.1,"exampleCost":0.01},"classroomParams":{"A":{"a":1,"b":4},"B":{"a":4,"b":1},"C":{"a":2,"b":8},"D":{"a":8,"b":2}},"conditions":["nonSeqFull","nonSeqPartial","seqNoFeedback","seqFeedback"],"classroomPairings":[["A","B"],["C","D"]],"coinWeights":[0.2,0.5,0.8],"subjectId":"A3V2XCDF45VN9X","assignmentId":"3ZDAD0O1T2ZKRQKDZTHZIHEQU0MTXO","hitId":"3QGHA0EA0JM3KKNCY0PQRLYAHJ3BWH","url":"https://gershmanlab.com/experiments/alicia/teaching/experiment/?hitId=3QGHA0EA0JM3KKNCY0PQRLYAHJ3BWH&workerId=A3V2XCDF45VN9X&assignmentId=3ZDAD0O1T2ZKRQKDZTHZIHEQU0MTXO&a=1DDZ8&tp_a=1DDZ8&b=3ZDAD0O1T2ZKRQKDZTHZIHEQU0MTXO&tp_b=3ZDAD0O1T2ZKRQKDZTHZIHEQU0MTXO&c=365198&tp_c=365198","heads":1,"tails":4,"studentIndex":0,"studentTrueHypers":{"a":4,"b":1},"studentGuess":0.5,"delta":0.3,"totalExamples":5,"bonus":0,"bonusSoFar":0},{"rt":null,"stimulus":"Sending examples to student... ","response":null,"trial_type":"html-keyboard-response","trial_index":20,"time_elapsed":1067380,"internal_node_id":"0.0-7.0","params":{"nStudents":24,"maxFlips":30,"completionMinutes":45,"basePay":8,"maxBonus":9,"perTrialBonus":0.5,"perTrialBonusThreshold":0.1,"exampleCost":0.01},"classroomParams":{"A":{"a":1,"b":4},"B":{"a":4,"b":1},"C":{"a":2,"b":8},"D":{"a":8,"b":2}},"conditions":["nonSeqFull","nonSeqPartial","seqNoFeedback","seqFeedback"],"classroomPairings":[["A","B"],["C","D"]],"coinWeights":[0.2,0.5,0.8],"subjectId":"A3V2XCDF45VN9X","assignmentId":"3ZDAD0O1T2ZKRQKDZTHZIHEQU0MTXO","hitId":"3QGHA0EA0JM3KKNCY0PQRLYAHJ3BWH","url":"https://gershmanlab.com/experiments/alicia/teaching/experiment/?hitId=3QGHA0EA0JM3KKNCY0PQRLYAHJ3BWH&workerId=A3V2XCDF45VN9X&assignmentId=3ZDAD0O1T2ZKRQKDZTHZIHEQU0MTXO&a=1DDZ8&tp_a=1DDZ8&b=3ZDAD0O1T2ZKRQKDZTHZIHEQU0MTXO&tp_b=3ZDAD0O1T2ZKRQKDZTHZIHEQU0MTXO&c=365198&tp_c=365198"},{"rt":null,"stimulus":"Examples sent to student! Waiting for student...","response":null,"trial_type":"html-keyboard-response","trial_index":21,"time_elapsed":1072881,"internal_node_id":"0.0-8.0","params":{"nStudents":24,"maxFlips":30,"completionMinutes":45,"basePay":8,"maxBonus":9,"perTrialBonus":0.5,"perTrialBonusThreshold":0.1,"exampleCost":0.01},"classroomParams":{"A":{"a":1,"b":4},"B":{"a":4,"b":1},"C":{"a":2,"b":8},"D":{"a":8,"b":2}},"conditions":["nonSeqFull","nonSeqPartial","seqNoFeedback","seqFeedback"],"classroomPairings":[["A","B"],["C","D"]],"coinWeights":[0.2,0.5,0.8],"subjectId":"A3V2XCDF45VN9X","assignmentId":"3ZDAD0O1T2ZKRQKDZTHZIHEQU0MTXO","hitId":"3QGHA0EA0JM3KKNCY0PQRLYAHJ3BWH","url":"https://gershmanlab.com/experiments/alicia/teaching/experiment/?hitId=3QGHA0EA0JM3KKNCY0PQRLYAHJ3BWH&workerId=A3V2XCDF45VN9X&assignmentId=3ZDAD0O1T2ZKRQKDZTHZIHEQU0MTXO&a=1DDZ8&tp_a=1DDZ8&b=3ZDAD0O1T2ZKRQKDZTHZIHEQU0MTXO&tp_b=3ZDAD0O1T2ZKRQKDZTHZIHEQU0MTXO&c=365198&tp_c=365198"},{"rt":6887,"stimulus":"\n                <p>Student's guess for coin weight: <b style=\"color:Tomato;\">0.50</b></p>\n                <p>You received a bonus of <b>$0</b>. Total bonus so far: <b>$0.00</b></b></p>\n                <p> Press any key to continue.</p>\n                ","response":"enter","trial_type":"html-keyboard-response","trial_index":22,"time_elapsed":1079768,"internal_node_id":"0.0-9.0","params":{"nStudents":24,"maxFlips":30,"completionMinutes":45,"basePay":8,"maxBonus":9,"perTrialBonus":0.5,"perTrialBonusThreshold":0.1,"exampleCost":0.01},"classroomParams":{"A":{"a":1,"b":4},"B":{"a":4,"b":1},"C":{"a":2,"b":8},"D":{"a":8,"b":2}},"conditions":["nonSeqFull","nonSeqPartial","seqNoFeedback","seqFeedback"],"classroomPairings":[["A","B"],["C","D"]],"coinWeights":[0.2,0.5,0.8],"subjectId":"A3V2XCDF45VN9X","assignmentId":"3ZDAD0O1T2ZKRQKDZTHZIHEQU0MTXO","hitId":"3QGHA0EA0JM3KKNCY0PQRLYAHJ3BWH","url":"https://gershmanlab.com/experiments/alicia/teaching/experiment/?hitId=3QGHA0EA0JM3KKNCY0PQRLYAHJ3BWH&workerId=A3V2XCDF45VN9X&assignmentId=3ZDAD0O1T2ZKRQKDZTHZIHEQU0MTXO&a=1DDZ8&tp_a=1DDZ8&b=3ZDAD0O1T2ZKRQKDZTHZIHEQU0MTXO&tp_b=3ZDAD0O1T2ZKRQKDZTHZIHEQU0MTXO&c=365198&tp_c=365198"},{"rt":null,"stimulus":"<div style=\"font-size:60px;\">Next student</div>","response":null,"trial_type":"html-keyboard-response","trial_index":23,"time_elapsed":1082019,"internal_node_id":"0.0-10.0-0.0","params":{"nStudents":24,"maxFlips":30,"completionMinutes":45,"basePay":8,"maxBonus":9,"perTrialBonus":0.5,"perTrialBonusThreshold":0.1,"exampleCost":0.01},"classroomParams":{"A":{"a":1,"b":4},"B":{"a":4,"b":1},"C":{"a":2,"b":8},"D":{"a":8,"b":2}},"conditions":["nonSeqFull","nonSeqPartial","seqNoFeedback","seqFeedback"],"classroomPairings":[["A","B"],["C","D"]],"coinWeights":[0.2,0.5,0.8],"subjectId":"A3V2XCDF45VN9X","assignmentId":"3ZDAD0O1T2ZKRQKDZTHZIHEQU0MTXO","hitId":"3QGHA0EA0JM3KKNCY0PQRLYAHJ3BWH","url":"https://gershmanlab.com/experiments/alicia/teaching/experiment/?hitId=3QGHA0EA0JM3KKNCY0PQRLYAHJ3BWH&workerId=A3V2XCDF45VN9X&assignmentId=3ZDAD0O1T2ZKRQKDZTHZIHEQU0MTXO&a=1DDZ8&tp_a=1DDZ8&b=3ZDAD0O1T2ZKRQKDZTHZIHEQU0MTXO&tp_b=3ZDAD0O1T2ZKRQKDZTHZIHEQU0MTXO&c=365198&tp_c=365198"},{"rt":5383,"stimulus":"\n            <h4 style=\"color:Orange;\">Student 2</h4>\n            <h2>The weight of your coin is <b style=\"color:Tomato;\">0.2</b>.</h2>\n            <p>In this block, you will be giving <b>one</b> set of examples to Student 2.</p>\n                <p>You will receive feedback at the end of the block.</p>\n            ","response":0,"trial_type":"html-button-response","trial_index":24,"time_elapsed":1087403,"internal_node_id":"0.0-11.0","params":{"nStudents":24,"maxFlips":30,"completionMinutes":45,"basePay":8,"maxBonus":9,"perTrialBonus":0.5,"perTrialBonusThreshold":0.1,"exampleCost":0.01},"classroomParams":{"A":{"a":1,"b":4},"B":{"a":4,"b":1},"C":{"a":2,"b":8},"D":{"a":8,"b":2}},"conditions":["nonSeqFull","nonSeqPartial","seqNoFeedback","seqFeedback"],"classroomPairings":[["A","B"],["C","D"]],"coinWeights":[0.2,0.5,0.8],"subjectId":"A3V2XCDF45VN9X","assignmentId":"3ZDAD0O1T2ZKRQKDZTHZIHEQU0MTXO","hitId":"3QGHA0EA0JM3KKNCY0PQRLYAHJ3BWH","url":"https://gershmanlab.com/experiments/alicia/teaching/experiment/?hitId=3QGHA0EA0JM3KKNCY0PQRLYAHJ3BWH&workerId=A3V2XCDF45VN9X&assignmentId=3ZDAD0O1T2ZKRQKDZTHZIHEQU0MTXO&a=1DDZ8&tp_a=1DDZ8&b=3ZDAD0O1T2ZKRQKDZTHZIHEQU0MTXO&tp_b=3ZDAD0O1T2ZKRQKDZTHZIHEQU0MTXO&c=365198&tp_c=365198"},{"rt":31658,"response":{"heads":"2","tails":"8"},"type":"response","condition":"nonSeqPartial","trueTheta":0.2,"classrooms":["C","D"],"studentTrueClassroom":"D","exampleSet":"first","trial_type":"survey-html-form","trial_index":25,"time_elapsed":1119061,"internal_node_id":"0.0-12.0-0.0","params":{"nStudents":24,"maxFlips":30,"completionMinutes":45,"basePay":8,"maxBonus":9,"perTrialBonus":0.5,"perTrialBonusThreshold":0.1,"exampleCost":0.01},"classroomParams":{"A":{"a":1,"b":4},"B":{"a":4,"b":1},"C":{"a":2,"b":8},"D":{"a":8,"b":2}},"conditions":["nonSeqFull","nonSeqPartial","seqNoFeedback","seqFeedback"],"classroomPairings":[["A","B"],["C","D"]],"coinWeights":[0.2,0.5,0.8],"subjectId":"A3V2XCDF45VN9X","assignmentId":"3ZDAD0O1T2ZKRQKDZTHZIHEQU0MTXO","hitId":"3QGHA0EA0JM3KKNCY0PQRLYAHJ3BWH","url":"https://gershmanlab.com/experiments/alicia/teaching/experiment/?hitId=3QGHA0EA0JM3KKNCY0PQRLYAHJ3BWH&workerId=A3V2XCDF45VN9X&assignmentId=3ZDAD0O1T2ZKRQKDZTHZIHEQU0MTXO&a=1DDZ8&tp_a=1DDZ8&b=3ZDAD0O1T2ZKRQKDZTHZIHEQU0MTXO&tp_b=3ZDAD0O1T2ZKRQKDZTHZIHEQU0MTXO&c=365198&tp_c=365198","heads":2,"tails":8,"studentIndex":1,"studentTrueHypers":{"a":8,"b":2},"studentGuess":0.5,"delta":0.3,"totalExamples":10,"bonus":0,"bonusSoFar":0},{"rt":null,"stimulus":"Sending examples to student... ","response":null,"trial_type":"html-keyboard-response","trial_index":26,"time_elapsed":1120565,"internal_node_id":"0.0-13.0","params":{"nStudents":24,"maxFlips":30,"completionMinutes":45,"basePay":8,"maxBonus":9,"perTrialBonus":0.5,"perTrialBonusThreshold":0.1,"exampleCost":0.01},"classroomParams":{"A":{"a":1,"b":4},"B":{"a":4,"b":1},"C":{"a":2,"b":8},"D":{"a":8,"b":2}},"conditions":["nonSeqFull","nonSeqPartial","seqNoFeedback","seqFeedback"],"classroomPairings":[["A","B"],["C","D"]],"coinWeights":[0.2,0.5,0.8],"subjectId":"A3V2XCDF45VN9X","assignmentId":"3ZDAD0O1T2ZKRQKDZTHZIHEQU0MTXO","hitId":"3QGHA0EA0JM3KKNCY0PQRLYAHJ3BWH","url":"https://gershmanlab.com/experiments/alicia/teaching/experiment/?hitId=3QGHA0EA0JM3KKNCY0PQRLYAHJ3BWH&workerId=A3V2XCDF45VN9X&assignmentId=3ZDAD0O1T2ZKRQKDZTHZIHEQU0MTXO&a=1DDZ8&tp_a=1DDZ8&b=3ZDAD0O1T2ZKRQKDZTHZIHEQU0MTXO&tp_b=3ZDAD0O1T2ZKRQKDZTHZIHEQU0MTXO&c=365198&tp_c=365198"},{"rt":null,"stimulus":"Examples sent to student! Waiting for student...","response":null,"trial_type":"html-keyboard-response","trial_index":27,"time_elapsed":1125569,"internal_node_id":"0.0-14.0","params":{"nStudents":24,"maxFlips":30,"completionMinutes":45,"basePay":8,"maxBonus":9,"perTrialBonus":0.5,"perTrialBonusThreshold":0.1,"exampleCost":0.01},"classroomParams":{"A":{"a":1,"b":4},"B":{"a":4,"b":1},"C":{"a":2,"b":8},"D":{"a":8,"b":2}},"conditions":["nonSeqFull","nonSeqPartial","seqNoFeedback","seqFeedback"],"classroomPairings":[["A","B"],["C","D"]],"coinWeights":[0.2,0.5,0.8],"subjectId":"A3V2XCDF45VN9X","assignmentId":"3ZDAD0O1T2ZKRQKDZTHZIHEQU0MTXO","hitId":"3QGHA0EA0JM3KKNCY0PQRLYAHJ3BWH","url":"https://gershmanlab.com/experiments/alicia/teaching/experiment/?hitId=3QGHA0EA0JM3KKNCY0PQRLYAHJ3BWH&workerId=A3V2XCDF45VN9X&assignmentId=3ZDAD0O1T2ZKRQKDZTHZIHEQU0MTXO&a=1DDZ8&tp_a=1DDZ8&b=3ZDAD0O1T2ZKRQKDZTHZIHEQU0MTXO&tp_b=3ZDAD0O1T2ZKRQKDZTHZIHEQU0MTXO&c=365198&tp_c=365198"},{"rt":5337,"stimulus":"\n                <p>Student's guess for coin weight: <b style=\"color:Tomato;\">0.50</b></p>\n                <p>You received a bonus of <b>$0</b>. Total bonus so far: <b>$0.00</b></b></p>\n                <p> Press any key to continue.</p>\n                ","response":"enter","trial_type":"html-keyboard-response","trial_index":28,"time_elapsed":1130906,"internal_node_id":"0.0-15.0","params":{"nStudents":24,"maxFlips":30,"completionMinutes":45,"basePay":8,"maxBonus":9,"perTrialBonus":0.5,"perTrialBonusThreshold":0.1,"exampleCost":0.01},"classroomParams":{"A":{"a":1,"b":4},"B":{"a":4,"b":1},"C":{"a":2,"b":8},"D":{"a":8,"b":2}},"conditions":["nonSeqFull","nonSeqPartial","seqNoFeedback","seqFeedback"],"classroomPairings":[["A","B"],["C","D"]],"coinWeights":[0.2,0.5,0.8],"subjectId":"A3V2XCDF45VN9X","assignmentId":"3ZDAD0O1T2ZKRQKDZTHZIHEQU0MTXO","hitId":"3QGHA0EA0JM3KKNCY0PQRLYAHJ3BWH","url":"https://gershmanlab.com/experiments/alicia/teaching/experiment/?hitId=3QGHA0EA0JM3KKNCY0PQRLYAHJ3BWH&workerId=A3V2XCDF45VN9X&assignmentId=3ZDAD0O1T2ZKRQKDZTHZIHEQU0MTXO&a=1DDZ8&tp_a=1DDZ8&b=3ZDAD0O1T2ZKRQKDZTHZIHEQU0MTXO&tp_b=3ZDAD0O1T2ZKRQKDZTHZIHEQU0MTXO&c=365198&tp_c=365198"},{"rt":null,"stimulus":"<div style=\"font-size:60px;\">Next student</div>","response":null,"trial_type":"html-keyboard-response","trial_index":29,"time_elapsed":1133160,"internal_node_id":"0.0-16.0-0.0","params":{"nStudents":24,"maxFlips":30,"completionMinutes":45,"basePay":8,"maxBonus":9,"perTrialBonus":0.5,"perTrialBonusThreshold":0.1,"exampleCost":0.01},"classroomParams":{"A":{"a":1,"b":4},"B":{"a":4,"b":1},"C":{"a":2,"b":8},"D":{"a":8,"b":2}},"conditions":["nonSeqFull","nonSeqPartial","seqNoFeedback","seqFeedback"],"classroomPairings":[["A","B"],["C","D"]],"coinWeights":[0.2,0.5,0.8],"subjectId":"A3V2XCDF45VN9X","assignmentId":"3ZDAD0O1T2ZKRQKDZTHZIHEQU0MTXO","hitId":"3QGHA0EA0JM3KKNCY0PQRLYAHJ3BWH","url":"https://gershmanlab.com/experiments/alicia/teaching/experiment/?hitId=3QGHA0EA0JM3KKNCY0PQRLYAHJ3BWH&workerId=A3V2XCDF45VN9X&assignmentId=3ZDAD0O1T2ZKRQKDZTHZIHEQU0MTXO&a=1DDZ8&tp_a=1DDZ8&b=3ZDAD0O1T2ZKRQKDZTHZIHEQU0MTXO&tp_b=3ZDAD0O1T2ZKRQKDZTHZIHEQU0MTXO&c=365198&tp_c=365198"},{"rt":2865,"stimulus":"\n            <h4 style=\"color:Orange;\">Student 3</h4>\n            <h2>The weight of your coin is <b style=\"color:Tomato;\">0.8</b>.</h2>\n            <p>In this block, you will be giving <b>one</b> set of examples to Student 3.</p>\n                <p>You will receive feedback at the end of the block.</p>\n            ","response":0,"trial_type":"html-button-response","trial_index":30,"time_elapsed":1136026,"internal_node_id":"0.0-17.0","params":{"nStudents":24,"maxFlips":30,"completionMinutes":45,"basePay":8,"maxBonus":9,"perTrialBonus":0.5,"perTrialBonusThreshold":0.1,"exampleCost":0.01},"classroomParams":{"A":{"a":1,"b":4},"B":{"a":4,"b":1},"C":{"a":2,"b":8},"D":{"a":8,"b":2}},"conditions":["nonSeqFull","nonSeqPartial","seqNoFeedback","seqFeedback"],"classroomPairings":[["A","B"],["C","D"]],"coinWeights":[0.2,0.5,0.8],"subjectId":"A3V2XCDF45VN9X","assignmentId":"3ZDAD0O1T2ZKRQKDZTHZIHEQU0MTXO","hitId":"3QGHA0EA0JM3KKNCY0PQRLYAHJ3BWH","url":"https://gershmanlab.com/experiments/alicia/teaching/experiment/?hitId=3QGHA0EA0JM3KKNCY0PQRLYAHJ3BWH&workerId=A3V2XCDF45VN9X&assignmentId=3ZDAD0O1T2ZKRQKDZTHZIHEQU0MTXO&a=1DDZ8&tp_a=1DDZ8&b=3ZDAD0O1T2ZKRQKDZTHZIHEQU0MTXO&tp_b=3ZDAD0O1T2ZKRQKDZTHZIHEQU0MTXO&c=365198&tp_c=365198"},{"rt":10485,"response":{"heads":"8","tails":"2"},"type":"response","condition":"nonSeqFull","trueTheta":0.8,"classrooms":["C","D"],"studentTrueClassroom":"D","exampleSet":"first","trial_type":"survey-html-form","trial_index":31,"time_elapsed":1146511,"internal_node_id":"0.0-18.0-0.0","params":{"nStudents":24,"maxFlips":30,"completionMinutes":45,"basePay":8,"maxBonus":9,"perTrialBonus":0.5,"perTrialBonusThreshold":0.1,"exampleCost":0.01},"classroomParams":{"A":{"a":1,"b":4},"B":{"a":4,"b":1},"C":{"a":2,"b":8},"D":{"a":8,"b":2}},"conditions":["nonSeqFull","nonSeqPartial","seqNoFeedback","seqFeedback"],"classroomPairings":[["A","B"],["C","D"]],"coinWeights":[0.2,0.5,0.8],"subjectId":"A3V2XCDF45VN9X","assignmentId":"3ZDAD0O1T2ZKRQKDZTHZIHEQU0MTXO","hitId":"3QGHA0EA0JM3KKNCY0PQRLYAHJ3BWH","url":"https://gershmanlab.com/experiments/alicia/teaching/experiment/?hitId=3QGHA0EA0JM3KKNCY0PQRLYAHJ3BWH&workerId=A3V2XCDF45VN9X&assignmentId=3ZDAD0O1T2ZKRQKDZTHZIHEQU0MTXO&a=1DDZ8&tp_a=1DDZ8&b=3ZDAD0O1T2ZKRQKDZTHZIHEQU0MTXO&tp_b=3ZDAD0O1T2ZKRQKDZTHZIHEQU0MTXO&c=365198&tp_c=365198","heads":8,"tails":2,"studentIndex":2,"studentTrueHypers":{"a":8,"b":2},"studentGuess":0.8,"delta":0,"totalExamples":10,"bonus":0.4,"bonusSoFar":0.4},{"rt":null,"stimulus":"Sending examples to student... ","response":null,"trial_type":"html-keyboard-response","trial_index":32,"time_elapsed":1148016,"internal_node_id":"0.0-19.0","params":{"nStudents":24,"maxFlips":30,"completionMinutes":45,"basePay":8,"maxBonus":9,"perTrialBonus":0.5,"perTrialBonusThreshold":0.1,"exampleCost":0.01},"classroomParams":{"A":{"a":1,"b":4},"B":{"a":4,"b":1},"C":{"a":2,"b":8},"D":{"a":8,"b":2}},"conditions":["nonSeqFull","nonSeqPartial","seqNoFeedback","seqFeedback"],"classroomPairings":[["A","B"],["C","D"]],"coinWeights":[0.2,0.5,0.8],"subjectId":"A3V2XCDF45VN9X","assignmentId":"3ZDAD0O1T2ZKRQKDZTHZIHEQU0MTXO","hitId":"3QGHA0EA0JM3KKNCY0PQRLYAHJ3BWH","url":"https://gershmanlab.com/experiments/alicia/teaching/experiment/?hitId=3QGHA0EA0JM3KKNCY0PQRLYAHJ3BWH&workerId=A3V2XCDF45VN9X&assignmentId=3ZDAD0O1T2ZKRQKDZTHZIHEQU0MTXO&a=1DDZ8&tp_a=1DDZ8&b=3ZDAD0O1T2ZKRQKDZTHZIHEQU0MTXO&tp_b=3ZDAD0O1T2ZKRQKDZTHZIHEQU0MTXO&c=365198&tp_c=365198"},{"rt":null,"stimulus":"Examples sent to student! Waiting for student...","response":null,"trial_type":"html-keyboard-response","trial_index":33,"time_elapsed":1154017,"internal_node_id":"0.0-20.0","params":{"nStudents":24,"maxFlips":30,"completionMinutes":45,"basePay":8,"maxBonus":9,"perTrialBonus":0.5,"perTrialBonusThreshold":0.1,"exampleCost":0.01},"classroomParams":{"A":{"a":1,"b":4},"B":{"a":4,"b":1},"C":{"a":2,"b":8},"D":{"a":8,"b":2}},"conditions":["nonSeqFull","nonSeqPartial","seqNoFeedback","seqFeedback"],"classroomPairings":[["A","B"],["C","D"]],"coinWeights":[0.2,0.5,0.8],"subjectId":"A3V2XCDF45VN9X","assignmentId":"3ZDAD0O1T2ZKRQKDZTHZIHEQU0MTXO","hitId":"3QGHA0EA0JM3KKNCY0PQRLYAHJ3BWH","url":"https://gershmanlab.com/experiments/alicia/teaching/experiment/?hitId=3QGHA0EA0JM3KKNCY0PQRLYAHJ3BWH&workerId=A3V2XCDF45VN9X&assignmentId=3ZDAD0O1T2ZKRQKDZTHZIHEQU0MTXO&a=1DDZ8&tp_a=1DDZ8&b=3ZDAD0O1T2ZKRQKDZTHZIHEQU0MTXO&tp_b=3ZDAD0O1T2ZKRQKDZTHZIHEQU0MTXO&c=365198&tp_c=365198"},{"rt":2478,"stimulus":"\n                <p>Student's guess for coin weight: <b style=\"color:Tomato;\">0.80</b></p>\n                <p>You received a bonus of <b>$0.4</b>. Total bonus so far: <b>$0.40</b></b></p>\n                <p> Press any key to continue.</p>\n                ","response":"enter","trial_type":"html-keyboard-response","trial_index":34,"time_elapsed":1156495,"internal_node_id":"0.0-21.0","params":{"nStudents":24,"maxFlips":30,"completionMinutes":45,"basePay":8,"maxBonus":9,"perTrialBonus":0.5,"perTrialBonusThreshold":0.1,"exampleCost":0.01},"classroomParams":{"A":{"a":1,"b":4},"B":{"a":4,"b":1},"C":{"a":2,"b":8},"D":{"a":8,"b":2}},"conditions":["nonSeqFull","nonSeqPartial","seqNoFeedback","seqFeedback"],"classroomPairings":[["A","B"],["C","D"]],"coinWeights":[0.2,0.5,0.8],"subjectId":"A3V2XCDF45VN9X","assignmentId":"3ZDAD0O1T2ZKRQKDZTHZIHEQU0MTXO","hitId":"3QGHA0EA0JM3KKNCY0PQRLYAHJ3BWH","url":"https://gershmanlab.com/experiments/alicia/teaching/experiment/?hitId=3QGHA0EA0JM3KKNCY0PQRLYAHJ3BWH&workerId=A3V2XCDF45VN9X&assignmentId=3ZDAD0O1T2ZKRQKDZTHZIHEQU0MTXO&a=1DDZ8&tp_a=1DDZ8&b=3ZDAD0O1T2ZKRQKDZTHZIHEQU0MTXO&tp_b=3ZDAD0O1T2ZKRQKDZTHZIHEQU0MTXO&c=365198&tp_c=365198"},{"rt":null,"stimulus":"<div style=\"font-size:60px;\">Next student</div>","response":null,"trial_type":"html-keyboard-response","trial_index":35,"time_elapsed":1158999,"internal_node_id":"0.0-22.0-0.0","params":{"nStudents":24,"maxFlips":30,"completionMinutes":45,"basePay":8,"maxBonus":9,"perTrialBonus":0.5,"perTrialBonusThreshold":0.1,"exampleCost":0.01},"classroomParams":{"A":{"a":1,"b":4},"B":{"a":4,"b":1},"C":{"a":2,"b":8},"D":{"a":8,"b":2}},"conditions":["nonSeqFull","nonSeqPartial","seqNoFeedback","seqFeedback"],"classroomPairings":[["A","B"],["C","D"]],"coinWeights":[0.2,0.5,0.8],"subjectId":"A3V2XCDF45VN9X","assignmentId":"3ZDAD0O1T2ZKRQKDZTHZIHEQU0MTXO","hitId":"3QGHA0EA0JM3KKNCY0PQRLYAHJ3BWH","url":"https://gershmanlab.com/experiments/alicia/teaching/experiment/?hitId=3QGHA0EA0JM3KKNCY0PQRLYAHJ3BWH&workerId=A3V2XCDF45VN9X&assignmentId=3ZDAD0O1T2ZKRQKDZTHZIHEQU0MTXO&a=1DDZ8&tp_a=1DDZ8&b=3ZDAD0O1T2ZKRQKDZTHZIHEQU0MTXO&tp_b=3ZDAD0O1T2ZKRQKDZTHZIHEQU0MTXO&c=365198&tp_c=365198"},{"rt":6367,"stimulus":"\n            <h4 style=\"color:Orange;\">Student 4</h4>\n            <h2>The weight of your coin is <b style=\"color:Tomato;\">0.5</b>.</h2>\n            <p>In this block, you will be giving <b>two</b> sets of examples to Student 4.</p>\n                <p>You will receive feedback at the end of the block.</p>\n            ","response":0,"trial_type":"html-button-response","trial_index":36,"time_elapsed":1165366,"internal_node_id":"0.0-23.0","params":{"nStudents":24,"maxFlips":30,"completionMinutes":45,"basePay":8,"maxBonus":9,"perTrialBonus":0.5,"perTrialBonusThreshold":0.1,"exampleCost":0.01},"classroomParams":{"A":{"a":1,"b":4},"B":{"a":4,"b":1},"C":{"a":2,"b":8},"D":{"a":8,"b":2}},"conditions":["nonSeqFull","nonSeqPartial","seqNoFeedback","seqFeedback"],"classroomPairings":[["A","B"],["C","D"]],"coinWeights":[0.2,0.5,0.8],"subjectId":"A3V2XCDF45VN9X","assignmentId":"3ZDAD0O1T2ZKRQKDZTHZIHEQU0MTXO","hitId":"3QGHA0EA0JM3KKNCY0PQRLYAHJ3BWH","url":"https://gershmanlab.com/experiments/alicia/teaching/experiment/?hitId=3QGHA0EA0JM3KKNCY0PQRLYAHJ3BWH&workerId=A3V2XCDF45VN9X&assignmentId=3ZDAD0O1T2ZKRQKDZTHZIHEQU0MTXO&a=1DDZ8&tp_a=1DDZ8&b=3ZDAD0O1T2ZKRQKDZTHZIHEQU0MTXO&tp_b=3ZDAD0O1T2ZKRQKDZTHZIHEQU0MTXO&c=365198&tp_c=365198"},{"rt":12498,"response":{"heads":"5","tails":"5"},"type":"response","condition":"seqNoFeedback","trueTheta":0.5,"classrooms":["A","B"],"studentTrueClassroom":"B","exampleSet":"first","trial_type":"survey-html-form","trial_index":37,"time_elapsed":1177865,"internal_node_id":"0.0-24.0-0.0","params":{"nStudents":24,"maxFlips":30,"completionMinutes":45,"basePay":8,"maxBonus":9,"perTrialBonus":0.5,"perTrialBonusThreshold":0.1,"exampleCost":0.01},"classroomParams":{"A":{"a":1,"b":4},"B":{"a":4,"b":1},"C":{"a":2,"b":8},"D":{"a":8,"b":2}},"conditions":["nonSeqFull","nonSeqPartial","seqNoFeedback","seqFeedback"],"classroomPairings":[["A","B"],["C","D"]],"coinWeights":[0.2,0.5,0.8],"subjectId":"A3V2XCDF45VN9X","assignmentId":"3ZDAD0O1T2ZKRQKDZTHZIHEQU0MTXO","hitId":"3QGHA0EA0JM3KKNCY0PQRLYAHJ3BWH","url":"https://gershmanlab.com/experiments/alicia/teaching/experiment/?hitId=3QGHA0EA0JM3KKNCY0PQRLYAHJ3BWH&workerId=A3V2XCDF45VN9X&assignmentId=3ZDAD0O1T2ZKRQKDZTHZIHEQU0MTXO&a=1DDZ8&tp_a=1DDZ8&b=3ZDAD0O1T2ZKRQKDZTHZIHEQU0MTXO&tp_b=3ZDAD0O1T2ZKRQKDZTHZIHEQU0MTXO&c=365198&tp_c=365198","heads":5,"tails":5,"studentIndex":3,"studentTrueHypers":{"a":4,"b":1},"studentGuess":0.6,"delta":0.09999999999999998,"totalExamples":10,"bonusSoFar":0.4},{"rt":null,"stimulus":"Sending examples to student... ","response":null,"trial_type":"html-keyboard-response","trial_index":38,"time_elapsed":1179869,"internal_node_id":"0.0-25.0","params":{"nStudents":24,"maxFlips":30,"completionMinutes":45,"basePay":8,"maxBonus":9,"perTrialBonus":0.5,"perTrialBonusThreshold":0.1,"exampleCost":0.01},"classroomParams":{"A":{"a":1,"b":4},"B":{"a":4,"b":1},"C":{"a":2,"b":8},"D":{"a":8,"b":2}},"conditions":["nonSeqFull","nonSeqPartial","seqNoFeedback","seqFeedback"],"classroomPairings":[["A","B"],["C","D"]],"coinWeights":[0.2,0.5,0.8],"subjectId":"A3V2XCDF45VN9X","assignmentId":"3ZDAD0O1T2ZKRQKDZTHZIHEQU0MTXO","hitId":"3QGHA0EA0JM3KKNCY0PQRLYAHJ3BWH","url":"https://gershmanlab.com/experiments/alicia/teaching/experiment/?hitId=3QGHA0EA0JM3KKNCY0PQRLYAHJ3BWH&workerId=A3V2XCDF45VN9X&assignmentId=3ZDAD0O1T2ZKRQKDZTHZIHEQU0MTXO&a=1DDZ8&tp_a=1DDZ8&b=3ZDAD0O1T2ZKRQKDZTHZIHEQU0MTXO&tp_b=3ZDAD0O1T2ZKRQKDZTHZIHEQU0MTXO&c=365198&tp_c=365198"},{"rt":null,"stimulus":"Examples sent to student! Waiting for student...","response":null,"trial_type":"html-keyboard-response","trial_index":39,"time_elapsed":1183873,"internal_node_id":"0.0-26.0","params":{"nStudents":24,"maxFlips":30,"completionMinutes":45,"basePay":8,"maxBonus":9,"perTrialBonus":0.5,"perTrialBonusThreshold":0.1,"exampleCost":0.01},"classroomParams":{"A":{"a":1,"b":4},"B":{"a":4,"b":1},"C":{"a":2,"b":8},"D":{"a":8,"b":2}},"conditions":["nonSeqFull","nonSeqPartial","seqNoFeedback","seqFeedback"],"classroomPairings":[["A","B"],["C","D"]],"coinWeights":[0.2,0.5,0.8],"subjectId":"A3V2XCDF45VN9X","assignmentId":"3ZDAD0O1T2ZKRQKDZTHZIHEQU0MTXO","hitId":"3QGHA0EA0JM3KKNCY0PQRLYAHJ3BWH","url":"https://gershmanlab.com/experiments/alicia/teaching/experiment/?hitId=3QGHA0EA0JM3KKNCY0PQRLYAHJ3BWH&workerId=A3V2XCDF45VN9X&assignmentId=3ZDAD0O1T2ZKRQKDZTHZIHEQU0MTXO&a=1DDZ8&tp_a=1DDZ8&b=3ZDAD0O1T2ZKRQKDZTHZIHEQU0MTXO&tp_b=3ZDAD0O1T2ZKRQKDZTHZIHEQU0MTXO&c=365198&tp_c=365198"},{"rt":12059,"response":{"heads":"5","tails":"5"},"type":"response","condition":"seqNoFeedback","trueTheta":0.5,"classrooms":["A","B"],"studentTrueClassroom":"B","exampleSet":"second","trial_type":"survey-html-form","trial_index":40,"time_elapsed":1195933,"internal_node_id":"0.0-27.0-0.0","params":{"nStudents":24,"maxFlips":30,"completionMinutes":45,"basePay":8,"maxBonus":9,"perTrialBonus":0.5,"perTrialBonusThreshold":0.1,"exampleCost":0.01},"classroomParams":{"A":{"a":1,"b":4},"B":{"a":4,"b":1},"C":{"a":2,"b":8},"D":{"a":8,"b":2}},"conditions":["nonSeqFull","nonSeqPartial","seqNoFeedback","seqFeedback"],"classroomPairings":[["A","B"],["C","D"]],"coinWeights":[0.2,0.5,0.8],"subjectId":"A3V2XCDF45VN9X","assignmentId":"3ZDAD0O1T2ZKRQKDZTHZIHEQU0MTXO","hitId":"3QGHA0EA0JM3KKNCY0PQRLYAHJ3BWH","url":"https://gershmanlab.com/experiments/alicia/teaching/experiment/?hitId=3QGHA0EA0JM3KKNCY0PQRLYAHJ3BWH&workerId=A3V2XCDF45VN9X&assignmentId=3ZDAD0O1T2ZKRQKDZTHZIHEQU0MTXO&a=1DDZ8&tp_a=1DDZ8&b=3ZDAD0O1T2ZKRQKDZTHZIHEQU0MTXO&tp_b=3ZDAD0O1T2ZKRQKDZTHZIHEQU0MTXO&c=365198&tp_c=365198","firstResponseHeads":5,"firstResponseTails":5,"secondResponseHeads":5,"secondResponseTails":5,"studentIndex":3,"studentTrueHypers":{"a":4,"b":1},"studentGuess":0.56,"delta":0.06000000000000005,"bonus":0.3,"bonusSoFar":0.7,"totalExamples":20},{"rt":null,"stimulus":"Sending examples to student... ","response":null,"trial_type":"html-keyboard-response","trial_index":41,"time_elapsed":1197685,"internal_node_id":"0.0-28.0","params":{"nStudents":24,"maxFlips":30,"completionMinutes":45,"basePay":8,"maxBonus":9,"perTrialBonus":0.5,"perTrialBonusThreshold":0.1,"exampleCost":0.01},"classroomParams":{"A":{"a":1,"b":4},"B":{"a":4,"b":1},"C":{"a":2,"b":8},"D":{"a":8,"b":2}},"conditions":["nonSeqFull","nonSeqPartial","seqNoFeedback","seqFeedback"],"classroomPairings":[["A","B"],["C","D"]],"coinWeights":[0.2,0.5,0.8],"subjectId":"A3V2XCDF45VN9X","assignmentId":"3ZDAD0O1T2ZKRQKDZTHZIHEQU0MTXO","hitId":"3QGHA0EA0JM3KKNCY0PQRLYAHJ3BWH","url":"https://gershmanlab.com/experiments/alicia/teaching/experiment/?hitId=3QGHA0EA0JM3KKNCY0PQRLYAHJ3BWH&workerId=A3V2XCDF45VN9X&assignmentId=3ZDAD0O1T2ZKRQKDZTHZIHEQU0MTXO&a=1DDZ8&tp_a=1DDZ8&b=3ZDAD0O1T2ZKRQKDZTHZIHEQU0MTXO&tp_b=3ZDAD0O1T2ZKRQKDZTHZIHEQU0MTXO&c=365198&tp_c=365198"},{"rt":null,"stimulus":"Examples sent to student! Waiting for student...","response":null,"trial_type":"html-keyboard-response","trial_index":42,"time_elapsed":1201686,"internal_node_id":"0.0-29.0","params":{"nStudents":24,"maxFlips":30,"completionMinutes":45,"basePay":8,"maxBonus":9,"perTrialBonus":0.5,"perTrialBonusThreshold":0.1,"exampleCost":0.01},"classroomParams":{"A":{"a":1,"b":4},"B":{"a":4,"b":1},"C":{"a":2,"b":8},"D":{"a":8,"b":2}},"conditions":["nonSeqFull","nonSeqPartial","seqNoFeedback","seqFeedback"],"classroomPairings":[["A","B"],["C","D"]],"coinWeights":[0.2,0.5,0.8],"subjectId":"A3V2XCDF45VN9X","assignmentId":"3ZDAD0O1T2ZKRQKDZTHZIHEQU0MTXO","hitId":"3QGHA0EA0JM3KKNCY0PQRLYAHJ3BWH","url":"https://gershmanlab.com/experiments/alicia/teaching/experiment/?hitId=3QGHA0EA0JM3KKNCY0PQRLYAHJ3BWH&workerId=A3V2XCDF45VN9X&assignmentId=3ZDAD0O1T2ZKRQKDZTHZIHEQU0MTXO&a=1DDZ8&tp_a=1DDZ8&b=3ZDAD0O1T2ZKRQKDZTHZIHEQU0MTXO&tp_b=3ZDAD0O1T2ZKRQKDZTHZIHEQU0MTXO&c=365198&tp_c=365198"},{"rt":7655,"stimulus":"\n                <p>Student 4's first guess for coin weight: <b style=\"color:Tomato\";>0.60</b></p>\n                <p>Student 4's second guess for coin weight: <b style=\"color:Tomato\";>0.56</b></p>\n                <p>You received a bonus of <b>$0.30</b> based on the student's second guess.</p>\n                <p>Total bonus so far: <b>$0.70</b></p>\n                <p>Press any key to continue.</p>\n                ","response":"enter","trial_type":"html-keyboard-response","trial_index":43,"time_elapsed":1209342,"internal_node_id":"0.0-30.0","params":{"nStudents":24,"maxFlips":30,"completionMinutes":45,"basePay":8,"maxBonus":9,"perTrialBonus":0.5,"perTrialBonusThreshold":0.1,"exampleCost":0.01},"classroomParams":{"A":{"a":1,"b":4},"B":{"a":4,"b":1},"C":{"a":2,"b":8},"D":{"a":8,"b":2}},"conditions":["nonSeqFull","nonSeqPartial","seqNoFeedback","seqFeedback"],"classroomPairings":[["A","B"],["C","D"]],"coinWeights":[0.2,0.5,0.8],"subjectId":"A3V2XCDF45VN9X","assignmentId":"3ZDAD0O1T2ZKRQKDZTHZIHEQU0MTXO","hitId":"3QGHA0EA0JM3KKNCY0PQRLYAHJ3BWH","url":"https://gershmanlab.com/experiments/alicia/teaching/experiment/?hitId=3QGHA0EA0JM3KKNCY0PQRLYAHJ3BWH&workerId=A3V2XCDF45VN9X&assignmentId=3ZDAD0O1T2ZKRQKDZTHZIHEQU0MTXO&a=1DDZ8&tp_a=1DDZ8&b=3ZDAD0O1T2ZKRQKDZTHZIHEQU0MTXO&tp_b=3ZDAD0O1T2ZKRQKDZTHZIHEQU0MTXO&c=365198&tp_c=365198"},{"rt":null,"stimulus":"<div style=\"font-size:60px;\">Next student</div>","response":null,"trial_type":"html-keyboard-response","trial_index":44,"time_elapsed":1211844,"internal_node_id":"0.0-31.0-0.0","params":{"nStudents":24,"maxFlips":30,"completionMinutes":45,"basePay":8,"maxBonus":9,"perTrialBonus":0.5,"perTrialBonusThreshold":0.1,"exampleCost":0.01},"classroomParams":{"A":{"a":1,"b":4},"B":{"a":4,"b":1},"C":{"a":2,"b":8},"D":{"a":8,"b":2}},"conditions":["nonSeqFull","nonSeqPartial","seqNoFeedback","seqFeedback"],"classroomPairings":[["A","B"],["C","D"]],"coinWeights":[0.2,0.5,0.8],"subjectId":"A3V2XCDF45VN9X","assignmentId":"3ZDAD0O1T2ZKRQKDZTHZIHEQU0MTXO","hitId":"3QGHA0EA0JM3KKNCY0PQRLYAHJ3BWH","url":"https://gershmanlab.com/experiments/alicia/teaching/experiment/?hitId=3QGHA0EA0JM3KKNCY0PQRLYAHJ3BWH&workerId=A3V2XCDF45VN9X&assignmentId=3ZDAD0O1T2ZKRQKDZTHZIHEQU0MTXO&a=1DDZ8&tp_a=1DDZ8&b=3ZDAD0O1T2ZKRQKDZTHZIHEQU0MTXO&tp_b=3ZDAD0O1T2ZKRQKDZTHZIHEQU0MTXO&c=365198&tp_c=365198"},{"rt":2774,"stimulus":"\n            <h4 style=\"color:Orange;\">Student 5</h4>\n            <h2>The weight of your coin is <b style=\"color:Tomato;\">0.2</b>.</h2>\n            <p>In this block, you will be giving <b>two</b> sets of examples to Student 5.</p>\n                <p>You will receive feedback at the end of the block.</p>\n            ","response":0,"trial_type":"html-button-response","trial_index":45,"time_elapsed":1214619,"internal_node_id":"0.0-32.0","params":{"nStudents":24,"maxFlips":30,"completionMinutes":45,"basePay":8,"maxBonus":9,"perTrialBonus":0.5,"perTrialBonusThreshold":0.1,"exampleCost":0.01},"classroomParams":{"A":{"a":1,"b":4},"B":{"a":4,"b":1},"C":{"a":2,"b":8},"D":{"a":8,"b":2}},"conditions":["nonSeqFull","nonSeqPartial","seqNoFeedback","seqFeedback"],"classroomPairings":[["A","B"],["C","D"]],"coinWeights":[0.2,0.5,0.8],"subjectId":"A3V2XCDF45VN9X","assignmentId":"3ZDAD0O1T2ZKRQKDZTHZIHEQU0MTXO","hitId":"3QGHA0EA0JM3KKNCY0PQRLYAHJ3BWH","url":"https://gershmanlab.com/experiments/alicia/teaching/experiment/?hitId=3QGHA0EA0JM3KKNCY0PQRLYAHJ3BWH&workerId=A3V2XCDF45VN9X&assignmentId=3ZDAD0O1T2ZKRQKDZTHZIHEQU0MTXO&a=1DDZ8&tp_a=1DDZ8&b=3ZDAD0O1T2ZKRQKDZTHZIHEQU0MTXO&tp_b=3ZDAD0O1T2ZKRQKDZTHZIHEQU0MTXO&c=365198&tp_c=365198"},{"rt":23445,"response":{"heads":"1","tails":"4"},"type":"response","condition":"seqNoFeedback","trueTheta":0.2,"classrooms":["C","D"],"studentTrueClassroom":"D","exampleSet":"first","trial_type":"survey-html-form","trial_index":46,"time_elapsed":1238064,"internal_node_id":"0.0-33.0-0.0","params":{"nStudents":24,"maxFlips":30,"completionMinutes":45,"basePay":8,"maxBonus":9,"perTrialBonus":0.5,"perTrialBonusThreshold":0.1,"exampleCost":0.01},"classroomParams":{"A":{"a":1,"b":4},"B":{"a":4,"b":1},"C":{"a":2,"b":8},"D":{"a":8,"b":2}},"conditions":["nonSeqFull","nonSeqPartial","seqNoFeedback","seqFeedback"],"classroomPairings":[["A","B"],["C","D"]],"coinWeights":[0.2,0.5,0.8],"subjectId":"A3V2XCDF45VN9X","assignmentId":"3ZDAD0O1T2ZKRQKDZTHZIHEQU0MTXO","hitId":"3QGHA0EA0JM3KKNCY0PQRLYAHJ3BWH","url":"https://gershmanlab.com/experiments/alicia/teaching/experiment/?hitId=3QGHA0EA0JM3KKNCY0PQRLYAHJ3BWH&workerId=A3V2XCDF45VN9X&assignmentId=3ZDAD0O1T2ZKRQKDZTHZIHEQU0MTXO&a=1DDZ8&tp_a=1DDZ8&b=3ZDAD0O1T2ZKRQKDZTHZIHEQU0MTXO&tp_b=3ZDAD0O1T2ZKRQKDZTHZIHEQU0MTXO&c=365198&tp_c=365198","heads":1,"tails":4,"studentIndex":4,"studentTrueHypers":{"a":8,"b":2},"studentGuess":0.6,"delta":0.39999999999999997,"totalExamples":5,"bonusSoFar":0.7},{"rt":null,"stimulus":"Sending examples to student... ","response":null,"trial_type":"html-keyboard-response","trial_index":47,"time_elapsed":1239320,"internal_node_id":"0.0-34.0","params":{"nStudents":24,"maxFlips":30,"completionMinutes":45,"basePay":8,"maxBonus":9,"perTrialBonus":0.5,"perTrialBonusThreshold":0.1,"exampleCost":0.01},"classroomParams":{"A":{"a":1,"b":4},"B":{"a":4,"b":1},"C":{"a":2,"b":8},"D":{"a":8,"b":2}},"conditions":["nonSeqFull","nonSeqPartial","seqNoFeedback","seqFeedback"],"classroomPairings":[["A","B"],["C","D"]],"coinWeights":[0.2,0.5,0.8],"subjectId":"A3V2XCDF45VN9X","assignmentId":"3ZDAD0O1T2ZKRQKDZTHZIHEQU0MTXO","hitId":"3QGHA0EA0JM3KKNCY0PQRLYAHJ3BWH","url":"https://gershmanlab.com/experiments/alicia/teaching/experiment/?hitId=3QGHA0EA0JM3KKNCY0PQRLYAHJ3BWH&workerId=A3V2XCDF45VN9X&assignmentId=3ZDAD0O1T2ZKRQKDZTHZIHEQU0MTXO&a=1DDZ8&tp_a=1DDZ8&b=3ZDAD0O1T2ZKRQKDZTHZIHEQU0MTXO&tp_b=3ZDAD0O1T2ZKRQKDZTHZIHEQU0MTXO&c=365198&tp_c=365198"},{"rt":null,"stimulus":"Examples sent to student! Waiting for student...","response":null,"trial_type":"html-keyboard-response","trial_index":48,"time_elapsed":1244822,"internal_node_id":"0.0-35.0","params":{"nStudents":24,"maxFlips":30,"completionMinutes":45,"basePay":8,"maxBonus":9,"perTrialBonus":0.5,"perTrialBonusThreshold":0.1,"exampleCost":0.01},"classroomParams":{"A":{"a":1,"b":4},"B":{"a":4,"b":1},"C":{"a":2,"b":8},"D":{"a":8,"b":2}},"conditions":["nonSeqFull","nonSeqPartial","seqNoFeedback","seqFeedback"],"classroomPairings":[["A","B"],["C","D"]],"coinWeights":[0.2,0.5,0.8],"subjectId":"A3V2XCDF45VN9X","assignmentId":"3ZDAD0O1T2ZKRQKDZTHZIHEQU0MTXO","hitId":"3QGHA0EA0JM3KKNCY0PQRLYAHJ3BWH","url":"https://gershmanlab.com/experiments/alicia/teaching/experiment/?hitId=3QGHA0EA0JM3KKNCY0PQRLYAHJ3BWH&workerId=A3V2XCDF45VN9X&assignmentId=3ZDAD0O1T2ZKRQKDZTHZIHEQU0MTXO&a=1DDZ8&tp_a=1DDZ8&b=3ZDAD0O1T2ZKRQKDZTHZIHEQU0MTXO&tp_b=3ZDAD0O1T2ZKRQKDZTHZIHEQU0MTXO&c=365198&tp_c=365198"},{"rt":5414,"response":{"heads":"1","tails":"4"},"type":"response","condition":"seqNoFeedback","trueTheta":0.2,"classrooms":["C","D"],"studentTrueClassroom":"D","exampleSet":"second","trial_type":"survey-html-form","trial_index":49,"time_elapsed":1250237,"internal_node_id":"0.0-36.0-0.0","params":{"nStudents":24,"maxFlips":30,"completionMinutes":45,"basePay":8,"maxBonus":9,"perTrialBonus":0.5,"perTrialBonusThreshold":0.1,"exampleCost":0.01},"classroomParams":{"A":{"a":1,"b":4},"B":{"a":4,"b":1},"C":{"a":2,"b":8},"D":{"a":8,"b":2}},"conditions":["nonSeqFull","nonSeqPartial","seqNoFeedback","seqFeedback"],"classroomPairings":[["A","B"],["C","D"]],"coinWeights":[0.2,0.5,0.8],"subjectId":"A3V2XCDF45VN9X","assignmentId":"3ZDAD0O1T2ZKRQKDZTHZIHEQU0MTXO","hitId":"3QGHA0EA0JM3KKNCY0PQRLYAHJ3BWH","url":"https://gershmanlab.com/experiments/alicia/teaching/experiment/?hitId=3QGHA0EA0JM3KKNCY0PQRLYAHJ3BWH&workerId=A3V2XCDF45VN9X&assignmentId=3ZDAD0O1T2ZKRQKDZTHZIHEQU0MTXO&a=1DDZ8&tp_a=1DDZ8&b=3ZDAD0O1T2ZKRQKDZTHZIHEQU0MTXO&tp_b=3ZDAD0O1T2ZKRQKDZTHZIHEQU0MTXO&c=365198&tp_c=365198","firstResponseHeads":1,"firstResponseTails":4,"secondResponseHeads":1,"secondResponseTails":4,"studentIndex":4,"studentTrueHypers":{"a":8,"b":2},"studentGuess":0.5,"delta":0.3,"bonus":0,"bonusSoFar":0.7,"totalExamples":10},{"rt":null,"stimulus":"Sending examples to student... ","response":null,"trial_type":"html-keyboard-response","trial_index":50,"time_elapsed":1252239,"internal_node_id":"0.0-37.0","params":{"nStudents":24,"maxFlips":30,"completionMinutes":45,"basePay":8,"maxBonus":9,"perTrialBonus":0.5,"perTrialBonusThreshold":0.1,"exampleCost":0.01},"classroomParams":{"A":{"a":1,"b":4},"B":{"a":4,"b":1},"C":{"a":2,"b":8},"D":{"a":8,"b":2}},"conditions":["nonSeqFull","nonSeqPartial","seqNoFeedback","seqFeedback"],"classroomPairings":[["A","B"],["C","D"]],"coinWeights":[0.2,0.5,0.8],"subjectId":"A3V2XCDF45VN9X","assignmentId":"3ZDAD0O1T2ZKRQKDZTHZIHEQU0MTXO","hitId":"3QGHA0EA0JM3KKNCY0PQRLYAHJ3BWH","url":"https://gershmanlab.com/experiments/alicia/teaching/experiment/?hitId=3QGHA0EA0JM3KKNCY0PQRLYAHJ3BWH&workerId=A3V2XCDF45VN9X&assignmentId=3ZDAD0O1T2ZKRQKDZTHZIHEQU0MTXO&a=1DDZ8&tp_a=1DDZ8&b=3ZDAD0O1T2ZKRQKDZTHZIHEQU0MTXO&tp_b=3ZDAD0O1T2ZKRQKDZTHZIHEQU0MTXO&c=365198&tp_c=365198"},{"rt":null,"stimulus":"Examples sent to student! Waiting for student...","response":null,"trial_type":"html-keyboard-response","trial_index":51,"time_elapsed":1256741,"internal_node_id":"0.0-38.0","params":{"nStudents":24,"maxFlips":30,"completionMinutes":45,"basePay":8,"maxBonus":9,"perTrialBonus":0.5,"perTrialBonusThreshold":0.1,"exampleCost":0.01},"classroomParams":{"A":{"a":1,"b":4},"B":{"a":4,"b":1},"C":{"a":2,"b":8},"D":{"a":8,"b":2}},"conditions":["nonSeqFull","nonSeqPartial","seqNoFeedback","seqFeedback"],"classroomPairings":[["A","B"],["C","D"]],"coinWeights":[0.2,0.5,0.8],"subjectId":"A3V2XCDF45VN9X","assignmentId":"3ZDAD0O1T2ZKRQKDZTHZIHEQU0MTXO","hitId":"3QGHA0EA0JM3KKNCY0PQRLYAHJ3BWH","url":"https://gershmanlab.com/experiments/alicia/teaching/experiment/?hitId=3QGHA0EA0JM3KKNCY0PQRLYAHJ3BWH&workerId=A3V2XCDF45VN9X&assignmentId=3ZDAD0O1T2ZKRQKDZTHZIHEQU0MTXO&a=1DDZ8&tp_a=1DDZ8&b=3ZDAD0O1T2ZKRQKDZTHZIHEQU0MTXO&tp_b=3ZDAD0O1T2ZKRQKDZTHZIHEQU0MTXO&c=365198&tp_c=365198"},{"rt":6680,"stimulus":"\n                <p>Student 5's first guess for coin weight: <b style=\"color:Tomato\";>0.60</b></p>\n                <p>Student 5's second guess for coin weight: <b style=\"color:Tomato\";>0.50</b></p>\n                <p>You received a bonus of <b>$0.00</b> based on the student's second guess.</p>\n                <p>Total bonus so far: <b>$0.70</b></p>\n                <p>Press any key to continue.</p>\n                ","response":"enter","trial_type":"html-keyboard-response","trial_index":52,"time_elapsed":1263421,"internal_node_id":"0.0-39.0","params":{"nStudents":24,"maxFlips":30,"completionMinutes":45,"basePay":8,"maxBonus":9,"perTrialBonus":0.5,"perTrialBonusThreshold":0.1,"exampleCost":0.01},"classroomParams":{"A":{"a":1,"b":4},"B":{"a":4,"b":1},"C":{"a":2,"b":8},"D":{"a":8,"b":2}},"conditions":["nonSeqFull","nonSeqPartial","seqNoFeedback","seqFeedback"],"classroomPairings":[["A","B"],["C","D"]],"coinWeights":[0.2,0.5,0.8],"subjectId":"A3V2XCDF45VN9X","assignmentId":"3ZDAD0O1T2ZKRQKDZTHZIHEQU0MTXO","hitId":"3QGHA0EA0JM3KKNCY0PQRLYAHJ3BWH","url":"https://gershmanlab.com/experiments/alicia/teaching/experiment/?hitId=3QGHA0EA0JM3KKNCY0PQRLYAHJ3BWH&workerId=A3V2XCDF45VN9X&assignmentId=3ZDAD0O1T2ZKRQKDZTHZIHEQU0MTXO&a=1DDZ8&tp_a=1DDZ8&b=3ZDAD0O1T2ZKRQKDZTHZIHEQU0MTXO&tp_b=3ZDAD0O1T2ZKRQKDZTHZIHEQU0MTXO&c=365198&tp_c=365198"},{"rt":null,"stimulus":"<div style=\"font-size:60px;\">Next student</div>","response":null,"trial_type":"html-keyboard-response","trial_index":53,"time_elapsed":1266424,"internal_node_id":"0.0-40.0-0.0","params":{"nStudents":24,"maxFlips":30,"completionMinutes":45,"basePay":8,"maxBonus":9,"perTrialBonus":0.5,"perTrialBonusThreshold":0.1,"exampleCost":0.01},"classroomParams":{"A":{"a":1,"b":4},"B":{"a":4,"b":1},"C":{"a":2,"b":8},"D":{"a":8,"b":2}},"conditions":["nonSeqFull","nonSeqPartial","seqNoFeedback","seqFeedback"],"classroomPairings":[["A","B"],["C","D"]],"coinWeights":[0.2,0.5,0.8],"subjectId":"A3V2XCDF45VN9X","assignmentId":"3ZDAD0O1T2ZKRQKDZTHZIHEQU0MTXO","hitId":"3QGHA0EA0JM3KKNCY0PQRLYAHJ3BWH","url":"https://gershmanlab.com/experiments/alicia/teaching/experiment/?hitId=3QGHA0EA0JM3KKNCY0PQRLYAHJ3BWH&workerId=A3V2XCDF45VN9X&assignmentId=3ZDAD0O1T2ZKRQKDZTHZIHEQU0MTXO&a=1DDZ8&tp_a=1DDZ8&b=3ZDAD0O1T2ZKRQKDZTHZIHEQU0MTXO&tp_b=3ZDAD0O1T2ZKRQKDZTHZIHEQU0MTXO&c=365198&tp_c=365198"},{"rt":2442,"stimulus":"\n            <h4 style=\"color:Orange;\">Student 6</h4>\n            <h2>The weight of your coin is <b style=\"color:Tomato;\">0.5</b>.</h2>\n            <p>In this block, you will be giving <b>one</b> set of examples to Student 6.</p>\n                <p>You will receive feedback at the end of the block.</p>\n            ","response":0,"trial_type":"html-button-response","trial_index":54,"time_elapsed":1268867,"internal_node_id":"0.0-41.0","params":{"nStudents":24,"maxFlips":30,"completionMinutes":45,"basePay":8,"maxBonus":9,"perTrialBonus":0.5,"perTrialBonusThreshold":0.1,"exampleCost":0.01},"classroomParams":{"A":{"a":1,"b":4},"B":{"a":4,"b":1},"C":{"a":2,"b":8},"D":{"a":8,"b":2}},"conditions":["nonSeqFull","nonSeqPartial","seqNoFeedback","seqFeedback"],"classroomPairings":[["A","B"],["C","D"]],"coinWeights":[0.2,0.5,0.8],"subjectId":"A3V2XCDF45VN9X","assignmentId":"3ZDAD0O1T2ZKRQKDZTHZIHEQU0MTXO","hitId":"3QGHA0EA0JM3KKNCY0PQRLYAHJ3BWH","url":"https://gershmanlab.com/experiments/alicia/teaching/experiment/?hitId=3QGHA0EA0JM3KKNCY0PQRLYAHJ3BWH&workerId=A3V2XCDF45VN9X&assignmentId=3ZDAD0O1T2ZKRQKDZTHZIHEQU0MTXO&a=1DDZ8&tp_a=1DDZ8&b=3ZDAD0O1T2ZKRQKDZTHZIHEQU0MTXO&tp_b=3ZDAD0O1T2ZKRQKDZTHZIHEQU0MTXO&c=365198&tp_c=365198"},{"rt":14096,"response":{"heads":"8","tails":"2"},"type":"response","condition":"nonSeqFull","trueTheta":0.5,"classrooms":["C","D"],"studentTrueClassroom":"C","exampleSet":"first","trial_type":"survey-html-form","trial_index":55,"time_elapsed":1282964,"internal_node_id":"0.0-42.0-0.0","params":{"nStudents":24,"maxFlips":30,"completionMinutes":45,"basePay":8,"maxBonus":9,"perTrialBonus":0.5,"perTrialBonusThreshold":0.1,"exampleCost":0.01},"classroomParams":{"A":{"a":1,"b":4},"B":{"a":4,"b":1},"C":{"a":2,"b":8},"D":{"a":8,"b":2}},"conditions":["nonSeqFull","nonSeqPartial","seqNoFeedback","seqFeedback"],"classroomPairings":[["A","B"],["C","D"]],"coinWeights":[0.2,0.5,0.8],"subjectId":"A3V2XCDF45VN9X","assignmentId":"3ZDAD0O1T2ZKRQKDZTHZIHEQU0MTXO","hitId":"3QGHA0EA0JM3KKNCY0PQRLYAHJ3BWH","url":"https://gershmanlab.com/experiments/alicia/teaching/experiment/?hitId=3QGHA0EA0JM3KKNCY0PQRLYAHJ3BWH&workerId=A3V2XCDF45VN9X&assignmentId=3ZDAD0O1T2ZKRQKDZTHZIHEQU0MTXO&a=1DDZ8&tp_a=1DDZ8&b=3ZDAD0O1T2ZKRQKDZTHZIHEQU0MTXO&tp_b=3ZDAD0O1T2ZKRQKDZTHZIHEQU0MTXO&c=365198&tp_c=365198","heads":8,"tails":2,"studentIndex":5,"studentTrueHypers":{"a":2,"b":8},"studentGuess":0.5,"delta":0,"totalExamples":10,"bonus":0.4,"bonusSoFar":1.1},{"rt":null,"stimulus":"Sending examples to student... ","response":null,"trial_type":"html-keyboard-response","trial_index":56,"time_elapsed":1284218,"internal_node_id":"0.0-43.0","params":{"nStudents":24,"maxFlips":30,"completionMinutes":45,"basePay":8,"maxBonus":9,"perTrialBonus":0.5,"perTrialBonusThreshold":0.1,"exampleCost":0.01},"classroomParams":{"A":{"a":1,"b":4},"B":{"a":4,"b":1},"C":{"a":2,"b":8},"D":{"a":8,"b":2}},"conditions":["nonSeqFull","nonSeqPartial","seqNoFeedback","seqFeedback"],"classroomPairings":[["A","B"],["C","D"]],"coinWeights":[0.2,0.5,0.8],"subjectId":"A3V2XCDF45VN9X","assignmentId":"3ZDAD0O1T2ZKRQKDZTHZIHEQU0MTXO","hitId":"3QGHA0EA0JM3KKNCY0PQRLYAHJ3BWH","url":"https://gershmanlab.com/experiments/alicia/teaching/experiment/?hitId=3QGHA0EA0JM3KKNCY0PQRLYAHJ3BWH&workerId=A3V2XCDF45VN9X&assignmentId=3ZDAD0O1T2ZKRQKDZTHZIHEQU0MTXO&a=1DDZ8&tp_a=1DDZ8&b=3ZDAD0O1T2ZKRQKDZTHZIHEQU0MTXO&tp_b=3ZDAD0O1T2ZKRQKDZTHZIHEQU0MTXO&c=365198&tp_c=365198"},{"rt":null,"stimulus":"Examples sent to student! Waiting for student...","response":null,"trial_type":"html-keyboard-response","trial_index":57,"time_elapsed":1288222,"internal_node_id":"0.0-44.0","params":{"nStudents":24,"maxFlips":30,"completionMinutes":45,"basePay":8,"maxBonus":9,"perTrialBonus":0.5,"perTrialBonusThreshold":0.1,"exampleCost":0.01},"classroomParams":{"A":{"a":1,"b":4},"B":{"a":4,"b":1},"C":{"a":2,"b":8},"D":{"a":8,"b":2}},"conditions":["nonSeqFull","nonSeqPartial","seqNoFeedback","seqFeedback"],"classroomPairings":[["A","B"],["C","D"]],"coinWeights":[0.2,0.5,0.8],"subjectId":"A3V2XCDF45VN9X","assignmentId":"3ZDAD0O1T2ZKRQKDZTHZIHEQU0MTXO","hitId":"3QGHA0EA0JM3KKNCY0PQRLYAHJ3BWH","url":"https://gershmanlab.com/experiments/alicia/teaching/experiment/?hitId=3QGHA0EA0JM3KKNCY0PQRLYAHJ3BWH&workerId=A3V2XCDF45VN9X&assignmentId=3ZDAD0O1T2ZKRQKDZTHZIHEQU0MTXO&a=1DDZ8&tp_a=1DDZ8&b=3ZDAD0O1T2ZKRQKDZTHZIHEQU0MTXO&tp_b=3ZDAD0O1T2ZKRQKDZTHZIHEQU0MTXO&c=365198&tp_c=365198"},{"rt":1831,"stimulus":"\n                <p>Student's guess for coin weight: <b style=\"color:Tomato;\">0.50</b></p>\n                <p>You received a bonus of <b>$0.4</b>. Total bonus so far: <b>$1.10</b></b></p>\n                <p> Press any key to continue.</p>\n                ","response":"enter","trial_type":"html-keyboard-response","trial_index":58,"time_elapsed":1290054,"internal_node_id":"0.0-45.0","params":{"nStudents":24,"maxFlips":30,"completionMinutes":45,"basePay":8,"maxBonus":9,"perTrialBonus":0.5,"perTrialBonusThreshold":0.1,"exampleCost":0.01},"classroomParams":{"A":{"a":1,"b":4},"B":{"a":4,"b":1},"C":{"a":2,"b":8},"D":{"a":8,"b":2}},"conditions":["nonSeqFull","nonSeqPartial","seqNoFeedback","seqFeedback"],"classroomPairings":[["A","B"],["C","D"]],"coinWeights":[0.2,0.5,0.8],"subjectId":"A3V2XCDF45VN9X","assignmentId":"3ZDAD0O1T2ZKRQKDZTHZIHEQU0MTXO","hitId":"3QGHA0EA0JM3KKNCY0PQRLYAHJ3BWH","url":"https://gershmanlab.com/experiments/alicia/teaching/experiment/?hitId=3QGHA0EA0JM3KKNCY0PQRLYAHJ3BWH&workerId=A3V2XCDF45VN9X&assignmentId=3ZDAD0O1T2ZKRQKDZTHZIHEQU0MTXO&a=1DDZ8&tp_a=1DDZ8&b=3ZDAD0O1T2ZKRQKDZTHZIHEQU0MTXO&tp_b=3ZDAD0O1T2ZKRQKDZTHZIHEQU0MTXO&c=365198&tp_c=365198"},{"rt":null,"stimulus":"<div style=\"font-size:60px;\">Next student</div>","response":null,"trial_type":"html-keyboard-response","trial_index":59,"time_elapsed":1293059,"internal_node_id":"0.0-46.0-0.0","params":{"nStudents":24,"maxFlips":30,"completionMinutes":45,"basePay":8,"maxBonus":9,"perTrialBonus":0.5,"perTrialBonusThreshold":0.1,"exampleCost":0.01},"classroomParams":{"A":{"a":1,"b":4},"B":{"a":4,"b":1},"C":{"a":2,"b":8},"D":{"a":8,"b":2}},"conditions":["nonSeqFull","nonSeqPartial","seqNoFeedback","seqFeedback"],"classroomPairings":[["A","B"],["C","D"]],"coinWeights":[0.2,0.5,0.8],"subjectId":"A3V2XCDF45VN9X","assignmentId":"3ZDAD0O1T2ZKRQKDZTHZIHEQU0MTXO","hitId":"3QGHA0EA0JM3KKNCY0PQRLYAHJ3BWH","url":"https://gershmanlab.com/experiments/alicia/teaching/experiment/?hitId=3QGHA0EA0JM3KKNCY0PQRLYAHJ3BWH&workerId=A3V2XCDF45VN9X&assignmentId=3ZDAD0O1T2ZKRQKDZTHZIHEQU0MTXO&a=1DDZ8&tp_a=1DDZ8&b=3ZDAD0O1T2ZKRQKDZTHZIHEQU0MTXO&tp_b=3ZDAD0O1T2ZKRQKDZTHZIHEQU0MTXO&c=365198&tp_c=365198"},{"rt":2178,"stimulus":"\n            <h4 style=\"color:Orange;\">Student 7</h4>\n            <h2>The weight of your coin is <b style=\"color:Tomato;\">0.2</b>.</h2>\n            <p>In this block, you will be giving <b>two</b> sets of examples to Student 7.</p>\n                <p>You will see the student's guess after the first set of examples. You will also receive feedback at the end of the block.</p>\n            ","response":0,"trial_type":"html-button-response","trial_index":60,"time_elapsed":1295237,"internal_node_id":"0.0-47.0","params":{"nStudents":24,"maxFlips":30,"completionMinutes":45,"basePay":8,"maxBonus":9,"perTrialBonus":0.5,"perTrialBonusThreshold":0.1,"exampleCost":0.01},"classroomParams":{"A":{"a":1,"b":4},"B":{"a":4,"b":1},"C":{"a":2,"b":8},"D":{"a":8,"b":2}},"conditions":["nonSeqFull","nonSeqPartial","seqNoFeedback","seqFeedback"],"classroomPairings":[["A","B"],["C","D"]],"coinWeights":[0.2,0.5,0.8],"subjectId":"A3V2XCDF45VN9X","assignmentId":"3ZDAD0O1T2ZKRQKDZTHZIHEQU0MTXO","hitId":"3QGHA0EA0JM3KKNCY0PQRLYAHJ3BWH","url":"https://gershmanlab.com/experiments/alicia/teaching/experiment/?hitId=3QGHA0EA0JM3KKNCY0PQRLYAHJ3BWH&workerId=A3V2XCDF45VN9X&assignmentId=3ZDAD0O1T2ZKRQKDZTHZIHEQU0MTXO&a=1DDZ8&tp_a=1DDZ8&b=3ZDAD0O1T2ZKRQKDZTHZIHEQU0MTXO&tp_b=3ZDAD0O1T2ZKRQKDZTHZIHEQU0MTXO&c=365198&tp_c=365198"},{"rt":23929,"response":{"heads":"4","tails":"1"},"type":"response","condition":"seqFeedback","trueTheta":0.2,"classrooms":["C","D"],"studentTrueClassroom":"C","exampleSet":"first","trial_type":"survey-html-form","trial_index":61,"time_elapsed":1319167,"internal_node_id":"0.0-48.0-0.0","params":{"nStudents":24,"maxFlips":30,"completionMinutes":45,"basePay":8,"maxBonus":9,"perTrialBonus":0.5,"perTrialBonusThreshold":0.1,"exampleCost":0.01},"classroomParams":{"A":{"a":1,"b":4},"B":{"a":4,"b":1},"C":{"a":2,"b":8},"D":{"a":8,"b":2}},"conditions":["nonSeqFull","nonSeqPartial","seqNoFeedback","seqFeedback"],"classroomPairings":[["A","B"],["C","D"]],"coinWeights":[0.2,0.5,0.8],"subjectId":"A3V2XCDF45VN9X","assignmentId":"3ZDAD0O1T2ZKRQKDZTHZIHEQU0MTXO","hitId":"3QGHA0EA0JM3KKNCY0PQRLYAHJ3BWH","url":"https://gershmanlab.com/experiments/alicia/teaching/experiment/?hitId=3QGHA0EA0JM3KKNCY0PQRLYAHJ3BWH&workerId=A3V2XCDF45VN9X&assignmentId=3ZDAD0O1T2ZKRQKDZTHZIHEQU0MTXO&a=1DDZ8&tp_a=1DDZ8&b=3ZDAD0O1T2ZKRQKDZTHZIHEQU0MTXO&tp_b=3ZDAD0O1T2ZKRQKDZTHZIHEQU0MTXO&c=365198&tp_c=365198","heads":4,"tails":1,"studentIndex":6,"studentTrueHypers":{"a":2,"b":8},"studentGuess":0.4,"delta":0.2,"totalExamples":5,"bonusSoFar":1.1},{"rt":null,"stimulus":"Sending examples to student... ","response":null,"trial_type":"html-keyboard-response","trial_index":62,"time_elapsed":1320668,"internal_node_id":"0.0-49.0","params":{"nStudents":24,"maxFlips":30,"completionMinutes":45,"basePay":8,"maxBonus":9,"perTrialBonus":0.5,"perTrialBonusThreshold":0.1,"exampleCost":0.01},"classroomParams":{"A":{"a":1,"b":4},"B":{"a":4,"b":1},"C":{"a":2,"b":8},"D":{"a":8,"b":2}},"conditions":["nonSeqFull","nonSeqPartial","seqNoFeedback","seqFeedback"],"classroomPairings":[["A","B"],["C","D"]],"coinWeights":[0.2,0.5,0.8],"subjectId":"A3V2XCDF45VN9X","assignmentId":"3ZDAD0O1T2ZKRQKDZTHZIHEQU0MTXO","hitId":"3QGHA0EA0JM3KKNCY0PQRLYAHJ3BWH","url":"https://gershmanlab.com/experiments/alicia/teaching/experiment/?hitId=3QGHA0EA0JM3KKNCY0PQRLYAHJ3BWH&workerId=A3V2XCDF45VN9X&assignmentId=3ZDAD0O1T2ZKRQKDZTHZIHEQU0MTXO&a=1DDZ8&tp_a=1DDZ8&b=3ZDAD0O1T2ZKRQKDZTHZIHEQU0MTXO&tp_b=3ZDAD0O1T2ZKRQKDZTHZIHEQU0MTXO&c=365198&tp_c=365198"},{"rt":null,"stimulus":"Examples sent to student! Waiting for student...","response":null,"trial_type":"html-keyboard-response","trial_index":63,"time_elapsed":1325668,"internal_node_id":"0.0-50.0","params":{"nStudents":24,"maxFlips":30,"completionMinutes":45,"basePay":8,"maxBonus":9,"perTrialBonus":0.5,"perTrialBonusThreshold":0.1,"exampleCost":0.01},"classroomParams":{"A":{"a":1,"b":4},"B":{"a":4,"b":1},"C":{"a":2,"b":8},"D":{"a":8,"b":2}},"conditions":["nonSeqFull","nonSeqPartial","seqNoFeedback","seqFeedback"],"classroomPairings":[["A","B"],["C","D"]],"coinWeights":[0.2,0.5,0.8],"subjectId":"A3V2XCDF45VN9X","assignmentId":"3ZDAD0O1T2ZKRQKDZTHZIHEQU0MTXO","hitId":"3QGHA0EA0JM3KKNCY0PQRLYAHJ3BWH","url":"https://gershmanlab.com/experiments/alicia/teaching/experiment/?hitId=3QGHA0EA0JM3KKNCY0PQRLYAHJ3BWH&workerId=A3V2XCDF45VN9X&assignmentId=3ZDAD0O1T2ZKRQKDZTHZIHEQU0MTXO&a=1DDZ8&tp_a=1DDZ8&b=3ZDAD0O1T2ZKRQKDZTHZIHEQU0MTXO&tp_b=3ZDAD0O1T2ZKRQKDZTHZIHEQU0MTXO&c=365198&tp_c=365198"},{"rt":4007,"stimulus":"\n                <p>Student's guess for coin weight: <b style=\"color:Tomato;\">0.40</b></p>\n                <p></b></p>\n                <p>You will now send another set of examples to your student. Press any key to continue.</p>\n                ","response":"enter","trial_type":"html-keyboard-response","trial_index":64,"time_elapsed":1329676,"internal_node_id":"0.0-51.0","params":{"nStudents":24,"maxFlips":30,"completionMinutes":45,"basePay":8,"maxBonus":9,"perTrialBonus":0.5,"perTrialBonusThreshold":0.1,"exampleCost":0.01},"classroomParams":{"A":{"a":1,"b":4},"B":{"a":4,"b":1},"C":{"a":2,"b":8},"D":{"a":8,"b":2}},"conditions":["nonSeqFull","nonSeqPartial","seqNoFeedback","seqFeedback"],"classroomPairings":[["A","B"],["C","D"]],"coinWeights":[0.2,0.5,0.8],"subjectId":"A3V2XCDF45VN9X","assignmentId":"3ZDAD0O1T2ZKRQKDZTHZIHEQU0MTXO","hitId":"3QGHA0EA0JM3KKNCY0PQRLYAHJ3BWH","url":"https://gershmanlab.com/experiments/alicia/teaching/experiment/?hitId=3QGHA0EA0JM3KKNCY0PQRLYAHJ3BWH&workerId=A3V2XCDF45VN9X&assignmentId=3ZDAD0O1T2ZKRQKDZTHZIHEQU0MTXO&a=1DDZ8&tp_a=1DDZ8&b=3ZDAD0O1T2ZKRQKDZTHZIHEQU0MTXO&tp_b=3ZDAD0O1T2ZKRQKDZTHZIHEQU0MTXO&c=365198&tp_c=365198"},{"rt":14408,"response":{"heads":"9","tails":"1"},"type":"response","condition":"seqFeedback","trueTheta":0.2,"classrooms":["C","D"],"studentTrueClassroom":"C","exampleSet":"second","trial_type":"survey-html-form","trial_index":65,"time_elapsed":1344085,"internal_node_id":"0.0-52.0-0.0","params":{"nStudents":24,"maxFlips":30,"completionMinutes":45,"basePay":8,"maxBonus":9,"perTrialBonus":0.5,"perTrialBonusThreshold":0.1,"exampleCost":0.01},"classroomParams":{"A":{"a":1,"b":4},"B":{"a":4,"b":1},"C":{"a":2,"b":8},"D":{"a":8,"b":2}},"conditions":["nonSeqFull","nonSeqPartial","seqNoFeedback","seqFeedback"],"classroomPairings":[["A","B"],["C","D"]],"coinWeights":[0.2,0.5,0.8],"subjectId":"A3V2XCDF45VN9X","assignmentId":"3ZDAD0O1T2ZKRQKDZTHZIHEQU0MTXO","hitId":"3QGHA0EA0JM3KKNCY0PQRLYAHJ3BWH","url":"https://gershmanlab.com/experiments/alicia/teaching/experiment/?hitId=3QGHA0EA0JM3KKNCY0PQRLYAHJ3BWH&workerId=A3V2XCDF45VN9X&assignmentId=3ZDAD0O1T2ZKRQKDZTHZIHEQU0MTXO&a=1DDZ8&tp_a=1DDZ8&b=3ZDAD0O1T2ZKRQKDZTHZIHEQU0MTXO&tp_b=3ZDAD0O1T2ZKRQKDZTHZIHEQU0MTXO&c=365198&tp_c=365198","firstResponseHeads":4,"firstResponseTails":1,"secondResponseHeads":9,"secondResponseTails":1,"studentIndex":6,"studentTrueHypers":{"a":2,"b":8},"studentGuess":0.6,"delta":0.39999999999999997,"bonus":0,"bonusSoFar":1.1,"totalExamples":15},{"rt":null,"stimulus":"Sending examples to student... ","response":null,"trial_type":"html-keyboard-response","trial_index":66,"time_elapsed":1346089,"internal_node_id":"0.0-53.0","params":{"nStudents":24,"maxFlips":30,"completionMinutes":45,"basePay":8,"maxBonus":9,"perTrialBonus":0.5,"perTrialBonusThreshold":0.1,"exampleCost":0.01},"classroomParams":{"A":{"a":1,"b":4},"B":{"a":4,"b":1},"C":{"a":2,"b":8},"D":{"a":8,"b":2}},"conditions":["nonSeqFull","nonSeqPartial","seqNoFeedback","seqFeedback"],"classroomPairings":[["A","B"],["C","D"]],"coinWeights":[0.2,0.5,0.8],"subjectId":"A3V2XCDF45VN9X","assignmentId":"3ZDAD0O1T2ZKRQKDZTHZIHEQU0MTXO","hitId":"3QGHA0EA0JM3KKNCY0PQRLYAHJ3BWH","url":"https://gershmanlab.com/experiments/alicia/teaching/experiment/?hitId=3QGHA0EA0JM3KKNCY0PQRLYAHJ3BWH&workerId=A3V2XCDF45VN9X&assignmentId=3ZDAD0O1T2ZKRQKDZTHZIHEQU0MTXO&a=1DDZ8&tp_a=1DDZ8&b=3ZDAD0O1T2ZKRQKDZTHZIHEQU0MTXO&tp_b=3ZDAD0O1T2ZKRQKDZTHZIHEQU0MTXO&c=365198&tp_c=365198"},{"rt":null,"stimulus":"Examples sent to student! Waiting for student...","response":null,"trial_type":"html-keyboard-response","trial_index":67,"time_elapsed":1350093,"internal_node_id":"0.0-54.0","params":{"nStudents":24,"maxFlips":30,"completionMinutes":45,"basePay":8,"maxBonus":9,"perTrialBonus":0.5,"perTrialBonusThreshold":0.1,"exampleCost":0.01},"classroomParams":{"A":{"a":1,"b":4},"B":{"a":4,"b":1},"C":{"a":2,"b":8},"D":{"a":8,"b":2}},"conditions":["nonSeqFull","nonSeqPartial","seqNoFeedback","seqFeedback"],"classroomPairings":[["A","B"],["C","D"]],"coinWeights":[0.2,0.5,0.8],"subjectId":"A3V2XCDF45VN9X","assignmentId":"3ZDAD0O1T2ZKRQKDZTHZIHEQU0MTXO","hitId":"3QGHA0EA0JM3KKNCY0PQRLYAHJ3BWH","url":"https://gershmanlab.com/experiments/alicia/teaching/experiment/?hitId=3QGHA0EA0JM3KKNCY0PQRLYAHJ3BWH&workerId=A3V2XCDF45VN9X&assignmentId=3ZDAD0O1T2ZKRQKDZTHZIHEQU0MTXO&a=1DDZ8&tp_a=1DDZ8&b=3ZDAD0O1T2ZKRQKDZTHZIHEQU0MTXO&tp_b=3ZDAD0O1T2ZKRQKDZTHZIHEQU0MTXO&c=365198&tp_c=365198"},{"rt":5271,"stimulus":"\n                <p>Student 7's first guess for coin weight: <b style=\"color:Tomato\";>0.40</b></p>\n                <p>Student 7's second guess for coin weight: <b style=\"color:Tomato\";>0.60</b></p>\n                <p>You received a bonus of <b>$0.00</b> based on the student's second guess.</p>\n                <p>Total bonus so far: <b>$1.10</b></p>\n                <p>Press any key to continue.</p>\n                ","response":"enter","trial_type":"html-keyboard-response","trial_index":68,"time_elapsed":1355364,"internal_node_id":"0.0-55.0","params":{"nStudents":24,"maxFlips":30,"completionMinutes":45,"basePay":8,"maxBonus":9,"perTrialBonus":0.5,"perTrialBonusThreshold":0.1,"exampleCost":0.01},"classroomParams":{"A":{"a":1,"b":4},"B":{"a":4,"b":1},"C":{"a":2,"b":8},"D":{"a":8,"b":2}},"conditions":["nonSeqFull","nonSeqPartial","seqNoFeedback","seqFeedback"],"classroomPairings":[["A","B"],["C","D"]],"coinWeights":[0.2,0.5,0.8],"subjectId":"A3V2XCDF45VN9X","assignmentId":"3ZDAD0O1T2ZKRQKDZTHZIHEQU0MTXO","hitId":"3QGHA0EA0JM3KKNCY0PQRLYAHJ3BWH","url":"https://gershmanlab.com/experiments/alicia/teaching/experiment/?hitId=3QGHA0EA0JM3KKNCY0PQRLYAHJ3BWH&workerId=A3V2XCDF45VN9X&assignmentId=3ZDAD0O1T2ZKRQKDZTHZIHEQU0MTXO&a=1DDZ8&tp_a=1DDZ8&b=3ZDAD0O1T2ZKRQKDZTHZIHEQU0MTXO&tp_b=3ZDAD0O1T2ZKRQKDZTHZIHEQU0MTXO&c=365198&tp_c=365198"},{"rt":null,"stimulus":"<div style=\"font-size:60px;\">Next student</div>","response":null,"trial_type":"html-keyboard-response","trial_index":69,"time_elapsed":1357867,"internal_node_id":"0.0-56.0-0.0","params":{"nStudents":24,"maxFlips":30,"completionMinutes":45,"basePay":8,"maxBonus":9,"perTrialBonus":0.5,"perTrialBonusThreshold":0.1,"exampleCost":0.01},"classroomParams":{"A":{"a":1,"b":4},"B":{"a":4,"b":1},"C":{"a":2,"b":8},"D":{"a":8,"b":2}},"conditions":["nonSeqFull","nonSeqPartial","seqNoFeedback","seqFeedback"],"classroomPairings":[["A","B"],["C","D"]],"coinWeights":[0.2,0.5,0.8],"subjectId":"A3V2XCDF45VN9X","assignmentId":"3ZDAD0O1T2ZKRQKDZTHZIHEQU0MTXO","hitId":"3QGHA0EA0JM3KKNCY0PQRLYAHJ3BWH","url":"https://gershmanlab.com/experiments/alicia/teaching/experiment/?hitId=3QGHA0EA0JM3KKNCY0PQRLYAHJ3BWH&workerId=A3V2XCDF45VN9X&assignmentId=3ZDAD0O1T2ZKRQKDZTHZIHEQU0MTXO&a=1DDZ8&tp_a=1DDZ8&b=3ZDAD0O1T2ZKRQKDZTHZIHEQU0MTXO&tp_b=3ZDAD0O1T2ZKRQKDZTHZIHEQU0MTXO&c=365198&tp_c=365198"},{"rt":2699,"stimulus":"\n            <h4 style=\"color:Orange;\">Student 8</h4>\n            <h2>The weight of your coin is <b style=\"color:Tomato;\">0.5</b>.</h2>\n            <p>In this block, you will be giving <b>one</b> set of examples to Student 8.</p>\n                <p>You will receive feedback at the end of the block.</p>\n            ","response":0,"trial_type":"html-button-response","trial_index":70,"time_elapsed":1360567,"internal_node_id":"0.0-57.0","params":{"nStudents":24,"maxFlips":30,"completionMinutes":45,"basePay":8,"maxBonus":9,"perTrialBonus":0.5,"perTrialBonusThreshold":0.1,"exampleCost":0.01},"classroomParams":{"A":{"a":1,"b":4},"B":{"a":4,"b":1},"C":{"a":2,"b":8},"D":{"a":8,"b":2}},"conditions":["nonSeqFull","nonSeqPartial","seqNoFeedback","seqFeedback"],"classroomPairings":[["A","B"],["C","D"]],"coinWeights":[0.2,0.5,0.8],"subjectId":"A3V2XCDF45VN9X","assignmentId":"3ZDAD0O1T2ZKRQKDZTHZIHEQU0MTXO","hitId":"3QGHA0EA0JM3KKNCY0PQRLYAHJ3BWH","url":"https://gershmanlab.com/experiments/alicia/teaching/experiment/?hitId=3QGHA0EA0JM3KKNCY0PQRLYAHJ3BWH&workerId=A3V2XCDF45VN9X&assignmentId=3ZDAD0O1T2ZKRQKDZTHZIHEQU0MTXO&a=1DDZ8&tp_a=1DDZ8&b=3ZDAD0O1T2ZKRQKDZTHZIHEQU0MTXO&tp_b=3ZDAD0O1T2ZKRQKDZTHZIHEQU0MTXO&c=365198&tp_c=365198"},{"rt":15087,"response":{"heads":"4","tails":"1"},"type":"response","condition":"nonSeqFull","trueTheta":0.5,"classrooms":["A","B"],"studentTrueClassroom":"A","exampleSet":"first","trial_type":"survey-html-form","trial_index":71,"time_elapsed":1375655,"internal_node_id":"0.0-58.0-0.0","params":{"nStudents":24,"maxFlips":30,"completionMinutes":45,"basePay":8,"maxBonus":9,"perTrialBonus":0.5,"perTrialBonusThreshold":0.1,"exampleCost":0.01},"classroomParams":{"A":{"a":1,"b":4},"B":{"a":4,"b":1},"C":{"a":2,"b":8},"D":{"a":8,"b":2}},"conditions":["nonSeqFull","nonSeqPartial","seqNoFeedback","seqFeedback"],"classroomPairings":[["A","B"],["C","D"]],"coinWeights":[0.2,0.5,0.8],"subjectId":"A3V2XCDF45VN9X","assignmentId":"3ZDAD0O1T2ZKRQKDZTHZIHEQU0MTXO","hitId":"3QGHA0EA0JM3KKNCY0PQRLYAHJ3BWH","url":"https://gershmanlab.com/experiments/alicia/teaching/experiment/?hitId=3QGHA0EA0JM3KKNCY0PQRLYAHJ3BWH&workerId=A3V2XCDF45VN9X&assignmentId=3ZDAD0O1T2ZKRQKDZTHZIHEQU0MTXO&a=1DDZ8&tp_a=1DDZ8&b=3ZDAD0O1T2ZKRQKDZTHZIHEQU0MTXO&tp_b=3ZDAD0O1T2ZKRQKDZTHZIHEQU0MTXO&c=365198&tp_c=365198","heads":4,"tails":1,"studentIndex":7,"studentTrueHypers":{"a":1,"b":4},"studentGuess":0.5,"delta":0,"totalExamples":5,"bonus":0.45,"bonusSoFar":1.55},{"rt":null,"stimulus":"Sending examples to student... ","response":null,"trial_type":"html-keyboard-response","trial_index":72,"time_elapsed":1377406,"internal_node_id":"0.0-59.0","params":{"nStudents":24,"maxFlips":30,"completionMinutes":45,"basePay":8,"maxBonus":9,"perTrialBonus":0.5,"perTrialBonusThreshold":0.1,"exampleCost":0.01},"classroomParams":{"A":{"a":1,"b":4},"B":{"a":4,"b":1},"C":{"a":2,"b":8},"D":{"a":8,"b":2}},"conditions":["nonSeqFull","nonSeqPartial","seqNoFeedback","seqFeedback"],"classroomPairings":[["A","B"],["C","D"]],"coinWeights":[0.2,0.5,0.8],"subjectId":"A3V2XCDF45VN9X","assignmentId":"3ZDAD0O1T2ZKRQKDZTHZIHEQU0MTXO","hitId":"3QGHA0EA0JM3KKNCY0PQRLYAHJ3BWH","url":"https://gershmanlab.com/experiments/alicia/teaching/experiment/?hitId=3QGHA0EA0JM3KKNCY0PQRLYAHJ3BWH&workerId=A3V2XCDF45VN9X&assignmentId=3ZDAD0O1T2ZKRQKDZTHZIHEQU0MTXO&a=1DDZ8&tp_a=1DDZ8&b=3ZDAD0O1T2ZKRQKDZTHZIHEQU0MTXO&tp_b=3ZDAD0O1T2ZKRQKDZTHZIHEQU0MTXO&c=365198&tp_c=365198"},{"rt":null,"stimulus":"Examples sent to student! Waiting for student...","response":null,"trial_type":"html-keyboard-response","trial_index":73,"time_elapsed":1382410,"internal_node_id":"0.0-60.0","params":{"nStudents":24,"maxFlips":30,"completionMinutes":45,"basePay":8,"maxBonus":9,"perTrialBonus":0.5,"perTrialBonusThreshold":0.1,"exampleCost":0.01},"classroomParams":{"A":{"a":1,"b":4},"B":{"a":4,"b":1},"C":{"a":2,"b":8},"D":{"a":8,"b":2}},"conditions":["nonSeqFull","nonSeqPartial","seqNoFeedback","seqFeedback"],"classroomPairings":[["A","B"],["C","D"]],"coinWeights":[0.2,0.5,0.8],"subjectId":"A3V2XCDF45VN9X","assignmentId":"3ZDAD0O1T2ZKRQKDZTHZIHEQU0MTXO","hitId":"3QGHA0EA0JM3KKNCY0PQRLYAHJ3BWH","url":"https://gershmanlab.com/experiments/alicia/teaching/experiment/?hitId=3QGHA0EA0JM3KKNCY0PQRLYAHJ3BWH&workerId=A3V2XCDF45VN9X&assignmentId=3ZDAD0O1T2ZKRQKDZTHZIHEQU0MTXO&a=1DDZ8&tp_a=1DDZ8&b=3ZDAD0O1T2ZKRQKDZTHZIHEQU0MTXO&tp_b=3ZDAD0O1T2ZKRQKDZTHZIHEQU0MTXO&c=365198&tp_c=365198"},{"rt":3425,"stimulus":"\n                <p>Student's guess for coin weight: <b style=\"color:Tomato;\">0.50</b></p>\n                <p>You received a bonus of <b>$0.45</b>. Total bonus so far: <b>$1.55</b></b></p>\n                <p> Press any key to continue.</p>\n                ","response":"enter","trial_type":"html-keyboard-response","trial_index":74,"time_elapsed":1385836,"internal_node_id":"0.0-61.0","params":{"nStudents":24,"maxFlips":30,"completionMinutes":45,"basePay":8,"maxBonus":9,"perTrialBonus":0.5,"perTrialBonusThreshold":0.1,"exampleCost":0.01},"classroomParams":{"A":{"a":1,"b":4},"B":{"a":4,"b":1},"C":{"a":2,"b":8},"D":{"a":8,"b":2}},"conditions":["nonSeqFull","nonSeqPartial","seqNoFeedback","seqFeedback"],"classroomPairings":[["A","B"],["C","D"]],"coinWeights":[0.2,0.5,0.8],"subjectId":"A3V2XCDF45VN9X","assignmentId":"3ZDAD0O1T2ZKRQKDZTHZIHEQU0MTXO","hitId":"3QGHA0EA0JM3KKNCY0PQRLYAHJ3BWH","url":"https://gershmanlab.com/experiments/alicia/teaching/experiment/?hitId=3QGHA0EA0JM3KKNCY0PQRLYAHJ3BWH&workerId=A3V2XCDF45VN9X&assignmentId=3ZDAD0O1T2ZKRQKDZTHZIHEQU0MTXO&a=1DDZ8&tp_a=1DDZ8&b=3ZDAD0O1T2ZKRQKDZTHZIHEQU0MTXO&tp_b=3ZDAD0O1T2ZKRQKDZTHZIHEQU0MTXO&c=365198&tp_c=365198"},{"rt":null,"stimulus":"<div style=\"font-size:60px;\">Next student</div>","response":null,"trial_type":"html-keyboard-response","trial_index":75,"time_elapsed":1387841,"internal_node_id":"0.0-62.0-0.0","params":{"nStudents":24,"maxFlips":30,"completionMinutes":45,"basePay":8,"maxBonus":9,"perTrialBonus":0.5,"perTrialBonusThreshold":0.1,"exampleCost":0.01},"classroomParams":{"A":{"a":1,"b":4},"B":{"a":4,"b":1},"C":{"a":2,"b":8},"D":{"a":8,"b":2}},"conditions":["nonSeqFull","nonSeqPartial","seqNoFeedback","seqFeedback"],"classroomPairings":[["A","B"],["C","D"]],"coinWeights":[0.2,0.5,0.8],"subjectId":"A3V2XCDF45VN9X","assignmentId":"3ZDAD0O1T2ZKRQKDZTHZIHEQU0MTXO","hitId":"3QGHA0EA0JM3KKNCY0PQRLYAHJ3BWH","url":"https://gershmanlab.com/experiments/alicia/teaching/experiment/?hitId=3QGHA0EA0JM3KKNCY0PQRLYAHJ3BWH&workerId=A3V2XCDF45VN9X&assignmentId=3ZDAD0O1T2ZKRQKDZTHZIHEQU0MTXO&a=1DDZ8&tp_a=1DDZ8&b=3ZDAD0O1T2ZKRQKDZTHZIHEQU0MTXO&tp_b=3ZDAD0O1T2ZKRQKDZTHZIHEQU0MTXO&c=365198&tp_c=365198"},{"rt":2436,"stimulus":"\n            <h4 style=\"color:Orange;\">Student 9</h4>\n            <h2>The weight of your coin is <b style=\"color:Tomato;\">0.8</b>.</h2>\n            <p>In this block, you will be giving <b>one</b> set of examples to Student 9.</p>\n                <p>You will receive feedback at the end of the block.</p>\n            ","response":0,"trial_type":"html-button-response","trial_index":76,"time_elapsed":1390278,"internal_node_id":"0.0-63.0","params":{"nStudents":24,"maxFlips":30,"completionMinutes":45,"basePay":8,"maxBonus":9,"perTrialBonus":0.5,"perTrialBonusThreshold":0.1,"exampleCost":0.01},"classroomParams":{"A":{"a":1,"b":4},"B":{"a":4,"b":1},"C":{"a":2,"b":8},"D":{"a":8,"b":2}},"conditions":["nonSeqFull","nonSeqPartial","seqNoFeedback","seqFeedback"],"classroomPairings":[["A","B"],["C","D"]],"coinWeights":[0.2,0.5,0.8],"subjectId":"A3V2XCDF45VN9X","assignmentId":"3ZDAD0O1T2ZKRQKDZTHZIHEQU0MTXO","hitId":"3QGHA0EA0JM3KKNCY0PQRLYAHJ3BWH","url":"https://gershmanlab.com/experiments/alicia/teaching/experiment/?hitId=3QGHA0EA0JM3KKNCY0PQRLYAHJ3BWH&workerId=A3V2XCDF45VN9X&assignmentId=3ZDAD0O1T2ZKRQKDZTHZIHEQU0MTXO&a=1DDZ8&tp_a=1DDZ8&b=3ZDAD0O1T2ZKRQKDZTHZIHEQU0MTXO&tp_b=3ZDAD0O1T2ZKRQKDZTHZIHEQU0MTXO&c=365198&tp_c=365198"},{"rt":30150,"response":{"heads":"4","tails":"1"},"type":"response","condition":"nonSeqPartial","trueTheta":0.8,"classrooms":["A","B"],"studentTrueClassroom":"A","exampleSet":"first","trial_type":"survey-html-form","trial_index":77,"time_elapsed":1420429,"internal_node_id":"0.0-64.0-0.0","params":{"nStudents":24,"maxFlips":30,"completionMinutes":45,"basePay":8,"maxBonus":9,"perTrialBonus":0.5,"perTrialBonusThreshold":0.1,"exampleCost":0.01},"classroomParams":{"A":{"a":1,"b":4},"B":{"a":4,"b":1},"C":{"a":2,"b":8},"D":{"a":8,"b":2}},"conditions":["nonSeqFull","nonSeqPartial","seqNoFeedback","seqFeedback"],"classroomPairings":[["A","B"],["C","D"]],"coinWeights":[0.2,0.5,0.8],"subjectId":"A3V2XCDF45VN9X","assignmentId":"3ZDAD0O1T2ZKRQKDZTHZIHEQU0MTXO","hitId":"3QGHA0EA0JM3KKNCY0PQRLYAHJ3BWH","url":"https://gershmanlab.com/experiments/alicia/teaching/experiment/?hitId=3QGHA0EA0JM3KKNCY0PQRLYAHJ3BWH&workerId=A3V2XCDF45VN9X&assignmentId=3ZDAD0O1T2ZKRQKDZTHZIHEQU0MTXO&a=1DDZ8&tp_a=1DDZ8&b=3ZDAD0O1T2ZKRQKDZTHZIHEQU0MTXO&tp_b=3ZDAD0O1T2ZKRQKDZTHZIHEQU0MTXO&c=365198&tp_c=365198","heads":4,"tails":1,"studentIndex":8,"studentTrueHypers":{"a":1,"b":4},"studentGuess":0.5,"delta":0.30000000000000004,"totalExamples":5,"bonus":0,"bonusSoFar":1.55},{"rt":null,"stimulus":"Sending examples to student... ","response":null,"trial_type":"html-keyboard-response","trial_index":78,"time_elapsed":1421685,"internal_node_id":"0.0-65.0","params":{"nStudents":24,"maxFlips":30,"completionMinutes":45,"basePay":8,"maxBonus":9,"perTrialBonus":0.5,"perTrialBonusThreshold":0.1,"exampleCost":0.01},"classroomParams":{"A":{"a":1,"b":4},"B":{"a":4,"b":1},"C":{"a":2,"b":8},"D":{"a":8,"b":2}},"conditions":["nonSeqFull","nonSeqPartial","seqNoFeedback","seqFeedback"],"classroomPairings":[["A","B"],["C","D"]],"coinWeights":[0.2,0.5,0.8],"subjectId":"A3V2XCDF45VN9X","assignmentId":"3ZDAD0O1T2ZKRQKDZTHZIHEQU0MTXO","hitId":"3QGHA0EA0JM3KKNCY0PQRLYAHJ3BWH","url":"https://gershmanlab.com/experiments/alicia/teaching/experiment/?hitId=3QGHA0EA0JM3KKNCY0PQRLYAHJ3BWH&workerId=A3V2XCDF45VN9X&assignmentId=3ZDAD0O1T2ZKRQKDZTHZIHEQU0MTXO&a=1DDZ8&tp_a=1DDZ8&b=3ZDAD0O1T2ZKRQKDZTHZIHEQU0MTXO&tp_b=3ZDAD0O1T2ZKRQKDZTHZIHEQU0MTXO&c=365198&tp_c=365198"},{"rt":null,"stimulus":"Examples sent to student! Waiting for student...","response":null,"trial_type":"html-keyboard-response","trial_index":79,"time_elapsed":1426688,"internal_node_id":"0.0-66.0","params":{"nStudents":24,"maxFlips":30,"completionMinutes":45,"basePay":8,"maxBonus":9,"perTrialBonus":0.5,"perTrialBonusThreshold":0.1,"exampleCost":0.01},"classroomParams":{"A":{"a":1,"b":4},"B":{"a":4,"b":1},"C":{"a":2,"b":8},"D":{"a":8,"b":2}},"conditions":["nonSeqFull","nonSeqPartial","seqNoFeedback","seqFeedback"],"classroomPairings":[["A","B"],["C","D"]],"coinWeights":[0.2,0.5,0.8],"subjectId":"A3V2XCDF45VN9X","assignmentId":"3ZDAD0O1T2ZKRQKDZTHZIHEQU0MTXO","hitId":"3QGHA0EA0JM3KKNCY0PQRLYAHJ3BWH","url":"https://gershmanlab.com/experiments/alicia/teaching/experiment/?hitId=3QGHA0EA0JM3KKNCY0PQRLYAHJ3BWH&workerId=A3V2XCDF45VN9X&assignmentId=3ZDAD0O1T2ZKRQKDZTHZIHEQU0MTXO&a=1DDZ8&tp_a=1DDZ8&b=3ZDAD0O1T2ZKRQKDZTHZIHEQU0MTXO&tp_b=3ZDAD0O1T2ZKRQKDZTHZIHEQU0MTXO&c=365198&tp_c=365198"},{"rt":2571,"stimulus":"\n                <p>Student's guess for coin weight: <b style=\"color:Tomato;\">0.50</b></p>\n                <p>You received a bonus of <b>$0</b>. Total bonus so far: <b>$1.55</b></b></p>\n                <p> Press any key to continue.</p>\n                ","response":"enter","trial_type":"html-keyboard-response","trial_index":80,"time_elapsed":1429259,"internal_node_id":"0.0-67.0","params":{"nStudents":24,"maxFlips":30,"completionMinutes":45,"basePay":8,"maxBonus":9,"perTrialBonus":0.5,"perTrialBonusThreshold":0.1,"exampleCost":0.01},"classroomParams":{"A":{"a":1,"b":4},"B":{"a":4,"b":1},"C":{"a":2,"b":8},"D":{"a":8,"b":2}},"conditions":["nonSeqFull","nonSeqPartial","seqNoFeedback","seqFeedback"],"classroomPairings":[["A","B"],["C","D"]],"coinWeights":[0.2,0.5,0.8],"subjectId":"A3V2XCDF45VN9X","assignmentId":"3ZDAD0O1T2ZKRQKDZTHZIHEQU0MTXO","hitId":"3QGHA0EA0JM3KKNCY0PQRLYAHJ3BWH","url":"https://gershmanlab.com/experiments/alicia/teaching/experiment/?hitId=3QGHA0EA0JM3KKNCY0PQRLYAHJ3BWH&workerId=A3V2XCDF45VN9X&assignmentId=3ZDAD0O1T2ZKRQKDZTHZIHEQU0MTXO&a=1DDZ8&tp_a=1DDZ8&b=3ZDAD0O1T2ZKRQKDZTHZIHEQU0MTXO&tp_b=3ZDAD0O1T2ZKRQKDZTHZIHEQU0MTXO&c=365198&tp_c=365198"},{"rt":null,"stimulus":"<div style=\"font-size:60px;\">Next student</div>","response":null,"trial_type":"html-keyboard-response","trial_index":81,"time_elapsed":1431261,"internal_node_id":"0.0-68.0-0.0","params":{"nStudents":24,"maxFlips":30,"completionMinutes":45,"basePay":8,"maxBonus":9,"perTrialBonus":0.5,"perTrialBonusThreshold":0.1,"exampleCost":0.01},"classroomParams":{"A":{"a":1,"b":4},"B":{"a":4,"b":1},"C":{"a":2,"b":8},"D":{"a":8,"b":2}},"conditions":["nonSeqFull","nonSeqPartial","seqNoFeedback","seqFeedback"],"classroomPairings":[["A","B"],["C","D"]],"coinWeights":[0.2,0.5,0.8],"subjectId":"A3V2XCDF45VN9X","assignmentId":"3ZDAD0O1T2ZKRQKDZTHZIHEQU0MTXO","hitId":"3QGHA0EA0JM3KKNCY0PQRLYAHJ3BWH","url":"https://gershmanlab.com/experiments/alicia/teaching/experiment/?hitId=3QGHA0EA0JM3KKNCY0PQRLYAHJ3BWH&workerId=A3V2XCDF45VN9X&assignmentId=3ZDAD0O1T2ZKRQKDZTHZIHEQU0MTXO&a=1DDZ8&tp_a=1DDZ8&b=3ZDAD0O1T2ZKRQKDZTHZIHEQU0MTXO&tp_b=3ZDAD0O1T2ZKRQKDZTHZIHEQU0MTXO&c=365198&tp_c=365198"},{"rt":2768,"stimulus":"\n            <h4 style=\"color:Orange;\">Student 10</h4>\n            <h2>The weight of your coin is <b style=\"color:Tomato;\">0.8</b>.</h2>\n            <p>In this block, you will be giving <b>one</b> set of examples to Student 10.</p>\n                <p>You will receive feedback at the end of the block.</p>\n            ","response":0,"trial_type":"html-button-response","trial_index":82,"time_elapsed":1434030,"internal_node_id":"0.0-69.0","params":{"nStudents":24,"maxFlips":30,"completionMinutes":45,"basePay":8,"maxBonus":9,"perTrialBonus":0.5,"perTrialBonusThreshold":0.1,"exampleCost":0.01},"classroomParams":{"A":{"a":1,"b":4},"B":{"a":4,"b":1},"C":{"a":2,"b":8},"D":{"a":8,"b":2}},"conditions":["nonSeqFull","nonSeqPartial","seqNoFeedback","seqFeedback"],"classroomPairings":[["A","B"],["C","D"]],"coinWeights":[0.2,0.5,0.8],"subjectId":"A3V2XCDF45VN9X","assignmentId":"3ZDAD0O1T2ZKRQKDZTHZIHEQU0MTXO","hitId":"3QGHA0EA0JM3KKNCY0PQRLYAHJ3BWH","url":"https://gershmanlab.com/experiments/alicia/teaching/experiment/?hitId=3QGHA0EA0JM3KKNCY0PQRLYAHJ3BWH&workerId=A3V2XCDF45VN9X&assignmentId=3ZDAD0O1T2ZKRQKDZTHZIHEQU0MTXO&a=1DDZ8&tp_a=1DDZ8&b=3ZDAD0O1T2ZKRQKDZTHZIHEQU0MTXO&tp_b=3ZDAD0O1T2ZKRQKDZTHZIHEQU0MTXO&c=365198&tp_c=365198"},{"rt":18337,"response":{"heads":"4","tails":"1"},"type":"response","condition":"nonSeqPartial","trueTheta":0.8,"classrooms":["C","D"],"studentTrueClassroom":"D","exampleSet":"first","trial_type":"survey-html-form","trial_index":83,"time_elapsed":1452367,"internal_node_id":"0.0-70.0-0.0","params":{"nStudents":24,"maxFlips":30,"completionMinutes":45,"basePay":8,"maxBonus":9,"perTrialBonus":0.5,"perTrialBonusThreshold":0.1,"exampleCost":0.01},"classroomParams":{"A":{"a":1,"b":4},"B":{"a":4,"b":1},"C":{"a":2,"b":8},"D":{"a":8,"b":2}},"conditions":["nonSeqFull","nonSeqPartial","seqNoFeedback","seqFeedback"],"classroomPairings":[["A","B"],["C","D"]],"coinWeights":[0.2,0.5,0.8],"subjectId":"A3V2XCDF45VN9X","assignmentId":"3ZDAD0O1T2ZKRQKDZTHZIHEQU0MTXO","hitId":"3QGHA0EA0JM3KKNCY0PQRLYAHJ3BWH","url":"https://gershmanlab.com/experiments/alicia/teaching/experiment/?hitId=3QGHA0EA0JM3KKNCY0PQRLYAHJ3BWH&workerId=A3V2XCDF45VN9X&assignmentId=3ZDAD0O1T2ZKRQKDZTHZIHEQU0MTXO&a=1DDZ8&tp_a=1DDZ8&b=3ZDAD0O1T2ZKRQKDZTHZIHEQU0MTXO&tp_b=3ZDAD0O1T2ZKRQKDZTHZIHEQU0MTXO&c=365198&tp_c=365198","heads":4,"tails":1,"studentIndex":9,"studentTrueHypers":{"a":8,"b":2},"studentGuess":0.8,"delta":0,"totalExamples":5,"bonus":0.45,"bonusSoFar":2},{"rt":null,"stimulus":"Sending examples to student... ","response":null,"trial_type":"html-keyboard-response","trial_index":84,"time_elapsed":1453868,"internal_node_id":"0.0-71.0","params":{"nStudents":24,"maxFlips":30,"completionMinutes":45,"basePay":8,"maxBonus":9,"perTrialBonus":0.5,"perTrialBonusThreshold":0.1,"exampleCost":0.01},"classroomParams":{"A":{"a":1,"b":4},"B":{"a":4,"b":1},"C":{"a":2,"b":8},"D":{"a":8,"b":2}},"conditions":["nonSeqFull","nonSeqPartial","seqNoFeedback","seqFeedback"],"classroomPairings":[["A","B"],["C","D"]],"coinWeights":[0.2,0.5,0.8],"subjectId":"A3V2XCDF45VN9X","assignmentId":"3ZDAD0O1T2ZKRQKDZTHZIHEQU0MTXO","hitId":"3QGHA0EA0JM3KKNCY0PQRLYAHJ3BWH","url":"https://gershmanlab.com/experiments/alicia/teaching/experiment/?hitId=3QGHA0EA0JM3KKNCY0PQRLYAHJ3BWH&workerId=A3V2XCDF45VN9X&assignmentId=3ZDAD0O1T2ZKRQKDZTHZIHEQU0MTXO&a=1DDZ8&tp_a=1DDZ8&b=3ZDAD0O1T2ZKRQKDZTHZIHEQU0MTXO&tp_b=3ZDAD0O1T2ZKRQKDZTHZIHEQU0MTXO&c=365198&tp_c=365198"},{"rt":null,"stimulus":"Examples sent to student! Waiting for student...","response":null,"trial_type":"html-keyboard-response","trial_index":85,"time_elapsed":1458374,"internal_node_id":"0.0-72.0","params":{"nStudents":24,"maxFlips":30,"completionMinutes":45,"basePay":8,"maxBonus":9,"perTrialBonus":0.5,"perTrialBonusThreshold":0.1,"exampleCost":0.01},"classroomParams":{"A":{"a":1,"b":4},"B":{"a":4,"b":1},"C":{"a":2,"b":8},"D":{"a":8,"b":2}},"conditions":["nonSeqFull","nonSeqPartial","seqNoFeedback","seqFeedback"],"classroomPairings":[["A","B"],["C","D"]],"coinWeights":[0.2,0.5,0.8],"subjectId":"A3V2XCDF45VN9X","assignmentId":"3ZDAD0O1T2ZKRQKDZTHZIHEQU0MTXO","hitId":"3QGHA0EA0JM3KKNCY0PQRLYAHJ3BWH","url":"https://gershmanlab.com/experiments/alicia/teaching/experiment/?hitId=3QGHA0EA0JM3KKNCY0PQRLYAHJ3BWH&workerId=A3V2XCDF45VN9X&assignmentId=3ZDAD0O1T2ZK