[{"rt":3754,"stimulus":"Welcome to the experiment. Press any key to begin.","response":"enter","trial_type":"html-keyboard-response","trial_index":0,"time_elapsed":3765,"internal_node_id":"0.0-0.0","params":{"nStudents":24,"maxFlips":30,"completionMinutes":45,"basePay":8,"maxBonus":9,"perTrialBonus":0.5,"perTrialBonusThreshold":0.1,"exampleCost":0.01},"classroomParams":{"A":{"a":1,"b":4},"B":{"a":4,"b":1},"C":{"a":2,"b":8},"D":{"a":8,"b":2}},"conditions":["nonSeqFull","nonSeqPartial","seqNoFeedback","seqFeedback"],"classroomPairings":[["A","B"],["C","D"]],"coinWeights":[0.2,0.5,0.8],"subjectId":"A9LSEP71DNP4O","assignmentId":"3ATTHHXXWBAUIC425HIV4ACHJJ6IXW","hitId":"3QGHA0EA0JM3KKNCY0PQRLYAHJ3BWH","url":"https://gershmanlab.com/experiments/alicia/teaching/experiment/?hitId=3QGHA0EA0JM3KKNCY0PQRLYAHJ3BWH&workerId=A9LSEP71DNP4O&assignmentId=3ATTHHXXWBAUIC425HIV4ACHJJ6IXW&a=XHTA8&tp_a=XHTA8&b=3ATTHHXXWBAUIC425HIV4ACHJJ6IXW&tp_b=3ATTHHXXWBAUIC425HIV4ACHJJ6IXW&c=365198&tp_c=365198"},{"rt":13067,"stimulus":"\n        <h3>Please read this consent agreement carefully before deciding whether to participate in this experiment.</h3>\n        <p><b>Purpose of the research:</b> To examine how people teach effectively.</p>\n        <p><b>What you will do in this research:</b> You will teach students the weights of different coins.</p>\n        <p><b>Time required:</b> This experiment will take 45 minutes to complete.</p>\n        <p><b>Risks:</b> There are no anticipated risks associated with participating in this study.             The effects of participating should be comparable to those you would experience from viewing a computer monitor             and using a mouse and keyboard for the duration of the experiment.</p>\n        <p><b>Benefits:</b> The study provides important information about the nature of teaching.</p>\n        <p><b>Compensation:</b> You will receive <b>$8</b> for completing the experiment and a performance bonus of up to <b>$9</b>.</p>\n        <p><b>Confidentiality:</b> Your participation in this study will remain confidential.             No personally identifiable information will be associated with your data.             Your de-identified data may be shared with other researchers and used in future projects.</p>\n        <p><b>Participation and withdrawal:</b> Your participation in this study is completely voluntary and             you may refuse to participate or you may choose to withdraw at any time without penalty or loss of\n            benefits to which you are otherwise entitled.</p>\n        <p><b>How to contact the researcher:</b> If you have questions or concerns about your participation            or payment, or want to request a summary of research findings, please contact\n            Alicia Chen, aliciachen@college.harvard.edu.</p>\n        <p><b>Whom to contact about your rights in this research:</b> For questions, concerns, suggestions,             or complaints that have not been or cannot be addressed by the researcher, or to report             research-related harm, please contact the Committee on the Use of Human Subjects in Research at Harvard University,             1414 Massachusetts Avenue, Second Floor, Cambridge, MA 02138. Phone: 617-496-2847. Email: cuhs@fas.harvard.edu.</p>\n        ","response":0,"trial_type":"html-button-response","trial_index":1,"time_elapsed":16832,"internal_node_id":"0.0-1.0","params":{"nStudents":24,"maxFlips":30,"completionMinutes":45,"basePay":8,"maxBonus":9,"perTrialBonus":0.5,"perTrialBonusThreshold":0.1,"exampleCost":0.01},"classroomParams":{"A":{"a":1,"b":4},"B":{"a":4,"b":1},"C":{"a":2,"b":8},"D":{"a":8,"b":2}},"conditions":["nonSeqFull","nonSeqPartial","seqNoFeedback","seqFeedback"],"classroomPairings":[["A","B"],["C","D"]],"coinWeights":[0.2,0.5,0.8],"subjectId":"A9LSEP71DNP4O","assignmentId":"3ATTHHXXWBAUIC425HIV4ACHJJ6IXW","hitId":"3QGHA0EA0JM3KKNCY0PQRLYAHJ3BWH","url":"https://gershmanlab.com/experiments/alicia/teaching/experiment/?hitId=3QGHA0EA0JM3KKNCY0PQRLYAHJ3BWH&workerId=A9LSEP71DNP4O&assignmentId=3ATTHHXXWBAUIC425HIV4ACHJJ6IXW&a=XHTA8&tp_a=XHTA8&b=3ATTHHXXWBAUIC425HIV4ACHJJ6IXW&tp_b=3ATTHHXXWBAUIC425HIV4ACHJJ6IXW&c=365198&tp_c=365198"},{"view_history":[{"page_index":0,"viewing_time":6303},{"page_index":1,"viewing_time":4611},{"page_index":2,"viewing_time":43986},{"page_index":3,"viewing_time":25234},{"page_index":4,"viewing_time":21781},{"page_index":5,"viewing_time":24508},{"page_index":6,"viewing_time":47156}],"rt":173578,"trial_type":"instructions","trial_index":2,"time_elapsed":190411,"internal_node_id":"0.0-2.0-0.0","params":{"nStudents":24,"maxFlips":30,"completionMinutes":45,"basePay":8,"maxBonus":9,"perTrialBonus":0.5,"perTrialBonusThreshold":0.1,"exampleCost":0.01},"classroomParams":{"A":{"a":1,"b":4},"B":{"a":4,"b":1},"C":{"a":2,"b":8},"D":{"a":8,"b":2}},"conditions":["nonSeqFull","nonSeqPartial","seqNoFeedback","seqFeedback"],"classroomPairings":[["A","B"],["C","D"]],"coinWeights":[0.2,0.5,0.8],"subjectId":"A9LSEP71DNP4O","assignmentId":"3ATTHHXXWBAUIC425HIV4ACHJJ6IXW","hitId":"3QGHA0EA0JM3KKNCY0PQRLYAHJ3BWH","url":"https://gershmanlab.com/experiments/alicia/teaching/experiment/?hitId=3QGHA0EA0JM3KKNCY0PQRLYAHJ3BWH&workerId=A9LSEP71DNP4O&assignmentId=3ATTHHXXWBAUIC425HIV4ACHJJ6IXW&a=XHTA8&tp_a=XHTA8&b=3ATTHHXXWBAUIC425HIV4ACHJJ6IXW&tp_b=3ATTHHXXWBAUIC425HIV4ACHJJ6IXW&c=365198&tp_c=365198"},{"rt":46185,"response":{"Q0":"Students in different classrooms have seen a different proportion of fair and unfair coins before seeing the examples you select for them.","Q1":"By teaching efficiently and accurately/helpfully at the same time (because each example I give to the student costs money!).","Q2":"The coin lands heads 90% of the time.","Q3":"Yes, I might encounter the same student twice.","Q4":"The students are also on the same alien planet as you, where coins can be unfair.","Q5":"Based on the student's second (and final) guess."},"question_order":[4,1,5,0,3,2],"trial_type":"survey-multi-choice","trial_index":3,"time_elapsed":236597,"internal_node_id":"0.0-2.0-1.0","params":{"nStudents":24,"maxFlips":30,"completionMinutes":45,"basePay":8,"maxBonus":9,"perTrialBonus":0.5,"perTrialBonusThreshold":0.1,"exampleCost":0.01},"classroomParams":{"A":{"a":1,"b":4},"B":{"a":4,"b":1},"C":{"a":2,"b":8},"D":{"a":8,"b":2}},"conditions":["nonSeqFull","nonSeqPartial","seqNoFeedback","seqFeedback"],"classroomPairings":[["A","B"],["C","D"]],"coinWeights":[0.2,0.5,0.8],"subjectId":"A9LSEP71DNP4O","assignmentId":"3ATTHHXXWBAUIC425HIV4ACHJJ6IXW","hitId":"3QGHA0EA0JM3KKNCY0PQRLYAHJ3BWH","url":"https://gershmanlab.com/experiments/alicia/teaching/experiment/?hitId=3QGHA0EA0JM3KKNCY0PQRLYAHJ3BWH&workerId=A9LSEP71DNP4O&assignmentId=3ATTHHXXWBAUIC425HIV4ACHJJ6IXW&a=XHTA8&tp_a=XHTA8&b=3ATTHHXXWBAUIC425HIV4ACHJJ6IXW&tp_b=3ATTHHXXWBAUIC425HIV4ACHJJ6IXW&c=365198&tp_c=365198","pass":false},{"rt":7395,"stimulus":"Oops, you have missed question(s) on the comprehension check! We'll show you the instructions again.","response":0,"trial_type":"html-button-response","trial_index":4,"time_elapsed":243995,"internal_node_id":"0.0-2.0-2.0-0.0","params":{"nStudents":24,"maxFlips":30,"completionMinutes":45,"basePay":8,"maxBonus":9,"perTrialBonus":0.5,"perTrialBonusThreshold":0.1,"exampleCost":0.01},"classroomParams":{"A":{"a":1,"b":4},"B":{"a":4,"b":1},"C":{"a":2,"b":8},"D":{"a":8,"b":2}},"conditions":["nonSeqFull","nonSeqPartial","seqNoFeedback","seqFeedback"],"classroomPairings":[["A","B"],["C","D"]],"coinWeights":[0.2,0.5,0.8],"subjectId":"A9LSEP71DNP4O","assignmentId":"3ATTHHXXWBAUIC425HIV4ACHJJ6IXW","hitId":"3QGHA0EA0JM3KKNCY0PQRLYAHJ3BWH","url":"https://gershmanlab.com/experiments/alicia/teaching/experiment/?hitId=3QGHA0EA0JM3KKNCY0PQRLYAHJ3BWH&workerId=A9LSEP71DNP4O&assignmentId=3ATTHHXXWBAUIC425HIV4ACHJJ6IXW&a=XHTA8&tp_a=XHTA8&b=3ATTHHXXWBAUIC425HIV4ACHJJ6IXW&tp_b=3ATTHHXXWBAUIC425HIV4ACHJJ6IXW&c=365198&tp_c=365198"},{"view_history":[{"page_index":0,"viewing_time":1589},{"page_index":1,"viewing_time":1336},{"page_index":2,"viewing_time":7335},{"page_index":3,"viewing_time":3875},{"page_index":4,"viewing_time":6852},{"page_index":5,"viewing_time":25583},{"page_index":6,"viewing_time":3188}],"rt":49756,"trial_type":"instructions","trial_index":5,"time_elapsed":293752,"internal_node_id":"0.0-2.1-0.1","params":{"nStudents":24,"maxFlips":30,"completionMinutes":45,"basePay":8,"maxBonus":9,"perTrialBonus":0.5,"perTrialBonusThreshold":0.1,"exampleCost":0.01},"classroomParams":{"A":{"a":1,"b":4},"B":{"a":4,"b":1},"C":{"a":2,"b":8},"D":{"a":8,"b":2}},"conditions":["nonSeqFull","nonSeqPartial","seqNoFeedback","seqFeedback"],"classroomPairings":[["A","B"],["C","D"]],"coinWeights":[0.2,0.5,0.8],"subjectId":"A9LSEP71DNP4O","assignmentId":"3ATTHHXXWBAUIC425HIV4ACHJJ6IXW","hitId":"3QGHA0EA0JM3KKNCY0PQRLYAHJ3BWH","url":"https://gershmanlab.com/experiments/alicia/teaching/experiment/?hitId=3QGHA0EA0JM3KKNCY0PQRLYAHJ3BWH&workerId=A9LSEP71DNP4O&assignmentId=3ATTHHXXWBAUIC425HIV4ACHJJ6IXW&a=XHTA8&tp_a=XHTA8&b=3ATTHHXXWBAUIC425HIV4ACHJJ6IXW&tp_b=3ATTHHXXWBAUIC425HIV4ACHJJ6IXW&c=365198&tp_c=365198"},{"rt":31171,"response":{"Q0":"Students in different classrooms will have seen a different number of heads and tails before seeing the examples you select for them.","Q1":"By teaching efficiently and accurately/helpfully at the same time (because each example I give to the student costs money!).","Q2":"The coin lands heads 90% of the time.","Q3":"No, I will teach a <b>new</b> student each time.","Q4":"The students are also on the same alien planet as you, where coins can be unfair.","Q5":"Based on the student's second (and final) guess."},"question_order":[0,1,4,5,3,2],"trial_type":"survey-multi-choice","trial_index":6,"time_elapsed":324925,"internal_node_id":"0.0-2.1-1.1","params":{"nStudents":24,"maxFlips":30,"completionMinutes":45,"basePay":8,"maxBonus":9,"perTrialBonus":0.5,"perTrialBonusThreshold":0.1,"exampleCost":0.01},"classroomParams":{"A":{"a":1,"b":4},"B":{"a":4,"b":1},"C":{"a":2,"b":8},"D":{"a":8,"b":2}},"conditions":["nonSeqFull","nonSeqPartial","seqNoFeedback","seqFeedback"],"classroomPairings":[["A","B"],["C","D"]],"coinWeights":[0.2,0.5,0.8],"subjectId":"A9LSEP71DNP4O","assignmentId":"3ATTHHXXWBAUIC425HIV4ACHJJ6IXW","hitId":"3QGHA0EA0JM3KKNCY0PQRLYAHJ3BWH","url":"https://gershmanlab.com/experiments/alicia/teaching/experiment/?hitId=3QGHA0EA0JM3KKNCY0PQRLYAHJ3BWH&workerId=A9LSEP71DNP4O&assignmentId=3ATTHHXXWBAUIC425HIV4ACHJJ6IXW&a=XHTA8&tp_a=XHTA8&b=3ATTHHXXWBAUIC425HIV4ACHJJ6IXW&tp_b=3ATTHHXXWBAUIC425HIV4ACHJJ6IXW&c=365198&tp_c=365198","pass":true},{"rt":null,"stimulus":"<div style=\"font-size:30px;\">Congrats on passing the comprehension quiz! The experiment will begin in a few seconds.</div>","response":null,"trial_type":"html-keyboard-response","trial_index":7,"time_elapsed":327929,"internal_node_id":"0.0-3.0","params":{"nStudents":24,"maxFlips":30,"completionMinutes":45,"basePay":8,"maxBonus":9,"perTrialBonus":0.5,"perTrialBonusThreshold":0.1,"exampleCost":0.01},"classroomParams":{"A":{"a":1,"b":4},"B":{"a":4,"b":1},"C":{"a":2,"b":8},"D":{"a":8,"b":2}},"conditions":["nonSeqFull","nonSeqPartial","seqNoFeedback","seqFeedback"],"classroomPairings":[["A","B"],["C","D"]],"coinWeights":[0.2,0.5,0.8],"subjectId":"A9LSEP71DNP4O","assignmentId":"3ATTHHXXWBAUIC425HIV4ACHJJ6IXW","hitId":"3QGHA0EA0JM3KKNCY0PQRLYAHJ3BWH","url":"https://gershmanlab.com/experiments/alicia/teaching/experiment/?hitId=3QGHA0EA0JM3KKNCY0PQRLYAHJ3BWH&workerId=A9LSEP71DNP4O&assignmentId=3ATTHHXXWBAUIC425HIV4ACHJJ6IXW&a=XHTA8&tp_a=XHTA8&b=3ATTHHXXWBAUIC425HIV4ACHJJ6IXW&tp_b=3ATTHHXXWBAUIC425HIV4ACHJJ6IXW&c=365198&tp_c=365198"},{"rt":null,"stimulus":"<div style=\"font-size:50px;\">First student</div>","response":null,"trial_type":"html-keyboard-response","trial_index":8,"time_elapsed":330930,"internal_node_id":"0.0-4.0","params":{"nStudents":24,"maxFlips":30,"completionMinutes":45,"basePay":8,"maxBonus":9,"perTrialBonus":0.5,"perTrialBonusThreshold":0.1,"exampleCost":0.01},"classroomParams":{"A":{"a":1,"b":4},"B":{"a":4,"b":1},"C":{"a":2,"b":8},"D":{"a":8,"b":2}},"conditions":["nonSeqFull","nonSeqPartial","seqNoFeedback","seqFeedback"],"classroomPairings":[["A","B"],["C","D"]],"coinWeights":[0.2,0.5,0.8],"subjectId":"A9LSEP71DNP4O","assignmentId":"3ATTHHXXWBAUIC425HIV4ACHJJ6IXW","hitId":"3QGHA0EA0JM3KKNCY0PQRLYAHJ3BWH","url":"https://gershmanlab.com/experiments/alicia/teaching/experiment/?hitId=3QGHA0EA0JM3KKNCY0PQRLYAHJ3BWH&workerId=A9LSEP71DNP4O&assignmentId=3ATTHHXXWBAUIC425HIV4ACHJJ6IXW&a=XHTA8&tp_a=XHTA8&b=3ATTHHXXWBAUIC425HIV4ACHJJ6IXW&tp_b=3ATTHHXXWBAUIC425HIV4ACHJJ6IXW&c=365198&tp_c=365198"},{"rt":12572,"stimulus":"\n            <h4 style=\"color:Orange;\">Student 1</h4>\n            <h2>The weight of your coin is <b style=\"color:Tomato;\">0.8</b>.</h2>\n            <p>In this block, you will be giving <b>two</b> sets of examples to Student 1.</p>\n                <p>You will see the student's guess after the first set of examples. You will also receive feedback at the end of the block.</p>\n            ","response":0,"trial_type":"html-button-response","trial_index":9,"time_elapsed":343502,"internal_node_id":"0.0-5.0","params":{"nStudents":24,"maxFlips":30,"completionMinutes":45,"basePay":8,"maxBonus":9,"perTrialBonus":0.5,"perTrialBonusThreshold":0.1,"exampleCost":0.01},"classroomParams":{"A":{"a":1,"b":4},"B":{"a":4,"b":1},"C":{"a":2,"b":8},"D":{"a":8,"b":2}},"conditions":["nonSeqFull","nonSeqPartial","seqNoFeedback","seqFeedback"],"classroomPairings":[["A","B"],["C","D"]],"coinWeights":[0.2,0.5,0.8],"subjectId":"A9LSEP71DNP4O","assignmentId":"3ATTHHXXWBAUIC425HIV4ACHJJ6IXW","hitId":"3QGHA0EA0JM3KKNCY0PQRLYAHJ3BWH","url":"https://gershmanlab.com/experiments/alicia/teaching/experiment/?hitId=3QGHA0EA0JM3KKNCY0PQRLYAHJ3BWH&workerId=A9LSEP71DNP4O&assignmentId=3ATTHHXXWBAUIC425HIV4ACHJJ6IXW&a=XHTA8&tp_a=XHTA8&b=3ATTHHXXWBAUIC425HIV4ACHJJ6IXW&tp_b=3ATTHHXXWBAUIC425HIV4ACHJJ6IXW&c=365198&tp_c=365198"},{"rt":38779,"response":{"heads":"30","tails":"0"},"type":"response","condition":"seqFeedback","trueTheta":0.8,"classrooms":["A","B"],"studentTrueClassroom":"A","exampleSet":"first","trial_type":"survey-html-form","trial_index":10,"time_elapsed":382281,"internal_node_id":"0.0-6.0-0.0","params":{"nStudents":24,"maxFlips":30,"completionMinutes":45,"basePay":8,"maxBonus":9,"perTrialBonus":0.5,"perTrialBonusThreshold":0.1,"exampleCost":0.01},"classroomParams":{"A":{"a":1,"b":4},"B":{"a":4,"b":1},"C":{"a":2,"b":8},"D":{"a":8,"b":2}},"conditions":["nonSeqFull","nonSeqPartial","seqNoFeedback","seqFeedback"],"classroomPairings":[["A","B"],["C","D"]],"coinWeights":[0.2,0.5,0.8],"subjectId":"A9LSEP71DNP4O","assignmentId":"3ATTHHXXWBAUIC425HIV4ACHJJ6IXW","hitId":"3QGHA0EA0JM3KKNCY0PQRLYAHJ3BWH","url":"https://gershmanlab.com/experiments/alicia/teaching/experiment/?hitId=3QGHA0EA0JM3KKNCY0PQRLYAHJ3BWH&workerId=A9LSEP71DNP4O&assignmentId=3ATTHHXXWBAUIC425HIV4ACHJJ6IXW&a=XHTA8&tp_a=XHTA8&b=3ATTHHXXWBAUIC425HIV4ACHJJ6IXW&tp_b=3ATTHHXXWBAUIC425HIV4ACHJJ6IXW&c=365198&tp_c=365198","heads":30,"tails":0,"studentIndex":0,"studentTrueHypers":{"a":1,"b":4},"studentGuess":0.8857142857142857,"delta":0.08571428571428563,"totalExamples":30,"bonusSoFar":0},{"rt":null,"stimulus":"Sending examples to student... ","response":null,"trial_type":"html-keyboard-response","trial_index":11,"time_elapsed":384033,"internal_node_id":"0.0-7.0","params":{"nStudents":24,"maxFlips":30,"completionMinutes":45,"basePay":8,"maxBonus":9,"perTrialBonus":0.5,"perTrialBonusThreshold":0.1,"exampleCost":0.01},"classroomParams":{"A":{"a":1,"b":4},"B":{"a":4,"b":1},"C":{"a":2,"b":8},"D":{"a":8,"b":2}},"conditions":["nonSeqFull","nonSeqPartial","seqNoFeedback","seqFeedback"],"classroomPairings":[["A","B"],["C","D"]],"coinWeights":[0.2,0.5,0.8],"subjectId":"A9LSEP71DNP4O","assignmentId":"3ATTHHXXWBAUIC425HIV4ACHJJ6IXW","hitId":"3QGHA0EA0JM3KKNCY0PQRLYAHJ3BWH","url":"https://gershmanlab.com/experiments/alicia/teaching/experiment/?hitId=3QGHA0EA0JM3KKNCY0PQRLYAHJ3BWH&workerId=A9LSEP71DNP4O&assignmentId=3ATTHHXXWBAUIC425HIV4ACHJJ6IXW&a=XHTA8&tp_a=XHTA8&b=3ATTHHXXWBAUIC425HIV4ACHJJ6IXW&tp_b=3ATTHHXXWBAUIC425HIV4ACHJJ6IXW&c=365198&tp_c=365198"},{"rt":null,"stimulus":"Examples sent to student! Waiting for student...","response":null,"trial_type":"html-keyboard-response","trial_index":12,"time_elapsed":389535,"internal_node_id":"0.0-8.0","params":{"nStudents":24,"maxFlips":30,"completionMinutes":45,"basePay":8,"maxBonus":9,"perTrialBonus":0.5,"perTrialBonusThreshold":0.1,"exampleCost":0.01},"classroomParams":{"A":{"a":1,"b":4},"B":{"a":4,"b":1},"C":{"a":2,"b":8},"D":{"a":8,"b":2}},"conditions":["nonSeqFull","nonSeqPartial","seqNoFeedback","seqFeedback"],"classroomPairings":[["A","B"],["C","D"]],"coinWeights":[0.2,0.5,0.8],"subjectId":"A9LSEP71DNP4O","assignmentId":"3ATTHHXXWBAUIC425HIV4ACHJJ6IXW","hitId":"3QGHA0EA0JM3KKNCY0PQRLYAHJ3BWH","url":"https://gershmanlab.com/experiments/alicia/teaching/experiment/?hitId=3QGHA0EA0JM3KKNCY0PQRLYAHJ3BWH&workerId=A9LSEP71DNP4O&assignmentId=3ATTHHXXWBAUIC425HIV4ACHJJ6IXW&a=XHTA8&tp_a=XHTA8&b=3ATTHHXXWBAUIC425HIV4ACHJJ6IXW&tp_b=3ATTHHXXWBAUIC425HIV4ACHJJ6IXW&c=365198&tp_c=365198"},{"rt":7774,"stimulus":"\n                <p>Student's guess for coin weight: <b style=\"color:Tomato;\">0.89</b></p>\n                <p></b></p>\n                <p>You will now send another set of examples to your student. Press any key to continue.</p>\n                ","response":"enter","trial_type":"html-keyboard-response","trial_index":13,"time_elapsed":397310,"internal_node_id":"0.0-9.0","params":{"nStudents":24,"maxFlips":30,"completionMinutes":45,"basePay":8,"maxBonus":9,"perTrialBonus":0.5,"perTrialBonusThreshold":0.1,"exampleCost":0.01},"classroomParams":{"A":{"a":1,"b":4},"B":{"a":4,"b":1},"C":{"a":2,"b":8},"D":{"a":8,"b":2}},"conditions":["nonSeqFull","nonSeqPartial","seqNoFeedback","seqFeedback"],"classroomPairings":[["A","B"],["C","D"]],"coinWeights":[0.2,0.5,0.8],"subjectId":"A9LSEP71DNP4O","assignmentId":"3ATTHHXXWBAUIC425HIV4ACHJJ6IXW","hitId":"3QGHA0EA0JM3KKNCY0PQRLYAHJ3BWH","url":"https://gershmanlab.com/experiments/alicia/teaching/experiment/?hitId=3QGHA0EA0JM3KKNCY0PQRLYAHJ3BWH&workerId=A9LSEP71DNP4O&assignmentId=3ATTHHXXWBAUIC425HIV4ACHJJ6IXW&a=XHTA8&tp_a=XHTA8&b=3ATTHHXXWBAUIC425HIV4ACHJJ6IXW&tp_b=3ATTHHXXWBAUIC425HIV4ACHJJ6IXW&c=365198&tp_c=365198"},{"rt":27194,"response":{"heads":"25","tails":"0"},"type":"response","condition":"seqFeedback","trueTheta":0.8,"classrooms":["A","B"],"studentTrueClassroom":"A","exampleSet":"second","trial_type":"survey-html-form","trial_index":14,"time_elapsed":424504,"internal_node_id":"0.0-10.0-0.0","params":{"nStudents":24,"maxFlips":30,"completionMinutes":45,"basePay":8,"maxBonus":9,"perTrialBonus":0.5,"perTrialBonusThreshold":0.1,"exampleCost":0.01},"classroomParams":{"A":{"a":1,"b":4},"B":{"a":4,"b":1},"C":{"a":2,"b":8},"D":{"a":8,"b":2}},"conditions":["nonSeqFull","nonSeqPartial","seqNoFeedback","seqFeedback"],"classroomPairings":[["A","B"],["C","D"]],"coinWeights":[0.2,0.5,0.8],"subjectId":"A9LSEP71DNP4O","assignmentId":"3ATTHHXXWBAUIC425HIV4ACHJJ6IXW","hitId":"3QGHA0EA0JM3KKNCY0PQRLYAHJ3BWH","url":"https://gershmanlab.com/experiments/alicia/teaching/experiment/?hitId=3QGHA0EA0JM3KKNCY0PQRLYAHJ3BWH&workerId=A9LSEP71DNP4O&assignmentId=3ATTHHXXWBAUIC425HIV4ACHJJ6IXW&a=XHTA8&tp_a=XHTA8&b=3ATTHHXXWBAUIC425HIV4ACHJJ6IXW&tp_b=3ATTHHXXWBAUIC425HIV4ACHJJ6IXW&c=365198&tp_c=365198","firstResponseHeads":30,"firstResponseTails":0,"secondResponseHeads":25,"secondResponseTails":0,"studentIndex":0,"studentTrueHypers":{"a":1,"b":4},"studentGuess":0.9333333333333333,"delta":0.1333333333333333,"bonus":0,"bonusSoFar":0,"totalExamples":55},{"rt":null,"stimulus":"Sending examples to student... ","response":null,"trial_type":"html-keyboard-response","trial_index":15,"time_elapsed":426505,"internal_node_id":"0.0-11.0","params":{"nStudents":24,"maxFlips":30,"completionMinutes":45,"basePay":8,"maxBonus":9,"perTrialBonus":0.5,"perTrialBonusThreshold":0.1,"exampleCost":0.01},"classroomParams":{"A":{"a":1,"b":4},"B":{"a":4,"b":1},"C":{"a":2,"b":8},"D":{"a":8,"b":2}},"conditions":["nonSeqFull","nonSeqPartial","seqNoFeedback","seqFeedback"],"classroomPairings":[["A","B"],["C","D"]],"coinWeights":[0.2,0.5,0.8],"subjectId":"A9LSEP71DNP4O","assignmentId":"3ATTHHXXWBAUIC425HIV4ACHJJ6IXW","hitId":"3QGHA0EA0JM3KKNCY0PQRLYAHJ3BWH","url":"https://gershmanlab.com/experiments/alicia/teaching/experiment/?hitId=3QGHA0EA0JM3KKNCY0PQRLYAHJ3BWH&workerId=A9LSEP71DNP4O&assignmentId=3ATTHHXXWBAUIC425HIV4ACHJJ6IXW&a=XHTA8&tp_a=XHTA8&b=3ATTHHXXWBAUIC425HIV4ACHJJ6IXW&tp_b=3ATTHHXXWBAUIC425HIV4ACHJJ6IXW&c=365198&tp_c=365198"},{"rt":null,"stimulus":"Examples sent to student! Waiting for student...","response":null,"trial_type":"html-keyboard-response","trial_index":16,"time_elapsed":432507,"internal_node_id":"0.0-12.0","params":{"nStudents":24,"maxFlips":30,"completionMinutes":45,"basePay":8,"maxBonus":9,"perTrialBonus":0.5,"perTrialBonusThreshold":0.1,"exampleCost":0.01},"classroomParams":{"A":{"a":1,"b":4},"B":{"a":4,"b":1},"C":{"a":2,"b":8},"D":{"a":8,"b":2}},"conditions":["nonSeqFull","nonSeqPartial","seqNoFeedback","seqFeedback"],"classroomPairings":[["A","B"],["C","D"]],"coinWeights":[0.2,0.5,0.8],"subjectId":"A9LSEP71DNP4O","assignmentId":"3ATTHHXXWBAUIC425HIV4ACHJJ6IXW","hitId":"3QGHA0EA0JM3KKNCY0PQRLYAHJ3BWH","url":"https://gershmanlab.com/experiments/alicia/teaching/experiment/?hitId=3QGHA0EA0JM3KKNCY0PQRLYAHJ3BWH&workerId=A9LSEP71DNP4O&assignmentId=3ATTHHXXWBAUIC425HIV4ACHJJ6IXW&a=XHTA8&tp_a=XHTA8&b=3ATTHHXXWBAUIC425HIV4ACHJJ6IXW&tp_b=3ATTHHXXWBAUIC425HIV4ACHJJ6IXW&c=365198&tp_c=365198"},{"rt":6828,"stimulus":"\n                <p>Student 1's first guess for coin weight: <b style=\"color:Tomato\";>0.89</b></p>\n                <p>Student 1's second guess for coin weight: <b style=\"color:Tomato\";>0.93</b></p>\n                <p>You received a bonus of <b>$0.00</b> based on the student's second guess.</p>\n                <p>Total bonus so far: <b>$0.00</b></p>\n                <p>Press any key to continue.</p>\n                ","response":"enter","trial_type":"html-keyboard-response","trial_index":17,"time_elapsed":439337,"internal_node_id":"0.0-13.0","params":{"nStudents":24,"maxFlips":30,"completionMinutes":45,"basePay":8,"maxBonus":9,"perTrialBonus":0.5,"perTrialBonusThreshold":0.1,"exampleCost":0.01},"classroomParams":{"A":{"a":1,"b":4},"B":{"a":4,"b":1},"C":{"a":2,"b":8},"D":{"a":8,"b":2}},"conditions":["nonSeqFull","nonSeqPartial","seqNoFeedback","seqFeedback"],"classroomPairings":[["A","B"],["C","D"]],"coinWeights":[0.2,0.5,0.8],"subjectId":"A9LSEP71DNP4O","assignmentId":"3ATTHHXXWBAUIC425HIV4ACHJJ6IXW","hitId":"3QGHA0EA0JM3KKNCY0PQRLYAHJ3BWH","url":"https://gershmanlab.com/experiments/alicia/teaching/experiment/?hitId=3QGHA0EA0JM3KKNCY0PQRLYAHJ3BWH&workerId=A9LSEP71DNP4O&assignmentId=3ATTHHXXWBAUIC425HIV4ACHJJ6IXW&a=XHTA8&tp_a=XHTA8&b=3ATTHHXXWBAUIC425HIV4ACHJJ6IXW&tp_b=3ATTHHXXWBAUIC425HIV4ACHJJ6IXW&c=365198&tp_c=365198"},{"rt":null,"stimulus":"<div style=\"font-size:60px;\">Next student</div>","response":null,"trial_type":"html-keyboard-response","trial_index":18,"time_elapsed":442339,"internal_node_id":"0.0-14.0-0.0","params":{"nStudents":24,"maxFlips":30,"completionMinutes":45,"basePay":8,"maxBonus":9,"perTrialBonus":0.5,"perTrialBonusThreshold":0.1,"exampleCost":0.01},"classroomParams":{"A":{"a":1,"b":4},"B":{"a":4,"b":1},"C":{"a":2,"b":8},"D":{"a":8,"b":2}},"conditions":["nonSeqFull","nonSeqPartial","seqNoFeedback","seqFeedback"],"classroomPairings":[["A","B"],["C","D"]],"coinWeights":[0.2,0.5,0.8],"subjectId":"A9LSEP71DNP4O","assignmentId":"3ATTHHXXWBAUIC425HIV4ACHJJ6IXW","hitId":"3QGHA0EA0JM3KKNCY0PQRLYAHJ3BWH","url":"https://gershmanlab.com/experiments/alicia/teaching/experiment/?hitId=3QGHA0EA0JM3KKNCY0PQRLYAHJ3BWH&workerId=A9LSEP71DNP4O&assignmentId=3ATTHHXXWBAUIC425HIV4ACHJJ6IXW&a=XHTA8&tp_a=XHTA8&b=3ATTHHXXWBAUIC425HIV4ACHJJ6IXW&tp_b=3ATTHHXXWBAUIC425HIV4ACHJJ6IXW&c=365198&tp_c=365198"},{"rt":3336,"stimulus":"\n            <h4 style=\"color:Orange;\">Student 2</h4>\n            <h2>The weight of your coin is <b style=\"color:Tomato;\">0.2</b>.</h2>\n            <p>In this block, you will be giving <b>one</b> set of examples to Student 2.</p>\n                <p>You will receive feedback at the end of the block.</p>\n            ","response":0,"trial_type":"html-button-response","trial_index":19,"time_elapsed":445675,"internal_node_id":"0.0-15.0","params":{"nStudents":24,"maxFlips":30,"completionMinutes":45,"basePay":8,"maxBonus":9,"perTrialBonus":0.5,"perTrialBonusThreshold":0.1,"exampleCost":0.01},"classroomParams":{"A":{"a":1,"b":4},"B":{"a":4,"b":1},"C":{"a":2,"b":8},"D":{"a":8,"b":2}},"conditions":["nonSeqFull","nonSeqPartial","seqNoFeedback","seqFeedback"],"classroomPairings":[["A","B"],["C","D"]],"coinWeights":[0.2,0.5,0.8],"subjectId":"A9LSEP71DNP4O","assignmentId":"3ATTHHXXWBAUIC425HIV4ACHJJ6IXW","hitId":"3QGHA0EA0JM3KKNCY0PQRLYAHJ3BWH","url":"https://gershmanlab.com/experiments/alicia/teaching/experiment/?hitId=3QGHA0EA0JM3KKNCY0PQRLYAHJ3BWH&workerId=A9LSEP71DNP4O&assignmentId=3ATTHHXXWBAUIC425HIV4ACHJJ6IXW&a=XHTA8&tp_a=XHTA8&b=3ATTHHXXWBAUIC425HIV4ACHJJ6IXW&tp_b=3ATTHHXXWBAUIC425HIV4ACHJJ6IXW&c=365198&tp_c=365198"},{"rt":4375,"response":{"heads":"0","tails":"2"},"type":"response","condition":"nonSeqPartial","trueTheta":0.2,"classrooms":["A","B"],"studentTrueClassroom":"A","exampleSet":"first","trial_type":"survey-html-form","trial_index":20,"time_elapsed":450051,"internal_node_id":"0.0-16.0-0.0","params":{"nStudents":24,"maxFlips":30,"completionMinutes":45,"basePay":8,"maxBonus":9,"perTrialBonus":0.5,"perTrialBonusThreshold":0.1,"exampleCost":0.01},"classroomParams":{"A":{"a":1,"b":4},"B":{"a":4,"b":1},"C":{"a":2,"b":8},"D":{"a":8,"b":2}},"conditions":["nonSeqFull","nonSeqPartial","seqNoFeedback","seqFeedback"],"classroomPairings":[["A","B"],["C","D"]],"coinWeights":[0.2,0.5,0.8],"subjectId":"A9LSEP71DNP4O","assignmentId":"3ATTHHXXWBAUIC425HIV4ACHJJ6IXW","hitId":"3QGHA0EA0JM3KKNCY0PQRLYAHJ3BWH","url":"https://gershmanlab.com/experiments/alicia/teaching/experiment/?hitId=3QGHA0EA0JM3KKNCY0PQRLYAHJ3BWH&workerId=A9LSEP71DNP4O&assignmentId=3ATTHHXXWBAUIC425HIV4ACHJJ6IXW&a=XHTA8&tp_a=XHTA8&b=3ATTHHXXWBAUIC425HIV4ACHJJ6IXW&tp_b=3ATTHHXXWBAUIC425HIV4ACHJJ6IXW&c=365198&tp_c=365198","heads":0,"tails":2,"studentIndex":1,"studentTrueHypers":{"a":1,"b":4},"studentGuess":0.14285714285714285,"delta":0.05714285714285716,"totalExamples":2,"bonus":0.48,"bonusSoFar":0.48},{"rt":null,"stimulus":"Sending examples to student... ","response":null,"trial_type":"html-keyboard-response","trial_index":21,"time_elapsed":451302,"internal_node_id":"0.0-17.0","params":{"nStudents":24,"maxFlips":30,"completionMinutes":45,"basePay":8,"maxBonus":9,"perTrialBonus":0.5,"perTrialBonusThreshold":0.1,"exampleCost":0.01},"classroomParams":{"A":{"a":1,"b":4},"B":{"a":4,"b":1},"C":{"a":2,"b":8},"D":{"a":8,"b":2}},"conditions":["nonSeqFull","nonSeqPartial","seqNoFeedback","seqFeedback"],"classroomPairings":[["A","B"],["C","D"]],"coinWeights":[0.2,0.5,0.8],"subjectId":"A9LSEP71DNP4O","assignmentId":"3ATTHHXXWBAUIC425HIV4ACHJJ6IXW","hitId":"3QGHA0EA0JM3KKNCY0PQRLYAHJ3BWH","url":"https://gershmanlab.com/experiments/alicia/teaching/experiment/?hitId=3QGHA0EA0JM3KKNCY0PQRLYAHJ3BWH&workerId=A9LSEP71DNP4O&assignmentId=3ATTHHXXWBAUIC425HIV4ACHJJ6IXW&a=XHTA8&tp_a=XHTA8&b=3ATTHHXXWBAUIC425HIV4ACHJJ6IXW&tp_b=3ATTHHXXWBAUIC425HIV4ACHJJ6IXW&c=365198&tp_c=365198"},{"rt":null,"stimulus":"Examples sent to student! Waiting for student...","response":null,"trial_type":"html-keyboard-response","trial_index":22,"time_elapsed":457305,"internal_node_id":"0.0-18.0","params":{"nStudents":24,"maxFlips":30,"completionMinutes":45,"basePay":8,"maxBonus":9,"perTrialBonus":0.5,"perTrialBonusThreshold":0.1,"exampleCost":0.01},"classroomParams":{"A":{"a":1,"b":4},"B":{"a":4,"b":1},"C":{"a":2,"b":8},"D":{"a":8,"b":2}},"conditions":["nonSeqFull","nonSeqPartial","seqNoFeedback","seqFeedback"],"classroomPairings":[["A","B"],["C","D"]],"coinWeights":[0.2,0.5,0.8],"subjectId":"A9LSEP71DNP4O","assignmentId":"3ATTHHXXWBAUIC425HIV4ACHJJ6IXW","hitId":"3QGHA0EA0JM3KKNCY0PQRLYAHJ3BWH","url":"https://gershmanlab.com/experiments/alicia/teaching/experiment/?hitId=3QGHA0EA0JM3KKNCY0PQRLYAHJ3BWH&workerId=A9LSEP71DNP4O&assignmentId=3ATTHHXXWBAUIC425HIV4ACHJJ6IXW&a=XHTA8&tp_a=XHTA8&b=3ATTHHXXWBAUIC425HIV4ACHJJ6IXW&tp_b=3ATTHHXXWBAUIC425HIV4ACHJJ6IXW&c=365198&tp_c=365198"},{"rt":11487,"stimulus":"\n                <p>Student's guess for coin weight: <b style=\"color:Tomato;\">0.14</b></p>\n                <p>You received a bonus of <b>$0.48</b>. Total bonus so far: <b>$0.48</b></b></p>\n                <p> Press any key to continue.</p>\n                ","response":"enter","trial_type":"html-keyboard-response","trial_index":23,"time_elapsed":468793,"internal_node_id":"0.0-19.0","params":{"nStudents":24,"maxFlips":30,"completionMinutes":45,"basePay":8,"maxBonus":9,"perTrialBonus":0.5,"perTrialBonusThreshold":0.1,"exampleCost":0.01},"classroomParams":{"A":{"a":1,"b":4},"B":{"a":4,"b":1},"C":{"a":2,"b":8},"D":{"a":8,"b":2}},"conditions":["nonSeqFull","nonSeqPartial","seqNoFeedback","seqFeedback"],"classroomPairings":[["A","B"],["C","D"]],"coinWeights":[0.2,0.5,0.8],"subjectId":"A9LSEP71DNP4O","assignmentId":"3ATTHHXXWBAUIC425HIV4ACHJJ6IXW","hitId":"3QGHA0EA0JM3KKNCY0PQRLYAHJ3BWH","url":"https://gershmanlab.com/experiments/alicia/teaching/experiment/?hitId=3QGHA0EA0JM3KKNCY0PQRLYAHJ3BWH&workerId=A9LSEP71DNP4O&assignmentId=3ATTHHXXWBAUIC425HIV4ACHJJ6IXW&a=XHTA8&tp_a=XHTA8&b=3ATTHHXXWBAUIC425HIV4ACHJJ6IXW&tp_b=3ATTHHXXWBAUIC425HIV4ACHJJ6IXW&c=365198&tp_c=365198"},{"rt":null,"stimulus":"<div style=\"font-size:60px;\">Next student</div>","response":null,"trial_type":"html-keyboard-response","trial_index":24,"time_elapsed":470795,"internal_node_id":"0.0-20.0-0.0","params":{"nStudents":24,"maxFlips":30,"completionMinutes":45,"basePay":8,"maxBonus":9,"perTrialBonus":0.5,"perTrialBonusThreshold":0.1,"exampleCost":0.01},"classroomParams":{"A":{"a":1,"b":4},"B":{"a":4,"b":1},"C":{"a":2,"b":8},"D":{"a":8,"b":2}},"conditions":["nonSeqFull","nonSeqPartial","seqNoFeedback","seqFeedback"],"classroomPairings":[["A","B"],["C","D"]],"coinWeights":[0.2,0.5,0.8],"subjectId":"A9LSEP71DNP4O","assignmentId":"3ATTHHXXWBAUIC425HIV4ACHJJ6IXW","hitId":"3QGHA0EA0JM3KKNCY0PQRLYAHJ3BWH","url":"https://gershmanlab.com/experiments/alicia/teaching/experiment/?hitId=3QGHA0EA0JM3KKNCY0PQRLYAHJ3BWH&workerId=A9LSEP71DNP4O&assignmentId=3ATTHHXXWBAUIC425HIV4ACHJJ6IXW&a=XHTA8&tp_a=XHTA8&b=3ATTHHXXWBAUIC425HIV4ACHJJ6IXW&tp_b=3ATTHHXXWBAUIC425HIV4ACHJJ6IXW&c=365198&tp_c=365198"},{"rt":3782,"stimulus":"\n            <h4 style=\"color:Orange;\">Student 3</h4>\n            <h2>The weight of your coin is <b style=\"color:Tomato;\">0.8</b>.</h2>\n            <p>In this block, you will be giving <b>one</b> set of examples to Student 3.</p>\n                <p>You will receive feedback at the end of the block.</p>\n            ","response":0,"trial_type":"html-button-response","trial_index":25,"time_elapsed":474577,"internal_node_id":"0.0-21.0","params":{"nStudents":24,"maxFlips":30,"completionMinutes":45,"basePay":8,"maxBonus":9,"perTrialBonus":0.5,"perTrialBonusThreshold":0.1,"exampleCost":0.01},"classroomParams":{"A":{"a":1,"b":4},"B":{"a":4,"b":1},"C":{"a":2,"b":8},"D":{"a":8,"b":2}},"conditions":["nonSeqFull","nonSeqPartial","seqNoFeedback","seqFeedback"],"classroomPairings":[["A","B"],["C","D"]],"coinWeights":[0.2,0.5,0.8],"subjectId":"A9LSEP71DNP4O","assignmentId":"3ATTHHXXWBAUIC425HIV4ACHJJ6IXW","hitId":"3QGHA0EA0JM3KKNCY0PQRLYAHJ3BWH","url":"https://gershmanlab.com/experiments/alicia/teaching/experiment/?hitId=3QGHA0EA0JM3KKNCY0PQRLYAHJ3BWH&workerId=A9LSEP71DNP4O&assignmentId=3ATTHHXXWBAUIC425HIV4ACHJJ6IXW&a=XHTA8&tp_a=XHTA8&b=3ATTHHXXWBAUIC425HIV4ACHJJ6IXW&tp_b=3ATTHHXXWBAUIC425HIV4ACHJJ6IXW&c=365198&tp_c=365198"},{"rt":2546,"response":{"heads":"8","tails":"0"},"type":"response","condition":"nonSeqFull","trueTheta":0.8,"classrooms":["C","D"],"studentTrueClassroom":"C","exampleSet":"first","trial_type":"survey-html-form","trial_index":26,"time_elapsed":477124,"internal_node_id":"0.0-22.0-0.0","params":{"nStudents":24,"maxFlips":30,"completionMinutes":45,"basePay":8,"maxBonus":9,"perTrialBonus":0.5,"perTrialBonusThreshold":0.1,"exampleCost":0.01},"classroomParams":{"A":{"a":1,"b":4},"B":{"a":4,"b":1},"C":{"a":2,"b":8},"D":{"a":8,"b":2}},"conditions":["nonSeqFull","nonSeqPartial","seqNoFeedback","seqFeedback"],"classroomPairings":[["A","B"],["C","D"]],"coinWeights":[0.2,0.5,0.8],"subjectId":"A9LSEP71DNP4O","assignmentId":"3ATTHHXXWBAUIC425HIV4ACHJJ6IXW","hitId":"3QGHA0EA0JM3KKNCY0PQRLYAHJ3BWH","url":"https://gershmanlab.com/experiments/alicia/teaching/experiment/?hitId=3QGHA0EA0JM3KKNCY0PQRLYAHJ3BWH&workerId=A9LSEP71DNP4O&assignmentId=3ATTHHXXWBAUIC425HIV4ACHJJ6IXW&a=XHTA8&tp_a=XHTA8&b=3ATTHHXXWBAUIC425HIV4ACHJJ6IXW&tp_b=3ATTHHXXWBAUIC425HIV4ACHJJ6IXW&c=365198&tp_c=365198","heads":8,"tails":0,"studentIndex":2,"studentTrueHypers":{"a":2,"b":8},"studentGuess":0.5555555555555556,"delta":0.24444444444444446,"totalExamples":8,"bonus":0,"bonusSoFar":0.48},{"rt":null,"stimulus":"Sending examples to student... ","response":null,"trial_type":"html-keyboard-response","trial_index":27,"time_elapsed":479126,"internal_node_id":"0.0-23.0","params":{"nStudents":24,"maxFlips":30,"completionMinutes":45,"basePay":8,"maxBonus":9,"perTrialBonus":0.5,"perTrialBonusThreshold":0.1,"exampleCost":0.01},"classroomParams":{"A":{"a":1,"b":4},"B":{"a":4,"b":1},"C":{"a":2,"b":8},"D":{"a":8,"b":2}},"conditions":["nonSeqFull","nonSeqPartial","seqNoFeedback","seqFeedback"],"classroomPairings":[["A","B"],["C","D"]],"coinWeights":[0.2,0.5,0.8],"subjectId":"A9LSEP71DNP4O","assignmentId":"3ATTHHXXWBAUIC425HIV4ACHJJ6IXW","hitId":"3QGHA0EA0JM3KKNCY0PQRLYAHJ3BWH","url":"https://gershmanlab.com/experiments/alicia/teaching/experiment/?hitId=3QGHA0EA0JM3KKNCY0PQRLYAHJ3BWH&workerId=A9LSEP71DNP4O&assignmentId=3ATTHHXXWBAUIC425HIV4ACHJJ6IXW&a=XHTA8&tp_a=XHTA8&b=3ATTHHXXWBAUIC425HIV4ACHJJ6IXW&tp_b=3ATTHHXXWBAUIC425HIV4ACHJJ6IXW&c=365198&tp_c=365198"},{"rt":null,"stimulus":"Examples sent to student! Waiting for student...","response":null,"trial_type":"html-keyboard-response","trial_index":28,"time_elapsed":484627,"internal_node_id":"0.0-24.0","params":{"nStudents":24,"maxFlips":30,"completionMinutes":45,"basePay":8,"maxBonus":9,"perTrialBonus":0.5,"perTrialBonusThreshold":0.1,"exampleCost":0.01},"classroomParams":{"A":{"a":1,"b":4},"B":{"a":4,"b":1},"C":{"a":2,"b":8},"D":{"a":8,"b":2}},"conditions":["nonSeqFull","nonSeqPartial","seqNoFeedback","seqFeedback"],"classroomPairings":[["A","B"],["C","D"]],"coinWeights":[0.2,0.5,0.8],"subjectId":"A9LSEP71DNP4O","assignmentId":"3ATTHHXXWBAUIC425HIV4ACHJJ6IXW","hitId":"3QGHA0EA0JM3KKNCY0PQRLYAHJ3BWH","url":"https://gershmanlab.com/experiments/alicia/teaching/experiment/?hitId=3QGHA0EA0JM3KKNCY0PQRLYAHJ3BWH&workerId=A9LSEP71DNP4O&assignmentId=3ATTHHXXWBAUIC425HIV4ACHJJ6IXW&a=XHTA8&tp_a=XHTA8&b=3ATTHHXXWBAUIC425HIV4ACHJJ6IXW&tp_b=3ATTHHXXWBAUIC425HIV4ACHJJ6IXW&c=365198&tp_c=365198"},{"rt":2673,"stimulus":"\n                <p>Student's guess for coin weight: <b style=\"color:Tomato;\">0.56</b></p>\n                <p>You received a bonus of <b>$0</b>. Total bonus so far: <b>$0.48</b></b></p>\n                <p> Press any key to continue.</p>\n                ","response":"enter","trial_type":"html-keyboard-response","trial_index":29,"time_elapsed":487300,"internal_node_id":"0.0-25.0","params":{"nStudents":24,"maxFlips":30,"completionMinutes":45,"basePay":8,"maxBonus":9,"perTrialBonus":0.5,"perTrialBonusThreshold":0.1,"exampleCost":0.01},"classroomParams":{"A":{"a":1,"b":4},"B":{"a":4,"b":1},"C":{"a":2,"b":8},"D":{"a":8,"b":2}},"conditions":["nonSeqFull","nonSeqPartial","seqNoFeedback","seqFeedback"],"classroomPairings":[["A","B"],["C","D"]],"coinWeights":[0.2,0.5,0.8],"subjectId":"A9LSEP71DNP4O","assignmentId":"3ATTHHXXWBAUIC425HIV4ACHJJ6IXW","hitId":"3QGHA0EA0JM3KKNCY0PQRLYAHJ3BWH","url":"https://gershmanlab.com/experiments/alicia/teaching/experiment/?hitId=3QGHA0EA0JM3KKNCY0PQRLYAHJ3BWH&workerId=A9LSEP71DNP4O&assignmentId=3ATTHHXXWBAUIC425HIV4ACHJJ6IXW&a=XHTA8&tp_a=XHTA8&b=3ATTHHXXWBAUIC425HIV4ACHJJ6IXW&tp_b=3ATTHHXXWBAUIC425HIV4ACHJJ6IXW&c=365198&tp_c=365198"},{"rt":null,"stimulus":"<div style=\"font-size:60px;\">Next student</div>","response":null,"trial_type":"html-keyboard-response","trial_index":30,"time_elapsed":489802,"internal_node_id":"0.0-26.0-0.0","params":{"nStudents":24,"maxFlips":30,"completionMinutes":45,"basePay":8,"maxBonus":9,"perTrialBonus":0.5,"perTrialBonusThreshold":0.1,"exampleCost":0.01},"classroomParams":{"A":{"a":1,"b":4},"B":{"a":4,"b":1},"C":{"a":2,"b":8},"D":{"a":8,"b":2}},"conditions":["nonSeqFull","nonSeqPartial","seqNoFeedback","seqFeedback"],"classroomPairings":[["A","B"],["C","D"]],"coinWeights":[0.2,0.5,0.8],"subjectId":"A9LSEP71DNP4O","assignmentId":"3ATTHHXXWBAUIC425HIV4ACHJJ6IXW","hitId":"3QGHA0EA0JM3KKNCY0PQRLYAHJ3BWH","url":"https://gershmanlab.com/experiments/alicia/teaching/experiment/?hitId=3QGHA0EA0JM3KKNCY0PQRLYAHJ3BWH&workerId=A9LSEP71DNP4O&assignmentId=3ATTHHXXWBAUIC425HIV4ACHJJ6IXW&a=XHTA8&tp_a=XHTA8&b=3ATTHHXXWBAUIC425HIV4ACHJJ6IXW&tp_b=3ATTHHXXWBAUIC425HIV4ACHJJ6IXW&c=365198&tp_c=365198"},{"rt":1436,"stimulus":"\n            <h4 style=\"color:Orange;\">Student 4</h4>\n            <h2>The weight of your coin is <b style=\"color:Tomato;\">0.2</b>.</h2>\n            <p>In this block, you will be giving <b>two</b> sets of examples to Student 4.</p>\n                <p>You will see the student's guess after the first set of examples. You will also receive feedback at the end of the block.</p>\n            ","response":0,"trial_type":"html-button-response","trial_index":31,"time_elapsed":491239,"internal_node_id":"0.0-27.0","params":{"nStudents":24,"maxFlips":30,"completionMinutes":45,"basePay":8,"maxBonus":9,"perTrialBonus":0.5,"perTrialBonusThreshold":0.1,"exampleCost":0.01},"classroomParams":{"A":{"a":1,"b":4},"B":{"a":4,"b":1},"C":{"a":2,"b":8},"D":{"a":8,"b":2}},"conditions":["nonSeqFull","nonSeqPartial","seqNoFeedback","seqFeedback"],"classroomPairings":[["A","B"],["C","D"]],"coinWeights":[0.2,0.5,0.8],"subjectId":"A9LSEP71DNP4O","assignmentId":"3ATTHHXXWBAUIC425HIV4ACHJJ6IXW","hitId":"3QGHA0EA0JM3KKNCY0PQRLYAHJ3BWH","url":"https://gershmanlab.com/experiments/alicia/teaching/experiment/?hitId=3QGHA0EA0JM3KKNCY0PQRLYAHJ3BWH&workerId=A9LSEP71DNP4O&assignmentId=3ATTHHXXWBAUIC425HIV4ACHJJ6IXW&a=XHTA8&tp_a=XHTA8&b=3ATTHHXXWBAUIC425HIV4ACHJJ6IXW&tp_b=3ATTHHXXWBAUIC425HIV4ACHJJ6IXW&c=365198&tp_c=365198"},{"rt":6028,"response":{"heads":"0","tails":"2"},"type":"response","condition":"seqFeedback","trueTheta":0.2,"classrooms":["C","D"],"studentTrueClassroom":"D","exampleSet":"first","trial_type":"survey-html-form","trial_index":32,"time_elapsed":497267,"internal_node_id":"0.0-28.0-0.0","params":{"nStudents":24,"maxFlips":30,"completionMinutes":45,"basePay":8,"maxBonus":9,"perTrialBonus":0.5,"perTrialBonusThreshold":0.1,"exampleCost":0.01},"classroomParams":{"A":{"a":1,"b":4},"B":{"a":4,"b":1},"C":{"a":2,"b":8},"D":{"a":8,"b":2}},"conditions":["nonSeqFull","nonSeqPartial","seqNoFeedback","seqFeedback"],"classroomPairings":[["A","B"],["C","D"]],"coinWeights":[0.2,0.5,0.8],"subjectId":"A9LSEP71DNP4O","assignmentId":"3ATTHHXXWBAUIC425HIV4ACHJJ6IXW","hitId":"3QGHA0EA0JM3KKNCY0PQRLYAHJ3BWH","url":"https://gershmanlab.com/experiments/alicia/teaching/experiment/?hitId=3QGHA0EA0JM3KKNCY0PQRLYAHJ3BWH&workerId=A9LSEP71DNP4O&assignmentId=3ATTHHXXWBAUIC425HIV4ACHJJ6IXW&a=XHTA8&tp_a=XHTA8&b=3ATTHHXXWBAUIC425HIV4ACHJJ6IXW&tp_b=3ATTHHXXWBAUIC425HIV4ACHJJ6IXW&c=365198&tp_c=365198","heads":0,"tails":2,"studentIndex":3,"studentTrueHypers":{"a":8,"b":2},"studentGuess":0.6666666666666666,"delta":0.4666666666666666,"totalExamples":2,"bonusSoFar":0.48},{"rt":null,"stimulus":"Sending examples to student... ","response":null,"trial_type":"html-keyboard-response","trial_index":33,"time_elapsed":498518,"internal_node_id":"0.0-29.0","params":{"nStudents":24,"maxFlips":30,"completionMinutes":45,"basePay":8,"maxBonus":9,"perTrialBonus":0.5,"perTrialBonusThreshold":0.1,"exampleCost":0.01},"classroomParams":{"A":{"a":1,"b":4},"B":{"a":4,"b":1},"C":{"a":2,"b":8},"D":{"a":8,"b":2}},"conditions":["nonSeqFull","nonSeqPartial","seqNoFeedback","seqFeedback"],"classroomPairings":[["A","B"],["C","D"]],"coinWeights":[0.2,0.5,0.8],"subjectId":"A9LSEP71DNP4O","assignmentId":"3ATTHHXXWBAUIC425HIV4ACHJJ6IXW","hitId":"3QGHA0EA0JM3KKNCY0PQRLYAHJ3BWH","url":"https://gershmanlab.com/experiments/alicia/teaching/experiment/?hitId=3QGHA0EA0JM3KKNCY0PQRLYAHJ3BWH&workerId=A9LSEP71DNP4O&assignmentId=3ATTHHXXWBAUIC425HIV4ACHJJ6IXW&a=XHTA8&tp_a=XHTA8&b=3ATTHHXXWBAUIC425HIV4ACHJJ6IXW&tp_b=3ATTHHXXWBAUIC425HIV4ACHJJ6IXW&c=365198&tp_c=365198"},{"rt":null,"stimulus":"Examples sent to student! Waiting for student...","response":null,"trial_type":"html-keyboard-response","trial_index":34,"time_elapsed":503520,"internal_node_id":"0.0-30.0","params":{"nStudents":24,"maxFlips":30,"completionMinutes":45,"basePay":8,"maxBonus":9,"perTrialBonus":0.5,"perTrialBonusThreshold":0.1,"exampleCost":0.01},"classroomParams":{"A":{"a":1,"b":4},"B":{"a":4,"b":1},"C":{"a":2,"b":8},"D":{"a":8,"b":2}},"conditions":["nonSeqFull","nonSeqPartial","seqNoFeedback","seqFeedback"],"classroomPairings":[["A","B"],["C","D"]],"coinWeights":[0.2,0.5,0.8],"subjectId":"A9LSEP71DNP4O","assignmentId":"3ATTHHXXWBAUIC425HIV4ACHJJ6IXW","hitId":"3QGHA0EA0JM3KKNCY0PQRLYAHJ3BWH","url":"https://gershmanlab.com/experiments/alicia/teaching/experiment/?hitId=3QGHA0EA0JM3KKNCY0PQRLYAHJ3BWH&workerId=A9LSEP71DNP4O&assignmentId=3ATTHHXXWBAUIC425HIV4ACHJJ6IXW&a=XHTA8&tp_a=XHTA8&b=3ATTHHXXWBAUIC425HIV4ACHJJ6IXW&tp_b=3ATTHHXXWBAUIC425HIV4ACHJJ6IXW&c=365198&tp_c=365198"},{"rt":3226,"stimulus":"\n                <p>Student's guess for coin weight: <b style=\"color:Tomato;\">0.67</b></p>\n                <p></b></p>\n                <p>You will now send another set of examples to your student. Press any key to continue.</p>\n                ","response":"enter","trial_type":"html-keyboard-response","trial_index":35,"time_elapsed":506747,"internal_node_id":"0.0-31.0","params":{"nStudents":24,"maxFlips":30,"completionMinutes":45,"basePay":8,"maxBonus":9,"perTrialBonus":0.5,"perTrialBonusThreshold":0.1,"exampleCost":0.01},"classroomParams":{"A":{"a":1,"b":4},"B":{"a":4,"b":1},"C":{"a":2,"b":8},"D":{"a":8,"b":2}},"conditions":["nonSeqFull","nonSeqPartial","seqNoFeedback","seqFeedback"],"classroomPairings":[["A","B"],["C","D"]],"coinWeights":[0.2,0.5,0.8],"subjectId":"A9LSEP71DNP4O","assignmentId":"3ATTHHXXWBAUIC425HIV4ACHJJ6IXW","hitId":"3QGHA0EA0JM3KKNCY0PQRLYAHJ3BWH","url":"https://gershmanlab.com/experiments/alicia/teaching/experiment/?hitId=3QGHA0EA0JM3KKNCY0PQRLYAHJ3BWH&workerId=A9LSEP71DNP4O&assignmentId=3ATTHHXXWBAUIC425HIV4ACHJJ6IXW&a=XHTA8&tp_a=XHTA8&b=3ATTHHXXWBAUIC425HIV4ACHJJ6IXW&tp_b=3ATTHHXXWBAUIC425HIV4ACHJJ6IXW&c=365198&tp_c=365198"},{"rt":5081,"response":{"heads":"0","tails":"8"},"type":"response","condition":"seqFeedback","trueTheta":0.2,"classrooms":["C","D"],"studentTrueClassroom":"D","exampleSet":"second","trial_type":"survey-html-form","trial_index":36,"time_elapsed":511829,"internal_node_id":"0.0-32.0-0.0","params":{"nStudents":24,"maxFlips":30,"completionMinutes":45,"basePay":8,"maxBonus":9,"perTrialBonus":0.5,"perTrialBonusThreshold":0.1,"exampleCost":0.01},"classroomParams":{"A":{"a":1,"b":4},"B":{"a":4,"b":1},"C":{"a":2,"b":8},"D":{"a":8,"b":2}},"conditions":["nonSeqFull","nonSeqPartial","seqNoFeedback","seqFeedback"],"classroomPairings":[["A","B"],["C","D"]],"coinWeights":[0.2,0.5,0.8],"subjectId":"A9LSEP71DNP4O","assignmentId":"3ATTHHXXWBAUIC425HIV4ACHJJ6IXW","hitId":"3QGHA0EA0JM3KKNCY0PQRLYAHJ3BWH","url":"https://gershmanlab.com/experiments/alicia/teaching/experiment/?hitId=3QGHA0EA0JM3KKNCY0PQRLYAHJ3BWH&workerId=A9LSEP71DNP4O&assignmentId=3ATTHHXXWBAUIC425HIV4ACHJJ6IXW&a=XHTA8&tp_a=XHTA8&b=3ATTHHXXWBAUIC425HIV4ACHJJ6IXW&tp_b=3ATTHHXXWBAUIC425HIV4ACHJJ6IXW&c=365198&tp_c=365198","firstResponseHeads":0,"firstResponseTails":2,"secondResponseHeads":0,"secondResponseTails":8,"studentIndex":3,"studentTrueHypers":{"a":8,"b":2},"studentGuess":0.4,"delta":0.2,"bonus":0,"bonusSoFar":0.48,"totalExamples":10},{"rt":null,"stimulus":"Sending examples to student... ","response":null,"trial_type":"html-keyboard-response","trial_index":37,"time_elapsed":513581,"internal_node_id":"0.0-33.0","params":{"nStudents":24,"maxFlips":30,"completionMinutes":45,"basePay":8,"maxBonus":9,"perTrialBonus":0.5,"perTrialBonusThreshold":0.1,"exampleCost":0.01},"classroomParams":{"A":{"a":1,"b":4},"B":{"a":4,"b":1},"C":{"a":2,"b":8},"D":{"a":8,"b":2}},"conditions":["nonSeqFull","nonSeqPartial","seqNoFeedback","seqFeedback"],"classroomPairings":[["A","B"],["C","D"]],"coinWeights":[0.2,0.5,0.8],"subjectId":"A9LSEP71DNP4O","assignmentId":"3ATTHHXXWBAUIC425HIV4ACHJJ6IXW","hitId":"3QGHA0EA0JM3KKNCY0PQRLYAHJ3BWH","url":"https://gershmanlab.com/experiments/alicia/teaching/experiment/?hitId=3QGHA0EA0JM3KKNCY0PQRLYAHJ3BWH&workerId=A9LSEP71DNP4O&assignmentId=3ATTHHXXWBAUIC425HIV4ACHJJ6IXW&a=XHTA8&tp_a=XHTA8&b=3ATTHHXXWBAUIC425HIV4ACHJJ6IXW&tp_b=3ATTHHXXWBAUIC425HIV4ACHJJ6IXW&c=365198&tp_c=365198"},{"rt":null,"stimulus":"Examples sent to student! Waiting for student...","response":null,"trial_type":"html-keyboard-response","trial_index":38,"time_elapsed":518582,"internal_node_id":"0.0-34.0","params":{"nStudents":24,"maxFlips":30,"completionMinutes":45,"basePay":8,"maxBonus":9,"perTrialBonus":0.5,"perTrialBonusThreshold":0.1,"exampleCost":0.01},"classroomParams":{"A":{"a":1,"b":4},"B":{"a":4,"b":1},"C":{"a":2,"b":8},"D":{"a":8,"b":2}},"conditions":["nonSeqFull","nonSeqPartial","seqNoFeedback","seqFeedback"],"classroomPairings":[["A","B"],["C","D"]],"coinWeights":[0.2,0.5,0.8],"subjectId":"A9LSEP71DNP4O","assignmentId":"3ATTHHXXWBAUIC425HIV4ACHJJ6IXW","hitId":"3QGHA0EA0JM3KKNCY0PQRLYAHJ3BWH","url":"https://gershmanlab.com/experiments/alicia/teaching/experiment/?hitId=3QGHA0EA0JM3KKNCY0PQRLYAHJ3BWH&workerId=A9LSEP71DNP4O&assignmentId=3ATTHHXXWBAUIC425HIV4ACHJJ6IXW&a=XHTA8&tp_a=XHTA8&b=3ATTHHXXWBAUIC425HIV4ACHJJ6IXW&tp_b=3ATTHHXXWBAUIC425HIV4ACHJJ6IXW&c=365198&tp_c=365198"},{"rt":3422,"stimulus":"\n                <p>Student 4's first guess for coin weight: <b style=\"color:Tomato\";>0.67</b></p>\n                <p>Student 4's second guess for coin weight: <b style=\"color:Tomato\";>0.40</b></p>\n                <p>You received a bonus of <b>$0.00</b> based on the student's second guess.</p>\n                <p>Total bonus so far: <b>$0.48</b></p>\n                <p>Press any key to continue.</p>\n                ","response":"enter","trial_type":"html-keyboard-response","trial_index":39,"time_elapsed":522005,"internal_node_id":"0.0-35.0","params":{"nStudents":24,"maxFlips":30,"completionMinutes":45,"basePay":8,"maxBonus":9,"perTrialBonus":0.5,"perTrialBonusThreshold":0.1,"exampleCost":0.01},"classroomParams":{"A":{"a":1,"b":4},"B":{"a":4,"b":1},"C":{"a":2,"b":8},"D":{"a":8,"b":2}},"conditions":["nonSeqFull","nonSeqPartial","seqNoFeedback","seqFeedback"],"classroomPairings":[["A","B"],["C","D"]],"coinWeights":[0.2,0.5,0.8],"subjectId":"A9LSEP71DNP4O","assignmentId":"3ATTHHXXWBAUIC425HIV4ACHJJ6IXW","hitId":"3QGHA0EA0JM3KKNCY0PQRLYAHJ3BWH","url":"https://gershmanlab.com/experiments/alicia/teaching/experiment/?hitId=3QGHA0EA0JM3KKNCY0PQRLYAHJ3BWH&workerId=A9LSEP71DNP4O&assignmentId=3ATTHHXXWBAUIC425HIV4ACHJJ6IXW&a=XHTA8&tp_a=XHTA8&b=3ATTHHXXWBAUIC425HIV4ACHJJ6IXW&tp_b=3ATTHHXXWBAUIC425HIV4ACHJJ6IXW&c=365198&tp_c=365198"},{"rt":null,"stimulus":"<div style=\"font-size:60px;\">Next student</div>","response":null,"trial_type":"html-keyboard-response","trial_index":40,"time_elapsed":525007,"internal_node_id":"0.0-36.0-0.0","params":{"nStudents":24,"maxFlips":30,"completionMinutes":45,"basePay":8,"maxBonus":9,"perTrialBonus":0.5,"perTrialBonusThreshold":0.1,"exampleCost":0.01},"classroomParams":{"A":{"a":1,"b":4},"B":{"a":4,"b":1},"C":{"a":2,"b":8},"D":{"a":8,"b":2}},"conditions":["nonSeqFull","nonSeqPartial","seqNoFeedback","seqFeedback"],"classroomPairings":[["A","B"],["C","D"]],"coinWeights":[0.2,0.5,0.8],"subjectId":"A9LSEP71DNP4O","assignmentId":"3ATTHHXXWBAUIC425HIV4ACHJJ6IXW","hitId":"3QGHA0EA0JM3KKNCY0PQRLYAHJ3BWH","url":"https://gershmanlab.com/experiments/alicia/teaching/experiment/?hitId=3QGHA0EA0JM3KKNCY0PQRLYAHJ3BWH&workerId=A9LSEP71DNP4O&assignmentId=3ATTHHXXWBAUIC425HIV4ACHJJ6IXW&a=XHTA8&tp_a=XHTA8&b=3ATTHHXXWBAUIC425HIV4ACHJJ6IXW&tp_b=3ATTHHXXWBAUIC425HIV4ACHJJ6IXW&c=365198&tp_c=365198"},{"rt":1291,"stimulus":"\n            <h4 style=\"color:Orange;\">Student 5</h4>\n            <h2>The weight of your coin is <b style=\"color:Tomato;\">0.5</b>.</h2>\n            <p>In this block, you will be giving <b>two</b> sets of examples to Student 5.</p>\n                <p>You will see the student's guess after the first set of examples. You will also receive feedback at the end of the block.</p>\n            ","response":0,"trial_type":"html-button-response","trial_index":41,"time_elapsed":526298,"internal_node_id":"0.0-37.0","params":{"nStudents":24,"maxFlips":30,"completionMinutes":45,"basePay":8,"maxBonus":9,"perTrialBonus":0.5,"perTrialBonusThreshold":0.1,"exampleCost":0.01},"classroomParams":{"A":{"a":1,"b":4},"B":{"a":4,"b":1},"C":{"a":2,"b":8},"D":{"a":8,"b":2}},"conditions":["nonSeqFull","nonSeqPartial","seqNoFeedback","seqFeedback"],"classroomPairings":[["A","B"],["C","D"]],"coinWeights":[0.2,0.5,0.8],"subjectId":"A9LSEP71DNP4O","assignmentId":"3ATTHHXXWBAUIC425HIV4ACHJJ6IXW","hitId":"3QGHA0EA0JM3KKNCY0PQRLYAHJ3BWH","url":"https://gershmanlab.com/experiments/alicia/teaching/experiment/?hitId=3QGHA0EA0JM3KKNCY0PQRLYAHJ3BWH&workerId=A9LSEP71DNP4O&assignmentId=3ATTHHXXWBAUIC425HIV4ACHJJ6IXW&a=XHTA8&tp_a=XHTA8&b=3ATTHHXXWBAUIC425HIV4ACHJJ6IXW&tp_b=3ATTHHXXWBAUIC425HIV4ACHJJ6IXW&c=365198&tp_c=365198"},{"rt":3668,"response":{"heads":"1","tails":"1"},"type":"response","condition":"seqFeedback","trueTheta":0.5,"classrooms":["A","B"],"studentTrueClassroom":"A","exampleSet":"first","trial_type":"survey-html-form","trial_index":42,"time_elapsed":529967,"internal_node_id":"0.0-38.0-0.0","params":{"nStudents":24,"maxFlips":30,"completionMinutes":45,"basePay":8,"maxBonus":9,"perTrialBonus":0.5,"perTrialBonusThreshold":0.1,"exampleCost":0.01},"classroomParams":{"A":{"a":1,"b":4},"B":{"a":4,"b":1},"C":{"a":2,"b":8},"D":{"a":8,"b":2}},"conditions":["nonSeqFull","nonSeqPartial","seqNoFeedback","seqFeedback"],"classroomPairings":[["A","B"],["C","D"]],"coinWeights":[0.2,0.5,0.8],"subjectId":"A9LSEP71DNP4O","assignmentId":"3ATTHHXXWBAUIC425HIV4ACHJJ6IXW","hitId":"3QGHA0EA0JM3KKNCY0PQRLYAHJ3BWH","url":"https://gershmanlab.com/experiments/alicia/teaching/experiment/?hitId=3QGHA0EA0JM3KKNCY0PQRLYAHJ3BWH&workerId=A9LSEP71DNP4O&assignmentId=3ATTHHXXWBAUIC425HIV4ACHJJ6IXW&a=XHTA8&tp_a=XHTA8&b=3ATTHHXXWBAUIC425HIV4ACHJJ6IXW&tp_b=3ATTHHXXWBAUIC425HIV4ACHJJ6IXW&c=365198&tp_c=365198","heads":1,"tails":1,"studentIndex":4,"studentTrueHypers":{"a":1,"b":4},"studentGuess":0.2857142857142857,"delta":0.2142857142857143,"totalExamples":2,"bonusSoFar":0.48},{"rt":null,"stimulus":"Sending examples to student... ","response":null,"trial_type":"html-keyboard-response","trial_index":43,"time_elapsed":531968,"internal_node_id":"0.0-39.0","params":{"nStudents":24,"maxFlips":30,"completionMinutes":45,"basePay":8,"maxBonus":9,"perTrialBonus":0.5,"perTrialBonusThreshold":0.1,"exampleCost":0.01},"classroomParams":{"A":{"a":1,"b":4},"B":{"a":4,"b":1},"C":{"a":2,"b":8},"D":{"a":8,"b":2}},"conditions":["nonSeqFull","nonSeqPartial","seqNoFeedback","seqFeedback"],"classroomPairings":[["A","B"],["C","D"]],"coinWeights":[0.2,0.5,0.8],"subjectId":"A9LSEP71DNP4O","assignmentId":"3ATTHHXXWBAUIC425HIV4ACHJJ6IXW","hitId":"3QGHA0EA0JM3KKNCY0PQRLYAHJ3BWH","url":"https://gershmanlab.com/experiments/alicia/teaching/experiment/?hitId=3QGHA0EA0JM3KKNCY0PQRLYAHJ3BWH&workerId=A9LSEP71DNP4O&assignmentId=3ATTHHXXWBAUIC425HIV4ACHJJ6IXW&a=XHTA8&tp_a=XHTA8&b=3ATTHHXXWBAUIC425HIV4ACHJJ6IXW&tp_b=3ATTHHXXWBAUIC425HIV4ACHJJ6IXW&c=365198&tp_c=365198"},{"rt":null,"stimulus":"Examples sent to student! Waiting for student...","response":null,"trial_type":"html-keyboard-response","trial_index":44,"time_elapsed":536970,"internal_node_id":"0.0-40.0","params":{"nStudents":24,"maxFlips":30,"completionMinutes":45,"basePay":8,"maxBonus":9,"perTrialBonus":0.5,"perTrialBonusThreshold":0.1,"exampleCost":0.01},"classroomParams":{"A":{"a":1,"b":4},"B":{"a":4,"b":1},"C":{"a":2,"b":8},"D":{"a":8,"b":2}},"conditions":["nonSeqFull","nonSeqPartial","seqNoFeedback","seqFeedback"],"classroomPairings":[["A","B"],["C","D"]],"coinWeights":[0.2,0.5,0.8],"subjectId":"A9LSEP71DNP4O","assignmentId":"3ATTHHXXWBAUIC425HIV4ACHJJ6IXW","hitId":"3QGHA0EA0JM3KKNCY0PQRLYAHJ3BWH","url":"https://gershmanlab.com/experiments/alicia/teaching/experiment/?hitId=3QGHA0EA0JM3KKNCY0PQRLYAHJ3BWH&workerId=A9LSEP71DNP4O&assignmentId=3ATTHHXXWBAUIC425HIV4ACHJJ6IXW&a=XHTA8&tp_a=XHTA8&b=3ATTHHXXWBAUIC425HIV4ACHJJ6IXW&tp_b=3ATTHHXXWBAUIC425HIV4ACHJJ6IXW&c=365198&tp_c=365198"},{"rt":2149,"stimulus":"\n                <p>Student's guess for coin weight: <b style=\"color:Tomato;\">0.29</b></p>\n                <p></b></p>\n                <p>You will now send another set of examples to your student. Press any key to continue.</p>\n                ","response":"enter","trial_type":"html-keyboard-response","trial_index":45,"time_elapsed":539120,"internal_node_id":"0.0-41.0","params":{"nStudents":24,"maxFlips":30,"completionMinutes":45,"basePay":8,"maxBonus":9,"perTrialBonus":0.5,"perTrialBonusThreshold":0.1,"exampleCost":0.01},"classroomParams":{"A":{"a":1,"b":4},"B":{"a":4,"b":1},"C":{"a":2,"b":8},"D":{"a":8,"b":2}},"conditions":["nonSeqFull","nonSeqPartial","seqNoFeedback","seqFeedback"],"classroomPairings":[["A","B"],["C","D"]],"coinWeights":[0.2,0.5,0.8],"subjectId":"A9LSEP71DNP4O","assignmentId":"3ATTHHXXWBAUIC425HIV4ACHJJ6IXW","hitId":"3QGHA0EA0JM3KKNCY0PQRLYAHJ3BWH","url":"https://gershmanlab.com/experiments/alicia/teaching/experiment/?hitId=3QGHA0EA0JM3KKNCY0PQRLYAHJ3BWH&workerId=A9LSEP71DNP4O&assignmentId=3ATTHHXXWBAUIC425HIV4ACHJJ6IXW&a=XHTA8&tp_a=XHTA8&b=3ATTHHXXWBAUIC425HIV4ACHJJ6IXW&tp_b=3ATTHHXXWBAUIC425HIV4ACHJJ6IXW&c=365198&tp_c=365198"},{"rt":3583,"response":{"heads":"2","tails":"2"},"type":"response","condition":"seqFeedback","trueTheta":0.5,"classrooms":["A","B"],"studentTrueClassroom":"A","exampleSet":"second","trial_type":"survey-html-form","trial_index":46,"time_elapsed":542704,"internal_node_id":"0.0-42.0-0.0","params":{"nStudents":24,"maxFlips":30,"completionMinutes":45,"basePay":8,"maxBonus":9,"perTrialBonus":0.5,"perTrialBonusThreshold":0.1,"exampleCost":0.01},"classroomParams":{"A":{"a":1,"b":4},"B":{"a":4,"b":1},"C":{"a":2,"b":8},"D":{"a":8,"b":2}},"conditions":["nonSeqFull","nonSeqPartial","seqNoFeedback","seqFeedback"],"classroomPairings":[["A","B"],["C","D"]],"coinWeights":[0.2,0.5,0.8],"subjectId":"A9LSEP71DNP4O","assignmentId":"3ATTHHXXWBAUIC425HIV4ACHJJ6IXW","hitId":"3QGHA0EA0JM3KKNCY0PQRLYAHJ3BWH","url":"https://gershmanlab.com/experiments/alicia/teaching/experiment/?hitId=3QGHA0EA0JM3KKNCY0PQRLYAHJ3BWH&workerId=A9LSEP71DNP4O&assignmentId=3ATTHHXXWBAUIC425HIV4ACHJJ6IXW&a=XHTA8&tp_a=XHTA8&b=3ATTHHXXWBAUIC425HIV4ACHJJ6IXW&tp_b=3ATTHHXXWBAUIC425HIV4ACHJJ6IXW&c=365198&tp_c=365198","firstResponseHeads":1,"firstResponseTails":1,"secondResponseHeads":2,"secondResponseTails":2,"studentIndex":4,"studentTrueHypers":{"a":1,"b":4},"studentGuess":0.36363636363636365,"delta":0.13636363636363635,"bonus":0,"bonusSoFar":0.48,"totalExamples":6},{"rt":null,"stimulus":"Sending examples to student... ","response":null,"trial_type":"html-keyboard-response","trial_index":47,"time_elapsed":543955,"internal_node_id":"0.0-43.0","params":{"nStudents":24,"maxFlips":30,"completionMinutes":45,"basePay":8,"maxBonus":9,"perTrialBonus":0.5,"perTrialBonusThreshold":0.1,"exampleCost":0.01},"classroomParams":{"A":{"a":1,"b":4},"B":{"a":4,"b":1},"C":{"a":2,"b":8},"D":{"a":8,"b":2}},"conditions":["nonSeqFull","nonSeqPartial","seqNoFeedback","seqFeedback"],"classroomPairings":[["A","B"],["C","D"]],"coinWeights":[0.2,0.5,0.8],"subjectId":"A9LSEP71DNP4O","assignmentId":"3ATTHHXXWBAUIC425HIV4ACHJJ6IXW","hitId":"3QGHA0EA0JM3KKNCY0PQRLYAHJ3BWH","url":"https://gershmanlab.com/experiments/alicia/teaching/experiment/?hitId=3QGHA0EA0JM3KKNCY0PQRLYAHJ3BWH&workerId=A9LSEP71DNP4O&assignmentId=3ATTHHXXWBAUIC425HIV4ACHJJ6IXW&a=XHTA8&tp_a=XHTA8&b=3ATTHHXXWBAUIC425HIV4ACHJJ6IXW&tp_b=3ATTHHXXWBAUIC425HIV4ACHJJ6IXW&c=365198&tp_c=365198"},{"rt":null,"stimulus":"Examples sent to student! Waiting for student...","response":null,"trial_type":"html-keyboard-response","trial_index":48,"time_elapsed":548956,"internal_node_id":"0.0-44.0","params":{"nStudents":24,"maxFlips":30,"completionMinutes":45,"basePay":8,"maxBonus":9,"perTrialBonus":0.5,"perTrialBonusThreshold":0.1,"exampleCost":0.01},"classroomParams":{"A":{"a":1,"b":4},"B":{"a":4,"b":1},"C":{"a":2,"b":8},"D":{"a":8,"b":2}},"conditions":["nonSeqFull","nonSeqPartial","seqNoFeedback","seqFeedback"],"classroomPairings":[["A","B"],["C","D"]],"coinWeights":[0.2,0.5,0.8],"subjectId":"A9LSEP71DNP4O","assignmentId":"3ATTHHXXWBAUIC425HIV4ACHJJ6IXW","hitId":"3QGHA0EA0JM3KKNCY0PQRLYAHJ3BWH","url":"https://gershmanlab.com/experiments/alicia/teaching/experiment/?hitId=3QGHA0EA0JM3KKNCY0PQRLYAHJ3BWH&workerId=A9LSEP71DNP4O&assignmentId=3ATTHHXXWBAUIC425HIV4ACHJJ6IXW&a=XHTA8&tp_a=XHTA8&b=3ATTHHXXWBAUIC425HIV4ACHJJ6IXW&tp_b=3ATTHHXXWBAUIC425HIV4ACHJJ6IXW&c=365198&tp_c=365198"},{"rt":1814,"stimulus":"\n                <p>Student 5's first guess for coin weight: <b style=\"color:Tomato\";>0.29</b></p>\n                <p>Student 5's second guess for coin weight: <b style=\"color:Tomato\";>0.36</b></p>\n                <p>You received a bonus of <b>$0.00</b> based on the student's second guess.</p>\n                <p>Total bonus so far: <b>$0.48</b></p>\n                <p>Press any key to continue.</p>\n                ","response":"enter","trial_type":"html-keyboard-response","trial_index":49,"time_elapsed":550770,"internal_node_id":"0.0-45.0","params":{"nStudents":24,"maxFlips":30,"completionMinutes":45,"basePay":8,"maxBonus":9,"perTrialBonus":0.5,"perTrialBonusThreshold":0.1,"exampleCost":0.01},"classroomParams":{"A":{"a":1,"b":4},"B":{"a":4,"b":1},"C":{"a":2,"b":8},"D":{"a":8,"b":2}},"conditions":["nonSeqFull","nonSeqPartial","seqNoFeedback","seqFeedback"],"classroomPairings":[["A","B"],["C","D"]],"coinWeights":[0.2,0.5,0.8],"subjectId":"A9LSEP71DNP4O","assignmentId":"3ATTHHXXWBAUIC425HIV4ACHJJ6IXW","hitId":"3QGHA0EA0JM3KKNCY0PQRLYAHJ3BWH","url":"https://gershmanlab.com/experiments/alicia/teaching/experiment/?hitId=3QGHA0EA0JM3KKNCY0PQRLYAHJ3BWH&workerId=A9LSEP71DNP4O&assignmentId=3ATTHHXXWBAUIC425HIV4ACHJJ6IXW&a=XHTA8&tp_a=XHTA8&b=3ATTHHXXWBAUIC425HIV4ACHJJ6IXW&tp_b=3ATTHHXXWBAUIC425HIV4ACHJJ6IXW&c=365198&tp_c=365198"},{"rt":null,"stimulus":"<div style=\"font-size:60px;\">Next student</div>","response":null,"trial_type":"html-keyboard-response","trial_index":50,"time_elapsed":553772,"internal_node_id":"0.0-46.0-0.0","params":{"nStudents":24,"maxFlips":30,"completionMinutes":45,"basePay":8,"maxBonus":9,"perTrialBonus":0.5,"perTrialBonusThreshold":0.1,"exampleCost":0.01},"classroomParams":{"A":{"a":1,"b":4},"B":{"a":4,"b":1},"C":{"a":2,"b":8},"D":{"a":8,"b":2}},"conditions":["nonSeqFull","nonSeqPartial","seqNoFeedback","seqFeedback"],"classroomPairings":[["A","B"],["C","D"]],"coinWeights":[0.2,0.5,0.8],"subjectId":"A9LSEP71DNP4O","assignmentId":"3ATTHHXXWBAUIC425HIV4ACHJJ6IXW","hitId":"3QGHA0EA0JM3KKNCY0PQRLYAHJ3BWH","url":"https://gershmanlab.com/experiments/alicia/teaching/experiment/?hitId=3QGHA0EA0JM3KKNCY0PQRLYAHJ3BWH&workerId=A9LSEP71DNP4O&assignmentId=3ATTHHXXWBAUIC425HIV4ACHJJ6IXW&a=XHTA8&tp_a=XHTA8&b=3ATTHHXXWBAUIC425HIV4ACHJJ6IXW&tp_b=3ATTHHXXWBAUIC425HIV4ACHJJ6IXW&c=365198&tp_c=365198"},{"rt":1704,"stimulus":"\n            <h4 style=\"color:Orange;\">Student 6</h4>\n            <h2>The weight of your coin is <b style=\"color:Tomato;\">0.8</b>.</h2>\n            <p>In this block, you will be giving <b>one</b> set of examples to Student 6.</p>\n                <p>You will receive feedback at the end of the block.</p>\n            ","response":0,"trial_type":"html-button-response","trial_index":51,"time_elapsed":555477,"internal_node_id":"0.0-47.0","params":{"nStudents":24,"maxFlips":30,"completionMinutes":45,"basePay":8,"maxBonus":9,"perTrialBonus":0.5,"perTrialBonusThreshold":0.1,"exampleCost":0.01},"classroomParams":{"A":{"a":1,"b":4},"B":{"a":4,"b":1},"C":{"a":2,"b":8},"D":{"a":8,"b":2}},"conditions":["nonSeqFull","nonSeqPartial","seqNoFeedback","seqFeedback"],"classroomPairings":[["A","B"],["C","D"]],"coinWeights":[0.2,0.5,0.8],"subjectId":"A9LSEP71DNP4O","assignmentId":"3ATTHHXXWBAUIC425HIV4ACHJJ6IXW","hitId":"3QGHA0EA0JM3KKNCY0PQRLYAHJ3BWH","url":"https://gershmanlab.com/experiments/alicia/teaching/experiment/?hitId=3QGHA0EA0JM3KKNCY0PQRLYAHJ3BWH&workerId=A9LSEP71DNP4O&assignmentId=3ATTHHXXWBAUIC425HIV4ACHJJ6IXW&a=XHTA8&tp_a=XHTA8&b=3ATTHHXXWBAUIC425HIV4ACHJJ6IXW&tp_b=3ATTHHXXWBAUIC425HIV4ACHJJ6IXW&c=365198&tp_c=365198"},{"rt":4140,"response":{"heads":"8","tails":"0"},"type":"response","condition":"nonSeqFull","trueTheta":0.8,"classrooms":["A","B"],"studentTrueClassroom":"B","exampleSet":"first","trial_type":"survey-html-form","trial_index":52,"time_elapsed":559617,"internal_node_id":"0.0-48.0-0.0","params":{"nStudents":24,"maxFlips":30,"completionMinutes":45,"basePay":8,"maxBonus":9,"perTrialBonus":0.5,"perTrialBonusThreshold":0.1,"exampleCost":0.01},"classroomParams":{"A":{"a":1,"b":4},"B":{"a":4,"b":1},"C":{"a":2,"b":8},"D":{"a":8,"b":2}},"conditions":["nonSeqFull","nonSeqPartial","seqNoFeedback","seqFeedback"],"classroomPairings":[["A","B"],["C","D"]],"coinWeights":[0.2,0.5,0.8],"subjectId":"A9LSEP71DNP4O","assignmentId":"3ATTHHXXWBAUIC425HIV4ACHJJ6IXW","hitId":"3QGHA0EA0JM3KKNCY0PQRLYAHJ3BWH","url":"https://gershmanlab.com/experiments/alicia/teaching/experiment/?hitId=3QGHA0EA0JM3KKNCY0PQRLYAHJ3BWH&workerId=A9LSEP71DNP4O&assignmentId=3ATTHHXXWBAUIC425HIV4ACHJJ6IXW&a=XHTA8&tp_a=XHTA8&b=3ATTHHXXWBAUIC425HIV4ACHJJ6IXW&tp_b=3ATTHHXXWBAUIC425HIV4ACHJJ6IXW&c=365198&tp_c=365198","heads":8,"tails":0,"studentIndex":5,"studentTrueHypers":{"a":4,"b":1},"studentGuess":0.9230769230769231,"delta":0.12307692307692308,"totalExamples":8,"bonus":0,"bonusSoFar":0.48},{"rt":null,"stimulus":"Sending examples to student... ","response":null,"trial_type":"html-keyboard-response","trial_index":53,"time_elapsed":561619,"internal_node_id":"0.0-49.0","params":{"nStudents":24,"maxFlips":30,"completionMinutes":45,"basePay":8,"maxBonus":9,"perTrialBonus":0.5,"perTrialBonusThreshold":0.1,"exampleCost":0.01},"classroomParams":{"A":{"a":1,"b":4},"B":{"a":4,"b":1},"C":{"a":2,"b":8},"D":{"a":8,"b":2}},"conditions":["nonSeqFull","nonSeqPartial","seqNoFeedback","seqFeedback"],"classroomPairings":[["A","B"],["C","D"]],"coinWeights":[0.2,0.5,0.8],"subjectId":"A9LSEP71DNP4O","assignmentId":"3ATTHHXXWBAUIC425HIV4ACHJJ6IXW","hitId":"3QGHA0EA0JM3KKNCY0PQRLYAHJ3BWH","url":"https://gershmanlab.com/experiments/alicia/teaching/experiment/?hitId=3QGHA0EA0JM3KKNCY0PQRLYAHJ3BWH&workerId=A9LSEP71DNP4O&assignmentId=3ATTHHXXWBAUIC425HIV4ACHJJ6IXW&a=XHTA8&tp_a=XHTA8&b=3ATTHHXXWBAUIC425HIV4ACHJJ6IXW&tp_b=3ATTHHXXWBAUIC425HIV4ACHJJ6IXW&c=365198&tp_c=365198"},{"rt":null,"stimulus":"Examples sent to student! Waiting for student...","response":null,"trial_type":"html-keyboard-response","trial_index":54,"time_elapsed":566620,"internal_node_id":"0.0-50.0","params":{"nStudents":24,"maxFlips":30,"completionMinutes":45,"basePay":8,"maxBonus":9,"perTrialBonus":0.5,"perTrialBonusThreshold":0.1,"exampleCost":0.01},"classroomParams":{"A":{"a":1,"b":4},"B":{"a":4,"b":1},"C":{"a":2,"b":8},"D":{"a":8,"b":2}},"conditions":["nonSeqFull","nonSeqPartial","seqNoFeedback","seqFeedback"],"classroomPairings":[["A","B"],["C","D"]],"coinWeights":[0.2,0.5,0.8],"subjectId":"A9LSEP71DNP4O","assignmentId":"3ATTHHXXWBAUIC425HIV4ACHJJ6IXW","hitId":"3QGHA0EA0JM3KKNCY0PQRLYAHJ3BWH","url":"https://gershmanlab.com/experiments/alicia/teaching/experiment/?hitId=3QGHA0EA0JM3KKNCY0PQRLYAHJ3BWH&workerId=A9LSEP71DNP4O&assignmentId=3ATTHHXXWBAUIC425HIV4ACHJJ6IXW&a=XHTA8&tp_a=XHTA8&b=3ATTHHXXWBAUIC425HIV4ACHJJ6IXW&tp_b=3ATTHHXXWBAUIC425HIV4ACHJJ6IXW&c=365198&tp_c=365198"},{"rt":2274,"stimulus":"\n                <p>Student's guess for coin weight: <b style=\"color:Tomato;\">0.92</b></p>\n                <p>You received a bonus of <b>$0</b>. Total bonus so far: <b>$0.48</b></b></p>\n                <p> Press any key to continue.</p>\n                ","response":"enter","trial_type":"html-keyboard-response","trial_index":55,"time_elapsed":568895,"internal_node_id":"0.0-51.0","params":{"nStudents":24,"maxFlips":30,"completionMinutes":45,"basePay":8,"maxBonus":9,"perTrialBonus":0.5,"perTrialBonusThreshold":0.1,"exampleCost":0.01},"classroomParams":{"A":{"a":1,"b":4},"B":{"a":4,"b":1},"C":{"a":2,"b":8},"D":{"a":8,"b":2}},"conditions":["nonSeqFull","nonSeqPartial","seqNoFeedback","seqFeedback"],"classroomPairings":[["A","B"],["C","D"]],"coinWeights":[0.2,0.5,0.8],"subjectId":"A9LSEP71DNP4O","assignmentId":"3ATTHHXXWBAUIC425HIV4ACHJJ6IXW","hitId":"3QGHA0EA0JM3KKNCY0PQRLYAHJ3BWH","url":"https://gershmanlab.com/experiments/alicia/teaching/experiment/?hitId=3QGHA0EA0JM3KKNCY0PQRLYAHJ3BWH&workerId=A9LSEP71DNP4O&assignmentId=3ATTHHXXWBAUIC425HIV4ACHJJ6IXW&a=XHTA8&tp_a=XHTA8&b=3ATTHHXXWBAUIC425HIV4ACHJJ6IXW&tp_b=3ATTHHXXWBAUIC425HIV4ACHJJ6IXW&c=365198&tp_c=365198"},{"rt":null,"stimulus":"<div style=\"font-size:60px;\">Next student</div>","response":null,"trial_type":"html-keyboard-response","trial_index":56,"time_elapsed":571397,"internal_node_id":"0.0-52.0-0.0","params":{"nStudents":24,"maxFlips":30,"completionMinutes":45,"basePay":8,"maxBonus":9,"perTrialBonus":0.5,"perTrialBonusThreshold":0.1,"exampleCost":0.01},"classroomParams":{"A":{"a":1,"b":4},"B":{"a":4,"b":1},"C":{"a":2,"b":8},"D":{"a":8,"b":2}},"conditions":["nonSeqFull","nonSeqPartial","seqNoFeedback","seqFeedback"],"classroomPairings":[["A","B"],["C","D"]],"coinWeights":[0.2,0.5,0.8],"subjectId":"A9LSEP71DNP4O","assignmentId":"3ATTHHXXWBAUIC425HIV4ACHJJ6IXW","hitId":"3QGHA0EA0JM3KKNCY0PQRLYAHJ3BWH","url":"https://gershmanlab.com/experiments/alicia/teaching/experiment/?hitId=3QGHA0EA0JM3KKNCY0PQRLYAHJ3BWH&workerId=A9LSEP71DNP4O&assignmentId=3ATTHHXXWBAUIC425HIV4ACHJJ6IXW&a=XHTA8&tp_a=XHTA8&b=3ATTHHXXWBAUIC425HIV4ACHJJ6IXW&tp_b=3ATTHHXXWBAUIC425HIV4ACHJJ6IXW&c=365198&tp_c=365198"},{"rt":1190,"stimulus":"\n            <h4 style=\"color:Orange;\">Student 7</h4>\n            <h2>The weight of your coin is <b style=\"color:Tomato;\">0.2</b>.</h2>\n            <p>In this block, you will be giving <b>two</b> sets of examples to Student 7.</p>\n                <p>You will see the student's guess after the first set of examples. You will also receive feedback at the end of the block.</p>\n            ","response":0,"trial_type":"html-button-response","trial_index":57,"time_elapsed":572588,"internal_node_id":"0.0-53.0","params":{"nStudents":24,"maxFlips":30,"completionMinutes":45,"basePay":8,"maxBonus":9,"perTrialBonus":0.5,"perTrialBonusThreshold":0.1,"exampleCost":0.01},"classroomParams":{"A":{"a":1,"b":4},"B":{"a":4,"b":1},"C":{"a":2,"b":8},"D":{"a":8,"b":2}},"conditions":["nonSeqFull","nonSeqPartial","seqNoFeedback","seqFeedback"],"classroomPairings":[["A","B"],["C","D"]],"coinWeights":[0.2,0.5,0.8],"subjectId":"A9LSEP71DNP4O","assignmentId":"3ATTHHXXWBAUIC425HIV4ACHJJ6IXW","hitId":"3QGHA0EA0JM3KKNCY0PQRLYAHJ3BWH","url":"https://gershmanlab.com/experiments/alicia/teaching/experiment/?hitId=3QGHA0EA0JM3KKNCY0PQRLYAHJ3BWH&workerId=A9LSEP71DNP4O&assignmentId=3ATTHHXXWBAUIC425HIV4ACHJJ6IXW&a=XHTA8&tp_a=XHTA8&b=3ATTHHXXWBAUIC425HIV4ACHJJ6IXW&tp_b=3ATTHHXXWBAUIC425HIV4ACHJJ6IXW&c=365198&tp_c=365198"},{"rt":7379,"response":{"heads":"1","tails":"9"},"type":"response","condition":"seqFeedback","trueTheta":0.2,"classrooms":["A","B"],"studentTrueClassroom":"B","exampleSet":"first","trial_type":"survey-html-form","trial_index":58,"time_elapsed":579968,"internal_node_id":"0.0-54.0-0.0","params":{"nStudents":24,"maxFlips":30,"completionMinutes":45,"basePay":8,"maxBonus":9,"perTrialBonus":0.5,"perTrialBonusThreshold":0.1,"exampleCost":0.01},"classroomParams":{"A":{"a":1,"b":4},"B":{"a":4,"b":1},"C":{"a":2,"b":8},"D":{"a":8,"b":2}},"conditions":["nonSeqFull","nonSeqPartial","seqNoFeedback","seqFeedback"],"classroomPairings":[["A","B"],["C","D"]],"coinWeights":[0.2,0.5,0.8],"subjectId":"A9LSEP71DNP4O","assignmentId":"3ATTHHXXWBAUIC425HIV4ACHJJ6IXW","hitId":"3QGHA0EA0JM3KKNCY0PQRLYAHJ3BWH","url":"https://gershmanlab.com/experiments/alicia/teaching/experiment/?hitId=3QGHA0EA0JM3KKNCY0PQRLYAHJ3BWH&workerId=A9LSEP71DNP4O&assignmentId=3ATTHHXXWBAUIC425HIV4ACHJJ6IXW&a=XHTA8&tp_a=XHTA8&b=3ATTHHXXWBAUIC425HIV4ACHJJ6IXW&tp_b=3ATTHHXXWBAUIC425HIV4ACHJJ6IXW&c=365198&tp_c=365198","heads":1,"tails":9,"studentIndex":6,"studentTrueHypers":{"a":4,"b":1},"studentGuess":0.3333333333333333,"delta":0.1333333333333333,"totalExamples":10,"bonusSoFar":0.48},{"rt":null,"stimulus":"Sending examples to student... ","response":null,"trial_type":"html-keyboard-response","trial_index":59,"time_elapsed":581219,"internal_node_id":"0.0-55.0","params":{"nStudents":24,"maxFlips":30,"completionMinutes":45,"basePay":8,"maxBonus":9,"perTrialBonus":0.5,"perTrialBonusThreshold":0.1,"exampleCost":0.01},"classroomParams":{"A":{"a":1,"b":4},"B":{"a":4,"b":1},"C":{"a":2,"b":8},"D":{"a":8,"b":2}},"conditions":["nonSeqFull","nonSeqPartial","seqNoFeedback","seqFeedback"],"classroomPairings":[["A","B"],["C","D"]],"coinWeights":[0.2,0.5,0.8],"subjectId":"A9LSEP71DNP4O","assignmentId":"3ATTHHXXWBAUIC425HIV4ACHJJ6IXW","hitId":"3QGHA0EA0JM3KKNCY0PQRLYAHJ3BWH","url":"https://gershmanlab.com/experiments/alicia/teaching/experiment/?hitId=3QGHA0EA0JM3KKNCY0PQRLYAHJ3BWH&workerId=A9LSEP71DNP4O&assignmentId=3ATTHHXXWBAUIC425HIV4ACHJJ6IXW&a=XHTA8&tp_a=XHTA8&b=3ATTHHXXWBAUIC425HIV4ACHJJ6IXW&tp_b=3ATTHHXXWBAUIC425HIV4ACHJJ6IXW&c=365198&tp_c=365198"},{"rt":null,"stimulus":"Examples sent to student! Waiting for student...","response":null,"trial_type":"html-keyboard-response","trial_index":60,"time_elapsed":585221,"internal_node_id":"0.0-56.0","params":{"nStudents":24,"maxFlips":30,"completionMinutes":45,"basePay":8,"maxBonus":9,"perTrialBonus":0.5,"perTrialBonusThreshold":0.1,"exampleCost":0.01},"classroomParams":{"A":{"a":1,"b":4},"B":{"a":4,"b":1},"C":{"a":2,"b":8},"D":{"a":8,"b":2}},"conditions":["nonSeqFull","nonSeqPartial","seqNoFeedback","seqFeedback"],"classroomPairings":[["A","B"],["C","D"]],"coinWeights":[0.2,0.5,0.8],"subjectId":"A9LSEP71DNP4O","assignmentId":"3ATTHHXXWBAUIC425HIV4ACHJJ6IXW","hitId":"3QGHA0EA0JM3KKNCY0PQRLYAHJ3BWH","url":"https://gershmanlab.com/experiments/alicia/teaching/experiment/?hitId=3QGHA0EA0JM3KKNCY0PQRLYAHJ3BWH&workerId=A9LSEP71DNP4O&assignmentId=3ATTHHXXWBAUIC425HIV4ACHJJ6IXW&a=XHTA8&tp_a=XHTA8&b=3ATTHHXXWBAUIC425HIV4ACHJJ6IXW&tp_b=3ATTHHXXWBAUIC425HIV4ACHJJ6IXW&c=365198&tp_c=365198"},{"rt":7420,"stimulus":"\n                <p>Student's guess for coin weight: <b style=\"color:Tomato;\">0.33</b></p>\n                <p></b></p>\n                <p>You will now send another set of examples to your student. Press any key to continue.</p>\n                ","response":"enter","trial_type":"html-keyboard-response","trial_index":61,"time_elapsed":592641,"internal_node_id":"0.0-57.0","params":{"nStudents":24,"maxFlips":30,"completionMinutes":45,"basePay":8,"maxBonus":9,"perTrialBonus":0.5,"perTrialBonusThreshold":0.1,"exampleCost":0.01},"classroomParams":{"A":{"a":1,"b":4},"B":{"a":4,"b":1},"C":{"a":2,"b":8},"D":{"a":8,"b":2}},"conditions":["nonSeqFull","nonSeqPartial","seqNoFeedback","seqFeedback"],"classroomPairings":[["A","B"],["C","D"]],"coinWeights":[0.2,0.5,0.8],"subjectId":"A9LSEP71DNP4O","assignmentId":"3ATTHHXXWBAUIC425HIV4ACHJJ6IXW","hitId":"3QGHA0EA0JM3KKNCY0PQRLYAHJ3BWH","url":"https://gershmanlab.com/experiments/alicia/teaching/experiment/?hitId=3QGHA0EA0JM3KKNCY0PQRLYAHJ3BWH&workerId=A9LSEP71DNP4O&assignmentId=3ATTHHXXWBAUIC425HIV4ACHJJ6IXW&a=XHTA8&tp_a=XHTA8&b=3ATTHHXXWBAUIC425HIV4ACHJJ6IXW&tp_b=3ATTHHXXWBAUIC425HIV4ACHJJ6IXW&c=365198&tp_c=365198"},{"rt":6282,"response":{"heads":"1","tails":"12"},"type":"response","condition":"seqFeedback","trueTheta":0.2,"classrooms":["A","B"],"studentTrueClassroom":"B","exampleSet":"second","trial_type":"survey-html-form","trial_index":62,"time_elapsed":598924,"internal_node_id":"0.0-58.0-0.0","params":{"nStudents":24,"maxFlips":30,"completionMinutes":45,"basePay":8,"maxBonus":9,"perTrialBonus":0.5,"perTrialBonusThreshold":0.1,"exampleCost":0.01},"classroomParams":{"A":{"a":1,"b":4},"B":{"a":4,"b":1},"C":{"a":2,"b":8},"D":{"a":8,"b":2}},"conditions":["nonSeqFull","nonSeqPartial","seqNoFeedback","seqFeedback"],"classroomPairings":[["A","B"],["C","D"]],"coinWeights":[0.2,0.5,0.8],"subjectId":"A9LSEP71DNP4O","assignmentId":"3ATTHHXXWBAUIC425HIV4ACHJJ6IXW","hitId":"3QGHA0EA0JM3KKNCY0PQRLYAHJ3BWH","url":"https://gershmanlab.com/experiments/alicia/teaching/experiment/?hitId=3QGHA0EA0JM3KKNCY0PQRLYAHJ3BWH&workerId=A9LSEP71DNP4O&assignmentId=3ATTHHXXWBAUIC425HIV4ACHJJ6IXW&a=XHTA8&tp_a=XHTA8&b=3ATTHHXXWBAUIC425HIV4ACHJJ6IXW&tp_b=3ATTHHXXWBAUIC425HIV4ACHJJ6IXW&c=365198&tp_c=365198","firstResponseHeads":1,"firstResponseTails":9,"secondResponseHeads":1,"secondResponseTails":12,"studentIndex":6,"studentTrueHypers":{"a":4,"b":1},"studentGuess":0.21428571428571427,"delta":0.014285714285714263,"bonus":0.27,"bonusSoFar":0.75,"totalExamples":23},{"rt":null,"stimulus":"Sending examples to student... ","response":null,"trial_type":"html-keyboard-response","trial_index":63,"time_elapsed":600676,"internal_node_id":"0.0-59.0","params":{"nStudents":24,"maxFlips":30,"completionMinutes":45,"basePay":8,"maxBonus":9,"perTrialBonus":0.5,"perTrialBonusThreshold":0.1,"exampleCost":0.01},"classroomParams":{"A":{"a":1,"b":4},"B":{"a":4,"b":1},"C":{"a":2,"b":8},"D":{"a":8,"b":2}},"conditions":["nonSeqFull","nonSeqPartial","seqNoFeedback","seqFeedback"],"classroomPairings":[["A","B"],["C","D"]],"coinWeights":[0.2,0.5,0.8],"subjectId":"A9LSEP71DNP4O","assignmentId":"3ATTHHXXWBAUIC425HIV4ACHJJ6IXW","hitId":"3QGHA0EA0JM3KKNCY0PQRLYAHJ3BWH","url":"https://gershmanlab.com/experiments/alicia/teaching/experiment/?hitId=3QGHA0EA0JM3KKNCY0PQRLYAHJ3BWH&workerId=A9LSEP71DNP4O&assignmentId=3ATTHHXXWBAUIC425HIV4ACHJJ6IXW&a=XHTA8&tp_a=XHTA8&b=3ATTHHXXWBAUIC425HIV4ACHJJ6IXW&tp_b=3ATTHHXXWBAUIC425HIV4ACHJJ6IXW&c=365198&tp_c=365198"},{"rt":null,"stimulus":"Examples sent to student! Waiting for student...","response":null,"trial_type":"html-keyboard-response","trial_index":64,"time_elapsed":604677,"internal_node_id":"0.0-60.0","params":{"nStudents":24,"maxFlips":30,"completionMinutes":45,"basePay":8,"maxBonus":9,"perTrialBonus":0.5,"perTrialBonusThreshold":0.1,"exampleCost":0.01},"classroomParams":{"A":{"a":1,"b":4},"B":{"a":4,"b":1},"C":{"a":2,"b":8},"D":{"a":8,"b":2}},"conditions":["nonSeqFull","nonSeqPartial","seqNoFeedback","seqFeedback"],"classroomPairings":[["A","B"],["C","D"]],"coinWeights":[0.2,0.5,0.8],"subjectId":"A9LSEP71DNP4O","assignmentId":"3ATTHHXXWBAUIC425HIV4ACHJJ6IXW","hitId":"3QGHA0EA0JM3KKNCY0PQRLYAHJ3BWH","url":"https://gershmanlab.com/experiments/alicia/teaching/experiment/?hitId=3QGHA0EA0JM3KKNCY0PQRLYAHJ3BWH&workerId=A9LSEP71DNP4O&assignmentId=3ATTHHXXWBAUIC425HIV4ACHJJ6IXW&a=XHTA8&tp_a=XHTA8&b=3ATTHHXXWBAUIC425HIV4ACHJJ6IXW&tp_b=3ATTHHXXWBAUIC425HIV4ACHJJ6IXW&c=365198&tp_c=365198"},{"rt":5226,"stimulus":"\n                <p>Student 7's first guess for coin weight: <b style=\"color:Tomato\";>0.33</b></p>\n                <p>Student 7's second guess for coin weight: <b style=\"color:Tomato\";>0.21</b></p>\n                <p>You received a bonus of <b>$0.27</b> based on the student's second guess.</p>\n                <p>Total bonus so far: <b>$0.75</b></p>\n                <p>Press any key to continue.</p>\n                ","response":"enter","trial_type":"html-keyboard-response","trial_index":65,"time_elapsed":609903,"internal_node_id":"0.0-61.0","params":{"nStudents":24,"maxFlips":30,"completionMinutes":45,"basePay":8,"maxBonus":9,"perTrialBonus":0.5,"perTrialBonusThreshold":0.1,"exampleCost":0.01},"classroomParams":{"A":{"a":1,"b":4},"B":{"a":4,"b":1},"C":{"a":2,"b":8},"D":{"a":8,"b":2}},"conditions":["nonSeqFull","nonSeqPartial","seqNoFeedback","seqFeedback"],"classroomPairings":[["A","B"],["C","D"]],"coinWeights":[0.2,0.5,0.8],"subjectId":"A9LSEP71DNP4O","assignmentId":"3ATTHHXXWBAUIC425HIV4ACHJJ6IXW","hitId":"3QGHA0EA0JM3KKNCY0PQRLYAHJ3BWH","url":"https://gershmanlab.com/experiments/alicia/teaching/experiment/?hitId=3QGHA0EA0JM3KKNCY0PQRLYAHJ3BWH&workerId=A9LSEP71DNP4O&assignmentId=3ATTHHXXWBAUIC425HIV4ACHJJ6IXW&a=XHTA8&tp_a=XHTA8&b=3ATTHHXXWBAUIC425HIV4ACHJJ6IXW&tp_b=3ATTHHXXWBAUIC425HIV4ACHJJ6IXW&c=365198&tp_c=365198"},{"rt":null,"stimulus":"<div style=\"font-size:60px;\">Next student</div>","response":null,"trial_type":"html-keyboard-response","trial_index":66,"time_elapsed":612404,"internal_node_id":"0.0-62.0-0.0","params":{"nStudents":24,"maxFlips":30,"completionMinutes":45,"basePay":8,"maxBonus":9,"perTrialBonus":0.5,"perTrialBonusThreshold":0.1,"exampleCost":0.01},"classroomParams":{"A":{"a":1,"b":4},"B":{"a":4,"b":1},"C":{"a":2,"b":8},"D":{"a":8,"b":2}},"conditions":["nonSeqFull","nonSeqPartial","seqNoFeedback","seqFeedback"],"classroomPairings":[["A","B"],["C","D"]],"coinWeights":[0.2,0.5,0.8],"subjectId":"A9LSEP71DNP4O","assignmentId":"3ATTHHXXWBAUIC425HIV4ACHJJ6IXW","hitId":"3QGHA0EA0JM3KKNCY0PQRLYAHJ3BWH","url":"https://gershmanlab.com/experiments/alicia/teaching/experiment/?hitId=3QGHA0EA0JM3KKNCY0PQRLYAHJ3BWH&workerId=A9LSEP71DNP4O&assignmentId=3ATTHHXXWBAUIC425HIV4ACHJJ6IXW&a=XHTA8&tp_a=XHTA8&b=3ATTHHXXWBAUIC425HIV4ACHJJ6IXW&tp_b=3ATTHHXXWBAUIC425HIV4ACHJJ6IXW&c=365198&tp_c=365198"},{"rt":1149,"stimulus":"\n            <h4 style=\"color:Orange;\">Student 8</h4>\n            <h2>The weight of your coin is <b style=\"color:Tomato;\">0.5</b>.</h2>\n            <p>In this block, you will be giving <b>two</b> sets of examples to Student 8.</p>\n                <p>You will receive feedback at the end of the block.</p>\n            ","response":0,"trial_type":"html-button-response","trial_index":67,"time_elapsed":613554,"internal_node_id":"0.0-63.0","params":{"nStudents":24,"maxFlips":30,"completionMinutes":45,"basePay":8,"maxBonus":9,"perTrialBonus":0.5,"perTrialBonusThreshold":0.1,"exampleCost":0.01},"classroomParams":{"A":{"a":1,"b":4},"B":{"a":4,"b":1},"C":{"a":2,"b":8},"D":{"a":8,"b":2}},"conditions":["nonSeqFull","nonSeqPartial","seqNoFeedback","seqFeedback"],"classroomPairings":[["A","B"],["C","D"]],"coinWeights":[0.2,0.5,0.8],"subjectId":"A9LSEP71DNP4O","assignmentId":"3ATTHHXXWBAUIC425HIV4ACHJJ6IXW","hitId":"3QGHA0EA0JM3KKNCY0PQRLYAHJ3BWH","url":"https://gershmanlab.com/experiments/alicia/teaching/experiment/?hitId=3QGHA0EA0JM3KKNCY0PQRLYAHJ3BWH&workerId=A9LSEP71DNP4O&assignmentId=3ATTHHXXWBAUIC425HIV4ACHJJ6IXW&a=XHTA8&tp_a=XHTA8&b=3ATTHHXXWBAUIC425HIV4ACHJJ6IXW&tp_b=3ATTHHXXWBAUIC425HIV4ACHJJ6IXW&c=365198&tp_c=365198"},{"rt":3100,"response":{"heads":"5","tails":"5"},"type":"response","condition":"seqNoFeedback","trueTheta":0.5,"classrooms":["C","D"],"studentTrueClassroom":"C","exampleSet":"first","trial_type":"survey-html-form","trial_index":68,"time_elapsed":616655,"internal_node_id":"0.0-64.0-0.0","params":{"nStudents":24,"maxFlips":30,"completionMinutes":45,"basePay":8,"maxBonus":9,"perTrialBonus":0.5,"perTrialBonusThreshold":0.1,"exampleCost":0.01},"classroomParams":{"A":{"a":1,"b":4},"B":{"a":4,"b":1},"C":{"a":2,"b":8},"D":{"a":8,"b":2}},"conditions":["nonSeqFull","nonSeqPartial","seqNoFeedback","seqFeedback"],"classroomPairings":[["A","B"],["C","D"]],"coinWeights":[0.2,0.5,0.8],"subjectId":"A9LSEP71DNP4O","assignmentId":"3ATTHHXXWBAUIC425HIV4ACHJJ6IXW","hitId":"3QGHA0EA0JM3KKNCY0PQRLYAHJ3BWH","url":"https://gershmanlab.com/experiments/alicia/teaching/experiment/?hitId=3QGHA0EA0JM3KKNCY0PQRLYAHJ3BWH&workerId=A9LSEP71DNP4O&assignmentId=3ATTHHXXWBAUIC425HIV4ACHJJ6IXW&a=XHTA8&tp_a=XHTA8&b=3ATTHHXXWBAUIC425HIV4ACHJJ6IXW&tp_b=3ATTHHXXWBAUIC425HIV4ACHJJ6IXW&c=365198&tp_c=365198","heads":5,"tails":5,"studentIndex":7,"studentTrueHypers":{"a":2,"b":8},"studentGuess":0.35,"delta":0.15000000000000002,"totalExamples":10,"bonusSoFar":0.75},{"rt":null,"stimulus":"Sending examples to student... ","response":null,"trial_type":"html-keyboard-response","trial_index":69,"time_elapsed":618406,"internal_node_id":"0.0-65.0","params":{"nStudents":24,"maxFlips":30,"completionMinutes":45,"basePay":8,"maxBonus":9,"perTrialBonus":0.5,"perTrialBonusThreshold":0.1,"exampleCost":0.01},"classroomParams":{"A":{"a":1,"b":4},"B":{"a":4,"b":1},"C":{"a":2,"b":8},"D":{"a":8,"b":2}},"conditions":["nonSeqFull","nonSeqPartial","seqNoFeedback","seqFeedback"],"classroomPairings":[["A","B"],["C","D"]],"coinWeights":[0.2,0.5,0.8],"subjectId":"A9LSEP71DNP4O","assignmentId":"3ATTHHXXWBAUIC425HIV4ACHJJ6IXW","hitId":"3QGHA0EA0JM3KKNCY0PQRLYAHJ3BWH","url":"https://gershmanlab.com/experiments/alicia/teaching/experiment/?hitId=3QGHA0EA0JM3KKNCY0PQRLYAHJ3BWH&workerId=A9LSEP71DNP4O&assignmentId=3ATTHHXXWBAUIC425HIV4ACHJJ6IXW&a=XHTA8&tp_a=XHTA8&b=3ATTHHXXWBAUIC425HIV4ACHJJ6IXW&tp_b=3ATTHHXXWBAUIC425HIV4ACHJJ6IXW&c=365198&tp_c=365198"},{"rt":null,"stimulus":"Examples sent to student! Waiting for student...","response":null,"trial_type":"html-keyboard-response","trial_index":70,"time_elapsed":623407,"internal_node_id":"0.0-66.0","params":{"nStudents":24,"maxFlips":30,"completionMinutes":45,"basePay":8,"maxBonus":9,"perTrialBonus":0.5,"perTrialBonusThreshold":0.1,"exampleCost":0.01},"classroomParams":{"A":{"a":1,"b":4},"B":{"a":4,"b":1},"C":{"a":2,"b":8},"D":{"a":8,"b":2}},"conditions":["nonSeqFull","nonSeqPartial","seqNoFeedback","seqFeedback"],"classroomPairings":[["A","B"],["C","D"]],"coinWeights":[0.2,0.5,0.8],"subjectId":"A9LSEP71DNP4O","assignmentId":"3ATTHHXXWBAUIC425HIV4ACHJJ6IXW","hitId":"3QGHA0EA0JM3KKNCY0PQRLYAHJ3BWH","url":"https://gershmanlab.com/experiments/alicia/teaching/experiment/?hitId=3QGHA0EA0JM3KKNCY0PQRLYAHJ3BWH&workerId=A9LSEP71DNP4O&assignmentId=3ATTHHXXWBAUIC425HIV4ACHJJ6IXW&a=XHTA8&tp_a=XHTA8&b=3ATTHHXXWBAUIC425HIV4ACHJJ6IXW&tp_b=3ATTHHXXWBAUIC425HIV4ACHJJ6IXW&c=365198&tp_c=365198"},{"rt":5575,"response":{"heads":"5","tails":"5"},"type":"response","condition":"seqNoFeedback","trueTheta":0.5,"classrooms":["C","D"],"studentTrueClassroom":"C","exampleSet":"second","trial_type":"survey-html-form","trial_index":71,"time_elapsed":628983,"internal_node_id":"0.0-67.0-0.0","params":{"nStudents":24,"maxFlips":30,"completionMinutes":45,"basePay":8,"maxBonus":9,"perTrialBonus":0.5,"perTrialBonusThreshold":0.1,"exampleCost":0.01},"classroomParams":{"A":{"a":1,"b":4},"B":{"a":4,"b":1},"C":{"a":2,"b":8},"D":{"a":8,"b":2}},"conditions":["nonSeqFull","nonSeqPartial","seqNoFeedback","seqFeedback"],"classroomPairings":[["A","B"],["C","D"]],"coinWeights":[0.2,0.5,0.8],"subjectId":"A9LSEP71DNP4O","assignmentId":"3ATTHHXXWBAUIC425HIV4ACHJJ6IXW","hitId":"3QGHA0EA0JM3KKNCY0PQRLYAHJ3BWH","url":"https://gershmanlab.com/experiments/alicia/teaching/experiment/?hitId=3QGHA0EA0JM3KKNCY0PQRLYAHJ3BWH&workerId=A9LSEP71DNP4O&assignmentId=3ATTHHXXWBAUIC425HIV4ACHJJ6IXW&a=XHTA8&tp_a=XHTA8&b=3ATTHHXXWBAUIC425HIV4ACHJJ6IXW&tp_b=3ATTHHXXWBAUIC425HIV4ACHJJ6IXW&c=365198&tp_c=365198","firstResponseHeads":5,"firstResponseTails":5,"secondResponseHeads":5,"secondResponseTails":5,"studentIndex":7,"studentTrueHypers":{"a":2,"b":8},"studentGuess":0.4,"delta":0.09999999999999998,"bonus":0.3,"bonusSoFar":1.05,"totalExamples":20},{"rt":null,"stimulus":"Sending examples to student... ","response":null,"trial_type":"html-keyboard-response","trial_index":72,"time_elapsed":630985,"internal_node_id":"0.0-68.0","params":{"nStudents":24,"maxFlips":30,"completionMinutes":45,"basePay":8,"maxBonus":9,"perTrialBonus":0.5,"perTrialBonusThreshold":0.1,"exampleCost":0.01},"classroomParams":{"A":{"a":1,"b":4},"B":{"a":4,"b":1},"C":{"a":2,"b":8},"D":{"a":8,"b":2}},"conditions":["nonSeqFull","nonSeqPartial","seqNoFeedback","seqFeedback"],"classroomPairings":[["A","B"],["C","D"]],"coinWeights":[0.2,0.5,0.8],"subjectId":"A9LSEP71DNP4O","assignmentId":"3ATTHHXXWBAUIC425HIV4ACHJJ6IXW","hitId":"3QGHA0EA0JM3KKNCY0PQRLYAHJ3BWH","url":"https://gershmanlab.com/experiments/alicia/teaching/experiment/?hitId=3QGHA0EA0JM3KKNCY0PQRLYAHJ3BWH&workerId=A9LSEP71DNP4O&assignmentId=3ATTHHXXWBAUIC425HIV4ACHJJ6IXW&a=XHTA8&tp_a=XHTA8&b=3ATTHHXXWBAUIC425HIV4ACHJJ6IXW&tp_b=3ATTHHXXWBAUIC425HIV4ACHJJ6IXW&c=365198&tp_c=365198"},{"rt":null,"stimulus":"Examples sent to student! Waiting for student...","response":null,"trial_type":"html-keyboard-response","trial_index":73,"time_elapsed":634987,"internal_node_id":"0.0-69.0","params":{"nStudents":24,"maxFlips":30,"completionMinutes":45,"basePay":8,"maxBonus":9,"perTrialBonus":0.5,"perTrialBonusThreshold":0.1,"exampleCost":0.01},"classroomParams":{"A":{"a":1,"b":4},"B":{"a":4,"b":1},"C":{"a":2,"b":8},"D":{"a":8,"b":2}},"conditions":["nonSeqFull","nonSeqPartial","seqNoFeedback","seqFeedback"],"classroomPairings":[["A","B"],["C","D"]],"coinWeights":[0.2,0.5,0.8],"subjectId":"A9LSEP71DNP4O","assignmentId":"3ATTHHXXWBAUIC425HIV4ACHJJ6IXW","hitId":"3QGHA0EA0JM3KKNCY0PQRLYAHJ3BWH","url":"https://gershmanlab.com/experiments/alicia/teaching/experiment/?hitId=3QGHA0EA0JM3KKNCY0PQRLYAHJ3BWH&workerId=A9LSEP71DNP4O&assignmentId=3ATTHHXXWBAUIC425HIV4ACHJJ6IXW&a=XHTA8&tp_a=XHTA8&b=3ATTHHXXWBAUIC425HIV4ACHJJ6IXW&tp_b=3ATTHHXXWBAUIC425HIV4ACHJJ6IXW&c=365198&tp_c=365198"},{"rt":2827,"stimulus":"\n                <p>Student 8's first guess for coin weight: <b style=\"color:Tomato\";>0.35</b></p>\n                <p>Student 8's second guess for coin weight: <b style=\"color:Tomato\";>0.40</b></p>\n                <p>You received a bonus of <b>$0.30</b> based on the student's second guess.</p>\n                <p>Total bonus so far: <b>$1.05</b></p>\n                <p>Press any key to continue.</p>\n                ","response":"enter","trial_type":"html-keyboard-response","trial_index":74,"time_elapsed":637814,"internal_node_id":"0.0-70.0","params":{"nStudents":24,"maxFlips":30,"completionMinutes":45,"basePay":8,"maxBonus":9,"perTrialBonus":0.5,"perTrialBonusThreshold":0.1,"exampleCost":0.01},"classroomParams":{"A":{"a":1,"b":4},"B":{"a":4,"b":1},"C":{"a":2,"b":8},"D":{"a":8,"b":2}},"conditions":["nonSeqFull","nonSeqPartial","seqNoFeedback","seqFeedback"],"classroomPairings":[["A","B"],["C","D"]],"coinWeights":[0.2,0.5,0.8],"subjectId":"A9LSEP71DNP4O","assignmentId":"3ATTHHXXWBAUIC425HIV4ACHJJ6IXW","hitId":"3QGHA0EA0JM3KKNCY0PQRLYAHJ3BWH","url":"https://gershmanlab.com/experiments/alicia/teaching/experiment/?hitId=3QGHA0EA0JM3KKNCY0PQRLYAHJ3BWH&workerId=A9LSEP71DNP4O&assignmentId=3ATTHHXXWBAUIC425HIV4ACHJJ6IXW&a=XHTA8&tp_a=XHTA8&b=3ATTHHXXWBAUIC425HIV4ACHJJ6IXW&tp_b=3ATTHHXXWBAUIC425HIV4ACHJJ6IXW&c=365198&tp_c=365198"},{"rt":null,"stimulus":"<div style=\"font-size:60px;\">Next student</div>","response":null,"trial_type":"html-keyboard-response","trial_index":75,"time_elapsed":640815,"internal_node_id":"0.0-71.0-0.0","params":{"nStudents":24,"maxFlips":30,"completionMinutes":45,"basePay":8,"maxBonus":9,"perTrialBonus":0.5,"perTrialBonusThreshold":0.1,"exampleCost":0.01},"classroomParams":{"A":{"a":1,"b":4},"B":{"a":4,"b":1},"C":{"a":2,"b":8},"D":{"a":8,"b":2}},"conditions":["nonSeqFull","nonSeqPartial","seqNoFeedback","seqFeedback"],"classroomPairings":[["A","B"],["C","D"]],"coinWeights":[0.2,0.5,0.8],"subjectId":"A9LSEP71DNP4O","assignmentId":"3ATTHHXXWBAUIC425HIV4ACHJJ6IXW","hitId":"3QGHA0EA0JM3KKNCY0PQRLYAHJ3BWH","url":"https://gershmanlab.com/experiments/alicia/teaching/experiment/?hitId=3QGHA0EA0JM3KKNCY0PQRLYAHJ3BWH&workerId=A9LSEP71DNP4O&assignmentId=3ATTHHXXWBAUIC425HIV4ACHJJ6IXW&a=XHTA8&tp_a=XHTA8&b=3ATTHHXXWBAUIC425HIV4ACHJJ6IXW&tp_b=3ATTHHXXWBAUIC425HIV4ACHJJ6IXW&c=365198&tp_c=365198"},{"rt":961,"stimulus":"\n            <h4 style=\"color:Orange;\">Student 9</h4>\n            <h2>The weight of your coin is <b style=\"color:Tomato;\">0.5</b>.</h2>\n            <p>In this block, you will be giving <b>one</b> set of examples to Student 9.</p>\n                <p>You will receive feedback at the end of the block.</p>\n            ","response":0,"trial_type":"html-button-response","trial_index":76,"time_elapsed":641776,"internal_node_id":"0.0-72.0","params":{"nStudents":24,"maxFlips":30,"completionMinutes":45,"basePay":8,"maxBonus":9,"perTrialBonus":0.5,"perTrialBonusThreshold":0.1,"exampleCost":0.01},"classroomParams":{"A":{"a":1,"b":4},"B":{"a":4,"b":1},"C":{"a":2,"b":8},"D":{"a":8,"b":2}},"conditions":["nonSeqFull","nonSeqPartial","seqNoFeedback","seqFeedback"],"classroomPairings":[["A","B"],["C","D"]],"coinWeights":[0.2,0.5,0.8],"subjectId":"A9LSEP71DNP4O","assignmentId":"3ATTHHXXWBAUIC425HIV4ACHJJ6IXW","hitId":"3QGHA0EA0JM3KKNCY0PQRLYAHJ3BWH","url":"https://gershmanlab.com/experiments/alicia/teaching/experiment/?hitId=3QGHA0EA0JM3KKNCY0PQRLYAHJ3BWH&workerId=A9LSEP71DNP4O&assignmentId=3ATTHHXXWBAUIC425HIV4ACHJJ6IXW&a=XHTA8&tp_a=XHTA8&b=3ATTHHXXWBAUIC425HIV4ACHJJ6IXW&tp_b=3ATTHHXXWBAUIC425HIV4ACHJJ6IXW&c=365198&tp_c=365198"},{"rt":2724,"response":{"heads":"5","tails":"5"},"type":"response","condition":"nonSeqPartial","trueTheta":0.5,"classrooms":["A","B"],"studentTrueClassroom":"A","exampleSet":"first","trial_type":"survey-html-form","trial_index":77,"time_elapsed":644501,"internal_node_id":"0.0-73.0-0.0","params":{"nStudents":24,"maxFlips":30,"completionMinutes":45,"basePay":8,"maxBonus":9,"perTrialBonus":0.5,"perTrialBonusThreshold":0.1,"exampleCost":0.01},"classroomParams":{"A":{"a":1,"b":4},"B":{"a":4,"b":1},"C":{"a":2,"b":8},"D":{"a":8,"b":2}},"conditions":["nonSeqFull","nonSeqPartial","seqNoFeedback","seqFeedback"],"classroomPairings":[["A","B"],["C","D"]],"coinWeights":[0.2,0.5,0.8],"subjectId":"A9LSEP71DNP4O","assignmentId":"3ATTHHXXWBAUIC425HIV4ACHJJ6IXW","hitId":"3QGHA0EA0JM3KKNCY0PQRLYAHJ3BWH","url":"https://gershmanlab.com/experiments/alicia/teaching/experiment/?hitId=3QGHA0EA0JM3KKNCY0PQRLYAHJ3BWH&workerId=A9LSEP71DNP4O&assignmentId=3ATTHHXXWBAUIC425HIV4ACHJJ6IXW&a=XHTA8&tp_a=XHTA8&b=3ATTHHXXWBAUIC425HIV4ACHJJ6IXW&tp_b=3ATTHHXXWBAUIC425HIV4ACHJJ6IXW&c=365198&tp_c=365198","heads":5,"tails":5,"studentIndex":8,"studentTrueHypers":{"a":1,"b":4},"studentGuess":0.4,"delta":0.09999999999999998,"totalExamples":10,"bonus":0.4,"bonusSoFar":1.45},{"rt":null,"stimulus":"Sending examples to student... ","response":null,"trial_type":"html-keyboard-response","trial_index":78,"time_elapsed":646003,"internal_node_id":"0.0-74.0","params":{"nStudents":24,"maxFlips":30,"completionMinutes":45,"basePay":8,"maxBonus":9,"perTrialBonus":0.5,"perTrialBonusThreshold":0.1,"exampleCost":0.01},"classroomParams":{"A":{"a":1,"b":4},"B":{"a":4,"b":1},"C":{"a":2,"b":8},"D":{"a":8,"b":2}},"conditions":["nonSeqFull","nonSeqPartial","seqNoFeedback","seqFeedback"],"classroomPairings":[["A","B"],["C","D"]],"coinWeights":[0.2,0.5,0.8],"subjectId":"A9LSEP71DNP4O","assignmentId":"3ATTHHXXWBAUIC425HIV4ACHJJ6IXW","hitId":"3QGHA0EA0JM3KKNCY0PQRLYAHJ3BWH","url":"https://gershmanlab.com/experiments/alicia/teaching/experiment/?hitId=3QGHA0EA0JM3KKNCY0PQRLYAHJ3BWH&workerId=A9LSEP71DNP4O&assignmentId=3ATTHHXXWBAUIC425HIV4ACHJJ6IXW&a=XHTA8&tp_a=XHTA8&b=3ATTHHXXWBAUIC425HIV4ACHJJ6IXW&tp_b=3ATTHHXXWBAUIC425HIV4ACHJJ6IXW&c=365198&tp_c=365198"},{"rt":null,"stimulus":"Examples sent to student! Waiting for student...","response":null,"trial_type":"html-keyboard-response","trial_index":79,"time_elapsed":651005,"internal_node_id":"0.0-75.0","params":{"nStudents":24,"maxFlips":30,"completionMinutes":45,"basePay":8,"maxBonus":9,"perTrialBonus":0.5,"perTrialBonusThreshold":0.1,"exampleCost":0.01},"classroomParams":{"A":{"a":1,"b":4},"B":{"a":4,"b":1},"C":{"a":2,"b":8},"D":{"a":8,"b":2}},"conditions":["nonSeqFull","nonSeqPartial","seqNoFeedback","seqFeedback"],"classroomPairings":[["A","B"],["C","D"]],"coinWeights":[0.2,0.5,0.8],"subjectId":"A9LSEP71DNP4O","assignmentId":"3ATTHHXXWBAUIC425HIV4ACHJJ6IXW","hitId":"3QGHA0EA0JM3KKNCY0PQRLYAHJ3BWH","url":"https://gershmanlab.com/experiments/alicia/teaching/experiment/?hitId=3QGHA0EA0JM3KKNCY0PQRLYAHJ3BWH&workerId=A9LSEP71DNP4O&assignmentId=3ATTHHXXWBAUIC425HIV4ACHJJ6IXW&a=XHTA8&tp_a=XHTA8&b=3ATTHHXXWBAUIC425HIV4ACHJJ6IXW&tp_b=3ATTHHXXWBAUIC425HIV4ACHJJ6IXW&c=365198&tp_c=365198"},{"rt":2543,"stimulus":"\n                <p>Student's guess for coin weight: <b style=\"color:Tomato;\">0.40</b></p>\n                <p>You received a bonus of <b>$0.4</b>. Total bonus so far: <b>$1.45</b></b></p>\n                <p> Press any key to continue.</p>\n                ","response":"enter","trial_type":"html-keyboard-response","trial_index":80,"time_elapsed":653549,"internal_node_id":"0.0-76.0","params":{"nStudents":24,"maxFlips":30,"completionMinutes":45,"basePay":8,"maxBonus":9,"perTrialBonus":0.5,"perTrialBonusThreshold":0.1,"exampleCost":0.01},"classroomParams":{"A":{"a":1,"b":4},"B":{"a":4,"b":1},"C":{"a":2,"b":8},"D":{"a":8,"b":2}},"conditions":["nonSeqFull","nonSeqPartial","seqNoFeedback","seqFeedback"],"classroomPairings":[["A","B"],["C","D"]],"coinWeights":[0.2,0.5,0.8],"subjectId":"A9LSEP71DNP4O","assignmentId":"3ATTHHXXWBAUIC425HIV4ACHJJ6IXW","hitId":"3QGHA0EA0JM3KKNCY0PQRLYAHJ3BWH","url":"https://gershmanlab.com/experiments/alicia/teaching/experiment/?hitId=3QGHA0EA0JM3KKNCY0PQRLYAHJ3BWH&workerId=A9LSEP71DNP4O&assignmentId=3ATTHHXXWBAUIC425HIV4ACHJJ6IXW&a=XHTA8&tp_a=XHTA8&b=3ATTHHXXWBAUIC425HIV4ACHJJ6IXW&tp_b=3ATTHHXXWBAUIC425HIV4ACHJJ6IXW&c=365198&tp_c=365198"},{"rt":null,"stimulus":"<div style=\"font-size:60px;\">Next student</div>","response":null,"trial_type":"html-keyboard-response","trial_index":81,"time_elapsed":655800,"internal_node_id":"0.0-77.0-0.0","params":{"nStudents":24,"maxFlips":30,"completionMinutes":45,"basePay":8,"maxBonus":9,"perTrialBonus":0.5,"perTrialBonusThreshold":0.1,"exampleCost":0.01},"classroomParams":{"A":{"a":1,"b":4},"B":{"a":4,"b":1},"C":{"a":2,"b":8},"D":{"a":8,"b":2}},"conditions":["nonSeqFull","nonSeqPartial","seqNoFeedback","seqFeedback"],"classroomPairings":[["A","B"],["C","D"]],"coinWeights":[0.2,0.5,0.8],"subjectId":"A9LSEP71DNP4O","assignmentId":"3ATTHHXXWBAUIC425HIV4ACHJJ6IXW","hitId":"3QGHA0EA0JM3KKNCY0PQRLYAHJ3BWH","url":"https://gershmanlab.com/experiments/alicia/teaching/experiment/?hitId=3QGHA0EA0JM3KKNCY0PQRLYAHJ3BWH&workerId=A9LSEP71DNP4O&assignmentId=3ATTHHXXWBAUIC425HIV4ACHJJ6IXW&a=XHTA8&tp_a=XHTA8&b=3ATTHHXXWBAUIC425HIV4ACHJJ6IXW&tp_b=3ATTHHXXWBAUIC425HIV4ACHJJ6IXW&c=365198&tp_c=365198"},{"rt":1075,"stimulus":"\n            <h4 style=\"color:Orange;\">Student 10</h4>\n            <h2>The weight of your coin is <b style=\"color:Tomato;\">0.2</b>.</h2>\n            <p>In this block, you will be giving <b>one</b> set of examples to Student 10.</p>\n                <p>You will receive feedback at the end of the block.</p>\n            ","response":0,"trial_type":"html-button-response","trial_index":82,"time_elapsed":656876,"internal_node_id":"0.0-78.0","params":{"nStudents":24,"maxFlips":30,"completionMinutes":45,"basePay":8,"maxBonus":9,"perTrialBonus":0.5,"perTrialBonusThreshold":0.1,"exampleCost":0.01},"classroomParams":{"A":{"a":1,"b":4},"B":{"a":4,"b":1},"C":{"a":2,"b":8},"D":{"a":8,"b":2}},"conditions":["nonSeqFull","nonSeqPartial","seqNoFeedback","seqFeedback"],"classroomPairings":[["A","B"],["C","D"]],"coinWeights":[0.2,0.5,0.8],"subjectId":"A9LSEP71DNP4O","assignmentId":"3ATTHHXXWBAUIC425HIV4ACHJJ6IXW","hitId":"3QGHA0EA0JM3KKNCY0PQRLYAHJ3BWH","url":"https://gershmanlab.com/experiments/alicia/teaching/experiment/?hitId=3QGHA0EA0JM3KKNCY0PQRLYAHJ3BWH&workerId=A9LSEP71DNP4O&assignmentId=3ATTHHXXWBAUIC425HIV4ACHJJ6IXW&a=XHTA8&tp_a=XHTA8&b=3ATTHHXXWBAUIC425HIV4ACHJJ6IXW&tp_b=3ATTHHXXWBAUIC425HIV4ACHJJ6IXW&c=365198&tp_c=365198"},{"rt":3404,"response":{"heads":"1","tails":"8"},"type":"response","condition":"nonSeqFull","trueTheta":0.2,"classrooms":["C","D"],"studentTrueClassroom":"D","exampleSet":"first","trial_type":"survey-html-form","trial_index":83,"time_elapsed":660281,"internal_node_id":"0.0-79.0-0.0","params":{"nStudents":24,"maxFlips":30,"completionMinutes":45,"basePay":8,"maxBonus":9,"perTrialBonus":0.5,"perTrialBonusThreshold":0.1,"exampleCost":0.01},"classroomParams":{"A":{"a":1,"b":4},"B":{"a":4,"b":1},"C":{"a":2,"b":8},"D":{"a":8,"b":2}},"conditions":["nonSeqFull","nonSeqPartial","seqNoFeedback","seqFeedback"],"classroomPairings":[["A","B"],["C","D"]],"coinWeights":[0.2,0.5,0.8],"subjectId":"A9LSEP71DNP4O","assignmentId":"3ATTHHXXWBAUIC425HIV4ACHJJ6IXW","hitId":"3QGHA0EA0JM3KKNCY0PQRLYAHJ3BWH","url":"https://gershmanlab.com/experiments/alicia/teaching/experiment/?hitId=3QGHA0EA0JM3KKNCY0PQRLYAHJ3BWH&workerId=A9LSEP71DNP4O&assignmentId=3ATTHHXXWBAUIC425HIV4ACHJJ6IXW&a=XHTA8&tp_a=XHTA8&b=3ATTHHXXWBAUIC425HIV4ACHJJ6IXW&tp_b=3ATTHHXXWBAUIC425HIV4ACHJJ6IXW&c=365198&tp_c=365198","heads":1,"tails":8,"studentIndex":9,"studentTrueHypers":{"a":8,"b":2},"studentGuess":0.47368421052631576,"delta":0.27368421052631575,"totalExamples":9,"bonus":0,"bonusSoFar":1.45},{"rt":null,"stimulus":"Sending examples to student... ","response":null,"trial_type":"html-keyboard-response","trial_index":84,"time_elapsed":662033,"internal_node_id":"0.0-80.0","params":{"nStudents":24,"maxFlips":30,"completionMinutes":45,"basePay":8,"maxBonus":9,"perTrialBonus":0.5,"perTrialBonusThreshold":0.1,"exampleCost":0.01},"classroomParams":{"A":{"a":1,"b":4},"B":{"a":4,"b":1},"C":{"a":2,"b":8},"D":{"a":8,"b":2}},"conditions":["nonSeqFull","nonSeqPartial","seqNoFeedback","seqFeedback"],"classroomPairings":[["A","B"],["C","D"]],"coinWeights":[0.2,0.5,0.8],"subjectId":"A9LSEP71DNP4O","assignmentId":"3ATTHHXXWBAUIC425HIV4ACHJJ6IXW","hitId":"3QGHA0EA0JM3KKNCY0PQRLYAHJ3BWH","url":"https://gershmanlab.com/experiments/alicia/teaching/experiment/?hitId=3QGHA0EA0JM3KKNCY0PQRLYAHJ3BWH&workerId=A9LSEP71DNP4O&assignmentId=3ATTHHXXWBAUIC425HIV4ACHJJ6IXW&a=XHTA8&tp_a=XHTA8&b=3ATTHHXXWBAUIC425HIV4ACHJJ6IXW&tp_b=3ATTHHXXWBAUIC425HIV4ACHJJ6IXW&c=365198&tp_c=365198"},{"rt":null,"stimulus":"Examples sent to student! Waiting for student...","response":null,"trial_type":"html-keyboard-response","trial_index":85,"time_elapsed":666535,"internal_node_id":"0.0-81.0","params":{"nStudents":24,"maxFlips":30,"completionMinutes":45,"basePay":8,"maxBonus":9,"perTrialBonus":0.5,"perTrialBonusThreshold":0.1,"exampleCost":0.01},"classroomParams":{"A":{"a":1,"b":4},"B":{"a":4,"b":1},"C":{"a":2,"b":8},"D":{"a":8,"b":2}},"conditions":["nonSeqFull","nonSeqPartial","seqNoFeedback","seqFeedback"],"classroomPairings":[["A","B"],["C","D"]],"coinWeights":[0.2,0.5,0.8],"subjectId":"A9LSEP71DNP4O","assignmentId":"3ATTHHXXWBAUIC425HIV4ACHJJ6IXW","hitId":"3QGHA0EA0JM3KKNCY0PQRLYAHJ3BWH","url":"https://gershmanlab.com/experiments/alicia/teaching/experiment/?hitId=3QGHA0EA0JM3KKNCY0PQRLYAHJ3BWH&workerId=A9LSEP71DNP4O&assignmentId=3ATTHHXXWBAUIC425HIV4ACHJJ6IXW&a=XHTA8&tp_a=XHTA8&b=3ATTHHXXWBAUIC425HIV4ACHJJ6IXW&tp_b=3ATTHHXXWBAUIC425HIV4ACHJJ6IXW&c=365198&tp_c=365198"},{"rt":2607,"stimulus":"\n                <p>Student's guess for coin weight: <b style=\"color:Tomato;\">0.47</b></p>\n                <p>You received a bonus of <b>$0</b>. Total bonus so far: <b>$1.45</b></b></p>\n                <p> Press any key to continue.</p>\n                ","response":"enter","trial_type":"html-keyboard-response","trial_index":86,"time_elapsed":6