[{"rt":12465,"stimulus":"Welcome to the experiment. Press any key to begin.","response":" ","trial_type":"html-keyboard-response","trial_index":0,"time_elapsed":12546,"internal_node_id":"0.0-0.0","params":{"nStudents":24,"maxFlips":30,"completionMinutes":45,"basePay":8,"maxBonus":9,"perTrialBonus":0.5,"perTrialBonusThreshold":0.1,"exampleCost":0.01},"classroomParams":{"A":{"a":1,"b":4},"B":{"a":4,"b":1},"C":{"a":2,"b":8},"D":{"a":8,"b":2}},"conditions":["nonSeqFull","nonSeqPartial","seqNoFeedback","seqFeedback"],"classroomPairings":[["A","B"],["C","D"]],"coinWeights":[0.2,0.5,0.8],"subjectId":"AH7Z2M3KSQ4DW","assignmentId":"39LOEL67OTRPD8LBC6ZGK5TZ9S138A","hitId":"3H6W48L9F4B5OEOMH57RM53ZYNHWPM","url":"https://gershmanlab.com/experiments/alicia/teaching/experiment/?hitId=3H6W48L9F4B5OEOMH57RM53ZYNHWPM&workerId=AH7Z2M3KSQ4DW&assignmentId=39LOEL67OTRPD8LBC6ZGK5TZ9S138A&a=7EL98&tp_a=7EL98&b=39LOEL67OTRPD8LBC6ZGK5TZ9S138A&tp_b=39LOEL67OTRPD8LBC6ZGK5TZ9S138A&c=365198&tp_c=365198"},{"rt":4308,"stimulus":"\n        <h3>Please read this consent agreement carefully before deciding whether to participate in this experiment.</h3>\n        <p><b>Purpose of the research:</b> To examine how people teach effectively.</p>\n        <p><b>What you will do in this research:</b> You will teach students the weights of different coins.</p>\n        <p><b>Time required:</b> This experiment will take 45 minutes to complete.</p>\n        <p><b>Risks:</b> There are no anticipated risks associated with participating in this study.             The effects of participating should be comparable to those you would experience from viewing a computer monitor             and using a mouse and keyboard for the duration of the experiment.</p>\n        <p><b>Benefits:</b> The study provides important information about the nature of teaching.</p>\n        <p><b>Compensation:</b> You will receive <b>$8</b> for completing the experiment and a performance bonus of up to <b>$9</b>.</p>\n        <p><b>Confidentiality:</b> Your participation in this study will remain confidential.             No personally identifiable information will be associated with your data.             Your de-identified data may be shared with other researchers and used in future projects.</p>\n        <p><b>Participation and withdrawal:</b> Your participation in this study is completely voluntary and             you may refuse to participate or you may choose to withdraw at any time without penalty or loss of\n            benefits to which you are otherwise entitled.</p>\n        <p><b>How to contact the researcher:</b> If you have questions or concerns about your participation            or payment, or want to request a summary of research findings, please contact\n            Alicia Chen, aliciachen@college.harvard.edu.</p>\n        <p><b>Whom to contact about your rights in this research:</b> For questions, concerns, suggestions,             or complaints that have not been or cannot be addressed by the researcher, or to report             research-related harm, please contact the Committee on the Use of Human Subjects in Research at Harvard University,             1414 Massachusetts Avenue, Second Floor, Cambridge, MA 02138. Phone: 617-496-2847. Email: cuhs@fas.harvard.edu.</p>\n        ","response":0,"trial_type":"html-button-response","trial_index":1,"time_elapsed":16859,"internal_node_id":"0.0-1.0","params":{"nStudents":24,"maxFlips":30,"completionMinutes":45,"basePay":8,"maxBonus":9,"perTrialBonus":0.5,"perTrialBonusThreshold":0.1,"exampleCost":0.01},"classroomParams":{"A":{"a":1,"b":4},"B":{"a":4,"b":1},"C":{"a":2,"b":8},"D":{"a":8,"b":2}},"conditions":["nonSeqFull","nonSeqPartial","seqNoFeedback","seqFeedback"],"classroomPairings":[["A","B"],["C","D"]],"coinWeights":[0.2,0.5,0.8],"subjectId":"AH7Z2M3KSQ4DW","assignmentId":"39LOEL67OTRPD8LBC6ZGK5TZ9S138A","hitId":"3H6W48L9F4B5OEOMH57RM53ZYNHWPM","url":"https://gershmanlab.com/experiments/alicia/teaching/experiment/?hitId=3H6W48L9F4B5OEOMH57RM53ZYNHWPM&workerId=AH7Z2M3KSQ4DW&assignmentId=39LOEL67OTRPD8LBC6ZGK5TZ9S138A&a=7EL98&tp_a=7EL98&b=39LOEL67OTRPD8LBC6ZGK5TZ9S138A&tp_b=39LOEL67OTRPD8LBC6ZGK5TZ9S138A&c=365198&tp_c=365198"},{"view_history":[{"page_index":0,"viewing_time":6858},{"page_index":1,"viewing_time":3256},{"page_index":2,"viewing_time":48742},{"page_index":3,"viewing_time":27175},{"page_index":4,"viewing_time":23356},{"page_index":5,"viewing_time":40158},{"page_index":6,"viewing_time":44903}],"rt":194449,"trial_type":"instructions","trial_index":2,"time_elapsed":211317,"internal_node_id":"0.0-2.0-0.0","params":{"nStudents":24,"maxFlips":30,"completionMinutes":45,"basePay":8,"maxBonus":9,"perTrialBonus":0.5,"perTrialBonusThreshold":0.1,"exampleCost":0.01},"classroomParams":{"A":{"a":1,"b":4},"B":{"a":4,"b":1},"C":{"a":2,"b":8},"D":{"a":8,"b":2}},"conditions":["nonSeqFull","nonSeqPartial","seqNoFeedback","seqFeedback"],"classroomPairings":[["A","B"],["C","D"]],"coinWeights":[0.2,0.5,0.8],"subjectId":"AH7Z2M3KSQ4DW","assignmentId":"39LOEL67OTRPD8LBC6ZGK5TZ9S138A","hitId":"3H6W48L9F4B5OEOMH57RM53ZYNHWPM","url":"https://gershmanlab.com/experiments/alicia/teaching/experiment/?hitId=3H6W48L9F4B5OEOMH57RM53ZYNHWPM&workerId=AH7Z2M3KSQ4DW&assignmentId=39LOEL67OTRPD8LBC6ZGK5TZ9S138A&a=7EL98&tp_a=7EL98&b=39LOEL67OTRPD8LBC6ZGK5TZ9S138A&tp_b=39LOEL67OTRPD8LBC6ZGK5TZ9S138A&c=365198&tp_c=365198"},{"rt":50387,"response":{"Q0":"Students in different classrooms will have seen a different number of heads and tails before seeing the examples you select for them.","Q1":"By teaching efficiently and accurately/helpfully at the same time (because each example I give to the student costs money!).","Q2":"The coin lands heads 90% of the time.","Q3":"Yes, I might encounter the same student twice.","Q4":"The students are also on the same alien planet as you, where coins can be unfair.","Q5":"Based on the student's second (and final) guess."},"question_order":[0,5,1,4,3,2],"trial_type":"survey-multi-choice","trial_index":3,"time_elapsed":261717,"internal_node_id":"0.0-2.0-1.0","params":{"nStudents":24,"maxFlips":30,"completionMinutes":45,"basePay":8,"maxBonus":9,"perTrialBonus":0.5,"perTrialBonusThreshold":0.1,"exampleCost":0.01},"classroomParams":{"A":{"a":1,"b":4},"B":{"a":4,"b":1},"C":{"a":2,"b":8},"D":{"a":8,"b":2}},"conditions":["nonSeqFull","nonSeqPartial","seqNoFeedback","seqFeedback"],"classroomPairings":[["A","B"],["C","D"]],"coinWeights":[0.2,0.5,0.8],"subjectId":"AH7Z2M3KSQ4DW","assignmentId":"39LOEL67OTRPD8LBC6ZGK5TZ9S138A","hitId":"3H6W48L9F4B5OEOMH57RM53ZYNHWPM","url":"https://gershmanlab.com/experiments/alicia/teaching/experiment/?hitId=3H6W48L9F4B5OEOMH57RM53ZYNHWPM&workerId=AH7Z2M3KSQ4DW&assignmentId=39LOEL67OTRPD8LBC6ZGK5TZ9S138A&a=7EL98&tp_a=7EL98&b=39LOEL67OTRPD8LBC6ZGK5TZ9S138A&tp_b=39LOEL67OTRPD8LBC6ZGK5TZ9S138A&c=365198&tp_c=365198","pass":false},{"rt":3059,"stimulus":"Oops, you have missed question(s) on the comprehension check! We'll show you the instructions again.","response":0,"trial_type":"html-button-response","trial_index":4,"time_elapsed":264802,"internal_node_id":"0.0-2.0-2.0-0.0","params":{"nStudents":24,"maxFlips":30,"completionMinutes":45,"basePay":8,"maxBonus":9,"perTrialBonus":0.5,"perTrialBonusThreshold":0.1,"exampleCost":0.01},"classroomParams":{"A":{"a":1,"b":4},"B":{"a":4,"b":1},"C":{"a":2,"b":8},"D":{"a":8,"b":2}},"conditions":["nonSeqFull","nonSeqPartial","seqNoFeedback","seqFeedback"],"classroomPairings":[["A","B"],["C","D"]],"coinWeights":[0.2,0.5,0.8],"subjectId":"AH7Z2M3KSQ4DW","assignmentId":"39LOEL67OTRPD8LBC6ZGK5TZ9S138A","hitId":"3H6W48L9F4B5OEOMH57RM53ZYNHWPM","url":"https://gershmanlab.com/experiments/alicia/teaching/experiment/?hitId=3H6W48L9F4B5OEOMH57RM53ZYNHWPM&workerId=AH7Z2M3KSQ4DW&assignmentId=39LOEL67OTRPD8LBC6ZGK5TZ9S138A&a=7EL98&tp_a=7EL98&b=39LOEL67OTRPD8LBC6ZGK5TZ9S138A&tp_b=39LOEL67OTRPD8LBC6ZGK5TZ9S138A&c=365198&tp_c=365198"},{"view_history":[{"page_index":0,"viewing_time":1698},{"page_index":1,"viewing_time":611},{"page_index":2,"viewing_time":14995},{"page_index":3,"viewing_time":1051},{"page_index":2,"viewing_time":4663},{"page_index":3,"viewing_time":2836},{"page_index":4,"viewing_time":9887},{"page_index":5,"viewing_time":4185},{"page_index":6,"viewing_time":1602}],"rt":41531,"trial_type":"instructions","trial_index":5,"time_elapsed":306341,"internal_node_id":"0.0-2.1-0.1","params":{"nStudents":24,"maxFlips":30,"completionMinutes":45,"basePay":8,"maxBonus":9,"perTrialBonus":0.5,"perTrialBonusThreshold":0.1,"exampleCost":0.01},"classroomParams":{"A":{"a":1,"b":4},"B":{"a":4,"b":1},"C":{"a":2,"b":8},"D":{"a":8,"b":2}},"conditions":["nonSeqFull","nonSeqPartial","seqNoFeedback","seqFeedback"],"classroomPairings":[["A","B"],["C","D"]],"coinWeights":[0.2,0.5,0.8],"subjectId":"AH7Z2M3KSQ4DW","assignmentId":"39LOEL67OTRPD8LBC6ZGK5TZ9S138A","hitId":"3H6W48L9F4B5OEOMH57RM53ZYNHWPM","url":"https://gershmanlab.com/experiments/alicia/teaching/experiment/?hitId=3H6W48L9F4B5OEOMH57RM53ZYNHWPM&workerId=AH7Z2M3KSQ4DW&assignmentId=39LOEL67OTRPD8LBC6ZGK5TZ9S138A&a=7EL98&tp_a=7EL98&b=39LOEL67OTRPD8LBC6ZGK5TZ9S138A&tp_b=39LOEL67OTRPD8LBC6ZGK5TZ9S138A&c=365198&tp_c=365198"},{"rt":36044,"response":{"Q0":"Students in different classrooms will have seen a different number of heads and tails before seeing the examples you select for them.","Q1":"By teaching efficiently and accurately/helpfully at the same time (because each example I give to the student costs money!).","Q2":"The coin lands heads 90% of the time.","Q3":"No, I will teach a <b>new</b> student each time.","Q4":"The students are also on the same alien planet as you, where coins can be unfair.","Q5":"Based on the student's second (and final) guess."},"question_order":[0,5,4,2,3,1],"trial_type":"survey-multi-choice","trial_index":6,"time_elapsed":342397,"internal_node_id":"0.0-2.1-1.1","params":{"nStudents":24,"maxFlips":30,"completionMinutes":45,"basePay":8,"maxBonus":9,"perTrialBonus":0.5,"perTrialBonusThreshold":0.1,"exampleCost":0.01},"classroomParams":{"A":{"a":1,"b":4},"B":{"a":4,"b":1},"C":{"a":2,"b":8},"D":{"a":8,"b":2}},"conditions":["nonSeqFull","nonSeqPartial","seqNoFeedback","seqFeedback"],"classroomPairings":[["A","B"],["C","D"]],"coinWeights":[0.2,0.5,0.8],"subjectId":"AH7Z2M3KSQ4DW","assignmentId":"39LOEL67OTRPD8LBC6ZGK5TZ9S138A","hitId":"3H6W48L9F4B5OEOMH57RM53ZYNHWPM","url":"https://gershmanlab.com/experiments/alicia/teaching/experiment/?hitId=3H6W48L9F4B5OEOMH57RM53ZYNHWPM&workerId=AH7Z2M3KSQ4DW&assignmentId=39LOEL67OTRPD8LBC6ZGK5TZ9S138A&a=7EL98&tp_a=7EL98&b=39LOEL67OTRPD8LBC6ZGK5TZ9S138A&tp_b=39LOEL67OTRPD8LBC6ZGK5TZ9S138A&c=365198&tp_c=365198","pass":true},{"rt":null,"stimulus":"<div style=\"font-size:30px;\">Congrats on passing the comprehension quiz! The experiment will begin in a few seconds.</div>","response":null,"trial_type":"html-keyboard-response","trial_index":7,"time_elapsed":345432,"internal_node_id":"0.0-3.0","params":{"nStudents":24,"maxFlips":30,"completionMinutes":45,"basePay":8,"maxBonus":9,"perTrialBonus":0.5,"perTrialBonusThreshold":0.1,"exampleCost":0.01},"classroomParams":{"A":{"a":1,"b":4},"B":{"a":4,"b":1},"C":{"a":2,"b":8},"D":{"a":8,"b":2}},"conditions":["nonSeqFull","nonSeqPartial","seqNoFeedback","seqFeedback"],"classroomPairings":[["A","B"],["C","D"]],"coinWeights":[0.2,0.5,0.8],"subjectId":"AH7Z2M3KSQ4DW","assignmentId":"39LOEL67OTRPD8LBC6ZGK5TZ9S138A","hitId":"3H6W48L9F4B5OEOMH57RM53ZYNHWPM","url":"https://gershmanlab.com/experiments/alicia/teaching/experiment/?hitId=3H6W48L9F4B5OEOMH57RM53ZYNHWPM&workerId=AH7Z2M3KSQ4DW&assignmentId=39LOEL67OTRPD8LBC6ZGK5TZ9S138A&a=7EL98&tp_a=7EL98&b=39LOEL67OTRPD8LBC6ZGK5TZ9S138A&tp_b=39LOEL67OTRPD8LBC6ZGK5TZ9S138A&c=365198&tp_c=365198"},{"rt":null,"stimulus":"<div style=\"font-size:50px;\">First student</div>","response":null,"trial_type":"html-keyboard-response","trial_index":8,"time_elapsed":348445,"internal_node_id":"0.0-4.0","params":{"nStudents":24,"maxFlips":30,"completionMinutes":45,"basePay":8,"maxBonus":9,"perTrialBonus":0.5,"perTrialBonusThreshold":0.1,"exampleCost":0.01},"classroomParams":{"A":{"a":1,"b":4},"B":{"a":4,"b":1},"C":{"a":2,"b":8},"D":{"a":8,"b":2}},"conditions":["nonSeqFull","nonSeqPartial","seqNoFeedback","seqFeedback"],"classroomPairings":[["A","B"],["C","D"]],"coinWeights":[0.2,0.5,0.8],"subjectId":"AH7Z2M3KSQ4DW","assignmentId":"39LOEL67OTRPD8LBC6ZGK5TZ9S138A","hitId":"3H6W48L9F4B5OEOMH57RM53ZYNHWPM","url":"https://gershmanlab.com/experiments/alicia/teaching/experiment/?hitId=3H6W48L9F4B5OEOMH57RM53ZYNHWPM&workerId=AH7Z2M3KSQ4DW&assignmentId=39LOEL67OTRPD8LBC6ZGK5TZ9S138A&a=7EL98&tp_a=7EL98&b=39LOEL67OTRPD8LBC6ZGK5TZ9S138A&tp_b=39LOEL67OTRPD8LBC6ZGK5TZ9S138A&c=365198&tp_c=365198"},{"rt":7353,"stimulus":"\n            <h4 style=\"color:Orange;\">Student 1</h4>\n            <h2>The weight of your coin is <b style=\"color:Tomato;\">0.2</b>.</h2>\n            <p>In this block, you will be giving <b>two</b> sets of examples to Student 1.</p>\n                <p>You will receive feedback at the end of the block.</p>\n            ","response":0,"trial_type":"html-button-response","trial_index":9,"time_elapsed":355802,"internal_node_id":"0.0-5.0","params":{"nStudents":24,"maxFlips":30,"completionMinutes":45,"basePay":8,"maxBonus":9,"perTrialBonus":0.5,"perTrialBonusThreshold":0.1,"exampleCost":0.01},"classroomParams":{"A":{"a":1,"b":4},"B":{"a":4,"b":1},"C":{"a":2,"b":8},"D":{"a":8,"b":2}},"conditions":["nonSeqFull","nonSeqPartial","seqNoFeedback","seqFeedback"],"classroomPairings":[["A","B"],["C","D"]],"coinWeights":[0.2,0.5,0.8],"subjectId":"AH7Z2M3KSQ4DW","assignmentId":"39LOEL67OTRPD8LBC6ZGK5TZ9S138A","hitId":"3H6W48L9F4B5OEOMH57RM53ZYNHWPM","url":"https://gershmanlab.com/experiments/alicia/teaching/experiment/?hitId=3H6W48L9F4B5OEOMH57RM53ZYNHWPM&workerId=AH7Z2M3KSQ4DW&assignmentId=39LOEL67OTRPD8LBC6ZGK5TZ9S138A&a=7EL98&tp_a=7EL98&b=39LOEL67OTRPD8LBC6ZGK5TZ9S138A&tp_b=39LOEL67OTRPD8LBC6ZGK5TZ9S138A&c=365198&tp_c=365198"},{"rt":37316,"response":{"heads":"2","tails":"8"},"type":"response","condition":"seqNoFeedback","trueTheta":0.2,"classrooms":["A","B"],"studentTrueClassroom":"A","exampleSet":"first","trial_type":"survey-html-form","trial_index":10,"time_elapsed":393128,"internal_node_id":"0.0-6.0-0.0","params":{"nStudents":24,"maxFlips":30,"completionMinutes":45,"basePay":8,"maxBonus":9,"perTrialBonus":0.5,"perTrialBonusThreshold":0.1,"exampleCost":0.01},"classroomParams":{"A":{"a":1,"b":4},"B":{"a":4,"b":1},"C":{"a":2,"b":8},"D":{"a":8,"b":2}},"conditions":["nonSeqFull","nonSeqPartial","seqNoFeedback","seqFeedback"],"classroomPairings":[["A","B"],["C","D"]],"coinWeights":[0.2,0.5,0.8],"subjectId":"AH7Z2M3KSQ4DW","assignmentId":"39LOEL67OTRPD8LBC6ZGK5TZ9S138A","hitId":"3H6W48L9F4B5OEOMH57RM53ZYNHWPM","url":"https://gershmanlab.com/experiments/alicia/teaching/experiment/?hitId=3H6W48L9F4B5OEOMH57RM53ZYNHWPM&workerId=AH7Z2M3KSQ4DW&assignmentId=39LOEL67OTRPD8LBC6ZGK5TZ9S138A&a=7EL98&tp_a=7EL98&b=39LOEL67OTRPD8LBC6ZGK5TZ9S138A&tp_b=39LOEL67OTRPD8LBC6ZGK5TZ9S138A&c=365198&tp_c=365198","heads":2,"tails":8,"studentIndex":0,"studentTrueHypers":{"a":1,"b":4},"studentGuess":0.2,"delta":0,"totalExamples":10,"bonusSoFar":0},{"rt":null,"stimulus":"Sending examples to student... ","response":null,"trial_type":"html-keyboard-response","trial_index":11,"time_elapsed":394400,"internal_node_id":"0.0-7.0","params":{"nStudents":24,"maxFlips":30,"completionMinutes":45,"basePay":8,"maxBonus":9,"perTrialBonus":0.5,"perTrialBonusThreshold":0.1,"exampleCost":0.01},"classroomParams":{"A":{"a":1,"b":4},"B":{"a":4,"b":1},"C":{"a":2,"b":8},"D":{"a":8,"b":2}},"conditions":["nonSeqFull","nonSeqPartial","seqNoFeedback","seqFeedback"],"classroomPairings":[["A","B"],["C","D"]],"coinWeights":[0.2,0.5,0.8],"subjectId":"AH7Z2M3KSQ4DW","assignmentId":"39LOEL67OTRPD8LBC6ZGK5TZ9S138A","hitId":"3H6W48L9F4B5OEOMH57RM53ZYNHWPM","url":"https://gershmanlab.com/experiments/alicia/teaching/experiment/?hitId=3H6W48L9F4B5OEOMH57RM53ZYNHWPM&workerId=AH7Z2M3KSQ4DW&assignmentId=39LOEL67OTRPD8LBC6ZGK5TZ9S138A&a=7EL98&tp_a=7EL98&b=39LOEL67OTRPD8LBC6ZGK5TZ9S138A&tp_b=39LOEL67OTRPD8LBC6ZGK5TZ9S138A&c=365198&tp_c=365198"},{"rt":null,"stimulus":"Examples sent to student! Waiting for student...","response":null,"trial_type":"html-keyboard-response","trial_index":12,"time_elapsed":398915,"internal_node_id":"0.0-8.0","params":{"nStudents":24,"maxFlips":30,"completionMinutes":45,"basePay":8,"maxBonus":9,"perTrialBonus":0.5,"perTrialBonusThreshold":0.1,"exampleCost":0.01},"classroomParams":{"A":{"a":1,"b":4},"B":{"a":4,"b":1},"C":{"a":2,"b":8},"D":{"a":8,"b":2}},"conditions":["nonSeqFull","nonSeqPartial","seqNoFeedback","seqFeedback"],"classroomPairings":[["A","B"],["C","D"]],"coinWeights":[0.2,0.5,0.8],"subjectId":"AH7Z2M3KSQ4DW","assignmentId":"39LOEL67OTRPD8LBC6ZGK5TZ9S138A","hitId":"3H6W48L9F4B5OEOMH57RM53ZYNHWPM","url":"https://gershmanlab.com/experiments/alicia/teaching/experiment/?hitId=3H6W48L9F4B5OEOMH57RM53ZYNHWPM&workerId=AH7Z2M3KSQ4DW&assignmentId=39LOEL67OTRPD8LBC6ZGK5TZ9S138A&a=7EL98&tp_a=7EL98&b=39LOEL67OTRPD8LBC6ZGK5TZ9S138A&tp_b=39LOEL67OTRPD8LBC6ZGK5TZ9S138A&c=365198&tp_c=365198"},{"rt":30307,"response":{"heads":"0","tails":"2"},"type":"response","condition":"seqNoFeedback","trueTheta":0.2,"classrooms":["A","B"],"studentTrueClassroom":"A","exampleSet":"second","trial_type":"survey-html-form","trial_index":13,"time_elapsed":429225,"internal_node_id":"0.0-9.0-0.0","params":{"nStudents":24,"maxFlips":30,"completionMinutes":45,"basePay":8,"maxBonus":9,"perTrialBonus":0.5,"perTrialBonusThreshold":0.1,"exampleCost":0.01},"classroomParams":{"A":{"a":1,"b":4},"B":{"a":4,"b":1},"C":{"a":2,"b":8},"D":{"a":8,"b":2}},"conditions":["nonSeqFull","nonSeqPartial","seqNoFeedback","seqFeedback"],"classroomPairings":[["A","B"],["C","D"]],"coinWeights":[0.2,0.5,0.8],"subjectId":"AH7Z2M3KSQ4DW","assignmentId":"39LOEL67OTRPD8LBC6ZGK5TZ9S138A","hitId":"3H6W48L9F4B5OEOMH57RM53ZYNHWPM","url":"https://gershmanlab.com/experiments/alicia/teaching/experiment/?hitId=3H6W48L9F4B5OEOMH57RM53ZYNHWPM&workerId=AH7Z2M3KSQ4DW&assignmentId=39LOEL67OTRPD8LBC6ZGK5TZ9S138A&a=7EL98&tp_a=7EL98&b=39LOEL67OTRPD8LBC6ZGK5TZ9S138A&tp_b=39LOEL67OTRPD8LBC6ZGK5TZ9S138A&c=365198&tp_c=365198","firstResponseHeads":2,"firstResponseTails":8,"secondResponseHeads":0,"secondResponseTails":2,"studentIndex":0,"studentTrueHypers":{"a":1,"b":4},"studentGuess":0.17647058823529413,"delta":0.023529411764705882,"bonus":0.38,"bonusSoFar":0.38,"totalExamples":12},{"rt":null,"stimulus":"Sending examples to student... ","response":null,"trial_type":"html-keyboard-response","trial_index":14,"time_elapsed":430738,"internal_node_id":"0.0-10.0","params":{"nStudents":24,"maxFlips":30,"completionMinutes":45,"basePay":8,"maxBonus":9,"perTrialBonus":0.5,"perTrialBonusThreshold":0.1,"exampleCost":0.01},"classroomParams":{"A":{"a":1,"b":4},"B":{"a":4,"b":1},"C":{"a":2,"b":8},"D":{"a":8,"b":2}},"conditions":["nonSeqFull","nonSeqPartial","seqNoFeedback","seqFeedback"],"classroomPairings":[["A","B"],["C","D"]],"coinWeights":[0.2,0.5,0.8],"subjectId":"AH7Z2M3KSQ4DW","assignmentId":"39LOEL67OTRPD8LBC6ZGK5TZ9S138A","hitId":"3H6W48L9F4B5OEOMH57RM53ZYNHWPM","url":"https://gershmanlab.com/experiments/alicia/teaching/experiment/?hitId=3H6W48L9F4B5OEOMH57RM53ZYNHWPM&workerId=AH7Z2M3KSQ4DW&assignmentId=39LOEL67OTRPD8LBC6ZGK5TZ9S138A&a=7EL98&tp_a=7EL98&b=39LOEL67OTRPD8LBC6ZGK5TZ9S138A&tp_b=39LOEL67OTRPD8LBC6ZGK5TZ9S138A&c=365198&tp_c=365198"},{"rt":null,"stimulus":"Examples sent to student! Waiting for student...","response":null,"trial_type":"html-keyboard-response","trial_index":15,"time_elapsed":436256,"internal_node_id":"0.0-11.0","params":{"nStudents":24,"maxFlips":30,"completionMinutes":45,"basePay":8,"maxBonus":9,"perTrialBonus":0.5,"perTrialBonusThreshold":0.1,"exampleCost":0.01},"classroomParams":{"A":{"a":1,"b":4},"B":{"a":4,"b":1},"C":{"a":2,"b":8},"D":{"a":8,"b":2}},"conditions":["nonSeqFull","nonSeqPartial","seqNoFeedback","seqFeedback"],"classroomPairings":[["A","B"],["C","D"]],"coinWeights":[0.2,0.5,0.8],"subjectId":"AH7Z2M3KSQ4DW","assignmentId":"39LOEL67OTRPD8LBC6ZGK5TZ9S138A","hitId":"3H6W48L9F4B5OEOMH57RM53ZYNHWPM","url":"https://gershmanlab.com/experiments/alicia/teaching/experiment/?hitId=3H6W48L9F4B5OEOMH57RM53ZYNHWPM&workerId=AH7Z2M3KSQ4DW&assignmentId=39LOEL67OTRPD8LBC6ZGK5TZ9S138A&a=7EL98&tp_a=7EL98&b=39LOEL67OTRPD8LBC6ZGK5TZ9S138A&tp_b=39LOEL67OTRPD8LBC6ZGK5TZ9S138A&c=365198&tp_c=365198"},{"rt":10979,"stimulus":"\n                <p>Student 1's first guess for coin weight: <b style=\"color:Tomato\";>0.20</b></p>\n                <p>Student 1's second guess for coin weight: <b style=\"color:Tomato\";>0.18</b></p>\n                <p>You received a bonus of <b>$0.38</b> based on the student's second guess.</p>\n                <p>Total bonus so far: <b>$0.38</b></p>\n                <p>Press any key to continue.</p>\n                ","response":"enter","trial_type":"html-keyboard-response","trial_index":16,"time_elapsed":447233,"internal_node_id":"0.0-12.0","params":{"nStudents":24,"maxFlips":30,"completionMinutes":45,"basePay":8,"maxBonus":9,"perTrialBonus":0.5,"perTrialBonusThreshold":0.1,"exampleCost":0.01},"classroomParams":{"A":{"a":1,"b":4},"B":{"a":4,"b":1},"C":{"a":2,"b":8},"D":{"a":8,"b":2}},"conditions":["nonSeqFull","nonSeqPartial","seqNoFeedback","seqFeedback"],"classroomPairings":[["A","B"],["C","D"]],"coinWeights":[0.2,0.5,0.8],"subjectId":"AH7Z2M3KSQ4DW","assignmentId":"39LOEL67OTRPD8LBC6ZGK5TZ9S138A","hitId":"3H6W48L9F4B5OEOMH57RM53ZYNHWPM","url":"https://gershmanlab.com/experiments/alicia/teaching/experiment/?hitId=3H6W48L9F4B5OEOMH57RM53ZYNHWPM&workerId=AH7Z2M3KSQ4DW&assignmentId=39LOEL67OTRPD8LBC6ZGK5TZ9S138A&a=7EL98&tp_a=7EL98&b=39LOEL67OTRPD8LBC6ZGK5TZ9S138A&tp_b=39LOEL67OTRPD8LBC6ZGK5TZ9S138A&c=365198&tp_c=365198"},{"rt":null,"stimulus":"<div style=\"font-size:60px;\">Next student</div>","response":null,"trial_type":"html-keyboard-response","trial_index":17,"time_elapsed":450251,"internal_node_id":"0.0-13.0-0.0","params":{"nStudents":24,"maxFlips":30,"completionMinutes":45,"basePay":8,"maxBonus":9,"perTrialBonus":0.5,"perTrialBonusThreshold":0.1,"exampleCost":0.01},"classroomParams":{"A":{"a":1,"b":4},"B":{"a":4,"b":1},"C":{"a":2,"b":8},"D":{"a":8,"b":2}},"conditions":["nonSeqFull","nonSeqPartial","seqNoFeedback","seqFeedback"],"classroomPairings":[["A","B"],["C","D"]],"coinWeights":[0.2,0.5,0.8],"subjectId":"AH7Z2M3KSQ4DW","assignmentId":"39LOEL67OTRPD8LBC6ZGK5TZ9S138A","hitId":"3H6W48L9F4B5OEOMH57RM53ZYNHWPM","url":"https://gershmanlab.com/experiments/alicia/teaching/experiment/?hitId=3H6W48L9F4B5OEOMH57RM53ZYNHWPM&workerId=AH7Z2M3KSQ4DW&assignmentId=39LOEL67OTRPD8LBC6ZGK5TZ9S138A&a=7EL98&tp_a=7EL98&b=39LOEL67OTRPD8LBC6ZGK5TZ9S138A&tp_b=39LOEL67OTRPD8LBC6ZGK5TZ9S138A&c=365198&tp_c=365198"},{"rt":7752,"stimulus":"\n            <h4 style=\"color:Orange;\">Student 2</h4>\n            <h2>The weight of your coin is <b style=\"color:Tomato;\">0.5</b>.</h2>\n            <p>In this block, you will be giving <b>one</b> set of examples to Student 2.</p>\n                <p>You will receive feedback at the end of the block.</p>\n            ","response":0,"trial_type":"html-button-response","trial_index":18,"time_elapsed":458006,"internal_node_id":"0.0-14.0","params":{"nStudents":24,"maxFlips":30,"completionMinutes":45,"basePay":8,"maxBonus":9,"perTrialBonus":0.5,"perTrialBonusThreshold":0.1,"exampleCost":0.01},"classroomParams":{"A":{"a":1,"b":4},"B":{"a":4,"b":1},"C":{"a":2,"b":8},"D":{"a":8,"b":2}},"conditions":["nonSeqFull","nonSeqPartial","seqNoFeedback","seqFeedback"],"classroomPairings":[["A","B"],["C","D"]],"coinWeights":[0.2,0.5,0.8],"subjectId":"AH7Z2M3KSQ4DW","assignmentId":"39LOEL67OTRPD8LBC6ZGK5TZ9S138A","hitId":"3H6W48L9F4B5OEOMH57RM53ZYNHWPM","url":"https://gershmanlab.com/experiments/alicia/teaching/experiment/?hitId=3H6W48L9F4B5OEOMH57RM53ZYNHWPM&workerId=AH7Z2M3KSQ4DW&assignmentId=39LOEL67OTRPD8LBC6ZGK5TZ9S138A&a=7EL98&tp_a=7EL98&b=39LOEL67OTRPD8LBC6ZGK5TZ9S138A&tp_b=39LOEL67OTRPD8LBC6ZGK5TZ9S138A&c=365198&tp_c=365198"},{"rt":12486,"response":{"heads":"5","tails":"5"},"type":"response","condition":"nonSeqPartial","trueTheta":0.5,"classrooms":["C","D"],"studentTrueClassroom":"C","exampleSet":"first","trial_type":"survey-html-form","trial_index":19,"time_elapsed":470497,"internal_node_id":"0.0-15.0-0.0","params":{"nStudents":24,"maxFlips":30,"completionMinutes":45,"basePay":8,"maxBonus":9,"perTrialBonus":0.5,"perTrialBonusThreshold":0.1,"exampleCost":0.01},"classroomParams":{"A":{"a":1,"b":4},"B":{"a":4,"b":1},"C":{"a":2,"b":8},"D":{"a":8,"b":2}},"conditions":["nonSeqFull","nonSeqPartial","seqNoFeedback","seqFeedback"],"classroomPairings":[["A","B"],["C","D"]],"coinWeights":[0.2,0.5,0.8],"subjectId":"AH7Z2M3KSQ4DW","assignmentId":"39LOEL67OTRPD8LBC6ZGK5TZ9S138A","hitId":"3H6W48L9F4B5OEOMH57RM53ZYNHWPM","url":"https://gershmanlab.com/experiments/alicia/teaching/experiment/?hitId=3H6W48L9F4B5OEOMH57RM53ZYNHWPM&workerId=AH7Z2M3KSQ4DW&assignmentId=39LOEL67OTRPD8LBC6ZGK5TZ9S138A&a=7EL98&tp_a=7EL98&b=39LOEL67OTRPD8LBC6ZGK5TZ9S138A&tp_b=39LOEL67OTRPD8LBC6ZGK5TZ9S138A&c=365198&tp_c=365198","heads":5,"tails":5,"studentIndex":1,"studentTrueHypers":{"a":2,"b":8},"studentGuess":0.35,"delta":0.15000000000000002,"totalExamples":10,"bonus":0,"bonusSoFar":0.38},{"rt":null,"stimulus":"Sending examples to student... ","response":null,"trial_type":"html-keyboard-response","trial_index":20,"time_elapsed":472019,"internal_node_id":"0.0-16.0","params":{"nStudents":24,"maxFlips":30,"completionMinutes":45,"basePay":8,"maxBonus":9,"perTrialBonus":0.5,"perTrialBonusThreshold":0.1,"exampleCost":0.01},"classroomParams":{"A":{"a":1,"b":4},"B":{"a":4,"b":1},"C":{"a":2,"b":8},"D":{"a":8,"b":2}},"conditions":["nonSeqFull","nonSeqPartial","seqNoFeedback","seqFeedback"],"classroomPairings":[["A","B"],["C","D"]],"coinWeights":[0.2,0.5,0.8],"subjectId":"AH7Z2M3KSQ4DW","assignmentId":"39LOEL67OTRPD8LBC6ZGK5TZ9S138A","hitId":"3H6W48L9F4B5OEOMH57RM53ZYNHWPM","url":"https://gershmanlab.com/experiments/alicia/teaching/experiment/?hitId=3H6W48L9F4B5OEOMH57RM53ZYNHWPM&workerId=AH7Z2M3KSQ4DW&assignmentId=39LOEL67OTRPD8LBC6ZGK5TZ9S138A&a=7EL98&tp_a=7EL98&b=39LOEL67OTRPD8LBC6ZGK5TZ9S138A&tp_b=39LOEL67OTRPD8LBC6ZGK5TZ9S138A&c=365198&tp_c=365198"},{"rt":null,"stimulus":"Examples sent to student! Waiting for student...","response":null,"trial_type":"html-keyboard-response","trial_index":21,"time_elapsed":476032,"internal_node_id":"0.0-17.0","params":{"nStudents":24,"maxFlips":30,"completionMinutes":45,"basePay":8,"maxBonus":9,"perTrialBonus":0.5,"perTrialBonusThreshold":0.1,"exampleCost":0.01},"classroomParams":{"A":{"a":1,"b":4},"B":{"a":4,"b":1},"C":{"a":2,"b":8},"D":{"a":8,"b":2}},"conditions":["nonSeqFull","nonSeqPartial","seqNoFeedback","seqFeedback"],"classroomPairings":[["A","B"],["C","D"]],"coinWeights":[0.2,0.5,0.8],"subjectId":"AH7Z2M3KSQ4DW","assignmentId":"39LOEL67OTRPD8LBC6ZGK5TZ9S138A","hitId":"3H6W48L9F4B5OEOMH57RM53ZYNHWPM","url":"https://gershmanlab.com/experiments/alicia/teaching/experiment/?hitId=3H6W48L9F4B5OEOMH57RM53ZYNHWPM&workerId=AH7Z2M3KSQ4DW&assignmentId=39LOEL67OTRPD8LBC6ZGK5TZ9S138A&a=7EL98&tp_a=7EL98&b=39LOEL67OTRPD8LBC6ZGK5TZ9S138A&tp_b=39LOEL67OTRPD8LBC6ZGK5TZ9S138A&c=365198&tp_c=365198"},{"rt":7600,"stimulus":"\n                <p>Student's guess for coin weight: <b style=\"color:Tomato;\">0.35</b></p>\n                <p>You received a bonus of <b>$0</b>. Total bonus so far: <b>$0.38</b></b></p>\n                <p> Press any key to continue.</p>\n                ","response":"enter","trial_type":"html-keyboard-response","trial_index":22,"time_elapsed":483635,"internal_node_id":"0.0-18.0","params":{"nStudents":24,"maxFlips":30,"completionMinutes":45,"basePay":8,"maxBonus":9,"perTrialBonus":0.5,"perTrialBonusThreshold":0.1,"exampleCost":0.01},"classroomParams":{"A":{"a":1,"b":4},"B":{"a":4,"b":1},"C":{"a":2,"b":8},"D":{"a":8,"b":2}},"conditions":["nonSeqFull","nonSeqPartial","seqNoFeedback","seqFeedback"],"classroomPairings":[["A","B"],["C","D"]],"coinWeights":[0.2,0.5,0.8],"subjectId":"AH7Z2M3KSQ4DW","assignmentId":"39LOEL67OTRPD8LBC6ZGK5TZ9S138A","hitId":"3H6W48L9F4B5OEOMH57RM53ZYNHWPM","url":"https://gershmanlab.com/experiments/alicia/teaching/experiment/?hitId=3H6W48L9F4B5OEOMH57RM53ZYNHWPM&workerId=AH7Z2M3KSQ4DW&assignmentId=39LOEL67OTRPD8LBC6ZGK5TZ9S138A&a=7EL98&tp_a=7EL98&b=39LOEL67OTRPD8LBC6ZGK5TZ9S138A&tp_b=39LOEL67OTRPD8LBC6ZGK5TZ9S138A&c=365198&tp_c=365198"},{"rt":null,"stimulus":"<div style=\"font-size:60px;\">Next student</div>","response":null,"trial_type":"html-keyboard-response","trial_index":23,"time_elapsed":485896,"internal_node_id":"0.0-19.0-0.0","params":{"nStudents":24,"maxFlips":30,"completionMinutes":45,"basePay":8,"maxBonus":9,"perTrialBonus":0.5,"perTrialBonusThreshold":0.1,"exampleCost":0.01},"classroomParams":{"A":{"a":1,"b":4},"B":{"a":4,"b":1},"C":{"a":2,"b":8},"D":{"a":8,"b":2}},"conditions":["nonSeqFull","nonSeqPartial","seqNoFeedback","seqFeedback"],"classroomPairings":[["A","B"],["C","D"]],"coinWeights":[0.2,0.5,0.8],"subjectId":"AH7Z2M3KSQ4DW","assignmentId":"39LOEL67OTRPD8LBC6ZGK5TZ9S138A","hitId":"3H6W48L9F4B5OEOMH57RM53ZYNHWPM","url":"https://gershmanlab.com/experiments/alicia/teaching/experiment/?hitId=3H6W48L9F4B5OEOMH57RM53ZYNHWPM&workerId=AH7Z2M3KSQ4DW&assignmentId=39LOEL67OTRPD8LBC6ZGK5TZ9S138A&a=7EL98&tp_a=7EL98&b=39LOEL67OTRPD8LBC6ZGK5TZ9S138A&tp_b=39LOEL67OTRPD8LBC6ZGK5TZ9S138A&c=365198&tp_c=365198"},{"rt":1815,"stimulus":"\n            <h4 style=\"color:Orange;\">Student 3</h4>\n            <h2>The weight of your coin is <b style=\"color:Tomato;\">0.2</b>.</h2>\n            <p>In this block, you will be giving <b>two</b> sets of examples to Student 3.</p>\n                <p>You will see the student's guess after the first set of examples. You will also receive feedback at the end of the block.</p>\n            ","response":0,"trial_type":"html-button-response","trial_index":24,"time_elapsed":487714,"internal_node_id":"0.0-20.0","params":{"nStudents":24,"maxFlips":30,"completionMinutes":45,"basePay":8,"maxBonus":9,"perTrialBonus":0.5,"perTrialBonusThreshold":0.1,"exampleCost":0.01},"classroomParams":{"A":{"a":1,"b":4},"B":{"a":4,"b":1},"C":{"a":2,"b":8},"D":{"a":8,"b":2}},"conditions":["nonSeqFull","nonSeqPartial","seqNoFeedback","seqFeedback"],"classroomPairings":[["A","B"],["C","D"]],"coinWeights":[0.2,0.5,0.8],"subjectId":"AH7Z2M3KSQ4DW","assignmentId":"39LOEL67OTRPD8LBC6ZGK5TZ9S138A","hitId":"3H6W48L9F4B5OEOMH57RM53ZYNHWPM","url":"https://gershmanlab.com/experiments/alicia/teaching/experiment/?hitId=3H6W48L9F4B5OEOMH57RM53ZYNHWPM&workerId=AH7Z2M3KSQ4DW&assignmentId=39LOEL67OTRPD8LBC6ZGK5TZ9S138A&a=7EL98&tp_a=7EL98&b=39LOEL67OTRPD8LBC6ZGK5TZ9S138A&tp_b=39LOEL67OTRPD8LBC6ZGK5TZ9S138A&c=365198&tp_c=365198"},{"rt":6803,"response":{"heads":"2","tails":"8"},"type":"response","condition":"seqFeedback","trueTheta":0.2,"classrooms":["C","D"],"studentTrueClassroom":"C","exampleSet":"first","trial_type":"survey-html-form","trial_index":25,"time_elapsed":494522,"internal_node_id":"0.0-21.0-0.0","params":{"nStudents":24,"maxFlips":30,"completionMinutes":45,"basePay":8,"maxBonus":9,"perTrialBonus":0.5,"perTrialBonusThreshold":0.1,"exampleCost":0.01},"classroomParams":{"A":{"a":1,"b":4},"B":{"a":4,"b":1},"C":{"a":2,"b":8},"D":{"a":8,"b":2}},"conditions":["nonSeqFull","nonSeqPartial","seqNoFeedback","seqFeedback"],"classroomPairings":[["A","B"],["C","D"]],"coinWeights":[0.2,0.5,0.8],"subjectId":"AH7Z2M3KSQ4DW","assignmentId":"39LOEL67OTRPD8LBC6ZGK5TZ9S138A","hitId":"3H6W48L9F4B5OEOMH57RM53ZYNHWPM","url":"https://gershmanlab.com/experiments/alicia/teaching/experiment/?hitId=3H6W48L9F4B5OEOMH57RM53ZYNHWPM&workerId=AH7Z2M3KSQ4DW&assignmentId=39LOEL67OTRPD8LBC6ZGK5TZ9S138A&a=7EL98&tp_a=7EL98&b=39LOEL67OTRPD8LBC6ZGK5TZ9S138A&tp_b=39LOEL67OTRPD8LBC6ZGK5TZ9S138A&c=365198&tp_c=365198","heads":2,"tails":8,"studentIndex":2,"studentTrueHypers":{"a":2,"b":8},"studentGuess":0.2,"delta":0,"totalExamples":10,"bonusSoFar":0.38},{"rt":null,"stimulus":"Sending examples to student... ","response":null,"trial_type":"html-keyboard-response","trial_index":26,"time_elapsed":496044,"internal_node_id":"0.0-22.0","params":{"nStudents":24,"maxFlips":30,"completionMinutes":45,"basePay":8,"maxBonus":9,"perTrialBonus":0.5,"perTrialBonusThreshold":0.1,"exampleCost":0.01},"classroomParams":{"A":{"a":1,"b":4},"B":{"a":4,"b":1},"C":{"a":2,"b":8},"D":{"a":8,"b":2}},"conditions":["nonSeqFull","nonSeqPartial","seqNoFeedback","seqFeedback"],"classroomPairings":[["A","B"],["C","D"]],"coinWeights":[0.2,0.5,0.8],"subjectId":"AH7Z2M3KSQ4DW","assignmentId":"39LOEL67OTRPD8LBC6ZGK5TZ9S138A","hitId":"3H6W48L9F4B5OEOMH57RM53ZYNHWPM","url":"https://gershmanlab.com/experiments/alicia/teaching/experiment/?hitId=3H6W48L9F4B5OEOMH57RM53ZYNHWPM&workerId=AH7Z2M3KSQ4DW&assignmentId=39LOEL67OTRPD8LBC6ZGK5TZ9S138A&a=7EL98&tp_a=7EL98&b=39LOEL67OTRPD8LBC6ZGK5TZ9S138A&tp_b=39LOEL67OTRPD8LBC6ZGK5TZ9S138A&c=365198&tp_c=365198"},{"rt":null,"stimulus":"Examples sent to student! Waiting for student...","response":null,"trial_type":"html-keyboard-response","trial_index":27,"time_elapsed":500556,"internal_node_id":"0.0-23.0","params":{"nStudents":24,"maxFlips":30,"completionMinutes":45,"basePay":8,"maxBonus":9,"perTrialBonus":0.5,"perTrialBonusThreshold":0.1,"exampleCost":0.01},"classroomParams":{"A":{"a":1,"b":4},"B":{"a":4,"b":1},"C":{"a":2,"b":8},"D":{"a":8,"b":2}},"conditions":["nonSeqFull","nonSeqPartial","seqNoFeedback","seqFeedback"],"classroomPairings":[["A","B"],["C","D"]],"coinWeights":[0.2,0.5,0.8],"subjectId":"AH7Z2M3KSQ4DW","assignmentId":"39LOEL67OTRPD8LBC6ZGK5TZ9S138A","hitId":"3H6W48L9F4B5OEOMH57RM53ZYNHWPM","url":"https://gershmanlab.com/experiments/alicia/teaching/experiment/?hitId=3H6W48L9F4B5OEOMH57RM53ZYNHWPM&workerId=AH7Z2M3KSQ4DW&assignmentId=39LOEL67OTRPD8LBC6ZGK5TZ9S138A&a=7EL98&tp_a=7EL98&b=39LOEL67OTRPD8LBC6ZGK5TZ9S138A&tp_b=39LOEL67OTRPD8LBC6ZGK5TZ9S138A&c=365198&tp_c=365198"},{"rt":3620,"stimulus":"\n                <p>Student's guess for coin weight: <b style=\"color:Tomato;\">0.20</b></p>\n                <p></b></p>\n                <p>You will now send another set of examples to your student. Press any key to continue.</p>\n                ","response":" ","trial_type":"html-keyboard-response","trial_index":28,"time_elapsed":504180,"internal_node_id":"0.0-24.0","params":{"nStudents":24,"maxFlips":30,"completionMinutes":45,"basePay":8,"maxBonus":9,"perTrialBonus":0.5,"perTrialBonusThreshold":0.1,"exampleCost":0.01},"classroomParams":{"A":{"a":1,"b":4},"B":{"a":4,"b":1},"C":{"a":2,"b":8},"D":{"a":8,"b":2}},"conditions":["nonSeqFull","nonSeqPartial","seqNoFeedback","seqFeedback"],"classroomPairings":[["A","B"],["C","D"]],"coinWeights":[0.2,0.5,0.8],"subjectId":"AH7Z2M3KSQ4DW","assignmentId":"39LOEL67OTRPD8LBC6ZGK5TZ9S138A","hitId":"3H6W48L9F4B5OEOMH57RM53ZYNHWPM","url":"https://gershmanlab.com/experiments/alicia/teaching/experiment/?hitId=3H6W48L9F4B5OEOMH57RM53ZYNHWPM&workerId=AH7Z2M3KSQ4DW&assignmentId=39LOEL67OTRPD8LBC6ZGK5TZ9S138A&a=7EL98&tp_a=7EL98&b=39LOEL67OTRPD8LBC6ZGK5TZ9S138A&tp_b=39LOEL67OTRPD8LBC6ZGK5TZ9S138A&c=365198&tp_c=365198"},{"rt":19679,"response":{"heads":"2","tails":"8"},"type":"response","condition":"seqFeedback","trueTheta":0.2,"classrooms":["C","D"],"studentTrueClassroom":"C","exampleSet":"second","trial_type":"survey-html-form","trial_index":29,"time_elapsed":523861,"internal_node_id":"0.0-25.0-0.0","params":{"nStudents":24,"maxFlips":30,"completionMinutes":45,"basePay":8,"maxBonus":9,"perTrialBonus":0.5,"perTrialBonusThreshold":0.1,"exampleCost":0.01},"classroomParams":{"A":{"a":1,"b":4},"B":{"a":4,"b":1},"C":{"a":2,"b":8},"D":{"a":8,"b":2}},"conditions":["nonSeqFull","nonSeqPartial","seqNoFeedback","seqFeedback"],"classroomPairings":[["A","B"],["C","D"]],"coinWeights":[0.2,0.5,0.8],"subjectId":"AH7Z2M3KSQ4DW","assignmentId":"39LOEL67OTRPD8LBC6ZGK5TZ9S138A","hitId":"3H6W48L9F4B5OEOMH57RM53ZYNHWPM","url":"https://gershmanlab.com/experiments/alicia/teaching/experiment/?hitId=3H6W48L9F4B5OEOMH57RM53ZYNHWPM&workerId=AH7Z2M3KSQ4DW&assignmentId=39LOEL67OTRPD8LBC6ZGK5TZ9S138A&a=7EL98&tp_a=7EL98&b=39LOEL67OTRPD8LBC6ZGK5TZ9S138A&tp_b=39LOEL67OTRPD8LBC6ZGK5TZ9S138A&c=365198&tp_c=365198","firstResponseHeads":2,"firstResponseTails":8,"secondResponseHeads":2,"secondResponseTails":8,"studentIndex":2,"studentTrueHypers":{"a":2,"b":8},"studentGuess":0.2,"delta":0,"bonus":0.3,"bonusSoFar":0.68,"totalExamples":20},{"rt":null,"stimulus":"Sending examples to student... ","response":null,"trial_type":"html-keyboard-response","trial_index":30,"time_elapsed":525136,"internal_node_id":"0.0-26.0","params":{"nStudents":24,"maxFlips":30,"completionMinutes":45,"basePay":8,"maxBonus":9,"perTrialBonus":0.5,"perTrialBonusThreshold":0.1,"exampleCost":0.01},"classroomParams":{"A":{"a":1,"b":4},"B":{"a":4,"b":1},"C":{"a":2,"b":8},"D":{"a":8,"b":2}},"conditions":["nonSeqFull","nonSeqPartial","seqNoFeedback","seqFeedback"],"classroomPairings":[["A","B"],["C","D"]],"coinWeights":[0.2,0.5,0.8],"subjectId":"AH7Z2M3KSQ4DW","assignmentId":"39LOEL67OTRPD8LBC6ZGK5TZ9S138A","hitId":"3H6W48L9F4B5OEOMH57RM53ZYNHWPM","url":"https://gershmanlab.com/experiments/alicia/teaching/experiment/?hitId=3H6W48L9F4B5OEOMH57RM53ZYNHWPM&workerId=AH7Z2M3KSQ4DW&assignmentId=39LOEL67OTRPD8LBC6ZGK5TZ9S138A&a=7EL98&tp_a=7EL98&b=39LOEL67OTRPD8LBC6ZGK5TZ9S138A&tp_b=39LOEL67OTRPD8LBC6ZGK5TZ9S138A&c=365198&tp_c=365198"},{"rt":null,"stimulus":"Examples sent to student! Waiting for student...","response":null,"trial_type":"html-keyboard-response","trial_index":31,"time_elapsed":531143,"internal_node_id":"0.0-27.0","params":{"nStudents":24,"maxFlips":30,"completionMinutes":45,"basePay":8,"maxBonus":9,"perTrialBonus":0.5,"perTrialBonusThreshold":0.1,"exampleCost":0.01},"classroomParams":{"A":{"a":1,"b":4},"B":{"a":4,"b":1},"C":{"a":2,"b":8},"D":{"a":8,"b":2}},"conditions":["nonSeqFull","nonSeqPartial","seqNoFeedback","seqFeedback"],"classroomPairings":[["A","B"],["C","D"]],"coinWeights":[0.2,0.5,0.8],"subjectId":"AH7Z2M3KSQ4DW","assignmentId":"39LOEL67OTRPD8LBC6ZGK5TZ9S138A","hitId":"3H6W48L9F4B5OEOMH57RM53ZYNHWPM","url":"https://gershmanlab.com/experiments/alicia/teaching/experiment/?hitId=3H6W48L9F4B5OEOMH57RM53ZYNHWPM&workerId=AH7Z2M3KSQ4DW&assignmentId=39LOEL67OTRPD8LBC6ZGK5TZ9S138A&a=7EL98&tp_a=7EL98&b=39LOEL67OTRPD8LBC6ZGK5TZ9S138A&tp_b=39LOEL67OTRPD8LBC6ZGK5TZ9S138A&c=365198&tp_c=365198"},{"rt":2956,"stimulus":"\n                <p>Student 3's first guess for coin weight: <b style=\"color:Tomato\";>0.20</b></p>\n                <p>Student 3's second guess for coin weight: <b style=\"color:Tomato\";>0.20</b></p>\n                <p>You received a bonus of <b>$0.30</b> based on the student's second guess.</p>\n                <p>Total bonus so far: <b>$0.68</b></p>\n                <p>Press any key to continue.</p>\n                ","response":" ","trial_type":"html-keyboard-response","trial_index":32,"time_elapsed":534101,"internal_node_id":"0.0-28.0","params":{"nStudents":24,"maxFlips":30,"completionMinutes":45,"basePay":8,"maxBonus":9,"perTrialBonus":0.5,"perTrialBonusThreshold":0.1,"exampleCost":0.01},"classroomParams":{"A":{"a":1,"b":4},"B":{"a":4,"b":1},"C":{"a":2,"b":8},"D":{"a":8,"b":2}},"conditions":["nonSeqFull","nonSeqPartial","seqNoFeedback","seqFeedback"],"classroomPairings":[["A","B"],["C","D"]],"coinWeights":[0.2,0.5,0.8],"subjectId":"AH7Z2M3KSQ4DW","assignmentId":"39LOEL67OTRPD8LBC6ZGK5TZ9S138A","hitId":"3H6W48L9F4B5OEOMH57RM53ZYNHWPM","url":"https://gershmanlab.com/experiments/alicia/teaching/experiment/?hitId=3H6W48L9F4B5OEOMH57RM53ZYNHWPM&workerId=AH7Z2M3KSQ4DW&assignmentId=39LOEL67OTRPD8LBC6ZGK5TZ9S138A&a=7EL98&tp_a=7EL98&b=39LOEL67OTRPD8LBC6ZGK5TZ9S138A&tp_b=39LOEL67OTRPD8LBC6ZGK5TZ9S138A&c=365198&tp_c=365198"},{"rt":null,"stimulus":"<div style=\"font-size:60px;\">Next student</div>","response":null,"trial_type":"html-keyboard-response","trial_index":33,"time_elapsed":536611,"internal_node_id":"0.0-29.0-0.0","params":{"nStudents":24,"maxFlips":30,"completionMinutes":45,"basePay":8,"maxBonus":9,"perTrialBonus":0.5,"perTrialBonusThreshold":0.1,"exampleCost":0.01},"classroomParams":{"A":{"a":1,"b":4},"B":{"a":4,"b":1},"C":{"a":2,"b":8},"D":{"a":8,"b":2}},"conditions":["nonSeqFull","nonSeqPartial","seqNoFeedback","seqFeedback"],"classroomPairings":[["A","B"],["C","D"]],"coinWeights":[0.2,0.5,0.8],"subjectId":"AH7Z2M3KSQ4DW","assignmentId":"39LOEL67OTRPD8LBC6ZGK5TZ9S138A","hitId":"3H6W48L9F4B5OEOMH57RM53ZYNHWPM","url":"https://gershmanlab.com/experiments/alicia/teaching/experiment/?hitId=3H6W48L9F4B5OEOMH57RM53ZYNHWPM&workerId=AH7Z2M3KSQ4DW&assignmentId=39LOEL67OTRPD8LBC6ZGK5TZ9S138A&a=7EL98&tp_a=7EL98&b=39LOEL67OTRPD8LBC6ZGK5TZ9S138A&tp_b=39LOEL67OTRPD8LBC6ZGK5TZ9S138A&c=365198&tp_c=365198"},{"rt":3345,"stimulus":"\n            <h4 style=\"color:Orange;\">Student 4</h4>\n            <h2>The weight of your coin is <b style=\"color:Tomato;\">0.5</b>.</h2>\n            <p>In this block, you will be giving <b>one</b> set of examples to Student 4.</p>\n                <p>You will receive feedback at the end of the block.</p>\n            ","response":0,"trial_type":"html-button-response","trial_index":34,"time_elapsed":539960,"internal_node_id":"0.0-30.0","params":{"nStudents":24,"maxFlips":30,"completionMinutes":45,"basePay":8,"maxBonus":9,"perTrialBonus":0.5,"perTrialBonusThreshold":0.1,"exampleCost":0.01},"classroomParams":{"A":{"a":1,"b":4},"B":{"a":4,"b":1},"C":{"a":2,"b":8},"D":{"a":8,"b":2}},"conditions":["nonSeqFull","nonSeqPartial","seqNoFeedback","seqFeedback"],"classroomPairings":[["A","B"],["C","D"]],"coinWeights":[0.2,0.5,0.8],"subjectId":"AH7Z2M3KSQ4DW","assignmentId":"39LOEL67OTRPD8LBC6ZGK5TZ9S138A","hitId":"3H6W48L9F4B5OEOMH57RM53ZYNHWPM","url":"https://gershmanlab.com/experiments/alicia/teaching/experiment/?hitId=3H6W48L9F4B5OEOMH57RM53ZYNHWPM&workerId=AH7Z2M3KSQ4DW&assignmentId=39LOEL67OTRPD8LBC6ZGK5TZ9S138A&a=7EL98&tp_a=7EL98&b=39LOEL67OTRPD8LBC6ZGK5TZ9S138A&tp_b=39LOEL67OTRPD8LBC6ZGK5TZ9S138A&c=365198&tp_c=365198"},{"rt":21390,"response":{"heads":"2","tails":"4"},"type":"response","condition":"nonSeqPartial","trueTheta":0.5,"classrooms":["A","B"],"studentTrueClassroom":"A","exampleSet":"first","trial_type":"survey-html-form","trial_index":35,"time_elapsed":561354,"internal_node_id":"0.0-31.0-0.0","params":{"nStudents":24,"maxFlips":30,"completionMinutes":45,"basePay":8,"maxBonus":9,"perTrialBonus":0.5,"perTrialBonusThreshold":0.1,"exampleCost":0.01},"classroomParams":{"A":{"a":1,"b":4},"B":{"a":4,"b":1},"C":{"a":2,"b":8},"D":{"a":8,"b":2}},"conditions":["nonSeqFull","nonSeqPartial","seqNoFeedback","seqFeedback"],"classroomPairings":[["A","B"],["C","D"]],"coinWeights":[0.2,0.5,0.8],"subjectId":"AH7Z2M3KSQ4DW","assignmentId":"39LOEL67OTRPD8LBC6ZGK5TZ9S138A","hitId":"3H6W48L9F4B5OEOMH57RM53ZYNHWPM","url":"https://gershmanlab.com/experiments/alicia/teaching/experiment/?hitId=3H6W48L9F4B5OEOMH57RM53ZYNHWPM&workerId=AH7Z2M3KSQ4DW&assignmentId=39LOEL67OTRPD8LBC6ZGK5TZ9S138A&a=7EL98&tp_a=7EL98&b=39LOEL67OTRPD8LBC6ZGK5TZ9S138A&tp_b=39LOEL67OTRPD8LBC6ZGK5TZ9S138A&c=365198&tp_c=365198","heads":2,"tails":4,"studentIndex":3,"studentTrueHypers":{"a":1,"b":4},"studentGuess":0.2727272727272727,"delta":0.2272727272727273,"totalExamples":6,"bonus":0,"bonusSoFar":0.68},{"rt":null,"stimulus":"Sending examples to student... ","response":null,"trial_type":"html-keyboard-response","trial_index":36,"time_elapsed":562869,"internal_node_id":"0.0-32.0","params":{"nStudents":24,"maxFlips":30,"completionMinutes":45,"basePay":8,"maxBonus":9,"perTrialBonus":0.5,"perTrialBonusThreshold":0.1,"exampleCost":0.01},"classroomParams":{"A":{"a":1,"b":4},"B":{"a":4,"b":1},"C":{"a":2,"b":8},"D":{"a":8,"b":2}},"conditions":["nonSeqFull","nonSeqPartial","seqNoFeedback","seqFeedback"],"classroomPairings":[["A","B"],["C","D"]],"coinWeights":[0.2,0.5,0.8],"subjectId":"AH7Z2M3KSQ4DW","assignmentId":"39LOEL67OTRPD8LBC6ZGK5TZ9S138A","hitId":"3H6W48L9F4B5OEOMH57RM53ZYNHWPM","url":"https://gershmanlab.com/experiments/alicia/teaching/experiment/?hitId=3H6W48L9F4B5OEOMH57RM53ZYNHWPM&workerId=AH7Z2M3KSQ4DW&assignmentId=39LOEL67OTRPD8LBC6ZGK5TZ9S138A&a=7EL98&tp_a=7EL98&b=39LOEL67OTRPD8LBC6ZGK5TZ9S138A&tp_b=39LOEL67OTRPD8LBC6ZGK5TZ9S138A&c=365198&tp_c=365198"},{"rt":null,"stimulus":"Examples sent to student! Waiting for student...","response":null,"trial_type":"html-keyboard-response","trial_index":37,"time_elapsed":568382,"internal_node_id":"0.0-33.0","params":{"nStudents":24,"maxFlips":30,"completionMinutes":45,"basePay":8,"maxBonus":9,"perTrialBonus":0.5,"perTrialBonusThreshold":0.1,"exampleCost":0.01},"classroomParams":{"A":{"a":1,"b":4},"B":{"a":4,"b":1},"C":{"a":2,"b":8},"D":{"a":8,"b":2}},"conditions":["nonSeqFull","nonSeqPartial","seqNoFeedback","seqFeedback"],"classroomPairings":[["A","B"],["C","D"]],"coinWeights":[0.2,0.5,0.8],"subjectId":"AH7Z2M3KSQ4DW","assignmentId":"39LOEL67OTRPD8LBC6ZGK5TZ9S138A","hitId":"3H6W48L9F4B5OEOMH57RM53ZYNHWPM","url":"https://gershmanlab.com/experiments/alicia/teaching/experiment/?hitId=3H6W48L9F4B5OEOMH57RM53ZYNHWPM&workerId=AH7Z2M3KSQ4DW&assignmentId=39LOEL67OTRPD8LBC6ZGK5TZ9S138A&a=7EL98&tp_a=7EL98&b=39LOEL67OTRPD8LBC6ZGK5TZ9S138A&tp_b=39LOEL67OTRPD8LBC6ZGK5TZ9S138A&c=365198&tp_c=365198"},{"rt":5674,"stimulus":"\n                <p>Student's guess for coin weight: <b style=\"color:Tomato;\">0.27</b></p>\n                <p>You received a bonus of <b>$0</b>. Total bonus so far: <b>$0.68</b></b></p>\n                <p> Press any key to continue.</p>\n                ","response":"enter","trial_type":"html-keyboard-response","trial_index":38,"time_elapsed":574058,"internal_node_id":"0.0-34.0","params":{"nStudents":24,"maxFlips":30,"completionMinutes":45,"basePay":8,"maxBonus":9,"perTrialBonus":0.5,"perTrialBonusThreshold":0.1,"exampleCost":0.01},"classroomParams":{"A":{"a":1,"b":4},"B":{"a":4,"b":1},"C":{"a":2,"b":8},"D":{"a":8,"b":2}},"conditions":["nonSeqFull","nonSeqPartial","seqNoFeedback","seqFeedback"],"classroomPairings":[["A","B"],["C","D"]],"coinWeights":[0.2,0.5,0.8],"subjectId":"AH7Z2M3KSQ4DW","assignmentId":"39LOEL67OTRPD8LBC6ZGK5TZ9S138A","hitId":"3H6W48L9F4B5OEOMH57RM53ZYNHWPM","url":"https://gershmanlab.com/experiments/alicia/teaching/experiment/?hitId=3H6W48L9F4B5OEOMH57RM53ZYNHWPM&workerId=AH7Z2M3KSQ4DW&assignmentId=39LOEL67OTRPD8LBC6ZGK5TZ9S138A&a=7EL98&tp_a=7EL98&b=39LOEL67OTRPD8LBC6ZGK5TZ9S138A&tp_b=39LOEL67OTRPD8LBC6ZGK5TZ9S138A&c=365198&tp_c=365198"},{"rt":null,"stimulus":"<div style=\"font-size:60px;\">Next student</div>","response":null,"trial_type":"html-keyboard-response","trial_index":39,"time_elapsed":576560,"internal_node_id":"0.0-35.0-0.0","params":{"nStudents":24,"maxFlips":30,"completionMinutes":45,"basePay":8,"maxBonus":9,"perTrialBonus":0.5,"perTrialBonusThreshold":0.1,"exampleCost":0.01},"classroomParams":{"A":{"a":1,"b":4},"B":{"a":4,"b":1},"C":{"a":2,"b":8},"D":{"a":8,"b":2}},"conditions":["nonSeqFull","nonSeqPartial","seqNoFeedback","seqFeedback"],"classroomPairings":[["A","B"],["C","D"]],"coinWeights":[0.2,0.5,0.8],"subjectId":"AH7Z2M3KSQ4DW","assignmentId":"39LOEL67OTRPD8LBC6ZGK5TZ9S138A","hitId":"3H6W48L9F4B5OEOMH57RM53ZYNHWPM","url":"https://gershmanlab.com/experiments/alicia/teaching/experiment/?hitId=3H6W48L9F4B5OEOMH57RM53ZYNHWPM&workerId=AH7Z2M3KSQ4DW&assignmentId=39LOEL67OTRPD8LBC6ZGK5TZ9S138A&a=7EL98&tp_a=7EL98&b=39LOEL67OTRPD8LBC6ZGK5TZ9S138A&tp_b=39LOEL67OTRPD8LBC6ZGK5TZ9S138A&c=365198&tp_c=365198"},{"rt":2653,"stimulus":"\n            <h4 style=\"color:Orange;\">Student 5</h4>\n            <h2>The weight of your coin is <b style=\"color:Tomato;\">0.8</b>.</h2>\n            <p>In this block, you will be giving <b>one</b> set of examples to Student 5.</p>\n                <p>You will receive feedback at the end of the block.</p>\n            ","response":0,"trial_type":"html-button-response","trial_index":40,"time_elapsed":579228,"internal_node_id":"0.0-36.0","params":{"nStudents":24,"maxFlips":30,"completionMinutes":45,"basePay":8,"maxBonus":9,"perTrialBonus":0.5,"perTrialBonusThreshold":0.1,"exampleCost":0.01},"classroomParams":{"A":{"a":1,"b":4},"B":{"a":4,"b":1},"C":{"a":2,"b":8},"D":{"a":8,"b":2}},"conditions":["nonSeqFull","nonSeqPartial","seqNoFeedback","seqFeedback"],"classroomPairings":[["A","B"],["C","D"]],"coinWeights":[0.2,0.5,0.8],"subjectId":"AH7Z2M3KSQ4DW","assignmentId":"39LOEL67OTRPD8LBC6ZGK5TZ9S138A","hitId":"3H6W48L9F4B5OEOMH57RM53ZYNHWPM","url":"https://gershmanlab.com/experiments/alicia/teaching/experiment/?hitId=3H6W48L9F4B5OEOMH57RM53ZYNHWPM&workerId=AH7Z2M3KSQ4DW&assignmentId=39LOEL67OTRPD8LBC6ZGK5TZ9S138A&a=7EL98&tp_a=7EL98&b=39LOEL67OTRPD8LBC6ZGK5TZ9S138A&tp_b=39LOEL67OTRPD8LBC6ZGK5TZ9S138A&c=365198&tp_c=365198"},{"rt":9960,"response":{"heads":"8","tails":"2"},"type":"response","condition":"nonSeqFull","trueTheta":0.8,"classrooms":["C","D"],"studentTrueClassroom":"C","exampleSet":"first","trial_type":"survey-html-form","trial_index":41,"time_elapsed":589194,"internal_node_id":"0.0-37.0-0.0","params":{"nStudents":24,"maxFlips":30,"completionMinutes":45,"basePay":8,"maxBonus":9,"perTrialBonus":0.5,"perTrialBonusThreshold":0.1,"exampleCost":0.01},"classroomParams":{"A":{"a":1,"b":4},"B":{"a":4,"b":1},"C":{"a":2,"b":8},"D":{"a":8,"b":2}},"conditions":["nonSeqFull","nonSeqPartial","seqNoFeedback","seqFeedback"],"classroomPairings":[["A","B"],["C","D"]],"coinWeights":[0.2,0.5,0.8],"subjectId":"AH7Z2M3KSQ4DW","assignmentId":"39LOEL67OTRPD8LBC6ZGK5TZ9S138A","hitId":"3H6W48L9F4B5OEOMH57RM53ZYNHWPM","url":"https://gershmanlab.com/experiments/alicia/teaching/experiment/?hitId=3H6W48L9F4B5OEOMH57RM53ZYNHWPM&workerId=AH7Z2M3KSQ4DW&assignmentId=39LOEL67OTRPD8LBC6ZGK5TZ9S138A&a=7EL98&tp_a=7EL98&b=39LOEL67OTRPD8LBC6ZGK5TZ9S138A&tp_b=39LOEL67OTRPD8LBC6ZGK5TZ9S138A&c=365198&tp_c=365198","heads":8,"tails":2,"studentIndex":4,"studentTrueHypers":{"a":2,"b":8},"studentGuess":0.5,"delta":0.30000000000000004,"totalExamples":10,"bonus":0,"bonusSoFar":0.68},{"rt":null,"stimulus":"Sending examples to student... ","response":null,"trial_type":"html-keyboard-response","trial_index":42,"time_elapsed":590701,"internal_node_id":"0.0-38.0","params":{"nStudents":24,"maxFlips":30,"completionMinutes":45,"basePay":8,"maxBonus":9,"perTrialBonus":0.5,"perTrialBonusThreshold":0.1,"exampleCost":0.01},"classroomParams":{"A":{"a":1,"b":4},"B":{"a":4,"b":1},"C":{"a":2,"b":8},"D":{"a":8,"b":2}},"conditions":["nonSeqFull","nonSeqPartial","seqNoFeedback","seqFeedback"],"classroomPairings":[["A","B"],["C","D"]],"coinWeights":[0.2,0.5,0.8],"subjectId":"AH7Z2M3KSQ4DW","assignmentId":"39LOEL67OTRPD8LBC6ZGK5TZ9S138A","hitId":"3H6W48L9F4B5OEOMH57RM53ZYNHWPM","url":"https://gershmanlab.com/experiments/alicia/teaching/experiment/?hitId=3H6W48L9F4B5OEOMH57RM53ZYNHWPM&workerId=AH7Z2M3KSQ4DW&assignmentId=39LOEL67OTRPD8LBC6ZGK5TZ9S138A&a=7EL98&tp_a=7EL98&b=39LOEL67OTRPD8LBC6ZGK5TZ9S138A&tp_b=39LOEL67OTRPD8LBC6ZGK5TZ9S138A&c=365198&tp_c=365198"},{"rt":null,"stimulus":"Examples sent to student! Waiting for student...","response":null,"trial_type":"html-keyboard-response","trial_index":43,"time_elapsed":595715,"internal_node_id":"0.0-39.0","params":{"nStudents":24,"maxFlips":30,"completionMinutes":45,"basePay":8,"maxBonus":9,"perTrialBonus":0.5,"perTrialBonusThreshold":0.1,"exampleCost":0.01},"classroomParams":{"A":{"a":1,"b":4},"B":{"a":4,"b":1},"C":{"a":2,"b":8},"D":{"a":8,"b":2}},"conditions":["nonSeqFull","nonSeqPartial","seqNoFeedback","seqFeedback"],"classroomPairings":[["A","B"],["C","D"]],"coinWeights":[0.2,0.5,0.8],"subjectId":"AH7Z2M3KSQ4DW","assignmentId":"39LOEL67OTRPD8LBC6ZGK5TZ9S138A","hitId":"3H6W48L9F4B5OEOMH57RM53ZYNHWPM","url":"https://gershmanlab.com/experiments/alicia/teaching/experiment/?hitId=3H6W48L9F4B5OEOMH57RM53ZYNHWPM&workerId=AH7Z2M3KSQ4DW&assignmentId=39LOEL67OTRPD8LBC6ZGK5TZ9S138A&a=7EL98&tp_a=7EL98&b=39LOEL67OTRPD8LBC6ZGK5TZ9S138A&tp_b=39LOEL67OTRPD8LBC6ZGK5TZ9S138A&c=365198&tp_c=365198"},{"rt":6979,"stimulus":"\n                <p>Student's guess for coin weight: <b style=\"color:Tomato;\">0.50</b></p>\n                <p>You received a bonus of <b>$0</b>. Total bonus so far: <b>$0.68</b></b></p>\n                <p> Press any key to continue.</p>\n                ","response":"enter","trial_type":"html-keyboard-response","trial_index":44,"time_elapsed":602697,"internal_node_id":"0.0-40.0","params":{"nStudents":24,"maxFlips":30,"completionMinutes":45,"basePay":8,"maxBonus":9,"perTrialBonus":0.5,"perTrialBonusThreshold":0.1,"exampleCost":0.01},"classroomParams":{"A":{"a":1,"b":4},"B":{"a":4,"b":1},"C":{"a":2,"b":8},"D":{"a":8,"b":2}},"conditions":["nonSeqFull","nonSeqPartial","seqNoFeedback","seqFeedback"],"classroomPairings":[["A","B"],["C","D"]],"coinWeights":[0.2,0.5,0.8],"subjectId":"AH7Z2M3KSQ4DW","assignmentId":"39LOEL67OTRPD8LBC6ZGK5TZ9S138A","hitId":"3H6W48L9F4B5OEOMH57RM53ZYNHWPM","url":"https://gershmanlab.com/experiments/alicia/teaching/experiment/?hitId=3H6W48L9F4B5OEOMH57RM53ZYNHWPM&workerId=AH7Z2M3KSQ4DW&assignmentId=39LOEL67OTRPD8LBC6ZGK5TZ9S138A&a=7EL98&tp_a=7EL98&b=39LOEL67OTRPD8LBC6ZGK5TZ9S138A&tp_b=39LOEL67OTRPD8LBC6ZGK5TZ9S138A&c=365198&tp_c=365198"},{"rt":null,"stimulus":"<div style=\"font-size:60px;\">Next student</div>","response":null,"trial_type":"html-keyboard-response","trial_index":45,"time_elapsed":604701,"internal_node_id":"0.0-41.0-0.0","params":{"nStudents":24,"maxFlips":30,"completionMinutes":45,"basePay":8,"maxBonus":9,"perTrialBonus":0.5,"perTrialBonusThreshold":0.1,"exampleCost":0.01},"classroomParams":{"A":{"a":1,"b":4},"B":{"a":4,"b":1},"C":{"a":2,"b":8},"D":{"a":8,"b":2}},"conditions":["nonSeqFull","nonSeqPartial","seqNoFeedback","seqFeedback"],"classroomPairings":[["A","B"],["C","D"]],"coinWeights":[0.2,0.5,0.8],"subjectId":"AH7Z2M3KSQ4DW","assignmentId":"39LOEL67OTRPD8LBC6ZGK5TZ9S138A","hitId":"3H6W48L9F4B5OEOMH57RM53ZYNHWPM","url":"https://gershmanlab.com/experiments/alicia/teaching/experiment/?hitId=3H6W48L9F4B5OEOMH57RM53ZYNHWPM&workerId=AH7Z2M3KSQ4DW&assignmentId=39LOEL67OTRPD8LBC6ZGK5TZ9S138A&a=7EL98&tp_a=7EL98&b=39LOEL67OTRPD8LBC6ZGK5TZ9S138A&tp_b=39LOEL67OTRPD8LBC6ZGK5TZ9S138A&c=365198&tp_c=365198"},{"rt":3525,"stimulus":"\n            <h4 style=\"color:Orange;\">Student 6</h4>\n            <h2>The weight of your coin is <b style=\"color:Tomato;\">0.2</b>.</h2>\n            <p>In this block, you will be giving <b>one</b> set of examples to Student 6.</p>\n                <p>You will receive feedback at the end of the block.</p>\n            ","response":0,"trial_type":"html-button-response","trial_index":46,"time_elapsed":608229,"internal_node_id":"0.0-42.0","params":{"nStudents":24,"maxFlips":30,"completionMinutes":45,"basePay":8,"maxBonus":9,"perTrialBonus":0.5,"perTrialBonusThreshold":0.1,"exampleCost":0.01},"classroomParams":{"A":{"a":1,"b":4},"B":{"a":4,"b":1},"C":{"a":2,"b":8},"D":{"a":8,"b":2}},"conditions":["nonSeqFull","nonSeqPartial","seqNoFeedback","seqFeedback"],"classroomPairings":[["A","B"],["C","D"]],"coinWeights":[0.2,0.5,0.8],"subjectId":"AH7Z2M3KSQ4DW","assignmentId":"39LOEL67OTRPD8LBC6ZGK5TZ9S138A","hitId":"3H6W48L9F4B5OEOMH57RM53ZYNHWPM","url":"https://gershmanlab.com/experiments/alicia/teaching/experiment/?hitId=3H6W48L9F4B5OEOMH57RM53ZYNHWPM&workerId=AH7Z2M3KSQ4DW&assignmentId=39LOEL67OTRPD8LBC6ZGK5TZ9S138A&a=7EL98&tp_a=7EL98&b=39LOEL67OTRPD8LBC6ZGK5TZ9S138A&tp_b=39LOEL67OTRPD8LBC6ZGK5TZ9S138A&c=365198&tp_c=365198"},{"rt":5690,"response":{"heads":"2","tails":"8"},"type":"response","condition":"nonSeqFull","trueTheta":0.2,"classrooms":["A","B"],"studentTrueClassroom":"B","exampleSet":"first","trial_type":"survey-html-form","trial_index":47,"time_elapsed":613926,"internal_node_id":"0.0-43.0-0.0","params":{"nStudents":24,"maxFlips":30,"completionMinutes":45,"basePay":8,"maxBonus":9,"perTrialBonus":0.5,"perTrialBonusThreshold":0.1,"exampleCost":0.01},"classroomParams":{"A":{"a":1,"b":4},"B":{"a":4,"b":1},"C":{"a":2,"b":8},"D":{"a":8,"b":2}},"conditions":["nonSeqFull","nonSeqPartial","seqNoFeedback","seqFeedback"],"classroomPairings":[["A","B"],["C","D"]],"coinWeights":[0.2,0.5,0.8],"subjectId":"AH7Z2M3KSQ4DW","assignmentId":"39LOEL67OTRPD8LBC6ZGK5TZ9S138A","hitId":"3H6W48L9F4B5OEOMH57RM53ZYNHWPM","url":"https://gershmanlab.com/experiments/alicia/teaching/experiment/?hitId=3H6W48L9F4B5OEOMH57RM53ZYNHWPM&workerId=AH7Z2M3KSQ4DW&assignmentId=39LOEL67OTRPD8LBC6ZGK5TZ9S138A&a=7EL98&tp_a=7EL98&b=39LOEL67OTRPD8LBC6ZGK5TZ9S138A&tp_b=39LOEL67OTRPD8LBC6ZGK5TZ9S138A&c=365198&tp_c=365198","heads":2,"tails":8,"studentIndex":5,"studentTrueHypers":{"a":4,"b":1},"studentGuess":0.4,"delta":0.2,"totalExamples":10,"bonus":0,"bonusSoFar":0.68},{"rt":null,"stimulus":"Sending examples to student... ","response":null,"trial_type":"html-keyboard-response","trial_index":48,"time_elapsed":615690,"internal_node_id":"0.0-44.0","params":{"nStudents":24,"maxFlips":30,"completionMinutes":45,"basePay":8,"maxBonus":9,"perTrialBonus":0.5,"perTrialBonusThreshold":0.1,"exampleCost":0.01},"classroomParams":{"A":{"a":1,"b":4},"B":{"a":4,"b":1},"C":{"a":2,"b":8},"D":{"a":8,"b":2}},"conditions":["nonSeqFull","nonSeqPartial","seqNoFeedback","seqFeedback"],"classroomPairings":[["A","B"],["C","D"]],"coinWeights":[0.2,0.5,0.8],"subjectId":"AH7Z2M3KSQ4DW","assignmentId":"39LOEL67OTRPD8LBC6ZGK5TZ9S138A","hitId":"3H6W48L9F4B5OEOMH57RM53ZYNHWPM","url":"https://gershmanlab.com/experiments/alicia/teaching/experiment/?hitId=3H6W48L9F4B5OEOMH57RM53ZYNHWPM&workerId=AH7Z2M3KSQ4DW&assignmentId=39LOEL67OTRPD8LBC6ZGK5TZ9S138A&a=7EL98&tp_a=7EL98&b=39LOEL67OTRPD8LBC6ZGK5TZ9S138A&tp_b=39LOEL67OTRPD8LBC6ZGK5TZ9S138A&c=365198&tp_c=365198"},{"rt":null,"stimulus":"Examples sent to student! Waiting for student...","response":null,"trial_type":"html-keyboard-response","trial_index":49,"time_elapsed":620203,"internal_node_id":"0.0-45.0","params":{"nStudents":24,"maxFlips":30,"completionMinutes":45,"basePay":8,"maxBonus":9,"perTrialBonus":0.5,"perTrialBonusThreshold":0.1,"exampleCost":0.01},"classroomParams":{"A":{"a":1,"b":4},"B":{"a":4,"b":1},"C":{"a":2,"b":8},"D":{"a":8,"b":2}},"conditions":["nonSeqFull","nonSeqPartial","seqNoFeedback","seqFeedback"],"classroomPairings":[["A","B"],["C","D"]],"coinWeights":[0.2,0.5,0.8],"subjectId":"AH7Z2M3KSQ4DW","assignmentId":"39LOEL67OTRPD8LBC6ZGK5TZ9S138A","hitId":"3H6W48L9F4B5OEOMH57RM53ZYNHWPM","url":"https://gershmanlab.com/experiments/alicia/teaching/experiment/?hitId=3H6W48L9F4B5OEOMH57RM53ZYNHWPM&workerId=AH7Z2M3KSQ4DW&assignmentId=39LOEL67OTRPD8LBC6ZGK5TZ9S138A&a=7EL98&tp_a=7EL98&b=39LOEL67OTRPD8LBC6ZGK5TZ9S138A&tp_b=39LOEL67OTRPD8LBC6ZGK5TZ9S138A&c=365198&tp_c=365198"},{"rt":2974,"stimulus":"\n                <p>Student's guess for coin weight: <b style=\"color:Tomato;\">0.40</b></p>\n                <p>You received a bonus of <b>$0</b>. Total bonus so far: <b>$0.68</b></b></p>\n                <p> Press any key to continue.</p>\n                ","response":" ","trial_type":"html-keyboard-response","trial_index":50,"time_elapsed":623180,"internal_node_id":"0.0-46.0","params":{"nStudents":24,"maxFlips":30,"completionMinutes":45,"basePay":8,"maxBonus":9,"perTrialBonus":0.5,"perTrialBonusThreshold":0.1,"exampleCost":0.01},"classroomParams":{"A":{"a":1,"b":4},"B":{"a":4,"b":1},"C":{"a":2,"b":8},"D":{"a":8,"b":2}},"conditions":["nonSeqFull","nonSeqPartial","seqNoFeedback","seqFeedback"],"classroomPairings":[["A","B"],["C","D"]],"coinWeights":[0.2,0.5,0.8],"subjectId":"AH7Z2M3KSQ4DW","assignmentId":"39LOEL67OTRPD8LBC6ZGK5TZ9S138A","hitId":"3H6W48L9F4B5OEOMH57RM53ZYNHWPM","url":"https://gershmanlab.com/experiments/alicia/teaching/experiment/?hitId=3H6W48L9F4B5OEOMH57RM53ZYNHWPM&workerId=AH7Z2M3KSQ4DW&assignmentId=39LOEL67OTRPD8LBC6ZGK5TZ9S138A&a=7EL98&tp_a=7EL98&b=39LOEL67OTRPD8LBC6ZGK5TZ9S138A&tp_b=39LOEL67OTRPD8LBC6ZGK5TZ9S138A&c=365198&tp_c=365198"},{"rt":null,"stimulus":"<div style=\"font-size:60px;\">Next student</div>","response":null,"trial_type":"html-keyboard-response","trial_index":51,"time_elapsed":625195,"internal_node_id":"0.0-47.0-0.0","params":{"nStudents":24,"maxFlips":30,"completionMinutes":45,"basePay":8,"maxBonus":9,"perTrialBonus":0.5,"perTrialBonusThreshold":0.1,"exampleCost":0.01},"classroomParams":{"A":{"a":1,"b":4},"B":{"a":4,"b":1},"C":{"a":2,"b":8},"D":{"a":8,"b":2}},"conditions":["nonSeqFull","nonSeqPartial","seqNoFeedback","seqFeedback"],"classroomPairings":[["A","B"],["C","D"]],"coinWeights":[0.2,0.5,0.8],"subjectId":"AH7Z2M3KSQ4DW","assignmentId":"39LOEL67OTRPD8LBC6ZGK5TZ9S138A","hitId":"3H6W48L9F4B5OEOMH57RM53ZYNHWPM","url":"https://gershmanlab.com/experiments/alicia/teaching/experiment/?hitId=3H6W48L9F4B5OEOMH57RM53ZYNHWPM&workerId=AH7Z2M3KSQ4DW&assignmentId=39LOEL67OTRPD8LBC6ZGK5TZ9S138A&a=7EL98&tp_a=7EL98&b=39LOEL67OTRPD8LBC6ZGK5TZ9S138A&tp_b=39LOEL67OTRPD8LBC6ZGK5TZ9S138A&c=365198&tp_c=365198"},{"rt":2782,"stimulus":"\n            <h4 style=\"color:Orange;\">Student 7</h4>\n            <h2>The weight of your coin is <b style=\"color:Tomato;\">0.5</b>.</h2>\n            <p>In this block, you will be giving <b>two</b> sets of examples to Student 7.</p>\n                <p>You will see the student's guess after the first set of examples. You will also receive feedback at the end of the block.</p>\n            ","response":0,"trial_type":"html-button-response","trial_index":52,"time_elapsed":627979,"internal_node_id":"0.0-48.0","params":{"nStudents":24,"maxFlips":30,"completionMinutes":45,"basePay":8,"maxBonus":9,"perTrialBonus":0.5,"perTrialBonusThreshold":0.1,"exampleCost":0.01},"classroomParams":{"A":{"a":1,"b":4},"B":{"a":4,"b":1},"C":{"a":2,"b":8},"D":{"a":8,"b":2}},"conditions":["nonSeqFull","nonSeqPartial","seqNoFeedback","seqFeedback"],"classroomPairings":[["A","B"],["C","D"]],"coinWeights":[0.2,0.5,0.8],"subjectId":"AH7Z2M3KSQ4DW","assignmentId":"39LOEL67OTRPD8LBC6ZGK5TZ9S138A","hitId":"3H6W48L9F4B5OEOMH57RM53ZYNHWPM","url":"https://gershmanlab.com/experiments/alicia/teaching/experiment/?hitId=3H6W48L9F4B5OEOMH57RM53ZYNHWPM&workerId=AH7Z2M3KSQ4DW&assignmentId=39LOEL67OTRPD8LBC6ZGK5TZ9S138A&a=7EL98&tp_a=7EL98&b=39LOEL67OTRPD8LBC6ZGK5TZ9S138A&tp_b=39LOEL67OTRPD8LBC6ZGK5TZ9S138A&c=365198&tp_c=365198"},{"rt":38654,"response":{"heads":"4","tails":"1"},"type":"response","condition":"seqFeedback","trueTheta":0.5,"classrooms":["A","B"],"studentTrueClassroom":"A","exampleSet":"first","trial_type":"survey-html-form","trial_index":53,"time_elapsed":666637,"internal_node_id":"0.0-49.0-0.0","params":{"nStudents":24,"maxFlips":30,"completionMinutes":45,"basePay":8,"maxBonus":9,"perTrialBonus":0.5,"perTrialBonusThreshold":0.1,"exampleCost":0.01},"classroomParams":{"A":{"a":1,"b":4},"B":{"a":4,"b":1},"C":{"a":2,"b":8},"D":{"a":8,"b":2}},"conditions":["nonSeqFull","nonSeqPartial","seqNoFeedback","seqFeedback"],"classroomPairings":[["A","B"],["C","D"]],"coinWeights":[0.2,0.5,0.8],"subjectId":"AH7Z2M3KSQ4DW","assignmentId":"39LOEL67OTRPD8LBC6ZGK5TZ9S138A","hitId":"3H6W48L9F4B5OEOMH57RM53ZYNHWPM","url":"https://gershmanlab.com/experiments/alicia/teaching/experiment/?hitId=3H6W48L9F4B5OEOMH57RM53ZYNHWPM&workerId=AH7Z2M3KSQ4DW&assignmentId=39LOEL67OTRPD8LBC6ZGK5TZ9S138A&a=7EL98&tp_a=7EL98&b=39LOEL67OTRPD8LBC6ZGK5TZ9S138A&tp_b=39LOEL67OTRPD8LBC6ZGK5TZ9S138A&c=365198&tp_c=365198","heads":4,"tails":1,"studentIndex":6,"studentTrueHypers":{"a":1,"b":4},"studentGuess":0.5,"delta":0,"totalExamples":5,"bonusSoFar":0.68},{"rt":null,"stimulus":"Sending examples to student... ","response":null,"trial_type":"html-keyboard-response","trial_index":54,"time_elapsed":667910,"internal_node_id":"0.0-50.0","params":{"nStudents":24,"maxFlips":30,"completionMinutes":45,"basePay":8,"maxBonus":9,"perTrialBonus":0.5,"perTrialBonusThreshold":0.1,"exampleCost":0.01},"classroomParams":{"A":{"a":1,"b":4},"B":{"a":4,"b":1},"C":{"a":2,"b":8},"D":{"a":8,"b":2}},"conditions":["nonSeqFull","nonSeqPartial","seqNoFeedback","seqFeedback"],"classroomPairings":[["A","B"],["C","D"]],"coinWeights":[0.2,0.5,0.8],"subjectId":"AH7Z2M3KSQ4DW","assignmentId":"39LOEL67OTRPD8LBC6ZGK5TZ9S138A","hitId":"3H6W48L9F4B5OEOMH57RM53ZYNHWPM","url":"https://gershmanlab.com/experiments/alicia/teaching/experiment/?hitId=3H6W48L9F4B5OEOMH57RM53ZYNHWPM&workerId=AH7Z2M3KSQ4DW&assignmentId=39LOEL67OTRPD8LBC6ZGK5TZ9S138A&a=7EL98&tp_a=7EL98&b=39LOEL67OTRPD8LBC6ZGK5TZ9S138A&tp_b=39LOEL67OTRPD8LBC6ZGK5TZ9S138A&c=365198&tp_c=365198"},{"rt":null,"stimulus":"Examples sent to student! Waiting for student...","response":null,"trial_type":"html-keyboard-response","trial_index":55,"time_elapsed":672919,"internal_node_id":"0.0-51.0","params":{"nStudents":24,"maxFlips":30,"completionMinutes":45,"basePay":8,"maxBonus":9,"perTrialBonus":0.5,"perTrialBonusThreshold":0.1,"exampleCost":0.01},"classroomParams":{"A":{"a":1,"b":4},"B":{"a":4,"b":1},"C":{"a":2,"b":8},"D":{"a":8,"b":2}},"conditions":["nonSeqFull","nonSeqPartial","seqNoFeedback","seqFeedback"],"classroomPairings":[["A","B"],["C","D"]],"coinWeights":[0.2,0.5,0.8],"subjectId":"AH7Z2M3KSQ4DW","assignmentId":"39LOEL67OTRPD8LBC6ZGK5TZ9S138A","hitId":"3H6W48L9F4B5OEOMH57RM53ZYNHWPM","url":"https://gershmanlab.com/experiments/alicia/teaching/experiment/?hitId=3H6W48L9F4B5OEOMH57RM53ZYNHWPM&workerId=AH7Z2M3KSQ4DW&assignmentId=39LOEL67OTRPD8LBC6ZGK5TZ9S138A&a=7EL98&tp_a=7EL98&b=39LOEL67OTRPD8LBC6ZGK5TZ9S138A&tp_b=39LOEL67OTRPD8LBC6ZGK5TZ9S138A&c=365198&tp_c=365198"},{"rt":2738,"stimulus":"\n                <p>Student's guess for coin weight: <b style=\"color:Tomato;\">0.50</b></p>\n                <p></b></p>\n                <p>You will now send another set of examples to your student. Press any key to continue.</p>\n                ","response":" ","trial_type":"html-keyboard-response","trial_index":56,"time_elapsed":675659,"internal_node_id":"0.0-52.0","params":{"nStudents":24,"maxFlips":30,"completionMinutes":45,"basePay":8,"maxBonus":9,"perTrialBonus":0.5,"perTrialBonusThreshold":0.1,"exampleCost":0.01},"classroomParams":{"A":{"a":1,"b":4},"B":{"a":4,"b":1},"C":{"a":2,"b":8},"D":{"a":8,"b":2}},"conditions":["nonSeqFull","nonSeqPartial","seqNoFeedback","seqFeedback"],"classroomPairings":[["A","B"],["C","D"]],"coinWeights":[0.2,0.5,0.8],"subjectId":"AH7Z2M3KSQ4DW","assignmentId":"39LOEL67OTRPD8LBC6ZGK5TZ9S138A","hitId":"3H6W48L9F4B5OEOMH57RM53ZYNHWPM","url":"https://gershmanlab.com/experiments/alicia/teaching/experiment/?hitId=3H6W48L9F4B5OEOMH57RM53ZYNHWPM&workerId=AH7Z2M3KSQ4DW&assignmentId=39LOEL67OTRPD8LBC6ZGK5TZ9S138A&a=7EL98&tp_a=7EL98&b=39LOEL67OTRPD8LBC6ZGK5TZ9S138A&tp_b=39LOEL67OTRPD8LBC6ZGK5TZ9S138A&c=365198&tp_c=365198"},{"rt":5166,"response":{"heads":"4","tails":"1"},"type":"response","condition":"seqFeedback","trueTheta":0.5,"classrooms":["A","B"],"studentTrueClassroom":"A","exampleSet":"second","trial_type":"survey-html-form","trial_index":57,"time_elapsed":680828,"internal_node_id":"0.0-53.0-0.0","params":{"nStudents":24,"maxFlips":30,"completionMinutes":45,"basePay":8,"maxBonus":9,"perTrialBonus":0.5,"perTrialBonusThreshold":0.1,"exampleCost":0.01},"classroomParams":{"A":{"a":1,"b":4},"B":{"a":4,"b":1},"C":{"a":2,"b":8},"D":{"a":8,"b":2}},"conditions":["nonSeqFull","nonSeqPartial","seqNoFeedback","seqFeedback"],"classroomPairings":[["A","B"],["C","D"]],"coinWeights":[0.2,0.5,0.8],"subjectId":"AH7Z2M3KSQ4DW","assignmentId":"39LOEL67OTRPD8LBC6ZGK5TZ9S138A","hitId":"3H6W48L9F4B5OEOMH57RM53ZYNHWPM","url":"https://gershmanlab.com/experiments/alicia/teaching/experiment/?hitId=3H6W48L9F4B5OEOMH57RM53ZYNHWPM&workerId=AH7Z2M3KSQ4DW&assignmentId=39LOEL67OTRPD8LBC6ZGK5TZ9S138A&a=7EL98&tp_a=7EL98&b=39LOEL67OTRPD8LBC6ZGK5TZ9S138A&tp_b=39LOEL67OTRPD8LBC6ZGK5TZ9S138A&c=365198&tp_c=365198","firstResponseHeads":4,"firstResponseTails":1,"secondResponseHeads":4,"secondResponseTails":1,"studentIndex":6,"studentTrueHypers":{"a":1,"b":4},"studentGuess":0.6,"delta":0.09999999999999998,"bonus":0.4,"bonusSoFar":1.08,"totalExamples":10},{"rt":null,"stimulus":"Sending examples to student... ","response":null,"trial_type":"html-keyboard-response","trial_index":58,"time_elapsed":682338,"internal_node_id":"0.0-54.0","params":{"nStudents":24,"maxFlips":30,"completionMinutes":45,"basePay":8,"maxBonus":9,"perTrialBonus":0.5,"perTrialBonusThreshold":0.1,"exampleCost":0.01},"classroomParams":{"A":{"a":1,"b":4},"B":{"a":4,"b":1},"C":{"a":2,"b":8},"D":{"a":8,"b":2}},"conditions":["nonSeqFull","nonSeqPartial","seqNoFeedback","seqFeedback"],"classroomPairings":[["A","B"],["C","D"]],"coinWeights":[0.2,0.5,0.8],"subjectId":"AH7Z2M3KSQ4DW","assignmentId":"39LOEL67OTRPD8LBC6ZGK5TZ9S138A","hitId":"3H6W48L9F4B5OEOMH57RM53ZYNHWPM","url":"https://gershmanlab.com/experiments/alicia/teaching/experiment/?hitId=3H6W48L9F4B5OEOMH57RM53ZYNHWPM&workerId=AH7Z2M3KSQ4DW&assignmentId=39LOEL67OTRPD8LBC6ZGK5TZ9S138A&a=7EL98&tp_a=7EL98&b=39LOEL67OTRPD8LBC6ZGK5TZ9S138A&tp_b=39LOEL67OTRPD8LBC6ZGK5TZ9S138A&c=365198&tp_c=365198"},{"rt":null,"stimulus":"Examples sent to student! Waiting for student...","response":null,"trial_type":"html-keyboard-response","trial_index":59,"time_elapsed":686850,"internal_node_id":"0.0-55.0","params":{"nStudents":24,"maxFlips":30,"completionMinutes":45,"basePay":8,"maxBonus":9,"perTrialBonus":0.5,"perTrialBonusThreshold":0.1,"exampleCost":0.01},"classroomParams":{"A":{"a":1,"b":4},"B":{"a":4,"b":1},"C":{"a":2,"b":8},"D":{"a":8,"b":2}},"conditions":["nonSeqFull","nonSeqPartial","seqNoFeedback","seqFeedback"],"classroomPairings":[["A","B"],["C","D"]],"coinWeights":[0.2,0.5,0.8],"subjectId":"AH7Z2M3KSQ4DW","assignmentId":"39LOEL67OTRPD8LBC6ZGK5TZ9S138A","hitId":"3H6W48L9F4B5OEOMH57RM53ZYNHWPM","url":"https://gershmanlab.com/experiments/alicia/teaching/experiment/?hitId=3H6W48L9F4B5OEOMH57RM53ZYNHWPM&workerId=AH7Z2M3KSQ4DW&assignmentId=39LOEL67OTRPD8LBC6ZGK5TZ9S138A&a=7EL98&tp_a=7EL98&b=39LOEL67OTRPD8LBC6ZGK5TZ9S138A&tp_b=39LOEL67OTRPD8LBC6ZGK5TZ9S138A&c=365198&tp_c=365198"},{"rt":7116,"stimulus":"\n                <p>Student 7's first guess for coin weight: <b style=\"color:Tomato\";>0.50</b></p>\n                <p>Student 7's second guess for coin weight: <b style=\"color:Tomato\";>0.60</b></p>\n                <p>You received a bonus of <b>$0.40</b> based on the student's second guess.</p>\n                <p>Total bonus so far: <b>$1.08</b></p>\n                <p>Press any key to continue.</p>\n                ","response":"enter","trial_type":"html-keyboard-response","trial_index":60,"time_elapsed":693968,"internal_node_id":"0.0-56.0","params":{"nStudents":24,"maxFlips":30,"completionMinutes":45,"basePay":8,"maxBonus":9,"perTrialBonus":0.5,"perTrialBonusThreshold":0.1,"exampleCost":0.01},"classroomParams":{"A":{"a":1,"b":4},"B":{"a":4,"b":1},"C":{"a":2,"b":8},"D":{"a":8,"b":2}},"conditions":["nonSeqFull","nonSeqPartial","seqNoFeedback","seqFeedback"],"classroomPairings":[["A","B"],["C","D"]],"coinWeights":[0.2,0.5,0.8],"subjectId":"AH7Z2M3KSQ4DW","assignmentId":"39LOEL67OTRPD8LBC6ZGK5TZ9S138A","hitId":"3H6W48L9F4B5OEOMH57RM53ZYNHWPM","url":"https://gershmanlab.com/experiments/alicia/teaching/experiment/?hitId=3H6W48L9F4B5OEOMH57RM53ZYNHWPM&workerId=AH7Z2M3KSQ4DW&assignmentId=39LOEL67OTRPD8LBC6ZGK5TZ9S138A&a=7EL98&tp_a=7EL98&b=39LOEL67OTRPD8LBC6ZGK5TZ9S138A&tp_b=39LOEL67OTRPD8LBC6ZGK5TZ9S138A&c=365198&tp_c=365198"},{"rt":null,"stimulus":"<div style=\"font-size:60px;\">Next student</div>","response":null,"trial_type":"html-keyboard-response","trial_index":61,"time_elapsed":696229,"internal_node_id":"0.0-57.0-0.0","params":{"nStudents":24,"maxFlips":30,"completionMinutes":45,"basePay":8,"maxBonus":9,"perTrialBonus":0.5,"perTrialBonusThreshold":0.1,"exampleCost":0.01},"classroomParams":{"A":{"a":1,"b":4},"B":{"a":4,"b":1},"C":{"a":2,"b":8},"D":{"a":8,"b":2}},"conditions":["nonSeqFull","nonSeqPartial","seqNoFeedback","seqFeedback"],"classroomPairings":[["A","B"],["C","D"]],"coinWeights":[0.2,0.5,0.8],"subjectId":"AH7Z2M3KSQ4DW","assignmentId":"39LOEL67OTRPD8LBC6ZGK5TZ9S138A","hitId":"3H6W48L9F4B5OEOMH57RM53ZYNHWPM","url":"https://gershmanlab.com/experiments/alicia/teaching/experiment/?hitId=3H6W48L9F4B5OEOMH57RM53ZYNHWPM&workerId=AH7Z2M3KSQ4DW&assignmentId=39LOEL67OTRPD8LBC6ZGK5TZ9S138A&a=7EL98&tp_a=7EL98&b=39LOEL67OTRPD8LBC6ZGK5TZ9S138A&tp_b=39LOEL67OTRPD8LBC6ZGK5TZ9S138A&c=365198&tp_c=365198"},{"rt":6157,"stimulus":"\n            <h4 style=\"color:Orange;\">Student 8</h4>\n            <h2>The weight of your coin is <b style=\"color:Tomato;\">0.2</b>.</h2>\n            <p>In this block, you will be giving <b>two</b> sets of examples to Student 8.</p>\n                <p>You will see the student's guess after the first set of examples. You will also receive feedback at the end of the block.</p>\n            ","response":0,"trial_type":"html-button-response","trial_index":62,"time_elapsed":702386,"internal_node_id":"0.0-58.0","params":{"nStudents":24,"maxFlips":30,"completionMinutes":45,"basePay":8,"maxBonus":9,"perTrialBonus":0.5,"perTrialBonusThreshold":0.1,"exampleCost":0.01},"classroomParams":{"A":{"a":1,"b":4},"B":{"a":4,"b":1},"C":{"a":2,"b":8},"D":{"a":8,"b":2}},"conditions":["nonSeqFull","nonSeqPartial","seqNoFeedback","seqFeedback"],"classroomPairings":[["A","B"],["C","D"]],"coinWeights":[0.2,0.5,0.8],"subjectId":"AH7Z2M3KSQ4DW","assignmentId":"39LOEL67OTRPD8LBC6ZGK5TZ9S138A","hitId":"3H6W48L9F4B5OEOMH57RM53ZYNHWPM","url":"https://gershmanlab.com/experiments/alicia/teaching/experiment/?hitId=3H6W48L9F4B5OEOMH57RM53ZYNHWPM&workerId=AH7Z2M3KSQ4DW&assignmentId=39LOEL67OTRPD8LBC6ZGK5TZ9S138A&a=7EL98&tp_a=7EL98&b=39LOEL67OTRPD8LBC6ZGK5TZ9S138A&tp_b=39LOEL67OTRPD8LBC6ZGK5TZ9S138A&c=365198&tp_c=365198"},{"rt":18884,"response":{"heads":"2","tails":"8"},"type":"response","condition":"seqFeedback","trueTheta":0.2,"classrooms":["A","B"],"studentTrueClassroom":"B","exampleSet":"first","trial_type":"survey-html-form","trial_index":63,"time_elapsed":721275,"internal_node_id":"0.0-59.0-0.0","params":{"nStudents":24,"maxFlips":30,"completionMinutes":45,"basePay":8,"maxBonus":9,"perTrialBonus":0.5,"perTrialBonusThreshold":0.1,"exampleCost":0.01},"classroomParams":{"A":{"a":1,"b":4},"B":{"a":4,"b":1},"C":{"a":2,"b":8},"D":{"a":8,"b":2}},"conditions":["nonSeqFull","nonSeqPartial","seqNoFeedback","seqFeedback"],"classroomPairings":[["A","B"],["C","D"]],"coinWeights":[0.2,0.5,0.8],"subjectId":"AH7Z2M3KSQ4DW","assignmentId":"39LOEL67OTRPD8LBC6ZGK5TZ9S138A","hitId":"3H6W48L9F4B5OEOMH57RM53ZYNHWPM","url":"https://gershmanlab.com/experiments/alicia/teaching/experiment/?hitId=3H6W48L9F4B5OEOMH57RM53ZYNHWPM&workerId=AH7Z2M3KSQ4DW&assignmentId=39LOEL67OTRPD8LBC6ZGK5TZ9S138A&a=7EL98&tp_a=7EL98&b=39LOEL67OTRPD8LBC6ZGK5TZ9S138A&tp_b=39LOEL67OTRPD8LBC6ZGK5TZ9S138A&c=365198&tp_c=365198","heads":2,"tails":8,"studentIndex":7,"studentTrueHypers":{"a":4,"b":1},"studentGuess":0.4,"delta":0.2,"totalExamples":10,"bonusSoFar":1.08},{"rt":null,"stimulus":"Sending examples to student... ","response":null,"trial_type":"html-keyboard-response","trial_index":64,"time_elapsed":722546,"internal_node_id":"0.0-60.0","params":{"nStudents":24,"maxFlips":30,"completionMinutes":45,"basePay":8,"maxBonus":9,"perTrialBonus":0.5,"perTrialBonusThreshold":0.1,"exampleCost":0.01},"classroomParams":{"A":{"a":1,"b":4},"B":{"a":4,"b":1},"C":{"a":2,"b":8},"D":{"a":8,"b":2}},"conditions":["nonSeqFull","nonSeqPartial","seqNoFeedback","seqFeedback"],"classroomPairings":[["A","B"],["C","D"]],"coinWeights":[0.2,0.5,0.8],"subjectId":"AH7Z2M3KSQ4DW","assignmentId":"39LOEL67OTRPD8LBC6ZGK5TZ9S138A","hitId":"3H6W48L9F4B5OEOMH57RM53ZYNHWPM","url":"https://gershmanlab.com/experiments/alicia/teaching/experiment/?hitId=3H6W48L9F4B5OEOMH57RM53ZYNHWPM&workerId=AH7Z2M3KSQ4DW&assignmentId=39LOEL67OTRPD8LBC6ZGK5TZ9S138A&a=7EL98&tp_a=7EL98&b=39LOEL67OTRPD8LBC6ZGK5TZ9S138A&tp_b=39LOEL67OTRPD8LBC6ZGK5TZ9S138A&c=365198&tp_c=365198"},{"rt":null,"stimulus":"Examples sent to student! Waiting for student...","response":null,"trial_type":"html-keyboard-response","trial_index":65,"time_elapsed":727062,"internal_node_id":"0.0-61.0","params":{"nStudents":24,"maxFlips":30,"completionMinutes":45,"basePay":8,"maxBonus":9,"perTrialBonus":0.5,"perTrialBonusThreshold":0.1,"exampleCost":0.01},"classroomParams":{"A":{"a":1,"b":4},"B":{"a":4,"b":1},"C":{"a":2,"b":8},"D":{"a":8,"b":2}},"conditions":["nonSeqFull","nonSeqPartial","seqNoFeedback","seqFeedback"],"classroomPairings":[["A","B"],["C","D"]],"coinWeights":[0.2,0.5,0.8],"subjectId":"AH7Z2M3KSQ4DW","assignmentId":"39LOEL67OTRPD8LBC6ZGK5TZ9S138A","hitId":"3H6W48L9F4B5OEOMH57RM53ZYNHWPM","url":"https://gershmanlab.com/experiments/alicia/teaching/experiment/?hitId=3H6W48L9F4B5OEOMH57RM53ZYNHWPM&workerId=AH7Z2M3KSQ4DW&assignmentId=39LOEL67OTRPD8LBC6ZGK5TZ9S138A&a=7EL98&tp_a=7EL98&b=39LOEL67OTRPD8LBC6ZGK5TZ9S138A&tp_b=39LOEL67OTRPD8LBC6ZGK5TZ9S138A&c=365198&tp_c=365198"},{"rt":6166,"stimulus":"\n                <p>Student's guess for coin weight: <b style=\"color:Tomato;\">0.40</b></p>\n                <p></b></p>\n                <p>You will now send another set of examples to your student. Press any key to continue.</p>\n                ","response":"enter","trial_type":"html-keyboard-response","trial_index":66,"time_elapsed":733230,"internal_node_id":"0.0-62.0","params":{"nStudents":24,"maxFlips":30,"completionMinutes":45,"basePay":8,"maxBonus":9,"perTrialBonus":0.5,"perTrialBonusThreshold":0.1,"exampleCost":0.01},"classroomParams":{"A":{"a":1,"b":4},"B":{"a":4,"b":1},"C":{"a":2,"b":8},"D":{"a":8,"b":2}},"conditions":["nonSeqFull","nonSeqPartial","seqNoFeedback","seqFeedback"],"classroomPairings":[["A","B"],["C","D"]],"coinWeights":[0.2,0.5,0.8],"subjectId":"AH7Z2M3KSQ4DW","assignmentId":"39LOEL67OTRPD8LBC6ZGK5TZ9S138A","hitId":"3H6W48L9F4B5OEOMH57RM53ZYNHWPM","url":"https://gershmanlab.com/experiments/alicia/teaching/experiment/?hitId=3H6W48L9F4B5OEOMH57RM53ZYNHWPM&workerId=AH7Z2M3KSQ4DW&assignmentId=39LOEL67OTRPD8LBC6ZGK5TZ9S138A&a=7EL98&tp_a=7EL98&b=39LOEL67OTRPD8LBC6ZGK5TZ9S138A&tp_b=39LOEL67OTRPD8LBC6ZGK5TZ9S138A&c=365198&tp_c=365198"},{"rt":7802,"response":{"heads":"1","tails":"4"},"type":"response","condition":"seqFeedback","trueTheta":0.2,"classrooms":["A","B"],"studentTrueClassroom":"B","exampleSet":"second","trial_type":"survey-html-form","trial_index":67,"time_elapsed":741035,"internal_node_id":"0.0-63.0-0.0","params":{"nStudents":24,"maxFlips":30,"completionMinutes":45,"basePay":8,"maxBonus":9,"perTrialBonus":0.5,"perTrialBonusThreshold":0.1,"exampleCost":0.01},"classroomParams":{"A":{"a":1,"b":4},"B":{"a":4,"b":1},"C":{"a":2,"b":8},"D":{"a":8,"b":2}},"conditions":["nonSeqFull","nonSeqPartial","seqNoFeedback","seqFeedback"],"classroomPairings":[["A","B"],["C","D"]],"coinWeights":[0.2,0.5,0.8],"subjectId":"AH7Z2M3KSQ4DW","assignmentId":"39LOEL67OTRPD8LBC6ZGK5TZ9S138A","hitId":"3H6W48L9F4B5OEOMH57RM53ZYNHWPM","url":"https://gershmanlab.com/experiments/alicia/teaching/experiment/?hitId=3H6W48L9F4B5OEOMH57RM53ZYNHWPM&workerId=AH7Z2M3KSQ4DW&assignmentId=39LOEL67OTRPD8LBC6ZGK5TZ9S138A&a=7EL98&tp_a=7EL98&b=39LOEL67OTRPD8LBC6ZGK5TZ9S138A&tp_b=39LOEL67OTRPD8LBC6ZGK5TZ9S138A&c=365198&tp_c=365198","firstResponseHeads":2,"firstResponseTails":8,"secondResponseHeads":1,"secondResponseTails":4,"studentIndex":7,"studentTrueHypers":{"a":4,"b":1},"studentGuess":0.35,"delta":0.14999999999999997,"bonus":0,"bonusSoFar":1.08,"totalExamples":15},{"rt":null,"stimulus":"Sending examples to student... ","response":null,"trial_type":"html-keyboard-response","trial_index":68,"time_elapsed":742311,"internal_node_id":"0.0-64.0","params":{"nStudents":24,"maxFlips":30,"completionMinutes":45,"basePay":8,"maxBonus":9,"perTrialBonus":0.5,"perTrialBonusThreshold":0.1,"exampleCost":0.01},"classroomParams":{"A":{"a":1,"b":4},"B":{"a":4,"b":1},"C":{"a":2,"b":8},"D":{"a":8,"b":2}},"conditions":["nonSeqFull","nonSeqPartial","seqNoFeedback","seqFeedback"],"classroomPairings":[["A","B"],["C","D"]],"coinWeights":[0.2,0.5,0.8],"subjectId":"AH7Z2M3KSQ4DW","assignmentId":"39LOEL67OTRPD8LBC6ZGK5TZ9S138A","hitId":"3H6W48L9F4B5OEOMH57RM53ZYNHWPM","url":"https://gershmanlab.com/experiments/alicia/teaching/experiment/?hitId=3H6W48L9F4B5OEOMH57RM53ZYNHWPM&workerId=AH7Z2M3KSQ4DW&assignmentId=39LOEL67OTRPD8LBC6ZGK5TZ9S138A&a=7EL98&tp_a=7EL98&b=39LOEL67OTRPD8LBC6ZGK5TZ9S138A&tp_b=39LOEL67OTRPD8LBC6ZGK5TZ9S138A&c=365198&tp_c=365198"},{"rt":null,"stimulus":"Examples sent to student! Waiting for student...","response":null,"trial_type":"html-keyboard-response","trial_index":69,"time_elapsed":747824,"internal_node_id":"0.0-65.0","params":{"nStudents":24,"maxFlips":30,"completionMinutes":45,"basePay":8,"maxBonus":9,"perTrialBonus":0.5,"perTrialBonusThreshold":0.1,"exampleCost":0.01},"classroomParams":{"A":{"a":1,"b":4},"B":{"a":4,"b":1},"C":{"a":2,"b":8},"D":{"a":8,"b":2}},"conditions":["nonSeqFull","nonSeqPartial","seqNoFeedback","seqFeedback"],"classroomPairings":[["A","B"],["C","D"]],"coinWeights":[0.2,0.5,0.8],"subjectId":"AH7Z2M3KSQ4DW","assignmentId":"39LOEL67OTRPD8LBC6ZGK5TZ9S138A","hitId":"3H6W48L9F4B5OEOMH57RM53ZYNHWPM","url":"https://gershmanlab.com/experiments/alicia/teaching/experiment/?hitId=3H6W48L9F4B5OEOMH57RM53ZYNHWPM&workerId=AH7Z2M3KSQ4DW&assignmentId=39LOEL67OTRPD8LBC6ZGK5TZ9S138A&a=7EL98&tp_a=7EL98&b=39LOEL67OTRPD8LBC6ZGK5TZ9S138A&tp_b=39LOEL67OTRPD8LBC6ZGK5TZ9S138A&c=365198&tp_c=365198"},{"rt":11140,"stimulus":"\n                <p>Student 8's first guess for coin weight: <b style=\"color:Tomato\";>0.40</b></p>\n                <p>Student 8's second guess for coin weight: <b style=\"color:Tomato\";>0.35</b></p>\n                <p>You received a bonus of <b>$0.00</b> based on the student's second guess.</p>\n                <p>Total bonus so far: <b>$1.08</b></p>\n                <p>Press any key to continue.</p>\n                ","response":"j","trial_type":"html-keyboard-response","trial_index":70,"time_elapsed":758967,"internal_node_id":"0.0-66.0","params":{"nStudents":24,"maxFlips":30,"completionMinutes":45,"basePay":8,"maxBonus":9,"perTrialBonus":0.5,"perTrialBonusThreshold":0.1,"exampleCost":0.01},"classroomParams":{"A":{"a":1,"b":4},"B":{"a":4,"b":1},"C":{"a":2,"b":8},"D":{"a":8,"b":2}},"conditions":["nonSeqFull","nonSeqPartial","seqNoFeedback","seqFeedback"],"classroomPairings":[["A","B"],["C","D"]],"coinWeights":[0.2,0.5,0.8],"subjectId":"AH7Z2M3KSQ4DW","assignmentId":"39LOEL67OTRPD8LBC6ZGK5TZ9S138A","hitId":"3H6W48L9F4B5OEOMH57RM53ZYNHWPM","url":"https://gershmanlab.com/experiments/alicia/teaching/experiment/?hitId=3H6W48L9F4B5OEOMH57RM53ZYNHWPM&workerId=AH7Z2M3KSQ4DW&assignmentId=39LOEL67OTRPD8LBC6ZGK5TZ9S138A&a=7EL98&tp_a=7EL98&b=39LOEL67OTRPD8LBC6ZGK5TZ9S138A&tp_b=39LOEL67OTRPD8LBC6ZGK5TZ9S138A&c=365198&tp_c=365198"},{"rt":null,"stimulus":"<div style=\"font-size:60px;\">Next student</div>","response":null,"trial_type":"html-keyboard-response","trial_index":71,"time_elapsed":760977,"internal_node_id":"0.0-67.0-0.0","params":{"nStudents":24,"maxFlips":30,"completionMinutes":45,"basePay":8,"maxBonus":9,"perTrialBonus":0.5,"perTrialBonusThreshold":0.1,"exampleCost":0.01},"classroomParams":{"A":{"a":1,"b":4},"B":{"a":4,"b":1},"C":{"a":2,"b":8},"D":{"a":8,"b":2}},"conditions":["nonSeqFull","nonSeqPartial","seqNoFeedback","seqFeedback"],"classroomPairings":[["A","B"],["C","D"]],"coinWeights":[0.2,0.5,0.8],"subjectId":"AH7Z2M3KSQ4DW","assignmentId":"39LOEL67OTRPD8LBC6ZGK5TZ9S138A","hitId":"3H6W48L9F4B5OEOMH57RM53ZYNHWPM","url":"https://gershmanlab.com/experiments/alicia/teaching/experiment/?hitId=3H6W48L9F4B5OEOMH57RM53ZYNHWPM&workerId=AH7Z2M3KSQ4DW&assignmentId=39LOEL67OTRPD8LBC6ZGK5TZ9S138A&a=7EL98&tp_a=7EL98&b=39LOEL67OTRPD8LBC6ZGK5TZ9S138A&tp_b=39LOEL67OTRPD8LBC6ZGK5TZ9S138A&c=365198&tp_c=365198"},{"rt":104011,"stimulus":"\n            <h4 style=\"color:Orange;\">Student 9</h4>\n            <h2>The weight of your coin is <b style=\"color:Tomato;\">0.5</b>.</h2>\n            <p>In this block, you will be giving <b>two</b> sets of examples to Student 9.</p>\n                <p>You will receive feedback at the end of the block.</p>\n            ","response":0,"trial_type":"html-button-response","trial_index":72,"time_elapsed":864991,"internal_node_id":"0.0-68.0","params":{"nStudents":24,"maxFlips":30,"completionMinutes":45,"basePay":8,"maxBonus":9,"perTrialBonus":0.5,"perTrialBonusThreshold":0.1,"exampleCost":0.01},"classroomParams":{"A":{"a":1,"b":4},"B":{"a":4,"b":1},"C":{"a":2,"b":8},"D":{"a":8,"b":2}},"conditions":["nonSeqFull","nonSeqPartial","seqNoFeedback","seqFeedback"],"classroomPairings":[["A","B"],["C","D"]],"coinWeights":[0.2,0.5,0.8],"subjectId":"AH7Z2M3KSQ4DW","assignmentId":"39LOEL67OTRPD8LBC6ZGK5TZ9S138A","hitId":"3H6W48L9F4B5OEOMH57RM53ZYNHWPM","url":"https://gershmanlab.com/experiments/alicia/teaching/experiment/?hitId=3H6W48L9F4B5OEOMH57RM53ZYNHWPM&workerId=AH7Z2M3KSQ4DW&assignmentId=39LOEL67OTRPD8LBC6ZGK5TZ9S138A&a=7EL98&tp_a=7EL98&b=39LOEL67OTRPD8LBC6ZGK5TZ9S138A&tp_b=39LOEL67OTRPD8LBC6ZGK5TZ9S138A&c=365198&tp_c=365198"},{"rt":17618,"response":{"heads":"5","tails":"10"},"type":"response","condition":"seqNoFeedback","trueTheta":0.5,"classrooms":["C","D"],"studentTrueClassroom":"D","exampleSet":"first","trial_type":"survey-html-form","trial_index":73,"time_elapsed":882614,"internal_node_id":"0.0-69.0-0.0","params":{"nStudents":24,"maxFlips":30,"completionMinutes":45,"basePay":8,"maxBonus":9,"perTrialBonus":0.5,"perTrialBonusThreshold":0.1,"exampleCost":0.01},"classroomParams":{"A":{"a":1,"b":4},"B":{"a":4,"b":1},"C":{"a":2,"b":8},"D":{"a":8,"b":2}},"conditions":["nonSeqFull","nonSeqPartial","seqNoFeedback","seqFeedback"],"classroomPairings":[["A","B"],["C","D"]],"coinWeights":[0.2,0.5,0.8],"subjectId":"AH7Z2M3KSQ4DW","assignmentId":"39LOEL67OTRPD8LBC6ZGK5TZ9S138A","hitId":"3H6W48L9F4B5OEOMH57RM53ZYNHWPM","url":"https://gershmanlab.com/experiments/alicia/teaching/experiment/?hitId=3H6W48L9F4B5OEOMH57RM53ZYNHWPM&workerId=AH7Z2M3KSQ4DW&assignmentId=39LOEL67OTRPD8LBC6ZGK5TZ9S138A&a=7EL98&tp_a=7EL98&b=39LOEL67OTRPD8LBC6ZGK5TZ9S138A&tp_b=39LOEL67OTRPD8LBC6ZGK5TZ9S138A&c=365198&tp_c=365198","heads":5,"tails":10,"studentIndex":8,"studentTrueHypers":{"a":8,"b":2},"studentGuess":0.52,"delta":0.020000000000000018,"totalExamples":15,"bonusSoFar":1.08},{"rt":null,"stimulus":"Sending examples to student... ","response":null,"trial_type":"html-keyboard-response","trial_index":74,"time_elapsed":884373,"internal_node_id":"0.0-70.0","params":{"nStudents":24,"maxFlips":30,"completionMinutes":45,"basePay":8,"maxBonus":9,"perTrialBonus":0.5,"perTrialBonusThreshold":0.1,"exampleCost":0.01},"classroomParams":{"A":{"a":1,"b":4},"B":{"a":4,"b":1},"C":{"a":2,"b":8},"D":{"a":8,"b":2}},"conditions":["nonSeqFull","nonSeqPartial","seqNoFeedback","seqFeedback"],"classroomPairings":[["A","B"],["C","D"]],"coinWeights":[0.2,0.5,0.8],"subjectId":"AH7Z2M3KSQ4DW","assignmentId":"39LOEL67OTRPD8LBC6ZGK5TZ9S138A","hitId":"3H6W48L9F4B5OEOMH57RM53ZYNHWPM","url":"https://gershmanlab.com/experiments/alicia/teaching/experiment/?hitId=3H6W48L9F4B5OEOMH57RM53ZYNHWPM&workerId=AH7Z2M3KSQ4DW&assignmentId=39LOEL67OTRPD8LBC6ZGK5TZ9S138A&a=7EL98&tp_a=7EL98&b=39LOEL67OTRPD8LBC6ZGK5TZ9S138A&tp_b=39LOEL67OTRPD8LBC6ZGK5TZ9S138A&c=365198&tp_c=365198"},{"rt":null,"stimulus":"Examples sent to student! Waiting for student...","response":null,"trial_type":"html-keyboard-response","trial_index":75,"time_elapsed":888881,"internal_node_id":"0.0-71.0","params":{"nStudents":24,"maxFlips":30,"completionMinutes":45,"basePay":8,"maxBonus":9,"perTrialBonus":0.5,"perTrialBonusThreshold":0.1,"exampleCost":0.01},"classroomParams":{"A":{"a":1,"b":4},"B":{"a":4,"b":1},"C":{"a":2,"b":8},"D":{"a":8,"b":2}},"conditions":["nonSeqFull","nonSeqPartial","seqNoFeedback","seqFeedback"],"classroomPairings":[["A","B"],["C","D"]],"coinWeights":[0.2,0.5,0.8],"subjectId":"AH7Z2M3KSQ4DW","assignmentId":"39LOEL67OTRPD8LBC6ZGK5TZ9S138A","hitId":"3H6W48L9F4B5OEOMH57RM53ZYNHWPM","url":"https://gershmanlab.com/experiments/alicia/teaching/experiment/?hitId=3H6W48L9F4B5OEOMH57RM53ZYNHWPM&workerId=AH7Z2M3KSQ4DW&assignmentId=39LOEL67OTRPD8LBC6ZGK5TZ9S138A&a=7EL98&tp_a=7EL98&b=39LOEL67OTRPD8LBC6ZGK5TZ9S138A&tp_b=39LOEL67OTRPD8LBC6ZGK5TZ9S138A&c=365198&tp_c=365198"},{"rt":46993,"response":{"heads":"10","tails":"5"},"type":"response","condition":"seqNoFeedback","trueTheta":0.5,"classrooms":["C","D"],"studentTrueClassroom":"D","exampleSet":"second","trial_type":"survey-html-form","trial_index":76,"time_elapsed":935877,"internal_node_id":"0.0-72.0-0.0","params":{"nStudents":24,"maxFlips":30,"completionMinutes":45,"basePay":8,"maxBonus":9,"perTrialBonus":0.5,"perTrialBonusThreshold":0.1,"exampleCost":0.01},"classroomParams":{"A":{"a":1,"b":4},"B":{"a":4,"b":1},"C":{"a":2,"b":8},"D":{"a":8,"b":2}},"conditions":["nonSeqFull","nonSeqPartial","seqNoFeedback","seqFeedback"],"classroomPairings":[["A","B"],["C","D"]],"coinWeights":[0.2,0.5,0.8],"subjectId":"AH7Z2M3KSQ4DW","assignmentId":"39LOEL67OTRPD8LBC6ZGK5TZ9S138A","hitId":"3H6W48L9F4B5OEOMH57RM53ZYNHWPM","url":"https://gershmanlab.com/experiments/alicia/teaching/experiment/?hitId=3H6W48L9F4B5OEOMH57RM53ZYNHWPM&workerId=AH7Z2M3KSQ4DW&assignmentId=39LOEL67OTRPD8LBC6ZGK5TZ9S138A&a=7EL98&tp_a=7EL98&b=39LOEL67OTRPD8LBC6ZGK5TZ9S138A&tp_b=39LOEL67OTRPD8LBC6ZGK5TZ9S138A&c=365198&tp_c=365198","firstResponseHeads":5,"firstResponseTails":10,"secondResponseHeads":10,"secondResponseTails":5,"studentIndex":8,"studentTrueHypers":{"a":8,"b":2},"studentGuess":0.575,"delta":0.07499999999999996,"bonus":0.2,"bonusSoFar":1.28,"totalExamples":30},{"rt":null,"stimulus":"Sending examples to student... ","response":null,"trial_type":"html-keyboard-response","trial_index":77,"time_elapsed":937150,"internal_node_id":"0.0-73.0","params":{"nStudents":24,"maxFlips":30,"completionMinutes":45,"basePay":8,"maxBonus":9,"perTrialBonus":0.5,"perTrialBonusThreshold":0.1,"exampleCost":0.01},"classroomParams":{"A":{"a":1,"b":4},"B":{"a":4,"b":1},"C":{"a":2,"b":8},"D":{"a":8,"b":2}},"conditions":["nonSeqFull","nonSeqPartial","seqNoFeedback","seqFeedback"],"classroomPairings":[["A","B"],["C","D"]],"coinWeights":[0.2,0.5,0.8],"subjectId":"AH7Z2M3KSQ4DW","assignmentId":"39LOEL67OTRPD8LBC6ZGK5TZ9S138A","hitId":"3H6W48L9F4B5OEOMH57RM53ZYNHWPM","url":"https://gershmanlab.com/experiments/alicia/teaching/experiment/?hitId=3H6W48L9F4B5OEOMH57RM53ZYNHWPM&workerId=AH7Z2M3KSQ4DW&assignmentId=39LOEL67OTRPD8LBC6ZGK5TZ9S138A&a=7EL98&tp_a=7EL98&b=39LOEL67OTRPD8LBC6ZGK5TZ9S138A&tp_b=39LOEL67OTRPD8LBC6ZGK5TZ9S138A&c=365198&tp_c=365198"},{"rt":null,"stimulus":"Examples sent to student! Waiting for student...","response":null,"trial_type":"html-keyboard-response","trial_index":78,"time_elapsed":943153,"internal_node_id":"0.0-74.0","params":{"nStudents":24,"maxFlips":30,"completionMinutes":45,"basePay":8,"maxBonus":9,"perTrialBonus":0.5,"perTrialBonusThreshold":0.1,"exampleCost":0.01},"classroomParams":{"A":{"a":1,"b":4},"B":{"a":4,"b":1},"C":{"a":2,"b":8},"D":{"a":8,"b":2}},"conditions":["nonSeqFull","nonSeqPartial","seqNoFeedback","seqFeedback"],"classroomPairings":[["A","B"],["C","D"]],"coinWeights":[0.2,0.5,0.8],"subjectId":"AH7Z2M3KSQ4DW","assignmentId":"39LOEL67OTRPD8LBC6ZGK5TZ9S138A","hitId":"3H6W48L9F4B5OEOMH57RM53ZYNHWPM","url":"https://gershmanlab.com/experiments/alicia/teaching/experiment/?hitId=3H6W48L9F4B5OEOMH57RM53ZYNHWPM&workerId=AH7Z2M3KSQ4DW&assignmentId=39LOEL67OTRPD8LBC6ZGK5TZ9S138A&a=7EL98&tp_a=7EL98&b=39LOEL67OTRPD8LBC6ZGK5TZ9S138A&tp_b=39LOEL67OTRPD8LBC6ZGK5TZ9S138A&c=365198&tp_c=365198"},{"rt":3157,"stimulus":"\n                <p>Student 9's first guess for coin weight: <b style=\"color:Tomato\";>0.52</b></p>\n                <p>Student 9's second guess for coin weight: <b style=\"color:Tomato\";>0.57</b></p>\n                <p>You received a bonus of <b>$0.20</b> based on the student's second guess.</p>\n                <p>Total bonus so far: <b>$1.28</b></p>\n                <p>Press any key to continue.</p>\n                ","response":" ","trial_type":"html-keyboard-response","trial_index":79,"time_elapsed":946313,"internal_node_id":"0.0-75.0","params":{"nStudents":24,"maxFlips":30,"completionMinutes":45,"basePay":8,"maxBonus":9,"perTrialBonus":0.5,"perTrialBonusThreshold":0.1,"exampleCost":0.01},"classroomParams":{"A":{"a":1,"b":4},"B":{"a":4,"b":1},"C":{"a":2,"b":8},"D":{"a":8,"b":2}},"conditions":["nonSeqFull","nonSeqPartial","seqNoFeedback","seqFeedback"],"classroomPairings":[["A","B"],["C","D"]],"coinWeights":[0.2,0.5,0.8],"subjectId":"AH7Z2M3KSQ4DW","assignmentId":"39LOEL67OTRPD8LBC6ZGK5TZ9S138A","hitId":"3H6W48L9F4B5OEOMH57RM53ZYNHWPM","url":"https://gershmanlab.com/experiments/alicia/teaching/experiment/?hitId=3H6W48L9F4B5OEOMH57RM53ZYNHWPM&workerId=AH7Z2M3KSQ4DW&assignmentId=39LOEL67OTRPD8LBC6ZGK5TZ9S138A&a=7EL98&tp_a=7EL98&b=39LOEL67OTRPD8LBC6ZGK5TZ9S138A&tp_b=39LOEL67OTRPD8LBC6ZGK5TZ9S138A&c=365198&tp_c=365198"},{"rt":null,"stimulus":"<div style=\"font-size:60px;\">Next student</div>","response":null,"trial_type":"html-keyboard-response","trial_index":80,"time_elapsed":949322,"internal_node_id":"0.0-76.0-0.0","params":{"nStudents":24,"maxFlips":30,"completionMinutes":45,"basePay":8,"maxBonus":9,"perTrialBonus":0.5,"perTrialBonusThreshold":0.1,"exampleCost":0.01},"classroomParams":{"A":{"a":1,"b":4},"B":{"a":4,"b":1},"C":{"a":2,"b":8},"D":{"a":8,"b":2}},"conditions":["nonSeqFull","nonSeqPartial","seqNoFeedback","seqFeedback"],"classroomPairings":[["A","B"],["C","D"]],"coinWeights":[0.2,0.5,0.8],"subjectId":"AH7Z2M3KSQ4DW","assignmentId":"39LOEL67OTRPD8LBC6ZGK5TZ9S138A","hitId":"3H6W48L9F4B5OEOMH57RM53ZYNHWPM","url":"https://gershmanlab.com/experiments/alicia/teaching/experiment/?hitId=3H6W48L9F4B5OEOMH57RM53ZYNHWPM&workerId=AH7Z2M3KSQ4DW&assignmentId=39LOEL67OTRPD8LBC6ZGK5TZ9S138A&a=7EL98&tp_a=7EL98&b=39LOEL67OTRPD8LBC6ZGK5TZ9S138A&tp_b=39LOEL67OTRPD8LBC6ZGK5TZ9S138A&c=365198&tp_c=365198"},{"rt":2166,"stimulus":"\n            <h4 style=\"color:Orange;\">Student 10</h4>\n            <h2>The weight of your coin is <b style=\"color:Tomato;\">0.2</b>.</h2>\n            <p>In this block, you will be giving <b>two</b> sets of examples to Student 10.</p>\n                <p>You will receive feedback at the end of the block.</p>\n            ","response":0,"trial_type":"html-button-response","trial_index":81,"time_elapsed":951491,"internal_node_id":"0.0-77.0","params":{"nStudents":24,"maxFlips":30,"completionMinutes":45,"basePay":8,"maxBonus":9,"perTrialBonus":0.5,"perTrialBonusThreshold":0.1,"exampleCost":0.01},"classroomParams":{"A":{"a":1,"b":4},"B":{"a":4,"b":1},"C":{"a":2,"b":8},"D":{"a":8,"b":2}},"conditions":["nonSeqFull","nonSeqPartial","seqNoFeedback","seqFeedback"],"classroomPairings":[["A","B"],["C","D"]],"coinWeights":[0.2,0.5,0.8],"subjectId":"AH7Z2M3KSQ4DW","assignmentId":"39LOEL67OTRPD8LBC6ZGK5TZ9S138A","hitId":"3H6W48L9F4B5OEOMH57RM53ZYNHWPM","url":"https://gershmanlab.com/experiments/alicia/teaching/experiment/?hitId=3H6W48L9F4B5OEOMH57RM53ZYNHWPM&workerId=AH7Z2M3KSQ4DW&assignmentId=39LOEL67OTRPD8LBC6ZGK5TZ9S138A&a=7EL98&tp_a=7EL98&b=39LOEL67OTRPD8LBC6ZGK5TZ9S138A&tp_b=39LOEL67OTRPD8LBC6ZGK5TZ9S138A&c=365198&tp_c=365198"},{"rt":10800,"response":{"heads":"2","tails":"8"},"type":"response","condition":"seqNoFeedback","trueTheta":0.2,"classrooms":["C","D"],"studentTrueClassroom":"C","exampleSet":"first","trial_type":"survey-html-form","trial_index":82,"time_elapsed":962296,"internal_node_id":"0.0-78.0-0.0","params":{"nStudents":24,"maxFlips":30,"completionMinutes":45,"basePay":8,"maxBonus":9,"perTrialBonus":0.5,"perTrialBonusThreshold":0.1,"exampleCost":0.01},"classroomParams":{"A":{"a":1,"b":4},"B":{"a":4,"b":1},"C":{"a":2,"b":8},"D":{"a":8,"b":2}},"conditions":["nonSeqFull","nonSeqPartial","seqNoFeedback","seqFeedback"],"classroomPairings":[["A","B"],["C","D"]],"coinWeights":[0.2,0.5,0.8],"subjectId":"AH7Z2M3KSQ4DW","assignmentId":"39LOEL67OTRPD8LBC6ZGK5TZ9S138A","hitId":"3H6W48L9F4B5OEOMH57RM53ZYNHWPM","url":"https://gershmanlab.com/experiments/alicia/teaching/experiment/?hitId=3H6W48L9F4B5OEOMH57RM53ZYNHWPM&workerId=AH7Z2M3KSQ4DW&assignmentId=39LOEL67OTRPD8LBC6ZGK5TZ9S138A&a=7EL98&tp_a=7EL98&b=39LOEL67OTRPD8LBC6ZGK5TZ9S138A&tp_b=39LOEL67OTRPD8LBC6ZGK5TZ9S138A&c=365198&tp_c=365198","heads":2,"tails":8,"studentIndex":9,"studentTrueHypers":{"a":2,"b":8},"studentGuess":0.2,"delta":0,"totalExamples":10,"bonusSoFar":1.28},{"rt":null,"stimulus":"Sending examples to student... ","response":null,"trial_type":"html-keyboard-response","trial_index":83,"time_elapsed":964059,"internal_node_id":"0.0-79.0","params":{"nStudents":24,"maxFlips":30,"completionMinutes":45,"basePay":8,"maxBonus":9,"perTrialBonus":0.5,"perTrialBonusThreshold":0.1,"exampleCost":0.01},"classroomParams":{"A":{"a":1,"b":4},"B":{"a":4,"b":1},"C":{"a":2,"b":8},"D":{"a":8,"b":2}},"conditions":["nonSeqFull","nonSeqPartial","seqNoFeedback","seqFeedback"],"classroomPairings":[["A","B"],["C","D"]],"coinWeights":[0.2,0.5,0.8],"subjectId":"AH7Z2M3KSQ4DW","assignmentId":"39LOEL67OTRPD8LBC6ZGK5TZ9S138A","hitId":"3H6W48L9F4B5OEOMH57RM53ZYNHWPM","url":"https://gershmanlab.com/experiments/alicia/teaching/experiment/?hitId=3H6W48L9F4B5OEOMH57RM53ZYNHWPM&workerId=AH7Z2M3KSQ4DW&assignmentId=39LOEL67OTRPD8LBC6ZGK5TZ9S138A&a=7EL98&tp_a=7EL98&b=39LOEL67OTRPD8LBC6ZGK5TZ9S138A&tp_b=39LOEL67OTRPD8LBC6ZGK5TZ9S138A&c=365198&tp_c=365198"},{"rt":null,"stimulus":"Examples sent to student! Waiting for student...","response":null,"trial_type":"html-keyboard-response","trial_index":84,"time_elapsed":968063,"internal_node_id":"0.0-80.0","params":{"nStudents":24,"maxFlips":30,"completionMinutes":45,"basePay":8,"maxBonus":9,"perTrialBonus":0.5,"perTrialBonusThreshold":0.1,"exampleCost":0.01},"classroomParams":{"A":{"a":1,"b":4},"B":{"a":4,"b":1},"C":{"a":2,"b":8},"D":{"a":8,"b":2}},"conditions":["nonSeqFull","nonSeqPartial","seqNoFeedback","seqFeedback"],"classroomPairings":[["A","B"],["C","D"]],"coinWeights":[0.2,0.5,0.8],"subjectId":"AH7Z2M3KSQ4DW","assignmentId":"39LOEL67OTRPD8LBC6ZGK5TZ9S138A","hitId":"3H6W48L9F4B5OEOMH57RM53ZYNHWPM","url":"https://gershmanlab.com/experiments/alicia/teaching/experiment/?hitId=3H6W48L9F4B5OEOMH57RM53ZYNHWPM&workerId=AH7Z2M3KSQ4DW&assignmentId=39LOEL67OTRPD8LBC6ZGK5TZ9S138A&a=7EL98&tp_a=7EL98&b=39LOEL67OTRPD8LBC6ZGK5TZ9S138A&tp_b=39LOEL67OTRPD8LBC6ZGK5TZ9S138A&c=365198&tp_c=365198"},{"rt":16040,"response":{"heads":"2","tails":"10"},"type":"response","condition":"seqNoFeedback","trueTheta":0.2,"classrooms":["C","D"],"studentTrueClassroom":"C","exampleSet":"second","trial_type":"survey-html-form","trial_index":85,"time_elapsed":984106,"internal_node_id":"0.0-81.0-0.0","params":{"nStudents":24,"maxFlips":30,"completionMinutes":45,"basePay":8,"maxBonus":9,"perTrialBonus":0.5,"perTrialBonusThreshold":0.1,"exampleCost":0.01},"classroomParams":{"A":{"a":1,"b":4},"B":{"a":4,"b":1},"C":{"a":2,"b":8},"D":{"a":8,"b":2}},"conditions":["nonSeqFull","nonSeqPartial","seqNoFeedback","seqFeedback"],"classroomPairings":[["A","B"],["C","D"]],"coinWeights":[0.2,0.5,0.8],"subjectId":"AH7Z2M3KSQ4DW","assignmentId":"39LOEL67OTRPD8LBC6ZGK5TZ9S138A","hitId":"3H6W48L9F4B5OEOMH57RM53ZYNHWPM","url":"https://gershmanlab.com/experiments/alicia/teaching/experiment/?hitId=3H6W48L9F4B5OEOMH57RM53ZYNHWPM&workerId=AH7Z2M3KSQ4DW&assignmentId=39LOEL67OTRPD8LBC6ZGK5TZ9S138A&a=7EL98&tp_a=7EL98&b=39LOEL67OTRPD8LBC6ZGK5TZ9S138A&tp_b=39LOEL67OTRPD8LBC6ZGK5TZ9S138A&c=365198&tp_c=365198","firstResponseHeads":2,"firstResponseTails":8,"secondResponseHeads":2,"secondResponseTails":10,"studentIndex":9,"studentTrueHypers":{"a":2,"b":8},"studentGuess":0.1875,"delta":0.012500000000000011,"bonus":0.28,"bonusSoFar":1.56,"totalExamples":22},{"rt":null,"stimulus":"Sending examples to student... ","response":null,"trial_type":"html-keyboard-response","trial_index":86,"time_elapsed":986134,"internal_node_id":"0.0-82.0","params":{"nStudents":24,"maxFlips":30,"completionMinutes":45,"basePay":8,"maxBonus":9,"perTrialBonus":0.5,"perTrialBonusThreshold":0.1,"exampleCost":0.01},"classroomParams":{"A":{"a":1,"b":4},"B":{"a":4,"b":1},"C":{"a":2,"b":8},"D":{"a":8,"b":2}},"conditions":["nonSeqFull","nonSeqPartial","seqNoFeedback","seqFeedba