[{"rt":3702,"stimulus":"Welcome to the experiment. Press any key to begin.","response":" ","trial_type":"html-keyboard-response","trial_index":0,"time_elapsed":3714,"internal_node_id":"0.0-0.0","params":{"nStudents":24,"maxFlips":30,"completionMinutes":45,"basePay":8,"maxBonus":9,"perTrialBonus":0.5,"perTrialBonusThreshold":0.1,"exampleCost":0.01},"classroomParams":{"A":{"a":1,"b":4},"B":{"a":4,"b":1},"C":{"a":2,"b":8},"D":{"a":8,"b":2}},"conditions":["nonSeqFull","nonSeqPartial","seqNoFeedback","seqFeedback"],"classroomPairings":[["A","B"],["C","D"]],"coinWeights":[0.2,0.5,0.8],"subjectId":"AJF954955YWZG","assignmentId":"3K5TEWLKGWX2ENZ752HDGPFW38YIVT","hitId":"3YGE63DIN8J20XK20KS1742RQF60WK","url":"https://gershmanlab.com/experiments/alicia/teaching/experiment/?hitId=3YGE63DIN8J20XK20KS1742RQF60WK&workerId=AJF954955YWZG&assignmentId=3K5TEWLKGWX2ENZ752HDGPFW38YIVT&a=KE5K8&tp_a=KE5K8&b=3K5TEWLKGWX2ENZ752HDGPFW38YIVT&tp_b=3K5TEWLKGWX2ENZ752HDGPFW38YIVT&c=365198&tp_c=365198"},{"rt":1754,"stimulus":"\n        <h3>Please read this consent agreement carefully before deciding whether to participate in this experiment.</h3>\n        <p><b>Purpose of the research:</b> To examine how people teach effectively.</p>\n        <p><b>What you will do in this research:</b> You will teach students the weights of different coins.</p>\n        <p><b>Time required:</b> This experiment will take 45 minutes to complete.</p>\n        <p><b>Risks:</b> There are no anticipated risks associated with participating in this study.             The effects of participating should be comparable to those you would experience from viewing a computer monitor             and using a mouse and keyboard for the duration of the experiment.</p>\n        <p><b>Benefits:</b> The study provides important information about the nature of teaching.</p>\n        <p><b>Compensation:</b> You will receive <b>$8</b> for completing the experiment and a performance bonus of up to <b>$9</b>.</p>\n        <p><b>Confidentiality:</b> Your participation in this study will remain confidential.             No personally identifiable information will be associated with your data.             Your de-identified data may be shared with other researchers and used in future projects.</p>\n        <p><b>Participation and withdrawal:</b> Your participation in this study is completely voluntary and             you may refuse to participate or you may choose to withdraw at any time without penalty or loss of\n            benefits to which you are otherwise entitled.</p>\n        <p><b>How to contact the researcher:</b> If you have questions or concerns about your participation            or payment, or want to request a summary of research findings, please contact\n            Alicia Chen, aliciachen@college.harvard.edu.</p>\n        <p><b>Whom to contact about your rights in this research:</b> For questions, concerns, suggestions,             or complaints that have not been or cannot be addressed by the researcher, or to report             research-related harm, please contact the Committee on the Use of Human Subjects in Research at Harvard University,             1414 Massachusetts Avenue, Second Floor, Cambridge, MA 02138. Phone: 617-496-2847. Email: cuhs@fas.harvard.edu.</p>\n        ","response":0,"trial_type":"html-button-response","trial_index":1,"time_elapsed":5469,"internal_node_id":"0.0-1.0","params":{"nStudents":24,"maxFlips":30,"completionMinutes":45,"basePay":8,"maxBonus":9,"perTrialBonus":0.5,"perTrialBonusThreshold":0.1,"exampleCost":0.01},"classroomParams":{"A":{"a":1,"b":4},"B":{"a":4,"b":1},"C":{"a":2,"b":8},"D":{"a":8,"b":2}},"conditions":["nonSeqFull","nonSeqPartial","seqNoFeedback","seqFeedback"],"classroomPairings":[["A","B"],["C","D"]],"coinWeights":[0.2,0.5,0.8],"subjectId":"AJF954955YWZG","assignmentId":"3K5TEWLKGWX2ENZ752HDGPFW38YIVT","hitId":"3YGE63DIN8J20XK20KS1742RQF60WK","url":"https://gershmanlab.com/experiments/alicia/teaching/experiment/?hitId=3YGE63DIN8J20XK20KS1742RQF60WK&workerId=AJF954955YWZG&assignmentId=3K5TEWLKGWX2ENZ752HDGPFW38YIVT&a=KE5K8&tp_a=KE5K8&b=3K5TEWLKGWX2ENZ752HDGPFW38YIVT&tp_b=3K5TEWLKGWX2ENZ752HDGPFW38YIVT&c=365198&tp_c=365198"},{"view_history":[{"page_index":0,"viewing_time":24604},{"page_index":1,"viewing_time":3166},{"page_index":2,"viewing_time":27432},{"page_index":3,"viewing_time":16620},{"page_index":4,"viewing_time":7061},{"page_index":5,"viewing_time":21337},{"page_index":6,"viewing_time":31624}],"rt":131844,"trial_type":"instructions","trial_index":2,"time_elapsed":137313,"internal_node_id":"0.0-2.0-0.0","params":{"nStudents":24,"maxFlips":30,"completionMinutes":45,"basePay":8,"maxBonus":9,"perTrialBonus":0.5,"perTrialBonusThreshold":0.1,"exampleCost":0.01},"classroomParams":{"A":{"a":1,"b":4},"B":{"a":4,"b":1},"C":{"a":2,"b":8},"D":{"a":8,"b":2}},"conditions":["nonSeqFull","nonSeqPartial","seqNoFeedback","seqFeedback"],"classroomPairings":[["A","B"],["C","D"]],"coinWeights":[0.2,0.5,0.8],"subjectId":"AJF954955YWZG","assignmentId":"3K5TEWLKGWX2ENZ752HDGPFW38YIVT","hitId":"3YGE63DIN8J20XK20KS1742RQF60WK","url":"https://gershmanlab.com/experiments/alicia/teaching/experiment/?hitId=3YGE63DIN8J20XK20KS1742RQF60WK&workerId=AJF954955YWZG&assignmentId=3K5TEWLKGWX2ENZ752HDGPFW38YIVT&a=KE5K8&tp_a=KE5K8&b=3K5TEWLKGWX2ENZ752HDGPFW38YIVT&tp_b=3K5TEWLKGWX2ENZ752HDGPFW38YIVT&c=365198&tp_c=365198"},{"rt":37562,"response":{"Q0":"Students in different classrooms will have seen a different number of heads and tails before seeing the examples you select for them.","Q1":"By teaching efficiently and accurately/helpfully at the same time (because each example I give to the student costs money!).","Q2":"The coin lands heads 90% of the time.","Q3":"No, I will teach a <b>new</b> student each time.","Q4":"The students are also on the same alien planet as you, where coins can be unfair.","Q5":"Based on the student's first guess."},"question_order":[3,4,2,5,0,1],"trial_type":"survey-multi-choice","trial_index":3,"time_elapsed":174877,"internal_node_id":"0.0-2.0-1.0","params":{"nStudents":24,"maxFlips":30,"completionMinutes":45,"basePay":8,"maxBonus":9,"perTrialBonus":0.5,"perTrialBonusThreshold":0.1,"exampleCost":0.01},"classroomParams":{"A":{"a":1,"b":4},"B":{"a":4,"b":1},"C":{"a":2,"b":8},"D":{"a":8,"b":2}},"conditions":["nonSeqFull","nonSeqPartial","seqNoFeedback","seqFeedback"],"classroomPairings":[["A","B"],["C","D"]],"coinWeights":[0.2,0.5,0.8],"subjectId":"AJF954955YWZG","assignmentId":"3K5TEWLKGWX2ENZ752HDGPFW38YIVT","hitId":"3YGE63DIN8J20XK20KS1742RQF60WK","url":"https://gershmanlab.com/experiments/alicia/teaching/experiment/?hitId=3YGE63DIN8J20XK20KS1742RQF60WK&workerId=AJF954955YWZG&assignmentId=3K5TEWLKGWX2ENZ752HDGPFW38YIVT&a=KE5K8&tp_a=KE5K8&b=3K5TEWLKGWX2ENZ752HDGPFW38YIVT&tp_b=3K5TEWLKGWX2ENZ752HDGPFW38YIVT&c=365198&tp_c=365198","pass":false},{"rt":2679,"stimulus":"Oops, you have missed question(s) on the comprehension check! We'll show you the instructions again.","response":0,"trial_type":"html-button-response","trial_index":4,"time_elapsed":177559,"internal_node_id":"0.0-2.0-2.0-0.0","params":{"nStudents":24,"maxFlips":30,"completionMinutes":45,"basePay":8,"maxBonus":9,"perTrialBonus":0.5,"perTrialBonusThreshold":0.1,"exampleCost":0.01},"classroomParams":{"A":{"a":1,"b":4},"B":{"a":4,"b":1},"C":{"a":2,"b":8},"D":{"a":8,"b":2}},"conditions":["nonSeqFull","nonSeqPartial","seqNoFeedback","seqFeedback"],"classroomPairings":[["A","B"],["C","D"]],"coinWeights":[0.2,0.5,0.8],"subjectId":"AJF954955YWZG","assignmentId":"3K5TEWLKGWX2ENZ752HDGPFW38YIVT","hitId":"3YGE63DIN8J20XK20KS1742RQF60WK","url":"https://gershmanlab.com/experiments/alicia/teaching/experiment/?hitId=3YGE63DIN8J20XK20KS1742RQF60WK&workerId=AJF954955YWZG&assignmentId=3K5TEWLKGWX2ENZ752HDGPFW38YIVT&a=KE5K8&tp_a=KE5K8&b=3K5TEWLKGWX2ENZ752HDGPFW38YIVT&tp_b=3K5TEWLKGWX2ENZ752HDGPFW38YIVT&c=365198&tp_c=365198"},{"view_history":[{"page_index":0,"viewing_time":5269},{"page_index":1,"viewing_time":1971},{"page_index":2,"viewing_time":10790},{"page_index":3,"viewing_time":9461},{"page_index":4,"viewing_time":7404},{"page_index":5,"viewing_time":7469},{"page_index":6,"viewing_time":17654}],"rt":60017,"trial_type":"instructions","trial_index":5,"time_elapsed":237577,"internal_node_id":"0.0-2.1-0.1","params":{"nStudents":24,"maxFlips":30,"completionMinutes":45,"basePay":8,"maxBonus":9,"perTrialBonus":0.5,"perTrialBonusThreshold":0.1,"exampleCost":0.01},"classroomParams":{"A":{"a":1,"b":4},"B":{"a":4,"b":1},"C":{"a":2,"b":8},"D":{"a":8,"b":2}},"conditions":["nonSeqFull","nonSeqPartial","seqNoFeedback","seqFeedback"],"classroomPairings":[["A","B"],["C","D"]],"coinWeights":[0.2,0.5,0.8],"subjectId":"AJF954955YWZG","assignmentId":"3K5TEWLKGWX2ENZ752HDGPFW38YIVT","hitId":"3YGE63DIN8J20XK20KS1742RQF60WK","url":"https://gershmanlab.com/experiments/alicia/teaching/experiment/?hitId=3YGE63DIN8J20XK20KS1742RQF60WK&workerId=AJF954955YWZG&assignmentId=3K5TEWLKGWX2ENZ752HDGPFW38YIVT&a=KE5K8&tp_a=KE5K8&b=3K5TEWLKGWX2ENZ752HDGPFW38YIVT&tp_b=3K5TEWLKGWX2ENZ752HDGPFW38YIVT&c=365198&tp_c=365198"},{"rt":12219,"response":{"Q0":"Students in different classrooms will have seen a different number of heads and tails before seeing the examples you select for them.","Q1":"By teaching efficiently and accurately/helpfully at the same time (because each example I give to the student costs money!).","Q2":"The coin lands heads 90% of the time.","Q3":"No, I will teach a <b>new</b> student each time.","Q4":"The students are also on the same alien planet as you, where coins can be unfair.","Q5":"Based on the student's second (and final) guess."},"question_order":[3,0,4,1,2,5],"trial_type":"survey-multi-choice","trial_index":6,"time_elapsed":249797,"internal_node_id":"0.0-2.1-1.1","params":{"nStudents":24,"maxFlips":30,"completionMinutes":45,"basePay":8,"maxBonus":9,"perTrialBonus":0.5,"perTrialBonusThreshold":0.1,"exampleCost":0.01},"classroomParams":{"A":{"a":1,"b":4},"B":{"a":4,"b":1},"C":{"a":2,"b":8},"D":{"a":8,"b":2}},"conditions":["nonSeqFull","nonSeqPartial","seqNoFeedback","seqFeedback"],"classroomPairings":[["A","B"],["C","D"]],"coinWeights":[0.2,0.5,0.8],"subjectId":"AJF954955YWZG","assignmentId":"3K5TEWLKGWX2ENZ752HDGPFW38YIVT","hitId":"3YGE63DIN8J20XK20KS1742RQF60WK","url":"https://gershmanlab.com/experiments/alicia/teaching/experiment/?hitId=3YGE63DIN8J20XK20KS1742RQF60WK&workerId=AJF954955YWZG&assignmentId=3K5TEWLKGWX2ENZ752HDGPFW38YIVT&a=KE5K8&tp_a=KE5K8&b=3K5TEWLKGWX2ENZ752HDGPFW38YIVT&tp_b=3K5TEWLKGWX2ENZ752HDGPFW38YIVT&c=365198&tp_c=365198","pass":true},{"rt":null,"stimulus":"<div style=\"font-size:30px;\">Congrats on passing the comprehension quiz! The experiment will begin in a few seconds.</div>","response":null,"trial_type":"html-keyboard-response","trial_index":7,"time_elapsed":252803,"internal_node_id":"0.0-3.0","params":{"nStudents":24,"maxFlips":30,"completionMinutes":45,"basePay":8,"maxBonus":9,"perTrialBonus":0.5,"perTrialBonusThreshold":0.1,"exampleCost":0.01},"classroomParams":{"A":{"a":1,"b":4},"B":{"a":4,"b":1},"C":{"a":2,"b":8},"D":{"a":8,"b":2}},"conditions":["nonSeqFull","nonSeqPartial","seqNoFeedback","seqFeedback"],"classroomPairings":[["A","B"],["C","D"]],"coinWeights":[0.2,0.5,0.8],"subjectId":"AJF954955YWZG","assignmentId":"3K5TEWLKGWX2ENZ752HDGPFW38YIVT","hitId":"3YGE63DIN8J20XK20KS1742RQF60WK","url":"https://gershmanlab.com/experiments/alicia/teaching/experiment/?hitId=3YGE63DIN8J20XK20KS1742RQF60WK&workerId=AJF954955YWZG&assignmentId=3K5TEWLKGWX2ENZ752HDGPFW38YIVT&a=KE5K8&tp_a=KE5K8&b=3K5TEWLKGWX2ENZ752HDGPFW38YIVT&tp_b=3K5TEWLKGWX2ENZ752HDGPFW38YIVT&c=365198&tp_c=365198"},{"rt":null,"stimulus":"<div style=\"font-size:50px;\">First student</div>","response":null,"trial_type":"html-keyboard-response","trial_index":8,"time_elapsed":255808,"internal_node_id":"0.0-4.0","params":{"nStudents":24,"maxFlips":30,"completionMinutes":45,"basePay":8,"maxBonus":9,"perTrialBonus":0.5,"perTrialBonusThreshold":0.1,"exampleCost":0.01},"classroomParams":{"A":{"a":1,"b":4},"B":{"a":4,"b":1},"C":{"a":2,"b":8},"D":{"a":8,"b":2}},"conditions":["nonSeqFull","nonSeqPartial","seqNoFeedback","seqFeedback"],"classroomPairings":[["A","B"],["C","D"]],"coinWeights":[0.2,0.5,0.8],"subjectId":"AJF954955YWZG","assignmentId":"3K5TEWLKGWX2ENZ752HDGPFW38YIVT","hitId":"3YGE63DIN8J20XK20KS1742RQF60WK","url":"https://gershmanlab.com/experiments/alicia/teaching/experiment/?hitId=3YGE63DIN8J20XK20KS1742RQF60WK&workerId=AJF954955YWZG&assignmentId=3K5TEWLKGWX2ENZ752HDGPFW38YIVT&a=KE5K8&tp_a=KE5K8&b=3K5TEWLKGWX2ENZ752HDGPFW38YIVT&tp_b=3K5TEWLKGWX2ENZ752HDGPFW38YIVT&c=365198&tp_c=365198"},{"rt":6518,"stimulus":"\n            <h4 style=\"color:Orange;\">Student 1</h4>\n            <h2>The weight of your coin is <b style=\"color:Tomato;\">0.8</b>.</h2>\n            <p>In this block, you will be giving <b>one</b> set of examples to Student 1.</p>\n                <p>You will receive feedback at the end of the block.</p>\n            ","response":0,"trial_type":"html-button-response","trial_index":9,"time_elapsed":262326,"internal_node_id":"0.0-5.0","params":{"nStudents":24,"maxFlips":30,"completionMinutes":45,"basePay":8,"maxBonus":9,"perTrialBonus":0.5,"perTrialBonusThreshold":0.1,"exampleCost":0.01},"classroomParams":{"A":{"a":1,"b":4},"B":{"a":4,"b":1},"C":{"a":2,"b":8},"D":{"a":8,"b":2}},"conditions":["nonSeqFull","nonSeqPartial","seqNoFeedback","seqFeedback"],"classroomPairings":[["A","B"],["C","D"]],"coinWeights":[0.2,0.5,0.8],"subjectId":"AJF954955YWZG","assignmentId":"3K5TEWLKGWX2ENZ752HDGPFW38YIVT","hitId":"3YGE63DIN8J20XK20KS1742RQF60WK","url":"https://gershmanlab.com/experiments/alicia/teaching/experiment/?hitId=3YGE63DIN8J20XK20KS1742RQF60WK&workerId=AJF954955YWZG&assignmentId=3K5TEWLKGWX2ENZ752HDGPFW38YIVT&a=KE5K8&tp_a=KE5K8&b=3K5TEWLKGWX2ENZ752HDGPFW38YIVT&tp_b=3K5TEWLKGWX2ENZ752HDGPFW38YIVT&c=365198&tp_c=365198"},{"rt":20200,"response":{"heads":"5","tails":"5"},"type":"response","condition":"nonSeqPartial","trueTheta":0.8,"classrooms":["C","D"],"studentTrueClassroom":"C","exampleSet":"first","trial_type":"survey-html-form","trial_index":10,"time_elapsed":282528,"internal_node_id":"0.0-6.0-0.0","params":{"nStudents":24,"maxFlips":30,"completionMinutes":45,"basePay":8,"maxBonus":9,"perTrialBonus":0.5,"perTrialBonusThreshold":0.1,"exampleCost":0.01},"classroomParams":{"A":{"a":1,"b":4},"B":{"a":4,"b":1},"C":{"a":2,"b":8},"D":{"a":8,"b":2}},"conditions":["nonSeqFull","nonSeqPartial","seqNoFeedback","seqFeedback"],"classroomPairings":[["A","B"],["C","D"]],"coinWeights":[0.2,0.5,0.8],"subjectId":"AJF954955YWZG","assignmentId":"3K5TEWLKGWX2ENZ752HDGPFW38YIVT","hitId":"3YGE63DIN8J20XK20KS1742RQF60WK","url":"https://gershmanlab.com/experiments/alicia/teaching/experiment/?hitId=3YGE63DIN8J20XK20KS1742RQF60WK&workerId=AJF954955YWZG&assignmentId=3K5TEWLKGWX2ENZ752HDGPFW38YIVT&a=KE5K8&tp_a=KE5K8&b=3K5TEWLKGWX2ENZ752HDGPFW38YIVT&tp_b=3K5TEWLKGWX2ENZ752HDGPFW38YIVT&c=365198&tp_c=365198","heads":5,"tails":5,"studentIndex":0,"studentTrueHypers":{"a":2,"b":8},"studentGuess":0.35,"delta":0.45000000000000007,"totalExamples":10,"bonus":0,"bonusSoFar":0},{"rt":null,"stimulus":"Sending examples to student... ","response":null,"trial_type":"html-keyboard-response","trial_index":11,"time_elapsed":283788,"internal_node_id":"0.0-7.0","params":{"nStudents":24,"maxFlips":30,"completionMinutes":45,"basePay":8,"maxBonus":9,"perTrialBonus":0.5,"perTrialBonusThreshold":0.1,"exampleCost":0.01},"classroomParams":{"A":{"a":1,"b":4},"B":{"a":4,"b":1},"C":{"a":2,"b":8},"D":{"a":8,"b":2}},"conditions":["nonSeqFull","nonSeqPartial","seqNoFeedback","seqFeedback"],"classroomPairings":[["A","B"],["C","D"]],"coinWeights":[0.2,0.5,0.8],"subjectId":"AJF954955YWZG","assignmentId":"3K5TEWLKGWX2ENZ752HDGPFW38YIVT","hitId":"3YGE63DIN8J20XK20KS1742RQF60WK","url":"https://gershmanlab.com/experiments/alicia/teaching/experiment/?hitId=3YGE63DIN8J20XK20KS1742RQF60WK&workerId=AJF954955YWZG&assignmentId=3K5TEWLKGWX2ENZ752HDGPFW38YIVT&a=KE5K8&tp_a=KE5K8&b=3K5TEWLKGWX2ENZ752HDGPFW38YIVT&tp_b=3K5TEWLKGWX2ENZ752HDGPFW38YIVT&c=365198&tp_c=365198"},{"rt":null,"stimulus":"Examples sent to student! Waiting for student...","response":null,"trial_type":"html-keyboard-response","trial_index":12,"time_elapsed":287795,"internal_node_id":"0.0-8.0","params":{"nStudents":24,"maxFlips":30,"completionMinutes":45,"basePay":8,"maxBonus":9,"perTrialBonus":0.5,"perTrialBonusThreshold":0.1,"exampleCost":0.01},"classroomParams":{"A":{"a":1,"b":4},"B":{"a":4,"b":1},"C":{"a":2,"b":8},"D":{"a":8,"b":2}},"conditions":["nonSeqFull","nonSeqPartial","seqNoFeedback","seqFeedback"],"classroomPairings":[["A","B"],["C","D"]],"coinWeights":[0.2,0.5,0.8],"subjectId":"AJF954955YWZG","assignmentId":"3K5TEWLKGWX2ENZ752HDGPFW38YIVT","hitId":"3YGE63DIN8J20XK20KS1742RQF60WK","url":"https://gershmanlab.com/experiments/alicia/teaching/experiment/?hitId=3YGE63DIN8J20XK20KS1742RQF60WK&workerId=AJF954955YWZG&assignmentId=3K5TEWLKGWX2ENZ752HDGPFW38YIVT&a=KE5K8&tp_a=KE5K8&b=3K5TEWLKGWX2ENZ752HDGPFW38YIVT&tp_b=3K5TEWLKGWX2ENZ752HDGPFW38YIVT&c=365198&tp_c=365198"},{"rt":3414,"stimulus":"\n                <p>Student's guess for coin weight: <b style=\"color:Tomato;\">0.35</b></p>\n                <p>You received a bonus of <b>$0</b>. Total bonus so far: <b>$0.00</b></b></p>\n                <p> Press any key to continue.</p>\n                ","response":" ","trial_type":"html-keyboard-response","trial_index":13,"time_elapsed":291210,"internal_node_id":"0.0-9.0","params":{"nStudents":24,"maxFlips":30,"completionMinutes":45,"basePay":8,"maxBonus":9,"perTrialBonus":0.5,"perTrialBonusThreshold":0.1,"exampleCost":0.01},"classroomParams":{"A":{"a":1,"b":4},"B":{"a":4,"b":1},"C":{"a":2,"b":8},"D":{"a":8,"b":2}},"conditions":["nonSeqFull","nonSeqPartial","seqNoFeedback","seqFeedback"],"classroomPairings":[["A","B"],["C","D"]],"coinWeights":[0.2,0.5,0.8],"subjectId":"AJF954955YWZG","assignmentId":"3K5TEWLKGWX2ENZ752HDGPFW38YIVT","hitId":"3YGE63DIN8J20XK20KS1742RQF60WK","url":"https://gershmanlab.com/experiments/alicia/teaching/experiment/?hitId=3YGE63DIN8J20XK20KS1742RQF60WK&workerId=AJF954955YWZG&assignmentId=3K5TEWLKGWX2ENZ752HDGPFW38YIVT&a=KE5K8&tp_a=KE5K8&b=3K5TEWLKGWX2ENZ752HDGPFW38YIVT&tp_b=3K5TEWLKGWX2ENZ752HDGPFW38YIVT&c=365198&tp_c=365198"},{"rt":null,"stimulus":"<div style=\"font-size:60px;\">Next student</div>","response":null,"trial_type":"html-keyboard-response","trial_index":14,"time_elapsed":293218,"internal_node_id":"0.0-10.0-0.0","params":{"nStudents":24,"maxFlips":30,"completionMinutes":45,"basePay":8,"maxBonus":9,"perTrialBonus":0.5,"perTrialBonusThreshold":0.1,"exampleCost":0.01},"classroomParams":{"A":{"a":1,"b":4},"B":{"a":4,"b":1},"C":{"a":2,"b":8},"D":{"a":8,"b":2}},"conditions":["nonSeqFull","nonSeqPartial","seqNoFeedback","seqFeedback"],"classroomPairings":[["A","B"],["C","D"]],"coinWeights":[0.2,0.5,0.8],"subjectId":"AJF954955YWZG","assignmentId":"3K5TEWLKGWX2ENZ752HDGPFW38YIVT","hitId":"3YGE63DIN8J20XK20KS1742RQF60WK","url":"https://gershmanlab.com/experiments/alicia/teaching/experiment/?hitId=3YGE63DIN8J20XK20KS1742RQF60WK&workerId=AJF954955YWZG&assignmentId=3K5TEWLKGWX2ENZ752HDGPFW38YIVT&a=KE5K8&tp_a=KE5K8&b=3K5TEWLKGWX2ENZ752HDGPFW38YIVT&tp_b=3K5TEWLKGWX2ENZ752HDGPFW38YIVT&c=365198&tp_c=365198"},{"rt":4389,"stimulus":"\n            <h4 style=\"color:Orange;\">Student 2</h4>\n            <h2>The weight of your coin is <b style=\"color:Tomato;\">0.8</b>.</h2>\n            <p>In this block, you will be giving <b>two</b> sets of examples to Student 2.</p>\n                <p>You will receive feedback at the end of the block.</p>\n            ","response":0,"trial_type":"html-button-response","trial_index":15,"time_elapsed":297607,"internal_node_id":"0.0-11.0","params":{"nStudents":24,"maxFlips":30,"completionMinutes":45,"basePay":8,"maxBonus":9,"perTrialBonus":0.5,"perTrialBonusThreshold":0.1,"exampleCost":0.01},"classroomParams":{"A":{"a":1,"b":4},"B":{"a":4,"b":1},"C":{"a":2,"b":8},"D":{"a":8,"b":2}},"conditions":["nonSeqFull","nonSeqPartial","seqNoFeedback","seqFeedback"],"classroomPairings":[["A","B"],["C","D"]],"coinWeights":[0.2,0.5,0.8],"subjectId":"AJF954955YWZG","assignmentId":"3K5TEWLKGWX2ENZ752HDGPFW38YIVT","hitId":"3YGE63DIN8J20XK20KS1742RQF60WK","url":"https://gershmanlab.com/experiments/alicia/teaching/experiment/?hitId=3YGE63DIN8J20XK20KS1742RQF60WK&workerId=AJF954955YWZG&assignmentId=3K5TEWLKGWX2ENZ752HDGPFW38YIVT&a=KE5K8&tp_a=KE5K8&b=3K5TEWLKGWX2ENZ752HDGPFW38YIVT&tp_b=3K5TEWLKGWX2ENZ752HDGPFW38YIVT&c=365198&tp_c=365198"},{"rt":10866,"response":{"heads":"8","tails":"2"},"type":"response","condition":"seqNoFeedback","trueTheta":0.8,"classrooms":["C","D"],"studentTrueClassroom":"D","exampleSet":"first","trial_type":"survey-html-form","trial_index":16,"time_elapsed":308474,"internal_node_id":"0.0-12.0-0.0","params":{"nStudents":24,"maxFlips":30,"completionMinutes":45,"basePay":8,"maxBonus":9,"perTrialBonus":0.5,"perTrialBonusThreshold":0.1,"exampleCost":0.01},"classroomParams":{"A":{"a":1,"b":4},"B":{"a":4,"b":1},"C":{"a":2,"b":8},"D":{"a":8,"b":2}},"conditions":["nonSeqFull","nonSeqPartial","seqNoFeedback","seqFeedback"],"classroomPairings":[["A","B"],["C","D"]],"coinWeights":[0.2,0.5,0.8],"subjectId":"AJF954955YWZG","assignmentId":"3K5TEWLKGWX2ENZ752HDGPFW38YIVT","hitId":"3YGE63DIN8J20XK20KS1742RQF60WK","url":"https://gershmanlab.com/experiments/alicia/teaching/experiment/?hitId=3YGE63DIN8J20XK20KS1742RQF60WK&workerId=AJF954955YWZG&assignmentId=3K5TEWLKGWX2ENZ752HDGPFW38YIVT&a=KE5K8&tp_a=KE5K8&b=3K5TEWLKGWX2ENZ752HDGPFW38YIVT&tp_b=3K5TEWLKGWX2ENZ752HDGPFW38YIVT&c=365198&tp_c=365198","heads":8,"tails":2,"studentIndex":1,"studentTrueHypers":{"a":8,"b":2},"studentGuess":0.8,"delta":0,"totalExamples":10,"bonusSoFar":0},{"rt":null,"stimulus":"Sending examples to student... ","response":null,"trial_type":"html-keyboard-response","trial_index":17,"time_elapsed":310231,"internal_node_id":"0.0-13.0","params":{"nStudents":24,"maxFlips":30,"completionMinutes":45,"basePay":8,"maxBonus":9,"perTrialBonus":0.5,"perTrialBonusThreshold":0.1,"exampleCost":0.01},"classroomParams":{"A":{"a":1,"b":4},"B":{"a":4,"b":1},"C":{"a":2,"b":8},"D":{"a":8,"b":2}},"conditions":["nonSeqFull","nonSeqPartial","seqNoFeedback","seqFeedback"],"classroomPairings":[["A","B"],["C","D"]],"coinWeights":[0.2,0.5,0.8],"subjectId":"AJF954955YWZG","assignmentId":"3K5TEWLKGWX2ENZ752HDGPFW38YIVT","hitId":"3YGE63DIN8J20XK20KS1742RQF60WK","url":"https://gershmanlab.com/experiments/alicia/teaching/experiment/?hitId=3YGE63DIN8J20XK20KS1742RQF60WK&workerId=AJF954955YWZG&assignmentId=3K5TEWLKGWX2ENZ752HDGPFW38YIVT&a=KE5K8&tp_a=KE5K8&b=3K5TEWLKGWX2ENZ752HDGPFW38YIVT&tp_b=3K5TEWLKGWX2ENZ752HDGPFW38YIVT&c=365198&tp_c=365198"},{"rt":null,"stimulus":"Examples sent to student! Waiting for student...","response":null,"trial_type":"html-keyboard-response","trial_index":18,"time_elapsed":314232,"internal_node_id":"0.0-14.0","params":{"nStudents":24,"maxFlips":30,"completionMinutes":45,"basePay":8,"maxBonus":9,"perTrialBonus":0.5,"perTrialBonusThreshold":0.1,"exampleCost":0.01},"classroomParams":{"A":{"a":1,"b":4},"B":{"a":4,"b":1},"C":{"a":2,"b":8},"D":{"a":8,"b":2}},"conditions":["nonSeqFull","nonSeqPartial","seqNoFeedback","seqFeedback"],"classroomPairings":[["A","B"],["C","D"]],"coinWeights":[0.2,0.5,0.8],"subjectId":"AJF954955YWZG","assignmentId":"3K5TEWLKGWX2ENZ752HDGPFW38YIVT","hitId":"3YGE63DIN8J20XK20KS1742RQF60WK","url":"https://gershmanlab.com/experiments/alicia/teaching/experiment/?hitId=3YGE63DIN8J20XK20KS1742RQF60WK&workerId=AJF954955YWZG&assignmentId=3K5TEWLKGWX2ENZ752HDGPFW38YIVT&a=KE5K8&tp_a=KE5K8&b=3K5TEWLKGWX2ENZ752HDGPFW38YIVT&tp_b=3K5TEWLKGWX2ENZ752HDGPFW38YIVT&c=365198&tp_c=365198"},{"rt":7695,"response":{"heads":"8","tails":"2"},"type":"response","condition":"seqNoFeedback","trueTheta":0.8,"classrooms":["C","D"],"studentTrueClassroom":"D","exampleSet":"second","trial_type":"survey-html-form","trial_index":19,"time_elapsed":321928,"internal_node_id":"0.0-15.0-0.0","params":{"nStudents":24,"maxFlips":30,"completionMinutes":45,"basePay":8,"maxBonus":9,"perTrialBonus":0.5,"perTrialBonusThreshold":0.1,"exampleCost":0.01},"classroomParams":{"A":{"a":1,"b":4},"B":{"a":4,"b":1},"C":{"a":2,"b":8},"D":{"a":8,"b":2}},"conditions":["nonSeqFull","nonSeqPartial","seqNoFeedback","seqFeedback"],"classroomPairings":[["A","B"],["C","D"]],"coinWeights":[0.2,0.5,0.8],"subjectId":"AJF954955YWZG","assignmentId":"3K5TEWLKGWX2ENZ752HDGPFW38YIVT","hitId":"3YGE63DIN8J20XK20KS1742RQF60WK","url":"https://gershmanlab.com/experiments/alicia/teaching/experiment/?hitId=3YGE63DIN8J20XK20KS1742RQF60WK&workerId=AJF954955YWZG&assignmentId=3K5TEWLKGWX2ENZ752HDGPFW38YIVT&a=KE5K8&tp_a=KE5K8&b=3K5TEWLKGWX2ENZ752HDGPFW38YIVT&tp_b=3K5TEWLKGWX2ENZ752HDGPFW38YIVT&c=365198&tp_c=365198","firstResponseHeads":8,"firstResponseTails":2,"secondResponseHeads":8,"secondResponseTails":2,"studentIndex":1,"studentTrueHypers":{"a":8,"b":2},"studentGuess":0.8,"delta":0,"bonus":0.3,"bonusSoFar":0.3,"totalExamples":20},{"rt":null,"stimulus":"Sending examples to student... ","response":null,"trial_type":"html-keyboard-response","trial_index":20,"time_elapsed":323687,"internal_node_id":"0.0-16.0","params":{"nStudents":24,"maxFlips":30,"completionMinutes":45,"basePay":8,"maxBonus":9,"perTrialBonus":0.5,"perTrialBonusThreshold":0.1,"exampleCost":0.01},"classroomParams":{"A":{"a":1,"b":4},"B":{"a":4,"b":1},"C":{"a":2,"b":8},"D":{"a":8,"b":2}},"conditions":["nonSeqFull","nonSeqPartial","seqNoFeedback","seqFeedback"],"classroomPairings":[["A","B"],["C","D"]],"coinWeights":[0.2,0.5,0.8],"subjectId":"AJF954955YWZG","assignmentId":"3K5TEWLKGWX2ENZ752HDGPFW38YIVT","hitId":"3YGE63DIN8J20XK20KS1742RQF60WK","url":"https://gershmanlab.com/experiments/alicia/teaching/experiment/?hitId=3YGE63DIN8J20XK20KS1742RQF60WK&workerId=AJF954955YWZG&assignmentId=3K5TEWLKGWX2ENZ752HDGPFW38YIVT&a=KE5K8&tp_a=KE5K8&b=3K5TEWLKGWX2ENZ752HDGPFW38YIVT&tp_b=3K5TEWLKGWX2ENZ752HDGPFW38YIVT&c=365198&tp_c=365198"},{"rt":null,"stimulus":"Examples sent to student! Waiting for student...","response":null,"trial_type":"html-keyboard-response","trial_index":21,"time_elapsed":329189,"internal_node_id":"0.0-17.0","params":{"nStudents":24,"maxFlips":30,"completionMinutes":45,"basePay":8,"maxBonus":9,"perTrialBonus":0.5,"perTrialBonusThreshold":0.1,"exampleCost":0.01},"classroomParams":{"A":{"a":1,"b":4},"B":{"a":4,"b":1},"C":{"a":2,"b":8},"D":{"a":8,"b":2}},"conditions":["nonSeqFull","nonSeqPartial","seqNoFeedback","seqFeedback"],"classroomPairings":[["A","B"],["C","D"]],"coinWeights":[0.2,0.5,0.8],"subjectId":"AJF954955YWZG","assignmentId":"3K5TEWLKGWX2ENZ752HDGPFW38YIVT","hitId":"3YGE63DIN8J20XK20KS1742RQF60WK","url":"https://gershmanlab.com/experiments/alicia/teaching/experiment/?hitId=3YGE63DIN8J20XK20KS1742RQF60WK&workerId=AJF954955YWZG&assignmentId=3K5TEWLKGWX2ENZ752HDGPFW38YIVT&a=KE5K8&tp_a=KE5K8&b=3K5TEWLKGWX2ENZ752HDGPFW38YIVT&tp_b=3K5TEWLKGWX2ENZ752HDGPFW38YIVT&c=365198&tp_c=365198"},{"rt":2964,"stimulus":"\n                <p>Student 2's first guess for coin weight: <b style=\"color:Tomato\";>0.80</b></p>\n                <p>Student 2's second guess for coin weight: <b style=\"color:Tomato\";>0.80</b></p>\n                <p>You received a bonus of <b>$0.30</b> based on the student's second guess.</p>\n                <p>Total bonus so far: <b>$0.30</b></p>\n                <p>Press any key to continue.</p>\n                ","response":" ","trial_type":"html-keyboard-response","trial_index":22,"time_elapsed":332154,"internal_node_id":"0.0-18.0","params":{"nStudents":24,"maxFlips":30,"completionMinutes":45,"basePay":8,"maxBonus":9,"perTrialBonus":0.5,"perTrialBonusThreshold":0.1,"exampleCost":0.01},"classroomParams":{"A":{"a":1,"b":4},"B":{"a":4,"b":1},"C":{"a":2,"b":8},"D":{"a":8,"b":2}},"conditions":["nonSeqFull","nonSeqPartial","seqNoFeedback","seqFeedback"],"classroomPairings":[["A","B"],["C","D"]],"coinWeights":[0.2,0.5,0.8],"subjectId":"AJF954955YWZG","assignmentId":"3K5TEWLKGWX2ENZ752HDGPFW38YIVT","hitId":"3YGE63DIN8J20XK20KS1742RQF60WK","url":"https://gershmanlab.com/experiments/alicia/teaching/experiment/?hitId=3YGE63DIN8J20XK20KS1742RQF60WK&workerId=AJF954955YWZG&assignmentId=3K5TEWLKGWX2ENZ752HDGPFW38YIVT&a=KE5K8&tp_a=KE5K8&b=3K5TEWLKGWX2ENZ752HDGPFW38YIVT&tp_b=3K5TEWLKGWX2ENZ752HDGPFW38YIVT&c=365198&tp_c=365198"},{"rt":null,"stimulus":"<div style=\"font-size:60px;\">Next student</div>","response":null,"trial_type":"html-keyboard-response","trial_index":23,"time_elapsed":334155,"internal_node_id":"0.0-19.0-0.0","params":{"nStudents":24,"maxFlips":30,"completionMinutes":45,"basePay":8,"maxBonus":9,"perTrialBonus":0.5,"perTrialBonusThreshold":0.1,"exampleCost":0.01},"classroomParams":{"A":{"a":1,"b":4},"B":{"a":4,"b":1},"C":{"a":2,"b":8},"D":{"a":8,"b":2}},"conditions":["nonSeqFull","nonSeqPartial","seqNoFeedback","seqFeedback"],"classroomPairings":[["A","B"],["C","D"]],"coinWeights":[0.2,0.5,0.8],"subjectId":"AJF954955YWZG","assignmentId":"3K5TEWLKGWX2ENZ752HDGPFW38YIVT","hitId":"3YGE63DIN8J20XK20KS1742RQF60WK","url":"https://gershmanlab.com/experiments/alicia/teaching/experiment/?hitId=3YGE63DIN8J20XK20KS1742RQF60WK&workerId=AJF954955YWZG&assignmentId=3K5TEWLKGWX2ENZ752HDGPFW38YIVT&a=KE5K8&tp_a=KE5K8&b=3K5TEWLKGWX2ENZ752HDGPFW38YIVT&tp_b=3K5TEWLKGWX2ENZ752HDGPFW38YIVT&c=365198&tp_c=365198"},{"rt":2352,"stimulus":"\n            <h4 style=\"color:Orange;\">Student 3</h4>\n            <h2>The weight of your coin is <b style=\"color:Tomato;\">0.2</b>.</h2>\n            <p>In this block, you will be giving <b>one</b> set of examples to Student 3.</p>\n                <p>You will receive feedback at the end of the block.</p>\n            ","response":0,"trial_type":"html-button-response","trial_index":24,"time_elapsed":336508,"internal_node_id":"0.0-20.0","params":{"nStudents":24,"maxFlips":30,"completionMinutes":45,"basePay":8,"maxBonus":9,"perTrialBonus":0.5,"perTrialBonusThreshold":0.1,"exampleCost":0.01},"classroomParams":{"A":{"a":1,"b":4},"B":{"a":4,"b":1},"C":{"a":2,"b":8},"D":{"a":8,"b":2}},"conditions":["nonSeqFull","nonSeqPartial","seqNoFeedback","seqFeedback"],"classroomPairings":[["A","B"],["C","D"]],"coinWeights":[0.2,0.5,0.8],"subjectId":"AJF954955YWZG","assignmentId":"3K5TEWLKGWX2ENZ752HDGPFW38YIVT","hitId":"3YGE63DIN8J20XK20KS1742RQF60WK","url":"https://gershmanlab.com/experiments/alicia/teaching/experiment/?hitId=3YGE63DIN8J20XK20KS1742RQF60WK&workerId=AJF954955YWZG&assignmentId=3K5TEWLKGWX2ENZ752HDGPFW38YIVT&a=KE5K8&tp_a=KE5K8&b=3K5TEWLKGWX2ENZ752HDGPFW38YIVT&tp_b=3K5TEWLKGWX2ENZ752HDGPFW38YIVT&c=365198&tp_c=365198"},{"rt":4588,"response":{"heads":"2","tails":"8"},"type":"response","condition":"nonSeqPartial","trueTheta":0.2,"classrooms":["C","D"],"studentTrueClassroom":"C","exampleSet":"first","trial_type":"survey-html-form","trial_index":25,"time_elapsed":341097,"internal_node_id":"0.0-21.0-0.0","params":{"nStudents":24,"maxFlips":30,"completionMinutes":45,"basePay":8,"maxBonus":9,"perTrialBonus":0.5,"perTrialBonusThreshold":0.1,"exampleCost":0.01},"classroomParams":{"A":{"a":1,"b":4},"B":{"a":4,"b":1},"C":{"a":2,"b":8},"D":{"a":8,"b":2}},"conditions":["nonSeqFull","nonSeqPartial","seqNoFeedback","seqFeedback"],"classroomPairings":[["A","B"],["C","D"]],"coinWeights":[0.2,0.5,0.8],"subjectId":"AJF954955YWZG","assignmentId":"3K5TEWLKGWX2ENZ752HDGPFW38YIVT","hitId":"3YGE63DIN8J20XK20KS1742RQF60WK","url":"https://gershmanlab.com/experiments/alicia/teaching/experiment/?hitId=3YGE63DIN8J20XK20KS1742RQF60WK&workerId=AJF954955YWZG&assignmentId=3K5TEWLKGWX2ENZ752HDGPFW38YIVT&a=KE5K8&tp_a=KE5K8&b=3K5TEWLKGWX2ENZ752HDGPFW38YIVT&tp_b=3K5TEWLKGWX2ENZ752HDGPFW38YIVT&c=365198&tp_c=365198","heads":2,"tails":8,"studentIndex":2,"studentTrueHypers":{"a":2,"b":8},"studentGuess":0.2,"delta":0,"totalExamples":10,"bonus":0.4,"bonusSoFar":0.7},{"rt":null,"stimulus":"Sending examples to student... ","response":null,"trial_type":"html-keyboard-response","trial_index":26,"time_elapsed":342348,"internal_node_id":"0.0-22.0","params":{"nStudents":24,"maxFlips":30,"completionMinutes":45,"basePay":8,"maxBonus":9,"perTrialBonus":0.5,"perTrialBonusThreshold":0.1,"exampleCost":0.01},"classroomParams":{"A":{"a":1,"b":4},"B":{"a":4,"b":1},"C":{"a":2,"b":8},"D":{"a":8,"b":2}},"conditions":["nonSeqFull","nonSeqPartial","seqNoFeedback","seqFeedback"],"classroomPairings":[["A","B"],["C","D"]],"coinWeights":[0.2,0.5,0.8],"subjectId":"AJF954955YWZG","assignmentId":"3K5TEWLKGWX2ENZ752HDGPFW38YIVT","hitId":"3YGE63DIN8J20XK20KS1742RQF60WK","url":"https://gershmanlab.com/experiments/alicia/teaching/experiment/?hitId=3YGE63DIN8J20XK20KS1742RQF60WK&workerId=AJF954955YWZG&assignmentId=3K5TEWLKGWX2ENZ752HDGPFW38YIVT&a=KE5K8&tp_a=KE5K8&b=3K5TEWLKGWX2ENZ752HDGPFW38YIVT&tp_b=3K5TEWLKGWX2ENZ752HDGPFW38YIVT&c=365198&tp_c=365198"},{"rt":null,"stimulus":"Examples sent to student! Waiting for student...","response":null,"trial_type":"html-keyboard-response","trial_index":27,"time_elapsed":347349,"internal_node_id":"0.0-23.0","params":{"nStudents":24,"maxFlips":30,"completionMinutes":45,"basePay":8,"maxBonus":9,"perTrialBonus":0.5,"perTrialBonusThreshold":0.1,"exampleCost":0.01},"classroomParams":{"A":{"a":1,"b":4},"B":{"a":4,"b":1},"C":{"a":2,"b":8},"D":{"a":8,"b":2}},"conditions":["nonSeqFull","nonSeqPartial","seqNoFeedback","seqFeedback"],"classroomPairings":[["A","B"],["C","D"]],"coinWeights":[0.2,0.5,0.8],"subjectId":"AJF954955YWZG","assignmentId":"3K5TEWLKGWX2ENZ752HDGPFW38YIVT","hitId":"3YGE63DIN8J20XK20KS1742RQF60WK","url":"https://gershmanlab.com/experiments/alicia/teaching/experiment/?hitId=3YGE63DIN8J20XK20KS1742RQF60WK&workerId=AJF954955YWZG&assignmentId=3K5TEWLKGWX2ENZ752HDGPFW38YIVT&a=KE5K8&tp_a=KE5K8&b=3K5TEWLKGWX2ENZ752HDGPFW38YIVT&tp_b=3K5TEWLKGWX2ENZ752HDGPFW38YIVT&c=365198&tp_c=365198"},{"rt":2948,"stimulus":"\n                <p>Student's guess for coin weight: <b style=\"color:Tomato;\">0.20</b></p>\n                <p>You received a bonus of <b>$0.4</b>. Total bonus so far: <b>$0.70</b></b></p>\n                <p> Press any key to continue.</p>\n                ","response":" ","trial_type":"html-keyboard-response","trial_index":28,"time_elapsed":350298,"internal_node_id":"0.0-24.0","params":{"nStudents":24,"maxFlips":30,"completionMinutes":45,"basePay":8,"maxBonus":9,"perTrialBonus":0.5,"perTrialBonusThreshold":0.1,"exampleCost":0.01},"classroomParams":{"A":{"a":1,"b":4},"B":{"a":4,"b":1},"C":{"a":2,"b":8},"D":{"a":8,"b":2}},"conditions":["nonSeqFull","nonSeqPartial","seqNoFeedback","seqFeedback"],"classroomPairings":[["A","B"],["C","D"]],"coinWeights":[0.2,0.5,0.8],"subjectId":"AJF954955YWZG","assignmentId":"3K5TEWLKGWX2ENZ752HDGPFW38YIVT","hitId":"3YGE63DIN8J20XK20KS1742RQF60WK","url":"https://gershmanlab.com/experiments/alicia/teaching/experiment/?hitId=3YGE63DIN8J20XK20KS1742RQF60WK&workerId=AJF954955YWZG&assignmentId=3K5TEWLKGWX2ENZ752HDGPFW38YIVT&a=KE5K8&tp_a=KE5K8&b=3K5TEWLKGWX2ENZ752HDGPFW38YIVT&tp_b=3K5TEWLKGWX2ENZ752HDGPFW38YIVT&c=365198&tp_c=365198"},{"rt":null,"stimulus":"<div style=\"font-size:60px;\">Next student</div>","response":null,"trial_type":"html-keyboard-response","trial_index":29,"time_elapsed":352549,"internal_node_id":"0.0-25.0-0.0","params":{"nStudents":24,"maxFlips":30,"completionMinutes":45,"basePay":8,"maxBonus":9,"perTrialBonus":0.5,"perTrialBonusThreshold":0.1,"exampleCost":0.01},"classroomParams":{"A":{"a":1,"b":4},"B":{"a":4,"b":1},"C":{"a":2,"b":8},"D":{"a":8,"b":2}},"conditions":["nonSeqFull","nonSeqPartial","seqNoFeedback","seqFeedback"],"classroomPairings":[["A","B"],["C","D"]],"coinWeights":[0.2,0.5,0.8],"subjectId":"AJF954955YWZG","assignmentId":"3K5TEWLKGWX2ENZ752HDGPFW38YIVT","hitId":"3YGE63DIN8J20XK20KS1742RQF60WK","url":"https://gershmanlab.com/experiments/alicia/teaching/experiment/?hitId=3YGE63DIN8J20XK20KS1742RQF60WK&workerId=AJF954955YWZG&assignmentId=3K5TEWLKGWX2ENZ752HDGPFW38YIVT&a=KE5K8&tp_a=KE5K8&b=3K5TEWLKGWX2ENZ752HDGPFW38YIVT&tp_b=3K5TEWLKGWX2ENZ752HDGPFW38YIVT&c=365198&tp_c=365198"},{"rt":1672,"stimulus":"\n            <h4 style=\"color:Orange;\">Student 4</h4>\n            <h2>The weight of your coin is <b style=\"color:Tomato;\">0.5</b>.</h2>\n            <p>In this block, you will be giving <b>two</b> sets of examples to Student 4.</p>\n                <p>You will see the student's guess after the first set of examples. You will also receive feedback at the end of the block.</p>\n            ","response":0,"trial_type":"html-button-response","trial_index":30,"time_elapsed":354222,"internal_node_id":"0.0-26.0","params":{"nStudents":24,"maxFlips":30,"completionMinutes":45,"basePay":8,"maxBonus":9,"perTrialBonus":0.5,"perTrialBonusThreshold":0.1,"exampleCost":0.01},"classroomParams":{"A":{"a":1,"b":4},"B":{"a":4,"b":1},"C":{"a":2,"b":8},"D":{"a":8,"b":2}},"conditions":["nonSeqFull","nonSeqPartial","seqNoFeedback","seqFeedback"],"classroomPairings":[["A","B"],["C","D"]],"coinWeights":[0.2,0.5,0.8],"subjectId":"AJF954955YWZG","assignmentId":"3K5TEWLKGWX2ENZ752HDGPFW38YIVT","hitId":"3YGE63DIN8J20XK20KS1742RQF60WK","url":"https://gershmanlab.com/experiments/alicia/teaching/experiment/?hitId=3YGE63DIN8J20XK20KS1742RQF60WK&workerId=AJF954955YWZG&assignmentId=3K5TEWLKGWX2ENZ752HDGPFW38YIVT&a=KE5K8&tp_a=KE5K8&b=3K5TEWLKGWX2ENZ752HDGPFW38YIVT&tp_b=3K5TEWLKGWX2ENZ752HDGPFW38YIVT&c=365198&tp_c=365198"},{"rt":4400,"response":{"heads":"5","tails":"5"},"type":"response","condition":"seqFeedback","trueTheta":0.5,"classrooms":["A","B"],"studentTrueClassroom":"B","exampleSet":"first","trial_type":"survey-html-form","trial_index":31,"time_elapsed":358623,"internal_node_id":"0.0-27.0-0.0","params":{"nStudents":24,"maxFlips":30,"completionMinutes":45,"basePay":8,"maxBonus":9,"perTrialBonus":0.5,"perTrialBonusThreshold":0.1,"exampleCost":0.01},"classroomParams":{"A":{"a":1,"b":4},"B":{"a":4,"b":1},"C":{"a":2,"b":8},"D":{"a":8,"b":2}},"conditions":["nonSeqFull","nonSeqPartial","seqNoFeedback","seqFeedback"],"classroomPairings":[["A","B"],["C","D"]],"coinWeights":[0.2,0.5,0.8],"subjectId":"AJF954955YWZG","assignmentId":"3K5TEWLKGWX2ENZ752HDGPFW38YIVT","hitId":"3YGE63DIN8J20XK20KS1742RQF60WK","url":"https://gershmanlab.com/experiments/alicia/teaching/experiment/?hitId=3YGE63DIN8J20XK20KS1742RQF60WK&workerId=AJF954955YWZG&assignmentId=3K5TEWLKGWX2ENZ752HDGPFW38YIVT&a=KE5K8&tp_a=KE5K8&b=3K5TEWLKGWX2ENZ752HDGPFW38YIVT&tp_b=3K5TEWLKGWX2ENZ752HDGPFW38YIVT&c=365198&tp_c=365198","heads":5,"tails":5,"studentIndex":3,"studentTrueHypers":{"a":4,"b":1},"studentGuess":0.6,"delta":0.09999999999999998,"totalExamples":10,"bonusSoFar":0.7},{"rt":null,"stimulus":"Sending examples to student... ","response":null,"trial_type":"html-keyboard-response","trial_index":32,"time_elapsed":360124,"internal_node_id":"0.0-28.0","params":{"nStudents":24,"maxFlips":30,"completionMinutes":45,"basePay":8,"maxBonus":9,"perTrialBonus":0.5,"perTrialBonusThreshold":0.1,"exampleCost":0.01},"classroomParams":{"A":{"a":1,"b":4},"B":{"a":4,"b":1},"C":{"a":2,"b":8},"D":{"a":8,"b":2}},"conditions":["nonSeqFull","nonSeqPartial","seqNoFeedback","seqFeedback"],"classroomPairings":[["A","B"],["C","D"]],"coinWeights":[0.2,0.5,0.8],"subjectId":"AJF954955YWZG","assignmentId":"3K5TEWLKGWX2ENZ752HDGPFW38YIVT","hitId":"3YGE63DIN8J20XK20KS1742RQF60WK","url":"https://gershmanlab.com/experiments/alicia/teaching/experiment/?hitId=3YGE63DIN8J20XK20KS1742RQF60WK&workerId=AJF954955YWZG&assignmentId=3K5TEWLKGWX2ENZ752HDGPFW38YIVT&a=KE5K8&tp_a=KE5K8&b=3K5TEWLKGWX2ENZ752HDGPFW38YIVT&tp_b=3K5TEWLKGWX2ENZ752HDGPFW38YIVT&c=365198&tp_c=365198"},{"rt":null,"stimulus":"Examples sent to student! Waiting for student...","response":null,"trial_type":"html-keyboard-response","trial_index":33,"time_elapsed":364625,"internal_node_id":"0.0-29.0","params":{"nStudents":24,"maxFlips":30,"completionMinutes":45,"basePay":8,"maxBonus":9,"perTrialBonus":0.5,"perTrialBonusThreshold":0.1,"exampleCost":0.01},"classroomParams":{"A":{"a":1,"b":4},"B":{"a":4,"b":1},"C":{"a":2,"b":8},"D":{"a":8,"b":2}},"conditions":["nonSeqFull","nonSeqPartial","seqNoFeedback","seqFeedback"],"classroomPairings":[["A","B"],["C","D"]],"coinWeights":[0.2,0.5,0.8],"subjectId":"AJF954955YWZG","assignmentId":"3K5TEWLKGWX2ENZ752HDGPFW38YIVT","hitId":"3YGE63DIN8J20XK20KS1742RQF60WK","url":"https://gershmanlab.com/experiments/alicia/teaching/experiment/?hitId=3YGE63DIN8J20XK20KS1742RQF60WK&workerId=AJF954955YWZG&assignmentId=3K5TEWLKGWX2ENZ752HDGPFW38YIVT&a=KE5K8&tp_a=KE5K8&b=3K5TEWLKGWX2ENZ752HDGPFW38YIVT&tp_b=3K5TEWLKGWX2ENZ752HDGPFW38YIVT&c=365198&tp_c=365198"},{"rt":2744,"stimulus":"\n                <p>Student's guess for coin weight: <b style=\"color:Tomato;\">0.60</b></p>\n                <p></b></p>\n                <p>You will now send another set of examples to your student. Press any key to continue.</p>\n                ","response":" ","trial_type":"html-keyboard-response","trial_index":34,"time_elapsed":367369,"internal_node_id":"0.0-30.0","params":{"nStudents":24,"maxFlips":30,"completionMinutes":45,"basePay":8,"maxBonus":9,"perTrialBonus":0.5,"perTrialBonusThreshold":0.1,"exampleCost":0.01},"classroomParams":{"A":{"a":1,"b":4},"B":{"a":4,"b":1},"C":{"a":2,"b":8},"D":{"a":8,"b":2}},"conditions":["nonSeqFull","nonSeqPartial","seqNoFeedback","seqFeedback"],"classroomPairings":[["A","B"],["C","D"]],"coinWeights":[0.2,0.5,0.8],"subjectId":"AJF954955YWZG","assignmentId":"3K5TEWLKGWX2ENZ752HDGPFW38YIVT","hitId":"3YGE63DIN8J20XK20KS1742RQF60WK","url":"https://gershmanlab.com/experiments/alicia/teaching/experiment/?hitId=3YGE63DIN8J20XK20KS1742RQF60WK&workerId=AJF954955YWZG&assignmentId=3K5TEWLKGWX2ENZ752HDGPFW38YIVT&a=KE5K8&tp_a=KE5K8&b=3K5TEWLKGWX2ENZ752HDGPFW38YIVT&tp_b=3K5TEWLKGWX2ENZ752HDGPFW38YIVT&c=365198&tp_c=365198"},{"rt":5050,"response":{"heads":"5","tails":"5"},"type":"response","condition":"seqFeedback","trueTheta":0.5,"classrooms":["A","B"],"studentTrueClassroom":"B","exampleSet":"second","trial_type":"survey-html-form","trial_index":35,"time_elapsed":372420,"internal_node_id":"0.0-31.0-0.0","params":{"nStudents":24,"maxFlips":30,"completionMinutes":45,"basePay":8,"maxBonus":9,"perTrialBonus":0.5,"perTrialBonusThreshold":0.1,"exampleCost":0.01},"classroomParams":{"A":{"a":1,"b":4},"B":{"a":4,"b":1},"C":{"a":2,"b":8},"D":{"a":8,"b":2}},"conditions":["nonSeqFull","nonSeqPartial","seqNoFeedback","seqFeedback"],"classroomPairings":[["A","B"],["C","D"]],"coinWeights":[0.2,0.5,0.8],"subjectId":"AJF954955YWZG","assignmentId":"3K5TEWLKGWX2ENZ752HDGPFW38YIVT","hitId":"3YGE63DIN8J20XK20KS1742RQF60WK","url":"https://gershmanlab.com/experiments/alicia/teaching/experiment/?hitId=3YGE63DIN8J20XK20KS1742RQF60WK&workerId=AJF954955YWZG&assignmentId=3K5TEWLKGWX2ENZ752HDGPFW38YIVT&a=KE5K8&tp_a=KE5K8&b=3K5TEWLKGWX2ENZ752HDGPFW38YIVT&tp_b=3K5TEWLKGWX2ENZ752HDGPFW38YIVT&c=365198&tp_c=365198","firstResponseHeads":5,"firstResponseTails":5,"secondResponseHeads":5,"secondResponseTails":5,"studentIndex":3,"studentTrueHypers":{"a":4,"b":1},"studentGuess":0.56,"delta":0.06000000000000005,"bonus":0.3,"bonusSoFar":1,"totalExamples":20},{"rt":null,"stimulus":"Sending examples to student... ","response":null,"trial_type":"html-keyboard-response","trial_index":36,"time_elapsed":373921,"internal_node_id":"0.0-32.0","params":{"nStudents":24,"maxFlips":30,"completionMinutes":45,"basePay":8,"maxBonus":9,"perTrialBonus":0.5,"perTrialBonusThreshold":0.1,"exampleCost":0.01},"classroomParams":{"A":{"a":1,"b":4},"B":{"a":4,"b":1},"C":{"a":2,"b":8},"D":{"a":8,"b":2}},"conditions":["nonSeqFull","nonSeqPartial","seqNoFeedback","seqFeedback"],"classroomPairings":[["A","B"],["C","D"]],"coinWeights":[0.2,0.5,0.8],"subjectId":"AJF954955YWZG","assignmentId":"3K5TEWLKGWX2ENZ752HDGPFW38YIVT","hitId":"3YGE63DIN8J20XK20KS1742RQF60WK","url":"https://gershmanlab.com/experiments/alicia/teaching/experiment/?hitId=3YGE63DIN8J20XK20KS1742RQF60WK&workerId=AJF954955YWZG&assignmentId=3K5TEWLKGWX2ENZ752HDGPFW38YIVT&a=KE5K8&tp_a=KE5K8&b=3K5TEWLKGWX2ENZ752HDGPFW38YIVT&tp_b=3K5TEWLKGWX2ENZ752HDGPFW38YIVT&c=365198&tp_c=365198"},{"rt":null,"stimulus":"Examples sent to student! Waiting for student...","response":null,"trial_type":"html-keyboard-response","trial_index":37,"time_elapsed":377922,"internal_node_id":"0.0-33.0","params":{"nStudents":24,"maxFlips":30,"completionMinutes":45,"basePay":8,"maxBonus":9,"perTrialBonus":0.5,"perTrialBonusThreshold":0.1,"exampleCost":0.01},"classroomParams":{"A":{"a":1,"b":4},"B":{"a":4,"b":1},"C":{"a":2,"b":8},"D":{"a":8,"b":2}},"conditions":["nonSeqFull","nonSeqPartial","seqNoFeedback","seqFeedback"],"classroomPairings":[["A","B"],["C","D"]],"coinWeights":[0.2,0.5,0.8],"subjectId":"AJF954955YWZG","assignmentId":"3K5TEWLKGWX2ENZ752HDGPFW38YIVT","hitId":"3YGE63DIN8J20XK20KS1742RQF60WK","url":"https://gershmanlab.com/experiments/alicia/teaching/experiment/?hitId=3YGE63DIN8J20XK20KS1742RQF60WK&workerId=AJF954955YWZG&assignmentId=3K5TEWLKGWX2ENZ752HDGPFW38YIVT&a=KE5K8&tp_a=KE5K8&b=3K5TEWLKGWX2ENZ752HDGPFW38YIVT&tp_b=3K5TEWLKGWX2ENZ752HDGPFW38YIVT&c=365198&tp_c=365198"},{"rt":1591,"stimulus":"\n                <p>Student 4's first guess for coin weight: <b style=\"color:Tomato\";>0.60</b></p>\n                <p>Student 4's second guess for coin weight: <b style=\"color:Tomato\";>0.56</b></p>\n                <p>You received a bonus of <b>$0.30</b> based on the student's second guess.</p>\n                <p>Total bonus so far: <b>$1.00</b></p>\n                <p>Press any key to continue.</p>\n                ","response":" ","trial_type":"html-keyboard-response","trial_index":38,"time_elapsed":379514,"internal_node_id":"0.0-34.0","params":{"nStudents":24,"maxFlips":30,"completionMinutes":45,"basePay":8,"maxBonus":9,"perTrialBonus":0.5,"perTrialBonusThreshold":0.1,"exampleCost":0.01},"classroomParams":{"A":{"a":1,"b":4},"B":{"a":4,"b":1},"C":{"a":2,"b":8},"D":{"a":8,"b":2}},"conditions":["nonSeqFull","nonSeqPartial","seqNoFeedback","seqFeedback"],"classroomPairings":[["A","B"],["C","D"]],"coinWeights":[0.2,0.5,0.8],"subjectId":"AJF954955YWZG","assignmentId":"3K5TEWLKGWX2ENZ752HDGPFW38YIVT","hitId":"3YGE63DIN8J20XK20KS1742RQF60WK","url":"https://gershmanlab.com/experiments/alicia/teaching/experiment/?hitId=3YGE63DIN8J20XK20KS1742RQF60WK&workerId=AJF954955YWZG&assignmentId=3K5TEWLKGWX2ENZ752HDGPFW38YIVT&a=KE5K8&tp_a=KE5K8&b=3K5TEWLKGWX2ENZ752HDGPFW38YIVT&tp_b=3K5TEWLKGWX2ENZ752HDGPFW38YIVT&c=365198&tp_c=365198"},{"rt":null,"stimulus":"<div style=\"font-size:60px;\">Next student</div>","response":null,"trial_type":"html-keyboard-response","trial_index":39,"time_elapsed":382015,"internal_node_id":"0.0-35.0-0.0","params":{"nStudents":24,"maxFlips":30,"completionMinutes":45,"basePay":8,"maxBonus":9,"perTrialBonus":0.5,"perTrialBonusThreshold":0.1,"exampleCost":0.01},"classroomParams":{"A":{"a":1,"b":4},"B":{"a":4,"b":1},"C":{"a":2,"b":8},"D":{"a":8,"b":2}},"conditions":["nonSeqFull","nonSeqPartial","seqNoFeedback","seqFeedback"],"classroomPairings":[["A","B"],["C","D"]],"coinWeights":[0.2,0.5,0.8],"subjectId":"AJF954955YWZG","assignmentId":"3K5TEWLKGWX2ENZ752HDGPFW38YIVT","hitId":"3YGE63DIN8J20XK20KS1742RQF60WK","url":"https://gershmanlab.com/experiments/alicia/teaching/experiment/?hitId=3YGE63DIN8J20XK20KS1742RQF60WK&workerId=AJF954955YWZG&assignmentId=3K5TEWLKGWX2ENZ752HDGPFW38YIVT&a=KE5K8&tp_a=KE5K8&b=3K5TEWLKGWX2ENZ752HDGPFW38YIVT&tp_b=3K5TEWLKGWX2ENZ752HDGPFW38YIVT&c=365198&tp_c=365198"},{"rt":1111,"stimulus":"\n            <h4 style=\"color:Orange;\">Student 5</h4>\n            <h2>The weight of your coin is <b style=\"color:Tomato;\">0.8</b>.</h2>\n            <p>In this block, you will be giving <b>two</b> sets of examples to Student 5.</p>\n                <p>You will see the student's guess after the first set of examples. You will also receive feedback at the end of the block.</p>\n            ","response":0,"trial_type":"html-button-response","trial_index":40,"time_elapsed":383127,"internal_node_id":"0.0-36.0","params":{"nStudents":24,"maxFlips":30,"completionMinutes":45,"basePay":8,"maxBonus":9,"perTrialBonus":0.5,"perTrialBonusThreshold":0.1,"exampleCost":0.01},"classroomParams":{"A":{"a":1,"b":4},"B":{"a":4,"b":1},"C":{"a":2,"b":8},"D":{"a":8,"b":2}},"conditions":["nonSeqFull","nonSeqPartial","seqNoFeedback","seqFeedback"],"classroomPairings":[["A","B"],["C","D"]],"coinWeights":[0.2,0.5,0.8],"subjectId":"AJF954955YWZG","assignmentId":"3K5TEWLKGWX2ENZ752HDGPFW38YIVT","hitId":"3YGE63DIN8J20XK20KS1742RQF60WK","url":"https://gershmanlab.com/experiments/alicia/teaching/experiment/?hitId=3YGE63DIN8J20XK20KS1742RQF60WK&workerId=AJF954955YWZG&assignmentId=3K5TEWLKGWX2ENZ752HDGPFW38YIVT&a=KE5K8&tp_a=KE5K8&b=3K5TEWLKGWX2ENZ752HDGPFW38YIVT&tp_b=3K5TEWLKGWX2ENZ752HDGPFW38YIVT&c=365198&tp_c=365198"},{"rt":3962,"response":{"heads":"8","tails":"2"},"type":"response","condition":"seqFeedback","trueTheta":0.8,"classrooms":["C","D"],"studentTrueClassroom":"D","exampleSet":"first","trial_type":"survey-html-form","trial_index":41,"time_elapsed":387090,"internal_node_id":"0.0-37.0-0.0","params":{"nStudents":24,"maxFlips":30,"completionMinutes":45,"basePay":8,"maxBonus":9,"perTrialBonus":0.5,"perTrialBonusThreshold":0.1,"exampleCost":0.01},"classroomParams":{"A":{"a":1,"b":4},"B":{"a":4,"b":1},"C":{"a":2,"b":8},"D":{"a":8,"b":2}},"conditions":["nonSeqFull","nonSeqPartial","seqNoFeedback","seqFeedback"],"classroomPairings":[["A","B"],["C","D"]],"coinWeights":[0.2,0.5,0.8],"subjectId":"AJF954955YWZG","assignmentId":"3K5TEWLKGWX2ENZ752HDGPFW38YIVT","hitId":"3YGE63DIN8J20XK20KS1742RQF60WK","url":"https://gershmanlab.com/experiments/alicia/teaching/experiment/?hitId=3YGE63DIN8J20XK20KS1742RQF60WK&workerId=AJF954955YWZG&assignmentId=3K5TEWLKGWX2ENZ752HDGPFW38YIVT&a=KE5K8&tp_a=KE5K8&b=3K5TEWLKGWX2ENZ752HDGPFW38YIVT&tp_b=3K5TEWLKGWX2ENZ752HDGPFW38YIVT&c=365198&tp_c=365198","heads":8,"tails":2,"studentIndex":4,"studentTrueHypers":{"a":8,"b":2},"studentGuess":0.8,"delta":0,"totalExamples":10,"bonusSoFar":1},{"rt":null,"stimulus":"Sending examples to student... ","response":null,"trial_type":"html-keyboard-response","trial_index":42,"time_elapsed":388355,"internal_node_id":"0.0-38.0","params":{"nStudents":24,"maxFlips":30,"completionMinutes":45,"basePay":8,"maxBonus":9,"perTrialBonus":0.5,"perTrialBonusThreshold":0.1,"exampleCost":0.01},"classroomParams":{"A":{"a":1,"b":4},"B":{"a":4,"b":1},"C":{"a":2,"b":8},"D":{"a":8,"b":2}},"conditions":["nonSeqFull","nonSeqPartial","seqNoFeedback","seqFeedback"],"classroomPairings":[["A","B"],["C","D"]],"coinWeights":[0.2,0.5,0.8],"subjectId":"AJF954955YWZG","assignmentId":"3K5TEWLKGWX2ENZ752HDGPFW38YIVT","hitId":"3YGE63DIN8J20XK20KS1742RQF60WK","url":"https://gershmanlab.com/experiments/alicia/teaching/experiment/?hitId=3YGE63DIN8J20XK20KS1742RQF60WK&workerId=AJF954955YWZG&assignmentId=3K5TEWLKGWX2ENZ752HDGPFW38YIVT&a=KE5K8&tp_a=KE5K8&b=3K5TEWLKGWX2ENZ752HDGPFW38YIVT&tp_b=3K5TEWLKGWX2ENZ752HDGPFW38YIVT&c=365198&tp_c=365198"},{"rt":null,"stimulus":"Examples sent to student! Waiting for student...","response":null,"trial_type":"html-keyboard-response","trial_index":43,"time_elapsed":394358,"internal_node_id":"0.0-39.0","params":{"nStudents":24,"maxFlips":30,"completionMinutes":45,"basePay":8,"maxBonus":9,"perTrialBonus":0.5,"perTrialBonusThreshold":0.1,"exampleCost":0.01},"classroomParams":{"A":{"a":1,"b":4},"B":{"a":4,"b":1},"C":{"a":2,"b":8},"D":{"a":8,"b":2}},"conditions":["nonSeqFull","nonSeqPartial","seqNoFeedback","seqFeedback"],"classroomPairings":[["A","B"],["C","D"]],"coinWeights":[0.2,0.5,0.8],"subjectId":"AJF954955YWZG","assignmentId":"3K5TEWLKGWX2ENZ752HDGPFW38YIVT","hitId":"3YGE63DIN8J20XK20KS1742RQF60WK","url":"https://gershmanlab.com/experiments/alicia/teaching/experiment/?hitId=3YGE63DIN8J20XK20KS1742RQF60WK&workerId=AJF954955YWZG&assignmentId=3K5TEWLKGWX2ENZ752HDGPFW38YIVT&a=KE5K8&tp_a=KE5K8&b=3K5TEWLKGWX2ENZ752HDGPFW38YIVT&tp_b=3K5TEWLKGWX2ENZ752HDGPFW38YIVT&c=365198&tp_c=365198"},{"rt":1474,"stimulus":"\n                <p>Student's guess for coin weight: <b style=\"color:Tomato;\">0.80</b></p>\n                <p></b></p>\n                <p>You will now send another set of examples to your student. Press any key to continue.</p>\n                ","response":" ","trial_type":"html-keyboard-response","trial_index":44,"time_elapsed":395833,"internal_node_id":"0.0-40.0","params":{"nStudents":24,"maxFlips":30,"completionMinutes":45,"basePay":8,"maxBonus":9,"perTrialBonus":0.5,"perTrialBonusThreshold":0.1,"exampleCost":0.01},"classroomParams":{"A":{"a":1,"b":4},"B":{"a":4,"b":1},"C":{"a":2,"b":8},"D":{"a":8,"b":2}},"conditions":["nonSeqFull","nonSeqPartial","seqNoFeedback","seqFeedback"],"classroomPairings":[["A","B"],["C","D"]],"coinWeights":[0.2,0.5,0.8],"subjectId":"AJF954955YWZG","assignmentId":"3K5TEWLKGWX2ENZ752HDGPFW38YIVT","hitId":"3YGE63DIN8J20XK20KS1742RQF60WK","url":"https://gershmanlab.com/experiments/alicia/teaching/experiment/?hitId=3YGE63DIN8J20XK20KS1742RQF60WK&workerId=AJF954955YWZG&assignmentId=3K5TEWLKGWX2ENZ752HDGPFW38YIVT&a=KE5K8&tp_a=KE5K8&b=3K5TEWLKGWX2ENZ752HDGPFW38YIVT&tp_b=3K5TEWLKGWX2ENZ752HDGPFW38YIVT&c=365198&tp_c=365198"},{"rt":4748,"response":{"heads":"8","tails":"2"},"type":"response","condition":"seqFeedback","trueTheta":0.8,"classrooms":["C","D"],"studentTrueClassroom":"D","exampleSet":"second","trial_type":"survey-html-form","trial_index":45,"time_elapsed":400582,"internal_node_id":"0.0-41.0-0.0","params":{"nStudents":24,"maxFlips":30,"completionMinutes":45,"basePay":8,"maxBonus":9,"perTrialBonus":0.5,"perTrialBonusThreshold":0.1,"exampleCost":0.01},"classroomParams":{"A":{"a":1,"b":4},"B":{"a":4,"b":1},"C":{"a":2,"b":8},"D":{"a":8,"b":2}},"conditions":["nonSeqFull","nonSeqPartial","seqNoFeedback","seqFeedback"],"classroomPairings":[["A","B"],["C","D"]],"coinWeights":[0.2,0.5,0.8],"subjectId":"AJF954955YWZG","assignmentId":"3K5TEWLKGWX2ENZ752HDGPFW38YIVT","hitId":"3YGE63DIN8J20XK20KS1742RQF60WK","url":"https://gershmanlab.com/experiments/alicia/teaching/experiment/?hitId=3YGE63DIN8J20XK20KS1742RQF60WK&workerId=AJF954955YWZG&assignmentId=3K5TEWLKGWX2ENZ752HDGPFW38YIVT&a=KE5K8&tp_a=KE5K8&b=3K5TEWLKGWX2ENZ752HDGPFW38YIVT&tp_b=3K5TEWLKGWX2ENZ752HDGPFW38YIVT&c=365198&tp_c=365198","firstResponseHeads":8,"firstResponseTails":2,"secondResponseHeads":8,"secondResponseTails":2,"studentIndex":4,"studentTrueHypers":{"a":8,"b":2},"studentGuess":0.8,"delta":0,"bonus":0.3,"bonusSoFar":1.3,"totalExamples":20},{"rt":null,"stimulus":"Sending examples to student... ","response":null,"trial_type":"html-keyboard-response","trial_index":46,"time_elapsed":401834,"internal_node_id":"0.0-42.0","params":{"nStudents":24,"maxFlips":30,"completionMinutes":45,"basePay":8,"maxBonus":9,"perTrialBonus":0.5,"perTrialBonusThreshold":0.1,"exampleCost":0.01},"classroomParams":{"A":{"a":1,"b":4},"B":{"a":4,"b":1},"C":{"a":2,"b":8},"D":{"a":8,"b":2}},"conditions":["nonSeqFull","nonSeqPartial","seqNoFeedback","seqFeedback"],"classroomPairings":[["A","B"],["C","D"]],"coinWeights":[0.2,0.5,0.8],"subjectId":"AJF954955YWZG","assignmentId":"3K5TEWLKGWX2ENZ752HDGPFW38YIVT","hitId":"3YGE63DIN8J20XK20KS1742RQF60WK","url":"https://gershmanlab.com/experiments/alicia/teaching/experiment/?hitId=3YGE63DIN8J20XK20KS1742RQF60WK&workerId=AJF954955YWZG&assignmentId=3K5TEWLKGWX2ENZ752HDGPFW38YIVT&a=KE5K8&tp_a=KE5K8&b=3K5TEWLKGWX2ENZ752HDGPFW38YIVT&tp_b=3K5TEWLKGWX2ENZ752HDGPFW38YIVT&c=365198&tp_c=365198"},{"rt":null,"stimulus":"Examples sent to student! Waiting for student...","response":null,"trial_type":"html-keyboard-response","trial_index":47,"time_elapsed":405835,"internal_node_id":"0.0-43.0","params":{"nStudents":24,"maxFlips":30,"completionMinutes":45,"basePay":8,"maxBonus":9,"perTrialBonus":0.5,"perTrialBonusThreshold":0.1,"exampleCost":0.01},"classroomParams":{"A":{"a":1,"b":4},"B":{"a":4,"b":1},"C":{"a":2,"b":8},"D":{"a":8,"b":2}},"conditions":["nonSeqFull","nonSeqPartial","seqNoFeedback","seqFeedback"],"classroomPairings":[["A","B"],["C","D"]],"coinWeights":[0.2,0.5,0.8],"subjectId":"AJF954955YWZG","assignmentId":"3K5TEWLKGWX2ENZ752HDGPFW38YIVT","hitId":"3YGE63DIN8J20XK20KS1742RQF60WK","url":"https://gershmanlab.com/experiments/alicia/teaching/experiment/?hitId=3YGE63DIN8J20XK20KS1742RQF60WK&workerId=AJF954955YWZG&assignmentId=3K5TEWLKGWX2ENZ752HDGPFW38YIVT&a=KE5K8&tp_a=KE5K8&b=3K5TEWLKGWX2ENZ752HDGPFW38YIVT&tp_b=3K5TEWLKGWX2ENZ752HDGPFW38YIVT&c=365198&tp_c=365198"},{"rt":1422,"stimulus":"\n                <p>Student 5's first guess for coin weight: <b style=\"color:Tomato\";>0.80</b></p>\n                <p>Student 5's second guess for coin weight: <b style=\"color:Tomato\";>0.80</b></p>\n                <p>You received a bonus of <b>$0.30</b> based on the student's second guess.</p>\n                <p>Total bonus so far: <b>$1.30</b></p>\n                <p>Press any key to continue.</p>\n                ","response":" ","trial_type":"html-keyboard-response","trial_index":48,"time_elapsed":407257,"internal_node_id":"0.0-44.0","params":{"nStudents":24,"maxFlips":30,"completionMinutes":45,"basePay":8,"maxBonus":9,"perTrialBonus":0.5,"perTrialBonusThreshold":0.1,"exampleCost":0.01},"classroomParams":{"A":{"a":1,"b":4},"B":{"a":4,"b":1},"C":{"a":2,"b":8},"D":{"a":8,"b":2}},"conditions":["nonSeqFull","nonSeqPartial","seqNoFeedback","seqFeedback"],"classroomPairings":[["A","B"],["C","D"]],"coinWeights":[0.2,0.5,0.8],"subjectId":"AJF954955YWZG","assignmentId":"3K5TEWLKGWX2ENZ752HDGPFW38YIVT","hitId":"3YGE63DIN8J20XK20KS1742RQF60WK","url":"https://gershmanlab.com/experiments/alicia/teaching/experiment/?hitId=3YGE63DIN8J20XK20KS1742RQF60WK&workerId=AJF954955YWZG&assignmentId=3K5TEWLKGWX2ENZ752HDGPFW38YIVT&a=KE5K8&tp_a=KE5K8&b=3K5TEWLKGWX2ENZ752HDGPFW38YIVT&tp_b=3K5TEWLKGWX2ENZ752HDGPFW38YIVT&c=365198&tp_c=365198"},{"rt":null,"stimulus":"<div style=\"font-size:60px;\">Next student</div>","response":null,"trial_type":"html-keyboard-response","trial_index":49,"time_elapsed":409258,"internal_node_id":"0.0-45.0-0.0","params":{"nStudents":24,"maxFlips":30,"completionMinutes":45,"basePay":8,"maxBonus":9,"perTrialBonus":0.5,"perTrialBonusThreshold":0.1,"exampleCost":0.01},"classroomParams":{"A":{"a":1,"b":4},"B":{"a":4,"b":1},"C":{"a":2,"b":8},"D":{"a":8,"b":2}},"conditions":["nonSeqFull","nonSeqPartial","seqNoFeedback","seqFeedback"],"classroomPairings":[["A","B"],["C","D"]],"coinWeights":[0.2,0.5,0.8],"subjectId":"AJF954955YWZG","assignmentId":"3K5TEWLKGWX2ENZ752HDGPFW38YIVT","hitId":"3YGE63DIN8J20XK20KS1742RQF60WK","url":"https://gershmanlab.com/experiments/alicia/teaching/experiment/?hitId=3YGE63DIN8J20XK20KS1742RQF60WK&workerId=AJF954955YWZG&assignmentId=3K5TEWLKGWX2ENZ752HDGPFW38YIVT&a=KE5K8&tp_a=KE5K8&b=3K5TEWLKGWX2ENZ752HDGPFW38YIVT&tp_b=3K5TEWLKGWX2ENZ752HDGPFW38YIVT&c=365198&tp_c=365198"},{"rt":1682,"stimulus":"\n            <h4 style=\"color:Orange;\">Student 6</h4>\n            <h2>The weight of your coin is <b style=\"color:Tomato;\">0.2</b>.</h2>\n            <p>In this block, you will be giving <b>one</b> set of examples to Student 6.</p>\n                <p>You will receive feedback at the end of the block.</p>\n            ","response":0,"trial_type":"html-button-response","trial_index":50,"time_elapsed":410941,"internal_node_id":"0.0-46.0","params":{"nStudents":24,"maxFlips":30,"completionMinutes":45,"basePay":8,"maxBonus":9,"perTrialBonus":0.5,"perTrialBonusThreshold":0.1,"exampleCost":0.01},"classroomParams":{"A":{"a":1,"b":4},"B":{"a":4,"b":1},"C":{"a":2,"b":8},"D":{"a":8,"b":2}},"conditions":["nonSeqFull","nonSeqPartial","seqNoFeedback","seqFeedback"],"classroomPairings":[["A","B"],["C","D"]],"coinWeights":[0.2,0.5,0.8],"subjectId":"AJF954955YWZG","assignmentId":"3K5TEWLKGWX2ENZ752HDGPFW38YIVT","hitId":"3YGE63DIN8J20XK20KS1742RQF60WK","url":"https://gershmanlab.com/experiments/alicia/teaching/experiment/?hitId=3YGE63DIN8J20XK20KS1742RQF60WK&workerId=AJF954955YWZG&assignmentId=3K5TEWLKGWX2ENZ752HDGPFW38YIVT&a=KE5K8&tp_a=KE5K8&b=3K5TEWLKGWX2ENZ752HDGPFW38YIVT&tp_b=3K5TEWLKGWX2ENZ752HDGPFW38YIVT&c=365198&tp_c=365198"},{"rt":4644,"response":{"heads":"1","tails":"4"},"type":"response","condition":"nonSeqFull","trueTheta":0.2,"classrooms":["C","D"],"studentTrueClassroom":"D","exampleSet":"first","trial_type":"survey-html-form","trial_index":51,"time_elapsed":415586,"internal_node_id":"0.0-47.0-0.0","params":{"nStudents":24,"maxFlips":30,"completionMinutes":45,"basePay":8,"maxBonus":9,"perTrialBonus":0.5,"perTrialBonusThreshold":0.1,"exampleCost":0.01},"classroomParams":{"A":{"a":1,"b":4},"B":{"a":4,"b":1},"C":{"a":2,"b":8},"D":{"a":8,"b":2}},"conditions":["nonSeqFull","nonSeqPartial","seqNoFeedback","seqFeedback"],"classroomPairings":[["A","B"],["C","D"]],"coinWeights":[0.2,0.5,0.8],"subjectId":"AJF954955YWZG","assignmentId":"3K5TEWLKGWX2ENZ752HDGPFW38YIVT","hitId":"3YGE63DIN8J20XK20KS1742RQF60WK","url":"https://gershmanlab.com/experiments/alicia/teaching/experiment/?hitId=3YGE63DIN8J20XK20KS1742RQF60WK&workerId=AJF954955YWZG&assignmentId=3K5TEWLKGWX2ENZ752HDGPFW38YIVT&a=KE5K8&tp_a=KE5K8&b=3K5TEWLKGWX2ENZ752HDGPFW38YIVT&tp_b=3K5TEWLKGWX2ENZ752HDGPFW38YIVT&c=365198&tp_c=365198","heads":1,"tails":4,"studentIndex":5,"studentTrueHypers":{"a":8,"b":2},"studentGuess":0.6,"delta":0.39999999999999997,"totalExamples":5,"bonus":0,"bonusSoFar":1.3},{"rt":null,"stimulus":"Sending examples to student... ","response":null,"trial_type":"html-keyboard-response","trial_index":52,"time_elapsed":416849,"internal_node_id":"0.0-48.0","params":{"nStudents":24,"maxFlips":30,"completionMinutes":45,"basePay":8,"maxBonus":9,"perTrialBonus":0.5,"perTrialBonusThreshold":0.1,"exampleCost":0.01},"classroomParams":{"A":{"a":1,"b":4},"B":{"a":4,"b":1},"C":{"a":2,"b":8},"D":{"a":8,"b":2}},"conditions":["nonSeqFull","nonSeqPartial","seqNoFeedback","seqFeedback"],"classroomPairings":[["A","B"],["C","D"]],"coinWeights":[0.2,0.5,0.8],"subjectId":"AJF954955YWZG","assignmentId":"3K5TEWLKGWX2ENZ752HDGPFW38YIVT","hitId":"3YGE63DIN8J20XK20KS1742RQF60WK","url":"https://gershmanlab.com/experiments/alicia/teaching/experiment/?hitId=3YGE63DIN8J20XK20KS1742RQF60WK&workerId=AJF954955YWZG&assignmentId=3K5TEWLKGWX2ENZ752HDGPFW38YIVT&a=KE5K8&tp_a=KE5K8&b=3K5TEWLKGWX2ENZ752HDGPFW38YIVT&tp_b=3K5TEWLKGWX2ENZ752HDGPFW38YIVT&c=365198&tp_c=365198"},{"rt":null,"stimulus":"Examples sent to student! Waiting for student...","response":null,"trial_type":"html-keyboard-response","trial_index":53,"time_elapsed":420856,"internal_node_id":"0.0-49.0","params":{"nStudents":24,"maxFlips":30,"completionMinutes":45,"basePay":8,"maxBonus":9,"perTrialBonus":0.5,"perTrialBonusThreshold":0.1,"exampleCost":0.01},"classroomParams":{"A":{"a":1,"b":4},"B":{"a":4,"b":1},"C":{"a":2,"b":8},"D":{"a":8,"b":2}},"conditions":["nonSeqFull","nonSeqPartial","seqNoFeedback","seqFeedback"],"classroomPairings":[["A","B"],["C","D"]],"coinWeights":[0.2,0.5,0.8],"subjectId":"AJF954955YWZG","assignmentId":"3K5TEWLKGWX2ENZ752HDGPFW38YIVT","hitId":"3YGE63DIN8J20XK20KS1742RQF60WK","url":"https://gershmanlab.com/experiments/alicia/teaching/experiment/?hitId=3YGE63DIN8J20XK20KS1742RQF60WK&workerId=AJF954955YWZG&assignmentId=3K5TEWLKGWX2ENZ752HDGPFW38YIVT&a=KE5K8&tp_a=KE5K8&b=3K5TEWLKGWX2ENZ752HDGPFW38YIVT&tp_b=3K5TEWLKGWX2ENZ752HDGPFW38YIVT&c=365198&tp_c=365198"},{"rt":4361,"stimulus":"\n                <p>Student's guess for coin weight: <b style=\"color:Tomato;\">0.60</b></p>\n                <p>You received a bonus of <b>$0</b>. Total bonus so far: <b>$1.30</b></b></p>\n                <p> Press any key to continue.</p>\n                ","response":" ","trial_type":"html-keyboard-response","trial_index":54,"time_elapsed":425218,"internal_node_id":"0.0-50.0","params":{"nStudents":24,"maxFlips":30,"completionMinutes":45,"basePay":8,"maxBonus":9,"perTrialBonus":0.5,"perTrialBonusThreshold":0.1,"exampleCost":0.01},"classroomParams":{"A":{"a":1,"b":4},"B":{"a":4,"b":1},"C":{"a":2,"b":8},"D":{"a":8,"b":2}},"conditions":["nonSeqFull","nonSeqPartial","seqNoFeedback","seqFeedback"],"classroomPairings":[["A","B"],["C","D"]],"coinWeights":[0.2,0.5,0.8],"subjectId":"AJF954955YWZG","assignmentId":"3K5TEWLKGWX2ENZ752HDGPFW38YIVT","hitId":"3YGE63DIN8J20XK20KS1742RQF60WK","url":"https://gershmanlab.com/experiments/alicia/teaching/experiment/?hitId=3YGE63DIN8J20XK20KS1742RQF60WK&workerId=AJF954955YWZG&assignmentId=3K5TEWLKGWX2ENZ752HDGPFW38YIVT&a=KE5K8&tp_a=KE5K8&b=3K5TEWLKGWX2ENZ752HDGPFW38YIVT&tp_b=3K5TEWLKGWX2ENZ752HDGPFW38YIVT&c=365198&tp_c=365198"},{"rt":null,"stimulus":"<div style=\"font-size:60px;\">Next student</div>","response":null,"trial_type":"html-keyboard-response","trial_index":55,"time_elapsed":427728,"internal_node_id":"0.0-51.0-0.0","params":{"nStudents":24,"maxFlips":30,"completionMinutes":45,"basePay":8,"maxBonus":9,"perTrialBonus":0.5,"perTrialBonusThreshold":0.1,"exampleCost":0.01},"classroomParams":{"A":{"a":1,"b":4},"B":{"a":4,"b":1},"C":{"a":2,"b":8},"D":{"a":8,"b":2}},"conditions":["nonSeqFull","nonSeqPartial","seqNoFeedback","seqFeedback"],"classroomPairings":[["A","B"],["C","D"]],"coinWeights":[0.2,0.5,0.8],"subjectId":"AJF954955YWZG","assignmentId":"3K5TEWLKGWX2ENZ752HDGPFW38YIVT","hitId":"3YGE63DIN8J20XK20KS1742RQF60WK","url":"https://gershmanlab.com/experiments/alicia/teaching/experiment/?hitId=3YGE63DIN8J20XK20KS1742RQF60WK&workerId=AJF954955YWZG&assignmentId=3K5TEWLKGWX2ENZ752HDGPFW38YIVT&a=KE5K8&tp_a=KE5K8&b=3K5TEWLKGWX2ENZ752HDGPFW38YIVT&tp_b=3K5TEWLKGWX2ENZ752HDGPFW38YIVT&c=365198&tp_c=365198"},{"rt":1375,"stimulus":"\n            <h4 style=\"color:Orange;\">Student 7</h4>\n            <h2>The weight of your coin is <b style=\"color:Tomato;\">0.5</b>.</h2>\n            <p>In this block, you will be giving <b>one</b> set of examples to Student 7.</p>\n                <p>You will receive feedback at the end of the block.</p>\n            ","response":0,"trial_type":"html-button-response","trial_index":56,"time_elapsed":429104,"internal_node_id":"0.0-52.0","params":{"nStudents":24,"maxFlips":30,"completionMinutes":45,"basePay":8,"maxBonus":9,"perTrialBonus":0.5,"perTrialBonusThreshold":0.1,"exampleCost":0.01},"classroomParams":{"A":{"a":1,"b":4},"B":{"a":4,"b":1},"C":{"a":2,"b":8},"D":{"a":8,"b":2}},"conditions":["nonSeqFull","nonSeqPartial","seqNoFeedback","seqFeedback"],"classroomPairings":[["A","B"],["C","D"]],"coinWeights":[0.2,0.5,0.8],"subjectId":"AJF954955YWZG","assignmentId":"3K5TEWLKGWX2ENZ752HDGPFW38YIVT","hitId":"3YGE63DIN8J20XK20KS1742RQF60WK","url":"https://gershmanlab.com/experiments/alicia/teaching/experiment/?hitId=3YGE63DIN8J20XK20KS1742RQF60WK&workerId=AJF954955YWZG&assignmentId=3K5TEWLKGWX2ENZ752HDGPFW38YIVT&a=KE5K8&tp_a=KE5K8&b=3K5TEWLKGWX2ENZ752HDGPFW38YIVT&tp_b=3K5TEWLKGWX2ENZ752HDGPFW38YIVT&c=365198&tp_c=365198"},{"rt":2610,"response":{"heads":"1","tails":"1"},"type":"response","condition":"nonSeqFull","trueTheta":0.5,"classrooms":["C","D"],"studentTrueClassroom":"D","exampleSet":"first","trial_type":"survey-html-form","trial_index":57,"time_elapsed":431714,"internal_node_id":"0.0-53.0-0.0","params":{"nStudents":24,"maxFlips":30,"completionMinutes":45,"basePay":8,"maxBonus":9,"perTrialBonus":0.5,"perTrialBonusThreshold":0.1,"exampleCost":0.01},"classroomParams":{"A":{"a":1,"b":4},"B":{"a":4,"b":1},"C":{"a":2,"b":8},"D":{"a":8,"b":2}},"conditions":["nonSeqFull","nonSeqPartial","seqNoFeedback","seqFeedback"],"classroomPairings":[["A","B"],["C","D"]],"coinWeights":[0.2,0.5,0.8],"subjectId":"AJF954955YWZG","assignmentId":"3K5TEWLKGWX2ENZ752HDGPFW38YIVT","hitId":"3YGE63DIN8J20XK20KS1742RQF60WK","url":"https://gershmanlab.com/experiments/alicia/teaching/experiment/?hitId=3YGE63DIN8J20XK20KS1742RQF60WK&workerId=AJF954955YWZG&assignmentId=3K5TEWLKGWX2ENZ752HDGPFW38YIVT&a=KE5K8&tp_a=KE5K8&b=3K5TEWLKGWX2ENZ752HDGPFW38YIVT&tp_b=3K5TEWLKGWX2ENZ752HDGPFW38YIVT&c=365198&tp_c=365198","heads":1,"tails":1,"studentIndex":6,"studentTrueHypers":{"a":8,"b":2},"studentGuess":0.75,"delta":0.25,"totalExamples":2,"bonus":0,"bonusSoFar":1.3},{"rt":null,"stimulus":"Sending examples to student... ","response":null,"trial_type":"html-keyboard-response","trial_index":58,"time_elapsed":433216,"internal_node_id":"0.0-54.0","params":{"nStudents":24,"maxFlips":30,"completionMinutes":45,"basePay":8,"maxBonus":9,"perTrialBonus":0.5,"perTrialBonusThreshold":0.1,"exampleCost":0.01},"classroomParams":{"A":{"a":1,"b":4},"B":{"a":4,"b":1},"C":{"a":2,"b":8},"D":{"a":8,"b":2}},"conditions":["nonSeqFull","nonSeqPartial","seqNoFeedback","seqFeedback"],"classroomPairings":[["A","B"],["C","D"]],"coinWeights":[0.2,0.5,0.8],"subjectId":"AJF954955YWZG","assignmentId":"3K5TEWLKGWX2ENZ752HDGPFW38YIVT","hitId":"3YGE63DIN8J20XK20KS1742RQF60WK","url":"https://gershmanlab.com/experiments/alicia/teaching/experiment/?hitId=3YGE63DIN8J20XK20KS1742RQF60WK&workerId=AJF954955YWZG&assignmentId=3K5TEWLKGWX2ENZ752HDGPFW38YIVT&a=KE5K8&tp_a=KE5K8&b=3K5TEWLKGWX2ENZ752HDGPFW38YIVT&tp_b=3K5TEWLKGWX2ENZ752HDGPFW38YIVT&c=365198&tp_c=365198"},{"rt":null,"stimulus":"Examples sent to student! Waiting for student...","response":null,"trial_type":"html-keyboard-response","trial_index":59,"time_elapsed":438217,"internal_node_id":"0.0-55.0","params":{"nStudents":24,"maxFlips":30,"completionMinutes":45,"basePay":8,"maxBonus":9,"perTrialBonus":0.5,"perTrialBonusThreshold":0.1,"exampleCost":0.01},"classroomParams":{"A":{"a":1,"b":4},"B":{"a":4,"b":1},"C":{"a":2,"b":8},"D":{"a":8,"b":2}},"conditions":["nonSeqFull","nonSeqPartial","seqNoFeedback","seqFeedback"],"classroomPairings":[["A","B"],["C","D"]],"coinWeights":[0.2,0.5,0.8],"subjectId":"AJF954955YWZG","assignmentId":"3K5TEWLKGWX2ENZ752HDGPFW38YIVT","hitId":"3YGE63DIN8J20XK20KS1742RQF60WK","url":"https://gershmanlab.com/experiments/alicia/teaching/experiment/?hitId=3YGE63DIN8J20XK20KS1742RQF60WK&workerId=AJF954955YWZG&assignmentId=3K5TEWLKGWX2ENZ752HDGPFW38YIVT&a=KE5K8&tp_a=KE5K8&b=3K5TEWLKGWX2ENZ752HDGPFW38YIVT&tp_b=3K5TEWLKGWX2ENZ752HDGPFW38YIVT&c=365198&tp_c=365198"},{"rt":1608,"stimulus":"\n                <p>Student's guess for coin weight: <b style=\"color:Tomato;\">0.75</b></p>\n                <p>You received a bonus of <b>$0</b>. Total bonus so far: <b>$1.30</b></b></p>\n                <p> Press any key to continue.</p>\n                ","response":" ","trial_type":"html-keyboard-response","trial_index":60,"time_elapsed":439826,"internal_node_id":"0.0-56.0","params":{"nStudents":24,"maxFlips":30,"completionMinutes":45,"basePay":8,"maxBonus":9,"perTrialBonus":0.5,"perTrialBonusThreshold":0.1,"exampleCost":0.01},"classroomParams":{"A":{"a":1,"b":4},"B":{"a":4,"b":1},"C":{"a":2,"b":8},"D":{"a":8,"b":2}},"conditions":["nonSeqFull","nonSeqPartial","seqNoFeedback","seqFeedback"],"classroomPairings":[["A","B"],["C","D"]],"coinWeights":[0.2,0.5,0.8],"subjectId":"AJF954955YWZG","assignmentId":"3K5TEWLKGWX2ENZ752HDGPFW38YIVT","hitId":"3YGE63DIN8J20XK20KS1742RQF60WK","url":"https://gershmanlab.com/experiments/alicia/teaching/experiment/?hitId=3YGE63DIN8J20XK20KS1742RQF60WK&workerId=AJF954955YWZG&assignmentId=3K5TEWLKGWX2ENZ752HDGPFW38YIVT&a=KE5K8&tp_a=KE5K8&b=3K5TEWLKGWX2ENZ752HDGPFW38YIVT&tp_b=3K5TEWLKGWX2ENZ752HDGPFW38YIVT&c=365198&tp_c=365198"},{"rt":null,"stimulus":"<div style=\"font-size:60px;\">Next student</div>","response":null,"trial_type":"html-keyboard-response","trial_index":61,"time_elapsed":442826,"internal_node_id":"0.0-57.0-0.0","params":{"nStudents":24,"maxFlips":30,"completionMinutes":45,"basePay":8,"maxBonus":9,"perTrialBonus":0.5,"perTrialBonusThreshold":0.1,"exampleCost":0.01},"classroomParams":{"A":{"a":1,"b":4},"B":{"a":4,"b":1},"C":{"a":2,"b":8},"D":{"a":8,"b":2}},"conditions":["nonSeqFull","nonSeqPartial","seqNoFeedback","seqFeedback"],"classroomPairings":[["A","B"],["C","D"]],"coinWeights":[0.2,0.5,0.8],"subjectId":"AJF954955YWZG","assignmentId":"3K5TEWLKGWX2ENZ752HDGPFW38YIVT","hitId":"3YGE63DIN8J20XK20KS1742RQF60WK","url":"https://gershmanlab.com/experiments/alicia/teaching/experiment/?hitId=3YGE63DIN8J20XK20KS1742RQF60WK&workerId=AJF954955YWZG&assignmentId=3K5TEWLKGWX2ENZ752HDGPFW38YIVT&a=KE5K8&tp_a=KE5K8&b=3K5TEWLKGWX2ENZ752HDGPFW38YIVT&tp_b=3K5TEWLKGWX2ENZ752HDGPFW38YIVT&c=365198&tp_c=365198"},{"rt":1225,"stimulus":"\n            <h4 style=\"color:Orange;\">Student 8</h4>\n            <h2>The weight of your coin is <b style=\"color:Tomato;\">0.8</b>.</h2>\n            <p>In this block, you will be giving <b>two</b> sets of examples to Student 8.</p>\n                <p>You will see the student's guess after the first set of examples. You will also receive feedback at the end of the block.</p>\n            ","response":0,"trial_type":"html-button-response","trial_index":62,"time_elapsed":444052,"internal_node_id":"0.0-58.0","params":{"nStudents":24,"maxFlips":30,"completionMinutes":45,"basePay":8,"maxBonus":9,"perTrialBonus":0.5,"perTrialBonusThreshold":0.1,"exampleCost":0.01},"classroomParams":{"A":{"a":1,"b":4},"B":{"a":4,"b":1},"C":{"a":2,"b":8},"D":{"a":8,"b":2}},"conditions":["nonSeqFull","nonSeqPartial","seqNoFeedback","seqFeedback"],"classroomPairings":[["A","B"],["C","D"]],"coinWeights":[0.2,0.5,0.8],"subjectId":"AJF954955YWZG","assignmentId":"3K5TEWLKGWX2ENZ752HDGPFW38YIVT","hitId":"3YGE63DIN8J20XK20KS1742RQF60WK","url":"https://gershmanlab.com/experiments/alicia/teaching/experiment/?hitId=3YGE63DIN8J20XK20KS1742RQF60WK&workerId=AJF954955YWZG&assignmentId=3K5TEWLKGWX2ENZ752HDGPFW38YIVT&a=KE5K8&tp_a=KE5K8&b=3K5TEWLKGWX2ENZ752HDGPFW38YIVT&tp_b=3K5TEWLKGWX2ENZ752HDGPFW38YIVT&c=365198&tp_c=365198"},{"rt":4102,"response":{"heads":"8","tails":"2"},"type":"response","condition":"seqFeedback","trueTheta":0.8,"classrooms":["A","B"],"studentTrueClassroom":"A","exampleSet":"first","trial_type":"survey-html-form","trial_index":63,"time_elapsed":448154,"internal_node_id":"0.0-59.0-0.0","params":{"nStudents":24,"maxFlips":30,"completionMinutes":45,"basePay":8,"maxBonus":9,"perTrialBonus":0.5,"perTrialBonusThreshold":0.1,"exampleCost":0.01},"classroomParams":{"A":{"a":1,"b":4},"B":{"a":4,"b":1},"C":{"a":2,"b":8},"D":{"a":8,"b":2}},"conditions":["nonSeqFull","nonSeqPartial","seqNoFeedback","seqFeedback"],"classroomPairings":[["A","B"],["C","D"]],"coinWeights":[0.2,0.5,0.8],"subjectId":"AJF954955YWZG","assignmentId":"3K5TEWLKGWX2ENZ752HDGPFW38YIVT","hitId":"3YGE63DIN8J20XK20KS1742RQF60WK","url":"https://gershmanlab.com/experiments/alicia/teaching/experiment/?hitId=3YGE63DIN8J20XK20KS1742RQF60WK&workerId=AJF954955YWZG&assignmentId=3K5TEWLKGWX2ENZ752HDGPFW38YIVT&a=KE5K8&tp_a=KE5K8&b=3K5TEWLKGWX2ENZ752HDGPFW38YIVT&tp_b=3K5TEWLKGWX2ENZ752HDGPFW38YIVT&c=365198&tp_c=365198","heads":8,"tails":2,"studentIndex":7,"studentTrueHypers":{"a":1,"b":4},"studentGuess":0.6,"delta":0.20000000000000007,"totalExamples":10,"bonusSoFar":1.3},{"rt":null,"stimulus":"Sending examples to student... ","response":null,"trial_type":"html-keyboard-response","trial_index":64,"time_elapsed":449406,"internal_node_id":"0.0-60.0","params":{"nStudents":24,"maxFlips":30,"completionMinutes":45,"basePay":8,"maxBonus":9,"perTrialBonus":0.5,"perTrialBonusThreshold":0.1,"exampleCost":0.01},"classroomParams":{"A":{"a":1,"b":4},"B":{"a":4,"b":1},"C":{"a":2,"b":8},"D":{"a":8,"b":2}},"conditions":["nonSeqFull","nonSeqPartial","seqNoFeedback","seqFeedback"],"classroomPairings":[["A","B"],["C","D"]],"coinWeights":[0.2,0.5,0.8],"subjectId":"AJF954955YWZG","assignmentId":"3K5TEWLKGWX2ENZ752HDGPFW38YIVT","hitId":"3YGE63DIN8J20XK20KS1742RQF60WK","url":"https://gershmanlab.com/experiments/alicia/teaching/experiment/?hitId=3YGE63DIN8J20XK20KS1742RQF60WK&workerId=AJF954955YWZG&assignmentId=3K5TEWLKGWX2ENZ752HDGPFW38YIVT&a=KE5K8&tp_a=KE5K8&b=3K5TEWLKGWX2ENZ752HDGPFW38YIVT&tp_b=3K5TEWLKGWX2ENZ752HDGPFW38YIVT&c=365198&tp_c=365198"},{"rt":null,"stimulus":"Examples sent to student! Waiting for student...","response":null,"trial_type":"html-keyboard-response","trial_index":65,"time_elapsed":453407,"internal_node_id":"0.0-61.0","params":{"nStudents":24,"maxFlips":30,"completionMinutes":45,"basePay":8,"maxBonus":9,"perTrialBonus":0.5,"perTrialBonusThreshold":0.1,"exampleCost":0.01},"classroomParams":{"A":{"a":1,"b":4},"B":{"a":4,"b":1},"C":{"a":2,"b":8},"D":{"a":8,"b":2}},"conditions":["nonSeqFull","nonSeqPartial","seqNoFeedback","seqFeedback"],"classroomPairings":[["A","B"],["C","D"]],"coinWeights":[0.2,0.5,0.8],"subjectId":"AJF954955YWZG","assignmentId":"3K5TEWLKGWX2ENZ752HDGPFW38YIVT","hitId":"3YGE63DIN8J20XK20KS1742RQF60WK","url":"https://gershmanlab.com/experiments/alicia/teaching/experiment/?hitId=3YGE63DIN8J20XK20KS1742RQF60WK&workerId=AJF954955YWZG&assignmentId=3K5TEWLKGWX2ENZ752HDGPFW38YIVT&a=KE5K8&tp_a=KE5K8&b=3K5TEWLKGWX2ENZ752HDGPFW38YIVT&tp_b=3K5TEWLKGWX2ENZ752HDGPFW38YIVT&c=365198&tp_c=365198"},{"rt":1178,"stimulus":"\n                <p>Student's guess for coin weight: <b style=\"color:Tomato;\">0.60</b></p>\n                <p></b></p>\n                <p>You will now send another set of examples to your student. Press any key to continue.</p>\n                ","response":" ","trial_type":"html-keyboard-response","trial_index":66,"time_elapsed":454586,"internal_node_id":"0.0-62.0","params":{"nStudents":24,"maxFlips":30,"completionMinutes":45,"basePay":8,"maxBonus":9,"perTrialBonus":0.5,"perTrialBonusThreshold":0.1,"exampleCost":0.01},"classroomParams":{"A":{"a":1,"b":4},"B":{"a":4,"b":1},"C":{"a":2,"b":8},"D":{"a":8,"b":2}},"conditions":["nonSeqFull","nonSeqPartial","seqNoFeedback","seqFeedback"],"classroomPairings":[["A","B"],["C","D"]],"coinWeights":[0.2,0.5,0.8],"subjectId":"AJF954955YWZG","assignmentId":"3K5TEWLKGWX2ENZ752HDGPFW38YIVT","hitId":"3YGE63DIN8J20XK20KS1742RQF60WK","url":"https://gershmanlab.com/experiments/alicia/teaching/experiment/?hitId=3YGE63DIN8J20XK20KS1742RQF60WK&workerId=AJF954955YWZG&assignmentId=3K5TEWLKGWX2ENZ752HDGPFW38YIVT&a=KE5K8&tp_a=KE5K8&b=3K5TEWLKGWX2ENZ752HDGPFW38YIVT&tp_b=3K5TEWLKGWX2ENZ752HDGPFW38YIVT&c=365198&tp_c=365198"},{"rt":4880,"response":{"heads":"8","tails":"2"},"type":"response","condition":"seqFeedback","trueTheta":0.8,"classrooms":["A","B"],"studentTrueClassroom":"A","exampleSet":"second","trial_type":"survey-html-form","trial_index":67,"time_elapsed":459466,"internal_node_id":"0.0-63.0-0.0","params":{"nStudents":24,"maxFlips":30,"completionMinutes":45,"basePay":8,"maxBonus":9,"perTrialBonus":0.5,"perTrialBonusThreshold":0.1,"exampleCost":0.01},"classroomParams":{"A":{"a":1,"b":4},"B":{"a":4,"b":1},"C":{"a":2,"b":8},"D":{"a":8,"b":2}},"conditions":["nonSeqFull","nonSeqPartial","seqNoFeedback","seqFeedback"],"classroomPairings":[["A","B"],["C","D"]],"coinWeights":[0.2,0.5,0.8],"subjectId":"AJF954955YWZG","assignmentId":"3K5TEWLKGWX2ENZ752HDGPFW38YIVT","hitId":"3YGE63DIN8J20XK20KS1742RQF60WK","url":"https://gershmanlab.com/experiments/alicia/teaching/experiment/?hitId=3YGE63DIN8J20XK20KS1742RQF60WK&workerId=AJF954955YWZG&assignmentId=3K5TEWLKGWX2ENZ752HDGPFW38YIVT&a=KE5K8&tp_a=KE5K8&b=3K5TEWLKGWX2ENZ752HDGPFW38YIVT&tp_b=3K5TEWLKGWX2ENZ752HDGPFW38YIVT&c=365198&tp_c=365198","firstResponseHeads":8,"firstResponseTails":2,"secondResponseHeads":8,"secondResponseTails":2,"studentIndex":7,"studentTrueHypers":{"a":1,"b":4},"studentGuess":0.68,"delta":0.12,"bonus":0,"bonusSoFar":1.3,"totalExamples":20},{"rt":null,"stimulus":"Sending examples to student... ","response":null,"trial_type":"html-keyboard-response","trial_index":68,"time_elapsed":461476,"internal_node_id":"0.0-64.0","params":{"nStudents":24,"maxFlips":30,"completionMinutes":45,"basePay":8,"maxBonus":9,"perTrialBonus":0.5,"perTrialBonusThreshold":0.1,"exampleCost":0.01},"classroomParams":{"A":{"a":1,"b":4},"B":{"a":4,"b":1},"C":{"a":2,"b":8},"D":{"a":8,"b":2}},"conditions":["nonSeqFull","nonSeqPartial","seqNoFeedback","seqFeedback"],"classroomPairings":[["A","B"],["C","D"]],"coinWeights":[0.2,0.5,0.8],"subjectId":"AJF954955YWZG","assignmentId":"3K5TEWLKGWX2ENZ752HDGPFW38YIVT","hitId":"3YGE63DIN8J20XK20KS1742RQF60WK","url":"https://gershmanlab.com/experiments/alicia/teaching/experiment/?hitId=3YGE63DIN8J20XK20KS1742RQF60WK&workerId=AJF954955YWZG&assignmentId=3K5TEWLKGWX2ENZ752HDGPFW38YIVT&a=KE5K8&tp_a=KE5K8&b=3K5TEWLKGWX2ENZ752HDGPFW38YIVT&tp_b=3K5TEWLKGWX2ENZ752HDGPFW38YIVT&c=365198&tp_c=365198"},{"rt":null,"stimulus":"Examples sent to student! Waiting for student...","response":null,"trial_type":"html-keyboard-response","trial_index":69,"time_elapsed":466977,"internal_node_id":"0.0-65.0","params":{"nStudents":24,"maxFlips":30,"completionMinutes":45,"basePay":8,"maxBonus":9,"perTrialBonus":0.5,"perTrialBonusThreshold":0.1,"exampleCost":0.01},"classroomParams":{"A":{"a":1,"b":4},"B":{"a":4,"b":1},"C":{"a":2,"b":8},"D":{"a":8,"b":2}},"conditions":["nonSeqFull","nonSeqPartial","seqNoFeedback","seqFeedback"],"classroomPairings":[["A","B"],["C","D"]],"coinWeights":[0.2,0.5,0.8],"subjectId":"AJF954955YWZG","assignmentId":"3K5TEWLKGWX2ENZ752HDGPFW38YIVT","hitId":"3YGE63DIN8J20XK20KS1742RQF60WK","url":"https://gershmanlab.com/experiments/alicia/teaching/experiment/?hitId=3YGE63DIN8J20XK20KS1742RQF60WK&workerId=AJF954955YWZG&assignmentId=3K5TEWLKGWX2ENZ752HDGPFW38YIVT&a=KE5K8&tp_a=KE5K8&b=3K5TEWLKGWX2ENZ752HDGPFW38YIVT&tp_b=3K5TEWLKGWX2ENZ752HDGPFW38YIVT&c=365198&tp_c=365198"},{"rt":1528,"stimulus":"\n                <p>Student 8's first guess for coin weight: <b style=\"color:Tomato\";>0.60</b></p>\n                <p>Student 8's second guess for coin weight: <b style=\"color:Tomato\";>0.68</b></p>\n                <p>You received a bonus of <b>$0.00</b> based on the student's second guess.</p>\n                <p>Total bonus so far: <b>$1.30</b></p>\n                <p>Press any key to continue.</p>\n                ","response":" ","trial_type":"html-keyboard-response","trial_index":70,"time_elapsed":468506,"internal_node_id":"0.0-66.0","params":{"nStudents":24,"maxFlips":30,"completionMinutes":45,"basePay":8,"maxBonus":9,"perTrialBonus":0.5,"perTrialBonusThreshold":0.1,"exampleCost":0.01},"classroomParams":{"A":{"a":1,"b":4},"B":{"a":4,"b":1},"C":{"a":2,"b":8},"D":{"a":8,"b":2}},"conditions":["nonSeqFull","nonSeqPartial","seqNoFeedback","seqFeedback"],"classroomPairings":[["A","B"],["C","D"]],"coinWeights":[0.2,0.5,0.8],"subjectId":"AJF954955YWZG","assignmentId":"3K5TEWLKGWX2ENZ752HDGPFW38YIVT","hitId":"3YGE63DIN8J20XK20KS1742RQF60WK","url":"https://gershmanlab.com/experiments/alicia/teaching/experiment/?hitId=3YGE63DIN8J20XK20KS1742RQF60WK&workerId=AJF954955YWZG&assignmentId=3K5TEWLKGWX2ENZ752HDGPFW38YIVT&a=KE5K8&tp_a=KE5K8&b=3K5TEWLKGWX2ENZ752HDGPFW38YIVT&tp_b=3K5TEWLKGWX2ENZ752HDGPFW38YIVT&c=365198&tp_c=365198"},{"rt":null,"stimulus":"<div style=\"font-size:60px;\">Next student</div>","response":null,"trial_type":"html-keyboard-response","trial_index":71,"time_elapsed":471007,"internal_node_id":"0.0-67.0-0.0","params":{"nStudents":24,"maxFlips":30,"completionMinutes":45,"basePay":8,"maxBonus":9,"perTrialBonus":0.5,"perTrialBonusThreshold":0.1,"exampleCost":0.01},"classroomParams":{"A":{"a":1,"b":4},"B":{"a":4,"b":1},"C":{"a":2,"b":8},"D":{"a":8,"b":2}},"conditions":["nonSeqFull","nonSeqPartial","seqNoFeedback","seqFeedback"],"classroomPairings":[["A","B"],["C","D"]],"coinWeights":[0.2,0.5,0.8],"subjectId":"AJF954955YWZG","assignmentId":"3K5TEWLKGWX2ENZ752HDGPFW38YIVT","hitId":"3YGE63DIN8J20XK20KS1742RQF60WK","url":"https://gershmanlab.com/experiments/alicia/teaching/experiment/?hitId=3YGE63DIN8J20XK20KS1742RQF60WK&workerId=AJF954955YWZG&assignmentId=3K5TEWLKGWX2ENZ752HDGPFW38YIVT&a=KE5K8&tp_a=KE5K8&b=3K5TEWLKGWX2ENZ752HDGPFW38YIVT&tp_b=3K5TEWLKGWX2ENZ752HDGPFW38YIVT&c=365198&tp_c=365198"},{"rt":1170,"stimulus":"\n            <h4 style=\"color:Orange;\">Student 9</h4>\n            <h2>The weight of your coin is <b style=\"color:Tomato;\">0.2</b>.</h2>\n            <p>In this block, you will be giving <b>two</b> sets of examples to Student 9.</p>\n                <p>You will receive feedback at the end of the block.</p>\n            ","response":0,"trial_type":"html-button-response","trial_index":72,"time_elapsed":472177,"internal_node_id":"0.0-68.0","params":{"nStudents":24,"maxFlips":30,"completionMinutes":45,"basePay":8,"maxBonus":9,"perTrialBonus":0.5,"perTrialBonusThreshold":0.1,"exampleCost":0.01},"classroomParams":{"A":{"a":1,"b":4},"B":{"a":4,"b":1},"C":{"a":2,"b":8},"D":{"a":8,"b":2}},"conditions":["nonSeqFull","nonSeqPartial","seqNoFeedback","seqFeedback"],"classroomPairings":[["A","B"],["C","D"]],"coinWeights":[0.2,0.5,0.8],"subjectId":"AJF954955YWZG","assignmentId":"3K5TEWLKGWX2ENZ752HDGPFW38YIVT","hitId":"3YGE63DIN8J20XK20KS1742RQF60WK","url":"https://gershmanlab.com/experiments/alicia/teaching/experiment/?hitId=3YGE63DIN8J20XK20KS1742RQF60WK&workerId=AJF954955YWZG&assignmentId=3K5TEWLKGWX2ENZ752HDGPFW38YIVT&a=KE5K8&tp_a=KE5K8&b=3K5TEWLKGWX2ENZ752HDGPFW38YIVT&tp_b=3K5TEWLKGWX2ENZ752HDGPFW38YIVT&c=365198&tp_c=365198"},{"rt":4300,"response":{"heads":"2","tails":"8"},"type":"response","condition":"seqNoFeedback","trueTheta":0.2,"classrooms":["C","D"],"studentTrueClassroom":"C","exampleSet":"first","trial_type":"survey-html-form","trial_index":73,"time_elapsed":476479,"internal_node_id":"0.0-69.0-0.0","params":{"nStudents":24,"maxFlips":30,"completionMinutes":45,"basePay":8,"maxBonus":9,"perTrialBonus":0.5,"perTrialBonusThreshold":0.1,"exampleCost":0.01},"classroomParams":{"A":{"a":1,"b":4},"B":{"a":4,"b":1},"C":{"a":2,"b":8},"D":{"a":8,"b":2}},"conditions":["nonSeqFull","nonSeqPartial","seqNoFeedback","seqFeedback"],"classroomPairings":[["A","B"],["C","D"]],"coinWeights":[0.2,0.5,0.8],"subjectId":"AJF954955YWZG","assignmentId":"3K5TEWLKGWX2ENZ752HDGPFW38YIVT","hitId":"3YGE63DIN8J20XK20KS1742RQF60WK","url":"https://gershmanlab.com/experiments/alicia/teaching/experiment/?hitId=3YGE63DIN8J20XK20KS1742RQF60WK&workerId=AJF954955YWZG&assignmentId=3K5TEWLKGWX2ENZ752HDGPFW38YIVT&a=KE5K8&tp_a=KE5K8&b=3K5TEWLKGWX2ENZ752HDGPFW38YIVT&tp_b=3K5TEWLKGWX2ENZ752HDGPFW38YIVT&c=365198&tp_c=365198","heads":2,"tails":8,"studentIndex":8,"studentTrueHypers":{"a":2,"b":8},"studentGuess":0.2,"delta":0,"totalExamples":10,"bonusSoFar":1.3},{"rt":null,"stimulus":"Sending examples to student... ","response":null,"trial_type":"html-keyboard-response","trial_index":74,"time_elapsed":477994,"internal_node_id":"0.0-70.0","params":{"nStudents":24,"maxFlips":30,"completionMinutes":45,"basePay":8,"maxBonus":9,"perTrialBonus":0.5,"perTrialBonusThreshold":0.1,"exampleCost":0.01},"classroomParams":{"A":{"a":1,"b":4},"B":{"a":4,"b":1},"C":{"a":2,"b":8},"D":{"a":8,"b":2}},"conditions":["nonSeqFull","nonSeqPartial","seqNoFeedback","seqFeedback"],"classroomPairings":[["A","B"],["C","D"]],"coinWeights":[0.2,0.5,0.8],"subjectId":"AJF954955YWZG","assignmentId":"3K5TEWLKGWX2ENZ752HDGPFW38YIVT","hitId":"3YGE63DIN8J20XK20KS1742RQF60WK","url":"https://gershmanlab.com/experiments/alicia/teaching/experiment/?hitId=3YGE63DIN8J20XK20KS1742RQF60WK&workerId=AJF954955YWZG&assignmentId=3K5TEWLKGWX2ENZ752HDGPFW38YIVT&a=KE5K8&tp_a=KE5K8&b=3K5TEWLKGWX2ENZ752HDGPFW38YIVT&tp_b=3K5TEWLKGWX2ENZ752HDGPFW38YIVT&c=365198&tp_c=365198"},{"rt":null,"stimulus":"Examples sent to student! Waiting for student...","response":null,"trial_type":"html-keyboard-response","trial_index":75,"time_elapsed":482506,"internal_node_id":"0.0-71.0","params":{"nStudents":24,"maxFlips":30,"completionMinutes":45,"basePay":8,"maxBonus":9,"perTrialBonus":0.5,"perTrialBonusThreshold":0.1,"exampleCost":0.01},"classroomParams":{"A":{"a":1,"b":4},"B":{"a":4,"b":1},"C":{"a":2,"b":8},"D":{"a":8,"b":2}},"conditions":["nonSeqFull","nonSeqPartial","seqNoFeedback","seqFeedback"],"classroomPairings":[["A","B"],["C","D"]],"coinWeights":[0.2,0.5,0.8],"subjectId":"AJF954955YWZG","assignmentId":"3K5TEWLKGWX2ENZ752HDGPFW38YIVT","hitId":"3YGE63DIN8J20XK20KS1742RQF60WK","url":"https://gershmanlab.com/experiments/alicia/teaching/experiment/?hitId=3YGE63DIN8J20XK20KS1742RQF60WK&workerId=AJF954955YWZG&assignmentId=3K5TEWLKGWX2ENZ752HDGPFW38YIVT&a=KE5K8&tp_a=KE5K8&b=3K5TEWLKGWX2ENZ752HDGPFW38YIVT&tp_b=3K5TEWLKGWX2ENZ752HDGPFW38YIVT&c=365198&tp_c=365198"},{"rt":6179,"response":{"heads":"2","tails":"8"},"type":"response","condition":"seqNoFeedback","trueTheta":0.2,"classrooms":["C","D"],"studentTrueClassroom":"C","exampleSet":"second","trial_type":"survey-html-form","trial_index":76,"time_elapsed":488686,"internal_node_id":"0.0-72.0-0.0","params":{"nStudents":24,"maxFlips":30,"completionMinutes":45,"basePay":8,"maxBonus":9,"perTrialBonus":0.5,"perTrialBonusThreshold":0.1,"exampleCost":0.01},"classroomParams":{"A":{"a":1,"b":4},"B":{"a":4,"b":1},"C":{"a":2,"b":8},"D":{"a":8,"b":2}},"conditions":["nonSeqFull","nonSeqPartial","seqNoFeedback","seqFeedback"],"classroomPairings":[["A","B"],["C","D"]],"coinWeights":[0.2,0.5,0.8],"subjectId":"AJF954955YWZG","assignmentId":"3K5TEWLKGWX2ENZ752HDGPFW38YIVT","hitId":"3YGE63DIN8J20XK20KS1742RQF60WK","url":"https://gershmanlab.com/experiments/alicia/teaching/experiment/?hitId=3YGE63DIN8J20XK20KS1742RQF60WK&workerId=AJF954955YWZG&assignmentId=3K5TEWLKGWX2ENZ752HDGPFW38YIVT&a=KE5K8&tp_a=KE5K8&b=3K5TEWLKGWX2ENZ752HDGPFW38YIVT&tp_b=3K5TEWLKGWX2ENZ752HDGPFW38YIVT&c=365198&tp_c=365198","firstResponseHeads":2,"firstResponseTails":8,"secondResponseHeads":2,"secondResponseTails":8,"studentIndex":8,"studentTrueHypers":{"a":2,"b":8},"studentGuess":0.2,"delta":0,"bonus":0.3,"bonusSoFar":1.6,"totalExamples":20},{"rt":null,"stimulus":"Sending examples to student... ","response":null,"trial_type":"html-keyboard-response","trial_index":77,"time_elapsed":490692,"internal_node_id":"0.0-73.0","params":{"nStudents":24,"maxFlips":30,"completionMinutes":45,"basePay":8,"maxBonus":9,"perTrialBonus":0.5,"perTrialBonusThreshold":0.1,"exampleCost":0.01},"classroomParams":{"A":{"a":1,"b":4},"B":{"a":4,"b":1},"C":{"a":2,"b":8},"D":{"a":8,"b":2}},"conditions":["nonSeqFull","nonSeqPartial","seqNoFeedback","seqFeedback"],"classroomPairings":[["A","B"],["C","D"]],"coinWeights":[0.2,0.5,0.8],"subjectId":"AJF954955YWZG","assignmentId":"3K5TEWLKGWX2ENZ752HDGPFW38YIVT","hitId":"3YGE63DIN8J20XK20KS1742RQF60WK","url":"https://gershmanlab.com/experiments/alicia/teaching/experiment/?hitId=3YGE63DIN8J20XK20KS1742RQF60WK&workerId=AJF954955YWZG&assignmentId=3K5TEWLKGWX2ENZ752HDGPFW38YIVT&a=KE5K8&tp_a=KE5K8&b=3K5TEWLKGWX2ENZ752HDGPFW38YIVT&tp_b=3K5TEWLKGWX2ENZ752HDGPFW38YIVT&c=365198&tp_c=365198"},{"rt":null,"stimulus":"Examples sent to student! Waiting for student...","response":null,"trial_type":"html-keyboard-response","trial_index":78,"time_elapsed":496200,"internal_node_id":"0.0-74.0","params":{"nStudents":24,"maxFlips":30,"completionMinutes":45,"basePay":8,"maxBonus":9,"perTrialBonus":0.5,"perTrialBonusThreshold":0.1,"exampleCost":0.01},"classroomParams":{"A":{"a":1,"b":4},"B":{"a":4,"b":1},"C":{"a":2,"b":8},"D":{"a":8,"b":2}},"conditions":["nonSeqFull","nonSeqPartial","seqNoFeedback","seqFeedback"],"classroomPairings":[["A","B"],["C","D"]],"coinWeights":[0.2,0.5,0.8],"subjectId":"AJF954955YWZG","assignmentId":"3K5TEWLKGWX2ENZ752HDGPFW38YIVT","hitId":"3YGE63DIN8J20XK20KS1742RQF60WK","url":"https://gershmanlab.com/experiments/alicia/teaching/experiment/?hitId=3YGE63DIN8J20XK20KS1742RQF60WK&workerId=AJF954955YWZG&assignmentId=3K5TEWLKGWX2ENZ752HDGPFW38YIVT&a=KE5K8&tp_a=KE5K8&b=3K5TEWLKGWX2ENZ752HDGPFW38YIVT&tp_b=3K5TEWLKGWX2ENZ752HDGPFW38YIVT&c=365198&tp_c=365198"},{"rt":3185,"stimulus":"\n                <p>Student 9's first guess for coin weight: <b style=\"color:Tomato\";>0.20</b></p>\n                <p>Student 9's second guess for coin weight: <b style=\"color:Tomato\";>0.20</b></p>\n                <p>You received a bonus of <b>$0.30</b> based on the student's second guess.</p>\n                <p>Total bonus so far: <b>$1.60</b></p>\n                <p>Press any key to continue.</p>\n                ","response":" ","trial_type":"html-keyboard-response","trial_index":79,"time_elapsed":499386,"internal_node_id":"0.0-75.0","params":{"nStudents":24,"maxFlips":30,"completionMinutes":45,"basePay":8,"maxBonus":9,"perTrialBonus":0.5,"perTrialBonusThreshold":0.1,"exampleCost":0.01},"classroomParams":{"A":{"a":1,"b":4},"B":{"a":4,"b":1},"C":{"a":2,"b":8},"D":{"a":8,"b":2}},"conditions":["nonSeqFull","nonSeqPartial","seqNoFeedback","seqFeedback"],"classroomPairings":[["A","B"],["C","D"]],"coinWeights":[0.2,0.5,0.8],"subjectId":"AJF954955YWZG","assignmentId":"3K5TEWLKGWX2ENZ752HDGPFW38YIVT","hitId":"3YGE63DIN8J20XK20KS1742RQF60WK","url":"https://gershmanlab.com/experiments/alicia/teaching/experiment/?hitId=3YGE63DIN8J20XK20KS1742RQF60WK&workerId=AJF954955YWZG&assignmentId=3K5TEWLKGWX2ENZ752HDGPFW38YIVT&a=KE5K8&tp_a=KE5K8&b=3K5TEWLKGWX2ENZ752HDGPFW38YIVT&tp_b=3K5TEWLKGWX2ENZ752HDGPFW38YIVT&c=365198&tp_c=365198"},{"rt":null,"stimulus":"<div style=\"font-size:60px;\">Next student</div>","response":null,"trial_type":"html-keyboard-response","trial_index":80,"time_elapsed":502387,"internal_node_id":"0.0-76.0-0.0","params":{"nStudents":24,"maxFlips":30,"completionMinutes":45,"basePay":8,"maxBonus":9,"perTrialBonus":0.5,"perTrialBonusThreshold":0.1,"exampleCost":0.01},"classroomParams":{"A":{"a":1,"b":4},"B":{"a":4,"b":1},"C":{"a":2,"b":8},"D":{"a":8,"b":2}},"conditions":["nonSeqFull","nonSeqPartial","seqNoFeedback","seqFeedback"],"classroomPairings":[["A","B"],["C","D"]],"coinWeights":[0.2,0.5,0.8],"subjectId":"AJF954955YWZG","assignmentId":"3K5TEWLKGWX2ENZ752HDGPFW38YIVT","hitId":"3YGE63DIN8J20XK20KS1742RQF60WK","url":"https://gershmanlab.com/experiments/alicia/teaching/experiment/?hitId=3YGE63DIN8J20XK20KS1742RQF60WK&workerId=AJF954955YWZG&assignmentId=3K5TEWLKGWX2ENZ752HDGPFW38YIVT&a=KE5K8&tp_a=KE5K8&b=3K5TEWLKGWX2ENZ752HDGPFW38YIVT&tp_b=3K5TEWLKGWX2ENZ752HDGPFW38YIVT&c=365198&tp_c=365198"},{"rt":1474,"stimulus":"\n            <h4 style=\"color:Orange;\">Student 10</h4>\n            <h2>The weight of your coin is <b style=\"color:Tomato;\">0.5</b>.</h2>\n            <p>In this block, you will be giving <b>two</b> sets of examples to Student 10.</p>\n                <p>You will see the student's guess after the first set of examples. You will also receive feedback at the end of the block.</p>\n            ","response":0,"trial_type":"html-button-response","trial_index":81,"time_elapsed":503862,"internal_node_id":"0.0-77.0","params":{"nStudents":24,"maxFlips":30,"completionMinutes":45,"basePay":8,"maxBonus":9,"perTrialBonus":0.5,"perTrialBonusThreshold":0.1,"exampleCost":0.01},"classroomParams":{"A":{"a":1,"b":4},"B":{"a":4,"b":1},"C":{"a":2,"b":8},"D":{"a":8,"b":2}},"conditions":["nonSeqFull","nonSeqPartial","seqNoFeedback","seqFeedback"],"classroomPairings":[["A","B"],["C","D"]],"coinWeights":[0.2,0.5,0.8],"subjectId":"AJF954955YWZG","assignmentId":"3K5TEWLKGWX2ENZ752HDGPFW38YIVT","hitId":"3YGE63DIN8J20XK20KS1742RQF60WK","url":"https://gershmanlab.com/experiments/alicia/teaching/experiment/?hitId=3YGE63DIN8J20XK20KS1742RQF60WK&workerId=AJF954955YWZG&assignmentId=3K5TEWLKGWX2ENZ752HDGPFW38YIVT&a=KE5K8&tp_a=KE5K8&b=3K5TEWLKGWX2ENZ752HDGPFW38YIVT&tp_b=3K5TEWLKGWX2ENZ752HDGPFW38YIVT&c=365198&tp_c=365198"},{"rt":4308,"response":{"heads":"3","tails":"3"},"type":"response","condition":"seqFeedback","trueTheta":0.5,"classrooms":["C","D"],"studentTrueClassroom":"D","exampleSet":"first","trial_type":"survey-html-form","trial_index":82,"time_elapsed":508171,"internal_node_id":"0.0-78.0-0.0","params":{"nStudents":24,"maxFlips":30,"completionMinutes":45,"basePay":8,"maxBonus":9,"perTrialBonus":0.5,"perTrialBonusThreshold":0.1,"exampleCost":0.01},"classroomParams":{"A":{"a":1,"b":4},"B":{"a":4,"b":1},"C":{"a":2,"b":8},"D":{"a":8,"b":2}},"conditions":["nonSeqFull","nonSeqPartial","seqNoFeedback","seqFeedback"],"classroomPairings":[["A","B"],["C","D"]],"coinWeights":[0.2,0.5,0.8],"subjectId":"AJF954955YWZG","assignmentId":"3K5TEWLKGWX2ENZ752HDGPFW38YIVT","hitId":"3YGE63DIN8J20XK20KS1742RQF60WK","url":"https://gershmanlab.com/experiments/alicia/teaching/experiment/?hitId=3YGE63DIN8J20XK20KS1742RQF60WK&workerId=AJF954955YWZG&assignmentId=3K5TEWLKGWX2ENZ752HDGPFW38YIVT&a=KE5K8&tp_a=KE5K8&b=3K5TEWLKGWX2ENZ752HDGPFW38YIVT&tp_b=3K5TEWLKGWX2ENZ752HDGPFW38YIVT&c=365198&tp_c=365198","heads":3,"tails":3,"studentIndex":9,"studentTrueHypers":{"a":8,"b":2},"studentGuess":0.6875,"delta":0.1875,"totalExamples":6,"bonusSoFar":1.6},{"rt":null,"stimulus":"Sending examples to student... ","response":null,"trial_type":"html-keyboard-response","trial_index":83,"time_elapsed":509423,"internal_node_id":"0.0-79.0","params":{"nStudents":24,"maxFlips":30,"completionMinutes":45,"basePay":8,"maxBonus":9,"perTrialBonus":0.5,"perTrialBonusThreshold":0.1,"exampleCost":0.01},"classroomParams":{"A":{"a":1,"b":4},"B":{"a":4,"b":1},"C":{"a":2,"b":8},"D":{"a":8,"b":2}},"conditions":["nonSeqFull","nonSeqPartial","seqNoFeedback","seqFeedback"],"classroomPairings":[["A","B"],["C","D"]],"coinWeights":[0.2,0.5,0.8],"subjectId":"AJF954955YWZG","assignmentId":"3K5TEWLKGWX2ENZ752HDGPFW38YIVT","hitId":"3YGE63DIN8J20XK20KS1742RQF60WK","url":"https://gershmanlab.com/experiments/alicia/teaching/experiment/?hitId=3YGE63DIN8J20XK20KS1742RQF60WK&workerId=AJF954955YWZG&assignmentId=3K5TEWLKGWX2ENZ752HDGPFW38YIVT&a=KE5K8&tp_a=KE5K8&b=3K5TEWLKGWX2ENZ752HDGPFW38YIVT&tp_b=3K5TEWLKGWX2ENZ752HDGPFW38YIVT&c=365198&tp_c=365198"},{"rt":null,"stimulus":"Examples sent to student! Waiting for student...","response":null,"trial_type":"html-keyboard-response","trial_index":84,"time_elapsed":515429,"internal_node_id":"0.0-80.0","params":{"nStudents":24,"maxFlips":30,"completionMinutes":45,"basePay":8,"maxBonus":9,"perTrialBonus":0.5,"perTrialBonusThreshold":0.1,"exampleCost":0.01},"classroomParams":{"A":{"a":1,"b":4},"B":{"a":4,"b":1},"C":{"a":2,"b":8},"D":{"a":8,"b":2}},"conditions":["nonSeqFull","nonSeqPartial","seqNoFeedback","seqFeedback"],"classroomPairings":[["A","B"],["C","D"]],"coinWeights":[0.2,0.5,0.8],"subjectId":"AJF954955YWZG","assignmentId":"3K5TEWLKGWX2ENZ752HDGPFW38YIVT","hitId":"3YGE63DIN8J20XK20KS1742RQF60WK","url":"https://gershmanlab.com/experiments/alicia/teaching/experiment/?hitId=3YGE63DIN8J20XK20KS1742RQF60WK&workerId=AJF954955YWZG&assignmentId=3K5TEWLKGWX2ENZ752HDGPFW38YIVT&a=KE5K8&tp_a=KE5K8&b=3K5TEWLKGWX2ENZ752HDGPFW38YIVT&tp_b=3K5TEWLKGWX2ENZ752HDGPFW38YIVT&c=365198&tp_c=365198"},{"rt":1956,"stimulus":"\n                <p>Student's guess for coin weight: <b style=\"color:Tomato;\">0.69</b></p>\n                <p></b></p>\n                <p>You will now send another set of examples to your student. Press any key to continue.</p>\n                ","response":" ","trial_type":"html-keyboard-response","trial_index":85,"time_elapsed":517386,"internal_node_id":"0.0-81.0","params":{"nStudents":24,"maxFlips":30,"completionMinutes":45,"basePay":8,"maxBonus":9,"perTrialBonus":0.5,"perTrialBonusThreshold":0.1,"exampleCost":0.01},"classroomParams":{"A":{"a":1,"b":4},"B":{"a":4,"b":1},"C":{"a":2,"b":8},"D":{"a":8,"b":2}},"conditions":["nonSeqFull","nonSeqPartial","seqNoFeedback","seqFeedback"],"classroomPairings":[["A","B"],["C","D"]],"coinWeights":[0.2,0.5,0.8],"subjectId":"AJF954955YWZG","assignmentId":"3K5TEWLKGWX2ENZ752HDGPFW38YIVT","hitId":"3YGE63DIN8J20XK20KS1742RQF60WK","url":"https://gershmanlab.com/experiments/alicia/teaching/experiment/?hitId=3YGE63DIN8J20XK20KS1742RQF60WK&workerId=AJF954955YWZG&assignmentId=3K5TEWLKGWX2ENZ752HDGPFW38YIVT&a=KE5K8&tp_a=KE5K8&b=3K5TEWLKGWX2ENZ752HDGPFW38YIVT&tp_b=3K5TEWLKGWX2ENZ752HDGPFW38YIVT&c=365198&tp_c=365198"},{"rt":4484,"response":{"heads":"5","tails":"5"},"type":"response","condition":"seqFeedback","trueTheta":0.5,"classrooms":["C","D"],"studentTrueClassroom":"D","exampleSet":"second","trial_type":"survey-html-form","trial_index":86,"time_elapsed":521871,"internal_node_id":"0.0-82.0-0.0","params":{"nStudents":24,"maxFlips":30,"completionMinutes":45,"basePay":8,"maxBonus":9,"perTrialBonus":0.5,"perTrialBonusThreshold":0.1,"exampleCost":0.01},"classroomParams":{"A":{"a":1,"b":4},"B":{"a":4,"b":1},"C":{"a":2,"b":8},"D":{"a":8,"b":2}},"conditions":["nonSeqFull","nonSeqPartial","seqNoFeedback","seqFeedback"],"classroomPairings":[["A","B"],["C","D"]],"coinWeights":[0.2,0.5,0.8],"subjectId":"AJF954955YWZG","assignmentId":"3K5TEWLKGWX2ENZ752HDGPFW38YIVT","hitId":"3YGE63DIN8J20XK20KS1742RQF