[{"rt":null,"stimulus":"Welcome to the experiment. Press any key to begin.","response":null,"trial_type":"html-keyboard-response","trial_index":0,"time_elapsed":30817,"internal_node_id":"0.0-0.0","params":{"nStudents":24,"maxFlips":30,"completionMinutes":45,"basePay":8,"maxBonus":9,"perTrialBonus":0.5,"perTrialBonusThreshold":0.1,"exampleCost":0.01},"classroomParams":{"A":{"a":1,"b":4},"B":{"a":4,"b":1},"C":{"a":2,"b":8},"D":{"a":8,"b":2}},"conditions":["nonSeqFull","nonSeqPartial","seqNoFeedback","seqFeedback"],"classroomPairings":[["A","B"],["C","D"]],"coinWeights":[0.2,0.5,0.8],"subjectId":"AMV1E7FFPVAW4","assignmentId":"34BBWHLWHBXFTCZCVCM92RYAAH0IW3","hitId":"3YGE63DIN8J20XK20KS1742RQF60WK","url":"https://gershmanlab.com/experiments/alicia/teaching/experiment/?hitId=3YGE63DIN8J20XK20KS1742RQF60WK&workerId=AMV1E7FFPVAW4&assignmentId=34BBWHLWHBXFTCZCVCM92RYAAH0IW3&a=WWB48&tp_a=WWB48&b=34BBWHLWHBXFTCZCVCM92RYAAH0IW3&tp_b=34BBWHLWHBXFTCZCVCM92RYAAH0IW3&c=365198&tp_c=365198"},{"rt":1325302,"stimulus":"\n        <h3>Please read this consent agreement carefully before deciding whether to participate in this experiment.</h3>\n        <p><b>Purpose of the research:</b> To examine how people teach effectively.</p>\n        <p><b>What you will do in this research:</b> You will teach students the weights of different coins.</p>\n        <p><b>Time required:</b> This experiment will take 45 minutes to complete.</p>\n        <p><b>Risks:</b> There are no anticipated risks associated with participating in this study.             The effects of participating should be comparable to those you would experience from viewing a computer monitor             and using a mouse and keyboard for the duration of the experiment.</p>\n        <p><b>Benefits:</b> The study provides important information about the nature of teaching.</p>\n        <p><b>Compensation:</b> You will receive <b>$8</b> for completing the experiment and a performance bonus of up to <b>$9</b>.</p>\n        <p><b>Confidentiality:</b> Your participation in this study will remain confidential.             No personally identifiable information will be associated with your data.             Your de-identified data may be shared with other researchers and used in future projects.</p>\n        <p><b>Participation and withdrawal:</b> Your participation in this study is completely voluntary and             you may refuse to participate or you may choose to withdraw at any time without penalty or loss of\n            benefits to which you are otherwise entitled.</p>\n        <p><b>How to contact the researcher:</b> If you have questions or concerns about your participation            or payment, or want to request a summary of research findings, please contact\n            Alicia Chen, aliciachen@college.harvard.edu.</p>\n        <p><b>Whom to contact about your rights in this research:</b> For questions, concerns, suggestions,             or complaints that have not been or cannot be addressed by the researcher, or to report             research-related harm, please contact the Committee on the Use of Human Subjects in Research at Harvard University,             1414 Massachusetts Avenue, Second Floor, Cambridge, MA 02138. Phone: 617-496-2847. Email: cuhs@fas.harvard.edu.</p>\n        ","response":0,"trial_type":"html-button-response","trial_index":1,"time_elapsed":1356131,"internal_node_id":"0.0-1.0","params":{"nStudents":24,"maxFlips":30,"completionMinutes":45,"basePay":8,"maxBonus":9,"perTrialBonus":0.5,"perTrialBonusThreshold":0.1,"exampleCost":0.01},"classroomParams":{"A":{"a":1,"b":4},"B":{"a":4,"b":1},"C":{"a":2,"b":8},"D":{"a":8,"b":2}},"conditions":["nonSeqFull","nonSeqPartial","seqNoFeedback","seqFeedback"],"classroomPairings":[["A","B"],["C","D"]],"coinWeights":[0.2,0.5,0.8],"subjectId":"AMV1E7FFPVAW4","assignmentId":"34BBWHLWHBXFTCZCVCM92RYAAH0IW3","hitId":"3YGE63DIN8J20XK20KS1742RQF60WK","url":"https://gershmanlab.com/experiments/alicia/teaching/experiment/?hitId=3YGE63DIN8J20XK20KS1742RQF60WK&workerId=AMV1E7FFPVAW4&assignmentId=34BBWHLWHBXFTCZCVCM92RYAAH0IW3&a=WWB48&tp_a=WWB48&b=34BBWHLWHBXFTCZCVCM92RYAAH0IW3&tp_b=34BBWHLWHBXFTCZCVCM92RYAAH0IW3&c=365198&tp_c=365198"},{"view_history":[{"page_index":0,"viewing_time":3783},{"page_index":1,"viewing_time":2584},{"page_index":2,"viewing_time":33380},{"page_index":3,"viewing_time":744133},{"page_index":4,"viewing_time":8639},{"page_index":5,"viewing_time":24095},{"page_index":6,"viewing_time":946738}],"rt":1763351,"trial_type":"instructions","trial_index":2,"time_elapsed":3119484,"internal_node_id":"0.0-2.0-0.0","params":{"nStudents":24,"maxFlips":30,"completionMinutes":45,"basePay":8,"maxBonus":9,"perTrialBonus":0.5,"perTrialBonusThreshold":0.1,"exampleCost":0.01},"classroomParams":{"A":{"a":1,"b":4},"B":{"a":4,"b":1},"C":{"a":2,"b":8},"D":{"a":8,"b":2}},"conditions":["nonSeqFull","nonSeqPartial","seqNoFeedback","seqFeedback"],"classroomPairings":[["A","B"],["C","D"]],"coinWeights":[0.2,0.5,0.8],"subjectId":"AMV1E7FFPVAW4","assignmentId":"34BBWHLWHBXFTCZCVCM92RYAAH0IW3","hitId":"3YGE63DIN8J20XK20KS1742RQF60WK","url":"https://gershmanlab.com/experiments/alicia/teaching/experiment/?hitId=3YGE63DIN8J20XK20KS1742RQF60WK&workerId=AMV1E7FFPVAW4&assignmentId=34BBWHLWHBXFTCZCVCM92RYAAH0IW3&a=WWB48&tp_a=WWB48&b=34BBWHLWHBXFTCZCVCM92RYAAH0IW3&tp_b=34BBWHLWHBXFTCZCVCM92RYAAH0IW3&c=365198&tp_c=365198"},{"rt":56982,"response":{"Q0":"Students in different classrooms will have seen a different number of heads and tails before seeing the examples you select for them.","Q1":"By teaching efficiently and accurately/helpfully at the same time (because each example I give to the student costs money!).","Q2":"The coin lands heads 90% of the time.","Q3":"No, I will teach a <b>new</b> student each time.","Q4":"The students are also on the same alien planet as you, where coins can be unfair.","Q5":"Based on the student's second (and final) guess."},"question_order":[3,5,0,1,4,2],"trial_type":"survey-multi-choice","trial_index":3,"time_elapsed":3176470,"internal_node_id":"0.0-2.0-1.0","params":{"nStudents":24,"maxFlips":30,"completionMinutes":45,"basePay":8,"maxBonus":9,"perTrialBonus":0.5,"perTrialBonusThreshold":0.1,"exampleCost":0.01},"classroomParams":{"A":{"a":1,"b":4},"B":{"a":4,"b":1},"C":{"a":2,"b":8},"D":{"a":8,"b":2}},"conditions":["nonSeqFull","nonSeqPartial","seqNoFeedback","seqFeedback"],"classroomPairings":[["A","B"],["C","D"]],"coinWeights":[0.2,0.5,0.8],"subjectId":"AMV1E7FFPVAW4","assignmentId":"34BBWHLWHBXFTCZCVCM92RYAAH0IW3","hitId":"3YGE63DIN8J20XK20KS1742RQF60WK","url":"https://gershmanlab.com/experiments/alicia/teaching/experiment/?hitId=3YGE63DIN8J20XK20KS1742RQF60WK&workerId=AMV1E7FFPVAW4&assignmentId=34BBWHLWHBXFTCZCVCM92RYAAH0IW3&a=WWB48&tp_a=WWB48&b=34BBWHLWHBXFTCZCVCM92RYAAH0IW3&tp_b=34BBWHLWHBXFTCZCVCM92RYAAH0IW3&c=365198&tp_c=365198","pass":true},{"rt":null,"stimulus":"<div style=\"font-size:30px;\">Congrats on passing the comprehension quiz! The experiment will begin in a few seconds.</div>","response":null,"trial_type":"html-keyboard-response","trial_index":4,"time_elapsed":3179477,"internal_node_id":"0.0-3.0","params":{"nStudents":24,"maxFlips":30,"completionMinutes":45,"basePay":8,"maxBonus":9,"perTrialBonus":0.5,"perTrialBonusThreshold":0.1,"exampleCost":0.01},"classroomParams":{"A":{"a":1,"b":4},"B":{"a":4,"b":1},"C":{"a":2,"b":8},"D":{"a":8,"b":2}},"conditions":["nonSeqFull","nonSeqPartial","seqNoFeedback","seqFeedback"],"classroomPairings":[["A","B"],["C","D"]],"coinWeights":[0.2,0.5,0.8],"subjectId":"AMV1E7FFPVAW4","assignmentId":"34BBWHLWHBXFTCZCVCM92RYAAH0IW3","hitId":"3YGE63DIN8J20XK20KS1742RQF60WK","url":"https://gershmanlab.com/experiments/alicia/teaching/experiment/?hitId=3YGE63DIN8J20XK20KS1742RQF60WK&workerId=AMV1E7FFPVAW4&assignmentId=34BBWHLWHBXFTCZCVCM92RYAAH0IW3&a=WWB48&tp_a=WWB48&b=34BBWHLWHBXFTCZCVCM92RYAAH0IW3&tp_b=34BBWHLWHBXFTCZCVCM92RYAAH0IW3&c=365198&tp_c=365198"},{"rt":null,"stimulus":"<div style=\"font-size:50px;\">First student</div>","response":null,"trial_type":"html-keyboard-response","trial_index":5,"time_elapsed":3182480,"internal_node_id":"0.0-4.0","params":{"nStudents":24,"maxFlips":30,"completionMinutes":45,"basePay":8,"maxBonus":9,"perTrialBonus":0.5,"perTrialBonusThreshold":0.1,"exampleCost":0.01},"classroomParams":{"A":{"a":1,"b":4},"B":{"a":4,"b":1},"C":{"a":2,"b":8},"D":{"a":8,"b":2}},"conditions":["nonSeqFull","nonSeqPartial","seqNoFeedback","seqFeedback"],"classroomPairings":[["A","B"],["C","D"]],"coinWeights":[0.2,0.5,0.8],"subjectId":"AMV1E7FFPVAW4","assignmentId":"34BBWHLWHBXFTCZCVCM92RYAAH0IW3","hitId":"3YGE63DIN8J20XK20KS1742RQF60WK","url":"https://gershmanlab.com/experiments/alicia/teaching/experiment/?hitId=3YGE63DIN8J20XK20KS1742RQF60WK&workerId=AMV1E7FFPVAW4&assignmentId=34BBWHLWHBXFTCZCVCM92RYAAH0IW3&a=WWB48&tp_a=WWB48&b=34BBWHLWHBXFTCZCVCM92RYAAH0IW3&tp_b=34BBWHLWHBXFTCZCVCM92RYAAH0IW3&c=365198&tp_c=365198"},{"rt":14343,"stimulus":"\n            <h4 style=\"color:Orange;\">Student 1</h4>\n            <h2>The weight of your coin is <b style=\"color:Tomato;\">0.2</b>.</h2>\n            <p>In this block, you will be giving <b>two</b> sets of examples to Student 1.</p>\n                <p>You will receive feedback at the end of the block.</p>\n            ","response":0,"trial_type":"html-button-response","trial_index":6,"time_elapsed":3196827,"internal_node_id":"0.0-5.0","params":{"nStudents":24,"maxFlips":30,"completionMinutes":45,"basePay":8,"maxBonus":9,"perTrialBonus":0.5,"perTrialBonusThreshold":0.1,"exampleCost":0.01},"classroomParams":{"A":{"a":1,"b":4},"B":{"a":4,"b":1},"C":{"a":2,"b":8},"D":{"a":8,"b":2}},"conditions":["nonSeqFull","nonSeqPartial","seqNoFeedback","seqFeedback"],"classroomPairings":[["A","B"],["C","D"]],"coinWeights":[0.2,0.5,0.8],"subjectId":"AMV1E7FFPVAW4","assignmentId":"34BBWHLWHBXFTCZCVCM92RYAAH0IW3","hitId":"3YGE63DIN8J20XK20KS1742RQF60WK","url":"https://gershmanlab.com/experiments/alicia/teaching/experiment/?hitId=3YGE63DIN8J20XK20KS1742RQF60WK&workerId=AMV1E7FFPVAW4&assignmentId=34BBWHLWHBXFTCZCVCM92RYAAH0IW3&a=WWB48&tp_a=WWB48&b=34BBWHLWHBXFTCZCVCM92RYAAH0IW3&tp_b=34BBWHLWHBXFTCZCVCM92RYAAH0IW3&c=365198&tp_c=365198"},{"rt":75934,"response":{"heads":"4","tails":"4"},"type":"response","condition":"seqNoFeedback","trueTheta":0.2,"classrooms":["C","D"],"studentTrueClassroom":"D","exampleSet":"first","trial_type":"survey-html-form","trial_index":7,"time_elapsed":3272762,"internal_node_id":"0.0-6.0-0.0","params":{"nStudents":24,"maxFlips":30,"completionMinutes":45,"basePay":8,"maxBonus":9,"perTrialBonus":0.5,"perTrialBonusThreshold":0.1,"exampleCost":0.01},"classroomParams":{"A":{"a":1,"b":4},"B":{"a":4,"b":1},"C":{"a":2,"b":8},"D":{"a":8,"b":2}},"conditions":["nonSeqFull","nonSeqPartial","seqNoFeedback","seqFeedback"],"classroomPairings":[["A","B"],["C","D"]],"coinWeights":[0.2,0.5,0.8],"subjectId":"AMV1E7FFPVAW4","assignmentId":"34BBWHLWHBXFTCZCVCM92RYAAH0IW3","hitId":"3YGE63DIN8J20XK20KS1742RQF60WK","url":"https://gershmanlab.com/experiments/alicia/teaching/experiment/?hitId=3YGE63DIN8J20XK20KS1742RQF60WK&workerId=AMV1E7FFPVAW4&assignmentId=34BBWHLWHBXFTCZCVCM92RYAAH0IW3&a=WWB48&tp_a=WWB48&b=34BBWHLWHBXFTCZCVCM92RYAAH0IW3&tp_b=34BBWHLWHBXFTCZCVCM92RYAAH0IW3&c=365198&tp_c=365198","heads":4,"tails":4,"studentIndex":0,"studentTrueHypers":{"a":8,"b":2},"studentGuess":0.6666666666666666,"delta":0.4666666666666666,"totalExamples":8,"bonusSoFar":0},{"rt":null,"stimulus":"Sending examples to student... ","response":null,"trial_type":"html-keyboard-response","trial_index":8,"time_elapsed":3274767,"internal_node_id":"0.0-7.0","params":{"nStudents":24,"maxFlips":30,"completionMinutes":45,"basePay":8,"maxBonus":9,"perTrialBonus":0.5,"perTrialBonusThreshold":0.1,"exampleCost":0.01},"classroomParams":{"A":{"a":1,"b":4},"B":{"a":4,"b":1},"C":{"a":2,"b":8},"D":{"a":8,"b":2}},"conditions":["nonSeqFull","nonSeqPartial","seqNoFeedback","seqFeedback"],"classroomPairings":[["A","B"],["C","D"]],"coinWeights":[0.2,0.5,0.8],"subjectId":"AMV1E7FFPVAW4","assignmentId":"34BBWHLWHBXFTCZCVCM92RYAAH0IW3","hitId":"3YGE63DIN8J20XK20KS1742RQF60WK","url":"https://gershmanlab.com/experiments/alicia/teaching/experiment/?hitId=3YGE63DIN8J20XK20KS1742RQF60WK&workerId=AMV1E7FFPVAW4&assignmentId=34BBWHLWHBXFTCZCVCM92RYAAH0IW3&a=WWB48&tp_a=WWB48&b=34BBWHLWHBXFTCZCVCM92RYAAH0IW3&tp_b=34BBWHLWHBXFTCZCVCM92RYAAH0IW3&c=365198&tp_c=365198"},{"rt":null,"stimulus":"Examples sent to student! Waiting for student...","response":null,"trial_type":"html-keyboard-response","trial_index":9,"time_elapsed":3279271,"internal_node_id":"0.0-8.0","params":{"nStudents":24,"maxFlips":30,"completionMinutes":45,"basePay":8,"maxBonus":9,"perTrialBonus":0.5,"perTrialBonusThreshold":0.1,"exampleCost":0.01},"classroomParams":{"A":{"a":1,"b":4},"B":{"a":4,"b":1},"C":{"a":2,"b":8},"D":{"a":8,"b":2}},"conditions":["nonSeqFull","nonSeqPartial","seqNoFeedback","seqFeedback"],"classroomPairings":[["A","B"],["C","D"]],"coinWeights":[0.2,0.5,0.8],"subjectId":"AMV1E7FFPVAW4","assignmentId":"34BBWHLWHBXFTCZCVCM92RYAAH0IW3","hitId":"3YGE63DIN8J20XK20KS1742RQF60WK","url":"https://gershmanlab.com/experiments/alicia/teaching/experiment/?hitId=3YGE63DIN8J20XK20KS1742RQF60WK&workerId=AMV1E7FFPVAW4&assignmentId=34BBWHLWHBXFTCZCVCM92RYAAH0IW3&a=WWB48&tp_a=WWB48&b=34BBWHLWHBXFTCZCVCM92RYAAH0IW3&tp_b=34BBWHLWHBXFTCZCVCM92RYAAH0IW3&c=365198&tp_c=365198"},{"rt":24934,"response":{"heads":"2","tails":"8"},"type":"response","condition":"seqNoFeedback","trueTheta":0.2,"classrooms":["C","D"],"studentTrueClassroom":"D","exampleSet":"second","trial_type":"survey-html-form","trial_index":10,"time_elapsed":3304209,"internal_node_id":"0.0-9.0-0.0","params":{"nStudents":24,"maxFlips":30,"completionMinutes":45,"basePay":8,"maxBonus":9,"perTrialBonus":0.5,"perTrialBonusThreshold":0.1,"exampleCost":0.01},"classroomParams":{"A":{"a":1,"b":4},"B":{"a":4,"b":1},"C":{"a":2,"b":8},"D":{"a":8,"b":2}},"conditions":["nonSeqFull","nonSeqPartial","seqNoFeedback","seqFeedback"],"classroomPairings":[["A","B"],["C","D"]],"coinWeights":[0.2,0.5,0.8],"subjectId":"AMV1E7FFPVAW4","assignmentId":"34BBWHLWHBXFTCZCVCM92RYAAH0IW3","hitId":"3YGE63DIN8J20XK20KS1742RQF60WK","url":"https://gershmanlab.com/experiments/alicia/teaching/experiment/?hitId=3YGE63DIN8J20XK20KS1742RQF60WK&workerId=AMV1E7FFPVAW4&assignmentId=34BBWHLWHBXFTCZCVCM92RYAAH0IW3&a=WWB48&tp_a=WWB48&b=34BBWHLWHBXFTCZCVCM92RYAAH0IW3&tp_b=34BBWHLWHBXFTCZCVCM92RYAAH0IW3&c=365198&tp_c=365198","firstResponseHeads":4,"firstResponseTails":4,"secondResponseHeads":2,"secondResponseTails":8,"studentIndex":0,"studentTrueHypers":{"a":8,"b":2},"studentGuess":0.5,"delta":0.3,"bonus":0,"bonusSoFar":0,"totalExamples":18},{"rt":null,"stimulus":"Sending examples to student... ","response":null,"trial_type":"html-keyboard-response","trial_index":11,"time_elapsed":3305711,"internal_node_id":"0.0-10.0","params":{"nStudents":24,"maxFlips":30,"completionMinutes":45,"basePay":8,"maxBonus":9,"perTrialBonus":0.5,"perTrialBonusThreshold":0.1,"exampleCost":0.01},"classroomParams":{"A":{"a":1,"b":4},"B":{"a":4,"b":1},"C":{"a":2,"b":8},"D":{"a":8,"b":2}},"conditions":["nonSeqFull","nonSeqPartial","seqNoFeedback","seqFeedback"],"classroomPairings":[["A","B"],["C","D"]],"coinWeights":[0.2,0.5,0.8],"subjectId":"AMV1E7FFPVAW4","assignmentId":"34BBWHLWHBXFTCZCVCM92RYAAH0IW3","hitId":"3YGE63DIN8J20XK20KS1742RQF60WK","url":"https://gershmanlab.com/experiments/alicia/teaching/experiment/?hitId=3YGE63DIN8J20XK20KS1742RQF60WK&workerId=AMV1E7FFPVAW4&assignmentId=34BBWHLWHBXFTCZCVCM92RYAAH0IW3&a=WWB48&tp_a=WWB48&b=34BBWHLWHBXFTCZCVCM92RYAAH0IW3&tp_b=34BBWHLWHBXFTCZCVCM92RYAAH0IW3&c=365198&tp_c=365198"},{"rt":null,"stimulus":"Examples sent to student! Waiting for student...","response":null,"trial_type":"html-keyboard-response","trial_index":12,"time_elapsed":3311714,"internal_node_id":"0.0-11.0","params":{"nStudents":24,"maxFlips":30,"completionMinutes":45,"basePay":8,"maxBonus":9,"perTrialBonus":0.5,"perTrialBonusThreshold":0.1,"exampleCost":0.01},"classroomParams":{"A":{"a":1,"b":4},"B":{"a":4,"b":1},"C":{"a":2,"b":8},"D":{"a":8,"b":2}},"conditions":["nonSeqFull","nonSeqPartial","seqNoFeedback","seqFeedback"],"classroomPairings":[["A","B"],["C","D"]],"coinWeights":[0.2,0.5,0.8],"subjectId":"AMV1E7FFPVAW4","assignmentId":"34BBWHLWHBXFTCZCVCM92RYAAH0IW3","hitId":"3YGE63DIN8J20XK20KS1742RQF60WK","url":"https://gershmanlab.com/experiments/alicia/teaching/experiment/?hitId=3YGE63DIN8J20XK20KS1742RQF60WK&workerId=AMV1E7FFPVAW4&assignmentId=34BBWHLWHBXFTCZCVCM92RYAAH0IW3&a=WWB48&tp_a=WWB48&b=34BBWHLWHBXFTCZCVCM92RYAAH0IW3&tp_b=34BBWHLWHBXFTCZCVCM92RYAAH0IW3&c=365198&tp_c=365198"},{"rt":8080,"stimulus":"\n                <p>Student 1's first guess for coin weight: <b style=\"color:Tomato\";>0.67</b></p>\n                <p>Student 1's second guess for coin weight: <b style=\"color:Tomato\";>0.50</b></p>\n                <p>You received a bonus of <b>$0.00</b> based on the student's second guess.</p>\n                <p>Total bonus so far: <b>$0.00</b></p>\n                <p>Press any key to continue.</p>\n                ","response":"enter","trial_type":"html-keyboard-response","trial_index":13,"time_elapsed":3319800,"internal_node_id":"0.0-12.0","params":{"nStudents":24,"maxFlips":30,"completionMinutes":45,"basePay":8,"maxBonus":9,"perTrialBonus":0.5,"perTrialBonusThreshold":0.1,"exampleCost":0.01},"classroomParams":{"A":{"a":1,"b":4},"B":{"a":4,"b":1},"C":{"a":2,"b":8},"D":{"a":8,"b":2}},"conditions":["nonSeqFull","nonSeqPartial","seqNoFeedback","seqFeedback"],"classroomPairings":[["A","B"],["C","D"]],"coinWeights":[0.2,0.5,0.8],"subjectId":"AMV1E7FFPVAW4","assignmentId":"34BBWHLWHBXFTCZCVCM92RYAAH0IW3","hitId":"3YGE63DIN8J20XK20KS1742RQF60WK","url":"https://gershmanlab.com/experiments/alicia/teaching/experiment/?hitId=3YGE63DIN8J20XK20KS1742RQF60WK&workerId=AMV1E7FFPVAW4&assignmentId=34BBWHLWHBXFTCZCVCM92RYAAH0IW3&a=WWB48&tp_a=WWB48&b=34BBWHLWHBXFTCZCVCM92RYAAH0IW3&tp_b=34BBWHLWHBXFTCZCVCM92RYAAH0IW3&c=365198&tp_c=365198"},{"rt":null,"stimulus":"<div style=\"font-size:60px;\">Next student</div>","response":null,"trial_type":"html-keyboard-response","trial_index":14,"time_elapsed":3322053,"internal_node_id":"0.0-13.0-0.0","params":{"nStudents":24,"maxFlips":30,"completionMinutes":45,"basePay":8,"maxBonus":9,"perTrialBonus":0.5,"perTrialBonusThreshold":0.1,"exampleCost":0.01},"classroomParams":{"A":{"a":1,"b":4},"B":{"a":4,"b":1},"C":{"a":2,"b":8},"D":{"a":8,"b":2}},"conditions":["nonSeqFull","nonSeqPartial","seqNoFeedback","seqFeedback"],"classroomPairings":[["A","B"],["C","D"]],"coinWeights":[0.2,0.5,0.8],"subjectId":"AMV1E7FFPVAW4","assignmentId":"34BBWHLWHBXFTCZCVCM92RYAAH0IW3","hitId":"3YGE63DIN8J20XK20KS1742RQF60WK","url":"https://gershmanlab.com/experiments/alicia/teaching/experiment/?hitId=3YGE63DIN8J20XK20KS1742RQF60WK&workerId=AMV1E7FFPVAW4&assignmentId=34BBWHLWHBXFTCZCVCM92RYAAH0IW3&a=WWB48&tp_a=WWB48&b=34BBWHLWHBXFTCZCVCM92RYAAH0IW3&tp_b=34BBWHLWHBXFTCZCVCM92RYAAH0IW3&c=365198&tp_c=365198"},{"rt":2187,"stimulus":"\n            <h4 style=\"color:Orange;\">Student 2</h4>\n            <h2>The weight of your coin is <b style=\"color:Tomato;\">0.8</b>.</h2>\n            <p>In this block, you will be giving <b>one</b> set of examples to Student 2.</p>\n                <p>You will receive feedback at the end of the block.</p>\n            ","response":0,"trial_type":"html-button-response","trial_index":15,"time_elapsed":3324244,"internal_node_id":"0.0-14.0","params":{"nStudents":24,"maxFlips":30,"completionMinutes":45,"basePay":8,"maxBonus":9,"perTrialBonus":0.5,"perTrialBonusThreshold":0.1,"exampleCost":0.01},"classroomParams":{"A":{"a":1,"b":4},"B":{"a":4,"b":1},"C":{"a":2,"b":8},"D":{"a":8,"b":2}},"conditions":["nonSeqFull","nonSeqPartial","seqNoFeedback","seqFeedback"],"classroomPairings":[["A","B"],["C","D"]],"coinWeights":[0.2,0.5,0.8],"subjectId":"AMV1E7FFPVAW4","assignmentId":"34BBWHLWHBXFTCZCVCM92RYAAH0IW3","hitId":"3YGE63DIN8J20XK20KS1742RQF60WK","url":"https://gershmanlab.com/experiments/alicia/teaching/experiment/?hitId=3YGE63DIN8J20XK20KS1742RQF60WK&workerId=AMV1E7FFPVAW4&assignmentId=34BBWHLWHBXFTCZCVCM92RYAAH0IW3&a=WWB48&tp_a=WWB48&b=34BBWHLWHBXFTCZCVCM92RYAAH0IW3&tp_b=34BBWHLWHBXFTCZCVCM92RYAAH0IW3&c=365198&tp_c=365198"},{"rt":31474,"response":{"heads":"8","tails":"2"},"type":"response","condition":"nonSeqFull","trueTheta":0.8,"classrooms":["A","B"],"studentTrueClassroom":"B","exampleSet":"first","trial_type":"survey-html-form","trial_index":16,"time_elapsed":3355720,"internal_node_id":"0.0-15.0-0.0","params":{"nStudents":24,"maxFlips":30,"completionMinutes":45,"basePay":8,"maxBonus":9,"perTrialBonus":0.5,"perTrialBonusThreshold":0.1,"exampleCost":0.01},"classroomParams":{"A":{"a":1,"b":4},"B":{"a":4,"b":1},"C":{"a":2,"b":8},"D":{"a":8,"b":2}},"conditions":["nonSeqFull","nonSeqPartial","seqNoFeedback","seqFeedback"],"classroomPairings":[["A","B"],["C","D"]],"coinWeights":[0.2,0.5,0.8],"subjectId":"AMV1E7FFPVAW4","assignmentId":"34BBWHLWHBXFTCZCVCM92RYAAH0IW3","hitId":"3YGE63DIN8J20XK20KS1742RQF60WK","url":"https://gershmanlab.com/experiments/alicia/teaching/experiment/?hitId=3YGE63DIN8J20XK20KS1742RQF60WK&workerId=AMV1E7FFPVAW4&assignmentId=34BBWHLWHBXFTCZCVCM92RYAAH0IW3&a=WWB48&tp_a=WWB48&b=34BBWHLWHBXFTCZCVCM92RYAAH0IW3&tp_b=34BBWHLWHBXFTCZCVCM92RYAAH0IW3&c=365198&tp_c=365198","heads":8,"tails":2,"studentIndex":1,"studentTrueHypers":{"a":4,"b":1},"studentGuess":0.8,"delta":0,"totalExamples":10,"bonus":0.4,"bonusSoFar":0.4},{"rt":null,"stimulus":"Sending examples to student... ","response":null,"trial_type":"html-keyboard-response","trial_index":17,"time_elapsed":3356972,"internal_node_id":"0.0-16.0","params":{"nStudents":24,"maxFlips":30,"completionMinutes":45,"basePay":8,"maxBonus":9,"perTrialBonus":0.5,"perTrialBonusThreshold":0.1,"exampleCost":0.01},"classroomParams":{"A":{"a":1,"b":4},"B":{"a":4,"b":1},"C":{"a":2,"b":8},"D":{"a":8,"b":2}},"conditions":["nonSeqFull","nonSeqPartial","seqNoFeedback","seqFeedback"],"classroomPairings":[["A","B"],["C","D"]],"coinWeights":[0.2,0.5,0.8],"subjectId":"AMV1E7FFPVAW4","assignmentId":"34BBWHLWHBXFTCZCVCM92RYAAH0IW3","hitId":"3YGE63DIN8J20XK20KS1742RQF60WK","url":"https://gershmanlab.com/experiments/alicia/teaching/experiment/?hitId=3YGE63DIN8J20XK20KS1742RQF60WK&workerId=AMV1E7FFPVAW4&assignmentId=34BBWHLWHBXFTCZCVCM92RYAAH0IW3&a=WWB48&tp_a=WWB48&b=34BBWHLWHBXFTCZCVCM92RYAAH0IW3&tp_b=34BBWHLWHBXFTCZCVCM92RYAAH0IW3&c=365198&tp_c=365198"},{"rt":null,"stimulus":"Examples sent to student! Waiting for student...","response":null,"trial_type":"html-keyboard-response","trial_index":18,"time_elapsed":3362975,"internal_node_id":"0.0-17.0","params":{"nStudents":24,"maxFlips":30,"completionMinutes":45,"basePay":8,"maxBonus":9,"perTrialBonus":0.5,"perTrialBonusThreshold":0.1,"exampleCost":0.01},"classroomParams":{"A":{"a":1,"b":4},"B":{"a":4,"b":1},"C":{"a":2,"b":8},"D":{"a":8,"b":2}},"conditions":["nonSeqFull","nonSeqPartial","seqNoFeedback","seqFeedback"],"classroomPairings":[["A","B"],["C","D"]],"coinWeights":[0.2,0.5,0.8],"subjectId":"AMV1E7FFPVAW4","assignmentId":"34BBWHLWHBXFTCZCVCM92RYAAH0IW3","hitId":"3YGE63DIN8J20XK20KS1742RQF60WK","url":"https://gershmanlab.com/experiments/alicia/teaching/experiment/?hitId=3YGE63DIN8J20XK20KS1742RQF60WK&workerId=AMV1E7FFPVAW4&assignmentId=34BBWHLWHBXFTCZCVCM92RYAAH0IW3&a=WWB48&tp_a=WWB48&b=34BBWHLWHBXFTCZCVCM92RYAAH0IW3&tp_b=34BBWHLWHBXFTCZCVCM92RYAAH0IW3&c=365198&tp_c=365198"},{"rt":3433,"stimulus":"\n                <p>Student's guess for coin weight: <b style=\"color:Tomato;\">0.80</b></p>\n                <p>You received a bonus of <b>$0.4</b>. Total bonus so far: <b>$0.40</b></b></p>\n                <p> Press any key to continue.</p>\n                ","response":"enter","trial_type":"html-keyboard-response","trial_index":19,"time_elapsed":3366411,"internal_node_id":"0.0-18.0","params":{"nStudents":24,"maxFlips":30,"completionMinutes":45,"basePay":8,"maxBonus":9,"perTrialBonus":0.5,"perTrialBonusThreshold":0.1,"exampleCost":0.01},"classroomParams":{"A":{"a":1,"b":4},"B":{"a":4,"b":1},"C":{"a":2,"b":8},"D":{"a":8,"b":2}},"conditions":["nonSeqFull","nonSeqPartial","seqNoFeedback","seqFeedback"],"classroomPairings":[["A","B"],["C","D"]],"coinWeights":[0.2,0.5,0.8],"subjectId":"AMV1E7FFPVAW4","assignmentId":"34BBWHLWHBXFTCZCVCM92RYAAH0IW3","hitId":"3YGE63DIN8J20XK20KS1742RQF60WK","url":"https://gershmanlab.com/experiments/alicia/teaching/experiment/?hitId=3YGE63DIN8J20XK20KS1742RQF60WK&workerId=AMV1E7FFPVAW4&assignmentId=34BBWHLWHBXFTCZCVCM92RYAAH0IW3&a=WWB48&tp_a=WWB48&b=34BBWHLWHBXFTCZCVCM92RYAAH0IW3&tp_b=34BBWHLWHBXFTCZCVCM92RYAAH0IW3&c=365198&tp_c=365198"},{"rt":null,"stimulus":"<div style=\"font-size:60px;\">Next student</div>","response":null,"trial_type":"html-keyboard-response","trial_index":20,"time_elapsed":3368914,"internal_node_id":"0.0-19.0-0.0","params":{"nStudents":24,"maxFlips":30,"completionMinutes":45,"basePay":8,"maxBonus":9,"perTrialBonus":0.5,"perTrialBonusThreshold":0.1,"exampleCost":0.01},"classroomParams":{"A":{"a":1,"b":4},"B":{"a":4,"b":1},"C":{"a":2,"b":8},"D":{"a":8,"b":2}},"conditions":["nonSeqFull","nonSeqPartial","seqNoFeedback","seqFeedback"],"classroomPairings":[["A","B"],["C","D"]],"coinWeights":[0.2,0.5,0.8],"subjectId":"AMV1E7FFPVAW4","assignmentId":"34BBWHLWHBXFTCZCVCM92RYAAH0IW3","hitId":"3YGE63DIN8J20XK20KS1742RQF60WK","url":"https://gershmanlab.com/experiments/alicia/teaching/experiment/?hitId=3YGE63DIN8J20XK20KS1742RQF60WK&workerId=AMV1E7FFPVAW4&assignmentId=34BBWHLWHBXFTCZCVCM92RYAAH0IW3&a=WWB48&tp_a=WWB48&b=34BBWHLWHBXFTCZCVCM92RYAAH0IW3&tp_b=34BBWHLWHBXFTCZCVCM92RYAAH0IW3&c=365198&tp_c=365198"},{"rt":1225,"stimulus":"\n            <h4 style=\"color:Orange;\">Student 3</h4>\n            <h2>The weight of your coin is <b style=\"color:Tomato;\">0.5</b>.</h2>\n            <p>In this block, you will be giving <b>two</b> sets of examples to Student 3.</p>\n                <p>You will receive feedback at the end of the block.</p>\n            ","response":0,"trial_type":"html-button-response","trial_index":21,"time_elapsed":3370142,"internal_node_id":"0.0-20.0","params":{"nStudents":24,"maxFlips":30,"completionMinutes":45,"basePay":8,"maxBonus":9,"perTrialBonus":0.5,"perTrialBonusThreshold":0.1,"exampleCost":0.01},"classroomParams":{"A":{"a":1,"b":4},"B":{"a":4,"b":1},"C":{"a":2,"b":8},"D":{"a":8,"b":2}},"conditions":["nonSeqFull","nonSeqPartial","seqNoFeedback","seqFeedback"],"classroomPairings":[["A","B"],["C","D"]],"coinWeights":[0.2,0.5,0.8],"subjectId":"AMV1E7FFPVAW4","assignmentId":"34BBWHLWHBXFTCZCVCM92RYAAH0IW3","hitId":"3YGE63DIN8J20XK20KS1742RQF60WK","url":"https://gershmanlab.com/experiments/alicia/teaching/experiment/?hitId=3YGE63DIN8J20XK20KS1742RQF60WK&workerId=AMV1E7FFPVAW4&assignmentId=34BBWHLWHBXFTCZCVCM92RYAAH0IW3&a=WWB48&tp_a=WWB48&b=34BBWHLWHBXFTCZCVCM92RYAAH0IW3&tp_b=34BBWHLWHBXFTCZCVCM92RYAAH0IW3&c=365198&tp_c=365198"},{"rt":13630,"response":{"heads":"5","tails":"1"},"type":"response","condition":"seqNoFeedback","trueTheta":0.5,"classrooms":["C","D"],"studentTrueClassroom":"D","exampleSet":"first","trial_type":"survey-html-form","trial_index":22,"time_elapsed":3383773,"internal_node_id":"0.0-21.0-0.0","params":{"nStudents":24,"maxFlips":30,"completionMinutes":45,"basePay":8,"maxBonus":9,"perTrialBonus":0.5,"perTrialBonusThreshold":0.1,"exampleCost":0.01},"classroomParams":{"A":{"a":1,"b":4},"B":{"a":4,"b":1},"C":{"a":2,"b":8},"D":{"a":8,"b":2}},"conditions":["nonSeqFull","nonSeqPartial","seqNoFeedback","seqFeedback"],"classroomPairings":[["A","B"],["C","D"]],"coinWeights":[0.2,0.5,0.8],"subjectId":"AMV1E7FFPVAW4","assignmentId":"34BBWHLWHBXFTCZCVCM92RYAAH0IW3","hitId":"3YGE63DIN8J20XK20KS1742RQF60WK","url":"https://gershmanlab.com/experiments/alicia/teaching/experiment/?hitId=3YGE63DIN8J20XK20KS1742RQF60WK&workerId=AMV1E7FFPVAW4&assignmentId=34BBWHLWHBXFTCZCVCM92RYAAH0IW3&a=WWB48&tp_a=WWB48&b=34BBWHLWHBXFTCZCVCM92RYAAH0IW3&tp_b=34BBWHLWHBXFTCZCVCM92RYAAH0IW3&c=365198&tp_c=365198","heads":5,"tails":1,"studentIndex":2,"studentTrueHypers":{"a":8,"b":2},"studentGuess":0.8125,"delta":0.3125,"totalExamples":6,"bonusSoFar":0.4},{"rt":null,"stimulus":"Sending examples to student... ","response":null,"trial_type":"html-keyboard-response","trial_index":23,"time_elapsed":3385276,"internal_node_id":"0.0-22.0","params":{"nStudents":24,"maxFlips":30,"completionMinutes":45,"basePay":8,"maxBonus":9,"perTrialBonus":0.5,"perTrialBonusThreshold":0.1,"exampleCost":0.01},"classroomParams":{"A":{"a":1,"b":4},"B":{"a":4,"b":1},"C":{"a":2,"b":8},"D":{"a":8,"b":2}},"conditions":["nonSeqFull","nonSeqPartial","seqNoFeedback","seqFeedback"],"classroomPairings":[["A","B"],["C","D"]],"coinWeights":[0.2,0.5,0.8],"subjectId":"AMV1E7FFPVAW4","assignmentId":"34BBWHLWHBXFTCZCVCM92RYAAH0IW3","hitId":"3YGE63DIN8J20XK20KS1742RQF60WK","url":"https://gershmanlab.com/experiments/alicia/teaching/experiment/?hitId=3YGE63DIN8J20XK20KS1742RQF60WK&workerId=AMV1E7FFPVAW4&assignmentId=34BBWHLWHBXFTCZCVCM92RYAAH0IW3&a=WWB48&tp_a=WWB48&b=34BBWHLWHBXFTCZCVCM92RYAAH0IW3&tp_b=34BBWHLWHBXFTCZCVCM92RYAAH0IW3&c=365198&tp_c=365198"},{"rt":null,"stimulus":"Examples sent to student! Waiting for student...","response":null,"trial_type":"html-keyboard-response","trial_index":24,"time_elapsed":3389280,"internal_node_id":"0.0-23.0","params":{"nStudents":24,"maxFlips":30,"completionMinutes":45,"basePay":8,"maxBonus":9,"perTrialBonus":0.5,"perTrialBonusThreshold":0.1,"exampleCost":0.01},"classroomParams":{"A":{"a":1,"b":4},"B":{"a":4,"b":1},"C":{"a":2,"b":8},"D":{"a":8,"b":2}},"conditions":["nonSeqFull","nonSeqPartial","seqNoFeedback","seqFeedback"],"classroomPairings":[["A","B"],["C","D"]],"coinWeights":[0.2,0.5,0.8],"subjectId":"AMV1E7FFPVAW4","assignmentId":"34BBWHLWHBXFTCZCVCM92RYAAH0IW3","hitId":"3YGE63DIN8J20XK20KS1742RQF60WK","url":"https://gershmanlab.com/experiments/alicia/teaching/experiment/?hitId=3YGE63DIN8J20XK20KS1742RQF60WK&workerId=AMV1E7FFPVAW4&assignmentId=34BBWHLWHBXFTCZCVCM92RYAAH0IW3&a=WWB48&tp_a=WWB48&b=34BBWHLWHBXFTCZCVCM92RYAAH0IW3&tp_b=34BBWHLWHBXFTCZCVCM92RYAAH0IW3&c=365198&tp_c=365198"},{"rt":8551,"response":{"heads":"5","tails":"0"},"type":"response","condition":"seqNoFeedback","trueTheta":0.5,"classrooms":["C","D"],"studentTrueClassroom":"D","exampleSet":"second","trial_type":"survey-html-form","trial_index":25,"time_elapsed":3397834,"internal_node_id":"0.0-24.0-0.0","params":{"nStudents":24,"maxFlips":30,"completionMinutes":45,"basePay":8,"maxBonus":9,"perTrialBonus":0.5,"perTrialBonusThreshold":0.1,"exampleCost":0.01},"classroomParams":{"A":{"a":1,"b":4},"B":{"a":4,"b":1},"C":{"a":2,"b":8},"D":{"a":8,"b":2}},"conditions":["nonSeqFull","nonSeqPartial","seqNoFeedback","seqFeedback"],"classroomPairings":[["A","B"],["C","D"]],"coinWeights":[0.2,0.5,0.8],"subjectId":"AMV1E7FFPVAW4","assignmentId":"34BBWHLWHBXFTCZCVCM92RYAAH0IW3","hitId":"3YGE63DIN8J20XK20KS1742RQF60WK","url":"https://gershmanlab.com/experiments/alicia/teaching/experiment/?hitId=3YGE63DIN8J20XK20KS1742RQF60WK&workerId=AMV1E7FFPVAW4&assignmentId=34BBWHLWHBXFTCZCVCM92RYAAH0IW3&a=WWB48&tp_a=WWB48&b=34BBWHLWHBXFTCZCVCM92RYAAH0IW3&tp_b=34BBWHLWHBXFTCZCVCM92RYAAH0IW3&c=365198&tp_c=365198","firstResponseHeads":5,"firstResponseTails":1,"secondResponseHeads":5,"secondResponseTails":0,"studentIndex":2,"studentTrueHypers":{"a":8,"b":2},"studentGuess":0.8571428571428571,"delta":0.3571428571428571,"bonus":0,"bonusSoFar":0.4,"totalExamples":11},{"rt":null,"stimulus":"Sending examples to student... ","response":null,"trial_type":"html-keyboard-response","trial_index":26,"time_elapsed":3399336,"internal_node_id":"0.0-25.0","params":{"nStudents":24,"maxFlips":30,"completionMinutes":45,"basePay":8,"maxBonus":9,"perTrialBonus":0.5,"perTrialBonusThreshold":0.1,"exampleCost":0.01},"classroomParams":{"A":{"a":1,"b":4},"B":{"a":4,"b":1},"C":{"a":2,"b":8},"D":{"a":8,"b":2}},"conditions":["nonSeqFull","nonSeqPartial","seqNoFeedback","seqFeedback"],"classroomPairings":[["A","B"],["C","D"]],"coinWeights":[0.2,0.5,0.8],"subjectId":"AMV1E7FFPVAW4","assignmentId":"34BBWHLWHBXFTCZCVCM92RYAAH0IW3","hitId":"3YGE63DIN8J20XK20KS1742RQF60WK","url":"https://gershmanlab.com/experiments/alicia/teaching/experiment/?hitId=3YGE63DIN8J20XK20KS1742RQF60WK&workerId=AMV1E7FFPVAW4&assignmentId=34BBWHLWHBXFTCZCVCM92RYAAH0IW3&a=WWB48&tp_a=WWB48&b=34BBWHLWHBXFTCZCVCM92RYAAH0IW3&tp_b=34BBWHLWHBXFTCZCVCM92RYAAH0IW3&c=365198&tp_c=365198"},{"rt":null,"stimulus":"Examples sent to student! Waiting for student...","response":null,"trial_type":"html-keyboard-response","trial_index":27,"time_elapsed":3403339,"internal_node_id":"0.0-26.0","params":{"nStudents":24,"maxFlips":30,"completionMinutes":45,"basePay":8,"maxBonus":9,"perTrialBonus":0.5,"perTrialBonusThreshold":0.1,"exampleCost":0.01},"classroomParams":{"A":{"a":1,"b":4},"B":{"a":4,"b":1},"C":{"a":2,"b":8},"D":{"a":8,"b":2}},"conditions":["nonSeqFull","nonSeqPartial","seqNoFeedback","seqFeedback"],"classroomPairings":[["A","B"],["C","D"]],"coinWeights":[0.2,0.5,0.8],"subjectId":"AMV1E7FFPVAW4","assignmentId":"34BBWHLWHBXFTCZCVCM92RYAAH0IW3","hitId":"3YGE63DIN8J20XK20KS1742RQF60WK","url":"https://gershmanlab.com/experiments/alicia/teaching/experiment/?hitId=3YGE63DIN8J20XK20KS1742RQF60WK&workerId=AMV1E7FFPVAW4&assignmentId=34BBWHLWHBXFTCZCVCM92RYAAH0IW3&a=WWB48&tp_a=WWB48&b=34BBWHLWHBXFTCZCVCM92RYAAH0IW3&tp_b=34BBWHLWHBXFTCZCVCM92RYAAH0IW3&c=365198&tp_c=365198"},{"rt":3300,"stimulus":"\n                <p>Student 3's first guess for coin weight: <b style=\"color:Tomato\";>0.81</b></p>\n                <p>Student 3's second guess for coin weight: <b style=\"color:Tomato\";>0.86</b></p>\n                <p>You received a bonus of <b>$0.00</b> based on the student's second guess.</p>\n                <p>Total bonus so far: <b>$0.40</b></p>\n                <p>Press any key to continue.</p>\n                ","response":"enter","trial_type":"html-keyboard-response","trial_index":28,"time_elapsed":3406641,"internal_node_id":"0.0-27.0","params":{"nStudents":24,"maxFlips":30,"completionMinutes":45,"basePay":8,"maxBonus":9,"perTrialBonus":0.5,"perTrialBonusThreshold":0.1,"exampleCost":0.01},"classroomParams":{"A":{"a":1,"b":4},"B":{"a":4,"b":1},"C":{"a":2,"b":8},"D":{"a":8,"b":2}},"conditions":["nonSeqFull","nonSeqPartial","seqNoFeedback","seqFeedback"],"classroomPairings":[["A","B"],["C","D"]],"coinWeights":[0.2,0.5,0.8],"subjectId":"AMV1E7FFPVAW4","assignmentId":"34BBWHLWHBXFTCZCVCM92RYAAH0IW3","hitId":"3YGE63DIN8J20XK20KS1742RQF60WK","url":"https://gershmanlab.com/experiments/alicia/teaching/experiment/?hitId=3YGE63DIN8J20XK20KS1742RQF60WK&workerId=AMV1E7FFPVAW4&assignmentId=34BBWHLWHBXFTCZCVCM92RYAAH0IW3&a=WWB48&tp_a=WWB48&b=34BBWHLWHBXFTCZCVCM92RYAAH0IW3&tp_b=34BBWHLWHBXFTCZCVCM92RYAAH0IW3&c=365198&tp_c=365198"},{"rt":null,"stimulus":"<div style=\"font-size:60px;\">Next student</div>","response":null,"trial_type":"html-keyboard-response","trial_index":29,"time_elapsed":3408893,"internal_node_id":"0.0-28.0-0.0","params":{"nStudents":24,"maxFlips":30,"completionMinutes":45,"basePay":8,"maxBonus":9,"perTrialBonus":0.5,"perTrialBonusThreshold":0.1,"exampleCost":0.01},"classroomParams":{"A":{"a":1,"b":4},"B":{"a":4,"b":1},"C":{"a":2,"b":8},"D":{"a":8,"b":2}},"conditions":["nonSeqFull","nonSeqPartial","seqNoFeedback","seqFeedback"],"classroomPairings":[["A","B"],["C","D"]],"coinWeights":[0.2,0.5,0.8],"subjectId":"AMV1E7FFPVAW4","assignmentId":"34BBWHLWHBXFTCZCVCM92RYAAH0IW3","hitId":"3YGE63DIN8J20XK20KS1742RQF60WK","url":"https://gershmanlab.com/experiments/alicia/teaching/experiment/?hitId=3YGE63DIN8J20XK20KS1742RQF60WK&workerId=AMV1E7FFPVAW4&assignmentId=34BBWHLWHBXFTCZCVCM92RYAAH0IW3&a=WWB48&tp_a=WWB48&b=34BBWHLWHBXFTCZCVCM92RYAAH0IW3&tp_b=34BBWHLWHBXFTCZCVCM92RYAAH0IW3&c=365198&tp_c=365198"},{"rt":1578,"stimulus":"\n            <h4 style=\"color:Orange;\">Student 4</h4>\n            <h2>The weight of your coin is <b style=\"color:Tomato;\">0.2</b>.</h2>\n            <p>In this block, you will be giving <b>two</b> sets of examples to Student 4.</p>\n                <p>You will see the student's guess after the first set of examples. You will also receive feedback at the end of the block.</p>\n            ","response":0,"trial_type":"html-button-response","trial_index":30,"time_elapsed":3410473,"internal_node_id":"0.0-29.0","params":{"nStudents":24,"maxFlips":30,"completionMinutes":45,"basePay":8,"maxBonus":9,"perTrialBonus":0.5,"perTrialBonusThreshold":0.1,"exampleCost":0.01},"classroomParams":{"A":{"a":1,"b":4},"B":{"a":4,"b":1},"C":{"a":2,"b":8},"D":{"a":8,"b":2}},"conditions":["nonSeqFull","nonSeqPartial","seqNoFeedback","seqFeedback"],"classroomPairings":[["A","B"],["C","D"]],"coinWeights":[0.2,0.5,0.8],"subjectId":"AMV1E7FFPVAW4","assignmentId":"34BBWHLWHBXFTCZCVCM92RYAAH0IW3","hitId":"3YGE63DIN8J20XK20KS1742RQF60WK","url":"https://gershmanlab.com/experiments/alicia/teaching/experiment/?hitId=3YGE63DIN8J20XK20KS1742RQF60WK&workerId=AMV1E7FFPVAW4&assignmentId=34BBWHLWHBXFTCZCVCM92RYAAH0IW3&a=WWB48&tp_a=WWB48&b=34BBWHLWHBXFTCZCVCM92RYAAH0IW3&tp_b=34BBWHLWHBXFTCZCVCM92RYAAH0IW3&c=365198&tp_c=365198"},{"rt":3937,"response":{"heads":"2","tails":"0"},"type":"response","condition":"seqFeedback","trueTheta":0.2,"classrooms":["C","D"],"studentTrueClassroom":"D","exampleSet":"first","trial_type":"survey-html-form","trial_index":31,"time_elapsed":3414411,"internal_node_id":"0.0-30.0-0.0","params":{"nStudents":24,"maxFlips":30,"completionMinutes":45,"basePay":8,"maxBonus":9,"perTrialBonus":0.5,"perTrialBonusThreshold":0.1,"exampleCost":0.01},"classroomParams":{"A":{"a":1,"b":4},"B":{"a":4,"b":1},"C":{"a":2,"b":8},"D":{"a":8,"b":2}},"conditions":["nonSeqFull","nonSeqPartial","seqNoFeedback","seqFeedback"],"classroomPairings":[["A","B"],["C","D"]],"coinWeights":[0.2,0.5,0.8],"subjectId":"AMV1E7FFPVAW4","assignmentId":"34BBWHLWHBXFTCZCVCM92RYAAH0IW3","hitId":"3YGE63DIN8J20XK20KS1742RQF60WK","url":"https://gershmanlab.com/experiments/alicia/teaching/experiment/?hitId=3YGE63DIN8J20XK20KS1742RQF60WK&workerId=AMV1E7FFPVAW4&assignmentId=34BBWHLWHBXFTCZCVCM92RYAAH0IW3&a=WWB48&tp_a=WWB48&b=34BBWHLWHBXFTCZCVCM92RYAAH0IW3&tp_b=34BBWHLWHBXFTCZCVCM92RYAAH0IW3&c=365198&tp_c=365198","heads":2,"tails":0,"studentIndex":3,"studentTrueHypers":{"a":8,"b":2},"studentGuess":0.8333333333333334,"delta":0.6333333333333333,"totalExamples":2,"bonusSoFar":0.4},{"rt":null,"stimulus":"Sending examples to student... ","response":null,"trial_type":"html-keyboard-response","trial_index":32,"time_elapsed":3415914,"internal_node_id":"0.0-31.0","params":{"nStudents":24,"maxFlips":30,"completionMinutes":45,"basePay":8,"maxBonus":9,"perTrialBonus":0.5,"perTrialBonusThreshold":0.1,"exampleCost":0.01},"classroomParams":{"A":{"a":1,"b":4},"B":{"a":4,"b":1},"C":{"a":2,"b":8},"D":{"a":8,"b":2}},"conditions":["nonSeqFull","nonSeqPartial","seqNoFeedback","seqFeedback"],"classroomPairings":[["A","B"],["C","D"]],"coinWeights":[0.2,0.5,0.8],"subjectId":"AMV1E7FFPVAW4","assignmentId":"34BBWHLWHBXFTCZCVCM92RYAAH0IW3","hitId":"3YGE63DIN8J20XK20KS1742RQF60WK","url":"https://gershmanlab.com/experiments/alicia/teaching/experiment/?hitId=3YGE63DIN8J20XK20KS1742RQF60WK&workerId=AMV1E7FFPVAW4&assignmentId=34BBWHLWHBXFTCZCVCM92RYAAH0IW3&a=WWB48&tp_a=WWB48&b=34BBWHLWHBXFTCZCVCM92RYAAH0IW3&tp_b=34BBWHLWHBXFTCZCVCM92RYAAH0IW3&c=365198&tp_c=365198"},{"rt":null,"stimulus":"Examples sent to student! Waiting for student...","response":null,"trial_type":"html-keyboard-response","trial_index":33,"time_elapsed":3419916,"internal_node_id":"0.0-32.0","params":{"nStudents":24,"maxFlips":30,"completionMinutes":45,"basePay":8,"maxBonus":9,"perTrialBonus":0.5,"perTrialBonusThreshold":0.1,"exampleCost":0.01},"classroomParams":{"A":{"a":1,"b":4},"B":{"a":4,"b":1},"C":{"a":2,"b":8},"D":{"a":8,"b":2}},"conditions":["nonSeqFull","nonSeqPartial","seqNoFeedback","seqFeedback"],"classroomPairings":[["A","B"],["C","D"]],"coinWeights":[0.2,0.5,0.8],"subjectId":"AMV1E7FFPVAW4","assignmentId":"34BBWHLWHBXFTCZCVCM92RYAAH0IW3","hitId":"3YGE63DIN8J20XK20KS1742RQF60WK","url":"https://gershmanlab.com/experiments/alicia/teaching/experiment/?hitId=3YGE63DIN8J20XK20KS1742RQF60WK&workerId=AMV1E7FFPVAW4&assignmentId=34BBWHLWHBXFTCZCVCM92RYAAH0IW3&a=WWB48&tp_a=WWB48&b=34BBWHLWHBXFTCZCVCM92RYAAH0IW3&tp_b=34BBWHLWHBXFTCZCVCM92RYAAH0IW3&c=365198&tp_c=365198"},{"rt":2575,"stimulus":"\n                <p>Student's guess for coin weight: <b style=\"color:Tomato;\">0.83</b></p>\n                <p></b></p>\n                <p>You will now send another set of examples to your student. Press any key to continue.</p>\n                ","response":"enter","trial_type":"html-keyboard-response","trial_index":34,"time_elapsed":3422494,"internal_node_id":"0.0-33.0","params":{"nStudents":24,"maxFlips":30,"completionMinutes":45,"basePay":8,"maxBonus":9,"perTrialBonus":0.5,"perTrialBonusThreshold":0.1,"exampleCost":0.01},"classroomParams":{"A":{"a":1,"b":4},"B":{"a":4,"b":1},"C":{"a":2,"b":8},"D":{"a":8,"b":2}},"conditions":["nonSeqFull","nonSeqPartial","seqNoFeedback","seqFeedback"],"classroomPairings":[["A","B"],["C","D"]],"coinWeights":[0.2,0.5,0.8],"subjectId":"AMV1E7FFPVAW4","assignmentId":"34BBWHLWHBXFTCZCVCM92RYAAH0IW3","hitId":"3YGE63DIN8J20XK20KS1742RQF60WK","url":"https://gershmanlab.com/experiments/alicia/teaching/experiment/?hitId=3YGE63DIN8J20XK20KS1742RQF60WK&workerId=AMV1E7FFPVAW4&assignmentId=34BBWHLWHBXFTCZCVCM92RYAAH0IW3&a=WWB48&tp_a=WWB48&b=34BBWHLWHBXFTCZCVCM92RYAAH0IW3&tp_b=34BBWHLWHBXFTCZCVCM92RYAAH0IW3&c=365198&tp_c=365198"},{"rt":3599,"response":{"heads":"2","tails":"0"},"type":"response","condition":"seqFeedback","trueTheta":0.2,"classrooms":["C","D"],"studentTrueClassroom":"D","exampleSet":"second","trial_type":"survey-html-form","trial_index":35,"time_elapsed":3426095,"internal_node_id":"0.0-34.0-0.0","params":{"nStudents":24,"maxFlips":30,"completionMinutes":45,"basePay":8,"maxBonus":9,"perTrialBonus":0.5,"perTrialBonusThreshold":0.1,"exampleCost":0.01},"classroomParams":{"A":{"a":1,"b":4},"B":{"a":4,"b":1},"C":{"a":2,"b":8},"D":{"a":8,"b":2}},"conditions":["nonSeqFull","nonSeqPartial","seqNoFeedback","seqFeedback"],"classroomPairings":[["A","B"],["C","D"]],"coinWeights":[0.2,0.5,0.8],"subjectId":"AMV1E7FFPVAW4","assignmentId":"34BBWHLWHBXFTCZCVCM92RYAAH0IW3","hitId":"3YGE63DIN8J20XK20KS1742RQF60WK","url":"https://gershmanlab.com/experiments/alicia/teaching/experiment/?hitId=3YGE63DIN8J20XK20KS1742RQF60WK&workerId=AMV1E7FFPVAW4&assignmentId=34BBWHLWHBXFTCZCVCM92RYAAH0IW3&a=WWB48&tp_a=WWB48&b=34BBWHLWHBXFTCZCVCM92RYAAH0IW3&tp_b=34BBWHLWHBXFTCZCVCM92RYAAH0IW3&c=365198&tp_c=365198","firstResponseHeads":2,"firstResponseTails":0,"secondResponseHeads":2,"secondResponseTails":0,"studentIndex":3,"studentTrueHypers":{"a":8,"b":2},"studentGuess":0.8571428571428571,"delta":0.657142857142857,"bonus":0,"bonusSoFar":0.4,"totalExamples":4},{"rt":null,"stimulus":"Sending examples to student... ","response":null,"trial_type":"html-keyboard-response","trial_index":36,"time_elapsed":3427347,"internal_node_id":"0.0-35.0","params":{"nStudents":24,"maxFlips":30,"completionMinutes":45,"basePay":8,"maxBonus":9,"perTrialBonus":0.5,"perTrialBonusThreshold":0.1,"exampleCost":0.01},"classroomParams":{"A":{"a":1,"b":4},"B":{"a":4,"b":1},"C":{"a":2,"b":8},"D":{"a":8,"b":2}},"conditions":["nonSeqFull","nonSeqPartial","seqNoFeedback","seqFeedback"],"classroomPairings":[["A","B"],["C","D"]],"coinWeights":[0.2,0.5,0.8],"subjectId":"AMV1E7FFPVAW4","assignmentId":"34BBWHLWHBXFTCZCVCM92RYAAH0IW3","hitId":"3YGE63DIN8J20XK20KS1742RQF60WK","url":"https://gershmanlab.com/experiments/alicia/teaching/experiment/?hitId=3YGE63DIN8J20XK20KS1742RQF60WK&workerId=AMV1E7FFPVAW4&assignmentId=34BBWHLWHBXFTCZCVCM92RYAAH0IW3&a=WWB48&tp_a=WWB48&b=34BBWHLWHBXFTCZCVCM92RYAAH0IW3&tp_b=34BBWHLWHBXFTCZCVCM92RYAAH0IW3&c=365198&tp_c=365198"},{"rt":null,"stimulus":"Examples sent to student! Waiting for student...","response":null,"trial_type":"html-keyboard-response","trial_index":37,"time_elapsed":3432849,"internal_node_id":"0.0-36.0","params":{"nStudents":24,"maxFlips":30,"completionMinutes":45,"basePay":8,"maxBonus":9,"perTrialBonus":0.5,"perTrialBonusThreshold":0.1,"exampleCost":0.01},"classroomParams":{"A":{"a":1,"b":4},"B":{"a":4,"b":1},"C":{"a":2,"b":8},"D":{"a":8,"b":2}},"conditions":["nonSeqFull","nonSeqPartial","seqNoFeedback","seqFeedback"],"classroomPairings":[["A","B"],["C","D"]],"coinWeights":[0.2,0.5,0.8],"subjectId":"AMV1E7FFPVAW4","assignmentId":"34BBWHLWHBXFTCZCVCM92RYAAH0IW3","hitId":"3YGE63DIN8J20XK20KS1742RQF60WK","url":"https://gershmanlab.com/experiments/alicia/teaching/experiment/?hitId=3YGE63DIN8J20XK20KS1742RQF60WK&workerId=AMV1E7FFPVAW4&assignmentId=34BBWHLWHBXFTCZCVCM92RYAAH0IW3&a=WWB48&tp_a=WWB48&b=34BBWHLWHBXFTCZCVCM92RYAAH0IW3&tp_b=34BBWHLWHBXFTCZCVCM92RYAAH0IW3&c=365198&tp_c=365198"},{"rt":1150,"stimulus":"\n                <p>Student 4's first guess for coin weight: <b style=\"color:Tomato\";>0.83</b></p>\n                <p>Student 4's second guess for coin weight: <b style=\"color:Tomato\";>0.86</b></p>\n                <p>You received a bonus of <b>$0.00</b> based on the student's second guess.</p>\n                <p>Total bonus so far: <b>$0.40</b></p>\n                <p>Press any key to continue.</p>\n                ","response":"enter","trial_type":"html-keyboard-response","trial_index":38,"time_elapsed":3434002,"internal_node_id":"0.0-37.0","params":{"nStudents":24,"maxFlips":30,"completionMinutes":45,"basePay":8,"maxBonus":9,"perTrialBonus":0.5,"perTrialBonusThreshold":0.1,"exampleCost":0.01},"classroomParams":{"A":{"a":1,"b":4},"B":{"a":4,"b":1},"C":{"a":2,"b":8},"D":{"a":8,"b":2}},"conditions":["nonSeqFull","nonSeqPartial","seqNoFeedback","seqFeedback"],"classroomPairings":[["A","B"],["C","D"]],"coinWeights":[0.2,0.5,0.8],"subjectId":"AMV1E7FFPVAW4","assignmentId":"34BBWHLWHBXFTCZCVCM92RYAAH0IW3","hitId":"3YGE63DIN8J20XK20KS1742RQF60WK","url":"https://gershmanlab.com/experiments/alicia/teaching/experiment/?hitId=3YGE63DIN8J20XK20KS1742RQF60WK&workerId=AMV1E7FFPVAW4&assignmentId=34BBWHLWHBXFTCZCVCM92RYAAH0IW3&a=WWB48&tp_a=WWB48&b=34BBWHLWHBXFTCZCVCM92RYAAH0IW3&tp_b=34BBWHLWHBXFTCZCVCM92RYAAH0IW3&c=365198&tp_c=365198"},{"rt":null,"stimulus":"<div style=\"font-size:60px;\">Next student</div>","response":null,"trial_type":"html-keyboard-response","trial_index":39,"time_elapsed":3437004,"internal_node_id":"0.0-38.0-0.0","params":{"nStudents":24,"maxFlips":30,"completionMinutes":45,"basePay":8,"maxBonus":9,"perTrialBonus":0.5,"perTrialBonusThreshold":0.1,"exampleCost":0.01},"classroomParams":{"A":{"a":1,"b":4},"B":{"a":4,"b":1},"C":{"a":2,"b":8},"D":{"a":8,"b":2}},"conditions":["nonSeqFull","nonSeqPartial","seqNoFeedback","seqFeedback"],"classroomPairings":[["A","B"],["C","D"]],"coinWeights":[0.2,0.5,0.8],"subjectId":"AMV1E7FFPVAW4","assignmentId":"34BBWHLWHBXFTCZCVCM92RYAAH0IW3","hitId":"3YGE63DIN8J20XK20KS1742RQF60WK","url":"https://gershmanlab.com/experiments/alicia/teaching/experiment/?hitId=3YGE63DIN8J20XK20KS1742RQF60WK&workerId=AMV1E7FFPVAW4&assignmentId=34BBWHLWHBXFTCZCVCM92RYAAH0IW3&a=WWB48&tp_a=WWB48&b=34BBWHLWHBXFTCZCVCM92RYAAH0IW3&tp_b=34BBWHLWHBXFTCZCVCM92RYAAH0IW3&c=365198&tp_c=365198"},{"rt":1266,"stimulus":"\n            <h4 style=\"color:Orange;\">Student 5</h4>\n            <h2>The weight of your coin is <b style=\"color:Tomato;\">0.5</b>.</h2>\n            <p>In this block, you will be giving <b>one</b> set of examples to Student 5.</p>\n                <p>You will receive feedback at the end of the block.</p>\n            ","response":0,"trial_type":"html-button-response","trial_index":40,"time_elapsed":3438273,"internal_node_id":"0.0-39.0","params":{"nStudents":24,"maxFlips":30,"completionMinutes":45,"basePay":8,"maxBonus":9,"perTrialBonus":0.5,"perTrialBonusThreshold":0.1,"exampleCost":0.01},"classroomParams":{"A":{"a":1,"b":4},"B":{"a":4,"b":1},"C":{"a":2,"b":8},"D":{"a":8,"b":2}},"conditions":["nonSeqFull","nonSeqPartial","seqNoFeedback","seqFeedback"],"classroomPairings":[["A","B"],["C","D"]],"coinWeights":[0.2,0.5,0.8],"subjectId":"AMV1E7FFPVAW4","assignmentId":"34BBWHLWHBXFTCZCVCM92RYAAH0IW3","hitId":"3YGE63DIN8J20XK20KS1742RQF60WK","url":"https://gershmanlab.com/experiments/alicia/teaching/experiment/?hitId=3YGE63DIN8J20XK20KS1742RQF60WK&workerId=AMV1E7FFPVAW4&assignmentId=34BBWHLWHBXFTCZCVCM92RYAAH0IW3&a=WWB48&tp_a=WWB48&b=34BBWHLWHBXFTCZCVCM92RYAAH0IW3&tp_b=34BBWHLWHBXFTCZCVCM92RYAAH0IW3&c=365198&tp_c=365198"},{"rt":3473,"response":{"heads":"5","tails":"0"},"type":"response","condition":"nonSeqFull","trueTheta":0.5,"classrooms":["C","D"],"studentTrueClassroom":"D","exampleSet":"first","trial_type":"survey-html-form","trial_index":41,"time_elapsed":3441747,"internal_node_id":"0.0-40.0-0.0","params":{"nStudents":24,"maxFlips":30,"completionMinutes":45,"basePay":8,"maxBonus":9,"perTrialBonus":0.5,"perTrialBonusThreshold":0.1,"exampleCost":0.01},"classroomParams":{"A":{"a":1,"b":4},"B":{"a":4,"b":1},"C":{"a":2,"b":8},"D":{"a":8,"b":2}},"conditions":["nonSeqFull","nonSeqPartial","seqNoFeedback","seqFeedback"],"classroomPairings":[["A","B"],["C","D"]],"coinWeights":[0.2,0.5,0.8],"subjectId":"AMV1E7FFPVAW4","assignmentId":"34BBWHLWHBXFTCZCVCM92RYAAH0IW3","hitId":"3YGE63DIN8J20XK20KS1742RQF60WK","url":"https://gershmanlab.com/experiments/alicia/teaching/experiment/?hitId=3YGE63DIN8J20XK20KS1742RQF60WK&workerId=AMV1E7FFPVAW4&assignmentId=34BBWHLWHBXFTCZCVCM92RYAAH0IW3&a=WWB48&tp_a=WWB48&b=34BBWHLWHBXFTCZCVCM92RYAAH0IW3&tp_b=34BBWHLWHBXFTCZCVCM92RYAAH0IW3&c=365198&tp_c=365198","heads":5,"tails":0,"studentIndex":4,"studentTrueHypers":{"a":8,"b":2},"studentGuess":0.8666666666666667,"delta":0.3666666666666667,"totalExamples":5,"bonus":0,"bonusSoFar":0.4},{"rt":null,"stimulus":"Sending examples to student... ","response":null,"trial_type":"html-keyboard-response","trial_index":42,"time_elapsed":3443749,"internal_node_id":"0.0-41.0","params":{"nStudents":24,"maxFlips":30,"completionMinutes":45,"basePay":8,"maxBonus":9,"perTrialBonus":0.5,"perTrialBonusThreshold":0.1,"exampleCost":0.01},"classroomParams":{"A":{"a":1,"b":4},"B":{"a":4,"b":1},"C":{"a":2,"b":8},"D":{"a":8,"b":2}},"conditions":["nonSeqFull","nonSeqPartial","seqNoFeedback","seqFeedback"],"classroomPairings":[["A","B"],["C","D"]],"coinWeights":[0.2,0.5,0.8],"subjectId":"AMV1E7FFPVAW4","assignmentId":"34BBWHLWHBXFTCZCVCM92RYAAH0IW3","hitId":"3YGE63DIN8J20XK20KS1742RQF60WK","url":"https://gershmanlab.com/experiments/alicia/teaching/experiment/?hitId=3YGE63DIN8J20XK20KS1742RQF60WK&workerId=AMV1E7FFPVAW4&assignmentId=34BBWHLWHBXFTCZCVCM92RYAAH0IW3&a=WWB48&tp_a=WWB48&b=34BBWHLWHBXFTCZCVCM92RYAAH0IW3&tp_b=34BBWHLWHBXFTCZCVCM92RYAAH0IW3&c=365198&tp_c=365198"},{"rt":null,"stimulus":"Examples sent to student! Waiting for student...","response":null,"trial_type":"html-keyboard-response","trial_index":43,"time_elapsed":3448252,"internal_node_id":"0.0-42.0","params":{"nStudents":24,"maxFlips":30,"completionMinutes":45,"basePay":8,"maxBonus":9,"perTrialBonus":0.5,"perTrialBonusThreshold":0.1,"exampleCost":0.01},"classroomParams":{"A":{"a":1,"b":4},"B":{"a":4,"b":1},"C":{"a":2,"b":8},"D":{"a":8,"b":2}},"conditions":["nonSeqFull","nonSeqPartial","seqNoFeedback","seqFeedback"],"classroomPairings":[["A","B"],["C","D"]],"coinWeights":[0.2,0.5,0.8],"subjectId":"AMV1E7FFPVAW4","assignmentId":"34BBWHLWHBXFTCZCVCM92RYAAH0IW3","hitId":"3YGE63DIN8J20XK20KS1742RQF60WK","url":"https://gershmanlab.com/experiments/alicia/teaching/experiment/?hitId=3YGE63DIN8J20XK20KS1742RQF60WK&workerId=AMV1E7FFPVAW4&assignmentId=34BBWHLWHBXFTCZCVCM92RYAAH0IW3&a=WWB48&tp_a=WWB48&b=34BBWHLWHBXFTCZCVCM92RYAAH0IW3&tp_b=34BBWHLWHBXFTCZCVCM92RYAAH0IW3&c=365198&tp_c=365198"},{"rt":939,"stimulus":"\n                <p>Student's guess for coin weight: <b style=\"color:Tomato;\">0.87</b></p>\n                <p>You received a bonus of <b>$0</b>. Total bonus so far: <b>$0.40</b></b></p>\n                <p> Press any key to continue.</p>\n                ","response":"enter","trial_type":"html-keyboard-response","trial_index":44,"time_elapsed":3449193,"internal_node_id":"0.0-43.0","params":{"nStudents":24,"maxFlips":30,"completionMinutes":45,"basePay":8,"maxBonus":9,"perTrialBonus":0.5,"perTrialBonusThreshold":0.1,"exampleCost":0.01},"classroomParams":{"A":{"a":1,"b":4},"B":{"a":4,"b":1},"C":{"a":2,"b":8},"D":{"a":8,"b":2}},"conditions":["nonSeqFull","nonSeqPartial","seqNoFeedback","seqFeedback"],"classroomPairings":[["A","B"],["C","D"]],"coinWeights":[0.2,0.5,0.8],"subjectId":"AMV1E7FFPVAW4","assignmentId":"34BBWHLWHBXFTCZCVCM92RYAAH0IW3","hitId":"3YGE63DIN8J20XK20KS1742RQF60WK","url":"https://gershmanlab.com/experiments/alicia/teaching/experiment/?hitId=3YGE63DIN8J20XK20KS1742RQF60WK&workerId=AMV1E7FFPVAW4&assignmentId=34BBWHLWHBXFTCZCVCM92RYAAH0IW3&a=WWB48&tp_a=WWB48&b=34BBWHLWHBXFTCZCVCM92RYAAH0IW3&tp_b=34BBWHLWHBXFTCZCVCM92RYAAH0IW3&c=365198&tp_c=365198"},{"rt":null,"stimulus":"<div style=\"font-size:60px;\">Next student</div>","response":null,"trial_type":"html-keyboard-response","trial_index":45,"time_elapsed":3451447,"internal_node_id":"0.0-44.0-0.0","params":{"nStudents":24,"maxFlips":30,"completionMinutes":45,"basePay":8,"maxBonus":9,"perTrialBonus":0.5,"perTrialBonusThreshold":0.1,"exampleCost":0.01},"classroomParams":{"A":{"a":1,"b":4},"B":{"a":4,"b":1},"C":{"a":2,"b":8},"D":{"a":8,"b":2}},"conditions":["nonSeqFull","nonSeqPartial","seqNoFeedback","seqFeedback"],"classroomPairings":[["A","B"],["C","D"]],"coinWeights":[0.2,0.5,0.8],"subjectId":"AMV1E7FFPVAW4","assignmentId":"34BBWHLWHBXFTCZCVCM92RYAAH0IW3","hitId":"3YGE63DIN8J20XK20KS1742RQF60WK","url":"https://gershmanlab.com/experiments/alicia/teaching/experiment/?hitId=3YGE63DIN8J20XK20KS1742RQF60WK&workerId=AMV1E7FFPVAW4&assignmentId=34BBWHLWHBXFTCZCVCM92RYAAH0IW3&a=WWB48&tp_a=WWB48&b=34BBWHLWHBXFTCZCVCM92RYAAH0IW3&tp_b=34BBWHLWHBXFTCZCVCM92RYAAH0IW3&c=365198&tp_c=365198"},{"rt":921,"stimulus":"\n            <h4 style=\"color:Orange;\">Student 6</h4>\n            <h2>The weight of your coin is <b style=\"color:Tomato;\">0.2</b>.</h2>\n            <p>In this block, you will be giving <b>two</b> sets of examples to Student 6.</p>\n                <p>You will receive feedback at the end of the block.</p>\n            ","response":0,"trial_type":"html-button-response","trial_index":46,"time_elapsed":3452370,"internal_node_id":"0.0-45.0","params":{"nStudents":24,"maxFlips":30,"completionMinutes":45,"basePay":8,"maxBonus":9,"perTrialBonus":0.5,"perTrialBonusThreshold":0.1,"exampleCost":0.01},"classroomParams":{"A":{"a":1,"b":4},"B":{"a":4,"b":1},"C":{"a":2,"b":8},"D":{"a":8,"b":2}},"conditions":["nonSeqFull","nonSeqPartial","seqNoFeedback","seqFeedback"],"classroomPairings":[["A","B"],["C","D"]],"coinWeights":[0.2,0.5,0.8],"subjectId":"AMV1E7FFPVAW4","assignmentId":"34BBWHLWHBXFTCZCVCM92RYAAH0IW3","hitId":"3YGE63DIN8J20XK20KS1742RQF60WK","url":"https://gershmanlab.com/experiments/alicia/teaching/experiment/?hitId=3YGE63DIN8J20XK20KS1742RQF60WK&workerId=AMV1E7FFPVAW4&assignmentId=34BBWHLWHBXFTCZCVCM92RYAAH0IW3&a=WWB48&tp_a=WWB48&b=34BBWHLWHBXFTCZCVCM92RYAAH0IW3&tp_b=34BBWHLWHBXFTCZCVCM92RYAAH0IW3&c=365198&tp_c=365198"},{"rt":2233,"response":{"heads":"2","tails":"0"},"type":"response","condition":"seqNoFeedback","trueTheta":0.2,"classrooms":["A","B"],"studentTrueClassroom":"A","exampleSet":"first","trial_type":"survey-html-form","trial_index":47,"time_elapsed":3454605,"internal_node_id":"0.0-46.0-0.0","params":{"nStudents":24,"maxFlips":30,"completionMinutes":45,"basePay":8,"maxBonus":9,"perTrialBonus":0.5,"perTrialBonusThreshold":0.1,"exampleCost":0.01},"classroomParams":{"A":{"a":1,"b":4},"B":{"a":4,"b":1},"C":{"a":2,"b":8},"D":{"a":8,"b":2}},"conditions":["nonSeqFull","nonSeqPartial","seqNoFeedback","seqFeedback"],"classroomPairings":[["A","B"],["C","D"]],"coinWeights":[0.2,0.5,0.8],"subjectId":"AMV1E7FFPVAW4","assignmentId":"34BBWHLWHBXFTCZCVCM92RYAAH0IW3","hitId":"3YGE63DIN8J20XK20KS1742RQF60WK","url":"https://gershmanlab.com/experiments/alicia/teaching/experiment/?hitId=3YGE63DIN8J20XK20KS1742RQF60WK&workerId=AMV1E7FFPVAW4&assignmentId=34BBWHLWHBXFTCZCVCM92RYAAH0IW3&a=WWB48&tp_a=WWB48&b=34BBWHLWHBXFTCZCVCM92RYAAH0IW3&tp_b=34BBWHLWHBXFTCZCVCM92RYAAH0IW3&c=365198&tp_c=365198","heads":2,"tails":0,"studentIndex":5,"studentTrueHypers":{"a":1,"b":4},"studentGuess":0.42857142857142855,"delta":0.22857142857142854,"totalExamples":2,"bonusSoFar":0.4},{"rt":null,"stimulus":"Sending examples to student... ","response":null,"trial_type":"html-keyboard-response","trial_index":48,"time_elapsed":3455858,"internal_node_id":"0.0-47.0","params":{"nStudents":24,"maxFlips":30,"completionMinutes":45,"basePay":8,"maxBonus":9,"perTrialBonus":0.5,"perTrialBonusThreshold":0.1,"exampleCost":0.01},"classroomParams":{"A":{"a":1,"b":4},"B":{"a":4,"b":1},"C":{"a":2,"b":8},"D":{"a":8,"b":2}},"conditions":["nonSeqFull","nonSeqPartial","seqNoFeedback","seqFeedback"],"classroomPairings":[["A","B"],["C","D"]],"coinWeights":[0.2,0.5,0.8],"subjectId":"AMV1E7FFPVAW4","assignmentId":"34BBWHLWHBXFTCZCVCM92RYAAH0IW3","hitId":"3YGE63DIN8J20XK20KS1742RQF60WK","url":"https://gershmanlab.com/experiments/alicia/teaching/experiment/?hitId=3YGE63DIN8J20XK20KS1742RQF60WK&workerId=AMV1E7FFPVAW4&assignmentId=34BBWHLWHBXFTCZCVCM92RYAAH0IW3&a=WWB48&tp_a=WWB48&b=34BBWHLWHBXFTCZCVCM92RYAAH0IW3&tp_b=34BBWHLWHBXFTCZCVCM92RYAAH0IW3&c=365198&tp_c=365198"},{"rt":null,"stimulus":"Examples sent to student! Waiting for student...","response":null,"trial_type":"html-keyboard-response","trial_index":49,"time_elapsed":3459861,"internal_node_id":"0.0-48.0","params":{"nStudents":24,"maxFlips":30,"completionMinutes":45,"basePay":8,"maxBonus":9,"perTrialBonus":0.5,"perTrialBonusThreshold":0.1,"exampleCost":0.01},"classroomParams":{"A":{"a":1,"b":4},"B":{"a":4,"b":1},"C":{"a":2,"b":8},"D":{"a":8,"b":2}},"conditions":["nonSeqFull","nonSeqPartial","seqNoFeedback","seqFeedback"],"classroomPairings":[["A","B"],["C","D"]],"coinWeights":[0.2,0.5,0.8],"subjectId":"AMV1E7FFPVAW4","assignmentId":"34BBWHLWHBXFTCZCVCM92RYAAH0IW3","hitId":"3YGE63DIN8J20XK20KS1742RQF60WK","url":"https://gershmanlab.com/experiments/alicia/teaching/experiment/?hitId=3YGE63DIN8J20XK20KS1742RQF60WK&workerId=AMV1E7FFPVAW4&assignmentId=34BBWHLWHBXFTCZCVCM92RYAAH0IW3&a=WWB48&tp_a=WWB48&b=34BBWHLWHBXFTCZCVCM92RYAAH0IW3&tp_b=34BBWHLWHBXFTCZCVCM92RYAAH0IW3&c=365198&tp_c=365198"},{"rt":5997,"response":{"heads":"2","tails":"0"},"type":"response","condition":"seqNoFeedback","trueTheta":0.2,"classrooms":["A","B"],"studentTrueClassroom":"A","exampleSet":"second","trial_type":"survey-html-form","trial_index":50,"time_elapsed":3465861,"internal_node_id":"0.0-49.0-0.0","params":{"nStudents":24,"maxFlips":30,"completionMinutes":45,"basePay":8,"maxBonus":9,"perTrialBonus":0.5,"perTrialBonusThreshold":0.1,"exampleCost":0.01},"classroomParams":{"A":{"a":1,"b":4},"B":{"a":4,"b":1},"C":{"a":2,"b":8},"D":{"a":8,"b":2}},"conditions":["nonSeqFull","nonSeqPartial","seqNoFeedback","seqFeedback"],"classroomPairings":[["A","B"],["C","D"]],"coinWeights":[0.2,0.5,0.8],"subjectId":"AMV1E7FFPVAW4","assignmentId":"34BBWHLWHBXFTCZCVCM92RYAAH0IW3","hitId":"3YGE63DIN8J20XK20KS1742RQF60WK","url":"https://gershmanlab.com/experiments/alicia/teaching/experiment/?hitId=3YGE63DIN8J20XK20KS1742RQF60WK&workerId=AMV1E7FFPVAW4&assignmentId=34BBWHLWHBXFTCZCVCM92RYAAH0IW3&a=WWB48&tp_a=WWB48&b=34BBWHLWHBXFTCZCVCM92RYAAH0IW3&tp_b=34BBWHLWHBXFTCZCVCM92RYAAH0IW3&c=365198&tp_c=365198","firstResponseHeads":2,"firstResponseTails":0,"secondResponseHeads":2,"secondResponseTails":0,"studentIndex":5,"studentTrueHypers":{"a":1,"b":4},"studentGuess":0.5555555555555556,"delta":0.35555555555555557,"bonus":0,"bonusSoFar":0.4,"totalExamples":4},{"rt":null,"stimulus":"Sending examples to student... ","response":null,"trial_type":"html-keyboard-response","trial_index":51,"time_elapsed":3467364,"internal_node_id":"0.0-50.0","params":{"nStudents":24,"maxFlips":30,"completionMinutes":45,"basePay":8,"maxBonus":9,"perTrialBonus":0.5,"perTrialBonusThreshold":0.1,"exampleCost":0.01},"classroomParams":{"A":{"a":1,"b":4},"B":{"a":4,"b":1},"C":{"a":2,"b":8},"D":{"a":8,"b":2}},"conditions":["nonSeqFull","nonSeqPartial","seqNoFeedback","seqFeedback"],"classroomPairings":[["A","B"],["C","D"]],"coinWeights":[0.2,0.5,0.8],"subjectId":"AMV1E7FFPVAW4","assignmentId":"34BBWHLWHBXFTCZCVCM92RYAAH0IW3","hitId":"3YGE63DIN8J20XK20KS1742RQF60WK","url":"https://gershmanlab.com/experiments/alicia/teaching/experiment/?hitId=3YGE63DIN8J20XK20KS1742RQF60WK&workerId=AMV1E7FFPVAW4&assignmentId=34BBWHLWHBXFTCZCVCM92RYAAH0IW3&a=WWB48&tp_a=WWB48&b=34BBWHLWHBXFTCZCVCM92RYAAH0IW3&tp_b=34BBWHLWHBXFTCZCVCM92RYAAH0IW3&c=365198&tp_c=365198"},{"rt":null,"stimulus":"Examples sent to student! Waiting for student...","response":null,"trial_type":"html-keyboard-response","trial_index":52,"time_elapsed":3472366,"internal_node_id":"0.0-51.0","params":{"nStudents":24,"maxFlips":30,"completionMinutes":45,"basePay":8,"maxBonus":9,"perTrialBonus":0.5,"perTrialBonusThreshold":0.1,"exampleCost":0.01},"classroomParams":{"A":{"a":1,"b":4},"B":{"a":4,"b":1},"C":{"a":2,"b":8},"D":{"a":8,"b":2}},"conditions":["nonSeqFull","nonSeqPartial","seqNoFeedback","seqFeedback"],"classroomPairings":[["A","B"],["C","D"]],"coinWeights":[0.2,0.5,0.8],"subjectId":"AMV1E7FFPVAW4","assignmentId":"34BBWHLWHBXFTCZCVCM92RYAAH0IW3","hitId":"3YGE63DIN8J20XK20KS1742RQF60WK","url":"https://gershmanlab.com/experiments/alicia/teaching/experiment/?hitId=3YGE63DIN8J20XK20KS1742RQF60WK&workerId=AMV1E7FFPVAW4&assignmentId=34BBWHLWHBXFTCZCVCM92RYAAH0IW3&a=WWB48&tp_a=WWB48&b=34BBWHLWHBXFTCZCVCM92RYAAH0IW3&tp_b=34BBWHLWHBXFTCZCVCM92RYAAH0IW3&c=365198&tp_c=365198"},{"rt":437,"stimulus":"\n                <p>Student 6's first guess for coin weight: <b style=\"color:Tomato\";>0.43</b></p>\n                <p>Student 6's second guess for coin weight: <b style=\"color:Tomato\";>0.56</b></p>\n                <p>You received a bonus of <b>$0.00</b> based on the student's second guess.</p>\n                <p>Total bonus so far: <b>$0.40</b></p>\n                <p>Press any key to continue.</p>\n                ","response":"enter","trial_type":"html-keyboard-response","trial_index":53,"time_elapsed":3472805,"internal_node_id":"0.0-52.0","params":{"nStudents":24,"maxFlips":30,"completionMinutes":45,"basePay":8,"maxBonus":9,"perTrialBonus":0.5,"perTrialBonusThreshold":0.1,"exampleCost":0.01},"classroomParams":{"A":{"a":1,"b":4},"B":{"a":4,"b":1},"C":{"a":2,"b":8},"D":{"a":8,"b":2}},"conditions":["nonSeqFull","nonSeqPartial","seqNoFeedback","seqFeedback"],"classroomPairings":[["A","B"],["C","D"]],"coinWeights":[0.2,0.5,0.8],"subjectId":"AMV1E7FFPVAW4","assignmentId":"34BBWHLWHBXFTCZCVCM92RYAAH0IW3","hitId":"3YGE63DIN8J20XK20KS1742RQF60WK","url":"https://gershmanlab.com/experiments/alicia/teaching/experiment/?hitId=3YGE63DIN8J20XK20KS1742RQF60WK&workerId=AMV1E7FFPVAW4&assignmentId=34BBWHLWHBXFTCZCVCM92RYAAH0IW3&a=WWB48&tp_a=WWB48&b=34BBWHLWHBXFTCZCVCM92RYAAH0IW3&tp_b=34BBWHLWHBXFTCZCVCM92RYAAH0IW3&c=365198&tp_c=365198"},{"rt":null,"stimulus":"<div style=\"font-size:60px;\">Next student</div>","response":null,"trial_type":"html-keyboard-response","trial_index":54,"time_elapsed":3474807,"internal_node_id":"0.0-53.0-0.0","params":{"nStudents":24,"maxFlips":30,"completionMinutes":45,"basePay":8,"maxBonus":9,"perTrialBonus":0.5,"perTrialBonusThreshold":0.1,"exampleCost":0.01},"classroomParams":{"A":{"a":1,"b":4},"B":{"a":4,"b":1},"C":{"a":2,"b":8},"D":{"a":8,"b":2}},"conditions":["nonSeqFull","nonSeqPartial","seqNoFeedback","seqFeedback"],"classroomPairings":[["A","B"],["C","D"]],"coinWeights":[0.2,0.5,0.8],"subjectId":"AMV1E7FFPVAW4","assignmentId":"34BBWHLWHBXFTCZCVCM92RYAAH0IW3","hitId":"3YGE63DIN8J20XK20KS1742RQF60WK","url":"https://gershmanlab.com/experiments/alicia/teaching/experiment/?hitId=3YGE63DIN8J20XK20KS1742RQF60WK&workerId=AMV1E7FFPVAW4&assignmentId=34BBWHLWHBXFTCZCVCM92RYAAH0IW3&a=WWB48&tp_a=WWB48&b=34BBWHLWHBXFTCZCVCM92RYAAH0IW3&tp_b=34BBWHLWHBXFTCZCVCM92RYAAH0IW3&c=365198&tp_c=365198"},{"rt":850,"stimulus":"\n            <h4 style=\"color:Orange;\">Student 7</h4>\n            <h2>The weight of your coin is <b style=\"color:Tomato;\">0.5</b>.</h2>\n            <p>In this block, you will be giving <b>two</b> sets of examples to Student 7.</p>\n                <p>You will see the student's guess after the first set of examples. You will also receive feedback at the end of the block.</p>\n            ","response":0,"trial_type":"html-button-response","trial_index":55,"time_elapsed":3475660,"internal_node_id":"0.0-54.0","params":{"nStudents":24,"maxFlips":30,"completionMinutes":45,"basePay":8,"maxBonus":9,"perTrialBonus":0.5,"perTrialBonusThreshold":0.1,"exampleCost":0.01},"classroomParams":{"A":{"a":1,"b":4},"B":{"a":4,"b":1},"C":{"a":2,"b":8},"D":{"a":8,"b":2}},"conditions":["nonSeqFull","nonSeqPartial","seqNoFeedback","seqFeedback"],"classroomPairings":[["A","B"],["C","D"]],"coinWeights":[0.2,0.5,0.8],"subjectId":"AMV1E7FFPVAW4","assignmentId":"34BBWHLWHBXFTCZCVCM92RYAAH0IW3","hitId":"3YGE63DIN8J20XK20KS1742RQF60WK","url":"https://gershmanlab.com/experiments/alicia/teaching/experiment/?hitId=3YGE63DIN8J20XK20KS1742RQF60WK&workerId=AMV1E7FFPVAW4&assignmentId=34BBWHLWHBXFTCZCVCM92RYAAH0IW3&a=WWB48&tp_a=WWB48&b=34BBWHLWHBXFTCZCVCM92RYAAH0IW3&tp_b=34BBWHLWHBXFTCZCVCM92RYAAH0IW3&c=365198&tp_c=365198"},{"rt":2375,"response":{"heads":"5","tails":"0"},"type":"response","condition":"seqFeedback","trueTheta":0.5,"classrooms":["A","B"],"studentTrueClassroom":"B","exampleSet":"first","trial_type":"survey-html-form","trial_index":56,"time_elapsed":3478036,"internal_node_id":"0.0-55.0-0.0","params":{"nStudents":24,"maxFlips":30,"completionMinutes":45,"basePay":8,"maxBonus":9,"perTrialBonus":0.5,"perTrialBonusThreshold":0.1,"exampleCost":0.01},"classroomParams":{"A":{"a":1,"b":4},"B":{"a":4,"b":1},"C":{"a":2,"b":8},"D":{"a":8,"b":2}},"conditions":["nonSeqFull","nonSeqPartial","seqNoFeedback","seqFeedback"],"classroomPairings":[["A","B"],["C","D"]],"coinWeights":[0.2,0.5,0.8],"subjectId":"AMV1E7FFPVAW4","assignmentId":"34BBWHLWHBXFTCZCVCM92RYAAH0IW3","hitId":"3YGE63DIN8J20XK20KS1742RQF60WK","url":"https://gershmanlab.com/experiments/alicia/teaching/experiment/?hitId=3YGE63DIN8J20XK20KS1742RQF60WK&workerId=AMV1E7FFPVAW4&assignmentId=34BBWHLWHBXFTCZCVCM92RYAAH0IW3&a=WWB48&tp_a=WWB48&b=34BBWHLWHBXFTCZCVCM92RYAAH0IW3&tp_b=34BBWHLWHBXFTCZCVCM92RYAAH0IW3&c=365198&tp_c=365198","heads":5,"tails":0,"studentIndex":6,"studentTrueHypers":{"a":4,"b":1},"studentGuess":0.9,"delta":0.4,"totalExamples":5,"bonusSoFar":0.4},{"rt":null,"stimulus":"Sending examples to student... ","response":null,"trial_type":"html-keyboard-response","trial_index":57,"time_elapsed":3480038,"internal_node_id":"0.0-56.0","params":{"nStudents":24,"maxFlips":30,"completionMinutes":45,"basePay":8,"maxBonus":9,"perTrialBonus":0.5,"perTrialBonusThreshold":0.1,"exampleCost":0.01},"classroomParams":{"A":{"a":1,"b":4},"B":{"a":4,"b":1},"C":{"a":2,"b":8},"D":{"a":8,"b":2}},"conditions":["nonSeqFull","nonSeqPartial","seqNoFeedback","seqFeedback"],"classroomPairings":[["A","B"],["C","D"]],"coinWeights":[0.2,0.5,0.8],"subjectId":"AMV1E7FFPVAW4","assignmentId":"34BBWHLWHBXFTCZCVCM92RYAAH0IW3","hitId":"3YGE63DIN8J20XK20KS1742RQF60WK","url":"https://gershmanlab.com/experiments/alicia/teaching/experiment/?hitId=3YGE63DIN8J20XK20KS1742RQF60WK&workerId=AMV1E7FFPVAW4&assignmentId=34BBWHLWHBXFTCZCVCM92RYAAH0IW3&a=WWB48&tp_a=WWB48&b=34BBWHLWHBXFTCZCVCM92RYAAH0IW3&tp_b=34BBWHLWHBXFTCZCVCM92RYAAH0IW3&c=365198&tp_c=365198"},{"rt":null,"stimulus":"Examples sent to student! Waiting for student...","response":null,"trial_type":"html-keyboard-response","trial_index":58,"time_elapsed":3485540,"internal_node_id":"0.0-57.0","params":{"nStudents":24,"maxFlips":30,"completionMinutes":45,"basePay":8,"maxBonus":9,"perTrialBonus":0.5,"perTrialBonusThreshold":0.1,"exampleCost":0.01},"classroomParams":{"A":{"a":1,"b":4},"B":{"a":4,"b":1},"C":{"a":2,"b":8},"D":{"a":8,"b":2}},"conditions":["nonSeqFull","nonSeqPartial","seqNoFeedback","seqFeedback"],"classroomPairings":[["A","B"],["C","D"]],"coinWeights":[0.2,0.5,0.8],"subjectId":"AMV1E7FFPVAW4","assignmentId":"34BBWHLWHBXFTCZCVCM92RYAAH0IW3","hitId":"3YGE63DIN8J20XK20KS1742RQF60WK","url":"https://gershmanlab.com/experiments/alicia/teaching/experiment/?hitId=3YGE63DIN8J20XK20KS1742RQF60WK&workerId=AMV1E7FFPVAW4&assignmentId=34BBWHLWHBXFTCZCVCM92RYAAH0IW3&a=WWB48&tp_a=WWB48&b=34BBWHLWHBXFTCZCVCM92RYAAH0IW3&tp_b=34BBWHLWHBXFTCZCVCM92RYAAH0IW3&c=365198&tp_c=365198"},{"rt":1501,"stimulus":"\n                <p>Student's guess for coin weight: <b style=\"color:Tomato;\">0.90</b></p>\n                <p></b></p>\n                <p>You will now send another set of examples to your student. Press any key to continue.</p>\n                ","response":"enter","trial_type":"html-keyboard-response","trial_index":59,"time_elapsed":3487042,"internal_node_id":"0.0-58.0","params":{"nStudents":24,"maxFlips":30,"completionMinutes":45,"basePay":8,"maxBonus":9,"perTrialBonus":0.5,"perTrialBonusThreshold":0.1,"exampleCost":0.01},"classroomParams":{"A":{"a":1,"b":4},"B":{"a":4,"b":1},"C":{"a":2,"b":8},"D":{"a":8,"b":2}},"conditions":["nonSeqFull","nonSeqPartial","seqNoFeedback","seqFeedback"],"classroomPairings":[["A","B"],["C","D"]],"coinWeights":[0.2,0.5,0.8],"subjectId":"AMV1E7FFPVAW4","assignmentId":"34BBWHLWHBXFTCZCVCM92RYAAH0IW3","hitId":"3YGE63DIN8J20XK20KS1742RQF60WK","url":"https://gershmanlab.com/experiments/alicia/teaching/experiment/?hitId=3YGE63DIN8J20XK20KS1742RQF60WK&workerId=AMV1E7FFPVAW4&assignmentId=34BBWHLWHBXFTCZCVCM92RYAAH0IW3&a=WWB48&tp_a=WWB48&b=34BBWHLWHBXFTCZCVCM92RYAAH0IW3&tp_b=34BBWHLWHBXFTCZCVCM92RYAAH0IW3&c=365198&tp_c=365198"},{"rt":3671,"response":{"heads":"5","tails":"0"},"type":"response","condition":"seqFeedback","trueTheta":0.5,"classrooms":["A","B"],"studentTrueClassroom":"B","exampleSet":"second","trial_type":"survey-html-form","trial_index":60,"time_elapsed":3490714,"internal_node_id":"0.0-59.0-0.0","params":{"nStudents":24,"maxFlips":30,"completionMinutes":45,"basePay":8,"maxBonus":9,"perTrialBonus":0.5,"perTrialBonusThreshold":0.1,"exampleCost":0.01},"classroomParams":{"A":{"a":1,"b":4},"B":{"a":4,"b":1},"C":{"a":2,"b":8},"D":{"a":8,"b":2}},"conditions":["nonSeqFull","nonSeqPartial","seqNoFeedback","seqFeedback"],"classroomPairings":[["A","B"],["C","D"]],"coinWeights":[0.2,0.5,0.8],"subjectId":"AMV1E7FFPVAW4","assignmentId":"34BBWHLWHBXFTCZCVCM92RYAAH0IW3","hitId":"3YGE63DIN8J20XK20KS1742RQF60WK","url":"https://gershmanlab.com/experiments/alicia/teaching/experiment/?hitId=3YGE63DIN8J20XK20KS1742RQF60WK&workerId=AMV1E7FFPVAW4&assignmentId=34BBWHLWHBXFTCZCVCM92RYAAH0IW3&a=WWB48&tp_a=WWB48&b=34BBWHLWHBXFTCZCVCM92RYAAH0IW3&tp_b=34BBWHLWHBXFTCZCVCM92RYAAH0IW3&c=365198&tp_c=365198","firstResponseHeads":5,"firstResponseTails":0,"secondResponseHeads":5,"secondResponseTails":0,"studentIndex":6,"studentTrueHypers":{"a":4,"b":1},"studentGuess":0.9333333333333333,"delta":0.43333333333333335,"bonus":0,"bonusSoFar":0.4,"totalExamples":10},{"rt":null,"stimulus":"Sending examples to student... ","response":null,"trial_type":"html-keyboard-response","trial_index":61,"time_elapsed":3491966,"internal_node_id":"0.0-60.0","params":{"nStudents":24,"maxFlips":30,"completionMinutes":45,"basePay":8,"maxBonus":9,"perTrialBonus":0.5,"perTrialBonusThreshold":0.1,"exampleCost":0.01},"classroomParams":{"A":{"a":1,"b":4},"B":{"a":4,"b":1},"C":{"a":2,"b":8},"D":{"a":8,"b":2}},"conditions":["nonSeqFull","nonSeqPartial","seqNoFeedback","seqFeedback"],"classroomPairings":[["A","B"],["C","D"]],"coinWeights":[0.2,0.5,0.8],"subjectId":"AMV1E7FFPVAW4","assignmentId":"34BBWHLWHBXFTCZCVCM92RYAAH0IW3","hitId":"3YGE63DIN8J20XK20KS1742RQF60WK","url":"https://gershmanlab.com/experiments/alicia/teaching/experiment/?hitId=3YGE63DIN8J20XK20KS1742RQF60WK&workerId=AMV1E7FFPVAW4&assignmentId=34BBWHLWHBXFTCZCVCM92RYAAH0IW3&a=WWB48&tp_a=WWB48&b=34BBWHLWHBXFTCZCVCM92RYAAH0IW3&tp_b=34BBWHLWHBXFTCZCVCM92RYAAH0IW3&c=365198&tp_c=365198"},{"rt":null,"stimulus":"Examples sent to student! Waiting for student...","response":null,"trial_type":"html-keyboard-response","trial_index":62,"time_elapsed":3496969,"internal_node_id":"0.0-61.0","params":{"nStudents":24,"maxFlips":30,"completionMinutes":45,"basePay":8,"maxBonus":9,"perTrialBonus":0.5,"perTrialBonusThreshold":0.1,"exampleCost":0.01},"classroomParams":{"A":{"a":1,"b":4},"B":{"a":4,"b":1},"C":{"a":2,"b":8},"D":{"a":8,"b":2}},"conditions":["nonSeqFull","nonSeqPartial","seqNoFeedback","seqFeedback"],"classroomPairings":[["A","B"],["C","D"]],"coinWeights":[0.2,0.5,0.8],"subjectId":"AMV1E7FFPVAW4","assignmentId":"34BBWHLWHBXFTCZCVCM92RYAAH0IW3","hitId":"3YGE63DIN8J20XK20KS1742RQF60WK","url":"https://gershmanlab.com/experiments/alicia/teaching/experiment/?hitId=3YGE63DIN8J20XK20KS1742RQF60WK&workerId=AMV1E7FFPVAW4&assignmentId=34BBWHLWHBXFTCZCVCM92RYAAH0IW3&a=WWB48&tp_a=WWB48&b=34BBWHLWHBXFTCZCVCM92RYAAH0IW3&tp_b=34BBWHLWHBXFTCZCVCM92RYAAH0IW3&c=365198&tp_c=365198"},{"rt":779,"stimulus":"\n                <p>Student 7's first guess for coin weight: <b style=\"color:Tomato\";>0.90</b></p>\n                <p>Student 7's second guess for coin weight: <b style=\"color:Tomato\";>0.93</b></p>\n                <p>You received a bonus of <b>$0.00</b> based on the student's second guess.</p>\n                <p>Total bonus so far: <b>$0.40</b></p>\n                <p>Press any key to continue.</p>\n                ","response":"enter","trial_type":"html-keyboard-response","trial_index":63,"time_elapsed":3497750,"internal_node_id":"0.0-62.0","params":{"nStudents":24,"maxFlips":30,"completionMinutes":45,"basePay":8,"maxBonus":9,"perTrialBonus":0.5,"perTrialBonusThreshold":0.1,"exampleCost":0.01},"classroomParams":{"A":{"a":1,"b":4},"B":{"a":4,"b":1},"C":{"a":2,"b":8},"D":{"a":8,"b":2}},"conditions":["nonSeqFull","nonSeqPartial","seqNoFeedback","seqFeedback"],"classroomPairings":[["A","B"],["C","D"]],"coinWeights":[0.2,0.5,0.8],"subjectId":"AMV1E7FFPVAW4","assignmentId":"34BBWHLWHBXFTCZCVCM92RYAAH0IW3","hitId":"3YGE63DIN8J20XK20KS1742RQF60WK","url":"https://gershmanlab.com/experiments/alicia/teaching/experiment/?hitId=3YGE63DIN8J20XK20KS1742RQF60WK&workerId=AMV1E7FFPVAW4&assignmentId=34BBWHLWHBXFTCZCVCM92RYAAH0IW3&a=WWB48&tp_a=WWB48&b=34BBWHLWHBXFTCZCVCM92RYAAH0IW3&tp_b=34BBWHLWHBXFTCZCVCM92RYAAH0IW3&c=365198&tp_c=365198"},{"rt":null,"stimulus":"<div style=\"font-size:60px;\">Next student</div>","response":null,"trial_type":"html-keyboard-response","trial_index":64,"time_elapsed":3500002,"internal_node_id":"0.0-63.0-0.0","params":{"nStudents":24,"maxFlips":30,"completionMinutes":45,"basePay":8,"maxBonus":9,"perTrialBonus":0.5,"perTrialBonusThreshold":0.1,"exampleCost":0.01},"classroomParams":{"A":{"a":1,"b":4},"B":{"a":4,"b":1},"C":{"a":2,"b":8},"D":{"a":8,"b":2}},"conditions":["nonSeqFull","nonSeqPartial","seqNoFeedback","seqFeedback"],"classroomPairings":[["A","B"],["C","D"]],"coinWeights":[0.2,0.5,0.8],"subjectId":"AMV1E7FFPVAW4","assignmentId":"34BBWHLWHBXFTCZCVCM92RYAAH0IW3","hitId":"3YGE63DIN8J20XK20KS1742RQF60WK","url":"https://gershmanlab.com/experiments/alicia/teaching/experiment/?hitId=3YGE63DIN8J20XK20KS1742RQF60WK&workerId=AMV1E7FFPVAW4&assignmentId=34BBWHLWHBXFTCZCVCM92RYAAH0IW3&a=WWB48&tp_a=WWB48&b=34BBWHLWHBXFTCZCVCM92RYAAH0IW3&tp_b=34BBWHLWHBXFTCZCVCM92RYAAH0IW3&c=365198&tp_c=365198"},{"rt":1009,"stimulus":"\n            <h4 style=\"color:Orange;\">Student 8</h4>\n            <h2>The weight of your coin is <b style=\"color:Tomato;\">0.8</b>.</h2>\n            <p>In this block, you will be giving <b>one</b> set of examples to Student 8.</p>\n                <p>You will receive feedback at the end of the block.</p>\n            ","response":0,"trial_type":"html-button-response","trial_index":65,"time_elapsed":3501013,"internal_node_id":"0.0-64.0","params":{"nStudents":24,"maxFlips":30,"completionMinutes":45,"basePay":8,"maxBonus":9,"perTrialBonus":0.5,"perTrialBonusThreshold":0.1,"exampleCost":0.01},"classroomParams":{"A":{"a":1,"b":4},"B":{"a":4,"b":1},"C":{"a":2,"b":8},"D":{"a":8,"b":2}},"conditions":["nonSeqFull","nonSeqPartial","seqNoFeedback","seqFeedback"],"classroomPairings":[["A","B"],["C","D"]],"coinWeights":[0.2,0.5,0.8],"subjectId":"AMV1E7FFPVAW4","assignmentId":"34BBWHLWHBXFTCZCVCM92RYAAH0IW3","hitId":"3YGE63DIN8J20XK20KS1742RQF60WK","url":"https://gershmanlab.com/experiments/alicia/teaching/experiment/?hitId=3YGE63DIN8J20XK20KS1742RQF60WK&workerId=AMV1E7FFPVAW4&assignmentId=34BBWHLWHBXFTCZCVCM92RYAAH0IW3&a=WWB48&tp_a=WWB48&b=34BBWHLWHBXFTCZCVCM92RYAAH0IW3&tp_b=34BBWHLWHBXFTCZCVCM92RYAAH0IW3&c=365198&tp_c=365198"},{"rt":4052,"response":{"heads":"8","tails":"0"},"type":"response","condition":"nonSeqPartial","trueTheta":0.8,"classrooms":["A","B"],"studentTrueClassroom":"A","exampleSet":"first","trial_type":"survey-html-form","trial_index":66,"time_elapsed":3505067,"internal_node_id":"0.0-65.0-0.0","params":{"nStudents":24,"maxFlips":30,"completionMinutes":45,"basePay":8,"maxBonus":9,"perTrialBonus":0.5,"perTrialBonusThreshold":0.1,"exampleCost":0.01},"classroomParams":{"A":{"a":1,"b":4},"B":{"a":4,"b":1},"C":{"a":2,"b":8},"D":{"a":8,"b":2}},"conditions":["nonSeqFull","nonSeqPartial","seqNoFeedback","seqFeedback"],"classroomPairings":[["A","B"],["C","D"]],"coinWeights":[0.2,0.5,0.8],"subjectId":"AMV1E7FFPVAW4","assignmentId":"34BBWHLWHBXFTCZCVCM92RYAAH0IW3","hitId":"3YGE63DIN8J20XK20KS1742RQF60WK","url":"https://gershmanlab.com/experiments/alicia/teaching/experiment/?hitId=3YGE63DIN8J20XK20KS1742RQF60WK&workerId=AMV1E7FFPVAW4&assignmentId=34BBWHLWHBXFTCZCVCM92RYAAH0IW3&a=WWB48&tp_a=WWB48&b=34BBWHLWHBXFTCZCVCM92RYAAH0IW3&tp_b=34BBWHLWHBXFTCZCVCM92RYAAH0IW3&c=365198&tp_c=365198","heads":8,"tails":0,"studentIndex":7,"studentTrueHypers":{"a":1,"b":4},"studentGuess":0.6923076923076923,"delta":0.10769230769230775,"totalExamples":8,"bonus":0,"bonusSoFar":0.4},{"rt":null,"stimulus":"Sending examples to student... ","response":null,"trial_type":"html-keyboard-response","trial_index":67,"time_elapsed":3506818,"internal_node_id":"0.0-66.0","params":{"nStudents":24,"maxFlips":30,"completionMinutes":45,"basePay":8,"maxBonus":9,"perTrialBonus":0.5,"perTrialBonusThreshold":0.1,"exampleCost":0.01},"classroomParams":{"A":{"a":1,"b":4},"B":{"a":4,"b":1},"C":{"a":2,"b":8},"D":{"a":8,"b":2}},"conditions":["nonSeqFull","nonSeqPartial","seqNoFeedback","seqFeedback"],"classroomPairings":[["A","B"],["C","D"]],"coinWeights":[0.2,0.5,0.8],"subjectId":"AMV1E7FFPVAW4","assignmentId":"34BBWHLWHBXFTCZCVCM92RYAAH0IW3","hitId":"3YGE63DIN8J20XK20KS1742RQF60WK","url":"https://gershmanlab.com/experiments/alicia/teaching/experiment/?hitId=3YGE63DIN8J20XK20KS1742RQF60WK&workerId=AMV1E7FFPVAW4&assignmentId=34BBWHLWHBXFTCZCVCM92RYAAH0IW3&a=WWB48&tp_a=WWB48&b=34BBWHLWHBXFTCZCVCM92RYAAH0IW3&tp_b=34BBWHLWHBXFTCZCVCM92RYAAH0IW3&c=365198&tp_c=365198"},{"rt":null,"stimulus":"Examples sent to student! Waiting for student...","response":null,"trial_type":"html-keyboard-response","trial_index":68,"time_elapsed":3512321,"internal_node_id":"0.0-67.0","params":{"nStudents":24,"maxFlips":30,"completionMinutes":45,"basePay":8,"maxBonus":9,"perTrialBonus":0.5,"perTrialBonusThreshold":0.1,"exampleCost":0.01},"classroomParams":{"A":{"a":1,"b":4},"B":{"a":4,"b":1},"C":{"a":2,"b":8},"D":{"a":8,"b":2}},"conditions":["nonSeqFull","nonSeqPartial","seqNoFeedback","seqFeedback"],"classroomPairings":[["A","B"],["C","D"]],"coinWeights":[0.2,0.5,0.8],"subjectId":"AMV1E7FFPVAW4","assignmentId":"34BBWHLWHBXFTCZCVCM92RYAAH0IW3","hitId":"3YGE63DIN8J20XK20KS1742RQF60WK","url":"https://gershmanlab.com/experiments/alicia/teaching/experiment/?hitId=3YGE63DIN8J20XK20KS1742RQF60WK&workerId=AMV1E7FFPVAW4&assignmentId=34BBWHLWHBXFTCZCVCM92RYAAH0IW3&a=WWB48&tp_a=WWB48&b=34BBWHLWHBXFTCZCVCM92RYAAH0IW3&tp_b=34BBWHLWHBXFTCZCVCM92RYAAH0IW3&c=365198&tp_c=365198"},{"rt":1299,"stimulus":"\n                <p>Student's guess for coin weight: <b style=\"color:Tomato;\">0.69</b></p>\n                <p>You received a bonus of <b>$0</b>. Total bonus so far: <b>$0.40</b></b></p>\n                <p> Press any key to continue.</p>\n                ","response":"'","trial_type":"html-keyboard-response","trial_index":69,"time_elapsed":3513623,"internal_node_id":"0.0-68.0","params":{"nStudents":24,"maxFlips":30,"completionMinutes":45,"basePay":8,"maxBonus":9,"perTrialBonus":0.5,"perTrialBonusThreshold":0.1,"exampleCost":0.01},"classroomParams":{"A":{"a":1,"b":4},"B":{"a":4,"b":1},"C":{"a":2,"b":8},"D":{"a":8,"b":2}},"conditions":["nonSeqFull","nonSeqPartial","seqNoFeedback","seqFeedback"],"classroomPairings":[["A","B"],["C","D"]],"coinWeights":[0.2,0.5,0.8],"subjectId":"AMV1E7FFPVAW4","assignmentId":"34BBWHLWHBXFTCZCVCM92RYAAH0IW3","hitId":"3YGE63DIN8J20XK20KS1742RQF60WK","url":"https://gershmanlab.com/experiments/alicia/teaching/experiment/?hitId=3YGE63DIN8J20XK20KS1742RQF60WK&workerId=AMV1E7FFPVAW4&assignmentId=34BBWHLWHBXFTCZCVCM92RYAAH0IW3&a=WWB48&tp_a=WWB48&b=34BBWHLWHBXFTCZCVCM92RYAAH0IW3&tp_b=34BBWHLWHBXFTCZCVCM92RYAAH0IW3&c=365198&tp_c=365198"},{"rt":null,"stimulus":"<div style=\"font-size:60px;\">Next student</div>","response":null,"trial_type":"html-keyboard-response","trial_index":70,"time_elapsed":3515876,"internal_node_id":"0.0-69.0-0.0","params":{"nStudents":24,"maxFlips":30,"completionMinutes":45,"basePay":8,"maxBonus":9,"perTrialBonus":0.5,"perTrialBonusThreshold":0.1,"exampleCost":0.01},"classroomParams":{"A":{"a":1,"b":4},"B":{"a":4,"b":1},"C":{"a":2,"b":8},"D":{"a":8,"b":2}},"conditions":["nonSeqFull","nonSeqPartial","seqNoFeedback","seqFeedback"],"classroomPairings":[["A","B"],["C","D"]],"coinWeights":[0.2,0.5,0.8],"subjectId":"AMV1E7FFPVAW4","assignmentId":"34BBWHLWHBXFTCZCVCM92RYAAH0IW3","hitId":"3YGE63DIN8J20XK20KS1742RQF60WK","url":"https://gershmanlab.com/experiments/alicia/teaching/experiment/?hitId=3YGE63DIN8J20XK20KS1742RQF60WK&workerId=AMV1E7FFPVAW4&assignmentId=34BBWHLWHBXFTCZCVCM92RYAAH0IW3&a=WWB48&tp_a=WWB48&b=34BBWHLWHBXFTCZCVCM92RYAAH0IW3&tp_b=34BBWHLWHBXFTCZCVCM92RYAAH0IW3&c=365198&tp_c=365198"},{"rt":1344,"stimulus":"\n            <h4 style=\"color:Orange;\">Student 9</h4>\n            <h2>The weight of your coin is <b style=\"color:Tomato;\">0.5</b>.</h2>\n            <p>In this block, you will be giving <b>one</b> set of examples to Student 9.</p>\n                <p>You will receive feedback at the end of the block.</p>\n            ","response":0,"trial_type":"html-button-response","trial_index":71,"time_elapsed":3517222,"internal_node_id":"0.0-70.0","params":{"nStudents":24,"maxFlips":30,"completionMinutes":45,"basePay":8,"maxBonus":9,"perTrialBonus":0.5,"perTrialBonusThreshold":0.1,"exampleCost":0.01},"classroomParams":{"A":{"a":1,"b":4},"B":{"a":4,"b":1},"C":{"a":2,"b":8},"D":{"a":8,"b":2}},"conditions":["nonSeqFull","nonSeqPartial","seqNoFeedback","seqFeedback"],"classroomPairings":[["A","B"],["C","D"]],"coinWeights":[0.2,0.5,0.8],"subjectId":"AMV1E7FFPVAW4","assignmentId":"34BBWHLWHBXFTCZCVCM92RYAAH0IW3","hitId":"3YGE63DIN8J20XK20KS1742RQF60WK","url":"https://gershmanlab.com/experiments/alicia/teaching/experiment/?hitId=3YGE63DIN8J20XK20KS1742RQF60WK&workerId=AMV1E7FFPVAW4&assignmentId=34BBWHLWHBXFTCZCVCM92RYAAH0IW3&a=WWB48&tp_a=WWB48&b=34BBWHLWHBXFTCZCVCM92RYAAH0IW3&tp_b=34BBWHLWHBXFTCZCVCM92RYAAH0IW3&c=365198&tp_c=365198"},{"rt":3363,"response":{"heads":"05","tails":"0"},"type":"response","condition":"nonSeqPartial","trueTheta":0.5,"classrooms":["A","B"],"studentTrueClassroom":"B","exampleSet":"first","trial_type":"survey-html-form","trial_index":72,"time_elapsed":3520586,"internal_node_id":"0.0-71.0-0.0","params":{"nStudents":24,"maxFlips":30,"completionMinutes":45,"basePay":8,"maxBonus":9,"perTrialBonus":0.5,"perTrialBonusThreshold":0.1,"exampleCost":0.01},"classroomParams":{"A":{"a":1,"b":4},"B":{"a":4,"b":1},"C":{"a":2,"b":8},"D":{"a":8,"b":2}},"conditions":["nonSeqFull","nonSeqPartial","seqNoFeedback","seqFeedback"],"classroomPairings":[["A","B"],["C","D"]],"coinWeights":[0.2,0.5,0.8],"subjectId":"AMV1E7FFPVAW4","assignmentId":"34BBWHLWHBXFTCZCVCM92RYAAH0IW3","hitId":"3YGE63DIN8J20XK20KS1742RQF60WK","url":"https://gershmanlab.com/experiments/alicia/teaching/experiment/?hitId=3YGE63DIN8J20XK20KS1742RQF60WK&workerId=AMV1E7FFPVAW4&assignmentId=34BBWHLWHBXFTCZCVCM92RYAAH0IW3&a=WWB48&tp_a=WWB48&b=34BBWHLWHBXFTCZCVCM92RYAAH0IW3&tp_b=34BBWHLWHBXFTCZCVCM92RYAAH0IW3&c=365198&tp_c=365198","heads":5,"tails":0,"studentIndex":8,"studentTrueHypers":{"a":4,"b":1},"studentGuess":0.9,"delta":0.4,"totalExamples":5,"bonus":0,"bonusSoFar":0.4},{"rt":null,"stimulus":"Sending examples to student... ","response":null,"trial_type":"html-keyboard-response","trial_index":73,"time_elapsed":3522339,"internal_node_id":"0.0-72.0","params":{"nStudents":24,"maxFlips":30,"completionMinutes":45,"basePay":8,"maxBonus":9,"perTrialBonus":0.5,"perTrialBonusThreshold":0.1,"exampleCost":0.01},"classroomParams":{"A":{"a":1,"b":4},"B":{"a":4,"b":1},"C":{"a":2,"b":8},"D":{"a":8,"b":2}},"conditions":["nonSeqFull","nonSeqPartial","seqNoFeedback","seqFeedback"],"classroomPairings":[["A","B"],["C","D"]],"coinWeights":[0.2,0.5,0.8],"subjectId":"AMV1E7FFPVAW4","assignmentId":"34BBWHLWHBXFTCZCVCM92RYAAH0IW3","hitId":"3YGE63DIN8J20XK20KS1742RQF60WK","url":"https://gershmanlab.com/experiments/alicia/teaching/experiment/?hitId=3YGE63DIN8J20XK20KS1742RQF60WK&workerId=AMV1E7FFPVAW4&assignmentId=34BBWHLWHBXFTCZCVCM92RYAAH0IW3&a=WWB48&tp_a=WWB48&b=34BBWHLWHBXFTCZCVCM92RYAAH0IW3&tp_b=34BBWHLWHBXFTCZCVCM92RYAAH0IW3&c=365198&tp_c=365198"},{"rt":null,"stimulus":"Examples sent to student! Waiting for student...","response":null,"trial_type":"html-keyboard-response","trial_index":74,"time_elapsed":3526342,"internal_node_id":"0.0-73.0","params":{"nStudents":24,"maxFlips":30,"completionMinutes":45,"basePay":8,"maxBonus":9,"perTrialBonus":0.5,"perTrialBonusThreshold":0.1,"exampleCost":0.01},"classroomParams":{"A":{"a":1,"b":4},"B":{"a":4,"b":1},"C":{"a":2,"b":8},"D":{"a":8,"b":2}},"conditions":["nonSeqFull","nonSeqPartial","seqNoFeedback","seqFeedback"],"classroomPairings":[["A","B"],["C","D"]],"coinWeights":[0.2,0.5,0.8],"subjectId":"AMV1E7FFPVAW4","assignmentId":"34BBWHLWHBXFTCZCVCM92RYAAH0IW3","hitId":"3YGE63DIN8J20XK20KS1742RQF60WK","url":"https://gershmanlab.com/experiments/alicia/teaching/experiment/?hitId=3YGE63DIN8J20XK20KS1742RQF60WK&workerId=AMV1E7FFPVAW4&assignmentId=34BBWHLWHBXFTCZCVCM92RYAAH0IW3&a=WWB48&tp_a=WWB48&b=34BBWHLWHBXFTCZCVCM92RYAAH0IW3&tp_b=34BBWHLWHBXFTCZCVCM92RYAAH0IW3&c=365198&tp_c=365198"},{"rt":1620,"stimulus":"\n                <p>Student's guess for coin weight: <b style=\"color:Tomato;\">0.90</b></p>\n                <p>You received a bonus of <b>$0</b>. Total bonus so far: <b>$0.40</b></b></p>\n                <p> Press any key to continue.</p>\n                ","response":",","trial_type":"html-keyboard-response","trial_index":75,"time_elapsed":3527964,"internal_node_id":"0.0-74.0","params":{"nStudents":24,"maxFlips":30,"completionMinutes":45,"basePay":8,"maxBonus":9,"perTrialBonus":0.5,"perTrialBonusThreshold":0.1,"exampleCost":0.01},"classroomParams":{"A":{"a":1,"b":4},"B":{"a":4,"b":1},"C":{"a":2,"b":8},"D":{"a":8,"b":2}},"conditions":["nonSeqFull","nonSeqPartial","seqNoFeedback","seqFeedback"],"classroomPairings":[["A","B"],["C","D"]],"coinWeights":[0.2,0.5,0.8],"subjectId":"AMV1E7FFPVAW4","assignmentId":"34BBWHLWHBXFTCZCVCM92RYAAH0IW3","hitId":"3YGE63DIN8J20XK20KS1742RQF60WK","url":"https://gershmanlab.com/experiments/alicia/teaching/experiment/?hitId=3YGE63DIN8J20XK20KS1742RQF60WK&workerId=AMV1E7FFPVAW4&assignmentId=34BBWHLWHBXFTCZCVCM92RYAAH0IW3&a=WWB48&tp_a=WWB48&b=34BBWHLWHBXFTCZCVCM92RYAAH0IW3&tp_b=34BBWHLWHBXFTCZCVCM92RYAAH0IW3&c=365198&tp_c=365198"},{"rt":null,"stimulus":"<div style=\"font-size:60px;\">Next student</div>","response":null,"trial_type":"html-keyboard-response","trial_index":76,"time_elapsed":3530966,"internal_node_id":"0.0-75.0-0.0","params":{"nStudents":24,"maxFlips":30,"completionMinutes":45,"basePay":8,"maxBonus":9,"perTrialBonus":0.5,"perTrialBonusThreshold":0.1,"exampleCost":0.01},"classroomParams":{"A":{"a":1,"b":4},"B":{"a":4,"b":1},"C":{"a":2,"b":8},"D":{"a":8,"b":2}},"conditions":["nonSeqFull","nonSeqPartial","seqNoFeedback","seqFeedback"],"classroomPairings":[["A","B"],["C","D"]],"coinWeights":[0.2,0.5,0.8],"subjectId":"AMV1E7FFPVAW4","assignmentId":"34BBWHLWHBXFTCZCVCM92RYAAH0IW3","hitId":"3YGE63DIN8J20XK20KS1742RQF60WK","url":"https://gershmanlab.com/experiments/alicia/teaching/experiment/?hitId=3YGE63DIN8J20XK20KS1742RQF60WK&workerId=AMV1E7FFPVAW4&assignmentId=34BBWHLWHBXFTCZCVCM92RYAAH0IW3&a=WWB48&tp_a=WWB48&b=34BBWHLWHBXFTCZCVCM92RYAAH0IW3&tp_b=34BBWHLWHBXFTCZCVCM92RYAAH0IW3&c=365198&tp_c=365198"},{"rt":979,"stimulus":"\n            <h4 style=\"color:Orange;\">Student 10</h4>\n            <h2>The weight of your coin is <b style=\"color:Tomato;\">0.5</b>.</h2>\n            <p>In this block, you will be giving <b>one</b> set of examples to Student 10.</p>\n                <p>You will receive feedback at the end of the block.</p>\n            ","response":0,"trial_type":"html-button-response","trial_index":77,"time_elapsed":3531947,"internal_node_id":"0.0-76.0","params":{"nStudents":24,"maxFlips":30,"completionMinutes":45,"basePay":8,"maxBonus":9,"perTrialBonus":0.5,"perTrialBonusThreshold":0.1,"exampleCost":0.01},"classroomParams":{"A":{"a":1,"b":4},"B":{"a":4,"b":1},"C":{"a":2,"b":8},"D":{"a":8,"b":2}},"conditions":["nonSeqFull","nonSeqPartial","seqNoFeedback","seqFeedback"],"classroomPairings":[["A","B"],["C","D"]],"coinWeights":[0.2,0.5,0.8],"subjectId":"AMV1E7FFPVAW4","assignmentId":"34BBWHLWHBXFTCZCVCM92RYAAH0IW3","hitId":"3YGE63DIN8J20XK20KS1742RQF60WK","url":"https://gershmanlab.com/experiments/alicia/teaching/experiment/?hitId=3YGE63DIN8J20XK20KS1742RQF60WK&workerId=AMV1E7FFPVAW4&assignmentId=34BBWHLWHBXFTCZCVCM92RYAAH0IW3&a=WWB48&tp_a=WWB48&b=34BBWHLWHBXFTCZCVCM92RYAAH0IW3&tp_b=34BBWHLWHBXFTCZCVCM92RYAAH0IW3&c=365198&tp_c=365198"},{"rt":4652,"response":{"heads":"05","tails":"0"},"type":"response","condition":"nonSeqPartial","trueTheta":0.5,"classrooms":["C","D"],"studentTrueClassroom":"D","exampleSet":"first","trial_type":"survey-html-form","trial_index":78,"time_elapsed":3536601,"internal_node_id":"0.0-77.0-0.0","params":{"nStudents":24,"maxFlips":30,"completionMinutes":45,"basePay":8,"maxBonus":9,"perTrialBonus":0.5,"perTrialBonusThreshold":0.1,"exampleCost":0.01},"classroomParams":{"A":{"a":1,"b":4},"B":{"a":4,"b":1},"C":{"a":2,"b":8},"D":{"a":8,"b":2}},"conditions":["nonSeqFull","nonSeqPartial","seqNoFeedback","seqFeedback"],"classroomPairings":[["A","B"],["C","D"]],"coinWeights":[0.2,0.5,0.8],"subjectId":"AMV1E7FFPVAW4","assignmentId":"34BBWHLWHBXFTCZCVCM92RYAAH0IW3","hitId":"3YGE63DIN8J20XK20KS1742RQF60WK","url":"https://gershmanlab.com/experiments/alicia/teaching/experiment/?hitId=3YGE63DIN8J20XK20KS1742RQF60WK&workerId=AMV1E7FFPVAW4&assignmentId=34BBWHLWHBXFTCZCVCM92RYAAH0IW3&a=WWB48&tp_a=WWB48&b=34BBWHLWHBXFTCZCVCM92RYAAH0IW3&tp_b=34BBWHLWHBXFTCZCVCM92RYAAH0IW3&c=365198&tp_c=365198","heads":5,"tails":0,"studentIndex":9,"studentTrueHypers":{"a":8,"b":2},"studentGuess":0.8666666666666667,"delta":0.3666666666666667,"totalExamples":5,"bonus":0,"bonusSoFar":0.4},{"rt":null,"stimulus":"Sending examples to student... ","response":null,"trial_type":"html-keyboard-response","trial_index":79,"time_elapsed":3538353,"internal_node_id":"0.0-78.0","params":{"nStudents":24,"maxFlips":30,"completionMinutes":45,"basePay":8,"maxBonus":9,"perTrialBonus":0.5,"perTrialBonusThreshold":0.1,"exampleCost":0.01},"classroomParams":{"A":{"a":1,"b":4},"B":{"a":4,"b":1},"C":{"a":2,"b":8},"D":{"a":8,"b":2}},"conditions":["nonSeqFull","nonSeqPartial","seqNoFeedback","seqFeedback"],"classroomPairings":[["A","B"],["C","D"]],"coinWeights":[0.2,0.5,0.8],"subjectId":"AMV1E7FFPVAW4","assignmentId":"34BBWHLWHBXFTCZCVCM92RYAAH0IW3","hitId":"3YGE63DIN8J20XK20KS1742RQF60WK","url":"https://gershmanlab.com/experiments/alicia/teaching/experiment/?hitId=3YGE63DIN8J20XK20KS1742RQF60WK&workerId=AMV1E7FFPVAW4&assignmentId=34BBWHLWHBXFTCZCVCM92RYAAH0IW3&a=WWB48&tp_a=WWB48&b=34BBWHLWHBXFTCZCVCM92RYAAH0IW3&tp_b=34BBWHLWHBXFTCZCVCM92RYAAH0IW3&c=365198&tp_c=365198"},{"rt":null,"stimulus":"Examples sent to student! Waiting for student...","response":null,"trial_type":"html-keyboard-response","trial_index":80,"time_elapsed":3542857,"internal_node_id":"0.0-79.0","params":{"nStudents":24,"maxFlips":30,"completionMinutes":45,"basePay":8,"maxBonus":9,"perTrialBonus":0.5,"perTrialBonusThreshold":0.1,"exampleCost":0.01},"classroomParams":{"A":{"a":1,"b":4},"B":{"a":4,"b":1},"C":{"a":2,"b":8},"D":{"a":8,"b":2}},"conditions":["nonSeqFull","nonSeqPartial","seqNoFeedback","seqFeedback"],"classroomPairings":[["A","B"],["C","D"]],"coinWeights":[0.2,0.5,0.8],"subjectId":"AMV1E7FFPVAW4","assignmentId":"34BBWHLWHBXFTCZCVCM92RYAAH0IW3","hitId":"3YGE63DIN8J20XK20KS1742RQF60WK","url":"https://gershmanlab.com/experiments/alicia/teaching/experiment/?hitId=3YGE63DIN8J20XK20KS1742RQF60WK&workerId=AMV1E7FFPVAW4&assignmentId=34BBWHLWHBXFTCZCVCM92RYAAH0IW3&a=WWB48&tp_a=WWB48&b=34BBWHLWHBXFTCZCVCM92RYAAH0IW3&tp_b=34BBWHLWHBXFTCZCVCM92RYAAH0IW3&c=365198&tp_c=365198"},{"rt":1223,"stimulus":"\n                <p>Student's guess for coin weight: <b style=\"color:Tomato;\">0.87</b></p>\n                <p>You received a bonus of <b>$0</b>. Total bonus so far: <b>$0.40</b></b></p>\n                <p> Press any key to continue.</p>\n                ","response":"m","trial_type":"html-keyboard-response","trial_index":81,"time_elapsed":3544084,"internal_node_id":"0.0-80.0","params":{"nStudents":24,"maxFlips":30,"completionMinutes":45,"basePay":8,"maxBonus":9,"perTrialBonus":0.5,"perTrialBonusThreshold":0.1,"exampleCost":0.01},"classroomParams":{"A":{"a":1,"b":4},"B":{"a":4,"b":1},"C":{"a":2,"b":8},"D":{"a":8,"b":2}},"conditions":["nonSeqFull","nonSeqPartial","seqNoFeedback","seqFeedback"],"classroomPairings":[["A","B"],["C","D"]],"coinWeights":[0.2,0.5,0.8],"subjectId":"AMV1E7FFPVAW4","assignmentId":"34BBWHLWHBXFTCZCVCM92RYAAH0IW3","hitId":"3YGE63DIN8J20XK20KS1742RQF60WK","url":"https://gershmanlab.com/experiments/alicia/teaching/experiment/?hitId=3YGE63DIN8J20XK20KS1742RQF60WK&workerId=AMV1E7FFPVAW4&assignmentId=34BBWHLWHBXFTCZCVCM92RYAAH0IW3&a=WWB48&tp_a=WWB48&b=34BBWHLWHBXFTCZCVCM92RYAAH0IW3&tp_b=34BBWHLWHBXFTCZCVCM92RYAAH0IW3&c=365198&tp_c=365198"},{"rt":null,"stimulus":"<div style=\"font-size:60px;\">Next student</div>","response":null,"trial_type":"html-keyboard-response","trial_index":82,"time_elapsed":3546587,"internal_node_id":"0.0-81.0-0.0","params":{"nStudents":24,"maxFlips":30,"completionMinutes":45,"basePay":8,"maxBonus":9,"perTrialBonus":0.5,"perTrialBonusThreshold":0.1,"exampleCost":0.01},"classroomParams":{"A":{"a":1,"b":4},"B":{"a":4,"b":1},"C":{"a":2,"b":8},"D":{"a":8,"b":2}},"conditions":["nonSeqFull","nonSeqPartial","seqNoFeedback","seqFeedback"],"classroomPairings":[["A","B"],["C","D"]],"coinWeights":[0.2,0.5,0.8],"subjectId":"AMV1E7FFPVAW4","assignmentId":"34BBWHLWHBXFTCZCVCM92RYAAH0IW3","hitId":"3YGE63DIN8J20XK20KS1742RQF60WK","url":"https://gershmanlab.com/experiments/alicia/teaching/experiment/?hitId=3YGE63DIN8J20XK20KS1742RQF60WK&workerId=AMV1E7FFPVAW4&assignmentId=34BBWHLWHBXFTCZCVCM92RYAAH0IW3&a=WWB48&tp_a=WWB48&b=34BBWHLWHBXFTCZCVCM92RYAAH0IW3&tp_b=34BBWHLWHBXFTCZCVCM92RYAAH0IW3&c=365198&tp_c=365198"},{"rt":1150,"stimulus":"\n            <h4 style=\"color:Orange;\">Student 11</h4>\n            <h2>The weight of your coin is <b style=\"color:Tomato;\">0.2</b>.</h2>\n            <p>In this block, you will be giving <b>two</b> sets of examples to Student 11.</p>\n                <p>You will see the student's guess after the first set of examples. You will also receive feedback at the end of the block.</p>\n            ","response":0,"trial_type":"html-button-response","trial_index":83,"time_elapsed":3547740,"internal_node_id":"0.0-82.0","params":{"nStudents":24,"maxFlips":30,"completionMinutes":45,"basePay":8,"maxBonus":9,"perTrialBonus":0.5,"perTrialBonusThreshold":0.1,"exampleCost":0.01},"classroomParams":{"A":{"a":1,"b":4},"B":{"a":4,"b":1},"C":{"a":2,"b":8},"D":{"a":8,"b":2}},"conditions":["nonSeqFull","nonSeqPartial","seqNoFeedback","seqFeedback"],"classroomPairings":[["A","B"],["C","D"]],"coinWeights":[0.2,0.5,0.8],"subjectId":"AMV1E7FFPVAW4","assignmentId":"34BBWHLWHBXFTCZCVCM92RYAAH0IW3","hitId":"3YGE63DIN8J20XK20KS1742RQF60WK","url":"https://gershmanlab.com/experiments/alicia/teaching/experiment/?hitId=3YGE63DIN8J20XK20KS1742RQF60WK&workerId=AMV1E7FFPVAW4&assignmentId=34BBWHLWHBXFTCZCVCM92RYAAH0IW3&a=WWB48&tp_a=WWB48&b=34BBWHLWHBXFTCZCVCM92RYAAH0IW3&tp_b=34BBWHLWHBXFTCZCVCM92RYAAH0IW3&c=365198&tp_c=365198"},{"rt":6115,"response":{"heads":"02","tails":"0"},"type":"response","condition":"seqFeedback","trueTheta":0.2,"classrooms":["A","B"],"studentTrueClassroom":"B","exampleSet":"first","trial_type":"survey-html-form","trial_index":84,"time_elapsed":3553856,"internal_node_id":"0.0-83.0-0.0","params":{"nStudents":24,"maxFlips":30,"completionMinutes":45,"basePay":8,"maxBonus":9,"perTrialBonus":0.5,"perTrialBonusThreshold":0.1,"exampleCost":0.01},"classroomParams":{"A":{"a":1,"b":4},"B":{"a":4,"b":1},"C":{"a":2,"b":8},"D":{"a":8,"b":2}},"conditions":["nonSeqFull","nonSeqPartial","seqNoFeedback","seqFeedback"],"classroomPairings":[["A","B"],["C","D"]],"coinWeights":[0.2,0.5,0.8],"subjectId":"AMV1E7FFPVAW4","assignmentId":"34BBWHLWHBXFTCZCVCM92RYAAH0IW3","hitId":"3YGE63DIN8J20XK20KS1742RQF60WK","url":"https://gershmanlab.com/experiments/alicia/teaching/experiment/?hitId=3YGE63DIN8J20XK20KS1742RQF60WK&workerId=AMV1E7FFPVAW4&assignmentId=34BBWHLWHBXFTCZCVCM92RYAAH0IW3&a=WWB48&tp_a=WWB48&b=34BBWHLWHBXFTCZCVCM92RYAAH0IW3&tp_b=34BBWHLWHBXFTCZCVCM92RYAAH0IW3&c=365198&tp_c=365198","heads":2,"tails":0,"studentIndex":10,"studentTrueHypers":{"a":4,"b":1},"studentGuess":0.8571428571428571,"delta":0.657142857142857,"totalExamples":2,"bonusSoFar":0.4},{"rt":null,"stimulus":"Sending examples to student... ","response":null,"trial_type":"html-keyboard-response","trial_index":85,"time_elapsed":3555108,"internal_node_id":"0.0-84.0","params":{"nStudents":24,"maxFlips":30,"completionMinutes":45,"basePay":8,"maxBonus":9,"perTrialBonus":0.5,"perTrialBonusThreshold":0.1,"exampleCost":0.01},"classroomParams":{"A":{"a":1,"b":4},"B":{"a":4,"b":1},"C":{"a":2,"b":8},"D":{"a":8,"b":2}},"conditions":["nonSeqFull","nonSeqPartial","seqNoFeedback","seqFeedback"],"classroomPairings":[["A","B"],["C","D"]],"coinWeights":[0.2,0.5,0.8],"subjectId":"AMV1E7FFPVAW4","assignmentId":"34BBWHLWHBXFTCZCVCM92RYAAH0IW3","hitId":"3YGE63DIN8J20XK20KS1742RQF60WK","url":"https://gershmanlab.com/experiments/alicia/teaching/experiment/?hitId=3YGE63DIN8J20XK20KS1742RQF60WK&workerId=AMV1E7FFPVAW4&assignmentId=34BBWHLWHBXFTCZCVCM92RYAAH0IW3&a=WWB48&tp_a=WWB48&b=34BBWHLWHBXFTCZCVCM92RYAAH0IW3&tp_b=34BBWHLWHBXFTCZCVCM92RYAAH0IW3&c=365198&tp_c=365198"},{"rt":null,"stimulus":"Examples sent to student! Waiting for student...","response":null,"trial_type":"html-keyboard-response","trial_index":86,"time_elapsed":3559111,"internal_node_id":"0.0-85.0","params":{"nStudents":24,"maxFlips":30,"completionMinutes":45,"basePay":8,"maxBonus":9,"perTrialBonus":0.5,"perTrialBonusThreshold":0.1,"exampleCost":0.01},"classroomParams":{"A":{"a":1,"b":4},"B":{"a":4,"b":1},"C":{"a":2,"b":8},"D":{"a":8,"b":2}},"conditions":["nonSeqFull","nonSeqPartial","seqNoFeedback","seqFeedback"],"classroomPairings":[["A","B"],["C","D"]],"coinWeights":[0.2,0.5,0.8],"subjectId":"AMV1E7FFPVAW4","assignmentId":"34BBWHLWHBXFTCZCVCM92RYAAH0IW3","hitId":"3YGE63DIN8J20XK20KS1742RQF60WK","url":"https://gershmanlab.com/experiments/alicia/teaching/experiment/?hitId=3YGE63DIN8J20XK20KS1742RQF60WK&workerId=AMV1E7FFPVAW4&assignmentId=34BBWHLWHBXFTCZCVCM92RYAAH0IW3&a=WWB48&tp_a=WWB48&b=34