[{"rt":null,"stimulus":"Welcome to the experiment. Press any key to begin.","response":null,"trial_type":"html-keyboard-response","trial_index":0,"time_elapsed":30666,"internal_node_id":"0.0-0.0","params":{"nStudents":24,"maxFlips":30,"completionMinutes":45,"basePay":8,"maxBonus":9,"perTrialBonus":0.5,"perTrialBonusThreshold":0.1,"exampleCost":0.01},"classroomParams":{"A":{"a":1,"b":4},"B":{"a":4,"b":1},"C":{"a":2,"b":8},"D":{"a":8,"b":2}},"conditions":["nonSeqFull","nonSeqPartial","seqNoFeedback","seqFeedback"],"classroomPairings":[["A","B"],["C","D"]],"coinWeights":[0.2,0.5,0.8],"subjectId":"ARUXG5FD1Q76F","assignmentId":"32UTUBMZ7HISRFL1ZSPWU2BJ8IFBVE","hitId":"3QGHA0EA0JM3KKNCY0PQRLYAHJ3BWH","url":"https://gershmanlab.com/experiments/alicia/teaching/experiment/?hitId=3QGHA0EA0JM3KKNCY0PQRLYAHJ3BWH&workerId=ARUXG5FD1Q76F&assignmentId=32UTUBMZ7HISRFL1ZSPWU2BJ8IFBVE&a=ZUU28&tp_a=ZUU28&b=32UTUBMZ7HISRFL1ZSPWU2BJ8IFBVE&tp_b=32UTUBMZ7HISRFL1ZSPWU2BJ8IFBVE&c=365198&tp_c=365198"},{"rt":65389,"stimulus":"\n        <h3>Please read this consent agreement carefully before deciding whether to participate in this experiment.</h3>\n        <p><b>Purpose of the research:</b> To examine how people teach effectively.</p>\n        <p><b>What you will do in this research:</b> You will teach students the weights of different coins.</p>\n        <p><b>Time required:</b> This experiment will take 45 minutes to complete.</p>\n        <p><b>Risks:</b> There are no anticipated risks associated with participating in this study.             The effects of participating should be comparable to those you would experience from viewing a computer monitor             and using a mouse and keyboard for the duration of the experiment.</p>\n        <p><b>Benefits:</b> The study provides important information about the nature of teaching.</p>\n        <p><b>Compensation:</b> You will receive <b>$8</b> for completing the experiment and a performance bonus of up to <b>$9</b>.</p>\n        <p><b>Confidentiality:</b> Your participation in this study will remain confidential.             No personally identifiable information will be associated with your data.             Your de-identified data may be shared with other researchers and used in future projects.</p>\n        <p><b>Participation and withdrawal:</b> Your participation in this study is completely voluntary and             you may refuse to participate or you may choose to withdraw at any time without penalty or loss of\n            benefits to which you are otherwise entitled.</p>\n        <p><b>How to contact the researcher:</b> If you have questions or concerns about your participation            or payment, or want to request a summary of research findings, please contact\n            Alicia Chen, aliciachen@college.harvard.edu.</p>\n        <p><b>Whom to contact about your rights in this research:</b> For questions, concerns, suggestions,             or complaints that have not been or cannot be addressed by the researcher, or to report             research-related harm, please contact the Committee on the Use of Human Subjects in Research at Harvard University,             1414 Massachusetts Avenue, Second Floor, Cambridge, MA 02138. Phone: 617-496-2847. Email: cuhs@fas.harvard.edu.</p>\n        ","response":0,"trial_type":"html-button-response","trial_index":1,"time_elapsed":96077,"internal_node_id":"0.0-1.0","params":{"nStudents":24,"maxFlips":30,"completionMinutes":45,"basePay":8,"maxBonus":9,"perTrialBonus":0.5,"perTrialBonusThreshold":0.1,"exampleCost":0.01},"classroomParams":{"A":{"a":1,"b":4},"B":{"a":4,"b":1},"C":{"a":2,"b":8},"D":{"a":8,"b":2}},"conditions":["nonSeqFull","nonSeqPartial","seqNoFeedback","seqFeedback"],"classroomPairings":[["A","B"],["C","D"]],"coinWeights":[0.2,0.5,0.8],"subjectId":"ARUXG5FD1Q76F","assignmentId":"32UTUBMZ7HISRFL1ZSPWU2BJ8IFBVE","hitId":"3QGHA0EA0JM3KKNCY0PQRLYAHJ3BWH","url":"https://gershmanlab.com/experiments/alicia/teaching/experiment/?hitId=3QGHA0EA0JM3KKNCY0PQRLYAHJ3BWH&workerId=ARUXG5FD1Q76F&assignmentId=32UTUBMZ7HISRFL1ZSPWU2BJ8IFBVE&a=ZUU28&tp_a=ZUU28&b=32UTUBMZ7HISRFL1ZSPWU2BJ8IFBVE&tp_b=32UTUBMZ7HISRFL1ZSPWU2BJ8IFBVE&c=365198&tp_c=365198"},{"view_history":[{"page_index":0,"viewing_time":6308},{"page_index":1,"viewing_time":7964},{"page_index":2,"viewing_time":74382},{"page_index":3,"viewing_time":18967},{"page_index":4,"viewing_time":9708},{"page_index":5,"viewing_time":25212},{"page_index":6,"viewing_time":40022}],"rt":182562,"trial_type":"instructions","trial_index":2,"time_elapsed":278641,"internal_node_id":"0.0-2.0-0.0","params":{"nStudents":24,"maxFlips":30,"completionMinutes":45,"basePay":8,"maxBonus":9,"perTrialBonus":0.5,"perTrialBonusThreshold":0.1,"exampleCost":0.01},"classroomParams":{"A":{"a":1,"b":4},"B":{"a":4,"b":1},"C":{"a":2,"b":8},"D":{"a":8,"b":2}},"conditions":["nonSeqFull","nonSeqPartial","seqNoFeedback","seqFeedback"],"classroomPairings":[["A","B"],["C","D"]],"coinWeights":[0.2,0.5,0.8],"subjectId":"ARUXG5FD1Q76F","assignmentId":"32UTUBMZ7HISRFL1ZSPWU2BJ8IFBVE","hitId":"3QGHA0EA0JM3KKNCY0PQRLYAHJ3BWH","url":"https://gershmanlab.com/experiments/alicia/teaching/experiment/?hitId=3QGHA0EA0JM3KKNCY0PQRLYAHJ3BWH&workerId=ARUXG5FD1Q76F&assignmentId=32UTUBMZ7HISRFL1ZSPWU2BJ8IFBVE&a=ZUU28&tp_a=ZUU28&b=32UTUBMZ7HISRFL1ZSPWU2BJ8IFBVE&tp_b=32UTUBMZ7HISRFL1ZSPWU2BJ8IFBVE&c=365198&tp_c=365198"},{"rt":51007,"response":{"Q0":"The classrooms are all the same and aren't helpful for deciding how to teach.","Q1":"By teaching efficiently and accurately/helpfully at the same time (because each example I give to the student costs money!).","Q2":"The coin lands heads 90% of the time.","Q3":"Yes, I might encounter the same student twice.","Q4":"The students are also on the same alien planet as you, where coins can be unfair.","Q5":"Based on both guesses."},"question_order":[4,5,2,1,0,3],"trial_type":"survey-multi-choice","trial_index":3,"time_elapsed":329650,"internal_node_id":"0.0-2.0-1.0","params":{"nStudents":24,"maxFlips":30,"completionMinutes":45,"basePay":8,"maxBonus":9,"perTrialBonus":0.5,"perTrialBonusThreshold":0.1,"exampleCost":0.01},"classroomParams":{"A":{"a":1,"b":4},"B":{"a":4,"b":1},"C":{"a":2,"b":8},"D":{"a":8,"b":2}},"conditions":["nonSeqFull","nonSeqPartial","seqNoFeedback","seqFeedback"],"classroomPairings":[["A","B"],["C","D"]],"coinWeights":[0.2,0.5,0.8],"subjectId":"ARUXG5FD1Q76F","assignmentId":"32UTUBMZ7HISRFL1ZSPWU2BJ8IFBVE","hitId":"3QGHA0EA0JM3KKNCY0PQRLYAHJ3BWH","url":"https://gershmanlab.com/experiments/alicia/teaching/experiment/?hitId=3QGHA0EA0JM3KKNCY0PQRLYAHJ3BWH&workerId=ARUXG5FD1Q76F&assignmentId=32UTUBMZ7HISRFL1ZSPWU2BJ8IFBVE&a=ZUU28&tp_a=ZUU28&b=32UTUBMZ7HISRFL1ZSPWU2BJ8IFBVE&tp_b=32UTUBMZ7HISRFL1ZSPWU2BJ8IFBVE&c=365198&tp_c=365198","pass":false},{"rt":2363,"stimulus":"Oops, you have missed question(s) on the comprehension check! We'll show you the instructions again.","response":0,"trial_type":"html-button-response","trial_index":4,"time_elapsed":332016,"internal_node_id":"0.0-2.0-2.0-0.0","params":{"nStudents":24,"maxFlips":30,"completionMinutes":45,"basePay":8,"maxBonus":9,"perTrialBonus":0.5,"perTrialBonusThreshold":0.1,"exampleCost":0.01},"classroomParams":{"A":{"a":1,"b":4},"B":{"a":4,"b":1},"C":{"a":2,"b":8},"D":{"a":8,"b":2}},"conditions":["nonSeqFull","nonSeqPartial","seqNoFeedback","seqFeedback"],"classroomPairings":[["A","B"],["C","D"]],"coinWeights":[0.2,0.5,0.8],"subjectId":"ARUXG5FD1Q76F","assignmentId":"32UTUBMZ7HISRFL1ZSPWU2BJ8IFBVE","hitId":"3QGHA0EA0JM3KKNCY0PQRLYAHJ3BWH","url":"https://gershmanlab.com/experiments/alicia/teaching/experiment/?hitId=3QGHA0EA0JM3KKNCY0PQRLYAHJ3BWH&workerId=ARUXG5FD1Q76F&assignmentId=32UTUBMZ7HISRFL1ZSPWU2BJ8IFBVE&a=ZUU28&tp_a=ZUU28&b=32UTUBMZ7HISRFL1ZSPWU2BJ8IFBVE&tp_b=32UTUBMZ7HISRFL1ZSPWU2BJ8IFBVE&c=365198&tp_c=365198"},{"view_history":[{"page_index":0,"viewing_time":1798},{"page_index":1,"viewing_time":1199},{"page_index":2,"viewing_time":9292},{"page_index":3,"viewing_time":2423},{"page_index":4,"viewing_time":7772},{"page_index":5,"viewing_time":9852},{"page_index":6,"viewing_time":3046}],"rt":35382,"trial_type":"instructions","trial_index":5,"time_elapsed":367400,"internal_node_id":"0.0-2.1-0.1","params":{"nStudents":24,"maxFlips":30,"completionMinutes":45,"basePay":8,"maxBonus":9,"perTrialBonus":0.5,"perTrialBonusThreshold":0.1,"exampleCost":0.01},"classroomParams":{"A":{"a":1,"b":4},"B":{"a":4,"b":1},"C":{"a":2,"b":8},"D":{"a":8,"b":2}},"conditions":["nonSeqFull","nonSeqPartial","seqNoFeedback","seqFeedback"],"classroomPairings":[["A","B"],["C","D"]],"coinWeights":[0.2,0.5,0.8],"subjectId":"ARUXG5FD1Q76F","assignmentId":"32UTUBMZ7HISRFL1ZSPWU2BJ8IFBVE","hitId":"3QGHA0EA0JM3KKNCY0PQRLYAHJ3BWH","url":"https://gershmanlab.com/experiments/alicia/teaching/experiment/?hitId=3QGHA0EA0JM3KKNCY0PQRLYAHJ3BWH&workerId=ARUXG5FD1Q76F&assignmentId=32UTUBMZ7HISRFL1ZSPWU2BJ8IFBVE&a=ZUU28&tp_a=ZUU28&b=32UTUBMZ7HISRFL1ZSPWU2BJ8IFBVE&tp_b=32UTUBMZ7HISRFL1ZSPWU2BJ8IFBVE&c=365198&tp_c=365198"},{"rt":29786,"response":{"Q0":"Students in different classrooms have seen a different proportion of fair and unfair coins before seeing the examples you select for them.","Q1":"By teaching efficiently and accurately/helpfully at the same time (because each example I give to the student costs money!).","Q2":"The coin lands heads 90% of the time.","Q3":"No, I will teach a <b>new</b> student each time.","Q4":"The students are also on the same alien planet as you, where coins can be unfair.","Q5":"Based on both guesses."},"question_order":[0,2,1,5,3,4],"trial_type":"survey-multi-choice","trial_index":6,"time_elapsed":397186,"internal_node_id":"0.0-2.1-1.1","params":{"nStudents":24,"maxFlips":30,"completionMinutes":45,"basePay":8,"maxBonus":9,"perTrialBonus":0.5,"perTrialBonusThreshold":0.1,"exampleCost":0.01},"classroomParams":{"A":{"a":1,"b":4},"B":{"a":4,"b":1},"C":{"a":2,"b":8},"D":{"a":8,"b":2}},"conditions":["nonSeqFull","nonSeqPartial","seqNoFeedback","seqFeedback"],"classroomPairings":[["A","B"],["C","D"]],"coinWeights":[0.2,0.5,0.8],"subjectId":"ARUXG5FD1Q76F","assignmentId":"32UTUBMZ7HISRFL1ZSPWU2BJ8IFBVE","hitId":"3QGHA0EA0JM3KKNCY0PQRLYAHJ3BWH","url":"https://gershmanlab.com/experiments/alicia/teaching/experiment/?hitId=3QGHA0EA0JM3KKNCY0PQRLYAHJ3BWH&workerId=ARUXG5FD1Q76F&assignmentId=32UTUBMZ7HISRFL1ZSPWU2BJ8IFBVE&a=ZUU28&tp_a=ZUU28&b=32UTUBMZ7HISRFL1ZSPWU2BJ8IFBVE&tp_b=32UTUBMZ7HISRFL1ZSPWU2BJ8IFBVE&c=365198&tp_c=365198","pass":false},{"rt":1860,"stimulus":"Oops, you have missed question(s) on the comprehension check! We'll show you the instructions again.","response":0,"trial_type":"html-button-response","trial_index":7,"time_elapsed":399048,"internal_node_id":"0.0-2.1-2.1-0.1","params":{"nStudents":24,"maxFlips":30,"completionMinutes":45,"basePay":8,"maxBonus":9,"perTrialBonus":0.5,"perTrialBonusThreshold":0.1,"exampleCost":0.01},"classroomParams":{"A":{"a":1,"b":4},"B":{"a":4,"b":1},"C":{"a":2,"b":8},"D":{"a":8,"b":2}},"conditions":["nonSeqFull","nonSeqPartial","seqNoFeedback","seqFeedback"],"classroomPairings":[["A","B"],["C","D"]],"coinWeights":[0.2,0.5,0.8],"subjectId":"ARUXG5FD1Q76F","assignmentId":"32UTUBMZ7HISRFL1ZSPWU2BJ8IFBVE","hitId":"3QGHA0EA0JM3KKNCY0PQRLYAHJ3BWH","url":"https://gershmanlab.com/experiments/alicia/teaching/experiment/?hitId=3QGHA0EA0JM3KKNCY0PQRLYAHJ3BWH&workerId=ARUXG5FD1Q76F&assignmentId=32UTUBMZ7HISRFL1ZSPWU2BJ8IFBVE&a=ZUU28&tp_a=ZUU28&b=32UTUBMZ7HISRFL1ZSPWU2BJ8IFBVE&tp_b=32UTUBMZ7HISRFL1ZSPWU2BJ8IFBVE&c=365198&tp_c=365198"},{"view_history":[{"page_index":0,"viewing_time":2622},{"page_index":1,"viewing_time":1911},{"page_index":2,"viewing_time":9403},{"page_index":3,"viewing_time":7085},{"page_index":4,"viewing_time":7701},{"page_index":5,"viewing_time":15712},{"page_index":6,"viewing_time":2447}],"rt":46882,"trial_type":"instructions","trial_index":8,"time_elapsed":445931,"internal_node_id":"0.0-2.2-0.2","params":{"nStudents":24,"maxFlips":30,"completionMinutes":45,"basePay":8,"maxBonus":9,"perTrialBonus":0.5,"perTrialBonusThreshold":0.1,"exampleCost":0.01},"classroomParams":{"A":{"a":1,"b":4},"B":{"a":4,"b":1},"C":{"a":2,"b":8},"D":{"a":8,"b":2}},"conditions":["nonSeqFull","nonSeqPartial","seqNoFeedback","seqFeedback"],"classroomPairings":[["A","B"],["C","D"]],"coinWeights":[0.2,0.5,0.8],"subjectId":"ARUXG5FD1Q76F","assignmentId":"32UTUBMZ7HISRFL1ZSPWU2BJ8IFBVE","hitId":"3QGHA0EA0JM3KKNCY0PQRLYAHJ3BWH","url":"https://gershmanlab.com/experiments/alicia/teaching/experiment/?hitId=3QGHA0EA0JM3KKNCY0PQRLYAHJ3BWH&workerId=ARUXG5FD1Q76F&assignmentId=32UTUBMZ7HISRFL1ZSPWU2BJ8IFBVE&a=ZUU28&tp_a=ZUU28&b=32UTUBMZ7HISRFL1ZSPWU2BJ8IFBVE&tp_b=32UTUBMZ7HISRFL1ZSPWU2BJ8IFBVE&c=365198&tp_c=365198"},{"rt":21757,"response":{"Q0":"Students in different classrooms will have seen a different number of heads and tails before seeing the examples you select for them.","Q1":"By teaching efficiently and accurately/helpfully at the same time (because each example I give to the student costs money!).","Q2":"The coin lands heads 90% of the time.","Q3":"No, I will teach a <b>new</b> student each time.","Q4":"The students are also on the same alien planet as you, where coins can be unfair.","Q5":"Based on both guesses."},"question_order":[4,0,2,5,3,1],"trial_type":"survey-multi-choice","trial_index":9,"time_elapsed":467689,"internal_node_id":"0.0-2.2-1.2","params":{"nStudents":24,"maxFlips":30,"completionMinutes":45,"basePay":8,"maxBonus":9,"perTrialBonus":0.5,"perTrialBonusThreshold":0.1,"exampleCost":0.01},"classroomParams":{"A":{"a":1,"b":4},"B":{"a":4,"b":1},"C":{"a":2,"b":8},"D":{"a":8,"b":2}},"conditions":["nonSeqFull","nonSeqPartial","seqNoFeedback","seqFeedback"],"classroomPairings":[["A","B"],["C","D"]],"coinWeights":[0.2,0.5,0.8],"subjectId":"ARUXG5FD1Q76F","assignmentId":"32UTUBMZ7HISRFL1ZSPWU2BJ8IFBVE","hitId":"3QGHA0EA0JM3KKNCY0PQRLYAHJ3BWH","url":"https://gershmanlab.com/experiments/alicia/teaching/experiment/?hitId=3QGHA0EA0JM3KKNCY0PQRLYAHJ3BWH&workerId=ARUXG5FD1Q76F&assignmentId=32UTUBMZ7HISRFL1ZSPWU2BJ8IFBVE&a=ZUU28&tp_a=ZUU28&b=32UTUBMZ7HISRFL1ZSPWU2BJ8IFBVE&tp_b=32UTUBMZ7HISRFL1ZSPWU2BJ8IFBVE&c=365198&tp_c=365198","pass":false},{"rt":1836,"stimulus":"Oops, you have missed question(s) on the comprehension check! We'll show you the instructions again.","response":0,"trial_type":"html-button-response","trial_index":10,"time_elapsed":469528,"internal_node_id":"0.0-2.2-2.2-0.2","params":{"nStudents":24,"maxFlips":30,"completionMinutes":45,"basePay":8,"maxBonus":9,"perTrialBonus":0.5,"perTrialBonusThreshold":0.1,"exampleCost":0.01},"classroomParams":{"A":{"a":1,"b":4},"B":{"a":4,"b":1},"C":{"a":2,"b":8},"D":{"a":8,"b":2}},"conditions":["nonSeqFull","nonSeqPartial","seqNoFeedback","seqFeedback"],"classroomPairings":[["A","B"],["C","D"]],"coinWeights":[0.2,0.5,0.8],"subjectId":"ARUXG5FD1Q76F","assignmentId":"32UTUBMZ7HISRFL1ZSPWU2BJ8IFBVE","hitId":"3QGHA0EA0JM3KKNCY0PQRLYAHJ3BWH","url":"https://gershmanlab.com/experiments/alicia/teaching/experiment/?hitId=3QGHA0EA0JM3KKNCY0PQRLYAHJ3BWH&workerId=ARUXG5FD1Q76F&assignmentId=32UTUBMZ7HISRFL1ZSPWU2BJ8IFBVE&a=ZUU28&tp_a=ZUU28&b=32UTUBMZ7HISRFL1ZSPWU2BJ8IFBVE&tp_b=32UTUBMZ7HISRFL1ZSPWU2BJ8IFBVE&c=365198&tp_c=365198"},{"view_history":[{"page_index":0,"viewing_time":1439},{"page_index":1,"viewing_time":4854},{"page_index":2,"viewing_time":20758},{"page_index":3,"viewing_time":10891},{"page_index":4,"viewing_time":11523},{"page_index":5,"viewing_time":17592},{"page_index":6,"viewing_time":33560}],"rt":100617,"trial_type":"instructions","trial_index":11,"time_elapsed":570146,"internal_node_id":"0.0-2.3-0.3","params":{"nStudents":24,"maxFlips":30,"completionMinutes":45,"basePay":8,"maxBonus":9,"perTrialBonus":0.5,"perTrialBonusThreshold":0.1,"exampleCost":0.01},"classroomParams":{"A":{"a":1,"b":4},"B":{"a":4,"b":1},"C":{"a":2,"b":8},"D":{"a":8,"b":2}},"conditions":["nonSeqFull","nonSeqPartial","seqNoFeedback","seqFeedback"],"classroomPairings":[["A","B"],["C","D"]],"coinWeights":[0.2,0.5,0.8],"subjectId":"ARUXG5FD1Q76F","assignmentId":"32UTUBMZ7HISRFL1ZSPWU2BJ8IFBVE","hitId":"3QGHA0EA0JM3KKNCY0PQRLYAHJ3BWH","url":"https://gershmanlab.com/experiments/alicia/teaching/experiment/?hitId=3QGHA0EA0JM3KKNCY0PQRLYAHJ3BWH&workerId=ARUXG5FD1Q76F&assignmentId=32UTUBMZ7HISRFL1ZSPWU2BJ8IFBVE&a=ZUU28&tp_a=ZUU28&b=32UTUBMZ7HISRFL1ZSPWU2BJ8IFBVE&tp_b=32UTUBMZ7HISRFL1ZSPWU2BJ8IFBVE&c=365198&tp_c=365198"},{"rt":19366,"response":{"Q0":"Students in different classrooms will have seen a different number of heads and tails before seeing the examples you select for them.","Q1":"By teaching efficiently and accurately/helpfully at the same time (because each example I give to the student costs money!).","Q2":"The coin lands heads 90% of the time.","Q3":"No, I will teach a <b>new</b> student each time.","Q4":"The students are also on the same alien planet as you, where coins can be unfair.","Q5":"Based on the student's second (and final) guess."},"question_order":[4,3,5,2,1,0],"trial_type":"survey-multi-choice","trial_index":12,"time_elapsed":589513,"internal_node_id":"0.0-2.3-1.3","params":{"nStudents":24,"maxFlips":30,"completionMinutes":45,"basePay":8,"maxBonus":9,"perTrialBonus":0.5,"perTrialBonusThreshold":0.1,"exampleCost":0.01},"classroomParams":{"A":{"a":1,"b":4},"B":{"a":4,"b":1},"C":{"a":2,"b":8},"D":{"a":8,"b":2}},"conditions":["nonSeqFull","nonSeqPartial","seqNoFeedback","seqFeedback"],"classroomPairings":[["A","B"],["C","D"]],"coinWeights":[0.2,0.5,0.8],"subjectId":"ARUXG5FD1Q76F","assignmentId":"32UTUBMZ7HISRFL1ZSPWU2BJ8IFBVE","hitId":"3QGHA0EA0JM3KKNCY0PQRLYAHJ3BWH","url":"https://gershmanlab.com/experiments/alicia/teaching/experiment/?hitId=3QGHA0EA0JM3KKNCY0PQRLYAHJ3BWH&workerId=ARUXG5FD1Q76F&assignmentId=32UTUBMZ7HISRFL1ZSPWU2BJ8IFBVE&a=ZUU28&tp_a=ZUU28&b=32UTUBMZ7HISRFL1ZSPWU2BJ8IFBVE&tp_b=32UTUBMZ7HISRFL1ZSPWU2BJ8IFBVE&c=365198&tp_c=365198","pass":true},{"rt":null,"stimulus":"<div style=\"font-size:30px;\">Congrats on passing the comprehension quiz! The experiment will begin in a few seconds.</div>","response":null,"trial_type":"html-keyboard-response","trial_index":13,"time_elapsed":592516,"internal_node_id":"0.0-3.0","params":{"nStudents":24,"maxFlips":30,"completionMinutes":45,"basePay":8,"maxBonus":9,"perTrialBonus":0.5,"perTrialBonusThreshold":0.1,"exampleCost":0.01},"classroomParams":{"A":{"a":1,"b":4},"B":{"a":4,"b":1},"C":{"a":2,"b":8},"D":{"a":8,"b":2}},"conditions":["nonSeqFull","nonSeqPartial","seqNoFeedback","seqFeedback"],"classroomPairings":[["A","B"],["C","D"]],"coinWeights":[0.2,0.5,0.8],"subjectId":"ARUXG5FD1Q76F","assignmentId":"32UTUBMZ7HISRFL1ZSPWU2BJ8IFBVE","hitId":"3QGHA0EA0JM3KKNCY0PQRLYAHJ3BWH","url":"https://gershmanlab.com/experiments/alicia/teaching/experiment/?hitId=3QGHA0EA0JM3KKNCY0PQRLYAHJ3BWH&workerId=ARUXG5FD1Q76F&assignmentId=32UTUBMZ7HISRFL1ZSPWU2BJ8IFBVE&a=ZUU28&tp_a=ZUU28&b=32UTUBMZ7HISRFL1ZSPWU2BJ8IFBVE&tp_b=32UTUBMZ7HISRFL1ZSPWU2BJ8IFBVE&c=365198&tp_c=365198"},{"rt":null,"stimulus":"<div style=\"font-size:50px;\">First student</div>","response":null,"trial_type":"html-keyboard-response","trial_index":14,"time_elapsed":595520,"internal_node_id":"0.0-4.0","params":{"nStudents":24,"maxFlips":30,"completionMinutes":45,"basePay":8,"maxBonus":9,"perTrialBonus":0.5,"perTrialBonusThreshold":0.1,"exampleCost":0.01},"classroomParams":{"A":{"a":1,"b":4},"B":{"a":4,"b":1},"C":{"a":2,"b":8},"D":{"a":8,"b":2}},"conditions":["nonSeqFull","nonSeqPartial","seqNoFeedback","seqFeedback"],"classroomPairings":[["A","B"],["C","D"]],"coinWeights":[0.2,0.5,0.8],"subjectId":"ARUXG5FD1Q76F","assignmentId":"32UTUBMZ7HISRFL1ZSPWU2BJ8IFBVE","hitId":"3QGHA0EA0JM3KKNCY0PQRLYAHJ3BWH","url":"https://gershmanlab.com/experiments/alicia/teaching/experiment/?hitId=3QGHA0EA0JM3KKNCY0PQRLYAHJ3BWH&workerId=ARUXG5FD1Q76F&assignmentId=32UTUBMZ7HISRFL1ZSPWU2BJ8IFBVE&a=ZUU28&tp_a=ZUU28&b=32UTUBMZ7HISRFL1ZSPWU2BJ8IFBVE&tp_b=32UTUBMZ7HISRFL1ZSPWU2BJ8IFBVE&c=365198&tp_c=365198"},{"rt":11159,"stimulus":"\n            <h4 style=\"color:Orange;\">Student 1</h4>\n            <h2>The weight of your coin is <b style=\"color:Tomato;\">0.5</b>.</h2>\n            <p>In this block, you will be giving <b>two</b> sets of examples to Student 1.</p>\n                <p>You will see the student's guess after the first set of examples. You will also receive feedback at the end of the block.</p>\n            ","response":0,"trial_type":"html-button-response","trial_index":15,"time_elapsed":606681,"internal_node_id":"0.0-5.0","params":{"nStudents":24,"maxFlips":30,"completionMinutes":45,"basePay":8,"maxBonus":9,"perTrialBonus":0.5,"perTrialBonusThreshold":0.1,"exampleCost":0.01},"classroomParams":{"A":{"a":1,"b":4},"B":{"a":4,"b":1},"C":{"a":2,"b":8},"D":{"a":8,"b":2}},"conditions":["nonSeqFull","nonSeqPartial","seqNoFeedback","seqFeedback"],"classroomPairings":[["A","B"],["C","D"]],"coinWeights":[0.2,0.5,0.8],"subjectId":"ARUXG5FD1Q76F","assignmentId":"32UTUBMZ7HISRFL1ZSPWU2BJ8IFBVE","hitId":"3QGHA0EA0JM3KKNCY0PQRLYAHJ3BWH","url":"https://gershmanlab.com/experiments/alicia/teaching/experiment/?hitId=3QGHA0EA0JM3KKNCY0PQRLYAHJ3BWH&workerId=ARUXG5FD1Q76F&assignmentId=32UTUBMZ7HISRFL1ZSPWU2BJ8IFBVE&a=ZUU28&tp_a=ZUU28&b=32UTUBMZ7HISRFL1ZSPWU2BJ8IFBVE&tp_b=32UTUBMZ7HISRFL1ZSPWU2BJ8IFBVE&c=365198&tp_c=365198"},{"rt":34895,"response":{"heads":"2","tails":"2"},"type":"response","condition":"seqFeedback","trueTheta":0.5,"classrooms":["A","B"],"studentTrueClassroom":"A","exampleSet":"first","trial_type":"survey-html-form","trial_index":16,"time_elapsed":641577,"internal_node_id":"0.0-6.0-0.0","params":{"nStudents":24,"maxFlips":30,"completionMinutes":45,"basePay":8,"maxBonus":9,"perTrialBonus":0.5,"perTrialBonusThreshold":0.1,"exampleCost":0.01},"classroomParams":{"A":{"a":1,"b":4},"B":{"a":4,"b":1},"C":{"a":2,"b":8},"D":{"a":8,"b":2}},"conditions":["nonSeqFull","nonSeqPartial","seqNoFeedback","seqFeedback"],"classroomPairings":[["A","B"],["C","D"]],"coinWeights":[0.2,0.5,0.8],"subjectId":"ARUXG5FD1Q76F","assignmentId":"32UTUBMZ7HISRFL1ZSPWU2BJ8IFBVE","hitId":"3QGHA0EA0JM3KKNCY0PQRLYAHJ3BWH","url":"https://gershmanlab.com/experiments/alicia/teaching/experiment/?hitId=3QGHA0EA0JM3KKNCY0PQRLYAHJ3BWH&workerId=ARUXG5FD1Q76F&assignmentId=32UTUBMZ7HISRFL1ZSPWU2BJ8IFBVE&a=ZUU28&tp_a=ZUU28&b=32UTUBMZ7HISRFL1ZSPWU2BJ8IFBVE&tp_b=32UTUBMZ7HISRFL1ZSPWU2BJ8IFBVE&c=365198&tp_c=365198","heads":2,"tails":2,"studentIndex":0,"studentTrueHypers":{"a":1,"b":4},"studentGuess":0.3333333333333333,"delta":0.16666666666666669,"totalExamples":4,"bonusSoFar":0},{"rt":null,"stimulus":"Sending examples to student... ","response":null,"trial_type":"html-keyboard-response","trial_index":17,"time_elapsed":643579,"internal_node_id":"0.0-7.0","params":{"nStudents":24,"maxFlips":30,"completionMinutes":45,"basePay":8,"maxBonus":9,"perTrialBonus":0.5,"perTrialBonusThreshold":0.1,"exampleCost":0.01},"classroomParams":{"A":{"a":1,"b":4},"B":{"a":4,"b":1},"C":{"a":2,"b":8},"D":{"a":8,"b":2}},"conditions":["nonSeqFull","nonSeqPartial","seqNoFeedback","seqFeedback"],"classroomPairings":[["A","B"],["C","D"]],"coinWeights":[0.2,0.5,0.8],"subjectId":"ARUXG5FD1Q76F","assignmentId":"32UTUBMZ7HISRFL1ZSPWU2BJ8IFBVE","hitId":"3QGHA0EA0JM3KKNCY0PQRLYAHJ3BWH","url":"https://gershmanlab.com/experiments/alicia/teaching/experiment/?hitId=3QGHA0EA0JM3KKNCY0PQRLYAHJ3BWH&workerId=ARUXG5FD1Q76F&assignmentId=32UTUBMZ7HISRFL1ZSPWU2BJ8IFBVE&a=ZUU28&tp_a=ZUU28&b=32UTUBMZ7HISRFL1ZSPWU2BJ8IFBVE&tp_b=32UTUBMZ7HISRFL1ZSPWU2BJ8IFBVE&c=365198&tp_c=365198"},{"rt":null,"stimulus":"Examples sent to student! Waiting for student...","response":null,"trial_type":"html-keyboard-response","trial_index":18,"time_elapsed":648592,"internal_node_id":"0.0-8.0","params":{"nStudents":24,"maxFlips":30,"completionMinutes":45,"basePay":8,"maxBonus":9,"perTrialBonus":0.5,"perTrialBonusThreshold":0.1,"exampleCost":0.01},"classroomParams":{"A":{"a":1,"b":4},"B":{"a":4,"b":1},"C":{"a":2,"b":8},"D":{"a":8,"b":2}},"conditions":["nonSeqFull","nonSeqPartial","seqNoFeedback","seqFeedback"],"classroomPairings":[["A","B"],["C","D"]],"coinWeights":[0.2,0.5,0.8],"subjectId":"ARUXG5FD1Q76F","assignmentId":"32UTUBMZ7HISRFL1ZSPWU2BJ8IFBVE","hitId":"3QGHA0EA0JM3KKNCY0PQRLYAHJ3BWH","url":"https://gershmanlab.com/experiments/alicia/teaching/experiment/?hitId=3QGHA0EA0JM3KKNCY0PQRLYAHJ3BWH&workerId=ARUXG5FD1Q76F&assignmentId=32UTUBMZ7HISRFL1ZSPWU2BJ8IFBVE&a=ZUU28&tp_a=ZUU28&b=32UTUBMZ7HISRFL1ZSPWU2BJ8IFBVE&tp_b=32UTUBMZ7HISRFL1ZSPWU2BJ8IFBVE&c=365198&tp_c=365198"},{"rt":5309,"stimulus":"\n                <p>Student's guess for coin weight: <b style=\"color:Tomato;\">0.33</b></p>\n                <p></b></p>\n                <p>You will now send another set of examples to your student. Press any key to continue.</p>\n                ","response":" ","trial_type":"html-keyboard-response","trial_index":19,"time_elapsed":653905,"internal_node_id":"0.0-9.0","params":{"nStudents":24,"maxFlips":30,"completionMinutes":45,"basePay":8,"maxBonus":9,"perTrialBonus":0.5,"perTrialBonusThreshold":0.1,"exampleCost":0.01},"classroomParams":{"A":{"a":1,"b":4},"B":{"a":4,"b":1},"C":{"a":2,"b":8},"D":{"a":8,"b":2}},"conditions":["nonSeqFull","nonSeqPartial","seqNoFeedback","seqFeedback"],"classroomPairings":[["A","B"],["C","D"]],"coinWeights":[0.2,0.5,0.8],"subjectId":"ARUXG5FD1Q76F","assignmentId":"32UTUBMZ7HISRFL1ZSPWU2BJ8IFBVE","hitId":"3QGHA0EA0JM3KKNCY0PQRLYAHJ3BWH","url":"https://gershmanlab.com/experiments/alicia/teaching/experiment/?hitId=3QGHA0EA0JM3KKNCY0PQRLYAHJ3BWH&workerId=ARUXG5FD1Q76F&assignmentId=32UTUBMZ7HISRFL1ZSPWU2BJ8IFBVE&a=ZUU28&tp_a=ZUU28&b=32UTUBMZ7HISRFL1ZSPWU2BJ8IFBVE&tp_b=32UTUBMZ7HISRFL1ZSPWU2BJ8IFBVE&c=365198&tp_c=365198"},{"rt":9268,"response":{"heads":"10","tails":"10"},"type":"response","condition":"seqFeedback","trueTheta":0.5,"classrooms":["A","B"],"studentTrueClassroom":"A","exampleSet":"second","trial_type":"survey-html-form","trial_index":20,"time_elapsed":663175,"internal_node_id":"0.0-10.0-0.0","params":{"nStudents":24,"maxFlips":30,"completionMinutes":45,"basePay":8,"maxBonus":9,"perTrialBonus":0.5,"perTrialBonusThreshold":0.1,"exampleCost":0.01},"classroomParams":{"A":{"a":1,"b":4},"B":{"a":4,"b":1},"C":{"a":2,"b":8},"D":{"a":8,"b":2}},"conditions":["nonSeqFull","nonSeqPartial","seqNoFeedback","seqFeedback"],"classroomPairings":[["A","B"],["C","D"]],"coinWeights":[0.2,0.5,0.8],"subjectId":"ARUXG5FD1Q76F","assignmentId":"32UTUBMZ7HISRFL1ZSPWU2BJ8IFBVE","hitId":"3QGHA0EA0JM3KKNCY0PQRLYAHJ3BWH","url":"https://gershmanlab.com/experiments/alicia/teaching/experiment/?hitId=3QGHA0EA0JM3KKNCY0PQRLYAHJ3BWH&workerId=ARUXG5FD1Q76F&assignmentId=32UTUBMZ7HISRFL1ZSPWU2BJ8IFBVE&a=ZUU28&tp_a=ZUU28&b=32UTUBMZ7HISRFL1ZSPWU2BJ8IFBVE&tp_b=32UTUBMZ7HISRFL1ZSPWU2BJ8IFBVE&c=365198&tp_c=365198","firstResponseHeads":2,"firstResponseTails":2,"secondResponseHeads":10,"secondResponseTails":10,"studentIndex":0,"studentTrueHypers":{"a":1,"b":4},"studentGuess":0.4482758620689655,"delta":0.051724137931034475,"bonus":0.26,"bonusSoFar":0.26,"totalExamples":24},{"rt":null,"stimulus":"Sending examples to student... ","response":null,"trial_type":"html-keyboard-response","trial_index":21,"time_elapsed":664684,"internal_node_id":"0.0-11.0","params":{"nStudents":24,"maxFlips":30,"completionMinutes":45,"basePay":8,"maxBonus":9,"perTrialBonus":0.5,"perTrialBonusThreshold":0.1,"exampleCost":0.01},"classroomParams":{"A":{"a":1,"b":4},"B":{"a":4,"b":1},"C":{"a":2,"b":8},"D":{"a":8,"b":2}},"conditions":["nonSeqFull","nonSeqPartial","seqNoFeedback","seqFeedback"],"classroomPairings":[["A","B"],["C","D"]],"coinWeights":[0.2,0.5,0.8],"subjectId":"ARUXG5FD1Q76F","assignmentId":"32UTUBMZ7HISRFL1ZSPWU2BJ8IFBVE","hitId":"3QGHA0EA0JM3KKNCY0PQRLYAHJ3BWH","url":"https://gershmanlab.com/experiments/alicia/teaching/experiment/?hitId=3QGHA0EA0JM3KKNCY0PQRLYAHJ3BWH&workerId=ARUXG5FD1Q76F&assignmentId=32UTUBMZ7HISRFL1ZSPWU2BJ8IFBVE&a=ZUU28&tp_a=ZUU28&b=32UTUBMZ7HISRFL1ZSPWU2BJ8IFBVE&tp_b=32UTUBMZ7HISRFL1ZSPWU2BJ8IFBVE&c=365198&tp_c=365198"},{"rt":null,"stimulus":"Examples sent to student! Waiting for student...","response":null,"trial_type":"html-keyboard-response","trial_index":22,"time_elapsed":669190,"internal_node_id":"0.0-12.0","params":{"nStudents":24,"maxFlips":30,"completionMinutes":45,"basePay":8,"maxBonus":9,"perTrialBonus":0.5,"perTrialBonusThreshold":0.1,"exampleCost":0.01},"classroomParams":{"A":{"a":1,"b":4},"B":{"a":4,"b":1},"C":{"a":2,"b":8},"D":{"a":8,"b":2}},"conditions":["nonSeqFull","nonSeqPartial","seqNoFeedback","seqFeedback"],"classroomPairings":[["A","B"],["C","D"]],"coinWeights":[0.2,0.5,0.8],"subjectId":"ARUXG5FD1Q76F","assignmentId":"32UTUBMZ7HISRFL1ZSPWU2BJ8IFBVE","hitId":"3QGHA0EA0JM3KKNCY0PQRLYAHJ3BWH","url":"https://gershmanlab.com/experiments/alicia/teaching/experiment/?hitId=3QGHA0EA0JM3KKNCY0PQRLYAHJ3BWH&workerId=ARUXG5FD1Q76F&assignmentId=32UTUBMZ7HISRFL1ZSPWU2BJ8IFBVE&a=ZUU28&tp_a=ZUU28&b=32UTUBMZ7HISRFL1ZSPWU2BJ8IFBVE&tp_b=32UTUBMZ7HISRFL1ZSPWU2BJ8IFBVE&c=365198&tp_c=365198"},{"rt":13782,"stimulus":"\n                <p>Student 1's first guess for coin weight: <b style=\"color:Tomato\";>0.33</b></p>\n                <p>Student 1's second guess for coin weight: <b style=\"color:Tomato\";>0.45</b></p>\n                <p>You received a bonus of <b>$0.26</b> based on the student's second guess.</p>\n                <p>Total bonus so far: <b>$0.26</b></p>\n                <p>Press any key to continue.</p>\n                ","response":" ","trial_type":"html-keyboard-response","trial_index":23,"time_elapsed":682975,"internal_node_id":"0.0-13.0","params":{"nStudents":24,"maxFlips":30,"completionMinutes":45,"basePay":8,"maxBonus":9,"perTrialBonus":0.5,"perTrialBonusThreshold":0.1,"exampleCost":0.01},"classroomParams":{"A":{"a":1,"b":4},"B":{"a":4,"b":1},"C":{"a":2,"b":8},"D":{"a":8,"b":2}},"conditions":["nonSeqFull","nonSeqPartial","seqNoFeedback","seqFeedback"],"classroomPairings":[["A","B"],["C","D"]],"coinWeights":[0.2,0.5,0.8],"subjectId":"ARUXG5FD1Q76F","assignmentId":"32UTUBMZ7HISRFL1ZSPWU2BJ8IFBVE","hitId":"3QGHA0EA0JM3KKNCY0PQRLYAHJ3BWH","url":"https://gershmanlab.com/experiments/alicia/teaching/experiment/?hitId=3QGHA0EA0JM3KKNCY0PQRLYAHJ3BWH&workerId=ARUXG5FD1Q76F&assignmentId=32UTUBMZ7HISRFL1ZSPWU2BJ8IFBVE&a=ZUU28&tp_a=ZUU28&b=32UTUBMZ7HISRFL1ZSPWU2BJ8IFBVE&tp_b=32UTUBMZ7HISRFL1ZSPWU2BJ8IFBVE&c=365198&tp_c=365198"},{"rt":null,"stimulus":"<div style=\"font-size:60px;\">Next student</div>","response":null,"trial_type":"html-keyboard-response","trial_index":24,"time_elapsed":684983,"internal_node_id":"0.0-14.0-0.0","params":{"nStudents":24,"maxFlips":30,"completionMinutes":45,"basePay":8,"maxBonus":9,"perTrialBonus":0.5,"perTrialBonusThreshold":0.1,"exampleCost":0.01},"classroomParams":{"A":{"a":1,"b":4},"B":{"a":4,"b":1},"C":{"a":2,"b":8},"D":{"a":8,"b":2}},"conditions":["nonSeqFull","nonSeqPartial","seqNoFeedback","seqFeedback"],"classroomPairings":[["A","B"],["C","D"]],"coinWeights":[0.2,0.5,0.8],"subjectId":"ARUXG5FD1Q76F","assignmentId":"32UTUBMZ7HISRFL1ZSPWU2BJ8IFBVE","hitId":"3QGHA0EA0JM3KKNCY0PQRLYAHJ3BWH","url":"https://gershmanlab.com/experiments/alicia/teaching/experiment/?hitId=3QGHA0EA0JM3KKNCY0PQRLYAHJ3BWH&workerId=ARUXG5FD1Q76F&assignmentId=32UTUBMZ7HISRFL1ZSPWU2BJ8IFBVE&a=ZUU28&tp_a=ZUU28&b=32UTUBMZ7HISRFL1ZSPWU2BJ8IFBVE&tp_b=32UTUBMZ7HISRFL1ZSPWU2BJ8IFBVE&c=365198&tp_c=365198"},{"rt":6975,"stimulus":"\n            <h4 style=\"color:Orange;\">Student 2</h4>\n            <h2>The weight of your coin is <b style=\"color:Tomato;\">0.2</b>.</h2>\n            <p>In this block, you will be giving <b>two</b> sets of examples to Student 2.</p>\n                <p>You will see the student's guess after the first set of examples. You will also receive feedback at the end of the block.</p>\n            ","response":0,"trial_type":"html-button-response","trial_index":25,"time_elapsed":691960,"internal_node_id":"0.0-15.0","params":{"nStudents":24,"maxFlips":30,"completionMinutes":45,"basePay":8,"maxBonus":9,"perTrialBonus":0.5,"perTrialBonusThreshold":0.1,"exampleCost":0.01},"classroomParams":{"A":{"a":1,"b":4},"B":{"a":4,"b":1},"C":{"a":2,"b":8},"D":{"a":8,"b":2}},"conditions":["nonSeqFull","nonSeqPartial","seqNoFeedback","seqFeedback"],"classroomPairings":[["A","B"],["C","D"]],"coinWeights":[0.2,0.5,0.8],"subjectId":"ARUXG5FD1Q76F","assignmentId":"32UTUBMZ7HISRFL1ZSPWU2BJ8IFBVE","hitId":"3QGHA0EA0JM3KKNCY0PQRLYAHJ3BWH","url":"https://gershmanlab.com/experiments/alicia/teaching/experiment/?hitId=3QGHA0EA0JM3KKNCY0PQRLYAHJ3BWH&workerId=ARUXG5FD1Q76F&assignmentId=32UTUBMZ7HISRFL1ZSPWU2BJ8IFBVE&a=ZUU28&tp_a=ZUU28&b=32UTUBMZ7HISRFL1ZSPWU2BJ8IFBVE&tp_b=32UTUBMZ7HISRFL1ZSPWU2BJ8IFBVE&c=365198&tp_c=365198"},{"rt":22590,"response":{"heads":"1","tails":"5"},"type":"response","condition":"seqFeedback","trueTheta":0.2,"classrooms":["A","B"],"studentTrueClassroom":"A","exampleSet":"first","trial_type":"survey-html-form","trial_index":26,"time_elapsed":714551,"internal_node_id":"0.0-16.0-0.0","params":{"nStudents":24,"maxFlips":30,"completionMinutes":45,"basePay":8,"maxBonus":9,"perTrialBonus":0.5,"perTrialBonusThreshold":0.1,"exampleCost":0.01},"classroomParams":{"A":{"a":1,"b":4},"B":{"a":4,"b":1},"C":{"a":2,"b":8},"D":{"a":8,"b":2}},"conditions":["nonSeqFull","nonSeqPartial","seqNoFeedback","seqFeedback"],"classroomPairings":[["A","B"],["C","D"]],"coinWeights":[0.2,0.5,0.8],"subjectId":"ARUXG5FD1Q76F","assignmentId":"32UTUBMZ7HISRFL1ZSPWU2BJ8IFBVE","hitId":"3QGHA0EA0JM3KKNCY0PQRLYAHJ3BWH","url":"https://gershmanlab.com/experiments/alicia/teaching/experiment/?hitId=3QGHA0EA0JM3KKNCY0PQRLYAHJ3BWH&workerId=ARUXG5FD1Q76F&assignmentId=32UTUBMZ7HISRFL1ZSPWU2BJ8IFBVE&a=ZUU28&tp_a=ZUU28&b=32UTUBMZ7HISRFL1ZSPWU2BJ8IFBVE&tp_b=32UTUBMZ7HISRFL1ZSPWU2BJ8IFBVE&c=365198&tp_c=365198","heads":1,"tails":5,"studentIndex":1,"studentTrueHypers":{"a":1,"b":4},"studentGuess":0.18181818181818182,"delta":0.018181818181818188,"totalExamples":6,"bonusSoFar":0.26},{"rt":null,"stimulus":"Sending examples to student... ","response":null,"trial_type":"html-keyboard-response","trial_index":27,"time_elapsed":716308,"internal_node_id":"0.0-17.0","params":{"nStudents":24,"maxFlips":30,"completionMinutes":45,"basePay":8,"maxBonus":9,"perTrialBonus":0.5,"perTrialBonusThreshold":0.1,"exampleCost":0.01},"classroomParams":{"A":{"a":1,"b":4},"B":{"a":4,"b":1},"C":{"a":2,"b":8},"D":{"a":8,"b":2}},"conditions":["nonSeqFull","nonSeqPartial","seqNoFeedback","seqFeedback"],"classroomPairings":[["A","B"],["C","D"]],"coinWeights":[0.2,0.5,0.8],"subjectId":"ARUXG5FD1Q76F","assignmentId":"32UTUBMZ7HISRFL1ZSPWU2BJ8IFBVE","hitId":"3QGHA0EA0JM3KKNCY0PQRLYAHJ3BWH","url":"https://gershmanlab.com/experiments/alicia/teaching/experiment/?hitId=3QGHA0EA0JM3KKNCY0PQRLYAHJ3BWH&workerId=ARUXG5FD1Q76F&assignmentId=32UTUBMZ7HISRFL1ZSPWU2BJ8IFBVE&a=ZUU28&tp_a=ZUU28&b=32UTUBMZ7HISRFL1ZSPWU2BJ8IFBVE&tp_b=32UTUBMZ7HISRFL1ZSPWU2BJ8IFBVE&c=365198&tp_c=365198"},{"rt":null,"stimulus":"Examples sent to student! Waiting for student...","response":null,"trial_type":"html-keyboard-response","trial_index":28,"time_elapsed":721317,"internal_node_id":"0.0-18.0","params":{"nStudents":24,"maxFlips":30,"completionMinutes":45,"basePay":8,"maxBonus":9,"perTrialBonus":0.5,"perTrialBonusThreshold":0.1,"exampleCost":0.01},"classroomParams":{"A":{"a":1,"b":4},"B":{"a":4,"b":1},"C":{"a":2,"b":8},"D":{"a":8,"b":2}},"conditions":["nonSeqFull","nonSeqPartial","seqNoFeedback","seqFeedback"],"classroomPairings":[["A","B"],["C","D"]],"coinWeights":[0.2,0.5,0.8],"subjectId":"ARUXG5FD1Q76F","assignmentId":"32UTUBMZ7HISRFL1ZSPWU2BJ8IFBVE","hitId":"3QGHA0EA0JM3KKNCY0PQRLYAHJ3BWH","url":"https://gershmanlab.com/experiments/alicia/teaching/experiment/?hitId=3QGHA0EA0JM3KKNCY0PQRLYAHJ3BWH&workerId=ARUXG5FD1Q76F&assignmentId=32UTUBMZ7HISRFL1ZSPWU2BJ8IFBVE&a=ZUU28&tp_a=ZUU28&b=32UTUBMZ7HISRFL1ZSPWU2BJ8IFBVE&tp_b=32UTUBMZ7HISRFL1ZSPWU2BJ8IFBVE&c=365198&tp_c=365198"},{"rt":5345,"stimulus":"\n                <p>Student's guess for coin weight: <b style=\"color:Tomato;\">0.18</b></p>\n                <p></b></p>\n                <p>You will now send another set of examples to your student. Press any key to continue.</p>\n                ","response":" ","trial_type":"html-keyboard-response","trial_index":29,"time_elapsed":726664,"internal_node_id":"0.0-19.0","params":{"nStudents":24,"maxFlips":30,"completionMinutes":45,"basePay":8,"maxBonus":9,"perTrialBonus":0.5,"perTrialBonusThreshold":0.1,"exampleCost":0.01},"classroomParams":{"A":{"a":1,"b":4},"B":{"a":4,"b":1},"C":{"a":2,"b":8},"D":{"a":8,"b":2}},"conditions":["nonSeqFull","nonSeqPartial","seqNoFeedback","seqFeedback"],"classroomPairings":[["A","B"],["C","D"]],"coinWeights":[0.2,0.5,0.8],"subjectId":"ARUXG5FD1Q76F","assignmentId":"32UTUBMZ7HISRFL1ZSPWU2BJ8IFBVE","hitId":"3QGHA0EA0JM3KKNCY0PQRLYAHJ3BWH","url":"https://gershmanlab.com/experiments/alicia/teaching/experiment/?hitId=3QGHA0EA0JM3KKNCY0PQRLYAHJ3BWH&workerId=ARUXG5FD1Q76F&assignmentId=32UTUBMZ7HISRFL1ZSPWU2BJ8IFBVE&a=ZUU28&tp_a=ZUU28&b=32UTUBMZ7HISRFL1ZSPWU2BJ8IFBVE&tp_b=32UTUBMZ7HISRFL1ZSPWU2BJ8IFBVE&c=365198&tp_c=365198"},{"rt":8044,"response":{"heads":"1","tails":"5"},"type":"response","condition":"seqFeedback","trueTheta":0.2,"classrooms":["A","B"],"studentTrueClassroom":"A","exampleSet":"second","trial_type":"survey-html-form","trial_index":30,"time_elapsed":734710,"internal_node_id":"0.0-20.0-0.0","params":{"nStudents":24,"maxFlips":30,"completionMinutes":45,"basePay":8,"maxBonus":9,"perTrialBonus":0.5,"perTrialBonusThreshold":0.1,"exampleCost":0.01},"classroomParams":{"A":{"a":1,"b":4},"B":{"a":4,"b":1},"C":{"a":2,"b":8},"D":{"a":8,"b":2}},"conditions":["nonSeqFull","nonSeqPartial","seqNoFeedback","seqFeedback"],"classroomPairings":[["A","B"],["C","D"]],"coinWeights":[0.2,0.5,0.8],"subjectId":"ARUXG5FD1Q76F","assignmentId":"32UTUBMZ7HISRFL1ZSPWU2BJ8IFBVE","hitId":"3QGHA0EA0JM3KKNCY0PQRLYAHJ3BWH","url":"https://gershmanlab.com/experiments/alicia/teaching/experiment/?hitId=3QGHA0EA0JM3KKNCY0PQRLYAHJ3BWH&workerId=ARUXG5FD1Q76F&assignmentId=32UTUBMZ7HISRFL1ZSPWU2BJ8IFBVE&a=ZUU28&tp_a=ZUU28&b=32UTUBMZ7HISRFL1ZSPWU2BJ8IFBVE&tp_b=32UTUBMZ7HISRFL1ZSPWU2BJ8IFBVE&c=365198&tp_c=365198","firstResponseHeads":1,"firstResponseTails":5,"secondResponseHeads":1,"secondResponseTails":5,"studentIndex":1,"studentTrueHypers":{"a":1,"b":4},"studentGuess":0.17647058823529413,"delta":0.023529411764705882,"bonus":0.38,"bonusSoFar":0.64,"totalExamples":12},{"rt":null,"stimulus":"Sending examples to student... ","response":null,"trial_type":"html-keyboard-response","trial_index":31,"time_elapsed":735967,"internal_node_id":"0.0-21.0","params":{"nStudents":24,"maxFlips":30,"completionMinutes":45,"basePay":8,"maxBonus":9,"perTrialBonus":0.5,"perTrialBonusThreshold":0.1,"exampleCost":0.01},"classroomParams":{"A":{"a":1,"b":4},"B":{"a":4,"b":1},"C":{"a":2,"b":8},"D":{"a":8,"b":2}},"conditions":["nonSeqFull","nonSeqPartial","seqNoFeedback","seqFeedback"],"classroomPairings":[["A","B"],["C","D"]],"coinWeights":[0.2,0.5,0.8],"subjectId":"ARUXG5FD1Q76F","assignmentId":"32UTUBMZ7HISRFL1ZSPWU2BJ8IFBVE","hitId":"3QGHA0EA0JM3KKNCY0PQRLYAHJ3BWH","url":"https://gershmanlab.com/experiments/alicia/teaching/experiment/?hitId=3QGHA0EA0JM3KKNCY0PQRLYAHJ3BWH&workerId=ARUXG5FD1Q76F&assignmentId=32UTUBMZ7HISRFL1ZSPWU2BJ8IFBVE&a=ZUU28&tp_a=ZUU28&b=32UTUBMZ7HISRFL1ZSPWU2BJ8IFBVE&tp_b=32UTUBMZ7HISRFL1ZSPWU2BJ8IFBVE&c=365198&tp_c=365198"},{"rt":null,"stimulus":"Examples sent to student! Waiting for student...","response":null,"trial_type":"html-keyboard-response","trial_index":32,"time_elapsed":739973,"internal_node_id":"0.0-22.0","params":{"nStudents":24,"maxFlips":30,"completionMinutes":45,"basePay":8,"maxBonus":9,"perTrialBonus":0.5,"perTrialBonusThreshold":0.1,"exampleCost":0.01},"classroomParams":{"A":{"a":1,"b":4},"B":{"a":4,"b":1},"C":{"a":2,"b":8},"D":{"a":8,"b":2}},"conditions":["nonSeqFull","nonSeqPartial","seqNoFeedback","seqFeedback"],"classroomPairings":[["A","B"],["C","D"]],"coinWeights":[0.2,0.5,0.8],"subjectId":"ARUXG5FD1Q76F","assignmentId":"32UTUBMZ7HISRFL1ZSPWU2BJ8IFBVE","hitId":"3QGHA0EA0JM3KKNCY0PQRLYAHJ3BWH","url":"https://gershmanlab.com/experiments/alicia/teaching/experiment/?hitId=3QGHA0EA0JM3KKNCY0PQRLYAHJ3BWH&workerId=ARUXG5FD1Q76F&assignmentId=32UTUBMZ7HISRFL1ZSPWU2BJ8IFBVE&a=ZUU28&tp_a=ZUU28&b=32UTUBMZ7HISRFL1ZSPWU2BJ8IFBVE&tp_b=32UTUBMZ7HISRFL1ZSPWU2BJ8IFBVE&c=365198&tp_c=365198"},{"rt":7048,"stimulus":"\n                <p>Student 2's first guess for coin weight: <b style=\"color:Tomato\";>0.18</b></p>\n                <p>Student 2's second guess for coin weight: <b style=\"color:Tomato\";>0.18</b></p>\n                <p>You received a bonus of <b>$0.38</b> based on the student's second guess.</p>\n                <p>Total bonus so far: <b>$0.64</b></p>\n                <p>Press any key to continue.</p>\n                ","response":" ","trial_type":"html-keyboard-response","trial_index":33,"time_elapsed":747023,"internal_node_id":"0.0-23.0","params":{"nStudents":24,"maxFlips":30,"completionMinutes":45,"basePay":8,"maxBonus":9,"perTrialBonus":0.5,"perTrialBonusThreshold":0.1,"exampleCost":0.01},"classroomParams":{"A":{"a":1,"b":4},"B":{"a":4,"b":1},"C":{"a":2,"b":8},"D":{"a":8,"b":2}},"conditions":["nonSeqFull","nonSeqPartial","seqNoFeedback","seqFeedback"],"classroomPairings":[["A","B"],["C","D"]],"coinWeights":[0.2,0.5,0.8],"subjectId":"ARUXG5FD1Q76F","assignmentId":"32UTUBMZ7HISRFL1ZSPWU2BJ8IFBVE","hitId":"3QGHA0EA0JM3KKNCY0PQRLYAHJ3BWH","url":"https://gershmanlab.com/experiments/alicia/teaching/experiment/?hitId=3QGHA0EA0JM3KKNCY0PQRLYAHJ3BWH&workerId=ARUXG5FD1Q76F&assignmentId=32UTUBMZ7HISRFL1ZSPWU2BJ8IFBVE&a=ZUU28&tp_a=ZUU28&b=32UTUBMZ7HISRFL1ZSPWU2BJ8IFBVE&tp_b=32UTUBMZ7HISRFL1ZSPWU2BJ8IFBVE&c=365198&tp_c=365198"},{"rt":null,"stimulus":"<div style=\"font-size:60px;\">Next student</div>","response":null,"trial_type":"html-keyboard-response","trial_index":34,"time_elapsed":749536,"internal_node_id":"0.0-24.0-0.0","params":{"nStudents":24,"maxFlips":30,"completionMinutes":45,"basePay":8,"maxBonus":9,"perTrialBonus":0.5,"perTrialBonusThreshold":0.1,"exampleCost":0.01},"classroomParams":{"A":{"a":1,"b":4},"B":{"a":4,"b":1},"C":{"a":2,"b":8},"D":{"a":8,"b":2}},"conditions":["nonSeqFull","nonSeqPartial","seqNoFeedback","seqFeedback"],"classroomPairings":[["A","B"],["C","D"]],"coinWeights":[0.2,0.5,0.8],"subjectId":"ARUXG5FD1Q76F","assignmentId":"32UTUBMZ7HISRFL1ZSPWU2BJ8IFBVE","hitId":"3QGHA0EA0JM3KKNCY0PQRLYAHJ3BWH","url":"https://gershmanlab.com/experiments/alicia/teaching/experiment/?hitId=3QGHA0EA0JM3KKNCY0PQRLYAHJ3BWH&workerId=ARUXG5FD1Q76F&assignmentId=32UTUBMZ7HISRFL1ZSPWU2BJ8IFBVE&a=ZUU28&tp_a=ZUU28&b=32UTUBMZ7HISRFL1ZSPWU2BJ8IFBVE&tp_b=32UTUBMZ7HISRFL1ZSPWU2BJ8IFBVE&c=365198&tp_c=365198"},{"rt":5498,"stimulus":"\n            <h4 style=\"color:Orange;\">Student 3</h4>\n            <h2>The weight of your coin is <b style=\"color:Tomato;\">0.2</b>.</h2>\n            <p>In this block, you will be giving <b>two</b> sets of examples to Student 3.</p>\n                <p>You will receive feedback at the end of the block.</p>\n            ","response":0,"trial_type":"html-button-response","trial_index":35,"time_elapsed":755036,"internal_node_id":"0.0-25.0","params":{"nStudents":24,"maxFlips":30,"completionMinutes":45,"basePay":8,"maxBonus":9,"perTrialBonus":0.5,"perTrialBonusThreshold":0.1,"exampleCost":0.01},"classroomParams":{"A":{"a":1,"b":4},"B":{"a":4,"b":1},"C":{"a":2,"b":8},"D":{"a":8,"b":2}},"conditions":["nonSeqFull","nonSeqPartial","seqNoFeedback","seqFeedback"],"classroomPairings":[["A","B"],["C","D"]],"coinWeights":[0.2,0.5,0.8],"subjectId":"ARUXG5FD1Q76F","assignmentId":"32UTUBMZ7HISRFL1ZSPWU2BJ8IFBVE","hitId":"3QGHA0EA0JM3KKNCY0PQRLYAHJ3BWH","url":"https://gershmanlab.com/experiments/alicia/teaching/experiment/?hitId=3QGHA0EA0JM3KKNCY0PQRLYAHJ3BWH&workerId=ARUXG5FD1Q76F&assignmentId=32UTUBMZ7HISRFL1ZSPWU2BJ8IFBVE&a=ZUU28&tp_a=ZUU28&b=32UTUBMZ7HISRFL1ZSPWU2BJ8IFBVE&tp_b=32UTUBMZ7HISRFL1ZSPWU2BJ8IFBVE&c=365198&tp_c=365198"},{"rt":22501,"response":{"heads":"1","tails":"5"},"type":"response","condition":"seqNoFeedback","trueTheta":0.2,"classrooms":["A","B"],"studentTrueClassroom":"B","exampleSet":"first","trial_type":"survey-html-form","trial_index":36,"time_elapsed":777537,"internal_node_id":"0.0-26.0-0.0","params":{"nStudents":24,"maxFlips":30,"completionMinutes":45,"basePay":8,"maxBonus":9,"perTrialBonus":0.5,"perTrialBonusThreshold":0.1,"exampleCost":0.01},"classroomParams":{"A":{"a":1,"b":4},"B":{"a":4,"b":1},"C":{"a":2,"b":8},"D":{"a":8,"b":2}},"conditions":["nonSeqFull","nonSeqPartial","seqNoFeedback","seqFeedback"],"classroomPairings":[["A","B"],["C","D"]],"coinWeights":[0.2,0.5,0.8],"subjectId":"ARUXG5FD1Q76F","assignmentId":"32UTUBMZ7HISRFL1ZSPWU2BJ8IFBVE","hitId":"3QGHA0EA0JM3KKNCY0PQRLYAHJ3BWH","url":"https://gershmanlab.com/experiments/alicia/teaching/experiment/?hitId=3QGHA0EA0JM3KKNCY0PQRLYAHJ3BWH&workerId=ARUXG5FD1Q76F&assignmentId=32UTUBMZ7HISRFL1ZSPWU2BJ8IFBVE&a=ZUU28&tp_a=ZUU28&b=32UTUBMZ7HISRFL1ZSPWU2BJ8IFBVE&tp_b=32UTUBMZ7HISRFL1ZSPWU2BJ8IFBVE&c=365198&tp_c=365198","heads":1,"tails":5,"studentIndex":2,"studentTrueHypers":{"a":4,"b":1},"studentGuess":0.45454545454545453,"delta":0.2545454545454545,"totalExamples":6,"bonusSoFar":0.64},{"rt":null,"stimulus":"Sending examples to student... ","response":null,"trial_type":"html-keyboard-response","trial_index":37,"time_elapsed":779540,"internal_node_id":"0.0-27.0","params":{"nStudents":24,"maxFlips":30,"completionMinutes":45,"basePay":8,"maxBonus":9,"perTrialBonus":0.5,"perTrialBonusThreshold":0.1,"exampleCost":0.01},"classroomParams":{"A":{"a":1,"b":4},"B":{"a":4,"b":1},"C":{"a":2,"b":8},"D":{"a":8,"b":2}},"conditions":["nonSeqFull","nonSeqPartial","seqNoFeedback","seqFeedback"],"classroomPairings":[["A","B"],["C","D"]],"coinWeights":[0.2,0.5,0.8],"subjectId":"ARUXG5FD1Q76F","assignmentId":"32UTUBMZ7HISRFL1ZSPWU2BJ8IFBVE","hitId":"3QGHA0EA0JM3KKNCY0PQRLYAHJ3BWH","url":"https://gershmanlab.com/experiments/alicia/teaching/experiment/?hitId=3QGHA0EA0JM3KKNCY0PQRLYAHJ3BWH&workerId=ARUXG5FD1Q76F&assignmentId=32UTUBMZ7HISRFL1ZSPWU2BJ8IFBVE&a=ZUU28&tp_a=ZUU28&b=32UTUBMZ7HISRFL1ZSPWU2BJ8IFBVE&tp_b=32UTUBMZ7HISRFL1ZSPWU2BJ8IFBVE&c=365198&tp_c=365198"},{"rt":null,"stimulus":"Examples sent to student! Waiting for student...","response":null,"trial_type":"html-keyboard-response","trial_index":38,"time_elapsed":785544,"internal_node_id":"0.0-28.0","params":{"nStudents":24,"maxFlips":30,"completionMinutes":45,"basePay":8,"maxBonus":9,"perTrialBonus":0.5,"perTrialBonusThreshold":0.1,"exampleCost":0.01},"classroomParams":{"A":{"a":1,"b":4},"B":{"a":4,"b":1},"C":{"a":2,"b":8},"D":{"a":8,"b":2}},"conditions":["nonSeqFull","nonSeqPartial","seqNoFeedback","seqFeedback"],"classroomPairings":[["A","B"],["C","D"]],"coinWeights":[0.2,0.5,0.8],"subjectId":"ARUXG5FD1Q76F","assignmentId":"32UTUBMZ7HISRFL1ZSPWU2BJ8IFBVE","hitId":"3QGHA0EA0JM3KKNCY0PQRLYAHJ3BWH","url":"https://gershmanlab.com/experiments/alicia/teaching/experiment/?hitId=3QGHA0EA0JM3KKNCY0PQRLYAHJ3BWH&workerId=ARUXG5FD1Q76F&assignmentId=32UTUBMZ7HISRFL1ZSPWU2BJ8IFBVE&a=ZUU28&tp_a=ZUU28&b=32UTUBMZ7HISRFL1ZSPWU2BJ8IFBVE&tp_b=32UTUBMZ7HISRFL1ZSPWU2BJ8IFBVE&c=365198&tp_c=365198"},{"rt":17212,"response":{"heads":"2","tails":"10"},"type":"response","condition":"seqNoFeedback","trueTheta":0.2,"classrooms":["A","B"],"studentTrueClassroom":"B","exampleSet":"second","trial_type":"survey-html-form","trial_index":39,"time_elapsed":802759,"internal_node_id":"0.0-29.0-0.0","params":{"nStudents":24,"maxFlips":30,"completionMinutes":45,"basePay":8,"maxBonus":9,"perTrialBonus":0.5,"perTrialBonusThreshold":0.1,"exampleCost":0.01},"classroomParams":{"A":{"a":1,"b":4},"B":{"a":4,"b":1},"C":{"a":2,"b":8},"D":{"a":8,"b":2}},"conditions":["nonSeqFull","nonSeqPartial","seqNoFeedback","seqFeedback"],"classroomPairings":[["A","B"],["C","D"]],"coinWeights":[0.2,0.5,0.8],"subjectId":"ARUXG5FD1Q76F","assignmentId":"32UTUBMZ7HISRFL1ZSPWU2BJ8IFBVE","hitId":"3QGHA0EA0JM3KKNCY0PQRLYAHJ3BWH","url":"https://gershmanlab.com/experiments/alicia/teaching/experiment/?hitId=3QGHA0EA0JM3KKNCY0PQRLYAHJ3BWH&workerId=ARUXG5FD1Q76F&assignmentId=32UTUBMZ7HISRFL1ZSPWU2BJ8IFBVE&a=ZUU28&tp_a=ZUU28&b=32UTUBMZ7HISRFL1ZSPWU2BJ8IFBVE&tp_b=32UTUBMZ7HISRFL1ZSPWU2BJ8IFBVE&c=365198&tp_c=365198","firstResponseHeads":1,"firstResponseTails":5,"secondResponseHeads":2,"secondResponseTails":10,"studentIndex":2,"studentTrueHypers":{"a":4,"b":1},"studentGuess":0.30434782608695654,"delta":0.10434782608695653,"bonus":0,"bonusSoFar":0.64,"totalExamples":18},{"rt":null,"stimulus":"Sending examples to student... ","response":null,"trial_type":"html-keyboard-response","trial_index":40,"time_elapsed":804511,"internal_node_id":"0.0-30.0","params":{"nStudents":24,"maxFlips":30,"completionMinutes":45,"basePay":8,"maxBonus":9,"perTrialBonus":0.5,"perTrialBonusThreshold":0.1,"exampleCost":0.01},"classroomParams":{"A":{"a":1,"b":4},"B":{"a":4,"b":1},"C":{"a":2,"b":8},"D":{"a":8,"b":2}},"conditions":["nonSeqFull","nonSeqPartial","seqNoFeedback","seqFeedback"],"classroomPairings":[["A","B"],["C","D"]],"coinWeights":[0.2,0.5,0.8],"subjectId":"ARUXG5FD1Q76F","assignmentId":"32UTUBMZ7HISRFL1ZSPWU2BJ8IFBVE","hitId":"3QGHA0EA0JM3KKNCY0PQRLYAHJ3BWH","url":"https://gershmanlab.com/experiments/alicia/teaching/experiment/?hitId=3QGHA0EA0JM3KKNCY0PQRLYAHJ3BWH&workerId=ARUXG5FD1Q76F&assignmentId=32UTUBMZ7HISRFL1ZSPWU2BJ8IFBVE&a=ZUU28&tp_a=ZUU28&b=32UTUBMZ7HISRFL1ZSPWU2BJ8IFBVE&tp_b=32UTUBMZ7HISRFL1ZSPWU2BJ8IFBVE&c=365198&tp_c=365198"},{"rt":null,"stimulus":"Examples sent to student! Waiting for student...","response":null,"trial_type":"html-keyboard-response","trial_index":41,"time_elapsed":808514,"internal_node_id":"0.0-31.0","params":{"nStudents":24,"maxFlips":30,"completionMinutes":45,"basePay":8,"maxBonus":9,"perTrialBonus":0.5,"perTrialBonusThreshold":0.1,"exampleCost":0.01},"classroomParams":{"A":{"a":1,"b":4},"B":{"a":4,"b":1},"C":{"a":2,"b":8},"D":{"a":8,"b":2}},"conditions":["nonSeqFull","nonSeqPartial","seqNoFeedback","seqFeedback"],"classroomPairings":[["A","B"],["C","D"]],"coinWeights":[0.2,0.5,0.8],"subjectId":"ARUXG5FD1Q76F","assignmentId":"32UTUBMZ7HISRFL1ZSPWU2BJ8IFBVE","hitId":"3QGHA0EA0JM3KKNCY0PQRLYAHJ3BWH","url":"https://gershmanlab.com/experiments/alicia/teaching/experiment/?hitId=3QGHA0EA0JM3KKNCY0PQRLYAHJ3BWH&workerId=ARUXG5FD1Q76F&assignmentId=32UTUBMZ7HISRFL1ZSPWU2BJ8IFBVE&a=ZUU28&tp_a=ZUU28&b=32UTUBMZ7HISRFL1ZSPWU2BJ8IFBVE&tp_b=32UTUBMZ7HISRFL1ZSPWU2BJ8IFBVE&c=365198&tp_c=365198"},{"rt":9545,"stimulus":"\n                <p>Student 3's first guess for coin weight: <b style=\"color:Tomato\";>0.45</b></p>\n                <p>Student 3's second guess for coin weight: <b style=\"color:Tomato\";>0.30</b></p>\n                <p>You received a bonus of <b>$0.00</b> based on the student's second guess.</p>\n                <p>Total bonus so far: <b>$0.64</b></p>\n                <p>Press any key to continue.</p>\n                ","response":" ","trial_type":"html-keyboard-response","trial_index":42,"time_elapsed":818062,"internal_node_id":"0.0-32.0","params":{"nStudents":24,"maxFlips":30,"completionMinutes":45,"basePay":8,"maxBonus":9,"perTrialBonus":0.5,"perTrialBonusThreshold":0.1,"exampleCost":0.01},"classroomParams":{"A":{"a":1,"b":4},"B":{"a":4,"b":1},"C":{"a":2,"b":8},"D":{"a":8,"b":2}},"conditions":["nonSeqFull","nonSeqPartial","seqNoFeedback","seqFeedback"],"classroomPairings":[["A","B"],["C","D"]],"coinWeights":[0.2,0.5,0.8],"subjectId":"ARUXG5FD1Q76F","assignmentId":"32UTUBMZ7HISRFL1ZSPWU2BJ8IFBVE","hitId":"3QGHA0EA0JM3KKNCY0PQRLYAHJ3BWH","url":"https://gershmanlab.com/experiments/alicia/teaching/experiment/?hitId=3QGHA0EA0JM3KKNCY0PQRLYAHJ3BWH&workerId=ARUXG5FD1Q76F&assignmentId=32UTUBMZ7HISRFL1ZSPWU2BJ8IFBVE&a=ZUU28&tp_a=ZUU28&b=32UTUBMZ7HISRFL1ZSPWU2BJ8IFBVE&tp_b=32UTUBMZ7HISRFL1ZSPWU2BJ8IFBVE&c=365198&tp_c=365198"},{"rt":null,"stimulus":"<div style=\"font-size:60px;\">Next student</div>","response":null,"trial_type":"html-keyboard-response","trial_index":43,"time_elapsed":820313,"internal_node_id":"0.0-33.0-0.0","params":{"nStudents":24,"maxFlips":30,"completionMinutes":45,"basePay":8,"maxBonus":9,"perTrialBonus":0.5,"perTrialBonusThreshold":0.1,"exampleCost":0.01},"classroomParams":{"A":{"a":1,"b":4},"B":{"a":4,"b":1},"C":{"a":2,"b":8},"D":{"a":8,"b":2}},"conditions":["nonSeqFull","nonSeqPartial","seqNoFeedback","seqFeedback"],"classroomPairings":[["A","B"],["C","D"]],"coinWeights":[0.2,0.5,0.8],"subjectId":"ARUXG5FD1Q76F","assignmentId":"32UTUBMZ7HISRFL1ZSPWU2BJ8IFBVE","hitId":"3QGHA0EA0JM3KKNCY0PQRLYAHJ3BWH","url":"https://gershmanlab.com/experiments/alicia/teaching/experiment/?hitId=3QGHA0EA0JM3KKNCY0PQRLYAHJ3BWH&workerId=ARUXG5FD1Q76F&assignmentId=32UTUBMZ7HISRFL1ZSPWU2BJ8IFBVE&a=ZUU28&tp_a=ZUU28&b=32UTUBMZ7HISRFL1ZSPWU2BJ8IFBVE&tp_b=32UTUBMZ7HISRFL1ZSPWU2BJ8IFBVE&c=365198&tp_c=365198"},{"rt":5288,"stimulus":"\n            <h4 style=\"color:Orange;\">Student 4</h4>\n            <h2>The weight of your coin is <b style=\"color:Tomato;\">0.8</b>.</h2>\n            <p>In this block, you will be giving <b>one</b> set of examples to Student 4.</p>\n                <p>You will receive feedback at the end of the block.</p>\n            ","response":0,"trial_type":"html-button-response","trial_index":44,"time_elapsed":825603,"internal_node_id":"0.0-34.0","params":{"nStudents":24,"maxFlips":30,"completionMinutes":45,"basePay":8,"maxBonus":9,"perTrialBonus":0.5,"perTrialBonusThreshold":0.1,"exampleCost":0.01},"classroomParams":{"A":{"a":1,"b":4},"B":{"a":4,"b":1},"C":{"a":2,"b":8},"D":{"a":8,"b":2}},"conditions":["nonSeqFull","nonSeqPartial","seqNoFeedback","seqFeedback"],"classroomPairings":[["A","B"],["C","D"]],"coinWeights":[0.2,0.5,0.8],"subjectId":"ARUXG5FD1Q76F","assignmentId":"32UTUBMZ7HISRFL1ZSPWU2BJ8IFBVE","hitId":"3QGHA0EA0JM3KKNCY0PQRLYAHJ3BWH","url":"https://gershmanlab.com/experiments/alicia/teaching/experiment/?hitId=3QGHA0EA0JM3KKNCY0PQRLYAHJ3BWH&workerId=ARUXG5FD1Q76F&assignmentId=32UTUBMZ7HISRFL1ZSPWU2BJ8IFBVE&a=ZUU28&tp_a=ZUU28&b=32UTUBMZ7HISRFL1ZSPWU2BJ8IFBVE&tp_b=32UTUBMZ7HISRFL1ZSPWU2BJ8IFBVE&c=365198&tp_c=365198"},{"rt":30449,"response":{"heads":"20","tails":"4"},"type":"response","condition":"nonSeqFull","trueTheta":0.8,"classrooms":["A","B"],"studentTrueClassroom":"A","exampleSet":"first","trial_type":"survey-html-form","trial_index":45,"time_elapsed":856053,"internal_node_id":"0.0-35.0-0.0","params":{"nStudents":24,"maxFlips":30,"completionMinutes":45,"basePay":8,"maxBonus":9,"perTrialBonus":0.5,"perTrialBonusThreshold":0.1,"exampleCost":0.01},"classroomParams":{"A":{"a":1,"b":4},"B":{"a":4,"b":1},"C":{"a":2,"b":8},"D":{"a":8,"b":2}},"conditions":["nonSeqFull","nonSeqPartial","seqNoFeedback","seqFeedback"],"classroomPairings":[["A","B"],["C","D"]],"coinWeights":[0.2,0.5,0.8],"subjectId":"ARUXG5FD1Q76F","assignmentId":"32UTUBMZ7HISRFL1ZSPWU2BJ8IFBVE","hitId":"3QGHA0EA0JM3KKNCY0PQRLYAHJ3BWH","url":"https://gershmanlab.com/experiments/alicia/teaching/experiment/?hitId=3QGHA0EA0JM3KKNCY0PQRLYAHJ3BWH&workerId=ARUXG5FD1Q76F&assignmentId=32UTUBMZ7HISRFL1ZSPWU2BJ8IFBVE&a=ZUU28&tp_a=ZUU28&b=32UTUBMZ7HISRFL1ZSPWU2BJ8IFBVE&tp_b=32UTUBMZ7HISRFL1ZSPWU2BJ8IFBVE&c=365198&tp_c=365198","heads":20,"tails":4,"studentIndex":3,"studentTrueHypers":{"a":1,"b":4},"studentGuess":0.7241379310344828,"delta":0.07586206896551728,"totalExamples":24,"bonus":0.26,"bonusSoFar":0.9},{"rt":null,"stimulus":"Sending examples to student... ","response":null,"trial_type":"html-keyboard-response","trial_index":46,"time_elapsed":857805,"internal_node_id":"0.0-36.0","params":{"nStudents":24,"maxFlips":30,"completionMinutes":45,"basePay":8,"maxBonus":9,"perTrialBonus":0.5,"perTrialBonusThreshold":0.1,"exampleCost":0.01},"classroomParams":{"A":{"a":1,"b":4},"B":{"a":4,"b":1},"C":{"a":2,"b":8},"D":{"a":8,"b":2}},"conditions":["nonSeqFull","nonSeqPartial","seqNoFeedback","seqFeedback"],"classroomPairings":[["A","B"],["C","D"]],"coinWeights":[0.2,0.5,0.8],"subjectId":"ARUXG5FD1Q76F","assignmentId":"32UTUBMZ7HISRFL1ZSPWU2BJ8IFBVE","hitId":"3QGHA0EA0JM3KKNCY0PQRLYAHJ3BWH","url":"https://gershmanlab.com/experiments/alicia/teaching/experiment/?hitId=3QGHA0EA0JM3KKNCY0PQRLYAHJ3BWH&workerId=ARUXG5FD1Q76F&assignmentId=32UTUBMZ7HISRFL1ZSPWU2BJ8IFBVE&a=ZUU28&tp_a=ZUU28&b=32UTUBMZ7HISRFL1ZSPWU2BJ8IFBVE&tp_b=32UTUBMZ7HISRFL1ZSPWU2BJ8IFBVE&c=365198&tp_c=365198"},{"rt":null,"stimulus":"Examples sent to student! Waiting for student...","response":null,"trial_type":"html-keyboard-response","trial_index":47,"time_elapsed":863816,"internal_node_id":"0.0-37.0","params":{"nStudents":24,"maxFlips":30,"completionMinutes":45,"basePay":8,"maxBonus":9,"perTrialBonus":0.5,"perTrialBonusThreshold":0.1,"exampleCost":0.01},"classroomParams":{"A":{"a":1,"b":4},"B":{"a":4,"b":1},"C":{"a":2,"b":8},"D":{"a":8,"b":2}},"conditions":["nonSeqFull","nonSeqPartial","seqNoFeedback","seqFeedback"],"classroomPairings":[["A","B"],["C","D"]],"coinWeights":[0.2,0.5,0.8],"subjectId":"ARUXG5FD1Q76F","assignmentId":"32UTUBMZ7HISRFL1ZSPWU2BJ8IFBVE","hitId":"3QGHA0EA0JM3KKNCY0PQRLYAHJ3BWH","url":"https://gershmanlab.com/experiments/alicia/teaching/experiment/?hitId=3QGHA0EA0JM3KKNCY0PQRLYAHJ3BWH&workerId=ARUXG5FD1Q76F&assignmentId=32UTUBMZ7HISRFL1ZSPWU2BJ8IFBVE&a=ZUU28&tp_a=ZUU28&b=32UTUBMZ7HISRFL1ZSPWU2BJ8IFBVE&tp_b=32UTUBMZ7HISRFL1ZSPWU2BJ8IFBVE&c=365198&tp_c=365198"},{"rt":5086,"stimulus":"\n                <p>Student's guess for coin weight: <b style=\"color:Tomato;\">0.72</b></p>\n                <p>You received a bonus of <b>$0.26</b>. Total bonus so far: <b>$0.90</b></b></p>\n                <p> Press any key to continue.</p>\n                ","response":" ","trial_type":"html-keyboard-response","trial_index":48,"time_elapsed":868903,"internal_node_id":"0.0-38.0","params":{"nStudents":24,"maxFlips":30,"completionMinutes":45,"basePay":8,"maxBonus":9,"perTrialBonus":0.5,"perTrialBonusThreshold":0.1,"exampleCost":0.01},"classroomParams":{"A":{"a":1,"b":4},"B":{"a":4,"b":1},"C":{"a":2,"b":8},"D":{"a":8,"b":2}},"conditions":["nonSeqFull","nonSeqPartial","seqNoFeedback","seqFeedback"],"classroomPairings":[["A","B"],["C","D"]],"coinWeights":[0.2,0.5,0.8],"subjectId":"ARUXG5FD1Q76F","assignmentId":"32UTUBMZ7HISRFL1ZSPWU2BJ8IFBVE","hitId":"3QGHA0EA0JM3KKNCY0PQRLYAHJ3BWH","url":"https://gershmanlab.com/experiments/alicia/teaching/experiment/?hitId=3QGHA0EA0JM3KKNCY0PQRLYAHJ3BWH&workerId=ARUXG5FD1Q76F&assignmentId=32UTUBMZ7HISRFL1ZSPWU2BJ8IFBVE&a=ZUU28&tp_a=ZUU28&b=32UTUBMZ7HISRFL1ZSPWU2BJ8IFBVE&tp_b=32UTUBMZ7HISRFL1ZSPWU2BJ8IFBVE&c=365198&tp_c=365198"},{"rt":null,"stimulus":"<div style=\"font-size:60px;\">Next student</div>","response":null,"trial_type":"html-keyboard-response","trial_index":49,"time_elapsed":871159,"internal_node_id":"0.0-39.0-0.0","params":{"nStudents":24,"maxFlips":30,"completionMinutes":45,"basePay":8,"maxBonus":9,"perTrialBonus":0.5,"perTrialBonusThreshold":0.1,"exampleCost":0.01},"classroomParams":{"A":{"a":1,"b":4},"B":{"a":4,"b":1},"C":{"a":2,"b":8},"D":{"a":8,"b":2}},"conditions":["nonSeqFull","nonSeqPartial","seqNoFeedback","seqFeedback"],"classroomPairings":[["A","B"],["C","D"]],"coinWeights":[0.2,0.5,0.8],"subjectId":"ARUXG5FD1Q76F","assignmentId":"32UTUBMZ7HISRFL1ZSPWU2BJ8IFBVE","hitId":"3QGHA0EA0JM3KKNCY0PQRLYAHJ3BWH","url":"https://gershmanlab.com/experiments/alicia/teaching/experiment/?hitId=3QGHA0EA0JM3KKNCY0PQRLYAHJ3BWH&workerId=ARUXG5FD1Q76F&assignmentId=32UTUBMZ7HISRFL1ZSPWU2BJ8IFBVE&a=ZUU28&tp_a=ZUU28&b=32UTUBMZ7HISRFL1ZSPWU2BJ8IFBVE&tp_b=32UTUBMZ7HISRFL1ZSPWU2BJ8IFBVE&c=365198&tp_c=365198"},{"rt":4787,"stimulus":"\n            <h4 style=\"color:Orange;\">Student 5</h4>\n            <h2>The weight of your coin is <b style=\"color:Tomato;\">0.2</b>.</h2>\n            <p>In this block, you will be giving <b>one</b> set of examples to Student 5.</p>\n                <p>You will receive feedback at the end of the block.</p>\n            ","response":0,"trial_type":"html-button-response","trial_index":50,"time_elapsed":875948,"internal_node_id":"0.0-40.0","params":{"nStudents":24,"maxFlips":30,"completionMinutes":45,"basePay":8,"maxBonus":9,"perTrialBonus":0.5,"perTrialBonusThreshold":0.1,"exampleCost":0.01},"classroomParams":{"A":{"a":1,"b":4},"B":{"a":4,"b":1},"C":{"a":2,"b":8},"D":{"a":8,"b":2}},"conditions":["nonSeqFull","nonSeqPartial","seqNoFeedback","seqFeedback"],"classroomPairings":[["A","B"],["C","D"]],"coinWeights":[0.2,0.5,0.8],"subjectId":"ARUXG5FD1Q76F","assignmentId":"32UTUBMZ7HISRFL1ZSPWU2BJ8IFBVE","hitId":"3QGHA0EA0JM3KKNCY0PQRLYAHJ3BWH","url":"https://gershmanlab.com/experiments/alicia/teaching/experiment/?hitId=3QGHA0EA0JM3KKNCY0PQRLYAHJ3BWH&workerId=ARUXG5FD1Q76F&assignmentId=32UTUBMZ7HISRFL1ZSPWU2BJ8IFBVE&a=ZUU28&tp_a=ZUU28&b=32UTUBMZ7HISRFL1ZSPWU2BJ8IFBVE&tp_b=32UTUBMZ7HISRFL1ZSPWU2BJ8IFBVE&c=365198&tp_c=365198"},{"rt":19718,"response":{"heads":"1","tails":"5"},"type":"response","condition":"nonSeqFull","trueTheta":0.2,"classrooms":["A","B"],"studentTrueClassroom":"A","exampleSet":"first","trial_type":"survey-html-form","trial_index":51,"time_elapsed":895667,"internal_node_id":"0.0-41.0-0.0","params":{"nStudents":24,"maxFlips":30,"completionMinutes":45,"basePay":8,"maxBonus":9,"perTrialBonus":0.5,"perTrialBonusThreshold":0.1,"exampleCost":0.01},"classroomParams":{"A":{"a":1,"b":4},"B":{"a":4,"b":1},"C":{"a":2,"b":8},"D":{"a":8,"b":2}},"conditions":["nonSeqFull","nonSeqPartial","seqNoFeedback","seqFeedback"],"classroomPairings":[["A","B"],["C","D"]],"coinWeights":[0.2,0.5,0.8],"subjectId":"ARUXG5FD1Q76F","assignmentId":"32UTUBMZ7HISRFL1ZSPWU2BJ8IFBVE","hitId":"3QGHA0EA0JM3KKNCY0PQRLYAHJ3BWH","url":"https://gershmanlab.com/experiments/alicia/teaching/experiment/?hitId=3QGHA0EA0JM3KKNCY0PQRLYAHJ3BWH&workerId=ARUXG5FD1Q76F&assignmentId=32UTUBMZ7HISRFL1ZSPWU2BJ8IFBVE&a=ZUU28&tp_a=ZUU28&b=32UTUBMZ7HISRFL1ZSPWU2BJ8IFBVE&tp_b=32UTUBMZ7HISRFL1ZSPWU2BJ8IFBVE&c=365198&tp_c=365198","heads":1,"tails":5,"studentIndex":4,"studentTrueHypers":{"a":1,"b":4},"studentGuess":0.18181818181818182,"delta":0.018181818181818188,"totalExamples":6,"bonus":0.44,"bonusSoFar":1.34},{"rt":null,"stimulus":"Sending examples to student... ","response":null,"trial_type":"html-keyboard-response","trial_index":52,"time_elapsed":897432,"internal_node_id":"0.0-42.0","params":{"nStudents":24,"maxFlips":30,"completionMinutes":45,"basePay":8,"maxBonus":9,"perTrialBonus":0.5,"perTrialBonusThreshold":0.1,"exampleCost":0.01},"classroomParams":{"A":{"a":1,"b":4},"B":{"a":4,"b":1},"C":{"a":2,"b":8},"D":{"a":8,"b":2}},"conditions":["nonSeqFull","nonSeqPartial","seqNoFeedback","seqFeedback"],"classroomPairings":[["A","B"],["C","D"]],"coinWeights":[0.2,0.5,0.8],"subjectId":"ARUXG5FD1Q76F","assignmentId":"32UTUBMZ7HISRFL1ZSPWU2BJ8IFBVE","hitId":"3QGHA0EA0JM3KKNCY0PQRLYAHJ3BWH","url":"https://gershmanlab.com/experiments/alicia/teaching/experiment/?hitId=3QGHA0EA0JM3KKNCY0PQRLYAHJ3BWH&workerId=ARUXG5FD1Q76F&assignmentId=32UTUBMZ7HISRFL1ZSPWU2BJ8IFBVE&a=ZUU28&tp_a=ZUU28&b=32UTUBMZ7HISRFL1ZSPWU2BJ8IFBVE&tp_b=32UTUBMZ7HISRFL1ZSPWU2BJ8IFBVE&c=365198&tp_c=365198"},{"rt":null,"stimulus":"Examples sent to student! Waiting for student...","response":null,"trial_type":"html-keyboard-response","trial_index":53,"time_elapsed":902438,"internal_node_id":"0.0-43.0","params":{"nStudents":24,"maxFlips":30,"completionMinutes":45,"basePay":8,"maxBonus":9,"perTrialBonus":0.5,"perTrialBonusThreshold":0.1,"exampleCost":0.01},"classroomParams":{"A":{"a":1,"b":4},"B":{"a":4,"b":1},"C":{"a":2,"b":8},"D":{"a":8,"b":2}},"conditions":["nonSeqFull","nonSeqPartial","seqNoFeedback","seqFeedback"],"classroomPairings":[["A","B"],["C","D"]],"coinWeights":[0.2,0.5,0.8],"subjectId":"ARUXG5FD1Q76F","assignmentId":"32UTUBMZ7HISRFL1ZSPWU2BJ8IFBVE","hitId":"3QGHA0EA0JM3KKNCY0PQRLYAHJ3BWH","url":"https://gershmanlab.com/experiments/alicia/teaching/experiment/?hitId=3QGHA0EA0JM3KKNCY0PQRLYAHJ3BWH&workerId=ARUXG5FD1Q76F&assignmentId=32UTUBMZ7HISRFL1ZSPWU2BJ8IFBVE&a=ZUU28&tp_a=ZUU28&b=32UTUBMZ7HISRFL1ZSPWU2BJ8IFBVE&tp_b=32UTUBMZ7HISRFL1ZSPWU2BJ8IFBVE&c=365198&tp_c=365198"},{"rt":3302,"stimulus":"\n                <p>Student's guess for coin weight: <b style=\"color:Tomato;\">0.18</b></p>\n                <p>You received a bonus of <b>$0.44</b>. Total bonus so far: <b>$1.34</b></b></p>\n                <p> Press any key to continue.</p>\n                ","response":" ","trial_type":"html-keyboard-response","trial_index":54,"time_elapsed":905742,"internal_node_id":"0.0-44.0","params":{"nStudents":24,"maxFlips":30,"completionMinutes":45,"basePay":8,"maxBonus":9,"perTrialBonus":0.5,"perTrialBonusThreshold":0.1,"exampleCost":0.01},"classroomParams":{"A":{"a":1,"b":4},"B":{"a":4,"b":1},"C":{"a":2,"b":8},"D":{"a":8,"b":2}},"conditions":["nonSeqFull","nonSeqPartial","seqNoFeedback","seqFeedback"],"classroomPairings":[["A","B"],["C","D"]],"coinWeights":[0.2,0.5,0.8],"subjectId":"ARUXG5FD1Q76F","assignmentId":"32UTUBMZ7HISRFL1ZSPWU2BJ8IFBVE","hitId":"3QGHA0EA0JM3KKNCY0PQRLYAHJ3BWH","url":"https://gershmanlab.com/experiments/alicia/teaching/experiment/?hitId=3QGHA0EA0JM3KKNCY0PQRLYAHJ3BWH&workerId=ARUXG5FD1Q76F&assignmentId=32UTUBMZ7HISRFL1ZSPWU2BJ8IFBVE&a=ZUU28&tp_a=ZUU28&b=32UTUBMZ7HISRFL1ZSPWU2BJ8IFBVE&tp_b=32UTUBMZ7HISRFL1ZSPWU2BJ8IFBVE&c=365198&tp_c=365198"},{"rt":null,"stimulus":"<div style=\"font-size:60px;\">Next student</div>","response":null,"trial_type":"html-keyboard-response","trial_index":55,"time_elapsed":908745,"internal_node_id":"0.0-45.0-0.0","params":{"nStudents":24,"maxFlips":30,"completionMinutes":45,"basePay":8,"maxBonus":9,"perTrialBonus":0.5,"perTrialBonusThreshold":0.1,"exampleCost":0.01},"classroomParams":{"A":{"a":1,"b":4},"B":{"a":4,"b":1},"C":{"a":2,"b":8},"D":{"a":8,"b":2}},"conditions":["nonSeqFull","nonSeqPartial","seqNoFeedback","seqFeedback"],"classroomPairings":[["A","B"],["C","D"]],"coinWeights":[0.2,0.5,0.8],"subjectId":"ARUXG5FD1Q76F","assignmentId":"32UTUBMZ7HISRFL1ZSPWU2BJ8IFBVE","hitId":"3QGHA0EA0JM3KKNCY0PQRLYAHJ3BWH","url":"https://gershmanlab.com/experiments/alicia/teaching/experiment/?hitId=3QGHA0EA0JM3KKNCY0PQRLYAHJ3BWH&workerId=ARUXG5FD1Q76F&assignmentId=32UTUBMZ7HISRFL1ZSPWU2BJ8IFBVE&a=ZUU28&tp_a=ZUU28&b=32UTUBMZ7HISRFL1ZSPWU2BJ8IFBVE&tp_b=32UTUBMZ7HISRFL1ZSPWU2BJ8IFBVE&c=365198&tp_c=365198"},{"rt":3072,"stimulus":"\n            <h4 style=\"color:Orange;\">Student 6</h4>\n            <h2>The weight of your coin is <b style=\"color:Tomato;\">0.5</b>.</h2>\n            <p>In this block, you will be giving <b>one</b> set of examples to Student 6.</p>\n                <p>You will receive feedback at the end of the block.</p>\n            ","response":0,"trial_type":"html-button-response","trial_index":56,"time_elapsed":911819,"internal_node_id":"0.0-46.0","params":{"nStudents":24,"maxFlips":30,"completionMinutes":45,"basePay":8,"maxBonus":9,"perTrialBonus":0.5,"perTrialBonusThreshold":0.1,"exampleCost":0.01},"classroomParams":{"A":{"a":1,"b":4},"B":{"a":4,"b":1},"C":{"a":2,"b":8},"D":{"a":8,"b":2}},"conditions":["nonSeqFull","nonSeqPartial","seqNoFeedback","seqFeedback"],"classroomPairings":[["A","B"],["C","D"]],"coinWeights":[0.2,0.5,0.8],"subjectId":"ARUXG5FD1Q76F","assignmentId":"32UTUBMZ7HISRFL1ZSPWU2BJ8IFBVE","hitId":"3QGHA0EA0JM3KKNCY0PQRLYAHJ3BWH","url":"https://gershmanlab.com/experiments/alicia/teaching/experiment/?hitId=3QGHA0EA0JM3KKNCY0PQRLYAHJ3BWH&workerId=ARUXG5FD1Q76F&assignmentId=32UTUBMZ7HISRFL1ZSPWU2BJ8IFBVE&a=ZUU28&tp_a=ZUU28&b=32UTUBMZ7HISRFL1ZSPWU2BJ8IFBVE&tp_b=32UTUBMZ7HISRFL1ZSPWU2BJ8IFBVE&c=365198&tp_c=365198"},{"rt":38253,"response":{"heads":"14","tails":"3"},"type":"response","condition":"nonSeqFull","trueTheta":0.5,"classrooms":["A","B"],"studentTrueClassroom":"A","exampleSet":"first","trial_type":"survey-html-form","trial_index":57,"time_elapsed":950074,"internal_node_id":"0.0-47.0-0.0","params":{"nStudents":24,"maxFlips":30,"completionMinutes":45,"basePay":8,"maxBonus":9,"perTrialBonus":0.5,"perTrialBonusThreshold":0.1,"exampleCost":0.01},"classroomParams":{"A":{"a":1,"b":4},"B":{"a":4,"b":1},"C":{"a":2,"b":8},"D":{"a":8,"b":2}},"conditions":["nonSeqFull","nonSeqPartial","seqNoFeedback","seqFeedback"],"classroomPairings":[["A","B"],["C","D"]],"coinWeights":[0.2,0.5,0.8],"subjectId":"ARUXG5FD1Q76F","assignmentId":"32UTUBMZ7HISRFL1ZSPWU2BJ8IFBVE","hitId":"3QGHA0EA0JM3KKNCY0PQRLYAHJ3BWH","url":"https://gershmanlab.com/experiments/alicia/teaching/experiment/?hitId=3QGHA0EA0JM3KKNCY0PQRLYAHJ3BWH&workerId=ARUXG5FD1Q76F&assignmentId=32UTUBMZ7HISRFL1ZSPWU2BJ8IFBVE&a=ZUU28&tp_a=ZUU28&b=32UTUBMZ7HISRFL1ZSPWU2BJ8IFBVE&tp_b=32UTUBMZ7HISRFL1ZSPWU2BJ8IFBVE&c=365198&tp_c=365198","heads":14,"tails":3,"studentIndex":5,"studentTrueHypers":{"a":1,"b":4},"studentGuess":0.6818181818181818,"delta":0.18181818181818177,"totalExamples":17,"bonus":0,"bonusSoFar":1.34},{"rt":null,"stimulus":"Sending examples to student... ","response":null,"trial_type":"html-keyboard-response","trial_index":58,"time_elapsed":951825,"internal_node_id":"0.0-48.0","params":{"nStudents":24,"maxFlips":30,"completionMinutes":45,"basePay":8,"maxBonus":9,"perTrialBonus":0.5,"perTrialBonusThreshold":0.1,"exampleCost":0.01},"classroomParams":{"A":{"a":1,"b":4},"B":{"a":4,"b":1},"C":{"a":2,"b":8},"D":{"a":8,"b":2}},"conditions":["nonSeqFull","nonSeqPartial","seqNoFeedback","seqFeedback"],"classroomPairings":[["A","B"],["C","D"]],"coinWeights":[0.2,0.5,0.8],"subjectId":"ARUXG5FD1Q76F","assignmentId":"32UTUBMZ7HISRFL1ZSPWU2BJ8IFBVE","hitId":"3QGHA0EA0JM3KKNCY0PQRLYAHJ3BWH","url":"https://gershmanlab.com/experiments/alicia/teaching/experiment/?hitId=3QGHA0EA0JM3KKNCY0PQRLYAHJ3BWH&workerId=ARUXG5FD1Q76F&assignmentId=32UTUBMZ7HISRFL1ZSPWU2BJ8IFBVE&a=ZUU28&tp_a=ZUU28&b=32UTUBMZ7HISRFL1ZSPWU2BJ8IFBVE&tp_b=32UTUBMZ7HISRFL1ZSPWU2BJ8IFBVE&c=365198&tp_c=365198"},{"rt":null,"stimulus":"Examples sent to student! Waiting for student...","response":null,"trial_type":"html-keyboard-response","trial_index":59,"time_elapsed":956835,"internal_node_id":"0.0-49.0","params":{"nStudents":24,"maxFlips":30,"completionMinutes":45,"basePay":8,"maxBonus":9,"perTrialBonus":0.5,"perTrialBonusThreshold":0.1,"exampleCost":0.01},"classroomParams":{"A":{"a":1,"b":4},"B":{"a":4,"b":1},"C":{"a":2,"b":8},"D":{"a":8,"b":2}},"conditions":["nonSeqFull","nonSeqPartial","seqNoFeedback","seqFeedback"],"classroomPairings":[["A","B"],["C","D"]],"coinWeights":[0.2,0.5,0.8],"subjectId":"ARUXG5FD1Q76F","assignmentId":"32UTUBMZ7HISRFL1ZSPWU2BJ8IFBVE","hitId":"3QGHA0EA0JM3KKNCY0PQRLYAHJ3BWH","url":"https://gershmanlab.com/experiments/alicia/teaching/experiment/?hitId=3QGHA0EA0JM3KKNCY0PQRLYAHJ3BWH&workerId=ARUXG5FD1Q76F&assignmentId=32UTUBMZ7HISRFL1ZSPWU2BJ8IFBVE&a=ZUU28&tp_a=ZUU28&b=32UTUBMZ7HISRFL1ZSPWU2BJ8IFBVE&tp_b=32UTUBMZ7HISRFL1ZSPWU2BJ8IFBVE&c=365198&tp_c=365198"},{"rt":4563,"stimulus":"\n                <p>Student's guess for coin weight: <b style=\"color:Tomato;\">0.68</b></p>\n                <p>You received a bonus of <b>$0</b>. Total bonus so far: <b>$1.34</b></b></p>\n                <p> Press any key to continue.</p>\n                ","response":" ","trial_type":"html-keyboard-response","trial_index":60,"time_elapsed":961399,"internal_node_id":"0.0-50.0","params":{"nStudents":24,"maxFlips":30,"completionMinutes":45,"basePay":8,"maxBonus":9,"perTrialBonus":0.5,"perTrialBonusThreshold":0.1,"exampleCost":0.01},"classroomParams":{"A":{"a":1,"b":4},"B":{"a":4,"b":1},"C":{"a":2,"b":8},"D":{"a":8,"b":2}},"conditions":["nonSeqFull","nonSeqPartial","seqNoFeedback","seqFeedback"],"classroomPairings":[["A","B"],["C","D"]],"coinWeights":[0.2,0.5,0.8],"subjectId":"ARUXG5FD1Q76F","assignmentId":"32UTUBMZ7HISRFL1ZSPWU2BJ8IFBVE","hitId":"3QGHA0EA0JM3KKNCY0PQRLYAHJ3BWH","url":"https://gershmanlab.com/experiments/alicia/teaching/experiment/?hitId=3QGHA0EA0JM3KKNCY0PQRLYAHJ3BWH&workerId=ARUXG5FD1Q76F&assignmentId=32UTUBMZ7HISRFL1ZSPWU2BJ8IFBVE&a=ZUU28&tp_a=ZUU28&b=32UTUBMZ7HISRFL1ZSPWU2BJ8IFBVE&tp_b=32UTUBMZ7HISRFL1ZSPWU2BJ8IFBVE&c=365198&tp_c=365198"},{"rt":null,"stimulus":"<div style=\"font-size:60px;\">Next student</div>","response":null,"trial_type":"html-keyboard-response","trial_index":61,"time_elapsed":963665,"internal_node_id":"0.0-51.0-0.0","params":{"nStudents":24,"maxFlips":30,"completionMinutes":45,"basePay":8,"maxBonus":9,"perTrialBonus":0.5,"perTrialBonusThreshold":0.1,"exampleCost":0.01},"classroomParams":{"A":{"a":1,"b":4},"B":{"a":4,"b":1},"C":{"a":2,"b":8},"D":{"a":8,"b":2}},"conditions":["nonSeqFull","nonSeqPartial","seqNoFeedback","seqFeedback"],"classroomPairings":[["A","B"],["C","D"]],"coinWeights":[0.2,0.5,0.8],"subjectId":"ARUXG5FD1Q76F","assignmentId":"32UTUBMZ7HISRFL1ZSPWU2BJ8IFBVE","hitId":"3QGHA0EA0JM3KKNCY0PQRLYAHJ3BWH","url":"https://gershmanlab.com/experiments/alicia/teaching/experiment/?hitId=3QGHA0EA0JM3KKNCY0PQRLYAHJ3BWH&workerId=ARUXG5FD1Q76F&assignmentId=32UTUBMZ7HISRFL1ZSPWU2BJ8IFBVE&a=ZUU28&tp_a=ZUU28&b=32UTUBMZ7HISRFL1ZSPWU2BJ8IFBVE&tp_b=32UTUBMZ7HISRFL1ZSPWU2BJ8IFBVE&c=365198&tp_c=365198"},{"rt":2455,"stimulus":"\n            <h4 style=\"color:Orange;\">Student 7</h4>\n            <h2>The weight of your coin is <b style=\"color:Tomato;\">0.2</b>.</h2>\n            <p>In this block, you will be giving <b>one</b> set of examples to Student 7.</p>\n                <p>You will receive feedback at the end of the block.</p>\n            ","response":0,"trial_type":"html-button-response","trial_index":62,"time_elapsed":966122,"internal_node_id":"0.0-52.0","params":{"nStudents":24,"maxFlips":30,"completionMinutes":45,"basePay":8,"maxBonus":9,"perTrialBonus":0.5,"perTrialBonusThreshold":0.1,"exampleCost":0.01},"classroomParams":{"A":{"a":1,"b":4},"B":{"a":4,"b":1},"C":{"a":2,"b":8},"D":{"a":8,"b":2}},"conditions":["nonSeqFull","nonSeqPartial","seqNoFeedback","seqFeedback"],"classroomPairings":[["A","B"],["C","D"]],"coinWeights":[0.2,0.5,0.8],"subjectId":"ARUXG5FD1Q76F","assignmentId":"32UTUBMZ7HISRFL1ZSPWU2BJ8IFBVE","hitId":"3QGHA0EA0JM3KKNCY0PQRLYAHJ3BWH","url":"https://gershmanlab.com/experiments/alicia/teaching/experiment/?hitId=3QGHA0EA0JM3KKNCY0PQRLYAHJ3BWH&workerId=ARUXG5FD1Q76F&assignmentId=32UTUBMZ7HISRFL1ZSPWU2BJ8IFBVE&a=ZUU28&tp_a=ZUU28&b=32UTUBMZ7HISRFL1ZSPWU2BJ8IFBVE&tp_b=32UTUBMZ7HISRFL1ZSPWU2BJ8IFBVE&c=365198&tp_c=365198"},{"rt":15767,"response":{"heads":"2","tails":"10"},"type":"response","condition":"nonSeqPartial","trueTheta":0.2,"classrooms":["A","B"],"studentTrueClassroom":"A","exampleSet":"first","trial_type":"survey-html-form","trial_index":63,"time_elapsed":981891,"internal_node_id":"0.0-53.0-0.0","params":{"nStudents":24,"maxFlips":30,"completionMinutes":45,"basePay":8,"maxBonus":9,"perTrialBonus":0.5,"perTrialBonusThreshold":0.1,"exampleCost":0.01},"classroomParams":{"A":{"a":1,"b":4},"B":{"a":4,"b":1},"C":{"a":2,"b":8},"D":{"a":8,"b":2}},"conditions":["nonSeqFull","nonSeqPartial","seqNoFeedback","seqFeedback"],"classroomPairings":[["A","B"],["C","D"]],"coinWeights":[0.2,0.5,0.8],"subjectId":"ARUXG5FD1Q76F","assignmentId":"32UTUBMZ7HISRFL1ZSPWU2BJ8IFBVE","hitId":"3QGHA0EA0JM3KKNCY0PQRLYAHJ3BWH","url":"https://gershmanlab.com/experiments/alicia/teaching/experiment/?hitId=3QGHA0EA0JM3KKNCY0PQRLYAHJ3BWH&workerId=ARUXG5FD1Q76F&assignmentId=32UTUBMZ7HISRFL1ZSPWU2BJ8IFBVE&a=ZUU28&tp_a=ZUU28&b=32UTUBMZ7HISRFL1ZSPWU2BJ8IFBVE&tp_b=32UTUBMZ7HISRFL1ZSPWU2BJ8IFBVE&c=365198&tp_c=365198","heads":2,"tails":10,"studentIndex":6,"studentTrueHypers":{"a":1,"b":4},"studentGuess":0.17647058823529413,"delta":0.023529411764705882,"totalExamples":12,"bonus":0.38,"bonusSoFar":1.72},{"rt":null,"stimulus":"Sending examples to student... ","response":null,"trial_type":"html-keyboard-response","trial_index":64,"time_elapsed":983642,"internal_node_id":"0.0-54.0","params":{"nStudents":24,"maxFlips":30,"completionMinutes":45,"basePay":8,"maxBonus":9,"perTrialBonus":0.5,"perTrialBonusThreshold":0.1,"exampleCost":0.01},"classroomParams":{"A":{"a":1,"b":4},"B":{"a":4,"b":1},"C":{"a":2,"b":8},"D":{"a":8,"b":2}},"conditions":["nonSeqFull","nonSeqPartial","seqNoFeedback","seqFeedback"],"classroomPairings":[["A","B"],["C","D"]],"coinWeights":[0.2,0.5,0.8],"subjectId":"ARUXG5FD1Q76F","assignmentId":"32UTUBMZ7HISRFL1ZSPWU2BJ8IFBVE","hitId":"3QGHA0EA0JM3KKNCY0PQRLYAHJ3BWH","url":"https://gershmanlab.com/experiments/alicia/teaching/experiment/?hitId=3QGHA0EA0JM3KKNCY0PQRLYAHJ3BWH&workerId=ARUXG5FD1Q76F&assignmentId=32UTUBMZ7HISRFL1ZSPWU2BJ8IFBVE&a=ZUU28&tp_a=ZUU28&b=32UTUBMZ7HISRFL1ZSPWU2BJ8IFBVE&tp_b=32UTUBMZ7HISRFL1ZSPWU2BJ8IFBVE&c=365198&tp_c=365198"},{"rt":null,"stimulus":"Examples sent to student! Waiting for student...","response":null,"trial_type":"html-keyboard-response","trial_index":65,"time_elapsed":989643,"internal_node_id":"0.0-55.0","params":{"nStudents":24,"maxFlips":30,"completionMinutes":45,"basePay":8,"maxBonus":9,"perTrialBonus":0.5,"perTrialBonusThreshold":0.1,"exampleCost":0.01},"classroomParams":{"A":{"a":1,"b":4},"B":{"a":4,"b":1},"C":{"a":2,"b":8},"D":{"a":8,"b":2}},"conditions":["nonSeqFull","nonSeqPartial","seqNoFeedback","seqFeedback"],"classroomPairings":[["A","B"],["C","D"]],"coinWeights":[0.2,0.5,0.8],"subjectId":"ARUXG5FD1Q76F","assignmentId":"32UTUBMZ7HISRFL1ZSPWU2BJ8IFBVE","hitId":"3QGHA0EA0JM3KKNCY0PQRLYAHJ3BWH","url":"https://gershmanlab.com/experiments/alicia/teaching/experiment/?hitId=3QGHA0EA0JM3KKNCY0PQRLYAHJ3BWH&workerId=ARUXG5FD1Q76F&assignmentId=32UTUBMZ7HISRFL1ZSPWU2BJ8IFBVE&a=ZUU28&tp_a=ZUU28&b=32UTUBMZ7HISRFL1ZSPWU2BJ8IFBVE&tp_b=32UTUBMZ7HISRFL1ZSPWU2BJ8IFBVE&c=365198&tp_c=365198"},{"rt":2378,"stimulus":"\n                <p>Student's guess for coin weight: <b style=\"color:Tomato;\">0.18</b></p>\n                <p>You received a bonus of <b>$0.38</b>. Total bonus so far: <b>$1.72</b></b></p>\n                <p> Press any key to continue.</p>\n                ","response":" ","trial_type":"html-keyboard-response","trial_index":66,"time_elapsed":992022,"internal_node_id":"0.0-56.0","params":{"nStudents":24,"maxFlips":30,"completionMinutes":45,"basePay":8,"maxBonus":9,"perTrialBonus":0.5,"perTrialBonusThreshold":0.1,"exampleCost":0.01},"classroomParams":{"A":{"a":1,"b":4},"B":{"a":4,"b":1},"C":{"a":2,"b":8},"D":{"a":8,"b":2}},"conditions":["nonSeqFull","nonSeqPartial","seqNoFeedback","seqFeedback"],"classroomPairings":[["A","B"],["C","D"]],"coinWeights":[0.2,0.5,0.8],"subjectId":"ARUXG5FD1Q76F","assignmentId":"32UTUBMZ7HISRFL1ZSPWU2BJ8IFBVE","hitId":"3QGHA0EA0JM3KKNCY0PQRLYAHJ3BWH","url":"https://gershmanlab.com/experiments/alicia/teaching/experiment/?hitId=3QGHA0EA0JM3KKNCY0PQRLYAHJ3BWH&workerId=ARUXG5FD1Q76F&assignmentId=32UTUBMZ7HISRFL1ZSPWU2BJ8IFBVE&a=ZUU28&tp_a=ZUU28&b=32UTUBMZ7HISRFL1ZSPWU2BJ8IFBVE&tp_b=32UTUBMZ7HISRFL1ZSPWU2BJ8IFBVE&c=365198&tp_c=365198"},{"rt":null,"stimulus":"<div style=\"font-size:60px;\">Next student</div>","response":null,"trial_type":"html-keyboard-response","trial_index":67,"time_elapsed":995025,"internal_node_id":"0.0-57.0-0.0","params":{"nStudents":24,"maxFlips":30,"completionMinutes":45,"basePay":8,"maxBonus":9,"perTrialBonus":0.5,"perTrialBonusThreshold":0.1,"exampleCost":0.01},"classroomParams":{"A":{"a":1,"b":4},"B":{"a":4,"b":1},"C":{"a":2,"b":8},"D":{"a":8,"b":2}},"conditions":["nonSeqFull","nonSeqPartial","seqNoFeedback","seqFeedback"],"classroomPairings":[["A","B"],["C","D"]],"coinWeights":[0.2,0.5,0.8],"subjectId":"ARUXG5FD1Q76F","assignmentId":"32UTUBMZ7HISRFL1ZSPWU2BJ8IFBVE","hitId":"3QGHA0EA0JM3KKNCY0PQRLYAHJ3BWH","url":"https://gershmanlab.com/experiments/alicia/teaching/experiment/?hitId=3QGHA0EA0JM3KKNCY0PQRLYAHJ3BWH&workerId=ARUXG5FD1Q76F&assignmentId=32UTUBMZ7HISRFL1ZSPWU2BJ8IFBVE&a=ZUU28&tp_a=ZUU28&b=32UTUBMZ7HISRFL1ZSPWU2BJ8IFBVE&tp_b=32UTUBMZ7HISRFL1ZSPWU2BJ8IFBVE&c=365198&tp_c=365198"},{"rt":2648,"stimulus":"\n            <h4 style=\"color:Orange;\">Student 8</h4>\n            <h2>The weight of your coin is <b style=\"color:Tomato;\">0.5</b>.</h2>\n            <p>In this block, you will be giving <b>one</b> set of examples to Student 8.</p>\n                <p>You will receive feedback at the end of the block.</p>\n            ","response":0,"trial_type":"html-button-response","trial_index":68,"time_elapsed":997675,"internal_node_id":"0.0-58.0","params":{"nStudents":24,"maxFlips":30,"completionMinutes":45,"basePay":8,"maxBonus":9,"perTrialBonus":0.5,"perTrialBonusThreshold":0.1,"exampleCost":0.01},"classroomParams":{"A":{"a":1,"b":4},"B":{"a":4,"b":1},"C":{"a":2,"b":8},"D":{"a":8,"b":2}},"conditions":["nonSeqFull","nonSeqPartial","seqNoFeedback","seqFeedback"],"classroomPairings":[["A","B"],["C","D"]],"coinWeights":[0.2,0.5,0.8],"subjectId":"ARUXG5FD1Q76F","assignmentId":"32UTUBMZ7HISRFL1ZSPWU2BJ8IFBVE","hitId":"3QGHA0EA0JM3KKNCY0PQRLYAHJ3BWH","url":"https://gershmanlab.com/experiments/alicia/teaching/experiment/?hitId=3QGHA0EA0JM3KKNCY0PQRLYAHJ3BWH&workerId=ARUXG5FD1Q76F&assignmentId=32UTUBMZ7HISRFL1ZSPWU2BJ8IFBVE&a=ZUU28&tp_a=ZUU28&b=32UTUBMZ7HISRFL1ZSPWU2BJ8IFBVE&tp_b=32UTUBMZ7HISRFL1ZSPWU2BJ8IFBVE&c=365198&tp_c=365198"},{"rt":23460,"response":{"heads":"8","tails":"8"},"type":"response","condition":"nonSeqFull","trueTheta":0.5,"classrooms":["C","D"],"studentTrueClassroom":"C","exampleSet":"first","trial_type":"survey-html-form","trial_index":69,"time_elapsed":1021136,"internal_node_id":"0.0-59.0-0.0","params":{"nStudents":24,"maxFlips":30,"completionMinutes":45,"basePay":8,"maxBonus":9,"perTrialBonus":0.5,"perTrialBonusThreshold":0.1,"exampleCost":0.01},"classroomParams":{"A":{"a":1,"b":4},"B":{"a":4,"b":1},"C":{"a":2,"b":8},"D":{"a":8,"b":2}},"conditions":["nonSeqFull","nonSeqPartial","seqNoFeedback","seqFeedback"],"classroomPairings":[["A","B"],["C","D"]],"coinWeights":[0.2,0.5,0.8],"subjectId":"ARUXG5FD1Q76F","assignmentId":"32UTUBMZ7HISRFL1ZSPWU2BJ8IFBVE","hitId":"3QGHA0EA0JM3KKNCY0PQRLYAHJ3BWH","url":"https://gershmanlab.com/experiments/alicia/teaching/experiment/?hitId=3QGHA0EA0JM3KKNCY0PQRLYAHJ3BWH&workerId=ARUXG5FD1Q76F&assignmentId=32UTUBMZ7HISRFL1ZSPWU2BJ8IFBVE&a=ZUU28&tp_a=ZUU28&b=32UTUBMZ7HISRFL1ZSPWU2BJ8IFBVE&tp_b=32UTUBMZ7HISRFL1ZSPWU2BJ8IFBVE&c=365198&tp_c=365198","heads":8,"tails":8,"studentIndex":7,"studentTrueHypers":{"a":2,"b":8},"studentGuess":0.38461538461538464,"delta":0.11538461538461536,"totalExamples":16,"bonus":0,"bonusSoFar":1.72},{"rt":null,"stimulus":"Sending examples to student... ","response":null,"trial_type":"html-keyboard-response","trial_index":70,"time_elapsed":1022638,"internal_node_id":"0.0-60.0","params":{"nStudents":24,"maxFlips":30,"completionMinutes":45,"basePay":8,"maxBonus":9,"perTrialBonus":0.5,"perTrialBonusThreshold":0.1,"exampleCost":0.01},"classroomParams":{"A":{"a":1,"b":4},"B":{"a":4,"b":1},"C":{"a":2,"b":8},"D":{"a":8,"b":2}},"conditions":["nonSeqFull","nonSeqPartial","seqNoFeedback","seqFeedback"],"classroomPairings":[["A","B"],["C","D"]],"coinWeights":[0.2,0.5,0.8],"subjectId":"ARUXG5FD1Q76F","assignmentId":"32UTUBMZ7HISRFL1ZSPWU2BJ8IFBVE","hitId":"3QGHA0EA0JM3KKNCY0PQRLYAHJ3BWH","url":"https://gershmanlab.com/experiments/alicia/teaching/experiment/?hitId=3QGHA0EA0JM3KKNCY0PQRLYAHJ3BWH&workerId=ARUXG5FD1Q76F&assignmentId=32UTUBMZ7HISRFL1ZSPWU2BJ8IFBVE&a=ZUU28&tp_a=ZUU28&b=32UTUBMZ7HISRFL1ZSPWU2BJ8IFBVE&tp_b=32UTUBMZ7HISRFL1ZSPWU2BJ8IFBVE&c=365198&tp_c=365198"},{"rt":null,"stimulus":"Examples sent to student! Waiting for student...","response":null,"trial_type":"html-keyboard-response","trial_index":71,"time_elapsed":1027642,"internal_node_id":"0.0-61.0","params":{"nStudents":24,"maxFlips":30,"completionMinutes":45,"basePay":8,"maxBonus":9,"perTrialBonus":0.5,"perTrialBonusThreshold":0.1,"exampleCost":0.01},"classroomParams":{"A":{"a":1,"b":4},"B":{"a":4,"b":1},"C":{"a":2,"b":8},"D":{"a":8,"b":2}},"conditions":["nonSeqFull","nonSeqPartial","seqNoFeedback","seqFeedback"],"classroomPairings":[["A","B"],["C","D"]],"coinWeights":[0.2,0.5,0.8],"subjectId":"ARUXG5FD1Q76F","assignmentId":"32UTUBMZ7HISRFL1ZSPWU2BJ8IFBVE","hitId":"3QGHA0EA0JM3KKNCY0PQRLYAHJ3BWH","url":"https://gershmanlab.com/experiments/alicia/teaching/experiment/?hitId=3QGHA0EA0JM3KKNCY0PQRLYAHJ3BWH&workerId=ARUXG5FD1Q76F&assignmentId=32UTUBMZ7HISRFL1ZSPWU2BJ8IFBVE&a=ZUU28&tp_a=ZUU28&b=32UTUBMZ7HISRFL1ZSPWU2BJ8IFBVE&tp_b=32UTUBMZ7HISRFL1ZSPWU2BJ8IFBVE&c=365198&tp_c=365198"},{"rt":3432,"stimulus":"\n                <p>Student's guess for coin weight: <b style=\"color:Tomato;\">0.38</b></p>\n                <p>You received a bonus of <b>$0</b>. Total bonus so far: <b>$1.72</b></b></p>\n                <p> Press any key to continue.</p>\n                ","response":" ","trial_type":"html-keyboard-response","trial_index":72,"time_elapsed":1031076,"internal_node_id":"0.0-62.0","params":{"nStudents":24,"maxFlips":30,"completionMinutes":45,"basePay":8,"maxBonus":9,"perTrialBonus":0.5,"perTrialBonusThreshold":0.1,"exampleCost":0.01},"classroomParams":{"A":{"a":1,"b":4},"B":{"a":4,"b":1},"C":{"a":2,"b":8},"D":{"a":8,"b":2}},"conditions":["nonSeqFull","nonSeqPartial","seqNoFeedback","seqFeedback"],"classroomPairings":[["A","B"],["C","D"]],"coinWeights":[0.2,0.5,0.8],"subjectId":"ARUXG5FD1Q76F","assignmentId":"32UTUBMZ7HISRFL1ZSPWU2BJ8IFBVE","hitId":"3QGHA0EA0JM3KKNCY0PQRLYAHJ3BWH","url":"https://gershmanlab.com/experiments/alicia/teaching/experiment/?hitId=3QGHA0EA0JM3KKNCY0PQRLYAHJ3BWH&workerId=ARUXG5FD1Q76F&assignmentId=32UTUBMZ7HISRFL1ZSPWU2BJ8IFBVE&a=ZUU28&tp_a=ZUU28&b=32UTUBMZ7HISRFL1ZSPWU2BJ8IFBVE&tp_b=32UTUBMZ7HISRFL1ZSPWU2BJ8IFBVE&c=365198&tp_c=365198"},{"rt":null,"stimulus":"<div style=\"font-size:60px;\">Next student</div>","response":null,"trial_type":"html-keyboard-response","trial_index":73,"time_elapsed":1033328,"internal_node_id":"0.0-63.0-0.0","params":{"nStudents":24,"maxFlips":30,"completionMinutes":45,"basePay":8,"maxBonus":9,"perTrialBonus":0.5,"perTrialBonusThreshold":0.1,"exampleCost":0.01},"classroomParams":{"A":{"a":1,"b":4},"B":{"a":4,"b":1},"C":{"a":2,"b":8},"D":{"a":8,"b":2}},"conditions":["nonSeqFull","nonSeqPartial","seqNoFeedback","seqFeedback"],"classroomPairings":[["A","B"],["C","D"]],"coinWeights":[0.2,0.5,0.8],"subjectId":"ARUXG5FD1Q76F","assignmentId":"32UTUBMZ7HISRFL1ZSPWU2BJ8IFBVE","hitId":"3QGHA0EA0JM3KKNCY0PQRLYAHJ3BWH","url":"https://gershmanlab.com/experiments/alicia/teaching/experiment/?hitId=3QGHA0EA0JM3KKNCY0PQRLYAHJ3BWH&workerId=ARUXG5FD1Q76F&assignmentId=32UTUBMZ7HISRFL1ZSPWU2BJ8IFBVE&a=ZUU28&tp_a=ZUU28&b=32UTUBMZ7HISRFL1ZSPWU2BJ8IFBVE&tp_b=32UTUBMZ7HISRFL1ZSPWU2BJ8IFBVE&c=365198&tp_c=365198"},{"rt":2449,"stimulus":"\n            <h4 style=\"color:Orange;\">Student 9</h4>\n            <h2>The weight of your coin is <b style=\"color:Tomato;\">0.8</b>.</h2>\n            <p>In this block, you will be giving <b>one</b> set of examples to Student 9.</p>\n                <p>You will receive feedback at the end of the block.</p>\n            ","response":0,"trial_type":"html-button-response","trial_index":74,"time_elapsed":1035778,"internal_node_id":"0.0-64.0","params":{"nStudents":24,"maxFlips":30,"completionMinutes":45,"basePay":8,"maxBonus":9,"perTrialBonus":0.5,"perTrialBonusThreshold":0.1,"exampleCost":0.01},"classroomParams":{"A":{"a":1,"b":4},"B":{"a":4,"b":1},"C":{"a":2,"b":8},"D":{"a":8,"b":2}},"conditions":["nonSeqFull","nonSeqPartial","seqNoFeedback","seqFeedback"],"classroomPairings":[["A","B"],["C","D"]],"coinWeights":[0.2,0.5,0.8],"subjectId":"ARUXG5FD1Q76F","assignmentId":"32UTUBMZ7HISRFL1ZSPWU2BJ8IFBVE","hitId":"3QGHA0EA0JM3KKNCY0PQRLYAHJ3BWH","url":"https://gershmanlab.com/experiments/alicia/teaching/experiment/?hitId=3QGHA0EA0JM3KKNCY0PQRLYAHJ3BWH&workerId=ARUXG5FD1Q76F&assignmentId=32UTUBMZ7HISRFL1ZSPWU2BJ8IFBVE&a=ZUU28&tp_a=ZUU28&b=32UTUBMZ7HISRFL1ZSPWU2BJ8IFBVE&tp_b=32UTUBMZ7HISRFL1ZSPWU2BJ8IFBVE&c=365198&tp_c=365198"},{"rt":11577,"response":{"heads":"10","tails":"2"},"type":"response","condition":"nonSeqPartial","trueTheta":0.8,"classrooms":["C","D"],"studentTrueClassroom":"D","exampleSet":"first","trial_type":"survey-html-form","trial_index":75,"time_elapsed":1047356,"internal_node_id":"0.0-65.0-0.0","params":{"nStudents":24,"maxFlips":30,"completionMinutes":45,"basePay":8,"maxBonus":9,"perTrialBonus":0.5,"perTrialBonusThreshold":0.1,"exampleCost":0.01},"classroomParams":{"A":{"a":1,"b":4},"B":{"a":4,"b":1},"C":{"a":2,"b":8},"D":{"a":8,"b":2}},"conditions":["nonSeqFull","nonSeqPartial","seqNoFeedback","seqFeedback"],"classroomPairings":[["A","B"],["C","D"]],"coinWeights":[0.2,0.5,0.8],"subjectId":"ARUXG5FD1Q76F","assignmentId":"32UTUBMZ7HISRFL1ZSPWU2BJ8IFBVE","hitId":"3QGHA0EA0JM3KKNCY0PQRLYAHJ3BWH","url":"https://gershmanlab.com/experiments/alicia/teaching/experiment/?hitId=3QGHA0EA0JM3KKNCY0PQRLYAHJ3BWH&workerId=ARUXG5FD1Q76F&assignmentId=32UTUBMZ7HISRFL1ZSPWU2BJ8IFBVE&a=ZUU28&tp_a=ZUU28&b=32UTUBMZ7HISRFL1ZSPWU2BJ8IFBVE&tp_b=32UTUBMZ7HISRFL1ZSPWU2BJ8IFBVE&c=365198&tp_c=365198","heads":10,"tails":2,"studentIndex":8,"studentTrueHypers":{"a":8,"b":2},"studentGuess":0.8181818181818182,"delta":0.018181818181818188,"totalExamples":12,"bonus":0.38,"bonusSoFar":2.1},{"rt":null,"stimulus":"Sending examples to student... ","response":null,"trial_type":"html-keyboard-response","trial_index":76,"time_elapsed":1048857,"internal_node_id":"0.0-66.0","params":{"nStudents":24,"maxFlips":30,"completionMinutes":45,"basePay":8,"maxBonus":9,"perTrialBonus":0.5,"perTrialBonusThreshold":0.1,"exampleCost":0.01},"classroomParams":{"A":{"a":1,"b":4},"B":{"a":4,"b":1},"C":{"a":2,"b":8},"D":{"a":8,"b":2}},"conditions":["nonSeqFull","nonSeqPartial","seqNoFeedback","seqFeedback"],"classroomPairings":[["A","B"],["C","D"]],"coinWeights":[0.2,0.5,0.8],"subjectId":"ARUXG5FD1Q76F","assignmentId":"32UTUBMZ7HISRFL1ZSPWU2BJ8IFBVE","hitId":"3QGHA0EA0JM3KKNCY0PQRLYAHJ3BWH","url":"https://gershmanlab.com/experiments/alicia/teaching/experiment/?hitId=3QGHA0EA0JM3KKNCY0PQRLYAHJ3BWH&workerId=ARUXG5FD1Q76F&assignmentId=32UTUBMZ7HISRFL1ZSPWU2BJ8IFBVE&a=ZUU28&tp_a=ZUU28&b=32UTUBMZ7HISRFL1ZSPWU2BJ8IFBVE&tp_b=32UTUBMZ7HISRFL1ZSPWU2BJ8IFBVE&c=365198&tp_c=365198"},{"rt":null,"stimulus":"Examples sent to student! Waiting for student...","response":null,"trial_type":"html-keyboard-response","trial_index":77,"time_elapsed":1053366,"internal_node_id":"0.0-67.0","params":{"nStudents":24,"maxFlips":30,"completionMinutes":45,"basePay":8,"maxBonus":9,"perTrialBonus":0.5,"perTrialBonusThreshold":0.1,"exampleCost":0.01},"classroomParams":{"A":{"a":1,"b":4},"B":{"a":4,"b":1},"C":{"a":2,"b":8},"D":{"a":8,"b":2}},"conditions":["nonSeqFull","nonSeqPartial","seqNoFeedback","seqFeedback"],"classroomPairings":[["A","B"],["C","D"]],"coinWeights":[0.2,0.5,0.8],"subjectId":"ARUXG5FD1Q76F","assignmentId":"32UTUBMZ7HISRFL1ZSPWU2BJ8IFBVE","hitId":"3QGHA0EA0JM3KKNCY0PQRLYAHJ3BWH","url":"https://gershmanlab.com/experiments/alicia/teaching/experiment/?hitId=3QGHA0EA0JM3KKNCY0PQRLYAHJ3BWH&workerId=ARUXG5FD1Q76F&assignmentId=32UTUBMZ7HISRFL1ZSPWU2BJ8IFBVE&a=ZUU28&tp_a=ZUU28&b=32UTUBMZ7HISRFL1ZSPWU2BJ8IFBVE&tp_b=32UTUBMZ7HISRFL1ZSPWU2BJ8IFBVE&c=365198&tp_c=365198"},{"rt":2182,"stimulus":"\n                <p>Student's guess for coin weight: <b style=\"color:Tomato;\">0.82</b></p>\n                <p>You received a bonus of <b>$0.38</b>. Total bonus so far: <b>$2.10</b></b></p>\n                <p> Press any key to continue.</p>\n                ","response":" ","trial_type":"html-keyboard-response","trial_index":78,"time_elapsed":1055550,"internal_node_id":"0.0-68.0","params":{"nStudents":24,"maxFlips":30,"completionMinutes":45,"basePay":8,"maxBonus":9,"perTrialBonus":0.5,"perTrialBonusThreshold":0.1,"exampleCost":0.01},"classroomParams":{"A":{"a":1,"b":4},"B":{"a":4,"b":1},"C":{"a":2,"b":8},"D":{"a":8,"b":2}},"conditions":["nonSeqFull","nonSeqPartial","seqNoFeedback","seqFeedback"],"classroomPairings":[["A","B"],["C","D"]],"coinWeights":[0.2,0.5,0.8],"subjectId":"ARUXG5FD1Q76F","assignmentId":"32UTUBMZ7HISRFL1ZSPWU2BJ8IFBVE","hitId":"3QGHA0EA0JM3KKNCY0PQRLYAHJ3BWH","url":"https://gershmanlab.com/experiments/alicia/teaching/experiment/?hitId=3QGHA0EA0JM3KKNCY0PQRLYAHJ3BWH&workerId=ARUXG5FD1Q76F&assignmentId=32UTUBMZ7HISRFL1ZSPWU2BJ8IFBVE&a=ZUU28&tp_a=ZUU28&b=32UTUBMZ7HISRFL1ZSPWU2BJ8IFBVE&tp_b=32UTUBMZ7HISRFL1ZSPWU2BJ8IFBVE&c=365198&tp_c=365198"},{"rt":null,"stimulus":"<div style=\"font-size:60px;\">Next student</div>","response":null,"trial_type":"html-keyboard-response","trial_index":79,"time_elapsed":1058562,"internal_node_id":"0.0-69.0-0.0","params":{"nStudents":24,"maxFlips":30,"completionMinutes":45,"basePay":8,"maxBonus":9,"perTrialBonus":0.5,"perTrialBonusThreshold":0.1,"exampleCost":0.01},"classroomParams":{"A":{"a":1,"b":4},"B":{"a":4,"b":1},"C":{"a":2,"b":8},"D":{"a":8,"b":2}},"conditions":["nonSeqFull","nonSeqPartial","seqNoFeedback","seqFeedback"],"classroomPairings":[["A","B"],["C","D"]],"coinWeights":[0.2,0.5,0.8],"subjectId":"ARUXG5FD1Q76F","assignmentId":"32UTUBMZ7HISRFL1ZSPWU2BJ8IFBVE","hitId":"3QGHA0EA0JM3KKNCY0PQRLYAHJ3BWH","url":"https://gershmanlab.com/experiments/alicia/teaching/experiment/?hitId=3QGHA0EA0JM3KKNCY0PQRLYAHJ3BWH&workerId=ARUXG5FD1Q76F&assignmentId=32UTUBMZ7HISRFL1ZSPWU2BJ8IFBVE&a=ZUU28&tp_a=ZUU28&b=32UTUBMZ7HISRFL1ZSPWU2BJ8IFBVE&tp_b=32UTUBMZ7HISRFL1ZSPWU2BJ8IFBVE&c=365198&tp_c=365198"},{"rt":2962,"stimulus":"\n            <h4 style=\"color:Orange;\">Student 10</h4>\n            <h2>The weight of your coin is <b style=\"color:Tomato;\">0.8</b>.</h2>\n            <p>In this block, you will be giving <b>two</b> sets of examples to Student 10.</p>\n                <p>You will receive feedback at the end of the block.</p>\n            ","response":0,"trial_type":"html-button-response","trial_index":80,"time_elapsed":1061526,"internal_node_id":"0.0-70.0","params":{"nStudents":24,"maxFlips":30,"completionMinutes":45,"basePay":8,"maxBonus":9,"perTrialBonus":0.5,"perTrialBonusThreshold":0.1,"exampleCost":0.01},"classroomParams":{"A":{"a":1,"b":4},"B":{"a":4,"b":1},"C":{"a":2,"b":8},"D":{"a":8,"b":2}},"conditions":["nonSeqFull","nonSeqPartial","seqNoFeedback","seqFeedback"],"classroomPairings":[["A","B"],["C","D"]],"coinWeights":[0.2,0.5,0.8],"subjectId":"ARUXG5FD1Q76F","assignmentId":"32UTUBMZ7HISRFL1ZSPWU2BJ8IFBVE","hitId":"3QGHA0EA0JM3KKNCY0PQRLYAHJ3BWH","url":"https://gershmanlab.com/experiments/alicia/teaching/experiment/?hitId=3QGHA0EA0JM3KKNCY0PQRLYAHJ3BWH&workerId=ARUXG5FD1Q76F&assignmentId=32UTUBMZ7HISRFL1ZSPWU2BJ8IFBVE&a=ZUU28&tp_a=ZUU28&b=32UTUBMZ7HISRFL1ZSPWU2BJ8IFBVE&tp_b=32UTUBMZ7HISRFL1ZSPWU2BJ8IFBVE&c=365198&tp_c=365198"},{"rt":8468,"response":{"heads":"10","tails":"2"},"type":"response","condition":"seqNoFeedback","trueTheta":0.8,"classrooms":["C","D"],"studentTrueClassroom":"D","exampleSet":"first","trial_type":"survey-html-form","trial_index":81,"time_elapsed":1069994,"internal_node_id":"0.0-71.0-0.0","params":{"nStudents":24,"maxFlips":30,"completionMinutes":45,"basePay":8,"maxBonus":9,"perTrialBonus":0.5,"perTrialBonusThreshold":0.1,"exampleCost":0.01},"classroomParams":{"A":{"a":1,"b":4},"B":{"a":4,"b":1},"C":{"a":2,"b":8},"D":{"a":8,"b":2}},"conditions":["nonSeqFull","nonSeqPartial","seqNoFeedback","seqFeedback"],"classroomPairings":[["A","B"],["C","D"]],"coinWeights":[0.2,0.5,0.8],"subjectId":"ARUXG5FD1Q76F","assignmentId":"32UTUBMZ7HISRFL1ZSPWU2BJ8IFBVE","hitId":"3QGHA0EA0JM3KKNCY0PQRLYAHJ3BWH","url":"https://gershmanlab.com/experiments/alicia/teaching/experiment/?hitId=3QGHA0EA0JM3KKNCY0PQRLYAHJ3BWH&workerId=ARUXG5FD1Q76F&assignmentId=32UTUBMZ7HISRFL1ZSPWU2BJ8IFBVE&a=ZUU28&tp_a=ZUU28&b=32UTUBMZ7HISRFL1ZSPWU2BJ8IFBVE&tp_b=32UTUBMZ7HISRFL1ZSPWU2BJ8IFBVE&c=365198&tp_c=365198","heads":10,"tails":2,"studentIndex":9,"studentTrueHypers":{"a":8,"b":2},"studentGuess":0.8181818181818182,"delta":0.018181818181818188,"totalExamples":12,"bonusSoFar":2.1},{"rt":null,"stimulus":"Sending examples to student... ","response":null,"trial_type":"html-keyboard-response","trial_index":82,"time_elapsed":1072000,"internal_node_id":"0.0-72.0","params":{"nStudents":24,"maxFlips":30,"completionMinutes":45,"basePay":8,"maxBonus":9,"perTrialBonus":0.5,"perTrialBonusThreshold":0.1,"exampleCost":0.01},"classroomParams":{"A":{"a":1,"b":4},"B":{"a":4,"b":1},"C":{"a":2,"b":8},"D":{"a":8,"b":2}},"conditions":["nonSeqFull","nonSeqPartial","seqNoFeedback","seqFeedback"],"classroomPairings":[["A","B"],["C","D"]],"coinWeights":[0.2,0.5,0.8],"subjectId":"ARUXG5FD1Q76F","assignmentId":"32UTUBMZ7HISRFL1ZSPWU2BJ8IFBVE","hitId":"3QGHA0EA0JM3KKNCY0PQRLYAHJ3BWH","url":"https://gershmanlab.com/experiments/alicia/teaching/experiment/?hitId=3QGHA0EA0JM3KKNCY0PQRLYAHJ3BWH&workerId=ARUXG5FD1Q76F&assignmentId=32UTUBMZ7HISRFL1ZSPWU2BJ8IFBVE&a=ZUU28&tp_a=ZUU28&b=32UTUBMZ7HISRFL1ZSPWU2BJ8IFBVE&tp_b=32UTUBMZ7HISRFL1ZSPWU2BJ8IFBVE&c=365198&tp_c=365198"},{"rt":null,"stimulus":"Examples sent to student! Waiting for student...","response":null,"trial_type":"html-keyboard-response","trial_index":83,"time_elapsed":1078017,"internal_node_id":"0.0-73.0","params":{"nStudents":24,"maxFlips":30,"completionMinutes":45,"basePay":8,"maxBonus":9,"perTrialBonus":0.5,"perTrialBonusThreshold":0.1,"exampleCost":0.01},"classroomParams":{"A":{"a":1,"b":4},"B":{"a":4,"b":1},"C":{"a":2,"b":8},"D":{"a":8,"b":2}},"conditions":["nonSeqFull","nonSeqPartial","seqNoFeedback","seqFeedback"],"classroomPairings":[["A","B"],["C","D"]],"coinWeights":[0.2,0.5,0.8],"subjectId":"ARUXG5FD1Q76F","assignmentId":"32UTUBMZ7HISRFL1ZSPWU2BJ8IFBVE","hitId":"3QGHA0EA0JM3KKNCY0PQRLYAHJ3BWH","url":"https://gershmanlab.com/experiments/alicia/teaching/experiment/?hitId=3QGHA0EA0JM3KKNCY0PQRLYAHJ3BWH&workerId=ARUXG5FD1Q76F&assignmentId=32UTUBMZ7HISRFL1ZSPWU2BJ8IFBVE&a=ZUU28&tp_a=ZUU28&b=32UTUBMZ7HISRFL1ZSPWU2BJ8IFBVE&tp_b=32UTUBMZ7HISRFL1ZSPWU2BJ8IFBVE&c=365198&tp_c=365198"},{"rt":13821,"response":{"heads":"10","tails":"2"},"type":"response","condition":"seqNoFeedback","trueTheta":0.8,"classrooms":["C","D"],"studentTrueClassroom":"D","exampleSet":"second","trial_type":"survey-html-form","trial_index":84,"time_elapsed":1091840,"internal_node_id":"0.0-74.0-0.0","params":{"nStudents":24,"maxFlips":30,"completionMinutes":45,"basePay":8,"maxBonus":9,"perTrialBonus":0.5,"perTrialBonusThreshold":0.1,"exampleCost":0.01},"classroomParams":{"A":{"a":1,"b":4},"B":{"a":4,"b":1},"C":{"a":2,"b":8},"D":{"a":8,"b":2}},"conditions":["nonSeqFull","nonSeqPartial","seqNoFeedback","seqFeedback"],"classroomPairings":[["A","B"],["C","D"]],"coinWeights":[0.2,0.5,0.8],"subjectId":"ARUXG5FD1Q76F","assignmentId":"32UTUBMZ7HISRFL1ZSPWU2BJ8IFBVE","hitId":"3QGHA0EA0JM3KKNCY0PQRLYAHJ3BWH","url":"https://gershmanlab.com/experiments/alicia/teaching/experiment/?hitId=3QGHA0EA0JM3KKNCY0PQRLYAHJ3BWH&workerId=ARUXG5FD1Q76F&assignmentId=32UTUBMZ7HISRFL1ZSPWU2BJ8IFBVE&a=ZUU28&tp_a=ZUU28&b=32UTUBMZ7HISRFL1ZSPWU2BJ8IFBVE&tp_b=32UTUBMZ7HISRFL1ZSPWU2BJ8IFBVE&c=365198&tp_c=365198","firstResponseHeads":10,"firstResponseTails":2,"secondResponseHeads":10,"secondResponseTails":2,"studentIndex":9,"studentTrueHypers":{"a":8,"b":2},"studentGuess":0.8235294117647058,"delta":0.0235294117647058,"bonus":0.26,"bonusSoFar":2.36,"totalExamples":24},{"rt":null,"stimulus":"Sending examples to student... ","response":null,"trial_type":"html-keyboard-response","trial_index":85,"time_elapsed":1093356,"internal_node_id":"0.0-75.0","params":{"nStudents":24,"maxFlips":30,"completionMinutes":45,"basePay":8,"maxBonus":9,"perTrialBonus":0.5,"perTrialBonusThreshold":0.1,"exampleCost":0.01},"classroomParams":{"A":{"a":1,"b":4},"B":{"a":4,"b":1},"C":{"a":2,"b":8},"D":{"a":8,"b":2}},"conditions":["nonSeqFull","nonSeqPartial","seqNoFeedback","seqFeedback"],"classroomPairings":[["A","B"],["C","D"]],"coinWeights":[0.2,0.5,0.8],"subjectId":"ARUXG5FD1Q76F","assignmentId":"32UTUBMZ7HISRFL1ZSPWU2BJ8IFBVE","hitId":"3QGHA0EA0JM3KKNCY0PQRLYAHJ3BWH","url":"https://gershmanlab.com/experiments/alicia/teaching/experiment/?hitId=3QGHA0EA0JM3KKNCY0PQRLYAHJ3BWH&workerId=ARUXG5FD1Q76F&assignmentId=32UTUBMZ7HISRFL1ZSPWU2BJ8IFBVE&a=ZUU28&tp_a=ZUU28&b=32UTUBMZ7HISRFL1ZSPWU2BJ8IFBVE&tp_b=32UTUBMZ7HISRFL1ZSPWU2BJ8IFBVE&c=365198&tp_c=365198"},{"rt":null,"stimulus":"Examples sent to student! Waiting for student...","response":null,"trial_type":"html-keyboar