[{"rt":9310,"stimulus":"Welcome to the experiment. Press any key to begin.","response":" ","trial_type":"html-keyboard-response","trial_index":0,"time_elapsed":9361,"internal_node_id":"0.0-0.0","params":{"nStudents":24,"maxFlips":30,"completionMinutes":45,"basePay":8,"maxBonus":9,"perTrialBonus":0.5,"perTrialBonusThreshold":0.1,"exampleCost":0.01},"classroomParams":{"A":{"a":1,"b":4},"B":{"a":4,"b":1},"C":{"a":2,"b":8},"D":{"a":8,"b":2}},"conditions":["nonSeqFull","nonSeqPartial","seqNoFeedback","seqFeedback"],"classroomPairings":[["A","B"],["C","D"]],"coinWeights":[0.2,0.5,0.8],"subjectId":"ASC9DUCC64M3P","assignmentId":"3K5TEWLKGWX2ENZ752HDGPFW38YVI6","hitId":"3YGE63DIN8J20XK20KS1742RQF60WK","url":"https://gershmanlab.com/experiments/alicia/teaching/experiment/?hitId=3YGE63DIN8J20XK20KS1742RQF60WK&workerId=ASC9DUCC64M3P&assignmentId=3K5TEWLKGWX2ENZ752HDGPFW38YVI6&a=KE5K8&tp_a=KE5K8&b=3K5TEWLKGWX2ENZ752HDGPFW38YVI6&tp_b=3K5TEWLKGWX2ENZ752HDGPFW38YVI6&c=365198&tp_c=365198"},{"rt":2395,"stimulus":"\n        <h3>Please read this consent agreement carefully before deciding whether to participate in this experiment.</h3>\n        <p><b>Purpose of the research:</b> To examine how people teach effectively.</p>\n        <p><b>What you will do in this research:</b> You will teach students the weights of different coins.</p>\n        <p><b>Time required:</b> This experiment will take 45 minutes to complete.</p>\n        <p><b>Risks:</b> There are no anticipated risks associated with participating in this study.             The effects of participating should be comparable to those you would experience from viewing a computer monitor             and using a mouse and keyboard for the duration of the experiment.</p>\n        <p><b>Benefits:</b> The study provides important information about the nature of teaching.</p>\n        <p><b>Compensation:</b> You will receive <b>$8</b> for completing the experiment and a performance bonus of up to <b>$9</b>.</p>\n        <p><b>Confidentiality:</b> Your participation in this study will remain confidential.             No personally identifiable information will be associated with your data.             Your de-identified data may be shared with other researchers and used in future projects.</p>\n        <p><b>Participation and withdrawal:</b> Your participation in this study is completely voluntary and             you may refuse to participate or you may choose to withdraw at any time without penalty or loss of\n            benefits to which you are otherwise entitled.</p>\n        <p><b>How to contact the researcher:</b> If you have questions or concerns about your participation            or payment, or want to request a summary of research findings, please contact\n            Alicia Chen, aliciachen@college.harvard.edu.</p>\n        <p><b>Whom to contact about your rights in this research:</b> For questions, concerns, suggestions,             or complaints that have not been or cannot be addressed by the researcher, or to report             research-related harm, please contact the Committee on the Use of Human Subjects in Research at Harvard University,             1414 Massachusetts Avenue, Second Floor, Cambridge, MA 02138. Phone: 617-496-2847. Email: cuhs@fas.harvard.edu.</p>\n        ","response":0,"trial_type":"html-button-response","trial_index":1,"time_elapsed":11757,"internal_node_id":"0.0-1.0","params":{"nStudents":24,"maxFlips":30,"completionMinutes":45,"basePay":8,"maxBonus":9,"perTrialBonus":0.5,"perTrialBonusThreshold":0.1,"exampleCost":0.01},"classroomParams":{"A":{"a":1,"b":4},"B":{"a":4,"b":1},"C":{"a":2,"b":8},"D":{"a":8,"b":2}},"conditions":["nonSeqFull","nonSeqPartial","seqNoFeedback","seqFeedback"],"classroomPairings":[["A","B"],["C","D"]],"coinWeights":[0.2,0.5,0.8],"subjectId":"ASC9DUCC64M3P","assignmentId":"3K5TEWLKGWX2ENZ752HDGPFW38YVI6","hitId":"3YGE63DIN8J20XK20KS1742RQF60WK","url":"https://gershmanlab.com/experiments/alicia/teaching/experiment/?hitId=3YGE63DIN8J20XK20KS1742RQF60WK&workerId=ASC9DUCC64M3P&assignmentId=3K5TEWLKGWX2ENZ752HDGPFW38YVI6&a=KE5K8&tp_a=KE5K8&b=3K5TEWLKGWX2ENZ752HDGPFW38YVI6&tp_b=3K5TEWLKGWX2ENZ752HDGPFW38YVI6&c=365198&tp_c=365198"},{"view_history":[{"page_index":0,"viewing_time":5107},{"page_index":1,"viewing_time":13028},{"page_index":2,"viewing_time":69810},{"page_index":3,"viewing_time":26090},{"page_index":4,"viewing_time":16088},{"page_index":5,"viewing_time":27283},{"page_index":6,"viewing_time":47612}],"rt":205018,"trial_type":"instructions","trial_index":2,"time_elapsed":216768,"internal_node_id":"0.0-2.0-0.0","params":{"nStudents":24,"maxFlips":30,"completionMinutes":45,"basePay":8,"maxBonus":9,"perTrialBonus":0.5,"perTrialBonusThreshold":0.1,"exampleCost":0.01},"classroomParams":{"A":{"a":1,"b":4},"B":{"a":4,"b":1},"C":{"a":2,"b":8},"D":{"a":8,"b":2}},"conditions":["nonSeqFull","nonSeqPartial","seqNoFeedback","seqFeedback"],"classroomPairings":[["A","B"],["C","D"]],"coinWeights":[0.2,0.5,0.8],"subjectId":"ASC9DUCC64M3P","assignmentId":"3K5TEWLKGWX2ENZ752HDGPFW38YVI6","hitId":"3YGE63DIN8J20XK20KS1742RQF60WK","url":"https://gershmanlab.com/experiments/alicia/teaching/experiment/?hitId=3YGE63DIN8J20XK20KS1742RQF60WK&workerId=ASC9DUCC64M3P&assignmentId=3K5TEWLKGWX2ENZ752HDGPFW38YVI6&a=KE5K8&tp_a=KE5K8&b=3K5TEWLKGWX2ENZ752HDGPFW38YVI6&tp_b=3K5TEWLKGWX2ENZ752HDGPFW38YVI6&c=365198&tp_c=365198"},{"rt":89598,"response":{"Q0":"Students in different classrooms will have seen a different number of heads and tails before seeing the examples you select for them.","Q1":"By teaching efficiently and accurately/helpfully at the same time (because each example I give to the student costs money!).","Q2":"The coin lands heads 90% of the time.","Q3":"Yes, I might encounter the same student twice.","Q4":"The students are also on the same alien planet as you, where coins can be unfair.","Q5":"Based on the student's second (and final) guess."},"question_order":[3,2,1,0,4,5],"trial_type":"survey-multi-choice","trial_index":3,"time_elapsed":306364,"internal_node_id":"0.0-2.0-1.0","params":{"nStudents":24,"maxFlips":30,"completionMinutes":45,"basePay":8,"maxBonus":9,"perTrialBonus":0.5,"perTrialBonusThreshold":0.1,"exampleCost":0.01},"classroomParams":{"A":{"a":1,"b":4},"B":{"a":4,"b":1},"C":{"a":2,"b":8},"D":{"a":8,"b":2}},"conditions":["nonSeqFull","nonSeqPartial","seqNoFeedback","seqFeedback"],"classroomPairings":[["A","B"],["C","D"]],"coinWeights":[0.2,0.5,0.8],"subjectId":"ASC9DUCC64M3P","assignmentId":"3K5TEWLKGWX2ENZ752HDGPFW38YVI6","hitId":"3YGE63DIN8J20XK20KS1742RQF60WK","url":"https://gershmanlab.com/experiments/alicia/teaching/experiment/?hitId=3YGE63DIN8J20XK20KS1742RQF60WK&workerId=ASC9DUCC64M3P&assignmentId=3K5TEWLKGWX2ENZ752HDGPFW38YVI6&a=KE5K8&tp_a=KE5K8&b=3K5TEWLKGWX2ENZ752HDGPFW38YVI6&tp_b=3K5TEWLKGWX2ENZ752HDGPFW38YVI6&c=365198&tp_c=365198","pass":false},{"rt":3933,"stimulus":"Oops, you have missed question(s) on the comprehension check! We'll show you the instructions again.","response":0,"trial_type":"html-button-response","trial_index":4,"time_elapsed":310301,"internal_node_id":"0.0-2.0-2.0-0.0","params":{"nStudents":24,"maxFlips":30,"completionMinutes":45,"basePay":8,"maxBonus":9,"perTrialBonus":0.5,"perTrialBonusThreshold":0.1,"exampleCost":0.01},"classroomParams":{"A":{"a":1,"b":4},"B":{"a":4,"b":1},"C":{"a":2,"b":8},"D":{"a":8,"b":2}},"conditions":["nonSeqFull","nonSeqPartial","seqNoFeedback","seqFeedback"],"classroomPairings":[["A","B"],["C","D"]],"coinWeights":[0.2,0.5,0.8],"subjectId":"ASC9DUCC64M3P","assignmentId":"3K5TEWLKGWX2ENZ752HDGPFW38YVI6","hitId":"3YGE63DIN8J20XK20KS1742RQF60WK","url":"https://gershmanlab.com/experiments/alicia/teaching/experiment/?hitId=3YGE63DIN8J20XK20KS1742RQF60WK&workerId=ASC9DUCC64M3P&assignmentId=3K5TEWLKGWX2ENZ752HDGPFW38YVI6&a=KE5K8&tp_a=KE5K8&b=3K5TEWLKGWX2ENZ752HDGPFW38YVI6&tp_b=3K5TEWLKGWX2ENZ752HDGPFW38YVI6&c=365198&tp_c=365198"},{"view_history":[{"page_index":0,"viewing_time":5118},{"page_index":1,"viewing_time":2565},{"page_index":2,"viewing_time":9754},{"page_index":3,"viewing_time":10407},{"page_index":4,"viewing_time":13861},{"page_index":5,"viewing_time":12758},{"page_index":6,"viewing_time":5165}],"rt":59628,"trial_type":"instructions","trial_index":5,"time_elapsed":369928,"internal_node_id":"0.0-2.1-0.1","params":{"nStudents":24,"maxFlips":30,"completionMinutes":45,"basePay":8,"maxBonus":9,"perTrialBonus":0.5,"perTrialBonusThreshold":0.1,"exampleCost":0.01},"classroomParams":{"A":{"a":1,"b":4},"B":{"a":4,"b":1},"C":{"a":2,"b":8},"D":{"a":8,"b":2}},"conditions":["nonSeqFull","nonSeqPartial","seqNoFeedback","seqFeedback"],"classroomPairings":[["A","B"],["C","D"]],"coinWeights":[0.2,0.5,0.8],"subjectId":"ASC9DUCC64M3P","assignmentId":"3K5TEWLKGWX2ENZ752HDGPFW38YVI6","hitId":"3YGE63DIN8J20XK20KS1742RQF60WK","url":"https://gershmanlab.com/experiments/alicia/teaching/experiment/?hitId=3YGE63DIN8J20XK20KS1742RQF60WK&workerId=ASC9DUCC64M3P&assignmentId=3K5TEWLKGWX2ENZ752HDGPFW38YVI6&a=KE5K8&tp_a=KE5K8&b=3K5TEWLKGWX2ENZ752HDGPFW38YVI6&tp_b=3K5TEWLKGWX2ENZ752HDGPFW38YVI6&c=365198&tp_c=365198"},{"rt":88292,"response":{"Q0":"Students in different classrooms will have seen a different number of heads and tails before seeing the examples you select for them.","Q1":"By teaching efficiently and accurately/helpfully at the same time (because each example I give to the student costs money!).","Q2":"The coin lands heads 90% of the time.","Q3":"No, I will teach a <b>new</b> student each time.","Q4":"The students are also on the same alien planet as you, where coins can be unfair.","Q5":"Based on the student's second (and final) guess."},"question_order":[2,1,0,3,4,5],"trial_type":"survey-multi-choice","trial_index":6,"time_elapsed":458218,"internal_node_id":"0.0-2.1-1.1","params":{"nStudents":24,"maxFlips":30,"completionMinutes":45,"basePay":8,"maxBonus":9,"perTrialBonus":0.5,"perTrialBonusThreshold":0.1,"exampleCost":0.01},"classroomParams":{"A":{"a":1,"b":4},"B":{"a":4,"b":1},"C":{"a":2,"b":8},"D":{"a":8,"b":2}},"conditions":["nonSeqFull","nonSeqPartial","seqNoFeedback","seqFeedback"],"classroomPairings":[["A","B"],["C","D"]],"coinWeights":[0.2,0.5,0.8],"subjectId":"ASC9DUCC64M3P","assignmentId":"3K5TEWLKGWX2ENZ752HDGPFW38YVI6","hitId":"3YGE63DIN8J20XK20KS1742RQF60WK","url":"https://gershmanlab.com/experiments/alicia/teaching/experiment/?hitId=3YGE63DIN8J20XK20KS1742RQF60WK&workerId=ASC9DUCC64M3P&assignmentId=3K5TEWLKGWX2ENZ752HDGPFW38YVI6&a=KE5K8&tp_a=KE5K8&b=3K5TEWLKGWX2ENZ752HDGPFW38YVI6&tp_b=3K5TEWLKGWX2ENZ752HDGPFW38YVI6&c=365198&tp_c=365198","pass":true},{"rt":null,"stimulus":"<div style=\"font-size:30px;\">Congrats on passing the comprehension quiz! The experiment will begin in a few seconds.</div>","response":null,"trial_type":"html-keyboard-response","trial_index":7,"time_elapsed":461225,"internal_node_id":"0.0-3.0","params":{"nStudents":24,"maxFlips":30,"completionMinutes":45,"basePay":8,"maxBonus":9,"perTrialBonus":0.5,"perTrialBonusThreshold":0.1,"exampleCost":0.01},"classroomParams":{"A":{"a":1,"b":4},"B":{"a":4,"b":1},"C":{"a":2,"b":8},"D":{"a":8,"b":2}},"conditions":["nonSeqFull","nonSeqPartial","seqNoFeedback","seqFeedback"],"classroomPairings":[["A","B"],["C","D"]],"coinWeights":[0.2,0.5,0.8],"subjectId":"ASC9DUCC64M3P","assignmentId":"3K5TEWLKGWX2ENZ752HDGPFW38YVI6","hitId":"3YGE63DIN8J20XK20KS1742RQF60WK","url":"https://gershmanlab.com/experiments/alicia/teaching/experiment/?hitId=3YGE63DIN8J20XK20KS1742RQF60WK&workerId=ASC9DUCC64M3P&assignmentId=3K5TEWLKGWX2ENZ752HDGPFW38YVI6&a=KE5K8&tp_a=KE5K8&b=3K5TEWLKGWX2ENZ752HDGPFW38YVI6&tp_b=3K5TEWLKGWX2ENZ752HDGPFW38YVI6&c=365198&tp_c=365198"},{"rt":null,"stimulus":"<div style=\"font-size:50px;\">First student</div>","response":null,"trial_type":"html-keyboard-response","trial_index":8,"time_elapsed":464226,"internal_node_id":"0.0-4.0","params":{"nStudents":24,"maxFlips":30,"completionMinutes":45,"basePay":8,"maxBonus":9,"perTrialBonus":0.5,"perTrialBonusThreshold":0.1,"exampleCost":0.01},"classroomParams":{"A":{"a":1,"b":4},"B":{"a":4,"b":1},"C":{"a":2,"b":8},"D":{"a":8,"b":2}},"conditions":["nonSeqFull","nonSeqPartial","seqNoFeedback","seqFeedback"],"classroomPairings":[["A","B"],["C","D"]],"coinWeights":[0.2,0.5,0.8],"subjectId":"ASC9DUCC64M3P","assignmentId":"3K5TEWLKGWX2ENZ752HDGPFW38YVI6","hitId":"3YGE63DIN8J20XK20KS1742RQF60WK","url":"https://gershmanlab.com/experiments/alicia/teaching/experiment/?hitId=3YGE63DIN8J20XK20KS1742RQF60WK&workerId=ASC9DUCC64M3P&assignmentId=3K5TEWLKGWX2ENZ752HDGPFW38YVI6&a=KE5K8&tp_a=KE5K8&b=3K5TEWLKGWX2ENZ752HDGPFW38YVI6&tp_b=3K5TEWLKGWX2ENZ752HDGPFW38YVI6&c=365198&tp_c=365198"},{"rt":26853,"stimulus":"\n            <h4 style=\"color:Orange;\">Student 1</h4>\n            <h2>The weight of your coin is <b style=\"color:Tomato;\">0.8</b>.</h2>\n            <p>In this block, you will be giving <b>two</b> sets of examples to Student 1.</p>\n                <p>You will see the student's guess after the first set of examples. You will also receive feedback at the end of the block.</p>\n            ","response":0,"trial_type":"html-button-response","trial_index":9,"time_elapsed":491079,"internal_node_id":"0.0-5.0","params":{"nStudents":24,"maxFlips":30,"completionMinutes":45,"basePay":8,"maxBonus":9,"perTrialBonus":0.5,"perTrialBonusThreshold":0.1,"exampleCost":0.01},"classroomParams":{"A":{"a":1,"b":4},"B":{"a":4,"b":1},"C":{"a":2,"b":8},"D":{"a":8,"b":2}},"conditions":["nonSeqFull","nonSeqPartial","seqNoFeedback","seqFeedback"],"classroomPairings":[["A","B"],["C","D"]],"coinWeights":[0.2,0.5,0.8],"subjectId":"ASC9DUCC64M3P","assignmentId":"3K5TEWLKGWX2ENZ752HDGPFW38YVI6","hitId":"3YGE63DIN8J20XK20KS1742RQF60WK","url":"https://gershmanlab.com/experiments/alicia/teaching/experiment/?hitId=3YGE63DIN8J20XK20KS1742RQF60WK&workerId=ASC9DUCC64M3P&assignmentId=3K5TEWLKGWX2ENZ752HDGPFW38YVI6&a=KE5K8&tp_a=KE5K8&b=3K5TEWLKGWX2ENZ752HDGPFW38YVI6&tp_b=3K5TEWLKGWX2ENZ752HDGPFW38YVI6&c=365198&tp_c=365198"},{"rt":31916,"response":{"heads":"5","tails":"5"},"type":"response","condition":"seqFeedback","trueTheta":0.8,"classrooms":["C","D"],"studentTrueClassroom":"D","exampleSet":"first","trial_type":"survey-html-form","trial_index":10,"time_elapsed":522996,"internal_node_id":"0.0-6.0-0.0","params":{"nStudents":24,"maxFlips":30,"completionMinutes":45,"basePay":8,"maxBonus":9,"perTrialBonus":0.5,"perTrialBonusThreshold":0.1,"exampleCost":0.01},"classroomParams":{"A":{"a":1,"b":4},"B":{"a":4,"b":1},"C":{"a":2,"b":8},"D":{"a":8,"b":2}},"conditions":["nonSeqFull","nonSeqPartial","seqNoFeedback","seqFeedback"],"classroomPairings":[["A","B"],["C","D"]],"coinWeights":[0.2,0.5,0.8],"subjectId":"ASC9DUCC64M3P","assignmentId":"3K5TEWLKGWX2ENZ752HDGPFW38YVI6","hitId":"3YGE63DIN8J20XK20KS1742RQF60WK","url":"https://gershmanlab.com/experiments/alicia/teaching/experiment/?hitId=3YGE63DIN8J20XK20KS1742RQF60WK&workerId=ASC9DUCC64M3P&assignmentId=3K5TEWLKGWX2ENZ752HDGPFW38YVI6&a=KE5K8&tp_a=KE5K8&b=3K5TEWLKGWX2ENZ752HDGPFW38YVI6&tp_b=3K5TEWLKGWX2ENZ752HDGPFW38YVI6&c=365198&tp_c=365198","heads":5,"tails":5,"studentIndex":0,"studentTrueHypers":{"a":8,"b":2},"studentGuess":0.65,"delta":0.15000000000000002,"totalExamples":10,"bonusSoFar":0},{"rt":null,"stimulus":"Sending examples to student... ","response":null,"trial_type":"html-keyboard-response","trial_index":11,"time_elapsed":524998,"internal_node_id":"0.0-7.0","params":{"nStudents":24,"maxFlips":30,"completionMinutes":45,"basePay":8,"maxBonus":9,"perTrialBonus":0.5,"perTrialBonusThreshold":0.1,"exampleCost":0.01},"classroomParams":{"A":{"a":1,"b":4},"B":{"a":4,"b":1},"C":{"a":2,"b":8},"D":{"a":8,"b":2}},"conditions":["nonSeqFull","nonSeqPartial","seqNoFeedback","seqFeedback"],"classroomPairings":[["A","B"],["C","D"]],"coinWeights":[0.2,0.5,0.8],"subjectId":"ASC9DUCC64M3P","assignmentId":"3K5TEWLKGWX2ENZ752HDGPFW38YVI6","hitId":"3YGE63DIN8J20XK20KS1742RQF60WK","url":"https://gershmanlab.com/experiments/alicia/teaching/experiment/?hitId=3YGE63DIN8J20XK20KS1742RQF60WK&workerId=ASC9DUCC64M3P&assignmentId=3K5TEWLKGWX2ENZ752HDGPFW38YVI6&a=KE5K8&tp_a=KE5K8&b=3K5TEWLKGWX2ENZ752HDGPFW38YVI6&tp_b=3K5TEWLKGWX2ENZ752HDGPFW38YVI6&c=365198&tp_c=365198"},{"rt":null,"stimulus":"Examples sent to student! Waiting for student...","response":null,"trial_type":"html-keyboard-response","trial_index":12,"time_elapsed":530499,"internal_node_id":"0.0-8.0","params":{"nStudents":24,"maxFlips":30,"completionMinutes":45,"basePay":8,"maxBonus":9,"perTrialBonus":0.5,"perTrialBonusThreshold":0.1,"exampleCost":0.01},"classroomParams":{"A":{"a":1,"b":4},"B":{"a":4,"b":1},"C":{"a":2,"b":8},"D":{"a":8,"b":2}},"conditions":["nonSeqFull","nonSeqPartial","seqNoFeedback","seqFeedback"],"classroomPairings":[["A","B"],["C","D"]],"coinWeights":[0.2,0.5,0.8],"subjectId":"ASC9DUCC64M3P","assignmentId":"3K5TEWLKGWX2ENZ752HDGPFW38YVI6","hitId":"3YGE63DIN8J20XK20KS1742RQF60WK","url":"https://gershmanlab.com/experiments/alicia/teaching/experiment/?hitId=3YGE63DIN8J20XK20KS1742RQF60WK&workerId=ASC9DUCC64M3P&assignmentId=3K5TEWLKGWX2ENZ752HDGPFW38YVI6&a=KE5K8&tp_a=KE5K8&b=3K5TEWLKGWX2ENZ752HDGPFW38YVI6&tp_b=3K5TEWLKGWX2ENZ752HDGPFW38YVI6&c=365198&tp_c=365198"},{"rt":6862,"stimulus":"\n                <p>Student's guess for coin weight: <b style=\"color:Tomato;\">0.65</b></p>\n                <p></b></p>\n                <p>You will now send another set of examples to your student. Press any key to continue.</p>\n                ","response":" ","trial_type":"html-keyboard-response","trial_index":13,"time_elapsed":537361,"internal_node_id":"0.0-9.0","params":{"nStudents":24,"maxFlips":30,"completionMinutes":45,"basePay":8,"maxBonus":9,"perTrialBonus":0.5,"perTrialBonusThreshold":0.1,"exampleCost":0.01},"classroomParams":{"A":{"a":1,"b":4},"B":{"a":4,"b":1},"C":{"a":2,"b":8},"D":{"a":8,"b":2}},"conditions":["nonSeqFull","nonSeqPartial","seqNoFeedback","seqFeedback"],"classroomPairings":[["A","B"],["C","D"]],"coinWeights":[0.2,0.5,0.8],"subjectId":"ASC9DUCC64M3P","assignmentId":"3K5TEWLKGWX2ENZ752HDGPFW38YVI6","hitId":"3YGE63DIN8J20XK20KS1742RQF60WK","url":"https://gershmanlab.com/experiments/alicia/teaching/experiment/?hitId=3YGE63DIN8J20XK20KS1742RQF60WK&workerId=ASC9DUCC64M3P&assignmentId=3K5TEWLKGWX2ENZ752HDGPFW38YVI6&a=KE5K8&tp_a=KE5K8&b=3K5TEWLKGWX2ENZ752HDGPFW38YVI6&tp_b=3K5TEWLKGWX2ENZ752HDGPFW38YVI6&c=365198&tp_c=365198"},{"rt":15064,"response":{"heads":"10","tails":"10"},"type":"response","condition":"seqFeedback","trueTheta":0.8,"classrooms":["C","D"],"studentTrueClassroom":"D","exampleSet":"second","trial_type":"survey-html-form","trial_index":14,"time_elapsed":552426,"internal_node_id":"0.0-10.0-0.0","params":{"nStudents":24,"maxFlips":30,"completionMinutes":45,"basePay":8,"maxBonus":9,"perTrialBonus":0.5,"perTrialBonusThreshold":0.1,"exampleCost":0.01},"classroomParams":{"A":{"a":1,"b":4},"B":{"a":4,"b":1},"C":{"a":2,"b":8},"D":{"a":8,"b":2}},"conditions":["nonSeqFull","nonSeqPartial","seqNoFeedback","seqFeedback"],"classroomPairings":[["A","B"],["C","D"]],"coinWeights":[0.2,0.5,0.8],"subjectId":"ASC9DUCC64M3P","assignmentId":"3K5TEWLKGWX2ENZ752HDGPFW38YVI6","hitId":"3YGE63DIN8J20XK20KS1742RQF60WK","url":"https://gershmanlab.com/experiments/alicia/teaching/experiment/?hitId=3YGE63DIN8J20XK20KS1742RQF60WK&workerId=ASC9DUCC64M3P&assignmentId=3K5TEWLKGWX2ENZ752HDGPFW38YVI6&a=KE5K8&tp_a=KE5K8&b=3K5TEWLKGWX2ENZ752HDGPFW38YVI6&tp_b=3K5TEWLKGWX2ENZ752HDGPFW38YVI6&c=365198&tp_c=365198","firstResponseHeads":5,"firstResponseTails":5,"secondResponseHeads":10,"secondResponseTails":10,"studentIndex":0,"studentTrueHypers":{"a":8,"b":2},"studentGuess":0.575,"delta":0.2250000000000001,"bonus":0,"bonusSoFar":0,"totalExamples":30},{"rt":null,"stimulus":"Sending examples to student... ","response":null,"trial_type":"html-keyboard-response","trial_index":15,"time_elapsed":553928,"internal_node_id":"0.0-11.0","params":{"nStudents":24,"maxFlips":30,"completionMinutes":45,"basePay":8,"maxBonus":9,"perTrialBonus":0.5,"perTrialBonusThreshold":0.1,"exampleCost":0.01},"classroomParams":{"A":{"a":1,"b":4},"B":{"a":4,"b":1},"C":{"a":2,"b":8},"D":{"a":8,"b":2}},"conditions":["nonSeqFull","nonSeqPartial","seqNoFeedback","seqFeedback"],"classroomPairings":[["A","B"],["C","D"]],"coinWeights":[0.2,0.5,0.8],"subjectId":"ASC9DUCC64M3P","assignmentId":"3K5TEWLKGWX2ENZ752HDGPFW38YVI6","hitId":"3YGE63DIN8J20XK20KS1742RQF60WK","url":"https://gershmanlab.com/experiments/alicia/teaching/experiment/?hitId=3YGE63DIN8J20XK20KS1742RQF60WK&workerId=ASC9DUCC64M3P&assignmentId=3K5TEWLKGWX2ENZ752HDGPFW38YVI6&a=KE5K8&tp_a=KE5K8&b=3K5TEWLKGWX2ENZ752HDGPFW38YVI6&tp_b=3K5TEWLKGWX2ENZ752HDGPFW38YVI6&c=365198&tp_c=365198"},{"rt":null,"stimulus":"Examples sent to student! Waiting for student...","response":null,"trial_type":"html-keyboard-response","trial_index":16,"time_elapsed":558429,"internal_node_id":"0.0-12.0","params":{"nStudents":24,"maxFlips":30,"completionMinutes":45,"basePay":8,"maxBonus":9,"perTrialBonus":0.5,"perTrialBonusThreshold":0.1,"exampleCost":0.01},"classroomParams":{"A":{"a":1,"b":4},"B":{"a":4,"b":1},"C":{"a":2,"b":8},"D":{"a":8,"b":2}},"conditions":["nonSeqFull","nonSeqPartial","seqNoFeedback","seqFeedback"],"classroomPairings":[["A","B"],["C","D"]],"coinWeights":[0.2,0.5,0.8],"subjectId":"ASC9DUCC64M3P","assignmentId":"3K5TEWLKGWX2ENZ752HDGPFW38YVI6","hitId":"3YGE63DIN8J20XK20KS1742RQF60WK","url":"https://gershmanlab.com/experiments/alicia/teaching/experiment/?hitId=3YGE63DIN8J20XK20KS1742RQF60WK&workerId=ASC9DUCC64M3P&assignmentId=3K5TEWLKGWX2ENZ752HDGPFW38YVI6&a=KE5K8&tp_a=KE5K8&b=3K5TEWLKGWX2ENZ752HDGPFW38YVI6&tp_b=3K5TEWLKGWX2ENZ752HDGPFW38YVI6&c=365198&tp_c=365198"},{"rt":6168,"stimulus":"\n                <p>Student 1's first guess for coin weight: <b style=\"color:Tomato\";>0.65</b></p>\n                <p>Student 1's second guess for coin weight: <b style=\"color:Tomato\";>0.57</b></p>\n                <p>You received a bonus of <b>$0.00</b> based on the student's second guess.</p>\n                <p>Total bonus so far: <b>$0.00</b></p>\n                <p>Press any key to continue.</p>\n                ","response":" ","trial_type":"html-keyboard-response","trial_index":17,"time_elapsed":564598,"internal_node_id":"0.0-13.0","params":{"nStudents":24,"maxFlips":30,"completionMinutes":45,"basePay":8,"maxBonus":9,"perTrialBonus":0.5,"perTrialBonusThreshold":0.1,"exampleCost":0.01},"classroomParams":{"A":{"a":1,"b":4},"B":{"a":4,"b":1},"C":{"a":2,"b":8},"D":{"a":8,"b":2}},"conditions":["nonSeqFull","nonSeqPartial","seqNoFeedback","seqFeedback"],"classroomPairings":[["A","B"],["C","D"]],"coinWeights":[0.2,0.5,0.8],"subjectId":"ASC9DUCC64M3P","assignmentId":"3K5TEWLKGWX2ENZ752HDGPFW38YVI6","hitId":"3YGE63DIN8J20XK20KS1742RQF60WK","url":"https://gershmanlab.com/experiments/alicia/teaching/experiment/?hitId=3YGE63DIN8J20XK20KS1742RQF60WK&workerId=ASC9DUCC64M3P&assignmentId=3K5TEWLKGWX2ENZ752HDGPFW38YVI6&a=KE5K8&tp_a=KE5K8&b=3K5TEWLKGWX2ENZ752HDGPFW38YVI6&tp_b=3K5TEWLKGWX2ENZ752HDGPFW38YVI6&c=365198&tp_c=365198"},{"rt":null,"stimulus":"<div style=\"font-size:60px;\">Next student</div>","response":null,"trial_type":"html-keyboard-response","trial_index":18,"time_elapsed":566599,"internal_node_id":"0.0-14.0-0.0","params":{"nStudents":24,"maxFlips":30,"completionMinutes":45,"basePay":8,"maxBonus":9,"perTrialBonus":0.5,"perTrialBonusThreshold":0.1,"exampleCost":0.01},"classroomParams":{"A":{"a":1,"b":4},"B":{"a":4,"b":1},"C":{"a":2,"b":8},"D":{"a":8,"b":2}},"conditions":["nonSeqFull","nonSeqPartial","seqNoFeedback","seqFeedback"],"classroomPairings":[["A","B"],["C","D"]],"coinWeights":[0.2,0.5,0.8],"subjectId":"ASC9DUCC64M3P","assignmentId":"3K5TEWLKGWX2ENZ752HDGPFW38YVI6","hitId":"3YGE63DIN8J20XK20KS1742RQF60WK","url":"https://gershmanlab.com/experiments/alicia/teaching/experiment/?hitId=3YGE63DIN8J20XK20KS1742RQF60WK&workerId=ASC9DUCC64M3P&assignmentId=3K5TEWLKGWX2ENZ752HDGPFW38YVI6&a=KE5K8&tp_a=KE5K8&b=3K5TEWLKGWX2ENZ752HDGPFW38YVI6&tp_b=3K5TEWLKGWX2ENZ752HDGPFW38YVI6&c=365198&tp_c=365198"},{"rt":2409,"stimulus":"\n            <h4 style=\"color:Orange;\">Student 2</h4>\n            <h2>The weight of your coin is <b style=\"color:Tomato;\">0.8</b>.</h2>\n            <p>In this block, you will be giving <b>one</b> set of examples to Student 2.</p>\n                <p>You will receive feedback at the end of the block.</p>\n            ","response":0,"trial_type":"html-button-response","trial_index":19,"time_elapsed":569008,"internal_node_id":"0.0-15.0","params":{"nStudents":24,"maxFlips":30,"completionMinutes":45,"basePay":8,"maxBonus":9,"perTrialBonus":0.5,"perTrialBonusThreshold":0.1,"exampleCost":0.01},"classroomParams":{"A":{"a":1,"b":4},"B":{"a":4,"b":1},"C":{"a":2,"b":8},"D":{"a":8,"b":2}},"conditions":["nonSeqFull","nonSeqPartial","seqNoFeedback","seqFeedback"],"classroomPairings":[["A","B"],["C","D"]],"coinWeights":[0.2,0.5,0.8],"subjectId":"ASC9DUCC64M3P","assignmentId":"3K5TEWLKGWX2ENZ752HDGPFW38YVI6","hitId":"3YGE63DIN8J20XK20KS1742RQF60WK","url":"https://gershmanlab.com/experiments/alicia/teaching/experiment/?hitId=3YGE63DIN8J20XK20KS1742RQF60WK&workerId=ASC9DUCC64M3P&assignmentId=3K5TEWLKGWX2ENZ752HDGPFW38YVI6&a=KE5K8&tp_a=KE5K8&b=3K5TEWLKGWX2ENZ752HDGPFW38YVI6&tp_b=3K5TEWLKGWX2ENZ752HDGPFW38YVI6&c=365198&tp_c=365198"},{"rt":10856,"response":{"heads":"15","tails":"15"},"type":"response","condition":"nonSeqPartial","trueTheta":0.8,"classrooms":["C","D"],"studentTrueClassroom":"D","exampleSet":"first","trial_type":"survey-html-form","trial_index":20,"time_elapsed":579865,"internal_node_id":"0.0-16.0-0.0","params":{"nStudents":24,"maxFlips":30,"completionMinutes":45,"basePay":8,"maxBonus":9,"perTrialBonus":0.5,"perTrialBonusThreshold":0.1,"exampleCost":0.01},"classroomParams":{"A":{"a":1,"b":4},"B":{"a":4,"b":1},"C":{"a":2,"b":8},"D":{"a":8,"b":2}},"conditions":["nonSeqFull","nonSeqPartial","seqNoFeedback","seqFeedback"],"classroomPairings":[["A","B"],["C","D"]],"coinWeights":[0.2,0.5,0.8],"subjectId":"ASC9DUCC64M3P","assignmentId":"3K5TEWLKGWX2ENZ752HDGPFW38YVI6","hitId":"3YGE63DIN8J20XK20KS1742RQF60WK","url":"https://gershmanlab.com/experiments/alicia/teaching/experiment/?hitId=3YGE63DIN8J20XK20KS1742RQF60WK&workerId=ASC9DUCC64M3P&assignmentId=3K5TEWLKGWX2ENZ752HDGPFW38YVI6&a=KE5K8&tp_a=KE5K8&b=3K5TEWLKGWX2ENZ752HDGPFW38YVI6&tp_b=3K5TEWLKGWX2ENZ752HDGPFW38YVI6&c=365198&tp_c=365198","heads":15,"tails":15,"studentIndex":1,"studentTrueHypers":{"a":8,"b":2},"studentGuess":0.575,"delta":0.2250000000000001,"totalExamples":30,"bonus":0,"bonusSoFar":0},{"rt":null,"stimulus":"Sending examples to student... ","response":null,"trial_type":"html-keyboard-response","trial_index":21,"time_elapsed":581868,"internal_node_id":"0.0-17.0","params":{"nStudents":24,"maxFlips":30,"completionMinutes":45,"basePay":8,"maxBonus":9,"perTrialBonus":0.5,"perTrialBonusThreshold":0.1,"exampleCost":0.01},"classroomParams":{"A":{"a":1,"b":4},"B":{"a":4,"b":1},"C":{"a":2,"b":8},"D":{"a":8,"b":2}},"conditions":["nonSeqFull","nonSeqPartial","seqNoFeedback","seqFeedback"],"classroomPairings":[["A","B"],["C","D"]],"coinWeights":[0.2,0.5,0.8],"subjectId":"ASC9DUCC64M3P","assignmentId":"3K5TEWLKGWX2ENZ752HDGPFW38YVI6","hitId":"3YGE63DIN8J20XK20KS1742RQF60WK","url":"https://gershmanlab.com/experiments/alicia/teaching/experiment/?hitId=3YGE63DIN8J20XK20KS1742RQF60WK&workerId=ASC9DUCC64M3P&assignmentId=3K5TEWLKGWX2ENZ752HDGPFW38YVI6&a=KE5K8&tp_a=KE5K8&b=3K5TEWLKGWX2ENZ752HDGPFW38YVI6&tp_b=3K5TEWLKGWX2ENZ752HDGPFW38YVI6&c=365198&tp_c=365198"},{"rt":null,"stimulus":"Examples sent to student! Waiting for student...","response":null,"trial_type":"html-keyboard-response","trial_index":22,"time_elapsed":587370,"internal_node_id":"0.0-18.0","params":{"nStudents":24,"maxFlips":30,"completionMinutes":45,"basePay":8,"maxBonus":9,"perTrialBonus":0.5,"perTrialBonusThreshold":0.1,"exampleCost":0.01},"classroomParams":{"A":{"a":1,"b":4},"B":{"a":4,"b":1},"C":{"a":2,"b":8},"D":{"a":8,"b":2}},"conditions":["nonSeqFull","nonSeqPartial","seqNoFeedback","seqFeedback"],"classroomPairings":[["A","B"],["C","D"]],"coinWeights":[0.2,0.5,0.8],"subjectId":"ASC9DUCC64M3P","assignmentId":"3K5TEWLKGWX2ENZ752HDGPFW38YVI6","hitId":"3YGE63DIN8J20XK20KS1742RQF60WK","url":"https://gershmanlab.com/experiments/alicia/teaching/experiment/?hitId=3YGE63DIN8J20XK20KS1742RQF60WK&workerId=ASC9DUCC64M3P&assignmentId=3K5TEWLKGWX2ENZ752HDGPFW38YVI6&a=KE5K8&tp_a=KE5K8&b=3K5TEWLKGWX2ENZ752HDGPFW38YVI6&tp_b=3K5TEWLKGWX2ENZ752HDGPFW38YVI6&c=365198&tp_c=365198"},{"rt":4261,"stimulus":"\n                <p>Student's guess for coin weight: <b style=\"color:Tomato;\">0.57</b></p>\n                <p>You received a bonus of <b>$0</b>. Total bonus so far: <b>$0.00</b></b></p>\n                <p> Press any key to continue.</p>\n                ","response":" ","trial_type":"html-keyboard-response","trial_index":23,"time_elapsed":591632,"internal_node_id":"0.0-19.0","params":{"nStudents":24,"maxFlips":30,"completionMinutes":45,"basePay":8,"maxBonus":9,"perTrialBonus":0.5,"perTrialBonusThreshold":0.1,"exampleCost":0.01},"classroomParams":{"A":{"a":1,"b":4},"B":{"a":4,"b":1},"C":{"a":2,"b":8},"D":{"a":8,"b":2}},"conditions":["nonSeqFull","nonSeqPartial","seqNoFeedback","seqFeedback"],"classroomPairings":[["A","B"],["C","D"]],"coinWeights":[0.2,0.5,0.8],"subjectId":"ASC9DUCC64M3P","assignmentId":"3K5TEWLKGWX2ENZ752HDGPFW38YVI6","hitId":"3YGE63DIN8J20XK20KS1742RQF60WK","url":"https://gershmanlab.com/experiments/alicia/teaching/experiment/?hitId=3YGE63DIN8J20XK20KS1742RQF60WK&workerId=ASC9DUCC64M3P&assignmentId=3K5TEWLKGWX2ENZ752HDGPFW38YVI6&a=KE5K8&tp_a=KE5K8&b=3K5TEWLKGWX2ENZ752HDGPFW38YVI6&tp_b=3K5TEWLKGWX2ENZ752HDGPFW38YVI6&c=365198&tp_c=365198"},{"rt":null,"stimulus":"<div style=\"font-size:60px;\">Next student</div>","response":null,"trial_type":"html-keyboard-response","trial_index":24,"time_elapsed":594137,"internal_node_id":"0.0-20.0-0.0","params":{"nStudents":24,"maxFlips":30,"completionMinutes":45,"basePay":8,"maxBonus":9,"perTrialBonus":0.5,"perTrialBonusThreshold":0.1,"exampleCost":0.01},"classroomParams":{"A":{"a":1,"b":4},"B":{"a":4,"b":1},"C":{"a":2,"b":8},"D":{"a":8,"b":2}},"conditions":["nonSeqFull","nonSeqPartial","seqNoFeedback","seqFeedback"],"classroomPairings":[["A","B"],["C","D"]],"coinWeights":[0.2,0.5,0.8],"subjectId":"ASC9DUCC64M3P","assignmentId":"3K5TEWLKGWX2ENZ752HDGPFW38YVI6","hitId":"3YGE63DIN8J20XK20KS1742RQF60WK","url":"https://gershmanlab.com/experiments/alicia/teaching/experiment/?hitId=3YGE63DIN8J20XK20KS1742RQF60WK&workerId=ASC9DUCC64M3P&assignmentId=3K5TEWLKGWX2ENZ752HDGPFW38YVI6&a=KE5K8&tp_a=KE5K8&b=3K5TEWLKGWX2ENZ752HDGPFW38YVI6&tp_b=3K5TEWLKGWX2ENZ752HDGPFW38YVI6&c=365198&tp_c=365198"},{"rt":4998,"stimulus":"\n            <h4 style=\"color:Orange;\">Student 3</h4>\n            <h2>The weight of your coin is <b style=\"color:Tomato;\">0.5</b>.</h2>\n            <p>In this block, you will be giving <b>two</b> sets of examples to Student 3.</p>\n                <p>You will receive feedback at the end of the block.</p>\n            ","response":0,"trial_type":"html-button-response","trial_index":25,"time_elapsed":599136,"internal_node_id":"0.0-21.0","params":{"nStudents":24,"maxFlips":30,"completionMinutes":45,"basePay":8,"maxBonus":9,"perTrialBonus":0.5,"perTrialBonusThreshold":0.1,"exampleCost":0.01},"classroomParams":{"A":{"a":1,"b":4},"B":{"a":4,"b":1},"C":{"a":2,"b":8},"D":{"a":8,"b":2}},"conditions":["nonSeqFull","nonSeqPartial","seqNoFeedback","seqFeedback"],"classroomPairings":[["A","B"],["C","D"]],"coinWeights":[0.2,0.5,0.8],"subjectId":"ASC9DUCC64M3P","assignmentId":"3K5TEWLKGWX2ENZ752HDGPFW38YVI6","hitId":"3YGE63DIN8J20XK20KS1742RQF60WK","url":"https://gershmanlab.com/experiments/alicia/teaching/experiment/?hitId=3YGE63DIN8J20XK20KS1742RQF60WK&workerId=ASC9DUCC64M3P&assignmentId=3K5TEWLKGWX2ENZ752HDGPFW38YVI6&a=KE5K8&tp_a=KE5K8&b=3K5TEWLKGWX2ENZ752HDGPFW38YVI6&tp_b=3K5TEWLKGWX2ENZ752HDGPFW38YVI6&c=365198&tp_c=365198"},{"rt":10237,"response":{"heads":"15","tails":"10"},"type":"response","condition":"seqNoFeedback","trueTheta":0.5,"classrooms":["C","D"],"studentTrueClassroom":"C","exampleSet":"first","trial_type":"survey-html-form","trial_index":26,"time_elapsed":609374,"internal_node_id":"0.0-22.0-0.0","params":{"nStudents":24,"maxFlips":30,"completionMinutes":45,"basePay":8,"maxBonus":9,"perTrialBonus":0.5,"perTrialBonusThreshold":0.1,"exampleCost":0.01},"classroomParams":{"A":{"a":1,"b":4},"B":{"a":4,"b":1},"C":{"a":2,"b":8},"D":{"a":8,"b":2}},"conditions":["nonSeqFull","nonSeqPartial","seqNoFeedback","seqFeedback"],"classroomPairings":[["A","B"],["C","D"]],"coinWeights":[0.2,0.5,0.8],"subjectId":"ASC9DUCC64M3P","assignmentId":"3K5TEWLKGWX2ENZ752HDGPFW38YVI6","hitId":"3YGE63DIN8J20XK20KS1742RQF60WK","url":"https://gershmanlab.com/experiments/alicia/teaching/experiment/?hitId=3YGE63DIN8J20XK20KS1742RQF60WK&workerId=ASC9DUCC64M3P&assignmentId=3K5TEWLKGWX2ENZ752HDGPFW38YVI6&a=KE5K8&tp_a=KE5K8&b=3K5TEWLKGWX2ENZ752HDGPFW38YVI6&tp_b=3K5TEWLKGWX2ENZ752HDGPFW38YVI6&c=365198&tp_c=365198","heads":15,"tails":10,"studentIndex":2,"studentTrueHypers":{"a":2,"b":8},"studentGuess":0.4857142857142857,"delta":0.01428571428571429,"totalExamples":25,"bonusSoFar":0},{"rt":null,"stimulus":"Sending examples to student... ","response":null,"trial_type":"html-keyboard-response","trial_index":27,"time_elapsed":610629,"internal_node_id":"0.0-23.0","params":{"nStudents":24,"maxFlips":30,"completionMinutes":45,"basePay":8,"maxBonus":9,"perTrialBonus":0.5,"perTrialBonusThreshold":0.1,"exampleCost":0.01},"classroomParams":{"A":{"a":1,"b":4},"B":{"a":4,"b":1},"C":{"a":2,"b":8},"D":{"a":8,"b":2}},"conditions":["nonSeqFull","nonSeqPartial","seqNoFeedback","seqFeedback"],"classroomPairings":[["A","B"],["C","D"]],"coinWeights":[0.2,0.5,0.8],"subjectId":"ASC9DUCC64M3P","assignmentId":"3K5TEWLKGWX2ENZ752HDGPFW38YVI6","hitId":"3YGE63DIN8J20XK20KS1742RQF60WK","url":"https://gershmanlab.com/experiments/alicia/teaching/experiment/?hitId=3YGE63DIN8J20XK20KS1742RQF60WK&workerId=ASC9DUCC64M3P&assignmentId=3K5TEWLKGWX2ENZ752HDGPFW38YVI6&a=KE5K8&tp_a=KE5K8&b=3K5TEWLKGWX2ENZ752HDGPFW38YVI6&tp_b=3K5TEWLKGWX2ENZ752HDGPFW38YVI6&c=365198&tp_c=365198"},{"rt":null,"stimulus":"Examples sent to student! Waiting for student...","response":null,"trial_type":"html-keyboard-response","trial_index":28,"time_elapsed":614632,"internal_node_id":"0.0-24.0","params":{"nStudents":24,"maxFlips":30,"completionMinutes":45,"basePay":8,"maxBonus":9,"perTrialBonus":0.5,"perTrialBonusThreshold":0.1,"exampleCost":0.01},"classroomParams":{"A":{"a":1,"b":4},"B":{"a":4,"b":1},"C":{"a":2,"b":8},"D":{"a":8,"b":2}},"conditions":["nonSeqFull","nonSeqPartial","seqNoFeedback","seqFeedback"],"classroomPairings":[["A","B"],["C","D"]],"coinWeights":[0.2,0.5,0.8],"subjectId":"ASC9DUCC64M3P","assignmentId":"3K5TEWLKGWX2ENZ752HDGPFW38YVI6","hitId":"3YGE63DIN8J20XK20KS1742RQF60WK","url":"https://gershmanlab.com/experiments/alicia/teaching/experiment/?hitId=3YGE63DIN8J20XK20KS1742RQF60WK&workerId=ASC9DUCC64M3P&assignmentId=3K5TEWLKGWX2ENZ752HDGPFW38YVI6&a=KE5K8&tp_a=KE5K8&b=3K5TEWLKGWX2ENZ752HDGPFW38YVI6&tp_b=3K5TEWLKGWX2ENZ752HDGPFW38YVI6&c=365198&tp_c=365198"},{"rt":7723,"response":{"heads":"10","tails":"15"},"type":"response","condition":"seqNoFeedback","trueTheta":0.5,"classrooms":["C","D"],"studentTrueClassroom":"C","exampleSet":"second","trial_type":"survey-html-form","trial_index":29,"time_elapsed":622357,"internal_node_id":"0.0-25.0-0.0","params":{"nStudents":24,"maxFlips":30,"completionMinutes":45,"basePay":8,"maxBonus":9,"perTrialBonus":0.5,"perTrialBonusThreshold":0.1,"exampleCost":0.01},"classroomParams":{"A":{"a":1,"b":4},"B":{"a":4,"b":1},"C":{"a":2,"b":8},"D":{"a":8,"b":2}},"conditions":["nonSeqFull","nonSeqPartial","seqNoFeedback","seqFeedback"],"classroomPairings":[["A","B"],["C","D"]],"coinWeights":[0.2,0.5,0.8],"subjectId":"ASC9DUCC64M3P","assignmentId":"3K5TEWLKGWX2ENZ752HDGPFW38YVI6","hitId":"3YGE63DIN8J20XK20KS1742RQF60WK","url":"https://gershmanlab.com/experiments/alicia/teaching/experiment/?hitId=3YGE63DIN8J20XK20KS1742RQF60WK&workerId=ASC9DUCC64M3P&assignmentId=3K5TEWLKGWX2ENZ752HDGPFW38YVI6&a=KE5K8&tp_a=KE5K8&b=3K5TEWLKGWX2ENZ752HDGPFW38YVI6&tp_b=3K5TEWLKGWX2ENZ752HDGPFW38YVI6&c=365198&tp_c=365198","firstResponseHeads":15,"firstResponseTails":10,"secondResponseHeads":10,"secondResponseTails":15,"studentIndex":2,"studentTrueHypers":{"a":2,"b":8},"studentGuess":0.45,"delta":0.04999999999999999,"bonus":0,"bonusSoFar":0,"totalExamples":50},{"rt":null,"stimulus":"Sending examples to student... ","response":null,"trial_type":"html-keyboard-response","trial_index":30,"time_elapsed":623609,"internal_node_id":"0.0-26.0","params":{"nStudents":24,"maxFlips":30,"completionMinutes":45,"basePay":8,"maxBonus":9,"perTrialBonus":0.5,"perTrialBonusThreshold":0.1,"exampleCost":0.01},"classroomParams":{"A":{"a":1,"b":4},"B":{"a":4,"b":1},"C":{"a":2,"b":8},"D":{"a":8,"b":2}},"conditions":["nonSeqFull","nonSeqPartial","seqNoFeedback","seqFeedback"],"classroomPairings":[["A","B"],["C","D"]],"coinWeights":[0.2,0.5,0.8],"subjectId":"ASC9DUCC64M3P","assignmentId":"3K5TEWLKGWX2ENZ752HDGPFW38YVI6","hitId":"3YGE63DIN8J20XK20KS1742RQF60WK","url":"https://gershmanlab.com/experiments/alicia/teaching/experiment/?hitId=3YGE63DIN8J20XK20KS1742RQF60WK&workerId=ASC9DUCC64M3P&assignmentId=3K5TEWLKGWX2ENZ752HDGPFW38YVI6&a=KE5K8&tp_a=KE5K8&b=3K5TEWLKGWX2ENZ752HDGPFW38YVI6&tp_b=3K5TEWLKGWX2ENZ752HDGPFW38YVI6&c=365198&tp_c=365198"},{"rt":null,"stimulus":"Examples sent to student! Waiting for student...","response":null,"trial_type":"html-keyboard-response","trial_index":31,"time_elapsed":628610,"internal_node_id":"0.0-27.0","params":{"nStudents":24,"maxFlips":30,"completionMinutes":45,"basePay":8,"maxBonus":9,"perTrialBonus":0.5,"perTrialBonusThreshold":0.1,"exampleCost":0.01},"classroomParams":{"A":{"a":1,"b":4},"B":{"a":4,"b":1},"C":{"a":2,"b":8},"D":{"a":8,"b":2}},"conditions":["nonSeqFull","nonSeqPartial","seqNoFeedback","seqFeedback"],"classroomPairings":[["A","B"],["C","D"]],"coinWeights":[0.2,0.5,0.8],"subjectId":"ASC9DUCC64M3P","assignmentId":"3K5TEWLKGWX2ENZ752HDGPFW38YVI6","hitId":"3YGE63DIN8J20XK20KS1742RQF60WK","url":"https://gershmanlab.com/experiments/alicia/teaching/experiment/?hitId=3YGE63DIN8J20XK20KS1742RQF60WK&workerId=ASC9DUCC64M3P&assignmentId=3K5TEWLKGWX2ENZ752HDGPFW38YVI6&a=KE5K8&tp_a=KE5K8&b=3K5TEWLKGWX2ENZ752HDGPFW38YVI6&tp_b=3K5TEWLKGWX2ENZ752HDGPFW38YVI6&c=365198&tp_c=365198"},{"rt":4669,"stimulus":"\n                <p>Student 3's first guess for coin weight: <b style=\"color:Tomato\";>0.49</b></p>\n                <p>Student 3's second guess for coin weight: <b style=\"color:Tomato\";>0.45</b></p>\n                <p>You received a bonus of <b>$0.00</b> based on the student's second guess.</p>\n                <p>Total bonus so far: <b>$0.00</b></p>\n                <p>Press any key to continue.</p>\n                ","response":" ","trial_type":"html-keyboard-response","trial_index":32,"time_elapsed":633279,"internal_node_id":"0.0-28.0","params":{"nStudents":24,"maxFlips":30,"completionMinutes":45,"basePay":8,"maxBonus":9,"perTrialBonus":0.5,"perTrialBonusThreshold":0.1,"exampleCost":0.01},"classroomParams":{"A":{"a":1,"b":4},"B":{"a":4,"b":1},"C":{"a":2,"b":8},"D":{"a":8,"b":2}},"conditions":["nonSeqFull","nonSeqPartial","seqNoFeedback","seqFeedback"],"classroomPairings":[["A","B"],["C","D"]],"coinWeights":[0.2,0.5,0.8],"subjectId":"ASC9DUCC64M3P","assignmentId":"3K5TEWLKGWX2ENZ752HDGPFW38YVI6","hitId":"3YGE63DIN8J20XK20KS1742RQF60WK","url":"https://gershmanlab.com/experiments/alicia/teaching/experiment/?hitId=3YGE63DIN8J20XK20KS1742RQF60WK&workerId=ASC9DUCC64M3P&assignmentId=3K5TEWLKGWX2ENZ752HDGPFW38YVI6&a=KE5K8&tp_a=KE5K8&b=3K5TEWLKGWX2ENZ752HDGPFW38YVI6&tp_b=3K5TEWLKGWX2ENZ752HDGPFW38YVI6&c=365198&tp_c=365198"},{"rt":null,"stimulus":"<div style=\"font-size:60px;\">Next student</div>","response":null,"trial_type":"html-keyboard-response","trial_index":33,"time_elapsed":635781,"internal_node_id":"0.0-29.0-0.0","params":{"nStudents":24,"maxFlips":30,"completionMinutes":45,"basePay":8,"maxBonus":9,"perTrialBonus":0.5,"perTrialBonusThreshold":0.1,"exampleCost":0.01},"classroomParams":{"A":{"a":1,"b":4},"B":{"a":4,"b":1},"C":{"a":2,"b":8},"D":{"a":8,"b":2}},"conditions":["nonSeqFull","nonSeqPartial","seqNoFeedback","seqFeedback"],"classroomPairings":[["A","B"],["C","D"]],"coinWeights":[0.2,0.5,0.8],"subjectId":"ASC9DUCC64M3P","assignmentId":"3K5TEWLKGWX2ENZ752HDGPFW38YVI6","hitId":"3YGE63DIN8J20XK20KS1742RQF60WK","url":"https://gershmanlab.com/experiments/alicia/teaching/experiment/?hitId=3YGE63DIN8J20XK20KS1742RQF60WK&workerId=ASC9DUCC64M3P&assignmentId=3K5TEWLKGWX2ENZ752HDGPFW38YVI6&a=KE5K8&tp_a=KE5K8&b=3K5TEWLKGWX2ENZ752HDGPFW38YVI6&tp_b=3K5TEWLKGWX2ENZ752HDGPFW38YVI6&c=365198&tp_c=365198"},{"rt":1279,"stimulus":"\n            <h4 style=\"color:Orange;\">Student 4</h4>\n            <h2>The weight of your coin is <b style=\"color:Tomato;\">0.8</b>.</h2>\n            <p>In this block, you will be giving <b>one</b> set of examples to Student 4.</p>\n                <p>You will receive feedback at the end of the block.</p>\n            ","response":0,"trial_type":"html-button-response","trial_index":34,"time_elapsed":637060,"internal_node_id":"0.0-30.0","params":{"nStudents":24,"maxFlips":30,"completionMinutes":45,"basePay":8,"maxBonus":9,"perTrialBonus":0.5,"perTrialBonusThreshold":0.1,"exampleCost":0.01},"classroomParams":{"A":{"a":1,"b":4},"B":{"a":4,"b":1},"C":{"a":2,"b":8},"D":{"a":8,"b":2}},"conditions":["nonSeqFull","nonSeqPartial","seqNoFeedback","seqFeedback"],"classroomPairings":[["A","B"],["C","D"]],"coinWeights":[0.2,0.5,0.8],"subjectId":"ASC9DUCC64M3P","assignmentId":"3K5TEWLKGWX2ENZ752HDGPFW38YVI6","hitId":"3YGE63DIN8J20XK20KS1742RQF60WK","url":"https://gershmanlab.com/experiments/alicia/teaching/experiment/?hitId=3YGE63DIN8J20XK20KS1742RQF60WK&workerId=ASC9DUCC64M3P&assignmentId=3K5TEWLKGWX2ENZ752HDGPFW38YVI6&a=KE5K8&tp_a=KE5K8&b=3K5TEWLKGWX2ENZ752HDGPFW38YVI6&tp_b=3K5TEWLKGWX2ENZ752HDGPFW38YVI6&c=365198&tp_c=365198"},{"rt":12510,"response":{"heads":"30","tails":"0"},"type":"response","condition":"nonSeqPartial","trueTheta":0.8,"classrooms":["A","B"],"studentTrueClassroom":"A","exampleSet":"first","trial_type":"survey-html-form","trial_index":35,"time_elapsed":649571,"internal_node_id":"0.0-31.0-0.0","params":{"nStudents":24,"maxFlips":30,"completionMinutes":45,"basePay":8,"maxBonus":9,"perTrialBonus":0.5,"perTrialBonusThreshold":0.1,"exampleCost":0.01},"classroomParams":{"A":{"a":1,"b":4},"B":{"a":4,"b":1},"C":{"a":2,"b":8},"D":{"a":8,"b":2}},"conditions":["nonSeqFull","nonSeqPartial","seqNoFeedback","seqFeedback"],"classroomPairings":[["A","B"],["C","D"]],"coinWeights":[0.2,0.5,0.8],"subjectId":"ASC9DUCC64M3P","assignmentId":"3K5TEWLKGWX2ENZ752HDGPFW38YVI6","hitId":"3YGE63DIN8J20XK20KS1742RQF60WK","url":"https://gershmanlab.com/experiments/alicia/teaching/experiment/?hitId=3YGE63DIN8J20XK20KS1742RQF60WK&workerId=ASC9DUCC64M3P&assignmentId=3K5TEWLKGWX2ENZ752HDGPFW38YVI6&a=KE5K8&tp_a=KE5K8&b=3K5TEWLKGWX2ENZ752HDGPFW38YVI6&tp_b=3K5TEWLKGWX2ENZ752HDGPFW38YVI6&c=365198&tp_c=365198","heads":30,"tails":0,"studentIndex":3,"studentTrueHypers":{"a":1,"b":4},"studentGuess":0.8857142857142857,"delta":0.08571428571428563,"totalExamples":30,"bonus":0.2,"bonusSoFar":0.2},{"rt":null,"stimulus":"Sending examples to student... ","response":null,"trial_type":"html-keyboard-response","trial_index":36,"time_elapsed":650824,"internal_node_id":"0.0-32.0","params":{"nStudents":24,"maxFlips":30,"completionMinutes":45,"basePay":8,"maxBonus":9,"perTrialBonus":0.5,"perTrialBonusThreshold":0.1,"exampleCost":0.01},"classroomParams":{"A":{"a":1,"b":4},"B":{"a":4,"b":1},"C":{"a":2,"b":8},"D":{"a":8,"b":2}},"conditions":["nonSeqFull","nonSeqPartial","seqNoFeedback","seqFeedback"],"classroomPairings":[["A","B"],["C","D"]],"coinWeights":[0.2,0.5,0.8],"subjectId":"ASC9DUCC64M3P","assignmentId":"3K5TEWLKGWX2ENZ752HDGPFW38YVI6","hitId":"3YGE63DIN8J20XK20KS1742RQF60WK","url":"https://gershmanlab.com/experiments/alicia/teaching/experiment/?hitId=3YGE63DIN8J20XK20KS1742RQF60WK&workerId=ASC9DUCC64M3P&assignmentId=3K5TEWLKGWX2ENZ752HDGPFW38YVI6&a=KE5K8&tp_a=KE5K8&b=3K5TEWLKGWX2ENZ752HDGPFW38YVI6&tp_b=3K5TEWLKGWX2ENZ752HDGPFW38YVI6&c=365198&tp_c=365198"},{"rt":null,"stimulus":"Examples sent to student! Waiting for student...","response":null,"trial_type":"html-keyboard-response","trial_index":37,"time_elapsed":654827,"internal_node_id":"0.0-33.0","params":{"nStudents":24,"maxFlips":30,"completionMinutes":45,"basePay":8,"maxBonus":9,"perTrialBonus":0.5,"perTrialBonusThreshold":0.1,"exampleCost":0.01},"classroomParams":{"A":{"a":1,"b":4},"B":{"a":4,"b":1},"C":{"a":2,"b":8},"D":{"a":8,"b":2}},"conditions":["nonSeqFull","nonSeqPartial","seqNoFeedback","seqFeedback"],"classroomPairings":[["A","B"],["C","D"]],"coinWeights":[0.2,0.5,0.8],"subjectId":"ASC9DUCC64M3P","assignmentId":"3K5TEWLKGWX2ENZ752HDGPFW38YVI6","hitId":"3YGE63DIN8J20XK20KS1742RQF60WK","url":"https://gershmanlab.com/experiments/alicia/teaching/experiment/?hitId=3YGE63DIN8J20XK20KS1742RQF60WK&workerId=ASC9DUCC64M3P&assignmentId=3K5TEWLKGWX2ENZ752HDGPFW38YVI6&a=KE5K8&tp_a=KE5K8&b=3K5TEWLKGWX2ENZ752HDGPFW38YVI6&tp_b=3K5TEWLKGWX2ENZ752HDGPFW38YVI6&c=365198&tp_c=365198"},{"rt":3315,"stimulus":"\n                <p>Student's guess for coin weight: <b style=\"color:Tomato;\">0.89</b></p>\n                <p>You received a bonus of <b>$0.2</b>. Total bonus so far: <b>$0.20</b></b></p>\n                <p> Press any key to continue.</p>\n                ","response":" ","trial_type":"html-keyboard-response","trial_index":38,"time_elapsed":658142,"internal_node_id":"0.0-34.0","params":{"nStudents":24,"maxFlips":30,"completionMinutes":45,"basePay":8,"maxBonus":9,"perTrialBonus":0.5,"perTrialBonusThreshold":0.1,"exampleCost":0.01},"classroomParams":{"A":{"a":1,"b":4},"B":{"a":4,"b":1},"C":{"a":2,"b":8},"D":{"a":8,"b":2}},"conditions":["nonSeqFull","nonSeqPartial","seqNoFeedback","seqFeedback"],"classroomPairings":[["A","B"],["C","D"]],"coinWeights":[0.2,0.5,0.8],"subjectId":"ASC9DUCC64M3P","assignmentId":"3K5TEWLKGWX2ENZ752HDGPFW38YVI6","hitId":"3YGE63DIN8J20XK20KS1742RQF60WK","url":"https://gershmanlab.com/experiments/alicia/teaching/experiment/?hitId=3YGE63DIN8J20XK20KS1742RQF60WK&workerId=ASC9DUCC64M3P&assignmentId=3K5TEWLKGWX2ENZ752HDGPFW38YVI6&a=KE5K8&tp_a=KE5K8&b=3K5TEWLKGWX2ENZ752HDGPFW38YVI6&tp_b=3K5TEWLKGWX2ENZ752HDGPFW38YVI6&c=365198&tp_c=365198"},{"rt":null,"stimulus":"<div style=\"font-size:60px;\">Next student</div>","response":null,"trial_type":"html-keyboard-response","trial_index":39,"time_elapsed":660144,"internal_node_id":"0.0-35.0-0.0","params":{"nStudents":24,"maxFlips":30,"completionMinutes":45,"basePay":8,"maxBonus":9,"perTrialBonus":0.5,"perTrialBonusThreshold":0.1,"exampleCost":0.01},"classroomParams":{"A":{"a":1,"b":4},"B":{"a":4,"b":1},"C":{"a":2,"b":8},"D":{"a":8,"b":2}},"conditions":["nonSeqFull","nonSeqPartial","seqNoFeedback","seqFeedback"],"classroomPairings":[["A","B"],["C","D"]],"coinWeights":[0.2,0.5,0.8],"subjectId":"ASC9DUCC64M3P","assignmentId":"3K5TEWLKGWX2ENZ752HDGPFW38YVI6","hitId":"3YGE63DIN8J20XK20KS1742RQF60WK","url":"https://gershmanlab.com/experiments/alicia/teaching/experiment/?hitId=3YGE63DIN8J20XK20KS1742RQF60WK&workerId=ASC9DUCC64M3P&assignmentId=3K5TEWLKGWX2ENZ752HDGPFW38YVI6&a=KE5K8&tp_a=KE5K8&b=3K5TEWLKGWX2ENZ752HDGPFW38YVI6&tp_b=3K5TEWLKGWX2ENZ752HDGPFW38YVI6&c=365198&tp_c=365198"},{"rt":1294,"stimulus":"\n            <h4 style=\"color:Orange;\">Student 5</h4>\n            <h2>The weight of your coin is <b style=\"color:Tomato;\">0.5</b>.</h2>\n            <p>In this block, you will be giving <b>two</b> sets of examples to Student 5.</p>\n                <p>You will receive feedback at the end of the block.</p>\n            ","response":0,"trial_type":"html-button-response","trial_index":40,"time_elapsed":661439,"internal_node_id":"0.0-36.0","params":{"nStudents":24,"maxFlips":30,"completionMinutes":45,"basePay":8,"maxBonus":9,"perTrialBonus":0.5,"perTrialBonusThreshold":0.1,"exampleCost":0.01},"classroomParams":{"A":{"a":1,"b":4},"B":{"a":4,"b":1},"C":{"a":2,"b":8},"D":{"a":8,"b":2}},"conditions":["nonSeqFull","nonSeqPartial","seqNoFeedback","seqFeedback"],"classroomPairings":[["A","B"],["C","D"]],"coinWeights":[0.2,0.5,0.8],"subjectId":"ASC9DUCC64M3P","assignmentId":"3K5TEWLKGWX2ENZ752HDGPFW38YVI6","hitId":"3YGE63DIN8J20XK20KS1742RQF60WK","url":"https://gershmanlab.com/experiments/alicia/teaching/experiment/?hitId=3YGE63DIN8J20XK20KS1742RQF60WK&workerId=ASC9DUCC64M3P&assignmentId=3K5TEWLKGWX2ENZ752HDGPFW38YVI6&a=KE5K8&tp_a=KE5K8&b=3K5TEWLKGWX2ENZ752HDGPFW38YVI6&tp_b=3K5TEWLKGWX2ENZ752HDGPFW38YVI6&c=365198&tp_c=365198"},{"rt":13050,"response":{"heads":"25","tails":"5"},"type":"response","condition":"seqNoFeedback","trueTheta":0.5,"classrooms":["A","B"],"studentTrueClassroom":"B","exampleSet":"first","trial_type":"survey-html-form","trial_index":41,"time_elapsed":674489,"internal_node_id":"0.0-37.0-0.0","params":{"nStudents":24,"maxFlips":30,"completionMinutes":45,"basePay":8,"maxBonus":9,"perTrialBonus":0.5,"perTrialBonusThreshold":0.1,"exampleCost":0.01},"classroomParams":{"A":{"a":1,"b":4},"B":{"a":4,"b":1},"C":{"a":2,"b":8},"D":{"a":8,"b":2}},"conditions":["nonSeqFull","nonSeqPartial","seqNoFeedback","seqFeedback"],"classroomPairings":[["A","B"],["C","D"]],"coinWeights":[0.2,0.5,0.8],"subjectId":"ASC9DUCC64M3P","assignmentId":"3K5TEWLKGWX2ENZ752HDGPFW38YVI6","hitId":"3YGE63DIN8J20XK20KS1742RQF60WK","url":"https://gershmanlab.com/experiments/alicia/teaching/experiment/?hitId=3YGE63DIN8J20XK20KS1742RQF60WK&workerId=ASC9DUCC64M3P&assignmentId=3K5TEWLKGWX2ENZ752HDGPFW38YVI6&a=KE5K8&tp_a=KE5K8&b=3K5TEWLKGWX2ENZ752HDGPFW38YVI6&tp_b=3K5TEWLKGWX2ENZ752HDGPFW38YVI6&c=365198&tp_c=365198","heads":25,"tails":5,"studentIndex":4,"studentTrueHypers":{"a":4,"b":1},"studentGuess":0.8285714285714286,"delta":0.3285714285714286,"totalExamples":30,"bonusSoFar":0.2},{"rt":null,"stimulus":"Sending examples to student... ","response":null,"trial_type":"html-keyboard-response","trial_index":42,"time_elapsed":676242,"internal_node_id":"0.0-38.0","params":{"nStudents":24,"maxFlips":30,"completionMinutes":45,"basePay":8,"maxBonus":9,"perTrialBonus":0.5,"perTrialBonusThreshold":0.1,"exampleCost":0.01},"classroomParams":{"A":{"a":1,"b":4},"B":{"a":4,"b":1},"C":{"a":2,"b":8},"D":{"a":8,"b":2}},"conditions":["nonSeqFull","nonSeqPartial","seqNoFeedback","seqFeedback"],"classroomPairings":[["A","B"],["C","D"]],"coinWeights":[0.2,0.5,0.8],"subjectId":"ASC9DUCC64M3P","assignmentId":"3K5TEWLKGWX2ENZ752HDGPFW38YVI6","hitId":"3YGE63DIN8J20XK20KS1742RQF60WK","url":"https://gershmanlab.com/experiments/alicia/teaching/experiment/?hitId=3YGE63DIN8J20XK20KS1742RQF60WK&workerId=ASC9DUCC64M3P&assignmentId=3K5TEWLKGWX2ENZ752HDGPFW38YVI6&a=KE5K8&tp_a=KE5K8&b=3K5TEWLKGWX2ENZ752HDGPFW38YVI6&tp_b=3K5TEWLKGWX2ENZ752HDGPFW38YVI6&c=365198&tp_c=365198"},{"rt":null,"stimulus":"Examples sent to student! Waiting for student...","response":null,"trial_type":"html-keyboard-response","trial_index":43,"time_elapsed":682243,"internal_node_id":"0.0-39.0","params":{"nStudents":24,"maxFlips":30,"completionMinutes":45,"basePay":8,"maxBonus":9,"perTrialBonus":0.5,"perTrialBonusThreshold":0.1,"exampleCost":0.01},"classroomParams":{"A":{"a":1,"b":4},"B":{"a":4,"b":1},"C":{"a":2,"b":8},"D":{"a":8,"b":2}},"conditions":["nonSeqFull","nonSeqPartial","seqNoFeedback","seqFeedback"],"classroomPairings":[["A","B"],["C","D"]],"coinWeights":[0.2,0.5,0.8],"subjectId":"ASC9DUCC64M3P","assignmentId":"3K5TEWLKGWX2ENZ752HDGPFW38YVI6","hitId":"3YGE63DIN8J20XK20KS1742RQF60WK","url":"https://gershmanlab.com/experiments/alicia/teaching/experiment/?hitId=3YGE63DIN8J20XK20KS1742RQF60WK&workerId=ASC9DUCC64M3P&assignmentId=3K5TEWLKGWX2ENZ752HDGPFW38YVI6&a=KE5K8&tp_a=KE5K8&b=3K5TEWLKGWX2ENZ752HDGPFW38YVI6&tp_b=3K5TEWLKGWX2ENZ752HDGPFW38YVI6&c=365198&tp_c=365198"},{"rt":7254,"response":{"heads":"5","tails":"25"},"type":"response","condition":"seqNoFeedback","trueTheta":0.5,"classrooms":["A","B"],"studentTrueClassroom":"B","exampleSet":"second","trial_type":"survey-html-form","trial_index":44,"time_elapsed":689497,"internal_node_id":"0.0-40.0-0.0","params":{"nStudents":24,"maxFlips":30,"completionMinutes":45,"basePay":8,"maxBonus":9,"perTrialBonus":0.5,"perTrialBonusThreshold":0.1,"exampleCost":0.01},"classroomParams":{"A":{"a":1,"b":4},"B":{"a":4,"b":1},"C":{"a":2,"b":8},"D":{"a":8,"b":2}},"conditions":["nonSeqFull","nonSeqPartial","seqNoFeedback","seqFeedback"],"classroomPairings":[["A","B"],["C","D"]],"coinWeights":[0.2,0.5,0.8],"subjectId":"ASC9DUCC64M3P","assignmentId":"3K5TEWLKGWX2ENZ752HDGPFW38YVI6","hitId":"3YGE63DIN8J20XK20KS1742RQF60WK","url":"https://gershmanlab.com/experiments/alicia/teaching/experiment/?hitId=3YGE63DIN8J20XK20KS1742RQF60WK&workerId=ASC9DUCC64M3P&assignmentId=3K5TEWLKGWX2ENZ752HDGPFW38YVI6&a=KE5K8&tp_a=KE5K8&b=3K5TEWLKGWX2ENZ752HDGPFW38YVI6&tp_b=3K5TEWLKGWX2ENZ752HDGPFW38YVI6&c=365198&tp_c=365198","firstResponseHeads":25,"firstResponseTails":5,"secondResponseHeads":5,"secondResponseTails":25,"studentIndex":4,"studentTrueHypers":{"a":4,"b":1},"studentGuess":0.5230769230769231,"delta":0.023076923076923106,"bonus":0,"bonusSoFar":0.2,"totalExamples":60},{"rt":null,"stimulus":"Sending examples to student... ","response":null,"trial_type":"html-keyboard-response","trial_index":45,"time_elapsed":691003,"internal_node_id":"0.0-41.0","params":{"nStudents":24,"maxFlips":30,"completionMinutes":45,"basePay":8,"maxBonus":9,"perTrialBonus":0.5,"perTrialBonusThreshold":0.1,"exampleCost":0.01},"classroomParams":{"A":{"a":1,"b":4},"B":{"a":4,"b":1},"C":{"a":2,"b":8},"D":{"a":8,"b":2}},"conditions":["nonSeqFull","nonSeqPartial","seqNoFeedback","seqFeedback"],"classroomPairings":[["A","B"],["C","D"]],"coinWeights":[0.2,0.5,0.8],"subjectId":"ASC9DUCC64M3P","assignmentId":"3K5TEWLKGWX2ENZ752HDGPFW38YVI6","hitId":"3YGE63DIN8J20XK20KS1742RQF60WK","url":"https://gershmanlab.com/experiments/alicia/teaching/experiment/?hitId=3YGE63DIN8J20XK20KS1742RQF60WK&workerId=ASC9DUCC64M3P&assignmentId=3K5TEWLKGWX2ENZ752HDGPFW38YVI6&a=KE5K8&tp_a=KE5K8&b=3K5TEWLKGWX2ENZ752HDGPFW38YVI6&tp_b=3K5TEWLKGWX2ENZ752HDGPFW38YVI6&c=365198&tp_c=365198"},{"rt":null,"stimulus":"Examples sent to student! Waiting for student...","response":null,"trial_type":"html-keyboard-response","trial_index":46,"time_elapsed":695006,"internal_node_id":"0.0-42.0","params":{"nStudents":24,"maxFlips":30,"completionMinutes":45,"basePay":8,"maxBonus":9,"perTrialBonus":0.5,"perTrialBonusThreshold":0.1,"exampleCost":0.01},"classroomParams":{"A":{"a":1,"b":4},"B":{"a":4,"b":1},"C":{"a":2,"b":8},"D":{"a":8,"b":2}},"conditions":["nonSeqFull","nonSeqPartial","seqNoFeedback","seqFeedback"],"classroomPairings":[["A","B"],["C","D"]],"coinWeights":[0.2,0.5,0.8],"subjectId":"ASC9DUCC64M3P","assignmentId":"3K5TEWLKGWX2ENZ752HDGPFW38YVI6","hitId":"3YGE63DIN8J20XK20KS1742RQF60WK","url":"https://gershmanlab.com/experiments/alicia/teaching/experiment/?hitId=3YGE63DIN8J20XK20KS1742RQF60WK&workerId=ASC9DUCC64M3P&assignmentId=3K5TEWLKGWX2ENZ752HDGPFW38YVI6&a=KE5K8&tp_a=KE5K8&b=3K5TEWLKGWX2ENZ752HDGPFW38YVI6&tp_b=3K5TEWLKGWX2ENZ752HDGPFW38YVI6&c=365198&tp_c=365198"},{"rt":4795,"stimulus":"\n                <p>Student 5's first guess for coin weight: <b style=\"color:Tomato\";>0.83</b></p>\n                <p>Student 5's second guess for coin weight: <b style=\"color:Tomato\";>0.52</b></p>\n                <p>You received a bonus of <b>$0.00</b> based on the student's second guess.</p>\n                <p>Total bonus so far: <b>$0.20</b></p>\n                <p>Press any key to continue.</p>\n                ","response":" ","trial_type":"html-keyboard-response","trial_index":47,"time_elapsed":699801,"internal_node_id":"0.0-43.0","params":{"nStudents":24,"maxFlips":30,"completionMinutes":45,"basePay":8,"maxBonus":9,"perTrialBonus":0.5,"perTrialBonusThreshold":0.1,"exampleCost":0.01},"classroomParams":{"A":{"a":1,"b":4},"B":{"a":4,"b":1},"C":{"a":2,"b":8},"D":{"a":8,"b":2}},"conditions":["nonSeqFull","nonSeqPartial","seqNoFeedback","seqFeedback"],"classroomPairings":[["A","B"],["C","D"]],"coinWeights":[0.2,0.5,0.8],"subjectId":"ASC9DUCC64M3P","assignmentId":"3K5TEWLKGWX2ENZ752HDGPFW38YVI6","hitId":"3YGE63DIN8J20XK20KS1742RQF60WK","url":"https://gershmanlab.com/experiments/alicia/teaching/experiment/?hitId=3YGE63DIN8J20XK20KS1742RQF60WK&workerId=ASC9DUCC64M3P&assignmentId=3K5TEWLKGWX2ENZ752HDGPFW38YVI6&a=KE5K8&tp_a=KE5K8&b=3K5TEWLKGWX2ENZ752HDGPFW38YVI6&tp_b=3K5TEWLKGWX2ENZ752HDGPFW38YVI6&c=365198&tp_c=365198"},{"rt":null,"stimulus":"<div style=\"font-size:60px;\">Next student</div>","response":null,"trial_type":"html-keyboard-response","trial_index":48,"time_elapsed":702055,"internal_node_id":"0.0-44.0-0.0","params":{"nStudents":24,"maxFlips":30,"completionMinutes":45,"basePay":8,"maxBonus":9,"perTrialBonus":0.5,"perTrialBonusThreshold":0.1,"exampleCost":0.01},"classroomParams":{"A":{"a":1,"b":4},"B":{"a":4,"b":1},"C":{"a":2,"b":8},"D":{"a":8,"b":2}},"conditions":["nonSeqFull","nonSeqPartial","seqNoFeedback","seqFeedback"],"classroomPairings":[["A","B"],["C","D"]],"coinWeights":[0.2,0.5,0.8],"subjectId":"ASC9DUCC64M3P","assignmentId":"3K5TEWLKGWX2ENZ752HDGPFW38YVI6","hitId":"3YGE63DIN8J20XK20KS1742RQF60WK","url":"https://gershmanlab.com/experiments/alicia/teaching/experiment/?hitId=3YGE63DIN8J20XK20KS1742RQF60WK&workerId=ASC9DUCC64M3P&assignmentId=3K5TEWLKGWX2ENZ752HDGPFW38YVI6&a=KE5K8&tp_a=KE5K8&b=3K5TEWLKGWX2ENZ752HDGPFW38YVI6&tp_b=3K5TEWLKGWX2ENZ752HDGPFW38YVI6&c=365198&tp_c=365198"},{"rt":1696,"stimulus":"\n            <h4 style=\"color:Orange;\">Student 6</h4>\n            <h2>The weight of your coin is <b style=\"color:Tomato;\">0.8</b>.</h2>\n            <p>In this block, you will be giving <b>one</b> set of examples to Student 6.</p>\n                <p>You will receive feedback at the end of the block.</p>\n            ","response":0,"trial_type":"html-button-response","trial_index":49,"time_elapsed":703752,"internal_node_id":"0.0-45.0","params":{"nStudents":24,"maxFlips":30,"completionMinutes":45,"basePay":8,"maxBonus":9,"perTrialBonus":0.5,"perTrialBonusThreshold":0.1,"exampleCost":0.01},"classroomParams":{"A":{"a":1,"b":4},"B":{"a":4,"b":1},"C":{"a":2,"b":8},"D":{"a":8,"b":2}},"conditions":["nonSeqFull","nonSeqPartial","seqNoFeedback","seqFeedback"],"classroomPairings":[["A","B"],["C","D"]],"coinWeights":[0.2,0.5,0.8],"subjectId":"ASC9DUCC64M3P","assignmentId":"3K5TEWLKGWX2ENZ752HDGPFW38YVI6","hitId":"3YGE63DIN8J20XK20KS1742RQF60WK","url":"https://gershmanlab.com/experiments/alicia/teaching/experiment/?hitId=3YGE63DIN8J20XK20KS1742RQF60WK&workerId=ASC9DUCC64M3P&assignmentId=3K5TEWLKGWX2ENZ752HDGPFW38YVI6&a=KE5K8&tp_a=KE5K8&b=3K5TEWLKGWX2ENZ752HDGPFW38YVI6&tp_b=3K5TEWLKGWX2ENZ752HDGPFW38YVI6&c=365198&tp_c=365198"},{"rt":4307,"response":{"heads":"30","tails":"0"},"type":"response","condition":"nonSeqFull","trueTheta":0.8,"classrooms":["C","D"],"studentTrueClassroom":"D","exampleSet":"first","trial_type":"survey-html-form","trial_index":50,"time_elapsed":708060,"internal_node_id":"0.0-46.0-0.0","params":{"nStudents":24,"maxFlips":30,"completionMinutes":45,"basePay":8,"maxBonus":9,"perTrialBonus":0.5,"perTrialBonusThreshold":0.1,"exampleCost":0.01},"classroomParams":{"A":{"a":1,"b":4},"B":{"a":4,"b":1},"C":{"a":2,"b":8},"D":{"a":8,"b":2}},"conditions":["nonSeqFull","nonSeqPartial","seqNoFeedback","seqFeedback"],"classroomPairings":[["A","B"],["C","D"]],"coinWeights":[0.2,0.5,0.8],"subjectId":"ASC9DUCC64M3P","assignmentId":"3K5TEWLKGWX2ENZ752HDGPFW38YVI6","hitId":"3YGE63DIN8J20XK20KS1742RQF60WK","url":"https://gershmanlab.com/experiments/alicia/teaching/experiment/?hitId=3YGE63DIN8J20XK20KS1742RQF60WK&workerId=ASC9DUCC64M3P&assignmentId=3K5TEWLKGWX2ENZ752HDGPFW38YVI6&a=KE5K8&tp_a=KE5K8&b=3K5TEWLKGWX2ENZ752HDGPFW38YVI6&tp_b=3K5TEWLKGWX2ENZ752HDGPFW38YVI6&c=365198&tp_c=365198","heads":30,"tails":0,"studentIndex":5,"studentTrueHypers":{"a":8,"b":2},"studentGuess":0.95,"delta":0.1499999999999999,"totalExamples":30,"bonus":0,"bonusSoFar":0.2},{"rt":null,"stimulus":"Sending examples to student... ","response":null,"trial_type":"html-keyboard-response","trial_index":51,"time_elapsed":709563,"internal_node_id":"0.0-47.0","params":{"nStudents":24,"maxFlips":30,"completionMinutes":45,"basePay":8,"maxBonus":9,"perTrialBonus":0.5,"perTrialBonusThreshold":0.1,"exampleCost":0.01},"classroomParams":{"A":{"a":1,"b":4},"B":{"a":4,"b":1},"C":{"a":2,"b":8},"D":{"a":8,"b":2}},"conditions":["nonSeqFull","nonSeqPartial","seqNoFeedback","seqFeedback"],"classroomPairings":[["A","B"],["C","D"]],"coinWeights":[0.2,0.5,0.8],"subjectId":"ASC9DUCC64M3P","assignmentId":"3K5TEWLKGWX2ENZ752HDGPFW38YVI6","hitId":"3YGE63DIN8J20XK20KS1742RQF60WK","url":"https://gershmanlab.com/experiments/alicia/teaching/experiment/?hitId=3YGE63DIN8J20XK20KS1742RQF60WK&workerId=ASC9DUCC64M3P&assignmentId=3K5TEWLKGWX2ENZ752HDGPFW38YVI6&a=KE5K8&tp_a=KE5K8&b=3K5TEWLKGWX2ENZ752HDGPFW38YVI6&tp_b=3K5TEWLKGWX2ENZ752HDGPFW38YVI6&c=365198&tp_c=365198"},{"rt":null,"stimulus":"Examples sent to student! Waiting for student...","response":null,"trial_type":"html-keyboard-response","trial_index":52,"time_elapsed":715565,"internal_node_id":"0.0-48.0","params":{"nStudents":24,"maxFlips":30,"completionMinutes":45,"basePay":8,"maxBonus":9,"perTrialBonus":0.5,"perTrialBonusThreshold":0.1,"exampleCost":0.01},"classroomParams":{"A":{"a":1,"b":4},"B":{"a":4,"b":1},"C":{"a":2,"b":8},"D":{"a":8,"b":2}},"conditions":["nonSeqFull","nonSeqPartial","seqNoFeedback","seqFeedback"],"classroomPairings":[["A","B"],["C","D"]],"coinWeights":[0.2,0.5,0.8],"subjectId":"ASC9DUCC64M3P","assignmentId":"3K5TEWLKGWX2ENZ752HDGPFW38YVI6","hitId":"3YGE63DIN8J20XK20KS1742RQF60WK","url":"https://gershmanlab.com/experiments/alicia/teaching/experiment/?hitId=3YGE63DIN8J20XK20KS1742RQF60WK&workerId=ASC9DUCC64M3P&assignmentId=3K5TEWLKGWX2ENZ752HDGPFW38YVI6&a=KE5K8&tp_a=KE5K8&b=3K5TEWLKGWX2ENZ752HDGPFW38YVI6&tp_b=3K5TEWLKGWX2ENZ752HDGPFW38YVI6&c=365198&tp_c=365198"},{"rt":2934,"stimulus":"\n                <p>Student's guess for coin weight: <b style=\"color:Tomato;\">0.95</b></p>\n                <p>You received a bonus of <b>$0</b>. Total bonus so far: <b>$0.20</b></b></p>\n                <p> Press any key to continue.</p>\n                ","response":" ","trial_type":"html-keyboard-response","trial_index":53,"time_elapsed":718499,"internal_node_id":"0.0-49.0","params":{"nStudents":24,"maxFlips":30,"completionMinutes":45,"basePay":8,"maxBonus":9,"perTrialBonus":0.5,"perTrialBonusThreshold":0.1,"exampleCost":0.01},"classroomParams":{"A":{"a":1,"b":4},"B":{"a":4,"b":1},"C":{"a":2,"b":8},"D":{"a":8,"b":2}},"conditions":["nonSeqFull","nonSeqPartial","seqNoFeedback","seqFeedback"],"classroomPairings":[["A","B"],["C","D"]],"coinWeights":[0.2,0.5,0.8],"subjectId":"ASC9DUCC64M3P","assignmentId":"3K5TEWLKGWX2ENZ752HDGPFW38YVI6","hitId":"3YGE63DIN8J20XK20KS1742RQF60WK","url":"https://gershmanlab.com/experiments/alicia/teaching/experiment/?hitId=3YGE63DIN8J20XK20KS1742RQF60WK&workerId=ASC9DUCC64M3P&assignmentId=3K5TEWLKGWX2ENZ752HDGPFW38YVI6&a=KE5K8&tp_a=KE5K8&b=3K5TEWLKGWX2ENZ752HDGPFW38YVI6&tp_b=3K5TEWLKGWX2ENZ752HDGPFW38YVI6&c=365198&tp_c=365198"},{"rt":null,"stimulus":"<div style=\"font-size:60px;\">Next student</div>","response":null,"trial_type":"html-keyboard-response","trial_index":54,"time_elapsed":721500,"internal_node_id":"0.0-50.0-0.0","params":{"nStudents":24,"maxFlips":30,"completionMinutes":45,"basePay":8,"maxBonus":9,"perTrialBonus":0.5,"perTrialBonusThreshold":0.1,"exampleCost":0.01},"classroomParams":{"A":{"a":1,"b":4},"B":{"a":4,"b":1},"C":{"a":2,"b":8},"D":{"a":8,"b":2}},"conditions":["nonSeqFull","nonSeqPartial","seqNoFeedback","seqFeedback"],"classroomPairings":[["A","B"],["C","D"]],"coinWeights":[0.2,0.5,0.8],"subjectId":"ASC9DUCC64M3P","assignmentId":"3K5TEWLKGWX2ENZ752HDGPFW38YVI6","hitId":"3YGE63DIN8J20XK20KS1742RQF60WK","url":"https://gershmanlab.com/experiments/alicia/teaching/experiment/?hitId=3YGE63DIN8J20XK20KS1742RQF60WK&workerId=ASC9DUCC64M3P&assignmentId=3K5TEWLKGWX2ENZ752HDGPFW38YVI6&a=KE5K8&tp_a=KE5K8&b=3K5TEWLKGWX2ENZ752HDGPFW38YVI6&tp_b=3K5TEWLKGWX2ENZ752HDGPFW38YVI6&c=365198&tp_c=365198"},{"rt":1274,"stimulus":"\n            <h4 style=\"color:Orange;\">Student 7</h4>\n            <h2>The weight of your coin is <b style=\"color:Tomato;\">0.2</b>.</h2>\n            <p>In this block, you will be giving <b>one</b> set of examples to Student 7.</p>\n                <p>You will receive feedback at the end of the block.</p>\n            ","response":0,"trial_type":"html-button-response","trial_index":55,"time_elapsed":722775,"internal_node_id":"0.0-51.0","params":{"nStudents":24,"maxFlips":30,"completionMinutes":45,"basePay":8,"maxBonus":9,"perTrialBonus":0.5,"perTrialBonusThreshold":0.1,"exampleCost":0.01},"classroomParams":{"A":{"a":1,"b":4},"B":{"a":4,"b":1},"C":{"a":2,"b":8},"D":{"a":8,"b":2}},"conditions":["nonSeqFull","nonSeqPartial","seqNoFeedback","seqFeedback"],"classroomPairings":[["A","B"],["C","D"]],"coinWeights":[0.2,0.5,0.8],"subjectId":"ASC9DUCC64M3P","assignmentId":"3K5TEWLKGWX2ENZ752HDGPFW38YVI6","hitId":"3YGE63DIN8J20XK20KS1742RQF60WK","url":"https://gershmanlab.com/experiments/alicia/teaching/experiment/?hitId=3YGE63DIN8J20XK20KS1742RQF60WK&workerId=ASC9DUCC64M3P&assignmentId=3K5TEWLKGWX2ENZ752HDGPFW38YVI6&a=KE5K8&tp_a=KE5K8&b=3K5TEWLKGWX2ENZ752HDGPFW38YVI6&tp_b=3K5TEWLKGWX2ENZ752HDGPFW38YVI6&c=365198&tp_c=365198"},{"rt":6592,"response":{"heads":"5","tails":"25"},"type":"response","condition":"nonSeqFull","trueTheta":0.2,"classrooms":["A","B"],"studentTrueClassroom":"A","exampleSet":"first","trial_type":"survey-html-form","trial_index":56,"time_elapsed":729368,"internal_node_id":"0.0-52.0-0.0","params":{"nStudents":24,"maxFlips":30,"completionMinutes":45,"basePay":8,"maxBonus":9,"perTrialBonus":0.5,"perTrialBonusThreshold":0.1,"exampleCost":0.01},"classroomParams":{"A":{"a":1,"b":4},"B":{"a":4,"b":1},"C":{"a":2,"b":8},"D":{"a":8,"b":2}},"conditions":["nonSeqFull","nonSeqPartial","seqNoFeedback","seqFeedback"],"classroomPairings":[["A","B"],["C","D"]],"coinWeights":[0.2,0.5,0.8],"subjectId":"ASC9DUCC64M3P","assignmentId":"3K5TEWLKGWX2ENZ752HDGPFW38YVI6","hitId":"3YGE63DIN8J20XK20KS1742RQF60WK","url":"https://gershmanlab.com/experiments/alicia/teaching/experiment/?hitId=3YGE63DIN8J20XK20KS1742RQF60WK&workerId=ASC9DUCC64M3P&assignmentId=3K5TEWLKGWX2ENZ752HDGPFW38YVI6&a=KE5K8&tp_a=KE5K8&b=3K5TEWLKGWX2ENZ752HDGPFW38YVI6&tp_b=3K5TEWLKGWX2ENZ752HDGPFW38YVI6&c=365198&tp_c=365198","heads":5,"tails":25,"studentIndex":6,"studentTrueHypers":{"a":1,"b":4},"studentGuess":0.17142857142857143,"delta":0.02857142857142858,"totalExamples":30,"bonus":0.2,"bonusSoFar":0.4},{"rt":null,"stimulus":"Sending examples to student... ","response":null,"trial_type":"html-keyboard-response","trial_index":57,"time_elapsed":731122,"internal_node_id":"0.0-53.0","params":{"nStudents":24,"maxFlips":30,"completionMinutes":45,"basePay":8,"maxBonus":9,"perTrialBonus":0.5,"perTrialBonusThreshold":0.1,"exampleCost":0.01},"classroomParams":{"A":{"a":1,"b":4},"B":{"a":4,"b":1},"C":{"a":2,"b":8},"D":{"a":8,"b":2}},"conditions":["nonSeqFull","nonSeqPartial","seqNoFeedback","seqFeedback"],"classroomPairings":[["A","B"],["C","D"]],"coinWeights":[0.2,0.5,0.8],"subjectId":"ASC9DUCC64M3P","assignmentId":"3K5TEWLKGWX2ENZ752HDGPFW38YVI6","hitId":"3YGE63DIN8J20XK20KS1742RQF60WK","url":"https://gershmanlab.com/experiments/alicia/teaching/experiment/?hitId=3YGE63DIN8J20XK20KS1742RQF60WK&workerId=ASC9DUCC64M3P&assignmentId=3K5TEWLKGWX2ENZ752HDGPFW38YVI6&a=KE5K8&tp_a=KE5K8&b=3K5TEWLKGWX2ENZ752HDGPFW38YVI6&tp_b=3K5TEWLKGWX2ENZ752HDGPFW38YVI6&c=365198&tp_c=365198"},{"rt":null,"stimulus":"Examples sent to student! Waiting for student...","response":null,"trial_type":"html-keyboard-response","trial_index":58,"time_elapsed":737126,"internal_node_id":"0.0-54.0","params":{"nStudents":24,"maxFlips":30,"completionMinutes":45,"basePay":8,"maxBonus":9,"perTrialBonus":0.5,"perTrialBonusThreshold":0.1,"exampleCost":0.01},"classroomParams":{"A":{"a":1,"b":4},"B":{"a":4,"b":1},"C":{"a":2,"b":8},"D":{"a":8,"b":2}},"conditions":["nonSeqFull","nonSeqPartial","seqNoFeedback","seqFeedback"],"classroomPairings":[["A","B"],["C","D"]],"coinWeights":[0.2,0.5,0.8],"subjectId":"ASC9DUCC64M3P","assignmentId":"3K5TEWLKGWX2ENZ752HDGPFW38YVI6","hitId":"3YGE63DIN8J20XK20KS1742RQF60WK","url":"https://gershmanlab.com/experiments/alicia/teaching/experiment/?hitId=3YGE63DIN8J20XK20KS1742RQF60WK&workerId=ASC9DUCC64M3P&assignmentId=3K5TEWLKGWX2ENZ752HDGPFW38YVI6&a=KE5K8&tp_a=KE5K8&b=3K5TEWLKGWX2ENZ752HDGPFW38YVI6&tp_b=3K5TEWLKGWX2ENZ752HDGPFW38YVI6&c=365198&tp_c=365198"},{"rt":1949,"stimulus":"\n                <p>Student's guess for coin weight: <b style=\"color:Tomato;\">0.17</b></p>\n                <p>You received a bonus of <b>$0.2</b>. Total bonus so far: <b>$0.40</b></b></p>\n                <p> Press any key to continue.</p>\n                ","response":" ","trial_type":"html-keyboard-response","trial_index":59,"time_elapsed":739075,"internal_node_id":"0.0-55.0","params":{"nStudents":24,"maxFlips":30,"completionMinutes":45,"basePay":8,"maxBonus":9,"perTrialBonus":0.5,"perTrialBonusThreshold":0.1,"exampleCost":0.01},"classroomParams":{"A":{"a":1,"b":4},"B":{"a":4,"b":1},"C":{"a":2,"b":8},"D":{"a":8,"b":2}},"conditions":["nonSeqFull","nonSeqPartial","seqNoFeedback","seqFeedback"],"classroomPairings":[["A","B"],["C","D"]],"coinWeights":[0.2,0.5,0.8],"subjectId":"ASC9DUCC64M3P","assignmentId":"3K5TEWLKGWX2ENZ752HDGPFW38YVI6","hitId":"3YGE63DIN8J20XK20KS1742RQF60WK","url":"https://gershmanlab.com/experiments/alicia/teaching/experiment/?hitId=3YGE63DIN8J20XK20KS1742RQF60WK&workerId=ASC9DUCC64M3P&assignmentId=3K5TEWLKGWX2ENZ752HDGPFW38YVI6&a=KE5K8&tp_a=KE5K8&b=3K5TEWLKGWX2ENZ752HDGPFW38YVI6&tp_b=3K5TEWLKGWX2ENZ752HDGPFW38YVI6&c=365198&tp_c=365198"},{"rt":null,"stimulus":"<div style=\"font-size:60px;\">Next student</div>","response":null,"trial_type":"html-keyboard-response","trial_index":60,"time_elapsed":742078,"internal_node_id":"0.0-56.0-0.0","params":{"nStudents":24,"maxFlips":30,"completionMinutes":45,"basePay":8,"maxBonus":9,"perTrialBonus":0.5,"perTrialBonusThreshold":0.1,"exampleCost":0.01},"classroomParams":{"A":{"a":1,"b":4},"B":{"a":4,"b":1},"C":{"a":2,"b":8},"D":{"a":8,"b":2}},"conditions":["nonSeqFull","nonSeqPartial","seqNoFeedback","seqFeedback"],"classroomPairings":[["A","B"],["C","D"]],"coinWeights":[0.2,0.5,0.8],"subjectId":"ASC9DUCC64M3P","assignmentId":"3K5TEWLKGWX2ENZ752HDGPFW38YVI6","hitId":"3YGE63DIN8J20XK20KS1742RQF60WK","url":"https://gershmanlab.com/experiments/alicia/teaching/experiment/?hitId=3YGE63DIN8J20XK20KS1742RQF60WK&workerId=ASC9DUCC64M3P&assignmentId=3K5TEWLKGWX2ENZ752HDGPFW38YVI6&a=KE5K8&tp_a=KE5K8&b=3K5TEWLKGWX2ENZ752HDGPFW38YVI6&tp_b=3K5TEWLKGWX2ENZ752HDGPFW38YVI6&c=365198&tp_c=365198"},{"rt":1070,"stimulus":"\n            <h4 style=\"color:Orange;\">Student 8</h4>\n            <h2>The weight of your coin is <b style=\"color:Tomato;\">0.5</b>.</h2>\n            <p>In this block, you will be giving <b>two</b> sets of examples to Student 8.</p>\n                <p>You will see the student's guess after the first set of examples. You will also receive feedback at the end of the block.</p>\n            ","response":0,"trial_type":"html-button-response","trial_index":61,"time_elapsed":743149,"internal_node_id":"0.0-57.0","params":{"nStudents":24,"maxFlips":30,"completionMinutes":45,"basePay":8,"maxBonus":9,"perTrialBonus":0.5,"perTrialBonusThreshold":0.1,"exampleCost":0.01},"classroomParams":{"A":{"a":1,"b":4},"B":{"a":4,"b":1},"C":{"a":2,"b":8},"D":{"a":8,"b":2}},"conditions":["nonSeqFull","nonSeqPartial","seqNoFeedback","seqFeedback"],"classroomPairings":[["A","B"],["C","D"]],"coinWeights":[0.2,0.5,0.8],"subjectId":"ASC9DUCC64M3P","assignmentId":"3K5TEWLKGWX2ENZ752HDGPFW38YVI6","hitId":"3YGE63DIN8J20XK20KS1742RQF60WK","url":"https://gershmanlab.com/experiments/alicia/teaching/experiment/?hitId=3YGE63DIN8J20XK20KS1742RQF60WK&workerId=ASC9DUCC64M3P&assignmentId=3K5TEWLKGWX2ENZ752HDGPFW38YVI6&a=KE5K8&tp_a=KE5K8&b=3K5TEWLKGWX2ENZ752HDGPFW38YVI6&tp_b=3K5TEWLKGWX2ENZ752HDGPFW38YVI6&c=365198&tp_c=365198"},{"rt":6502,"response":{"heads":"15","tails":"15"},"type":"response","condition":"seqFeedback","trueTheta":0.5,"classrooms":["C","D"],"studentTrueClassroom":"D","exampleSet":"first","trial_type":"survey-html-form","trial_index":62,"time_elapsed":749651,"internal_node_id":"0.0-58.0-0.0","params":{"nStudents":24,"maxFlips":30,"completionMinutes":45,"basePay":8,"maxBonus":9,"perTrialBonus":0.5,"perTrialBonusThreshold":0.1,"exampleCost":0.01},"classroomParams":{"A":{"a":1,"b":4},"B":{"a":4,"b":1},"C":{"a":2,"b":8},"D":{"a":8,"b":2}},"conditions":["nonSeqFull","nonSeqPartial","seqNoFeedback","seqFeedback"],"classroomPairings":[["A","B"],["C","D"]],"coinWeights":[0.2,0.5,0.8],"subjectId":"ASC9DUCC64M3P","assignmentId":"3K5TEWLKGWX2ENZ752HDGPFW38YVI6","hitId":"3YGE63DIN8J20XK20KS1742RQF60WK","url":"https://gershmanlab.com/experiments/alicia/teaching/experiment/?hitId=3YGE63DIN8J20XK20KS1742RQF60WK&workerId=ASC9DUCC64M3P&assignmentId=3K5TEWLKGWX2ENZ752HDGPFW38YVI6&a=KE5K8&tp_a=KE5K8&b=3K5TEWLKGWX2ENZ752HDGPFW38YVI6&tp_b=3K5TEWLKGWX2ENZ752HDGPFW38YVI6&c=365198&tp_c=365198","heads":15,"tails":15,"studentIndex":7,"studentTrueHypers":{"a":8,"b":2},"studentGuess":0.575,"delta":0.07499999999999996,"totalExamples":30,"bonusSoFar":0.4},{"rt":null,"stimulus":"Sending examples to student... ","response":null,"trial_type":"html-keyboard-response","trial_index":63,"time_elapsed":751406,"internal_node_id":"0.0-59.0","params":{"nStudents":24,"maxFlips":30,"completionMinutes":45,"basePay":8,"maxBonus":9,"perTrialBonus":0.5,"perTrialBonusThreshold":0.1,"exampleCost":0.01},"classroomParams":{"A":{"a":1,"b":4},"B":{"a":4,"b":1},"C":{"a":2,"b":8},"D":{"a":8,"b":2}},"conditions":["nonSeqFull","nonSeqPartial","seqNoFeedback","seqFeedback"],"classroomPairings":[["A","B"],["C","D"]],"coinWeights":[0.2,0.5,0.8],"subjectId":"ASC9DUCC64M3P","assignmentId":"3K5TEWLKGWX2ENZ752HDGPFW38YVI6","hitId":"3YGE63DIN8J20XK20KS1742RQF60WK","url":"https://gershmanlab.com/experiments/alicia/teaching/experiment/?hitId=3YGE63DIN8J20XK20KS1742RQF60WK&workerId=ASC9DUCC64M3P&assignmentId=3K5TEWLKGWX2ENZ752HDGPFW38YVI6&a=KE5K8&tp_a=KE5K8&b=3K5TEWLKGWX2ENZ752HDGPFW38YVI6&tp_b=3K5TEWLKGWX2ENZ752HDGPFW38YVI6&c=365198&tp_c=365198"},{"rt":null,"stimulus":"Examples sent to student! Waiting for student...","response":null,"trial_type":"html-keyboard-response","trial_index":64,"time_elapsed":755907,"internal_node_id":"0.0-60.0","params":{"nStudents":24,"maxFlips":30,"completionMinutes":45,"basePay":8,"maxBonus":9,"perTrialBonus":0.5,"perTrialBonusThreshold":0.1,"exampleCost":0.01},"classroomParams":{"A":{"a":1,"b":4},"B":{"a":4,"b":1},"C":{"a":2,"b":8},"D":{"a":8,"b":2}},"conditions":["nonSeqFull","nonSeqPartial","seqNoFeedback","seqFeedback"],"classroomPairings":[["A","B"],["C","D"]],"coinWeights":[0.2,0.5,0.8],"subjectId":"ASC9DUCC64M3P","assignmentId":"3K5TEWLKGWX2ENZ752HDGPFW38YVI6","hitId":"3YGE63DIN8J20XK20KS1742RQF60WK","url":"https://gershmanlab.com/experiments/alicia/teaching/experiment/?hitId=3YGE63DIN8J20XK20KS1742RQF60WK&workerId=ASC9DUCC64M3P&assignmentId=3K5TEWLKGWX2ENZ752HDGPFW38YVI6&a=KE5K8&tp_a=KE5K8&b=3K5TEWLKGWX2ENZ752HDGPFW38YVI6&tp_b=3K5TEWLKGWX2ENZ752HDGPFW38YVI6&c=365198&tp_c=365198"},{"rt":3463,"stimulus":"\n                <p>Student's guess for coin weight: <b style=\"color:Tomato;\">0.57</b></p>\n                <p></b></p>\n                <p>You will now send another set of examples to your student. Press any key to continue.</p>\n                ","response":" ","trial_type":"html-keyboard-response","trial_index":65,"time_elapsed":759371,"internal_node_id":"0.0-61.0","params":{"nStudents":24,"maxFlips":30,"completionMinutes":45,"basePay":8,"maxBonus":9,"perTrialBonus":0.5,"perTrialBonusThreshold":0.1,"exampleCost":0.01},"classroomParams":{"A":{"a":1,"b":4},"B":{"a":4,"b":1},"C":{"a":2,"b":8},"D":{"a":8,"b":2}},"conditions":["nonSeqFull","nonSeqPartial","seqNoFeedback","seqFeedback"],"classroomPairings":[["A","B"],["C","D"]],"coinWeights":[0.2,0.5,0.8],"subjectId":"ASC9DUCC64M3P","assignmentId":"3K5TEWLKGWX2ENZ752HDGPFW38YVI6","hitId":"3YGE63DIN8J20XK20KS1742RQF60WK","url":"https://gershmanlab.com/experiments/alicia/teaching/experiment/?hitId=3YGE63DIN8J20XK20KS1742RQF60WK&workerId=ASC9DUCC64M3P&assignmentId=3K5TEWLKGWX2ENZ752HDGPFW38YVI6&a=KE5K8&tp_a=KE5K8&b=3K5TEWLKGWX2ENZ752HDGPFW38YVI6&tp_b=3K5TEWLKGWX2ENZ752HDGPFW38YVI6&c=365198&tp_c=365198"},{"rt":6390,"response":{"heads":"15","tails":"15"},"type":"response","condition":"seqFeedback","trueTheta":0.5,"classrooms":["C","D"],"studentTrueClassroom":"D","exampleSet":"second","trial_type":"survey-html-form","trial_index":66,"time_elapsed":765761,"internal_node_id":"0.0-62.0-0.0","params":{"nStudents":24,"maxFlips":30,"completionMinutes":45,"basePay":8,"maxBonus":9,"perTrialBonus":0.5,"perTrialBonusThreshold":0.1,"exampleCost":0.01},"classroomParams":{"A":{"a":1,"b":4},"B":{"a":4,"b":1},"C":{"a":2,"b":8},"D":{"a":8,"b":2}},"conditions":["nonSeqFull","nonSeqPartial","seqNoFeedback","seqFeedback"],"classroomPairings":[["A","B"],["C","D"]],"coinWeights":[0.2,0.5,0.8],"subjectId":"ASC9DUCC64M3P","assignmentId":"3K5TEWLKGWX2ENZ752HDGPFW38YVI6","hitId":"3YGE63DIN8J20XK20KS1742RQF60WK","url":"https://gershmanlab.com/experiments/alicia/teaching/experiment/?hitId=3YGE63DIN8J20XK20KS1742RQF60WK&workerId=ASC9DUCC64M3P&assignmentId=3K5TEWLKGWX2ENZ752HDGPFW38YVI6&a=KE5K8&tp_a=KE5K8&b=3K5TEWLKGWX2ENZ752HDGPFW38YVI6&tp_b=3K5TEWLKGWX2ENZ752HDGPFW38YVI6&c=365198&tp_c=365198","firstResponseHeads":15,"firstResponseTails":15,"secondResponseHeads":15,"secondResponseTails":15,"studentIndex":7,"studentTrueHypers":{"a":8,"b":2},"studentGuess":0.5428571428571428,"delta":0.042857142857142816,"bonus":0,"bonusSoFar":0.4,"totalExamples":60},{"rt":null,"stimulus":"Sending examples to student... ","response":null,"trial_type":"html-keyboard-response","trial_index":67,"time_elapsed":767514,"internal_node_id":"0.0-63.0","params":{"nStudents":24,"maxFlips":30,"completionMinutes":45,"basePay":8,"maxBonus":9,"perTrialBonus":0.5,"perTrialBonusThreshold":0.1,"exampleCost":0.01},"classroomParams":{"A":{"a":1,"b":4},"B":{"a":4,"b":1},"C":{"a":2,"b":8},"D":{"a":8,"b":2}},"conditions":["nonSeqFull","nonSeqPartial","seqNoFeedback","seqFeedback"],"classroomPairings":[["A","B"],["C","D"]],"coinWeights":[0.2,0.5,0.8],"subjectId":"ASC9DUCC64M3P","assignmentId":"3K5TEWLKGWX2ENZ752HDGPFW38YVI6","hitId":"3YGE63DIN8J20XK20KS1742RQF60WK","url":"https://gershmanlab.com/experiments/alicia/teaching/experiment/?hitId=3YGE63DIN8J20XK20KS1742RQF60WK&workerId=ASC9DUCC64M3P&assignmentId=3K5TEWLKGWX2ENZ752HDGPFW38YVI6&a=KE5K8&tp_a=KE5K8&b=3K5TEWLKGWX2ENZ752HDGPFW38YVI6&tp_b=3K5TEWLKGWX2ENZ752HDGPFW38YVI6&c=365198&tp_c=365198"},{"rt":null,"stimulus":"Examples sent to student! Waiting for student...","response":null,"trial_type":"html-keyboard-response","trial_index":68,"time_elapsed":773516,"internal_node_id":"0.0-64.0","params":{"nStudents":24,"maxFlips":30,"completionMinutes":45,"basePay":8,"maxBonus":9,"perTrialBonus":0.5,"perTrialBonusThreshold":0.1,"exampleCost":0.01},"classroomParams":{"A":{"a":1,"b":4},"B":{"a":4,"b":1},"C":{"a":2,"b":8},"D":{"a":8,"b":2}},"conditions":["nonSeqFull","nonSeqPartial","seqNoFeedback","seqFeedback"],"classroomPairings":[["A","B"],["C","D"]],"coinWeights":[0.2,0.5,0.8],"subjectId":"ASC9DUCC64M3P","assignmentId":"3K5TEWLKGWX2ENZ752HDGPFW38YVI6","hitId":"3YGE63DIN8J20XK20KS1742RQF60WK","url":"https://gershmanlab.com/experiments/alicia/teaching/experiment/?hitId=3YGE63DIN8J20XK20KS1742RQF60WK&workerId=ASC9DUCC64M3P&assignmentId=3K5TEWLKGWX2ENZ752HDGPFW38YVI6&a=KE5K8&tp_a=KE5K8&b=3K5TEWLKGWX2ENZ752HDGPFW38YVI6&tp_b=3K5TEWLKGWX2ENZ752HDGPFW38YVI6&c=365198&tp_c=365198"},{"rt":2504,"stimulus":"\n                <p>Student 8's first guess for coin weight: <b style=\"color:Tomato\";>0.57</b></p>\n                <p>Student 8's second guess for coin weight: <b style=\"color:Tomato\";>0.54</b></p>\n                <p>You received a bonus of <b>$0.00</b> based on the student's second guess.</p>\n                <p>Total bonus so far: <b>$0.40</b></p>\n                <p>Press any key to continue.</p>\n                ","response":" ","trial_type":"html-keyboard-response","trial_index":69,"time_elapsed":776021,"internal_node_id":"0.0-65.0","params":{"nStudents":24,"maxFlips":30,"completionMinutes":45,"basePay":8,"maxBonus":9,"perTrialBonus":0.5,"perTrialBonusThreshold":0.1,"exampleCost":0.01},"classroomParams":{"A":{"a":1,"b":4},"B":{"a":4,"b":1},"C":{"a":2,"b":8},"D":{"a":8,"b":2}},"conditions":["nonSeqFull","nonSeqPartial","seqNoFeedback","seqFeedback"],"classroomPairings":[["A","B"],["C","D"]],"coinWeights":[0.2,0.5,0.8],"subjectId":"ASC9DUCC64M3P","assignmentId":"3K5TEWLKGWX2ENZ752HDGPFW38YVI6","hitId":"3YGE63DIN8J20XK20KS1742RQF60WK","url":"https://gershmanlab.com/experiments/alicia/teaching/experiment/?hitId=3YGE63DIN8J20XK20KS1742RQF60WK&workerId=ASC9DUCC64M3P&assignmentId=3K5TEWLKGWX2ENZ752HDGPFW38YVI6&a=KE5K8&tp_a=KE5K8&b=3K5TEWLKGWX2ENZ752HDGPFW38YVI6&tp_b=3K5TEWLKGWX2ENZ752HDGPFW38YVI6&c=365198&tp_c=365198"},{"rt":null,"stimulus":"<div style=\"font-size:60px;\">Next student</div>","response":null,"trial_type":"html-keyboard-response","trial_index":70,"time_elapsed":779022,"internal_node_id":"0.0-66.0-0.0","params":{"nStudents":24,"maxFlips":30,"completionMinutes":45,"basePay":8,"maxBonus":9,"perTrialBonus":0.5,"perTrialBonusThreshold":0.1,"exampleCost":0.01},"classroomParams":{"A":{"a":1,"b":4},"B":{"a":4,"b":1},"C":{"a":2,"b":8},"D":{"a":8,"b":2}},"conditions":["nonSeqFull","nonSeqPartial","seqNoFeedback","seqFeedback"],"classroomPairings":[["A","B"],["C","D"]],"coinWeights":[0.2,0.5,0.8],"subjectId":"ASC9DUCC64M3P","assignmentId":"3K5TEWLKGWX2ENZ752HDGPFW38YVI6","hitId":"3YGE63DIN8J20XK20KS1742RQF60WK","url":"https://gershmanlab.com/experiments/alicia/teaching/experiment/?hitId=3YGE63DIN8J20XK20KS1742RQF60WK&workerId=ASC9DUCC64M3P&assignmentId=3K5TEWLKGWX2ENZ752HDGPFW38YVI6&a=KE5K8&tp_a=KE5K8&b=3K5TEWLKGWX2ENZ752HDGPFW38YVI6&tp_b=3K5TEWLKGWX2ENZ752HDGPFW38YVI6&c=365198&tp_c=365198"},{"rt":2793,"stimulus":"\n            <h4 style=\"color:Orange;\">Student 9</h4>\n            <h2>The weight of your coin is <b style=\"color:Tomato;\">0.2</b>.</h2>\n            <p>In this block, you will be giving <b>one</b> set of examples to Student 9.</p>\n                <p>You will receive feedback at the end of the block.</p>\n            ","response":0,"trial_type":"html-button-response","trial_index":71,"time_elapsed":781816,"internal_node_id":"0.0-67.0","params":{"nStudents":24,"maxFlips":30,"completionMinutes":45,"basePay":8,"maxBonus":9,"perTrialBonus":0.5,"perTrialBonusThreshold":0.1,"exampleCost":0.01},"classroomParams":{"A":{"a":1,"b":4},"B":{"a":4,"b":1},"C":{"a":2,"b":8},"D":{"a":8,"b":2}},"conditions":["nonSeqFull","nonSeqPartial","seqNoFeedback","seqFeedback"],"classroomPairings":[["A","B"],["C","D"]],"coinWeights":[0.2,0.5,0.8],"subjectId":"ASC9DUCC64M3P","assignmentId":"3K5TEWLKGWX2ENZ752HDGPFW38YVI6","hitId":"3YGE63DIN8J20XK20KS1742RQF60WK","url":"https://gershmanlab.com/experiments/alicia/teaching/experiment/?hitId=3YGE63DIN8J20XK20KS1742RQF60WK&workerId=ASC9DUCC64M3P&assignmentId=3K5TEWLKGWX2ENZ752HDGPFW38YVI6&a=KE5K8&tp_a=KE5K8&b=3K5TEWLKGWX2ENZ752HDGPFW38YVI6&tp_b=3K5TEWLKGWX2ENZ752HDGPFW38YVI6&c=365198&tp_c=365198"},{"rt":7503,"response":{"heads":"5","tails":"5"},"type":"response","condition":"nonSeqPartial","trueTheta":0.2,"classrooms":["C","D"],"studentTrueClassroom":"C","exampleSet":"first","trial_type":"survey-html-form","trial_index":72,"time_elapsed":789319,"internal_node_id":"0.0-68.0-0.0","params":{"nStudents":24,"maxFlips":30,"completionMinutes":45,"basePay":8,"maxBonus":9,"perTrialBonus":0.5,"perTrialBonusThreshold":0.1,"exampleCost":0.01},"classroomParams":{"A":{"a":1,"b":4},"B":{"a":4,"b":1},"C":{"a":2,"b":8},"D":{"a":8,"b":2}},"conditions":["nonSeqFull","nonSeqPartial","seqNoFeedback","seqFeedback"],"classroomPairings":[["A","B"],["C","D"]],"coinWeights":[0.2,0.5,0.8],"subjectId":"ASC9DUCC64M3P","assignmentId":"3K5TEWLKGWX2ENZ752HDGPFW38YVI6","hitId":"3YGE63DIN8J20XK20KS1742RQF60WK","url":"https://gershmanlab.com/experiments/alicia/teaching/experiment/?hitId=3YGE63DIN8J20XK20KS1742RQF60WK&workerId=ASC9DUCC64M3P&assignmentId=3K5TEWLKGWX2ENZ752HDGPFW38YVI6&a=KE5K8&tp_a=KE5K8&b=3K5TEWLKGWX2ENZ752HDGPFW38YVI6&tp_b=3K5TEWLKGWX2ENZ752HDGPFW38YVI6&c=365198&tp_c=365198","heads":5,"tails":5,"studentIndex":8,"studentTrueHypers":{"a":2,"b":8},"studentGuess":0.35,"delta":0.14999999999999997,"totalExamples":10,"bonus":0,"bonusSoFar":0.4},{"rt":null,"stimulus":"Sending examples to student... ","response":null,"trial_type":"html-keyboard-response","trial_index":73,"time_elapsed":791323,"internal_node_id":"0.0-69.0","params":{"nStudents":24,"maxFlips":30,"completionMinutes":45,"basePay":8,"maxBonus":9,"perTrialBonus":0.5,"perTrialBonusThreshold":0.1,"exampleCost":0.01},"classroomParams":{"A":{"a":1,"b":4},"B":{"a":4,"b":1},"C":{"a":2,"b":8},"D":{"a":8,"b":2}},"conditions":["nonSeqFull","nonSeqPartial","seqNoFeedback","seqFeedback"],"classroomPairings":[["A","B"],["C","D"]],"coinWeights":[0.2,0.5,0.8],"subjectId":"ASC9DUCC64M3P","assignmentId":"3K5TEWLKGWX2ENZ752HDGPFW38YVI6","hitId":"3YGE63DIN8J20XK20KS1742RQF60WK","url":"https://gershmanlab.com/experiments/alicia/teaching/experiment/?hitId=3YGE63DIN8J20XK20KS1742RQF60WK&workerId=ASC9DUCC64M3P&assignmentId=3K5TEWLKGWX2ENZ752HDGPFW38YVI6&a=KE5K8&tp_a=KE5K8&b=3K5TEWLKGWX2ENZ752HDGPFW38YVI6&tp_b=3K5TEWLKGWX2ENZ752HDGPFW38YVI6&c=365198&tp_c=365198"},{"rt":null,"stimulus":"Examples sent to student! Waiting for student...","response":null,"trial_type":"html-keyboard-response","trial_index":74,"time_elapsed":796326,"internal_node_id":"0.0-70.0","params":{"nStudents":24,"maxFlips":30,"completionMinutes":45,"basePay":8,"maxBonus":9,"perTrialBonus":0.5,"perTrialBonusThreshold":0.1,"exampleCost":0.01},"classroomParams":{"A":{"a":1,"b":4},"B":{"a":4,"b":1},"C":{"a":2,"b":8},"D":{"a":8,"b":2}},"conditions":["nonSeqFull","nonSeqPartial","seqNoFeedback","seqFeedback"],"classroomPairings":[["A","B"],["C","D"]],"coinWeights":[0.2,0.5,0.8],"subjectId":"ASC9DUCC64M3P","assignmentId":"3K5TEWLKGWX2ENZ752HDGPFW38YVI6","hitId":"3YGE63DIN8J20XK20KS1742RQF60WK","url":"https://gershmanlab.com/experiments/alicia/teaching/experiment/?hitId=3YGE63DIN8J20XK20KS1742RQF60WK&workerId=ASC9DUCC64M3P&assignmentId=3K5TEWLKGWX2ENZ752HDGPFW38YVI6&a=KE5K8&tp_a=KE5K8&b=3K5TEWLKGWX2ENZ752HDGPFW38YVI6&tp_b=3K5TEWLKGWX2ENZ752HDGPFW38YVI6&c=365198&tp_c=365198"},{"rt":2015,"stimulus":"\n                <p>Student's guess for coin weight: <b style=\"color:Tomato;\">0.35</b></p>\n                <p>You received a bonus of <b>$0</b>. Total bonus so far: <b>$0.40</b></b></p>\n                <p> Press any key to continue.</p>\n                ","response":" ","trial_type":"html-keyboard-response","trial_index":75,"time_elapsed":798341,"internal_node_id":"0.0-71.0","params":{"nStudents":24,"maxFlips":30,"completionMinutes":45,"basePay":8,"maxBonus":9,"perTrialBonus":0.5,"perTrialBonusThreshold":0.1,"exampleCost":0.01},"classroomParams":{"A":{"a":1,"b":4},"B":{"a":4,"b":1},"C":{"a":2,"b":8},"D":{"a":8,"b":2}},"conditions":["nonSeqFull","nonSeqPartial","seqNoFeedback","seqFeedback"],"classroomPairings":[["A","B"],["C","D"]],"coinWeights":[0.2,0.5,0.8],"subjectId":"ASC9DUCC64M3P","assignmentId":"3K5TEWLKGWX2ENZ752HDGPFW38YVI6","hitId":"3YGE63DIN8J20XK20KS1742RQF60WK","url":"https://gershmanlab.com/experiments/alicia/teaching/experiment/?hitId=3YGE63DIN8J20XK20KS1742RQF60WK&workerId=ASC9DUCC64M3P&assignmentId=3K5TEWLKGWX2ENZ752HDGPFW38YVI6&a=KE5K8&tp_a=KE5K8&b=3K5TEWLKGWX2ENZ752HDGPFW38YVI6&tp_b=3K5TEWLKGWX2ENZ752HDGPFW38YVI6&c=365198&tp_c=365198"},{"rt":null,"stimulus":"<div style=\"font-size:60px;\">Next student</div>","response":null,"trial_type":"html-keyboard-response","trial_index":76,"time_elapsed":800342,"internal_node_id":"0.0-72.0-0.0","params":{"nStudents":24,"maxFlips":30,"completionMinutes":45,"basePay":8,"maxBonus":9,"perTrialBonus":0.5,"perTrialBonusThreshold":0.1,"exampleCost":0.01},"classroomParams":{"A":{"a":1,"b":4},"B":{"a":4,"b":1},"C":{"a":2,"b":8},"D":{"a":8,"b":2}},"conditions":["nonSeqFull","nonSeqPartial","seqNoFeedback","seqFeedback"],"classroomPairings":[["A","B"],["C","D"]],"coinWeights":[0.2,0.5,0.8],"subjectId":"ASC9DUCC64M3P","assignmentId":"3K5TEWLKGWX2ENZ752HDGPFW38YVI6","hitId":"3YGE63DIN8J20XK20KS1742RQF60WK","url":"https://gershmanlab.com/experiments/alicia/teaching/experiment/?hitId=3YGE63DIN8J20XK20KS1742RQF60WK&workerId=ASC9DUCC64M3P&assignmentId=3K5TEWLKGWX2ENZ752HDGPFW38YVI6&a=KE5K8&tp_a=KE5K8&b=3K5TEWLKGWX2ENZ752HDGPFW38YVI6&tp_b=3K5TEWLKGWX2ENZ752HDGPFW38YVI6&c=365198&tp_c=365198"},{"rt":1082,"stimulus":"\n            <h4 style=\"color:Orange;\">Student 10</h4>\n            <h2>The weight of your coin is <b style=\"color:Tomato;\">0.5</b>.</h2>\n            <p>In this block, you will be giving <b>one</b> set of examples to Student 10.</p>\n                <p>You will receive feedback at the end of the block.</p>\n            ","response":0,"trial_type":"html-button-response","trial_index":77,"time_elapsed":801424,"internal_node_id":"0.0-73.0","params":{"nStudents":24,"maxFlips":30,"completionMinutes":45,"basePay":8,"maxBonus":9,"perTrialBonus":0.5,"perTrialBonusThreshold":0.1,"exampleCost":0.01},"classroomParams":{"A":{"a":1,"b":4},"B":{"a":4,"b":1},"C":{"a":2,"b":8},"D":{"a":8,"b":2}},"conditions":["nonSeqFull","nonSeqPartial","seqNoFeedback","seqFeedback"],"classroomPairings":[["A","B"],["C","D"]],"coinWeights":[0.2,0.5,0.8],"subjectId":"ASC9DUCC64M3P","assignmentId":"3K5TEWLKGWX2ENZ752HDGPFW38YVI6","hitId":"3YGE63DIN8J20XK20KS1742RQF60WK","url":"https://gershmanlab.com/experiments/alicia/teaching/experiment/?hitId=3YGE63DIN8J20XK20KS1742RQF60WK&workerId=ASC9DUCC64M3P&assignmentId=3K5TEWLKGWX2ENZ752HDGPFW38YVI6&a=KE5K8&tp_a=KE5K8&b=3K5TEWLKGWX2ENZ752HDGPFW38YVI6&tp_b=3K5TEWLKGWX2ENZ752HDGPFW38YVI6&c=365198&tp_c=365198"},{"rt":3780,"response":{"heads":"5","tails":"5"},"type":"response","condition":"nonSeqPartial","trueTheta":0.5,"classrooms":["C","D"],"studentTrueClassroom":"D","exampleSet":"first","trial_type":"survey-html-form","trial_index":78,"time_elapsed":805205,"internal_node_id":"0.0-74.0-0.0","params":{"nStudents":24,"maxFlips":30,"completionMinutes":45,"basePay":8,"maxBonus":9,"perTrialBonus":0.5,"perTrialBonusThreshold":0.1,"exampleCost":0.01},"classroomParams":{"A":{"a":1,"b":4},"B":{"a":4,"b":1},"C":{"a":2,"b":8},"D":{"a":8,"b":2}},"conditions":["nonSeqFull","nonSeqPartial","seqNoFeedback","seqFeedback"],"classroomPairings":[["A","B"],["C","D"]],"coinWeights":[0.2,0.5,0.8],"subjectId":"ASC9DUCC64M3P","assignmentId":"3K5TEWLKGWX2ENZ752HDGPFW38YVI6","hitId":"3YGE63DIN8J20XK20KS1742RQF60WK","url":"https://gershmanlab.com/experiments/alicia/teaching/experiment/?hitId=3YGE63DIN8J20XK20KS1742RQF60WK&workerId=ASC9DUCC64M3P&assignmentId=3K5TEWLKGWX2ENZ752HDGPFW38YVI6&a=KE5K8&tp_a=KE5K8&b=3K5TEWLKGWX2ENZ752HDGPFW38YVI6&tp_b=3K5TEWLKGWX2ENZ752HDGPFW38YVI6&c=365198&tp_c=365198","heads":5,"tails":5,"studentIndex":9,"studentTrueHypers":{"a":8,"b":2},"studentGuess":0.65,"delta":0.15000000000000002,"totalExamples":10,"bonus":0,"bonusSoFar":0.4},{"rt":null,"stimulus":"Sending examples to student... ","response":null,"trial_type":"html-keyboard-response","trial_index":79,"time_elapsed":806708,"internal_node_id":"0.0-75.0","params":{"nStudents":24,"maxFlips":30,"completionMinutes":45,"basePay":8,"maxBonus":9,"perTrialBonus":0.5,"perTrialBonusThreshold":0.1,"exampleCost":0.01},"classroomParams":{"A":{"a":1,"b":4},"B":{"a":4,"b":1},"C":{"a":2,"b":8},"D":{"a":8,"b":2}},"conditions":["nonSeqFull","nonSeqPartial","seqNoFeedback","seqFeedback"],"classroomPairings":[["A","B"],["C","D"]],"coinWeights":[0.2,0.5,0.8],"subjectId":"ASC9DUCC64M3P","assignmentId":"3K5TEWLKGWX2ENZ752HDGPFW38YVI6","hitId":"3YGE63DIN8J20XK20KS1742RQF60WK","url":"https://gershmanlab.com/experiments/alicia/teaching/experiment/?hitId=3YGE63DIN8J20XK20KS1742RQF60WK&workerId=ASC9DUCC64M3P&assignmentId=3K5TEWLKGWX2ENZ752HDGPFW38YVI6&a=KE5K8&tp_a=KE5K8&b=3K5TEWLKGWX2ENZ752HDGPFW38YVI6&tp_b=3K5TEWLKGWX2ENZ752HDGPFW38YVI6&c=365198&tp_c=365198"},{"rt":null,"stimulus":"Examples sent to student! Waiting for student...","response":null,"trial_type":"html-keyboard-response","trial_index":80,"time_elapsed":811211,"internal_node_id":"0.0-76.0","params":{"nStudents":24,"maxFlips":30,"completionMinutes":45,"basePay":8,"maxBonus":9,"perTrialBonus":0.5,"perTrialBonusThreshold":0.1,"exampleCost":0.01},"classroomParams":{"A":{"a":1,"b":4},"B":{"a":4,"b":1},"C":{"a":2,"b":8},"D":{"a":8,"b":2}},"conditions":["nonSeqFull","nonSeqPartial","seqNoFeedback","seqFeedback"],"classroomPairings":[["A","B"],["C","D"]],"coinWeights":[0.2,0.5,0.8],"subjectId":"ASC9DUCC64M3P","assignmentId":"3K5TEWLKGWX2ENZ752HDGPFW38YVI6","hitId":"3YGE63DIN8J20XK20KS1742RQF60WK","url":"https://gershmanlab.com/experiments/alicia/teaching/experiment/?hitId=3YGE63DIN8J20XK20KS1742RQF60WK&workerId=ASC9DUCC64M3P&assignmentId=3K5TEWLKGWX2ENZ752HDGPFW38YVI6&a=KE5K8&tp_a=KE5K8&b=3K5TEWLKGWX2ENZ752HDGPFW38YVI6&tp_b=3K5TEWLKGWX2ENZ752HDGPFW38YVI6&c=365198&tp_c=365198"},{"rt":1811,"stimulus":"\n                <p>Student's guess for coin weight: <b style=\"color:Tomato;\">0.65</b></p>\n                <p>You received a bonus of <b>$0</b>. Total bonus so far: <b>$0.40</b></b></p>\n                <p> Press any key to continue.</p>\n                ","response":" ","trial_type":"html-keyboard-response","trial_index":81,"time_elapsed":813023,"internal_node_id":"0.0-77.0","params":{"nStudents":24,"maxFlips":30,"completionMinutes":45,"basePay":8,"maxBonus":9,"perTrialBonus":0.5,"perTrialBonusThreshold":0.1,"exampleCost":0.01},"classroomParams":{"A":{"a":1,"b":4},"B":{"a":4,"b":1},"C":{"a":2,"b":8},"D":{"a":8,"b":2}},"conditions":["nonSeqFull","nonSeqPartial","seqNoFeedback","seqFeedback"],"classroomPairings":[["A","B"],["C","D"]],"coinWeights":[0.2,0.5,0.8],"subjectId":"ASC9DUCC64M3P","assignmentId":"3K5TEWLKGWX2ENZ752HDGPFW38YVI6","hitId":"3YGE63DIN8J20XK20KS1742RQF60WK","url":"https://gershmanlab.com/experiments/alicia/teaching/experiment/?hitId=3YGE63DIN8J20XK20KS1742RQF60WK&workerId=ASC9DUCC64M3P&assignmentId=3K5TEWLKGWX2ENZ752HDGPFW38YVI6&a=KE5K8&tp_a=KE5K8&b=3K5TEWLKGWX2ENZ752HDGPFW38YVI6&tp_b=3K5TEWLKGWX2ENZ752HDGPFW38YVI6&c=365198&tp_c=365198"},{"rt":null,"stimulus":"<div style=\"font-size:60px;\">Next student</div>","response":null,"trial_type":"html-keyboard-response","trial_index":82,"time_elapsed":815024,"internal_node_id":"0.0-78.0-0.0","params":{"nStudents":24,"maxFlips":30,"completionMinutes":45,"basePay":8,"maxBonus":9,"perTrialBonus":0.5,"perTrialBonusThreshold":0.1,"exampleCost":0.01},"classroomParams":{"A":{"a":1,"b":4},"B":{"a":4,"b":1},"C":{"a":2,"b":8},"D":{"a":8,"b":2}},"conditions":["nonSeqFull","nonSeqPartial","seqNoFeedback","seqFeedback"],"classroomPairings":[["A","B"],["C","D"]],"coinWeights":[0.2,0.5,0.8],"subjectId":"ASC9DUCC64M3P","assignmentId":"3K5TEWLKGWX2ENZ752HDGPFW38YVI6","hitId":"3YGE63DIN8J20XK20KS1742RQF60WK","url":"https://gershmanlab.com/experiments/alicia/teaching/experiment/?hitId=3YGE63DIN8J20XK20KS1742RQF60WK&workerId=ASC9DUCC64M3P&assignmentId=3K5TEWLKGWX2ENZ752HDGPFW38YVI6&a=KE5K8&tp_a=KE5K8&b=3K5TEWLKGWX2ENZ752HDGPFW38YVI6&tp_b=3K5TEWLKGWX2ENZ752HDGPFW38YVI6&c=365198&tp_c=365198"},{"rt":1328,"stimulus":"\n            <h4 style=\"color:Orange;\">Student 11</h4>\n            <h2>The weight of your coin is <b style=\"color:Tomato;\">0.2</b>.</h2>\n            <p>In this block, you will be giving <b>two</b> sets of examples to Student 11.</p>\n                <p>You will receive feedback at the end of the block.</p>\n            ","response":0,"trial_type":"html-button-response","trial_index":83,"time_elapsed":816353,"internal_node_id":"0.0-79.0","params":{"nStudents":24,"maxFlips":30,"completionMinutes":45,"basePay":8,"maxBonus":9,"perTrialBonus":0.5,"perTrialBonusThreshold":0.1,"exampleCost":0.01},"classroomParams":{"A":{"a":1,"b":4},"B":{"a":4,"b":1},"C":{"a":2,"b":8},"D":{"a":8,"b":2}},"conditions":["nonSeqFull","nonSeqPartial","seqNoFeedback","seqFeedback"],"classroomPairings":[["A","B"],["C","D"]],"coinWeights":[0.2,0.5,0.8],"subjectId":"ASC9DUCC64M3P","assignmentId":"3K5TEWLKGWX2ENZ752HDGPFW38YVI6","hitId":"3YGE63DIN8J20XK20KS1742RQF60WK","url":"https://gershmanlab.com/experiments/alicia/teaching/experiment/?hitId=3YGE63DIN8J20XK20KS1742RQF60WK&workerId=ASC9DUCC64M3P&assignmentId=3K5TEWLKGWX2ENZ752HDGPFW38YVI6&a=KE5K8&tp_a=KE5K8&b=3K5TEWLKGWX2ENZ752HDGPFW38YVI6&tp_b=3K5TEWLKGWX2ENZ752HDGPFW38YVI6&c=365198&tp_c=365198"},{"rt":3893,"response":{"heads":"0","tails":"10"},"type":"response","condition":"seqNoFeedback","trueTheta":0.2,"classrooms":["C","D"],"studentTrueClassroom":"D","exampleSet":"first","trial_type":"survey-html-form","trial_index":84,"time_elapsed":820247,"internal_node_id":"0.0-80.0-0.0","params":{"nStudents":24,"maxFlips":30,"completionMinutes":45,"basePay":8,"maxBonus":9,"perTrialBonus":0.5,"perTrialBonusThreshold":0.1,"exampleCost":0.01},"classroomParams":{"A":{"a":1,"b":4},"B":{"a":4,"b":1},"C":{"a":2,"b":8},"D":{"a":8,"b":2}},"conditions":["nonSeqFull","nonSeqPartial","seqNoFeedback","seqFeedback"],"classroomPairings":[["A","B"],["C","D"]],"coinWeights":[0.2,0.5,0.8],"subjectId":"ASC9DUCC64M3P","assignmentId":"3K5TEWLKGWX2ENZ752HDGPFW38YVI6","hitId":"3YGE63DIN8J20XK20KS1742RQF60WK","url":"https://gershmanlab.com/experiments/alicia/teaching/experiment/?hitId=3YGE63DIN8J20XK20KS1742RQF60WK&workerId=ASC9DUCC64M3P&assignmentId=3K5TEWLKGWX2ENZ752HDGPFW38YVI6&a=KE5K8&tp_a=KE5K8&b=3K5TEWLKGWX2ENZ752HDGPFW38YVI6&tp_b=3K5TEWLKGWX2ENZ752HDGPFW38YVI6&c=365198&tp_c=365198","heads":0,"tails":10,"studentIndex":10,"studentTrueHypers":{"a":8,"b":2},"studentGuess":0.4,"delta":0.2,"totalExamples":10,"bonusSoFar":0.4},{"rt":null,"stimulus":"Sending examples to student... ","response":null,"trial_type":"html-keyboard-response","trial_index":85,"time_elapsed":821998,"internal_node_id":"0.0-81.0","params":{"nStudents":24,"maxFlips":30,"completionMinutes":45,"basePay":8,"maxBonus":9,"perTrialBonus":0.5,"perTrialBonusThreshold":0.1,"exampleCost":0.01},"classroomParams":{"A":{"a":1,"b":4},"B":{"a":4,"b":1},"C":{"a":2,"b":8},"D":{"a":8,"b":2}},"conditions":["nonSeqFull","nonSeqPartial","seqNoFeedback","seqFeedback"],"classroomPairings":[["A","B"],["C","D"]],"coinWeights":[0.2,0.5,0.8],"subjectId":"ASC9DUCC64M3P","assignmentId":"3K5TEWLKGWX2ENZ752HDGPFW38YVI6","hitId":"3YGE63DIN8J20XK20KS1742RQF60WK","url":"https://gershmanlab.com/experiments/alicia/teaching/experiment/?hitId=3YGE63DIN8J20XK20KS1742RQF60WK&workerId=ASC9DUCC64M3P&assignmentId=3K5TEWLKGWX2ENZ752HDGPFW38YVI6&a=KE5K8&tp_a=KE5K8&b=3K5TEWLKGWX2ENZ752HDGPFW38YVI6&tp_b=3K5TEWLKGWX2ENZ752HDGPFW38YVI6&c=365198&tp_c=365198"},{"rt":null,"stimulus":"Examples sent to student! Waiting for student...","response":null,"trial_type":"html-keyboard-response","trial_index":86,"time_elapsed":828000,"internal_node_id":"0.0-82.0","params":{"nStudents":24,"maxFlips":30,"completionMinutes":45,"basePay":8,"maxBonus":9,"perTrialBonus":0.5,"perTrialBonusThreshold":0.1,"exampleCost":0.01},"classroomParams":{"A":{"a":1,"b":4},"B":{"a":4,"b":1},"C":{"a":2,"b":8},"D":{"a":8,"b":2}},"conditions":["nonSeqFull","nonSeqPartial","seqNoFeedback","seqFeedback"],"classroomPairings":[["A","B"],["C","D"]],"coinWeights":[0.2,0.5,0.8],"subjectId":"ASC9DUCC64M3P","assignmentId":"3K5TEWLKGWX2ENZ752HDGPFW38YVI6","hitId":"3YGE63DIN8J20XK20KS1742RQF60WK","url":"https://gershmanlab.com/experiments/alicia/teaching/exp