[{"rt":2436,"stimulus":"Welcome to the experiment. Press any key to begin.","response":" ","trial_type":"html-keyboard-response","trial_index":0,"time_elapsed":2446,"internal_node_id":"0.0-0.0","params":{"nStudents":24,"maxFlips":30,"completionMinutes":45,"basePay":8,"maxBonus":9,"perTrialBonus":0.5,"perTrialBonusThreshold":0.1,"exampleCost":0.01},"classroomParams":{"A":{"a":1,"b":4},"B":{"a":4,"b":1},"C":{"a":2,"b":8},"D":{"a":8,"b":2}},"conditions":["nonSeqFull","nonSeqPartial","seqNoFeedback","seqFeedback"],"classroomPairings":[["A","B"],["C","D"]],"coinWeights":[0.2,0.5,0.8],"subjectId":"AZNIEFUIVB2H0","assignmentId":"33FOTY3KEN7VF8X96E12YYAL1Z8C1X","hitId":"3QGHA0EA0JM3KKNCY0PQRLYAHJ3BWH","url":"https://gershmanlab.com/experiments/alicia/teaching/experiment/?hitId=3QGHA0EA0JM3KKNCY0PQRLYAHJ3BWH&workerId=AZNIEFUIVB2H0&assignmentId=33FOTY3KEN7VF8X96E12YYAL1Z8C1X&a=KTF38&tp_a=KTF38&b=33FOTY3KEN7VF8X96E12YYAL1Z8C1X&tp_b=33FOTY3KEN7VF8X96E12YYAL1Z8C1X&c=365198&tp_c=365198"},{"rt":6938,"stimulus":"\n        <h3>Please read this consent agreement carefully before deciding whether to participate in this experiment.</h3>\n        <p><b>Purpose of the research:</b> To examine how people teach effectively.</p>\n        <p><b>What you will do in this research:</b> You will teach students the weights of different coins.</p>\n        <p><b>Time required:</b> This experiment will take 45 minutes to complete.</p>\n        <p><b>Risks:</b> There are no anticipated risks associated with participating in this study.             The effects of participating should be comparable to those you would experience from viewing a computer monitor             and using a mouse and keyboard for the duration of the experiment.</p>\n        <p><b>Benefits:</b> The study provides important information about the nature of teaching.</p>\n        <p><b>Compensation:</b> You will receive <b>$8</b> for completing the experiment and a performance bonus of up to <b>$9</b>.</p>\n        <p><b>Confidentiality:</b> Your participation in this study will remain confidential.             No personally identifiable information will be associated with your data.             Your de-identified data may be shared with other researchers and used in future projects.</p>\n        <p><b>Participation and withdrawal:</b> Your participation in this study is completely voluntary and             you may refuse to participate or you may choose to withdraw at any time without penalty or loss of\n            benefits to which you are otherwise entitled.</p>\n        <p><b>How to contact the researcher:</b> If you have questions or concerns about your participation            or payment, or want to request a summary of research findings, please contact\n            Alicia Chen, aliciachen@college.harvard.edu.</p>\n        <p><b>Whom to contact about your rights in this research:</b> For questions, concerns, suggestions,             or complaints that have not been or cannot be addressed by the researcher, or to report             research-related harm, please contact the Committee on the Use of Human Subjects in Research at Harvard University,             1414 Massachusetts Avenue, Second Floor, Cambridge, MA 02138. Phone: 617-496-2847. Email: cuhs@fas.harvard.edu.</p>\n        ","response":0,"trial_type":"html-button-response","trial_index":1,"time_elapsed":9388,"internal_node_id":"0.0-1.0","params":{"nStudents":24,"maxFlips":30,"completionMinutes":45,"basePay":8,"maxBonus":9,"perTrialBonus":0.5,"perTrialBonusThreshold":0.1,"exampleCost":0.01},"classroomParams":{"A":{"a":1,"b":4},"B":{"a":4,"b":1},"C":{"a":2,"b":8},"D":{"a":8,"b":2}},"conditions":["nonSeqFull","nonSeqPartial","seqNoFeedback","seqFeedback"],"classroomPairings":[["A","B"],["C","D"]],"coinWeights":[0.2,0.5,0.8],"subjectId":"AZNIEFUIVB2H0","assignmentId":"33FOTY3KEN7VF8X96E12YYAL1Z8C1X","hitId":"3QGHA0EA0JM3KKNCY0PQRLYAHJ3BWH","url":"https://gershmanlab.com/experiments/alicia/teaching/experiment/?hitId=3QGHA0EA0JM3KKNCY0PQRLYAHJ3BWH&workerId=AZNIEFUIVB2H0&assignmentId=33FOTY3KEN7VF8X96E12YYAL1Z8C1X&a=KTF38&tp_a=KTF38&b=33FOTY3KEN7VF8X96E12YYAL1Z8C1X&tp_b=33FOTY3KEN7VF8X96E12YYAL1Z8C1X&c=365198&tp_c=365198"},{"view_history":[{"page_index":0,"viewing_time":5584},{"page_index":1,"viewing_time":5542},{"page_index":2,"viewing_time":58828},{"page_index":3,"viewing_time":23845},{"page_index":4,"viewing_time":17115},{"page_index":5,"viewing_time":72709},{"page_index":6,"viewing_time":35682}],"rt":219305,"trial_type":"instructions","trial_index":2,"time_elapsed":228695,"internal_node_id":"0.0-2.0-0.0","params":{"nStudents":24,"maxFlips":30,"completionMinutes":45,"basePay":8,"maxBonus":9,"perTrialBonus":0.5,"perTrialBonusThreshold":0.1,"exampleCost":0.01},"classroomParams":{"A":{"a":1,"b":4},"B":{"a":4,"b":1},"C":{"a":2,"b":8},"D":{"a":8,"b":2}},"conditions":["nonSeqFull","nonSeqPartial","seqNoFeedback","seqFeedback"],"classroomPairings":[["A","B"],["C","D"]],"coinWeights":[0.2,0.5,0.8],"subjectId":"AZNIEFUIVB2H0","assignmentId":"33FOTY3KEN7VF8X96E12YYAL1Z8C1X","hitId":"3QGHA0EA0JM3KKNCY0PQRLYAHJ3BWH","url":"https://gershmanlab.com/experiments/alicia/teaching/experiment/?hitId=3QGHA0EA0JM3KKNCY0PQRLYAHJ3BWH&workerId=AZNIEFUIVB2H0&assignmentId=33FOTY3KEN7VF8X96E12YYAL1Z8C1X&a=KTF38&tp_a=KTF38&b=33FOTY3KEN7VF8X96E12YYAL1Z8C1X&tp_b=33FOTY3KEN7VF8X96E12YYAL1Z8C1X&c=365198&tp_c=365198"},{"rt":132130,"response":{"Q0":"Students in different classrooms will have seen a different number of heads and tails before seeing the examples you select for them.","Q1":"By teaching efficiently and accurately/helpfully at the same time (because each example I give to the student costs money!).","Q2":"The coin lands heads 90% of the time.","Q3":"Yes, I might encounter the same student twice.","Q4":"The students are also on the same alien planet as you, where coins can be unfair.","Q5":"Based on the student's second (and final) guess."},"question_order":[2,0,1,5,3,4],"trial_type":"survey-multi-choice","trial_index":3,"time_elapsed":360828,"internal_node_id":"0.0-2.0-1.0","params":{"nStudents":24,"maxFlips":30,"completionMinutes":45,"basePay":8,"maxBonus":9,"perTrialBonus":0.5,"perTrialBonusThreshold":0.1,"exampleCost":0.01},"classroomParams":{"A":{"a":1,"b":4},"B":{"a":4,"b":1},"C":{"a":2,"b":8},"D":{"a":8,"b":2}},"conditions":["nonSeqFull","nonSeqPartial","seqNoFeedback","seqFeedback"],"classroomPairings":[["A","B"],["C","D"]],"coinWeights":[0.2,0.5,0.8],"subjectId":"AZNIEFUIVB2H0","assignmentId":"33FOTY3KEN7VF8X96E12YYAL1Z8C1X","hitId":"3QGHA0EA0JM3KKNCY0PQRLYAHJ3BWH","url":"https://gershmanlab.com/experiments/alicia/teaching/experiment/?hitId=3QGHA0EA0JM3KKNCY0PQRLYAHJ3BWH&workerId=AZNIEFUIVB2H0&assignmentId=33FOTY3KEN7VF8X96E12YYAL1Z8C1X&a=KTF38&tp_a=KTF38&b=33FOTY3KEN7VF8X96E12YYAL1Z8C1X&tp_b=33FOTY3KEN7VF8X96E12YYAL1Z8C1X&c=365198&tp_c=365198","pass":false},{"rt":2252,"stimulus":"Oops, you have missed question(s) on the comprehension check! We'll show you the instructions again.","response":0,"trial_type":"html-button-response","trial_index":4,"time_elapsed":363083,"internal_node_id":"0.0-2.0-2.0-0.0","params":{"nStudents":24,"maxFlips":30,"completionMinutes":45,"basePay":8,"maxBonus":9,"perTrialBonus":0.5,"perTrialBonusThreshold":0.1,"exampleCost":0.01},"classroomParams":{"A":{"a":1,"b":4},"B":{"a":4,"b":1},"C":{"a":2,"b":8},"D":{"a":8,"b":2}},"conditions":["nonSeqFull","nonSeqPartial","seqNoFeedback","seqFeedback"],"classroomPairings":[["A","B"],["C","D"]],"coinWeights":[0.2,0.5,0.8],"subjectId":"AZNIEFUIVB2H0","assignmentId":"33FOTY3KEN7VF8X96E12YYAL1Z8C1X","hitId":"3QGHA0EA0JM3KKNCY0PQRLYAHJ3BWH","url":"https://gershmanlab.com/experiments/alicia/teaching/experiment/?hitId=3QGHA0EA0JM3KKNCY0PQRLYAHJ3BWH&workerId=AZNIEFUIVB2H0&assignmentId=33FOTY3KEN7VF8X96E12YYAL1Z8C1X&a=KTF38&tp_a=KTF38&b=33FOTY3KEN7VF8X96E12YYAL1Z8C1X&tp_b=33FOTY3KEN7VF8X96E12YYAL1Z8C1X&c=365198&tp_c=365198"},{"view_history":[{"page_index":0,"viewing_time":1517},{"page_index":1,"viewing_time":1933},{"page_index":2,"viewing_time":12217},{"page_index":3,"viewing_time":902},{"page_index":4,"viewing_time":6599},{"page_index":5,"viewing_time":12042},{"page_index":6,"viewing_time":2630}],"rt":37840,"trial_type":"instructions","trial_index":5,"time_elapsed":400925,"internal_node_id":"0.0-2.1-0.1","params":{"nStudents":24,"maxFlips":30,"completionMinutes":45,"basePay":8,"maxBonus":9,"perTrialBonus":0.5,"perTrialBonusThreshold":0.1,"exampleCost":0.01},"classroomParams":{"A":{"a":1,"b":4},"B":{"a":4,"b":1},"C":{"a":2,"b":8},"D":{"a":8,"b":2}},"conditions":["nonSeqFull","nonSeqPartial","seqNoFeedback","seqFeedback"],"classroomPairings":[["A","B"],["C","D"]],"coinWeights":[0.2,0.5,0.8],"subjectId":"AZNIEFUIVB2H0","assignmentId":"33FOTY3KEN7VF8X96E12YYAL1Z8C1X","hitId":"3QGHA0EA0JM3KKNCY0PQRLYAHJ3BWH","url":"https://gershmanlab.com/experiments/alicia/teaching/experiment/?hitId=3QGHA0EA0JM3KKNCY0PQRLYAHJ3BWH&workerId=AZNIEFUIVB2H0&assignmentId=33FOTY3KEN7VF8X96E12YYAL1Z8C1X&a=KTF38&tp_a=KTF38&b=33FOTY3KEN7VF8X96E12YYAL1Z8C1X&tp_b=33FOTY3KEN7VF8X96E12YYAL1Z8C1X&c=365198&tp_c=365198"},{"rt":103114,"response":{"Q0":"Students in different classrooms have seen a different proportion of fair and unfair coins before seeing the examples you select for them.","Q1":"By teaching efficiently and accurately/helpfully at the same time (because each example I give to the student costs money!).","Q2":"The coin lands heads 90% of the time.","Q3":"No, I will teach a <b>new</b> student each time.","Q4":"The students are also on the same alien planet as you, where coins can be unfair.","Q5":"Based on the student's second (and final) guess."},"question_order":[0,2,3,5,1,4],"trial_type":"survey-multi-choice","trial_index":6,"time_elapsed":504041,"internal_node_id":"0.0-2.1-1.1","params":{"nStudents":24,"maxFlips":30,"completionMinutes":45,"basePay":8,"maxBonus":9,"perTrialBonus":0.5,"perTrialBonusThreshold":0.1,"exampleCost":0.01},"classroomParams":{"A":{"a":1,"b":4},"B":{"a":4,"b":1},"C":{"a":2,"b":8},"D":{"a":8,"b":2}},"conditions":["nonSeqFull","nonSeqPartial","seqNoFeedback","seqFeedback"],"classroomPairings":[["A","B"],["C","D"]],"coinWeights":[0.2,0.5,0.8],"subjectId":"AZNIEFUIVB2H0","assignmentId":"33FOTY3KEN7VF8X96E12YYAL1Z8C1X","hitId":"3QGHA0EA0JM3KKNCY0PQRLYAHJ3BWH","url":"https://gershmanlab.com/experiments/alicia/teaching/experiment/?hitId=3QGHA0EA0JM3KKNCY0PQRLYAHJ3BWH&workerId=AZNIEFUIVB2H0&assignmentId=33FOTY3KEN7VF8X96E12YYAL1Z8C1X&a=KTF38&tp_a=KTF38&b=33FOTY3KEN7VF8X96E12YYAL1Z8C1X&tp_b=33FOTY3KEN7VF8X96E12YYAL1Z8C1X&c=365198&tp_c=365198","pass":false},{"rt":2489,"stimulus":"Oops, you have missed question(s) on the comprehension check! We'll show you the instructions again.","response":0,"trial_type":"html-button-response","trial_index":7,"time_elapsed":506531,"internal_node_id":"0.0-2.1-2.1-0.1","params":{"nStudents":24,"maxFlips":30,"completionMinutes":45,"basePay":8,"maxBonus":9,"perTrialBonus":0.5,"perTrialBonusThreshold":0.1,"exampleCost":0.01},"classroomParams":{"A":{"a":1,"b":4},"B":{"a":4,"b":1},"C":{"a":2,"b":8},"D":{"a":8,"b":2}},"conditions":["nonSeqFull","nonSeqPartial","seqNoFeedback","seqFeedback"],"classroomPairings":[["A","B"],["C","D"]],"coinWeights":[0.2,0.5,0.8],"subjectId":"AZNIEFUIVB2H0","assignmentId":"33FOTY3KEN7VF8X96E12YYAL1Z8C1X","hitId":"3QGHA0EA0JM3KKNCY0PQRLYAHJ3BWH","url":"https://gershmanlab.com/experiments/alicia/teaching/experiment/?hitId=3QGHA0EA0JM3KKNCY0PQRLYAHJ3BWH&workerId=AZNIEFUIVB2H0&assignmentId=33FOTY3KEN7VF8X96E12YYAL1Z8C1X&a=KTF38&tp_a=KTF38&b=33FOTY3KEN7VF8X96E12YYAL1Z8C1X&tp_b=33FOTY3KEN7VF8X96E12YYAL1Z8C1X&c=365198&tp_c=365198"},{"view_history":[{"page_index":0,"viewing_time":1911},{"page_index":1,"viewing_time":2256},{"page_index":2,"viewing_time":2888},{"page_index":3,"viewing_time":800},{"page_index":4,"viewing_time":1034},{"page_index":5,"viewing_time":1072},{"page_index":6,"viewing_time":4549}],"rt":14510,"trial_type":"instructions","trial_index":8,"time_elapsed":521043,"internal_node_id":"0.0-2.2-0.2","params":{"nStudents":24,"maxFlips":30,"completionMinutes":45,"basePay":8,"maxBonus":9,"perTrialBonus":0.5,"perTrialBonusThreshold":0.1,"exampleCost":0.01},"classroomParams":{"A":{"a":1,"b":4},"B":{"a":4,"b":1},"C":{"a":2,"b":8},"D":{"a":8,"b":2}},"conditions":["nonSeqFull","nonSeqPartial","seqNoFeedback","seqFeedback"],"classroomPairings":[["A","B"],["C","D"]],"coinWeights":[0.2,0.5,0.8],"subjectId":"AZNIEFUIVB2H0","assignmentId":"33FOTY3KEN7VF8X96E12YYAL1Z8C1X","hitId":"3QGHA0EA0JM3KKNCY0PQRLYAHJ3BWH","url":"https://gershmanlab.com/experiments/alicia/teaching/experiment/?hitId=3QGHA0EA0JM3KKNCY0PQRLYAHJ3BWH&workerId=AZNIEFUIVB2H0&assignmentId=33FOTY3KEN7VF8X96E12YYAL1Z8C1X&a=KTF38&tp_a=KTF38&b=33FOTY3KEN7VF8X96E12YYAL1Z8C1X&tp_b=33FOTY3KEN7VF8X96E12YYAL1Z8C1X&c=365198&tp_c=365198"},{"rt":35346,"response":{"Q0":"Students in different classrooms will have seen a different number of heads and tails before seeing the examples you select for them.","Q1":"By teaching efficiently and accurately/helpfully at the same time (because each example I give to the student costs money!).","Q2":"The coin lands heads 90% of the time.","Q3":"Yes, I might encounter the same student twice.","Q4":"The students are also on the same alien planet as you, where coins can be unfair.","Q5":"Based on the student's second (and final) guess."},"question_order":[3,1,5,2,0,4],"trial_type":"survey-multi-choice","trial_index":9,"time_elapsed":556391,"internal_node_id":"0.0-2.2-1.2","params":{"nStudents":24,"maxFlips":30,"completionMinutes":45,"basePay":8,"maxBonus":9,"perTrialBonus":0.5,"perTrialBonusThreshold":0.1,"exampleCost":0.01},"classroomParams":{"A":{"a":1,"b":4},"B":{"a":4,"b":1},"C":{"a":2,"b":8},"D":{"a":8,"b":2}},"conditions":["nonSeqFull","nonSeqPartial","seqNoFeedback","seqFeedback"],"classroomPairings":[["A","B"],["C","D"]],"coinWeights":[0.2,0.5,0.8],"subjectId":"AZNIEFUIVB2H0","assignmentId":"33FOTY3KEN7VF8X96E12YYAL1Z8C1X","hitId":"3QGHA0EA0JM3KKNCY0PQRLYAHJ3BWH","url":"https://gershmanlab.com/experiments/alicia/teaching/experiment/?hitId=3QGHA0EA0JM3KKNCY0PQRLYAHJ3BWH&workerId=AZNIEFUIVB2H0&assignmentId=33FOTY3KEN7VF8X96E12YYAL1Z8C1X&a=KTF38&tp_a=KTF38&b=33FOTY3KEN7VF8X96E12YYAL1Z8C1X&tp_b=33FOTY3KEN7VF8X96E12YYAL1Z8C1X&c=365198&tp_c=365198","pass":false},{"rt":1627,"stimulus":"Oops, you have missed question(s) on the comprehension check! We'll show you the instructions again.","response":0,"trial_type":"html-button-response","trial_index":10,"time_elapsed":558019,"internal_node_id":"0.0-2.2-2.2-0.2","params":{"nStudents":24,"maxFlips":30,"completionMinutes":45,"basePay":8,"maxBonus":9,"perTrialBonus":0.5,"perTrialBonusThreshold":0.1,"exampleCost":0.01},"classroomParams":{"A":{"a":1,"b":4},"B":{"a":4,"b":1},"C":{"a":2,"b":8},"D":{"a":8,"b":2}},"conditions":["nonSeqFull","nonSeqPartial","seqNoFeedback","seqFeedback"],"classroomPairings":[["A","B"],["C","D"]],"coinWeights":[0.2,0.5,0.8],"subjectId":"AZNIEFUIVB2H0","assignmentId":"33FOTY3KEN7VF8X96E12YYAL1Z8C1X","hitId":"3QGHA0EA0JM3KKNCY0PQRLYAHJ3BWH","url":"https://gershmanlab.com/experiments/alicia/teaching/experiment/?hitId=3QGHA0EA0JM3KKNCY0PQRLYAHJ3BWH&workerId=AZNIEFUIVB2H0&assignmentId=33FOTY3KEN7VF8X96E12YYAL1Z8C1X&a=KTF38&tp_a=KTF38&b=33FOTY3KEN7VF8X96E12YYAL1Z8C1X&tp_b=33FOTY3KEN7VF8X96E12YYAL1Z8C1X&c=365198&tp_c=365198"},{"view_history":[{"page_index":0,"viewing_time":5930},{"page_index":1,"viewing_time":2266},{"page_index":2,"viewing_time":6594},{"page_index":3,"viewing_time":5078},{"page_index":4,"viewing_time":13030},{"page_index":5,"viewing_time":16426},{"page_index":6,"viewing_time":14923}],"rt":64247,"trial_type":"instructions","trial_index":11,"time_elapsed":622267,"internal_node_id":"0.0-2.3-0.3","params":{"nStudents":24,"maxFlips":30,"completionMinutes":45,"basePay":8,"maxBonus":9,"perTrialBonus":0.5,"perTrialBonusThreshold":0.1,"exampleCost":0.01},"classroomParams":{"A":{"a":1,"b":4},"B":{"a":4,"b":1},"C":{"a":2,"b":8},"D":{"a":8,"b":2}},"conditions":["nonSeqFull","nonSeqPartial","seqNoFeedback","seqFeedback"],"classroomPairings":[["A","B"],["C","D"]],"coinWeights":[0.2,0.5,0.8],"subjectId":"AZNIEFUIVB2H0","assignmentId":"33FOTY3KEN7VF8X96E12YYAL1Z8C1X","hitId":"3QGHA0EA0JM3KKNCY0PQRLYAHJ3BWH","url":"https://gershmanlab.com/experiments/alicia/teaching/experiment/?hitId=3QGHA0EA0JM3KKNCY0PQRLYAHJ3BWH&workerId=AZNIEFUIVB2H0&assignmentId=33FOTY3KEN7VF8X96E12YYAL1Z8C1X&a=KTF38&tp_a=KTF38&b=33FOTY3KEN7VF8X96E12YYAL1Z8C1X&tp_b=33FOTY3KEN7VF8X96E12YYAL1Z8C1X&c=365198&tp_c=365198"},{"rt":38141,"response":{"Q0":"Students in different classrooms will have seen a different number of heads and tails before seeing the examples you select for them.","Q1":"By teaching efficiently and accurately/helpfully at the same time (because each example I give to the student costs money!).","Q2":"The coin lands heads 90% of the time.","Q3":"No, I will teach a <b>new</b> student each time.","Q4":"The students are also on the same alien planet as you, where coins can be unfair.","Q5":"Based on the student's second (and final) guess."},"question_order":[3,0,2,1,4,5],"trial_type":"survey-multi-choice","trial_index":12,"time_elapsed":660410,"internal_node_id":"0.0-2.3-1.3","params":{"nStudents":24,"maxFlips":30,"completionMinutes":45,"basePay":8,"maxBonus":9,"perTrialBonus":0.5,"perTrialBonusThreshold":0.1,"exampleCost":0.01},"classroomParams":{"A":{"a":1,"b":4},"B":{"a":4,"b":1},"C":{"a":2,"b":8},"D":{"a":8,"b":2}},"conditions":["nonSeqFull","nonSeqPartial","seqNoFeedback","seqFeedback"],"classroomPairings":[["A","B"],["C","D"]],"coinWeights":[0.2,0.5,0.8],"subjectId":"AZNIEFUIVB2H0","assignmentId":"33FOTY3KEN7VF8X96E12YYAL1Z8C1X","hitId":"3QGHA0EA0JM3KKNCY0PQRLYAHJ3BWH","url":"https://gershmanlab.com/experiments/alicia/teaching/experiment/?hitId=3QGHA0EA0JM3KKNCY0PQRLYAHJ3BWH&workerId=AZNIEFUIVB2H0&assignmentId=33FOTY3KEN7VF8X96E12YYAL1Z8C1X&a=KTF38&tp_a=KTF38&b=33FOTY3KEN7VF8X96E12YYAL1Z8C1X&tp_b=33FOTY3KEN7VF8X96E12YYAL1Z8C1X&c=365198&tp_c=365198","pass":true},{"rt":null,"stimulus":"<div style=\"font-size:30px;\">Congrats on passing the comprehension quiz! The experiment will begin in a few seconds.</div>","response":null,"trial_type":"html-keyboard-response","trial_index":13,"time_elapsed":663424,"internal_node_id":"0.0-3.0","params":{"nStudents":24,"maxFlips":30,"completionMinutes":45,"basePay":8,"maxBonus":9,"perTrialBonus":0.5,"perTrialBonusThreshold":0.1,"exampleCost":0.01},"classroomParams":{"A":{"a":1,"b":4},"B":{"a":4,"b":1},"C":{"a":2,"b":8},"D":{"a":8,"b":2}},"conditions":["nonSeqFull","nonSeqPartial","seqNoFeedback","seqFeedback"],"classroomPairings":[["A","B"],["C","D"]],"coinWeights":[0.2,0.5,0.8],"subjectId":"AZNIEFUIVB2H0","assignmentId":"33FOTY3KEN7VF8X96E12YYAL1Z8C1X","hitId":"3QGHA0EA0JM3KKNCY0PQRLYAHJ3BWH","url":"https://gershmanlab.com/experiments/alicia/teaching/experiment/?hitId=3QGHA0EA0JM3KKNCY0PQRLYAHJ3BWH&workerId=AZNIEFUIVB2H0&assignmentId=33FOTY3KEN7VF8X96E12YYAL1Z8C1X&a=KTF38&tp_a=KTF38&b=33FOTY3KEN7VF8X96E12YYAL1Z8C1X&tp_b=33FOTY3KEN7VF8X96E12YYAL1Z8C1X&c=365198&tp_c=365198"},{"rt":null,"stimulus":"<div style=\"font-size:50px;\">First student</div>","response":null,"trial_type":"html-keyboard-response","trial_index":14,"time_elapsed":666437,"internal_node_id":"0.0-4.0","params":{"nStudents":24,"maxFlips":30,"completionMinutes":45,"basePay":8,"maxBonus":9,"perTrialBonus":0.5,"perTrialBonusThreshold":0.1,"exampleCost":0.01},"classroomParams":{"A":{"a":1,"b":4},"B":{"a":4,"b":1},"C":{"a":2,"b":8},"D":{"a":8,"b":2}},"conditions":["nonSeqFull","nonSeqPartial","seqNoFeedback","seqFeedback"],"classroomPairings":[["A","B"],["C","D"]],"coinWeights":[0.2,0.5,0.8],"subjectId":"AZNIEFUIVB2H0","assignmentId":"33FOTY3KEN7VF8X96E12YYAL1Z8C1X","hitId":"3QGHA0EA0JM3KKNCY0PQRLYAHJ3BWH","url":"https://gershmanlab.com/experiments/alicia/teaching/experiment/?hitId=3QGHA0EA0JM3KKNCY0PQRLYAHJ3BWH&workerId=AZNIEFUIVB2H0&assignmentId=33FOTY3KEN7VF8X96E12YYAL1Z8C1X&a=KTF38&tp_a=KTF38&b=33FOTY3KEN7VF8X96E12YYAL1Z8C1X&tp_b=33FOTY3KEN7VF8X96E12YYAL1Z8C1X&c=365198&tp_c=365198"},{"rt":8059,"stimulus":"\n            <h4 style=\"color:Orange;\">Student 1</h4>\n            <h2>The weight of your coin is <b style=\"color:Tomato;\">0.5</b>.</h2>\n            <p>In this block, you will be giving <b>two</b> sets of examples to Student 1.</p>\n                <p>You will see the student's guess after the first set of examples. You will also receive feedback at the end of the block.</p>\n            ","response":0,"trial_type":"html-button-response","trial_index":15,"time_elapsed":674497,"internal_node_id":"0.0-5.0","params":{"nStudents":24,"maxFlips":30,"completionMinutes":45,"basePay":8,"maxBonus":9,"perTrialBonus":0.5,"perTrialBonusThreshold":0.1,"exampleCost":0.01},"classroomParams":{"A":{"a":1,"b":4},"B":{"a":4,"b":1},"C":{"a":2,"b":8},"D":{"a":8,"b":2}},"conditions":["nonSeqFull","nonSeqPartial","seqNoFeedback","seqFeedback"],"classroomPairings":[["A","B"],["C","D"]],"coinWeights":[0.2,0.5,0.8],"subjectId":"AZNIEFUIVB2H0","assignmentId":"33FOTY3KEN7VF8X96E12YYAL1Z8C1X","hitId":"3QGHA0EA0JM3KKNCY0PQRLYAHJ3BWH","url":"https://gershmanlab.com/experiments/alicia/teaching/experiment/?hitId=3QGHA0EA0JM3KKNCY0PQRLYAHJ3BWH&workerId=AZNIEFUIVB2H0&assignmentId=33FOTY3KEN7VF8X96E12YYAL1Z8C1X&a=KTF38&tp_a=KTF38&b=33FOTY3KEN7VF8X96E12YYAL1Z8C1X&tp_b=33FOTY3KEN7VF8X96E12YYAL1Z8C1X&c=365198&tp_c=365198"},{"rt":49599,"response":{"heads":"6","tails":"6"},"type":"response","condition":"seqFeedback","trueTheta":0.5,"classrooms":["C","D"],"studentTrueClassroom":"C","exampleSet":"first","trial_type":"survey-html-form","trial_index":16,"time_elapsed":724103,"internal_node_id":"0.0-6.0-0.0","params":{"nStudents":24,"maxFlips":30,"completionMinutes":45,"basePay":8,"maxBonus":9,"perTrialBonus":0.5,"perTrialBonusThreshold":0.1,"exampleCost":0.01},"classroomParams":{"A":{"a":1,"b":4},"B":{"a":4,"b":1},"C":{"a":2,"b":8},"D":{"a":8,"b":2}},"conditions":["nonSeqFull","nonSeqPartial","seqNoFeedback","seqFeedback"],"classroomPairings":[["A","B"],["C","D"]],"coinWeights":[0.2,0.5,0.8],"subjectId":"AZNIEFUIVB2H0","assignmentId":"33FOTY3KEN7VF8X96E12YYAL1Z8C1X","hitId":"3QGHA0EA0JM3KKNCY0PQRLYAHJ3BWH","url":"https://gershmanlab.com/experiments/alicia/teaching/experiment/?hitId=3QGHA0EA0JM3KKNCY0PQRLYAHJ3BWH&workerId=AZNIEFUIVB2H0&assignmentId=33FOTY3KEN7VF8X96E12YYAL1Z8C1X&a=KTF38&tp_a=KTF38&b=33FOTY3KEN7VF8X96E12YYAL1Z8C1X&tp_b=33FOTY3KEN7VF8X96E12YYAL1Z8C1X&c=365198&tp_c=365198","heads":6,"tails":6,"studentIndex":0,"studentTrueHypers":{"a":2,"b":8},"studentGuess":0.36363636363636365,"delta":0.13636363636363635,"totalExamples":12,"bonusSoFar":0},{"rt":null,"stimulus":"Sending examples to student... ","response":null,"trial_type":"html-keyboard-response","trial_index":17,"time_elapsed":725364,"internal_node_id":"0.0-7.0","params":{"nStudents":24,"maxFlips":30,"completionMinutes":45,"basePay":8,"maxBonus":9,"perTrialBonus":0.5,"perTrialBonusThreshold":0.1,"exampleCost":0.01},"classroomParams":{"A":{"a":1,"b":4},"B":{"a":4,"b":1},"C":{"a":2,"b":8},"D":{"a":8,"b":2}},"conditions":["nonSeqFull","nonSeqPartial","seqNoFeedback","seqFeedback"],"classroomPairings":[["A","B"],["C","D"]],"coinWeights":[0.2,0.5,0.8],"subjectId":"AZNIEFUIVB2H0","assignmentId":"33FOTY3KEN7VF8X96E12YYAL1Z8C1X","hitId":"3QGHA0EA0JM3KKNCY0PQRLYAHJ3BWH","url":"https://gershmanlab.com/experiments/alicia/teaching/experiment/?hitId=3QGHA0EA0JM3KKNCY0PQRLYAHJ3BWH&workerId=AZNIEFUIVB2H0&assignmentId=33FOTY3KEN7VF8X96E12YYAL1Z8C1X&a=KTF38&tp_a=KTF38&b=33FOTY3KEN7VF8X96E12YYAL1Z8C1X&tp_b=33FOTY3KEN7VF8X96E12YYAL1Z8C1X&c=365198&tp_c=365198"},{"rt":null,"stimulus":"Examples sent to student! Waiting for student...","response":null,"trial_type":"html-keyboard-response","trial_index":18,"time_elapsed":730381,"internal_node_id":"0.0-8.0","params":{"nStudents":24,"maxFlips":30,"completionMinutes":45,"basePay":8,"maxBonus":9,"perTrialBonus":0.5,"perTrialBonusThreshold":0.1,"exampleCost":0.01},"classroomParams":{"A":{"a":1,"b":4},"B":{"a":4,"b":1},"C":{"a":2,"b":8},"D":{"a":8,"b":2}},"conditions":["nonSeqFull","nonSeqPartial","seqNoFeedback","seqFeedback"],"classroomPairings":[["A","B"],["C","D"]],"coinWeights":[0.2,0.5,0.8],"subjectId":"AZNIEFUIVB2H0","assignmentId":"33FOTY3KEN7VF8X96E12YYAL1Z8C1X","hitId":"3QGHA0EA0JM3KKNCY0PQRLYAHJ3BWH","url":"https://gershmanlab.com/experiments/alicia/teaching/experiment/?hitId=3QGHA0EA0JM3KKNCY0PQRLYAHJ3BWH&workerId=AZNIEFUIVB2H0&assignmentId=33FOTY3KEN7VF8X96E12YYAL1Z8C1X&a=KTF38&tp_a=KTF38&b=33FOTY3KEN7VF8X96E12YYAL1Z8C1X&tp_b=33FOTY3KEN7VF8X96E12YYAL1Z8C1X&c=365198&tp_c=365198"},{"rt":3812,"stimulus":"\n                <p>Student's guess for coin weight: <b style=\"color:Tomato;\">0.36</b></p>\n                <p></b></p>\n                <p>You will now send another set of examples to your student. Press any key to continue.</p>\n                ","response":" ","trial_type":"html-keyboard-response","trial_index":19,"time_elapsed":734193,"internal_node_id":"0.0-9.0","params":{"nStudents":24,"maxFlips":30,"completionMinutes":45,"basePay":8,"maxBonus":9,"perTrialBonus":0.5,"perTrialBonusThreshold":0.1,"exampleCost":0.01},"classroomParams":{"A":{"a":1,"b":4},"B":{"a":4,"b":1},"C":{"a":2,"b":8},"D":{"a":8,"b":2}},"conditions":["nonSeqFull","nonSeqPartial","seqNoFeedback","seqFeedback"],"classroomPairings":[["A","B"],["C","D"]],"coinWeights":[0.2,0.5,0.8],"subjectId":"AZNIEFUIVB2H0","assignmentId":"33FOTY3KEN7VF8X96E12YYAL1Z8C1X","hitId":"3QGHA0EA0JM3KKNCY0PQRLYAHJ3BWH","url":"https://gershmanlab.com/experiments/alicia/teaching/experiment/?hitId=3QGHA0EA0JM3KKNCY0PQRLYAHJ3BWH&workerId=AZNIEFUIVB2H0&assignmentId=33FOTY3KEN7VF8X96E12YYAL1Z8C1X&a=KTF38&tp_a=KTF38&b=33FOTY3KEN7VF8X96E12YYAL1Z8C1X&tp_b=33FOTY3KEN7VF8X96E12YYAL1Z8C1X&c=365198&tp_c=365198"},{"rt":30634,"response":{"heads":"4","tails":"4"},"type":"response","condition":"seqFeedback","trueTheta":0.5,"classrooms":["C","D"],"studentTrueClassroom":"C","exampleSet":"second","trial_type":"survey-html-form","trial_index":20,"time_elapsed":764831,"internal_node_id":"0.0-10.0-0.0","params":{"nStudents":24,"maxFlips":30,"completionMinutes":45,"basePay":8,"maxBonus":9,"perTrialBonus":0.5,"perTrialBonusThreshold":0.1,"exampleCost":0.01},"classroomParams":{"A":{"a":1,"b":4},"B":{"a":4,"b":1},"C":{"a":2,"b":8},"D":{"a":8,"b":2}},"conditions":["nonSeqFull","nonSeqPartial","seqNoFeedback","seqFeedback"],"classroomPairings":[["A","B"],["C","D"]],"coinWeights":[0.2,0.5,0.8],"subjectId":"AZNIEFUIVB2H0","assignmentId":"33FOTY3KEN7VF8X96E12YYAL1Z8C1X","hitId":"3QGHA0EA0JM3KKNCY0PQRLYAHJ3BWH","url":"https://gershmanlab.com/experiments/alicia/teaching/experiment/?hitId=3QGHA0EA0JM3KKNCY0PQRLYAHJ3BWH&workerId=AZNIEFUIVB2H0&assignmentId=33FOTY3KEN7VF8X96E12YYAL1Z8C1X&a=KTF38&tp_a=KTF38&b=33FOTY3KEN7VF8X96E12YYAL1Z8C1X&tp_b=33FOTY3KEN7VF8X96E12YYAL1Z8C1X&c=365198&tp_c=365198","firstResponseHeads":6,"firstResponseTails":6,"secondResponseHeads":4,"secondResponseTails":4,"studentIndex":0,"studentTrueHypers":{"a":2,"b":8},"studentGuess":0.4,"delta":0.09999999999999998,"bonus":0.3,"bonusSoFar":0.3,"totalExamples":20},{"rt":null,"stimulus":"Sending examples to student... ","response":null,"trial_type":"html-keyboard-response","trial_index":21,"time_elapsed":766583,"internal_node_id":"0.0-11.0","params":{"nStudents":24,"maxFlips":30,"completionMinutes":45,"basePay":8,"maxBonus":9,"perTrialBonus":0.5,"perTrialBonusThreshold":0.1,"exampleCost":0.01},"classroomParams":{"A":{"a":1,"b":4},"B":{"a":4,"b":1},"C":{"a":2,"b":8},"D":{"a":8,"b":2}},"conditions":["nonSeqFull","nonSeqPartial","seqNoFeedback","seqFeedback"],"classroomPairings":[["A","B"],["C","D"]],"coinWeights":[0.2,0.5,0.8],"subjectId":"AZNIEFUIVB2H0","assignmentId":"33FOTY3KEN7VF8X96E12YYAL1Z8C1X","hitId":"3QGHA0EA0JM3KKNCY0PQRLYAHJ3BWH","url":"https://gershmanlab.com/experiments/alicia/teaching/experiment/?hitId=3QGHA0EA0JM3KKNCY0PQRLYAHJ3BWH&workerId=AZNIEFUIVB2H0&assignmentId=33FOTY3KEN7VF8X96E12YYAL1Z8C1X&a=KTF38&tp_a=KTF38&b=33FOTY3KEN7VF8X96E12YYAL1Z8C1X&tp_b=33FOTY3KEN7VF8X96E12YYAL1Z8C1X&c=365198&tp_c=365198"},{"rt":null,"stimulus":"Examples sent to student! Waiting for student...","response":null,"trial_type":"html-keyboard-response","trial_index":22,"time_elapsed":772097,"internal_node_id":"0.0-12.0","params":{"nStudents":24,"maxFlips":30,"completionMinutes":45,"basePay":8,"maxBonus":9,"perTrialBonus":0.5,"perTrialBonusThreshold":0.1,"exampleCost":0.01},"classroomParams":{"A":{"a":1,"b":4},"B":{"a":4,"b":1},"C":{"a":2,"b":8},"D":{"a":8,"b":2}},"conditions":["nonSeqFull","nonSeqPartial","seqNoFeedback","seqFeedback"],"classroomPairings":[["A","B"],["C","D"]],"coinWeights":[0.2,0.5,0.8],"subjectId":"AZNIEFUIVB2H0","assignmentId":"33FOTY3KEN7VF8X96E12YYAL1Z8C1X","hitId":"3QGHA0EA0JM3KKNCY0PQRLYAHJ3BWH","url":"https://gershmanlab.com/experiments/alicia/teaching/experiment/?hitId=3QGHA0EA0JM3KKNCY0PQRLYAHJ3BWH&workerId=AZNIEFUIVB2H0&assignmentId=33FOTY3KEN7VF8X96E12YYAL1Z8C1X&a=KTF38&tp_a=KTF38&b=33FOTY3KEN7VF8X96E12YYAL1Z8C1X&tp_b=33FOTY3KEN7VF8X96E12YYAL1Z8C1X&c=365198&tp_c=365198"},{"rt":7523,"stimulus":"\n                <p>Student 1's first guess for coin weight: <b style=\"color:Tomato\";>0.36</b></p>\n                <p>Student 1's second guess for coin weight: <b style=\"color:Tomato\";>0.40</b></p>\n                <p>You received a bonus of <b>$0.30</b> based on the student's second guess.</p>\n                <p>Total bonus so far: <b>$0.30</b></p>\n                <p>Press any key to continue.</p>\n                ","response":" ","trial_type":"html-keyboard-response","trial_index":23,"time_elapsed":779621,"internal_node_id":"0.0-13.0","params":{"nStudents":24,"maxFlips":30,"completionMinutes":45,"basePay":8,"maxBonus":9,"perTrialBonus":0.5,"perTrialBonusThreshold":0.1,"exampleCost":0.01},"classroomParams":{"A":{"a":1,"b":4},"B":{"a":4,"b":1},"C":{"a":2,"b":8},"D":{"a":8,"b":2}},"conditions":["nonSeqFull","nonSeqPartial","seqNoFeedback","seqFeedback"],"classroomPairings":[["A","B"],["C","D"]],"coinWeights":[0.2,0.5,0.8],"subjectId":"AZNIEFUIVB2H0","assignmentId":"33FOTY3KEN7VF8X96E12YYAL1Z8C1X","hitId":"3QGHA0EA0JM3KKNCY0PQRLYAHJ3BWH","url":"https://gershmanlab.com/experiments/alicia/teaching/experiment/?hitId=3QGHA0EA0JM3KKNCY0PQRLYAHJ3BWH&workerId=AZNIEFUIVB2H0&assignmentId=33FOTY3KEN7VF8X96E12YYAL1Z8C1X&a=KTF38&tp_a=KTF38&b=33FOTY3KEN7VF8X96E12YYAL1Z8C1X&tp_b=33FOTY3KEN7VF8X96E12YYAL1Z8C1X&c=365198&tp_c=365198"},{"rt":null,"stimulus":"<div style=\"font-size:60px;\">Next student</div>","response":null,"trial_type":"html-keyboard-response","trial_index":24,"time_elapsed":782627,"internal_node_id":"0.0-14.0-0.0","params":{"nStudents":24,"maxFlips":30,"completionMinutes":45,"basePay":8,"maxBonus":9,"perTrialBonus":0.5,"perTrialBonusThreshold":0.1,"exampleCost":0.01},"classroomParams":{"A":{"a":1,"b":4},"B":{"a":4,"b":1},"C":{"a":2,"b":8},"D":{"a":8,"b":2}},"conditions":["nonSeqFull","nonSeqPartial","seqNoFeedback","seqFeedback"],"classroomPairings":[["A","B"],["C","D"]],"coinWeights":[0.2,0.5,0.8],"subjectId":"AZNIEFUIVB2H0","assignmentId":"33FOTY3KEN7VF8X96E12YYAL1Z8C1X","hitId":"3QGHA0EA0JM3KKNCY0PQRLYAHJ3BWH","url":"https://gershmanlab.com/experiments/alicia/teaching/experiment/?hitId=3QGHA0EA0JM3KKNCY0PQRLYAHJ3BWH&workerId=AZNIEFUIVB2H0&assignmentId=33FOTY3KEN7VF8X96E12YYAL1Z8C1X&a=KTF38&tp_a=KTF38&b=33FOTY3KEN7VF8X96E12YYAL1Z8C1X&tp_b=33FOTY3KEN7VF8X96E12YYAL1Z8C1X&c=365198&tp_c=365198"},{"rt":2456,"stimulus":"\n            <h4 style=\"color:Orange;\">Student 2</h4>\n            <h2>The weight of your coin is <b style=\"color:Tomato;\">0.2</b>.</h2>\n            <p>In this block, you will be giving <b>one</b> set of examples to Student 2.</p>\n                <p>You will receive feedback at the end of the block.</p>\n            ","response":0,"trial_type":"html-button-response","trial_index":25,"time_elapsed":785085,"internal_node_id":"0.0-15.0","params":{"nStudents":24,"maxFlips":30,"completionMinutes":45,"basePay":8,"maxBonus":9,"perTrialBonus":0.5,"perTrialBonusThreshold":0.1,"exampleCost":0.01},"classroomParams":{"A":{"a":1,"b":4},"B":{"a":4,"b":1},"C":{"a":2,"b":8},"D":{"a":8,"b":2}},"conditions":["nonSeqFull","nonSeqPartial","seqNoFeedback","seqFeedback"],"classroomPairings":[["A","B"],["C","D"]],"coinWeights":[0.2,0.5,0.8],"subjectId":"AZNIEFUIVB2H0","assignmentId":"33FOTY3KEN7VF8X96E12YYAL1Z8C1X","hitId":"3QGHA0EA0JM3KKNCY0PQRLYAHJ3BWH","url":"https://gershmanlab.com/experiments/alicia/teaching/experiment/?hitId=3QGHA0EA0JM3KKNCY0PQRLYAHJ3BWH&workerId=AZNIEFUIVB2H0&assignmentId=33FOTY3KEN7VF8X96E12YYAL1Z8C1X&a=KTF38&tp_a=KTF38&b=33FOTY3KEN7VF8X96E12YYAL1Z8C1X&tp_b=33FOTY3KEN7VF8X96E12YYAL1Z8C1X&c=365198&tp_c=365198"},{"rt":34742,"response":{"heads":"0","tails":"10"},"type":"response","condition":"nonSeqFull","trueTheta":0.2,"classrooms":["C","D"],"studentTrueClassroom":"D","exampleSet":"first","trial_type":"survey-html-form","trial_index":26,"time_elapsed":819831,"internal_node_id":"0.0-16.0-0.0","params":{"nStudents":24,"maxFlips":30,"completionMinutes":45,"basePay":8,"maxBonus":9,"perTrialBonus":0.5,"perTrialBonusThreshold":0.1,"exampleCost":0.01},"classroomParams":{"A":{"a":1,"b":4},"B":{"a":4,"b":1},"C":{"a":2,"b":8},"D":{"a":8,"b":2}},"conditions":["nonSeqFull","nonSeqPartial","seqNoFeedback","seqFeedback"],"classroomPairings":[["A","B"],["C","D"]],"coinWeights":[0.2,0.5,0.8],"subjectId":"AZNIEFUIVB2H0","assignmentId":"33FOTY3KEN7VF8X96E12YYAL1Z8C1X","hitId":"3QGHA0EA0JM3KKNCY0PQRLYAHJ3BWH","url":"https://gershmanlab.com/experiments/alicia/teaching/experiment/?hitId=3QGHA0EA0JM3KKNCY0PQRLYAHJ3BWH&workerId=AZNIEFUIVB2H0&assignmentId=33FOTY3KEN7VF8X96E12YYAL1Z8C1X&a=KTF38&tp_a=KTF38&b=33FOTY3KEN7VF8X96E12YYAL1Z8C1X&tp_b=33FOTY3KEN7VF8X96E12YYAL1Z8C1X&c=365198&tp_c=365198","heads":0,"tails":10,"studentIndex":1,"studentTrueHypers":{"a":8,"b":2},"studentGuess":0.4,"delta":0.2,"totalExamples":10,"bonus":0,"bonusSoFar":0.3},{"rt":null,"stimulus":"Sending examples to student... ","response":null,"trial_type":"html-keyboard-response","trial_index":27,"time_elapsed":821589,"internal_node_id":"0.0-17.0","params":{"nStudents":24,"maxFlips":30,"completionMinutes":45,"basePay":8,"maxBonus":9,"perTrialBonus":0.5,"perTrialBonusThreshold":0.1,"exampleCost":0.01},"classroomParams":{"A":{"a":1,"b":4},"B":{"a":4,"b":1},"C":{"a":2,"b":8},"D":{"a":8,"b":2}},"conditions":["nonSeqFull","nonSeqPartial","seqNoFeedback","seqFeedback"],"classroomPairings":[["A","B"],["C","D"]],"coinWeights":[0.2,0.5,0.8],"subjectId":"AZNIEFUIVB2H0","assignmentId":"33FOTY3KEN7VF8X96E12YYAL1Z8C1X","hitId":"3QGHA0EA0JM3KKNCY0PQRLYAHJ3BWH","url":"https://gershmanlab.com/experiments/alicia/teaching/experiment/?hitId=3QGHA0EA0JM3KKNCY0PQRLYAHJ3BWH&workerId=AZNIEFUIVB2H0&assignmentId=33FOTY3KEN7VF8X96E12YYAL1Z8C1X&a=KTF38&tp_a=KTF38&b=33FOTY3KEN7VF8X96E12YYAL1Z8C1X&tp_b=33FOTY3KEN7VF8X96E12YYAL1Z8C1X&c=365198&tp_c=365198"},{"rt":null,"stimulus":"Examples sent to student! Waiting for student...","response":null,"trial_type":"html-keyboard-response","trial_index":28,"time_elapsed":827602,"internal_node_id":"0.0-18.0","params":{"nStudents":24,"maxFlips":30,"completionMinutes":45,"basePay":8,"maxBonus":9,"perTrialBonus":0.5,"perTrialBonusThreshold":0.1,"exampleCost":0.01},"classroomParams":{"A":{"a":1,"b":4},"B":{"a":4,"b":1},"C":{"a":2,"b":8},"D":{"a":8,"b":2}},"conditions":["nonSeqFull","nonSeqPartial","seqNoFeedback","seqFeedback"],"classroomPairings":[["A","B"],["C","D"]],"coinWeights":[0.2,0.5,0.8],"subjectId":"AZNIEFUIVB2H0","assignmentId":"33FOTY3KEN7VF8X96E12YYAL1Z8C1X","hitId":"3QGHA0EA0JM3KKNCY0PQRLYAHJ3BWH","url":"https://gershmanlab.com/experiments/alicia/teaching/experiment/?hitId=3QGHA0EA0JM3KKNCY0PQRLYAHJ3BWH&workerId=AZNIEFUIVB2H0&assignmentId=33FOTY3KEN7VF8X96E12YYAL1Z8C1X&a=KTF38&tp_a=KTF38&b=33FOTY3KEN7VF8X96E12YYAL1Z8C1X&tp_b=33FOTY3KEN7VF8X96E12YYAL1Z8C1X&c=365198&tp_c=365198"},{"rt":3473,"stimulus":"\n                <p>Student's guess for coin weight: <b style=\"color:Tomato;\">0.40</b></p>\n                <p>You received a bonus of <b>$0</b>. Total bonus so far: <b>$0.30</b></b></p>\n                <p> Press any key to continue.</p>\n                ","response":" ","trial_type":"html-keyboard-response","trial_index":29,"time_elapsed":831077,"internal_node_id":"0.0-19.0","params":{"nStudents":24,"maxFlips":30,"completionMinutes":45,"basePay":8,"maxBonus":9,"perTrialBonus":0.5,"perTrialBonusThreshold":0.1,"exampleCost":0.01},"classroomParams":{"A":{"a":1,"b":4},"B":{"a":4,"b":1},"C":{"a":2,"b":8},"D":{"a":8,"b":2}},"conditions":["nonSeqFull","nonSeqPartial","seqNoFeedback","seqFeedback"],"classroomPairings":[["A","B"],["C","D"]],"coinWeights":[0.2,0.5,0.8],"subjectId":"AZNIEFUIVB2H0","assignmentId":"33FOTY3KEN7VF8X96E12YYAL1Z8C1X","hitId":"3QGHA0EA0JM3KKNCY0PQRLYAHJ3BWH","url":"https://gershmanlab.com/experiments/alicia/teaching/experiment/?hitId=3QGHA0EA0JM3KKNCY0PQRLYAHJ3BWH&workerId=AZNIEFUIVB2H0&assignmentId=33FOTY3KEN7VF8X96E12YYAL1Z8C1X&a=KTF38&tp_a=KTF38&b=33FOTY3KEN7VF8X96E12YYAL1Z8C1X&tp_b=33FOTY3KEN7VF8X96E12YYAL1Z8C1X&c=365198&tp_c=365198"},{"rt":null,"stimulus":"<div style=\"font-size:60px;\">Next student</div>","response":null,"trial_type":"html-keyboard-response","trial_index":30,"time_elapsed":834083,"internal_node_id":"0.0-20.0-0.0","params":{"nStudents":24,"maxFlips":30,"completionMinutes":45,"basePay":8,"maxBonus":9,"perTrialBonus":0.5,"perTrialBonusThreshold":0.1,"exampleCost":0.01},"classroomParams":{"A":{"a":1,"b":4},"B":{"a":4,"b":1},"C":{"a":2,"b":8},"D":{"a":8,"b":2}},"conditions":["nonSeqFull","nonSeqPartial","seqNoFeedback","seqFeedback"],"classroomPairings":[["A","B"],["C","D"]],"coinWeights":[0.2,0.5,0.8],"subjectId":"AZNIEFUIVB2H0","assignmentId":"33FOTY3KEN7VF8X96E12YYAL1Z8C1X","hitId":"3QGHA0EA0JM3KKNCY0PQRLYAHJ3BWH","url":"https://gershmanlab.com/experiments/alicia/teaching/experiment/?hitId=3QGHA0EA0JM3KKNCY0PQRLYAHJ3BWH&workerId=AZNIEFUIVB2H0&assignmentId=33FOTY3KEN7VF8X96E12YYAL1Z8C1X&a=KTF38&tp_a=KTF38&b=33FOTY3KEN7VF8X96E12YYAL1Z8C1X&tp_b=33FOTY3KEN7VF8X96E12YYAL1Z8C1X&c=365198&tp_c=365198"},{"rt":5831,"stimulus":"\n            <h4 style=\"color:Orange;\">Student 3</h4>\n            <h2>The weight of your coin is <b style=\"color:Tomato;\">0.8</b>.</h2>\n            <p>In this block, you will be giving <b>one</b> set of examples to Student 3.</p>\n                <p>You will receive feedback at the end of the block.</p>\n            ","response":0,"trial_type":"html-button-response","trial_index":31,"time_elapsed":839915,"internal_node_id":"0.0-21.0","params":{"nStudents":24,"maxFlips":30,"completionMinutes":45,"basePay":8,"maxBonus":9,"perTrialBonus":0.5,"perTrialBonusThreshold":0.1,"exampleCost":0.01},"classroomParams":{"A":{"a":1,"b":4},"B":{"a":4,"b":1},"C":{"a":2,"b":8},"D":{"a":8,"b":2}},"conditions":["nonSeqFull","nonSeqPartial","seqNoFeedback","seqFeedback"],"classroomPairings":[["A","B"],["C","D"]],"coinWeights":[0.2,0.5,0.8],"subjectId":"AZNIEFUIVB2H0","assignmentId":"33FOTY3KEN7VF8X96E12YYAL1Z8C1X","hitId":"3QGHA0EA0JM3KKNCY0PQRLYAHJ3BWH","url":"https://gershmanlab.com/experiments/alicia/teaching/experiment/?hitId=3QGHA0EA0JM3KKNCY0PQRLYAHJ3BWH&workerId=AZNIEFUIVB2H0&assignmentId=33FOTY3KEN7VF8X96E12YYAL1Z8C1X&a=KTF38&tp_a=KTF38&b=33FOTY3KEN7VF8X96E12YYAL1Z8C1X&tp_b=33FOTY3KEN7VF8X96E12YYAL1Z8C1X&c=365198&tp_c=365198"},{"rt":48720,"response":{"heads":"10","tails":"0"},"type":"response","condition":"nonSeqPartial","trueTheta":0.8,"classrooms":["C","D"],"studentTrueClassroom":"D","exampleSet":"first","trial_type":"survey-html-form","trial_index":32,"time_elapsed":888639,"internal_node_id":"0.0-22.0-0.0","params":{"nStudents":24,"maxFlips":30,"completionMinutes":45,"basePay":8,"maxBonus":9,"perTrialBonus":0.5,"perTrialBonusThreshold":0.1,"exampleCost":0.01},"classroomParams":{"A":{"a":1,"b":4},"B":{"a":4,"b":1},"C":{"a":2,"b":8},"D":{"a":8,"b":2}},"conditions":["nonSeqFull","nonSeqPartial","seqNoFeedback","seqFeedback"],"classroomPairings":[["A","B"],["C","D"]],"coinWeights":[0.2,0.5,0.8],"subjectId":"AZNIEFUIVB2H0","assignmentId":"33FOTY3KEN7VF8X96E12YYAL1Z8C1X","hitId":"3QGHA0EA0JM3KKNCY0PQRLYAHJ3BWH","url":"https://gershmanlab.com/experiments/alicia/teaching/experiment/?hitId=3QGHA0EA0JM3KKNCY0PQRLYAHJ3BWH&workerId=AZNIEFUIVB2H0&assignmentId=33FOTY3KEN7VF8X96E12YYAL1Z8C1X&a=KTF38&tp_a=KTF38&b=33FOTY3KEN7VF8X96E12YYAL1Z8C1X&tp_b=33FOTY3KEN7VF8X96E12YYAL1Z8C1X&c=365198&tp_c=365198","heads":10,"tails":0,"studentIndex":2,"studentTrueHypers":{"a":8,"b":2},"studentGuess":0.9,"delta":0.09999999999999998,"totalExamples":10,"bonus":0.4,"bonusSoFar":0.7},{"rt":null,"stimulus":"Sending examples to student... ","response":null,"trial_type":"html-keyboard-response","trial_index":33,"time_elapsed":890403,"internal_node_id":"0.0-23.0","params":{"nStudents":24,"maxFlips":30,"completionMinutes":45,"basePay":8,"maxBonus":9,"perTrialBonus":0.5,"perTrialBonusThreshold":0.1,"exampleCost":0.01},"classroomParams":{"A":{"a":1,"b":4},"B":{"a":4,"b":1},"C":{"a":2,"b":8},"D":{"a":8,"b":2}},"conditions":["nonSeqFull","nonSeqPartial","seqNoFeedback","seqFeedback"],"classroomPairings":[["A","B"],["C","D"]],"coinWeights":[0.2,0.5,0.8],"subjectId":"AZNIEFUIVB2H0","assignmentId":"33FOTY3KEN7VF8X96E12YYAL1Z8C1X","hitId":"3QGHA0EA0JM3KKNCY0PQRLYAHJ3BWH","url":"https://gershmanlab.com/experiments/alicia/teaching/experiment/?hitId=3QGHA0EA0JM3KKNCY0PQRLYAHJ3BWH&workerId=AZNIEFUIVB2H0&assignmentId=33FOTY3KEN7VF8X96E12YYAL1Z8C1X&a=KTF38&tp_a=KTF38&b=33FOTY3KEN7VF8X96E12YYAL1Z8C1X&tp_b=33FOTY3KEN7VF8X96E12YYAL1Z8C1X&c=365198&tp_c=365198"},{"rt":null,"stimulus":"Examples sent to student! Waiting for student...","response":null,"trial_type":"html-keyboard-response","trial_index":34,"time_elapsed":894919,"internal_node_id":"0.0-24.0","params":{"nStudents":24,"maxFlips":30,"completionMinutes":45,"basePay":8,"maxBonus":9,"perTrialBonus":0.5,"perTrialBonusThreshold":0.1,"exampleCost":0.01},"classroomParams":{"A":{"a":1,"b":4},"B":{"a":4,"b":1},"C":{"a":2,"b":8},"D":{"a":8,"b":2}},"conditions":["nonSeqFull","nonSeqPartial","seqNoFeedback","seqFeedback"],"classroomPairings":[["A","B"],["C","D"]],"coinWeights":[0.2,0.5,0.8],"subjectId":"AZNIEFUIVB2H0","assignmentId":"33FOTY3KEN7VF8X96E12YYAL1Z8C1X","hitId":"3QGHA0EA0JM3KKNCY0PQRLYAHJ3BWH","url":"https://gershmanlab.com/experiments/alicia/teaching/experiment/?hitId=3QGHA0EA0JM3KKNCY0PQRLYAHJ3BWH&workerId=AZNIEFUIVB2H0&assignmentId=33FOTY3KEN7VF8X96E12YYAL1Z8C1X&a=KTF38&tp_a=KTF38&b=33FOTY3KEN7VF8X96E12YYAL1Z8C1X&tp_b=33FOTY3KEN7VF8X96E12YYAL1Z8C1X&c=365198&tp_c=365198"},{"rt":4901,"stimulus":"\n                <p>Student's guess for coin weight: <b style=\"color:Tomato;\">0.90</b></p>\n                <p>You received a bonus of <b>$0.4</b>. Total bonus so far: <b>$0.70</b></b></p>\n                <p> Press any key to continue.</p>\n                ","response":" ","trial_type":"html-keyboard-response","trial_index":35,"time_elapsed":899820,"internal_node_id":"0.0-25.0","params":{"nStudents":24,"maxFlips":30,"completionMinutes":45,"basePay":8,"maxBonus":9,"perTrialBonus":0.5,"perTrialBonusThreshold":0.1,"exampleCost":0.01},"classroomParams":{"A":{"a":1,"b":4},"B":{"a":4,"b":1},"C":{"a":2,"b":8},"D":{"a":8,"b":2}},"conditions":["nonSeqFull","nonSeqPartial","seqNoFeedback","seqFeedback"],"classroomPairings":[["A","B"],["C","D"]],"coinWeights":[0.2,0.5,0.8],"subjectId":"AZNIEFUIVB2H0","assignmentId":"33FOTY3KEN7VF8X96E12YYAL1Z8C1X","hitId":"3QGHA0EA0JM3KKNCY0PQRLYAHJ3BWH","url":"https://gershmanlab.com/experiments/alicia/teaching/experiment/?hitId=3QGHA0EA0JM3KKNCY0PQRLYAHJ3BWH&workerId=AZNIEFUIVB2H0&assignmentId=33FOTY3KEN7VF8X96E12YYAL1Z8C1X&a=KTF38&tp_a=KTF38&b=33FOTY3KEN7VF8X96E12YYAL1Z8C1X&tp_b=33FOTY3KEN7VF8X96E12YYAL1Z8C1X&c=365198&tp_c=365198"},{"rt":null,"stimulus":"<div style=\"font-size:60px;\">Next student</div>","response":null,"trial_type":"html-keyboard-response","trial_index":36,"time_elapsed":902085,"internal_node_id":"0.0-26.0-0.0","params":{"nStudents":24,"maxFlips":30,"completionMinutes":45,"basePay":8,"maxBonus":9,"perTrialBonus":0.5,"perTrialBonusThreshold":0.1,"exampleCost":0.01},"classroomParams":{"A":{"a":1,"b":4},"B":{"a":4,"b":1},"C":{"a":2,"b":8},"D":{"a":8,"b":2}},"conditions":["nonSeqFull","nonSeqPartial","seqNoFeedback","seqFeedback"],"classroomPairings":[["A","B"],["C","D"]],"coinWeights":[0.2,0.5,0.8],"subjectId":"AZNIEFUIVB2H0","assignmentId":"33FOTY3KEN7VF8X96E12YYAL1Z8C1X","hitId":"3QGHA0EA0JM3KKNCY0PQRLYAHJ3BWH","url":"https://gershmanlab.com/experiments/alicia/teaching/experiment/?hitId=3QGHA0EA0JM3KKNCY0PQRLYAHJ3BWH&workerId=AZNIEFUIVB2H0&assignmentId=33FOTY3KEN7VF8X96E12YYAL1Z8C1X&a=KTF38&tp_a=KTF38&b=33FOTY3KEN7VF8X96E12YYAL1Z8C1X&tp_b=33FOTY3KEN7VF8X96E12YYAL1Z8C1X&c=365198&tp_c=365198"},{"rt":3030,"stimulus":"\n            <h4 style=\"color:Orange;\">Student 4</h4>\n            <h2>The weight of your coin is <b style=\"color:Tomato;\">0.2</b>.</h2>\n            <p>In this block, you will be giving <b>one</b> set of examples to Student 4.</p>\n                <p>You will receive feedback at the end of the block.</p>\n            ","response":0,"trial_type":"html-button-response","trial_index":37,"time_elapsed":905115,"internal_node_id":"0.0-27.0","params":{"nStudents":24,"maxFlips":30,"completionMinutes":45,"basePay":8,"maxBonus":9,"perTrialBonus":0.5,"perTrialBonusThreshold":0.1,"exampleCost":0.01},"classroomParams":{"A":{"a":1,"b":4},"B":{"a":4,"b":1},"C":{"a":2,"b":8},"D":{"a":8,"b":2}},"conditions":["nonSeqFull","nonSeqPartial","seqNoFeedback","seqFeedback"],"classroomPairings":[["A","B"],["C","D"]],"coinWeights":[0.2,0.5,0.8],"subjectId":"AZNIEFUIVB2H0","assignmentId":"33FOTY3KEN7VF8X96E12YYAL1Z8C1X","hitId":"3QGHA0EA0JM3KKNCY0PQRLYAHJ3BWH","url":"https://gershmanlab.com/experiments/alicia/teaching/experiment/?hitId=3QGHA0EA0JM3KKNCY0PQRLYAHJ3BWH&workerId=AZNIEFUIVB2H0&assignmentId=33FOTY3KEN7VF8X96E12YYAL1Z8C1X&a=KTF38&tp_a=KTF38&b=33FOTY3KEN7VF8X96E12YYAL1Z8C1X&tp_b=33FOTY3KEN7VF8X96E12YYAL1Z8C1X&c=365198&tp_c=365198"},{"rt":13729,"response":{"heads":"0","tails":"10"},"type":"response","condition":"nonSeqPartial","trueTheta":0.2,"classrooms":["C","D"],"studentTrueClassroom":"C","exampleSet":"first","trial_type":"survey-html-form","trial_index":38,"time_elapsed":918849,"internal_node_id":"0.0-28.0-0.0","params":{"nStudents":24,"maxFlips":30,"completionMinutes":45,"basePay":8,"maxBonus":9,"perTrialBonus":0.5,"perTrialBonusThreshold":0.1,"exampleCost":0.01},"classroomParams":{"A":{"a":1,"b":4},"B":{"a":4,"b":1},"C":{"a":2,"b":8},"D":{"a":8,"b":2}},"conditions":["nonSeqFull","nonSeqPartial","seqNoFeedback","seqFeedback"],"classroomPairings":[["A","B"],["C","D"]],"coinWeights":[0.2,0.5,0.8],"subjectId":"AZNIEFUIVB2H0","assignmentId":"33FOTY3KEN7VF8X96E12YYAL1Z8C1X","hitId":"3QGHA0EA0JM3KKNCY0PQRLYAHJ3BWH","url":"https://gershmanlab.com/experiments/alicia/teaching/experiment/?hitId=3QGHA0EA0JM3KKNCY0PQRLYAHJ3BWH&workerId=AZNIEFUIVB2H0&assignmentId=33FOTY3KEN7VF8X96E12YYAL1Z8C1X&a=KTF38&tp_a=KTF38&b=33FOTY3KEN7VF8X96E12YYAL1Z8C1X&tp_b=33FOTY3KEN7VF8X96E12YYAL1Z8C1X&c=365198&tp_c=365198","heads":0,"tails":10,"studentIndex":3,"studentTrueHypers":{"a":2,"b":8},"studentGuess":0.1,"delta":0.1,"totalExamples":10,"bonus":0.4,"bonusSoFar":1.1},{"rt":null,"stimulus":"Sending examples to student... ","response":null,"trial_type":"html-keyboard-response","trial_index":39,"time_elapsed":920605,"internal_node_id":"0.0-29.0","params":{"nStudents":24,"maxFlips":30,"completionMinutes":45,"basePay":8,"maxBonus":9,"perTrialBonus":0.5,"perTrialBonusThreshold":0.1,"exampleCost":0.01},"classroomParams":{"A":{"a":1,"b":4},"B":{"a":4,"b":1},"C":{"a":2,"b":8},"D":{"a":8,"b":2}},"conditions":["nonSeqFull","nonSeqPartial","seqNoFeedback","seqFeedback"],"classroomPairings":[["A","B"],["C","D"]],"coinWeights":[0.2,0.5,0.8],"subjectId":"AZNIEFUIVB2H0","assignmentId":"33FOTY3KEN7VF8X96E12YYAL1Z8C1X","hitId":"3QGHA0EA0JM3KKNCY0PQRLYAHJ3BWH","url":"https://gershmanlab.com/experiments/alicia/teaching/experiment/?hitId=3QGHA0EA0JM3KKNCY0PQRLYAHJ3BWH&workerId=AZNIEFUIVB2H0&assignmentId=33FOTY3KEN7VF8X96E12YYAL1Z8C1X&a=KTF38&tp_a=KTF38&b=33FOTY3KEN7VF8X96E12YYAL1Z8C1X&tp_b=33FOTY3KEN7VF8X96E12YYAL1Z8C1X&c=365198&tp_c=365198"},{"rt":null,"stimulus":"Examples sent to student! Waiting for student...","response":null,"trial_type":"html-keyboard-response","trial_index":40,"time_elapsed":926115,"internal_node_id":"0.0-30.0","params":{"nStudents":24,"maxFlips":30,"completionMinutes":45,"basePay":8,"maxBonus":9,"perTrialBonus":0.5,"perTrialBonusThreshold":0.1,"exampleCost":0.01},"classroomParams":{"A":{"a":1,"b":4},"B":{"a":4,"b":1},"C":{"a":2,"b":8},"D":{"a":8,"b":2}},"conditions":["nonSeqFull","nonSeqPartial","seqNoFeedback","seqFeedback"],"classroomPairings":[["A","B"],["C","D"]],"coinWeights":[0.2,0.5,0.8],"subjectId":"AZNIEFUIVB2H0","assignmentId":"33FOTY3KEN7VF8X96E12YYAL1Z8C1X","hitId":"3QGHA0EA0JM3KKNCY0PQRLYAHJ3BWH","url":"https://gershmanlab.com/experiments/alicia/teaching/experiment/?hitId=3QGHA0EA0JM3KKNCY0PQRLYAHJ3BWH&workerId=AZNIEFUIVB2H0&assignmentId=33FOTY3KEN7VF8X96E12YYAL1Z8C1X&a=KTF38&tp_a=KTF38&b=33FOTY3KEN7VF8X96E12YYAL1Z8C1X&tp_b=33FOTY3KEN7VF8X96E12YYAL1Z8C1X&c=365198&tp_c=365198"},{"rt":2735,"stimulus":"\n                <p>Student's guess for coin weight: <b style=\"color:Tomato;\">0.10</b></p>\n                <p>You received a bonus of <b>$0.4</b>. Total bonus so far: <b>$1.10</b></b></p>\n                <p> Press any key to continue.</p>\n                ","response":" ","trial_type":"html-keyboard-response","trial_index":41,"time_elapsed":928850,"internal_node_id":"0.0-31.0","params":{"nStudents":24,"maxFlips":30,"completionMinutes":45,"basePay":8,"maxBonus":9,"perTrialBonus":0.5,"perTrialBonusThreshold":0.1,"exampleCost":0.01},"classroomParams":{"A":{"a":1,"b":4},"B":{"a":4,"b":1},"C":{"a":2,"b":8},"D":{"a":8,"b":2}},"conditions":["nonSeqFull","nonSeqPartial","seqNoFeedback","seqFeedback"],"classroomPairings":[["A","B"],["C","D"]],"coinWeights":[0.2,0.5,0.8],"subjectId":"AZNIEFUIVB2H0","assignmentId":"33FOTY3KEN7VF8X96E12YYAL1Z8C1X","hitId":"3QGHA0EA0JM3KKNCY0PQRLYAHJ3BWH","url":"https://gershmanlab.com/experiments/alicia/teaching/experiment/?hitId=3QGHA0EA0JM3KKNCY0PQRLYAHJ3BWH&workerId=AZNIEFUIVB2H0&assignmentId=33FOTY3KEN7VF8X96E12YYAL1Z8C1X&a=KTF38&tp_a=KTF38&b=33FOTY3KEN7VF8X96E12YYAL1Z8C1X&tp_b=33FOTY3KEN7VF8X96E12YYAL1Z8C1X&c=365198&tp_c=365198"},{"rt":null,"stimulus":"<div style=\"font-size:60px;\">Next student</div>","response":null,"trial_type":"html-keyboard-response","trial_index":42,"time_elapsed":931861,"internal_node_id":"0.0-32.0-0.0","params":{"nStudents":24,"maxFlips":30,"completionMinutes":45,"basePay":8,"maxBonus":9,"perTrialBonus":0.5,"perTrialBonusThreshold":0.1,"exampleCost":0.01},"classroomParams":{"A":{"a":1,"b":4},"B":{"a":4,"b":1},"C":{"a":2,"b":8},"D":{"a":8,"b":2}},"conditions":["nonSeqFull","nonSeqPartial","seqNoFeedback","seqFeedback"],"classroomPairings":[["A","B"],["C","D"]],"coinWeights":[0.2,0.5,0.8],"subjectId":"AZNIEFUIVB2H0","assignmentId":"33FOTY3KEN7VF8X96E12YYAL1Z8C1X","hitId":"3QGHA0EA0JM3KKNCY0PQRLYAHJ3BWH","url":"https://gershmanlab.com/experiments/alicia/teaching/experiment/?hitId=3QGHA0EA0JM3KKNCY0PQRLYAHJ3BWH&workerId=AZNIEFUIVB2H0&assignmentId=33FOTY3KEN7VF8X96E12YYAL1Z8C1X&a=KTF38&tp_a=KTF38&b=33FOTY3KEN7VF8X96E12YYAL1Z8C1X&tp_b=33FOTY3KEN7VF8X96E12YYAL1Z8C1X&c=365198&tp_c=365198"},{"rt":2266,"stimulus":"\n            <h4 style=\"color:Orange;\">Student 5</h4>\n            <h2>The weight of your coin is <b style=\"color:Tomato;\">0.2</b>.</h2>\n            <p>In this block, you will be giving <b>two</b> sets of examples to Student 5.</p>\n                <p>You will receive feedback at the end of the block.</p>\n            ","response":0,"trial_type":"html-button-response","trial_index":43,"time_elapsed":934129,"internal_node_id":"0.0-33.0","params":{"nStudents":24,"maxFlips":30,"completionMinutes":45,"basePay":8,"maxBonus":9,"perTrialBonus":0.5,"perTrialBonusThreshold":0.1,"exampleCost":0.01},"classroomParams":{"A":{"a":1,"b":4},"B":{"a":4,"b":1},"C":{"a":2,"b":8},"D":{"a":8,"b":2}},"conditions":["nonSeqFull","nonSeqPartial","seqNoFeedback","seqFeedback"],"classroomPairings":[["A","B"],["C","D"]],"coinWeights":[0.2,0.5,0.8],"subjectId":"AZNIEFUIVB2H0","assignmentId":"33FOTY3KEN7VF8X96E12YYAL1Z8C1X","hitId":"3QGHA0EA0JM3KKNCY0PQRLYAHJ3BWH","url":"https://gershmanlab.com/experiments/alicia/teaching/experiment/?hitId=3QGHA0EA0JM3KKNCY0PQRLYAHJ3BWH&workerId=AZNIEFUIVB2H0&assignmentId=33FOTY3KEN7VF8X96E12YYAL1Z8C1X&a=KTF38&tp_a=KTF38&b=33FOTY3KEN7VF8X96E12YYAL1Z8C1X&tp_b=33FOTY3KEN7VF8X96E12YYAL1Z8C1X&c=365198&tp_c=365198"},{"rt":63693,"response":{"heads":"2","tails":"8"},"type":"response","condition":"seqNoFeedback","trueTheta":0.2,"classrooms":["A","B"],"studentTrueClassroom":"A","exampleSet":"first","trial_type":"survey-html-form","trial_index":44,"time_elapsed":997826,"internal_node_id":"0.0-34.0-0.0","params":{"nStudents":24,"maxFlips":30,"completionMinutes":45,"basePay":8,"maxBonus":9,"perTrialBonus":0.5,"perTrialBonusThreshold":0.1,"exampleCost":0.01},"classroomParams":{"A":{"a":1,"b":4},"B":{"a":4,"b":1},"C":{"a":2,"b":8},"D":{"a":8,"b":2}},"conditions":["nonSeqFull","nonSeqPartial","seqNoFeedback","seqFeedback"],"classroomPairings":[["A","B"],["C","D"]],"coinWeights":[0.2,0.5,0.8],"subjectId":"AZNIEFUIVB2H0","assignmentId":"33FOTY3KEN7VF8X96E12YYAL1Z8C1X","hitId":"3QGHA0EA0JM3KKNCY0PQRLYAHJ3BWH","url":"https://gershmanlab.com/experiments/alicia/teaching/experiment/?hitId=3QGHA0EA0JM3KKNCY0PQRLYAHJ3BWH&workerId=AZNIEFUIVB2H0&assignmentId=33FOTY3KEN7VF8X96E12YYAL1Z8C1X&a=KTF38&tp_a=KTF38&b=33FOTY3KEN7VF8X96E12YYAL1Z8C1X&tp_b=33FOTY3KEN7VF8X96E12YYAL1Z8C1X&c=365198&tp_c=365198","heads":2,"tails":8,"studentIndex":4,"studentTrueHypers":{"a":1,"b":4},"studentGuess":0.2,"delta":0,"totalExamples":10,"bonusSoFar":1.1},{"rt":null,"stimulus":"Sending examples to student... ","response":null,"trial_type":"html-keyboard-response","trial_index":45,"time_elapsed":999841,"internal_node_id":"0.0-35.0","params":{"nStudents":24,"maxFlips":30,"completionMinutes":45,"basePay":8,"maxBonus":9,"perTrialBonus":0.5,"perTrialBonusThreshold":0.1,"exampleCost":0.01},"classroomParams":{"A":{"a":1,"b":4},"B":{"a":4,"b":1},"C":{"a":2,"b":8},"D":{"a":8,"b":2}},"conditions":["nonSeqFull","nonSeqPartial","seqNoFeedback","seqFeedback"],"classroomPairings":[["A","B"],["C","D"]],"coinWeights":[0.2,0.5,0.8],"subjectId":"AZNIEFUIVB2H0","assignmentId":"33FOTY3KEN7VF8X96E12YYAL1Z8C1X","hitId":"3QGHA0EA0JM3KKNCY0PQRLYAHJ3BWH","url":"https://gershmanlab.com/experiments/alicia/teaching/experiment/?hitId=3QGHA0EA0JM3KKNCY0PQRLYAHJ3BWH&workerId=AZNIEFUIVB2H0&assignmentId=33FOTY3KEN7VF8X96E12YYAL1Z8C1X&a=KTF38&tp_a=KTF38&b=33FOTY3KEN7VF8X96E12YYAL1Z8C1X&tp_b=33FOTY3KEN7VF8X96E12YYAL1Z8C1X&c=365198&tp_c=365198"},{"rt":null,"stimulus":"Examples sent to student! Waiting for student...","response":null,"trial_type":"html-keyboard-response","trial_index":46,"time_elapsed":1004848,"internal_node_id":"0.0-36.0","params":{"nStudents":24,"maxFlips":30,"completionMinutes":45,"basePay":8,"maxBonus":9,"perTrialBonus":0.5,"perTrialBonusThreshold":0.1,"exampleCost":0.01},"classroomParams":{"A":{"a":1,"b":4},"B":{"a":4,"b":1},"C":{"a":2,"b":8},"D":{"a":8,"b":2}},"conditions":["nonSeqFull","nonSeqPartial","seqNoFeedback","seqFeedback"],"classroomPairings":[["A","B"],["C","D"]],"coinWeights":[0.2,0.5,0.8],"subjectId":"AZNIEFUIVB2H0","assignmentId":"33FOTY3KEN7VF8X96E12YYAL1Z8C1X","hitId":"3QGHA0EA0JM3KKNCY0PQRLYAHJ3BWH","url":"https://gershmanlab.com/experiments/alicia/teaching/experiment/?hitId=3QGHA0EA0JM3KKNCY0PQRLYAHJ3BWH&workerId=AZNIEFUIVB2H0&assignmentId=33FOTY3KEN7VF8X96E12YYAL1Z8C1X&a=KTF38&tp_a=KTF38&b=33FOTY3KEN7VF8X96E12YYAL1Z8C1X&tp_b=33FOTY3KEN7VF8X96E12YYAL1Z8C1X&c=365198&tp_c=365198"},{"rt":22107,"response":{"heads":"8","tails":"8"},"type":"response","condition":"seqNoFeedback","trueTheta":0.2,"classrooms":["A","B"],"studentTrueClassroom":"A","exampleSet":"second","trial_type":"survey-html-form","trial_index":47,"time_elapsed":1026959,"internal_node_id":"0.0-37.0-0.0","params":{"nStudents":24,"maxFlips":30,"completionMinutes":45,"basePay":8,"maxBonus":9,"perTrialBonus":0.5,"perTrialBonusThreshold":0.1,"exampleCost":0.01},"classroomParams":{"A":{"a":1,"b":4},"B":{"a":4,"b":1},"C":{"a":2,"b":8},"D":{"a":8,"b":2}},"conditions":["nonSeqFull","nonSeqPartial","seqNoFeedback","seqFeedback"],"classroomPairings":[["A","B"],["C","D"]],"coinWeights":[0.2,0.5,0.8],"subjectId":"AZNIEFUIVB2H0","assignmentId":"33FOTY3KEN7VF8X96E12YYAL1Z8C1X","hitId":"3QGHA0EA0JM3KKNCY0PQRLYAHJ3BWH","url":"https://gershmanlab.com/experiments/alicia/teaching/experiment/?hitId=3QGHA0EA0JM3KKNCY0PQRLYAHJ3BWH&workerId=AZNIEFUIVB2H0&assignmentId=33FOTY3KEN7VF8X96E12YYAL1Z8C1X&a=KTF38&tp_a=KTF38&b=33FOTY3KEN7VF8X96E12YYAL1Z8C1X&tp_b=33FOTY3KEN7VF8X96E12YYAL1Z8C1X&c=365198&tp_c=365198","firstResponseHeads":2,"firstResponseTails":8,"secondResponseHeads":8,"secondResponseTails":8,"studentIndex":4,"studentTrueHypers":{"a":1,"b":4},"studentGuess":0.3548387096774194,"delta":0.15483870967741936,"bonus":0,"bonusSoFar":1.1,"totalExamples":26},{"rt":null,"stimulus":"Sending examples to student... ","response":null,"trial_type":"html-keyboard-response","trial_index":48,"time_elapsed":1028464,"internal_node_id":"0.0-38.0","params":{"nStudents":24,"maxFlips":30,"completionMinutes":45,"basePay":8,"maxBonus":9,"perTrialBonus":0.5,"perTrialBonusThreshold":0.1,"exampleCost":0.01},"classroomParams":{"A":{"a":1,"b":4},"B":{"a":4,"b":1},"C":{"a":2,"b":8},"D":{"a":8,"b":2}},"conditions":["nonSeqFull","nonSeqPartial","seqNoFeedback","seqFeedback"],"classroomPairings":[["A","B"],["C","D"]],"coinWeights":[0.2,0.5,0.8],"subjectId":"AZNIEFUIVB2H0","assignmentId":"33FOTY3KEN7VF8X96E12YYAL1Z8C1X","hitId":"3QGHA0EA0JM3KKNCY0PQRLYAHJ3BWH","url":"https://gershmanlab.com/experiments/alicia/teaching/experiment/?hitId=3QGHA0EA0JM3KKNCY0PQRLYAHJ3BWH&workerId=AZNIEFUIVB2H0&assignmentId=33FOTY3KEN7VF8X96E12YYAL1Z8C1X&a=KTF38&tp_a=KTF38&b=33FOTY3KEN7VF8X96E12YYAL1Z8C1X&tp_b=33FOTY3KEN7VF8X96E12YYAL1Z8C1X&c=365198&tp_c=365198"},{"rt":null,"stimulus":"Examples sent to student! Waiting for student...","response":null,"trial_type":"html-keyboard-response","trial_index":49,"time_elapsed":1032965,"internal_node_id":"0.0-39.0","params":{"nStudents":24,"maxFlips":30,"completionMinutes":45,"basePay":8,"maxBonus":9,"perTrialBonus":0.5,"perTrialBonusThreshold":0.1,"exampleCost":0.01},"classroomParams":{"A":{"a":1,"b":4},"B":{"a":4,"b":1},"C":{"a":2,"b":8},"D":{"a":8,"b":2}},"conditions":["nonSeqFull","nonSeqPartial","seqNoFeedback","seqFeedback"],"classroomPairings":[["A","B"],["C","D"]],"coinWeights":[0.2,0.5,0.8],"subjectId":"AZNIEFUIVB2H0","assignmentId":"33FOTY3KEN7VF8X96E12YYAL1Z8C1X","hitId":"3QGHA0EA0JM3KKNCY0PQRLYAHJ3BWH","url":"https://gershmanlab.com/experiments/alicia/teaching/experiment/?hitId=3QGHA0EA0JM3KKNCY0PQRLYAHJ3BWH&workerId=AZNIEFUIVB2H0&assignmentId=33FOTY3KEN7VF8X96E12YYAL1Z8C1X&a=KTF38&tp_a=KTF38&b=33FOTY3KEN7VF8X96E12YYAL1Z8C1X&tp_b=33FOTY3KEN7VF8X96E12YYAL1Z8C1X&c=365198&tp_c=365198"},{"rt":5734,"stimulus":"\n                <p>Student 5's first guess for coin weight: <b style=\"color:Tomato\";>0.20</b></p>\n                <p>Student 5's second guess for coin weight: <b style=\"color:Tomato\";>0.35</b></p>\n                <p>You received a bonus of <b>$0.00</b> based on the student's second guess.</p>\n                <p>Total bonus so far: <b>$1.10</b></p>\n                <p>Press any key to continue.</p>\n                ","response":" ","trial_type":"html-keyboard-response","trial_index":50,"time_elapsed":1038700,"internal_node_id":"0.0-40.0","params":{"nStudents":24,"maxFlips":30,"completionMinutes":45,"basePay":8,"maxBonus":9,"perTrialBonus":0.5,"perTrialBonusThreshold":0.1,"exampleCost":0.01},"classroomParams":{"A":{"a":1,"b":4},"B":{"a":4,"b":1},"C":{"a":2,"b":8},"D":{"a":8,"b":2}},"conditions":["nonSeqFull","nonSeqPartial","seqNoFeedback","seqFeedback"],"classroomPairings":[["A","B"],["C","D"]],"coinWeights":[0.2,0.5,0.8],"subjectId":"AZNIEFUIVB2H0","assignmentId":"33FOTY3KEN7VF8X96E12YYAL1Z8C1X","hitId":"3QGHA0EA0JM3KKNCY0PQRLYAHJ3BWH","url":"https://gershmanlab.com/experiments/alicia/teaching/experiment/?hitId=3QGHA0EA0JM3KKNCY0PQRLYAHJ3BWH&workerId=AZNIEFUIVB2H0&assignmentId=33FOTY3KEN7VF8X96E12YYAL1Z8C1X&a=KTF38&tp_a=KTF38&b=33FOTY3KEN7VF8X96E12YYAL1Z8C1X&tp_b=33FOTY3KEN7VF8X96E12YYAL1Z8C1X&c=365198&tp_c=365198"},{"rt":null,"stimulus":"<div style=\"font-size:60px;\">Next student</div>","response":null,"trial_type":"html-keyboard-response","trial_index":51,"time_elapsed":1040957,"internal_node_id":"0.0-41.0-0.0","params":{"nStudents":24,"maxFlips":30,"completionMinutes":45,"basePay":8,"maxBonus":9,"perTrialBonus":0.5,"perTrialBonusThreshold":0.1,"exampleCost":0.01},"classroomParams":{"A":{"a":1,"b":4},"B":{"a":4,"b":1},"C":{"a":2,"b":8},"D":{"a":8,"b":2}},"conditions":["nonSeqFull","nonSeqPartial","seqNoFeedback","seqFeedback"],"classroomPairings":[["A","B"],["C","D"]],"coinWeights":[0.2,0.5,0.8],"subjectId":"AZNIEFUIVB2H0","assignmentId":"33FOTY3KEN7VF8X96E12YYAL1Z8C1X","hitId":"3QGHA0EA0JM3KKNCY0PQRLYAHJ3BWH","url":"https://gershmanlab.com/experiments/alicia/teaching/experiment/?hitId=3QGHA0EA0JM3KKNCY0PQRLYAHJ3BWH&workerId=AZNIEFUIVB2H0&assignmentId=33FOTY3KEN7VF8X96E12YYAL1Z8C1X&a=KTF38&tp_a=KTF38&b=33FOTY3KEN7VF8X96E12YYAL1Z8C1X&tp_b=33FOTY3KEN7VF8X96E12YYAL1Z8C1X&c=365198&tp_c=365198"},{"rt":2227,"stimulus":"\n            <h4 style=\"color:Orange;\">Student 6</h4>\n            <h2>The weight of your coin is <b style=\"color:Tomato;\">0.8</b>.</h2>\n            <p>In this block, you will be giving <b>two</b> sets of examples to Student 6.</p>\n                <p>You will receive feedback at the end of the block.</p>\n            ","response":0,"trial_type":"html-button-response","trial_index":52,"time_elapsed":1043185,"internal_node_id":"0.0-42.0","params":{"nStudents":24,"maxFlips":30,"completionMinutes":45,"basePay":8,"maxBonus":9,"perTrialBonus":0.5,"perTrialBonusThreshold":0.1,"exampleCost":0.01},"classroomParams":{"A":{"a":1,"b":4},"B":{"a":4,"b":1},"C":{"a":2,"b":8},"D":{"a":8,"b":2}},"conditions":["nonSeqFull","nonSeqPartial","seqNoFeedback","seqFeedback"],"classroomPairings":[["A","B"],["C","D"]],"coinWeights":[0.2,0.5,0.8],"subjectId":"AZNIEFUIVB2H0","assignmentId":"33FOTY3KEN7VF8X96E12YYAL1Z8C1X","hitId":"3QGHA0EA0JM3KKNCY0PQRLYAHJ3BWH","url":"https://gershmanlab.com/experiments/alicia/teaching/experiment/?hitId=3QGHA0EA0JM3KKNCY0PQRLYAHJ3BWH&workerId=AZNIEFUIVB2H0&assignmentId=33FOTY3KEN7VF8X96E12YYAL1Z8C1X&a=KTF38&tp_a=KTF38&b=33FOTY3KEN7VF8X96E12YYAL1Z8C1X&tp_b=33FOTY3KEN7VF8X96E12YYAL1Z8C1X&c=365198&tp_c=365198"},{"rt":19939,"response":{"heads":"10","tails":"0"},"type":"response","condition":"seqNoFeedback","trueTheta":0.8,"classrooms":["C","D"],"studentTrueClassroom":"D","exampleSet":"first","trial_type":"survey-html-form","trial_index":53,"time_elapsed":1063128,"internal_node_id":"0.0-43.0-0.0","params":{"nStudents":24,"maxFlips":30,"completionMinutes":45,"basePay":8,"maxBonus":9,"perTrialBonus":0.5,"perTrialBonusThreshold":0.1,"exampleCost":0.01},"classroomParams":{"A":{"a":1,"b":4},"B":{"a":4,"b":1},"C":{"a":2,"b":8},"D":{"a":8,"b":2}},"conditions":["nonSeqFull","nonSeqPartial","seqNoFeedback","seqFeedback"],"classroomPairings":[["A","B"],["C","D"]],"coinWeights":[0.2,0.5,0.8],"subjectId":"AZNIEFUIVB2H0","assignmentId":"33FOTY3KEN7VF8X96E12YYAL1Z8C1X","hitId":"3QGHA0EA0JM3KKNCY0PQRLYAHJ3BWH","url":"https://gershmanlab.com/experiments/alicia/teaching/experiment/?hitId=3QGHA0EA0JM3KKNCY0PQRLYAHJ3BWH&workerId=AZNIEFUIVB2H0&assignmentId=33FOTY3KEN7VF8X96E12YYAL1Z8C1X&a=KTF38&tp_a=KTF38&b=33FOTY3KEN7VF8X96E12YYAL1Z8C1X&tp_b=33FOTY3KEN7VF8X96E12YYAL1Z8C1X&c=365198&tp_c=365198","heads":10,"tails":0,"studentIndex":5,"studentTrueHypers":{"a":8,"b":2},"studentGuess":0.9,"delta":0.09999999999999998,"totalExamples":10,"bonusSoFar":1.1},{"rt":null,"stimulus":"Sending examples to student... ","response":null,"trial_type":"html-keyboard-response","trial_index":54,"time_elapsed":1065142,"internal_node_id":"0.0-44.0","params":{"nStudents":24,"maxFlips":30,"completionMinutes":45,"basePay":8,"maxBonus":9,"perTrialBonus":0.5,"perTrialBonusThreshold":0.1,"exampleCost":0.01},"classroomParams":{"A":{"a":1,"b":4},"B":{"a":4,"b":1},"C":{"a":2,"b":8},"D":{"a":8,"b":2}},"conditions":["nonSeqFull","nonSeqPartial","seqNoFeedback","seqFeedback"],"classroomPairings":[["A","B"],["C","D"]],"coinWeights":[0.2,0.5,0.8],"subjectId":"AZNIEFUIVB2H0","assignmentId":"33FOTY3KEN7VF8X96E12YYAL1Z8C1X","hitId":"3QGHA0EA0JM3KKNCY0PQRLYAHJ3BWH","url":"https://gershmanlab.com/experiments/alicia/teaching/experiment/?hitId=3QGHA0EA0JM3KKNCY0PQRLYAHJ3BWH&workerId=AZNIEFUIVB2H0&assignmentId=33FOTY3KEN7VF8X96E12YYAL1Z8C1X&a=KTF38&tp_a=KTF38&b=33FOTY3KEN7VF8X96E12YYAL1Z8C1X&tp_b=33FOTY3KEN7VF8X96E12YYAL1Z8C1X&c=365198&tp_c=365198"},{"rt":null,"stimulus":"Examples sent to student! Waiting for student...","response":null,"trial_type":"html-keyboard-response","trial_index":55,"time_elapsed":1069143,"internal_node_id":"0.0-45.0","params":{"nStudents":24,"maxFlips":30,"completionMinutes":45,"basePay":8,"maxBonus":9,"perTrialBonus":0.5,"perTrialBonusThreshold":0.1,"exampleCost":0.01},"classroomParams":{"A":{"a":1,"b":4},"B":{"a":4,"b":1},"C":{"a":2,"b":8},"D":{"a":8,"b":2}},"conditions":["nonSeqFull","nonSeqPartial","seqNoFeedback","seqFeedback"],"classroomPairings":[["A","B"],["C","D"]],"coinWeights":[0.2,0.5,0.8],"subjectId":"AZNIEFUIVB2H0","assignmentId":"33FOTY3KEN7VF8X96E12YYAL1Z8C1X","hitId":"3QGHA0EA0JM3KKNCY0PQRLYAHJ3BWH","url":"https://gershmanlab.com/experiments/alicia/teaching/experiment/?hitId=3QGHA0EA0JM3KKNCY0PQRLYAHJ3BWH&workerId=AZNIEFUIVB2H0&assignmentId=33FOTY3KEN7VF8X96E12YYAL1Z8C1X&a=KTF38&tp_a=KTF38&b=33FOTY3KEN7VF8X96E12YYAL1Z8C1X&tp_b=33FOTY3KEN7VF8X96E12YYAL1Z8C1X&c=365198&tp_c=365198"},{"rt":8121,"response":{"heads":"8","tails":"0"},"type":"response","condition":"seqNoFeedback","trueTheta":0.8,"classrooms":["C","D"],"studentTrueClassroom":"D","exampleSet":"second","trial_type":"survey-html-form","trial_index":56,"time_elapsed":1077271,"internal_node_id":"0.0-46.0-0.0","params":{"nStudents":24,"maxFlips":30,"completionMinutes":45,"basePay":8,"maxBonus":9,"perTrialBonus":0.5,"perTrialBonusThreshold":0.1,"exampleCost":0.01},"classroomParams":{"A":{"a":1,"b":4},"B":{"a":4,"b":1},"C":{"a":2,"b":8},"D":{"a":8,"b":2}},"conditions":["nonSeqFull","nonSeqPartial","seqNoFeedback","seqFeedback"],"classroomPairings":[["A","B"],["C","D"]],"coinWeights":[0.2,0.5,0.8],"subjectId":"AZNIEFUIVB2H0","assignmentId":"33FOTY3KEN7VF8X96E12YYAL1Z8C1X","hitId":"3QGHA0EA0JM3KKNCY0PQRLYAHJ3BWH","url":"https://gershmanlab.com/experiments/alicia/teaching/experiment/?hitId=3QGHA0EA0JM3KKNCY0PQRLYAHJ3BWH&workerId=AZNIEFUIVB2H0&assignmentId=33FOTY3KEN7VF8X96E12YYAL1Z8C1X&a=KTF38&tp_a=KTF38&b=33FOTY3KEN7VF8X96E12YYAL1Z8C1X&tp_b=33FOTY3KEN7VF8X96E12YYAL1Z8C1X&c=365198&tp_c=365198","firstResponseHeads":10,"firstResponseTails":0,"secondResponseHeads":8,"secondResponseTails":0,"studentIndex":5,"studentTrueHypers":{"a":8,"b":2},"studentGuess":0.9285714285714286,"delta":0.12857142857142856,"bonus":0,"bonusSoFar":1.1,"totalExamples":18},{"rt":null,"stimulus":"Sending examples to student... ","response":null,"trial_type":"html-keyboard-response","trial_index":57,"time_elapsed":1078532,"internal_node_id":"0.0-47.0","params":{"nStudents":24,"maxFlips":30,"completionMinutes":45,"basePay":8,"maxBonus":9,"perTrialBonus":0.5,"perTrialBonusThreshold":0.1,"exampleCost":0.01},"classroomParams":{"A":{"a":1,"b":4},"B":{"a":4,"b":1},"C":{"a":2,"b":8},"D":{"a":8,"b":2}},"conditions":["nonSeqFull","nonSeqPartial","seqNoFeedback","seqFeedback"],"classroomPairings":[["A","B"],["C","D"]],"coinWeights":[0.2,0.5,0.8],"subjectId":"AZNIEFUIVB2H0","assignmentId":"33FOTY3KEN7VF8X96E12YYAL1Z8C1X","hitId":"3QGHA0EA0JM3KKNCY0PQRLYAHJ3BWH","url":"https://gershmanlab.com/experiments/alicia/teaching/experiment/?hitId=3QGHA0EA0JM3KKNCY0PQRLYAHJ3BWH&workerId=AZNIEFUIVB2H0&assignmentId=33FOTY3KEN7VF8X96E12YYAL1Z8C1X&a=KTF38&tp_a=KTF38&b=33FOTY3KEN7VF8X96E12YYAL1Z8C1X&tp_b=33FOTY3KEN7VF8X96E12YYAL1Z8C1X&c=365198&tp_c=365198"},{"rt":null,"stimulus":"Examples sent to student! Waiting for student...","response":null,"trial_type":"html-keyboard-response","trial_index":58,"time_elapsed":1084035,"internal_node_id":"0.0-48.0","params":{"nStudents":24,"maxFlips":30,"completionMinutes":45,"basePay":8,"maxBonus":9,"perTrialBonus":0.5,"perTrialBonusThreshold":0.1,"exampleCost":0.01},"classroomParams":{"A":{"a":1,"b":4},"B":{"a":4,"b":1},"C":{"a":2,"b":8},"D":{"a":8,"b":2}},"conditions":["nonSeqFull","nonSeqPartial","seqNoFeedback","seqFeedback"],"classroomPairings":[["A","B"],["C","D"]],"coinWeights":[0.2,0.5,0.8],"subjectId":"AZNIEFUIVB2H0","assignmentId":"33FOTY3KEN7VF8X96E12YYAL1Z8C1X","hitId":"3QGHA0EA0JM3KKNCY0PQRLYAHJ3BWH","url":"https://gershmanlab.com/experiments/alicia/teaching/experiment/?hitId=3QGHA0EA0JM3KKNCY0PQRLYAHJ3BWH&workerId=AZNIEFUIVB2H0&assignmentId=33FOTY3KEN7VF8X96E12YYAL1Z8C1X&a=KTF38&tp_a=KTF38&b=33FOTY3KEN7VF8X96E12YYAL1Z8C1X&tp_b=33FOTY3KEN7VF8X96E12YYAL1Z8C1X&c=365198&tp_c=365198"},{"rt":14862,"stimulus":"\n                <p>Student 6's first guess for coin weight: <b style=\"color:Tomato\";>0.90</b></p>\n                <p>Student 6's second guess for coin weight: <b style=\"color:Tomato\";>0.93</b></p>\n                <p>You received a bonus of <b>$0.00</b> based on the student's second guess.</p>\n                <p>Total bonus so far: <b>$1.10</b></p>\n                <p>Press any key to continue.</p>\n                ","response":" ","trial_type":"html-keyboard-response","trial_index":59,"time_elapsed":1098898,"internal_node_id":"0.0-49.0","params":{"nStudents":24,"maxFlips":30,"completionMinutes":45,"basePay":8,"maxBonus":9,"perTrialBonus":0.5,"perTrialBonusThreshold":0.1,"exampleCost":0.01},"classroomParams":{"A":{"a":1,"b":4},"B":{"a":4,"b":1},"C":{"a":2,"b":8},"D":{"a":8,"b":2}},"conditions":["nonSeqFull","nonSeqPartial","seqNoFeedback","seqFeedback"],"classroomPairings":[["A","B"],["C","D"]],"coinWeights":[0.2,0.5,0.8],"subjectId":"AZNIEFUIVB2H0","assignmentId":"33FOTY3KEN7VF8X96E12YYAL1Z8C1X","hitId":"3QGHA0EA0JM3KKNCY0PQRLYAHJ3BWH","url":"https://gershmanlab.com/experiments/alicia/teaching/experiment/?hitId=3QGHA0EA0JM3KKNCY0PQRLYAHJ3BWH&workerId=AZNIEFUIVB2H0&assignmentId=33FOTY3KEN7VF8X96E12YYAL1Z8C1X&a=KTF38&tp_a=KTF38&b=33FOTY3KEN7VF8X96E12YYAL1Z8C1X&tp_b=33FOTY3KEN7VF8X96E12YYAL1Z8C1X&c=365198&tp_c=365198"},{"rt":null,"stimulus":"<div style=\"font-size:60px;\">Next student</div>","response":null,"trial_type":"html-keyboard-response","trial_index":60,"time_elapsed":1101400,"internal_node_id":"0.0-50.0-0.0","params":{"nStudents":24,"maxFlips":30,"completionMinutes":45,"basePay":8,"maxBonus":9,"perTrialBonus":0.5,"perTrialBonusThreshold":0.1,"exampleCost":0.01},"classroomParams":{"A":{"a":1,"b":4},"B":{"a":4,"b":1},"C":{"a":2,"b":8},"D":{"a":8,"b":2}},"conditions":["nonSeqFull","nonSeqPartial","seqNoFeedback","seqFeedback"],"classroomPairings":[["A","B"],["C","D"]],"coinWeights":[0.2,0.5,0.8],"subjectId":"AZNIEFUIVB2H0","assignmentId":"33FOTY3KEN7VF8X96E12YYAL1Z8C1X","hitId":"3QGHA0EA0JM3KKNCY0PQRLYAHJ3BWH","url":"https://gershmanlab.com/experiments/alicia/teaching/experiment/?hitId=3QGHA0EA0JM3KKNCY0PQRLYAHJ3BWH&workerId=AZNIEFUIVB2H0&assignmentId=33FOTY3KEN7VF8X96E12YYAL1Z8C1X&a=KTF38&tp_a=KTF38&b=33FOTY3KEN7VF8X96E12YYAL1Z8C1X&tp_b=33FOTY3KEN7VF8X96E12YYAL1Z8C1X&c=365198&tp_c=365198"},{"rt":1604,"stimulus":"\n            <h4 style=\"color:Orange;\">Student 7</h4>\n            <h2>The weight of your coin is <b style=\"color:Tomato;\">0.5</b>.</h2>\n            <p>In this block, you will be giving <b>two</b> sets of examples to Student 7.</p>\n                <p>You will receive feedback at the end of the block.</p>\n            ","response":0,"trial_type":"html-button-response","trial_index":61,"time_elapsed":1103005,"internal_node_id":"0.0-51.0","params":{"nStudents":24,"maxFlips":30,"completionMinutes":45,"basePay":8,"maxBonus":9,"perTrialBonus":0.5,"perTrialBonusThreshold":0.1,"exampleCost":0.01},"classroomParams":{"A":{"a":1,"b":4},"B":{"a":4,"b":1},"C":{"a":2,"b":8},"D":{"a":8,"b":2}},"conditions":["nonSeqFull","nonSeqPartial","seqNoFeedback","seqFeedback"],"classroomPairings":[["A","B"],["C","D"]],"coinWeights":[0.2,0.5,0.8],"subjectId":"AZNIEFUIVB2H0","assignmentId":"33FOTY3KEN7VF8X96E12YYAL1Z8C1X","hitId":"3QGHA0EA0JM3KKNCY0PQRLYAHJ3BWH","url":"https://gershmanlab.com/experiments/alicia/teaching/experiment/?hitId=3QGHA0EA0JM3KKNCY0PQRLYAHJ3BWH&workerId=AZNIEFUIVB2H0&assignmentId=33FOTY3KEN7VF8X96E12YYAL1Z8C1X&a=KTF38&tp_a=KTF38&b=33FOTY3KEN7VF8X96E12YYAL1Z8C1X&tp_b=33FOTY3KEN7VF8X96E12YYAL1Z8C1X&c=365198&tp_c=365198"},{"rt":15969,"response":{"heads":"6","tails":"6"},"type":"response","condition":"seqNoFeedback","trueTheta":0.5,"classrooms":["C","D"],"studentTrueClassroom":"D","exampleSet":"first","trial_type":"survey-html-form","trial_index":62,"time_elapsed":1118977,"internal_node_id":"0.0-52.0-0.0","params":{"nStudents":24,"maxFlips":30,"completionMinutes":45,"basePay":8,"maxBonus":9,"perTrialBonus":0.5,"perTrialBonusThreshold":0.1,"exampleCost":0.01},"classroomParams":{"A":{"a":1,"b":4},"B":{"a":4,"b":1},"C":{"a":2,"b":8},"D":{"a":8,"b":2}},"conditions":["nonSeqFull","nonSeqPartial","seqNoFeedback","seqFeedback"],"classroomPairings":[["A","B"],["C","D"]],"coinWeights":[0.2,0.5,0.8],"subjectId":"AZNIEFUIVB2H0","assignmentId":"33FOTY3KEN7VF8X96E12YYAL1Z8C1X","hitId":"3QGHA0EA0JM3KKNCY0PQRLYAHJ3BWH","url":"https://gershmanlab.com/experiments/alicia/teaching/experiment/?hitId=3QGHA0EA0JM3KKNCY0PQRLYAHJ3BWH&workerId=AZNIEFUIVB2H0&assignmentId=33FOTY3KEN7VF8X96E12YYAL1Z8C1X&a=KTF38&tp_a=KTF38&b=33FOTY3KEN7VF8X96E12YYAL1Z8C1X&tp_b=33FOTY3KEN7VF8X96E12YYAL1Z8C1X&c=365198&tp_c=365198","heads":6,"tails":6,"studentIndex":6,"studentTrueHypers":{"a":8,"b":2},"studentGuess":0.6363636363636364,"delta":0.13636363636363635,"totalExamples":12,"bonusSoFar":1.1},{"rt":null,"stimulus":"Sending examples to student... ","response":null,"trial_type":"html-keyboard-response","trial_index":63,"time_elapsed":1120238,"internal_node_id":"0.0-53.0","params":{"nStudents":24,"maxFlips":30,"completionMinutes":45,"basePay":8,"maxBonus":9,"perTrialBonus":0.5,"perTrialBonusThreshold":0.1,"exampleCost":0.01},"classroomParams":{"A":{"a":1,"b":4},"B":{"a":4,"b":1},"C":{"a":2,"b":8},"D":{"a":8,"b":2}},"conditions":["nonSeqFull","nonSeqPartial","seqNoFeedback","seqFeedback"],"classroomPairings":[["A","B"],["C","D"]],"coinWeights":[0.2,0.5,0.8],"subjectId":"AZNIEFUIVB2H0","assignmentId":"33FOTY3KEN7VF8X96E12YYAL1Z8C1X","hitId":"3QGHA0EA0JM3KKNCY0PQRLYAHJ3BWH","url":"https://gershmanlab.com/experiments/alicia/teaching/experiment/?hitId=3QGHA0EA0JM3KKNCY0PQRLYAHJ3BWH&workerId=AZNIEFUIVB2H0&assignmentId=33FOTY3KEN7VF8X96E12YYAL1Z8C1X&a=KTF38&tp_a=KTF38&b=33FOTY3KEN7VF8X96E12YYAL1Z8C1X&tp_b=33FOTY3KEN7VF8X96E12YYAL1Z8C1X&c=365198&tp_c=365198"},{"rt":null,"stimulus":"Examples sent to student! Waiting for student...","response":null,"trial_type":"html-keyboard-response","trial_index":64,"time_elapsed":1125753,"internal_node_id":"0.0-54.0","params":{"nStudents":24,"maxFlips":30,"completionMinutes":45,"basePay":8,"maxBonus":9,"perTrialBonus":0.5,"perTrialBonusThreshold":0.1,"exampleCost":0.01},"classroomParams":{"A":{"a":1,"b":4},"B":{"a":4,"b":1},"C":{"a":2,"b":8},"D":{"a":8,"b":2}},"conditions":["nonSeqFull","nonSeqPartial","seqNoFeedback","seqFeedback"],"classroomPairings":[["A","B"],["C","D"]],"coinWeights":[0.2,0.5,0.8],"subjectId":"AZNIEFUIVB2H0","assignmentId":"33FOTY3KEN7VF8X96E12YYAL1Z8C1X","hitId":"3QGHA0EA0JM3KKNCY0PQRLYAHJ3BWH","url":"https://gershmanlab.com/experiments/alicia/teaching/experiment/?hitId=3QGHA0EA0JM3KKNCY0PQRLYAHJ3BWH&workerId=AZNIEFUIVB2H0&assignmentId=33FOTY3KEN7VF8X96E12YYAL1Z8C1X&a=KTF38&tp_a=KTF38&b=33FOTY3KEN7VF8X96E12YYAL1Z8C1X&tp_b=33FOTY3KEN7VF8X96E12YYAL1Z8C1X&c=365198&tp_c=365198"},{"rt":11414,"response":{"heads":"8","tails":"8"},"type":"response","condition":"seqNoFeedback","trueTheta":0.5,"classrooms":["C","D"],"studentTrueClassroom":"D","exampleSet":"second","trial_type":"survey-html-form","trial_index":65,"time_elapsed":1137174,"internal_node_id":"0.0-55.0-0.0","params":{"nStudents":24,"maxFlips":30,"completionMinutes":45,"basePay":8,"maxBonus":9,"perTrialBonus":0.5,"perTrialBonusThreshold":0.1,"exampleCost":0.01},"classroomParams":{"A":{"a":1,"b":4},"B":{"a":4,"b":1},"C":{"a":2,"b":8},"D":{"a":8,"b":2}},"conditions":["nonSeqFull","nonSeqPartial","seqNoFeedback","seqFeedback"],"classroomPairings":[["A","B"],["C","D"]],"coinWeights":[0.2,0.5,0.8],"subjectId":"AZNIEFUIVB2H0","assignmentId":"33FOTY3KEN7VF8X96E12YYAL1Z8C1X","hitId":"3QGHA0EA0JM3KKNCY0PQRLYAHJ3BWH","url":"https://gershmanlab.com/experiments/alicia/teaching/experiment/?hitId=3QGHA0EA0JM3KKNCY0PQRLYAHJ3BWH&workerId=AZNIEFUIVB2H0&assignmentId=33FOTY3KEN7VF8X96E12YYAL1Z8C1X&a=KTF38&tp_a=KTF38&b=33FOTY3KEN7VF8X96E12YYAL1Z8C1X&tp_b=33FOTY3KEN7VF8X96E12YYAL1Z8C1X&c=365198&tp_c=365198","firstResponseHeads":6,"firstResponseTails":6,"secondResponseHeads":8,"secondResponseTails":8,"studentIndex":6,"studentTrueHypers":{"a":8,"b":2},"studentGuess":0.5789473684210527,"delta":0.07894736842105265,"bonus":0.22,"bonusSoFar":1.32,"totalExamples":28},{"rt":null,"stimulus":"Sending examples to student... ","response":null,"trial_type":"html-keyboard-response","trial_index":66,"time_elapsed":1139181,"internal_node_id":"0.0-56.0","params":{"nStudents":24,"maxFlips":30,"completionMinutes":45,"basePay":8,"maxBonus":9,"perTrialBonus":0.5,"perTrialBonusThreshold":0.1,"exampleCost":0.01},"classroomParams":{"A":{"a":1,"b":4},"B":{"a":4,"b":1},"C":{"a":2,"b":8},"D":{"a":8,"b":2}},"conditions":["nonSeqFull","nonSeqPartial","seqNoFeedback","seqFeedback"],"classroomPairings":[["A","B"],["C","D"]],"coinWeights":[0.2,0.5,0.8],"subjectId":"AZNIEFUIVB2H0","assignmentId":"33FOTY3KEN7VF8X96E12YYAL1Z8C1X","hitId":"3QGHA0EA0JM3KKNCY0PQRLYAHJ3BWH","url":"https://gershmanlab.com/experiments/alicia/teaching/experiment/?hitId=3QGHA0EA0JM3KKNCY0PQRLYAHJ3BWH&workerId=AZNIEFUIVB2H0&assignmentId=33FOTY3KEN7VF8X96E12YYAL1Z8C1X&a=KTF38&tp_a=KTF38&b=33FOTY3KEN7VF8X96E12YYAL1Z8C1X&tp_b=33FOTY3KEN7VF8X96E12YYAL1Z8C1X&c=365198&tp_c=365198"},{"rt":null,"stimulus":"Examples sent to student! Waiting for student...","response":null,"trial_type":"html-keyboard-response","trial_index":67,"time_elapsed":1145194,"internal_node_id":"0.0-57.0","params":{"nStudents":24,"maxFlips":30,"completionMinutes":45,"basePay":8,"maxBonus":9,"perTrialBonus":0.5,"perTrialBonusThreshold":0.1,"exampleCost":0.01},"classroomParams":{"A":{"a":1,"b":4},"B":{"a":4,"b":1},"C":{"a":2,"b":8},"D":{"a":8,"b":2}},"conditions":["nonSeqFull","nonSeqPartial","seqNoFeedback","seqFeedback"],"classroomPairings":[["A","B"],["C","D"]],"coinWeights":[0.2,0.5,0.8],"subjectId":"AZNIEFUIVB2H0","assignmentId":"33FOTY3KEN7VF8X96E12YYAL1Z8C1X","hitId":"3QGHA0EA0JM3KKNCY0PQRLYAHJ3BWH","url":"https://gershmanlab.com/experiments/alicia/teaching/experiment/?hitId=3QGHA0EA0JM3KKNCY0PQRLYAHJ3BWH&workerId=AZNIEFUIVB2H0&assignmentId=33FOTY3KEN7VF8X96E12YYAL1Z8C1X&a=KTF38&tp_a=KTF38&b=33FOTY3KEN7VF8X96E12YYAL1Z8C1X&tp_b=33FOTY3KEN7VF8X96E12YYAL1Z8C1X&c=365198&tp_c=365198"},{"rt":5900,"stimulus":"\n                <p>Student 7's first guess for coin weight: <b style=\"color:Tomato\";>0.64</b></p>\n                <p>Student 7's second guess for coin weight: <b style=\"color:Tomato\";>0.58</b></p>\n                <p>You received a bonus of <b>$0.22</b> based on the student's second guess.</p>\n                <p>Total bonus so far: <b>$1.32</b></p>\n                <p>Press any key to continue.</p>\n                ","response":" ","trial_type":"html-keyboard-response","trial_index":68,"time_elapsed":1151095,"internal_node_id":"0.0-58.0","params":{"nStudents":24,"maxFlips":30,"completionMinutes":45,"basePay":8,"maxBonus":9,"perTrialBonus":0.5,"perTrialBonusThreshold":0.1,"exampleCost":0.01},"classroomParams":{"A":{"a":1,"b":4},"B":{"a":4,"b":1},"C":{"a":2,"b":8},"D":{"a":8,"b":2}},"conditions":["nonSeqFull","nonSeqPartial","seqNoFeedback","seqFeedback"],"classroomPairings":[["A","B"],["C","D"]],"coinWeights":[0.2,0.5,0.8],"subjectId":"AZNIEFUIVB2H0","assignmentId":"33FOTY3KEN7VF8X96E12YYAL1Z8C1X","hitId":"3QGHA0EA0JM3KKNCY0PQRLYAHJ3BWH","url":"https://gershmanlab.com/experiments/alicia/teaching/experiment/?hitId=3QGHA0EA0JM3KKNCY0PQRLYAHJ3BWH&workerId=AZNIEFUIVB2H0&assignmentId=33FOTY3KEN7VF8X96E12YYAL1Z8C1X&a=KTF38&tp_a=KTF38&b=33FOTY3KEN7VF8X96E12YYAL1Z8C1X&tp_b=33FOTY3KEN7VF8X96E12YYAL1Z8C1X&c=365198&tp_c=365198"},{"rt":null,"stimulus":"<div style=\"font-size:60px;\">Next student</div>","response":null,"trial_type":"html-keyboard-response","trial_index":69,"time_elapsed":1154104,"internal_node_id":"0.0-59.0-0.0","params":{"nStudents":24,"maxFlips":30,"completionMinutes":45,"basePay":8,"maxBonus":9,"perTrialBonus":0.5,"perTrialBonusThreshold":0.1,"exampleCost":0.01},"classroomParams":{"A":{"a":1,"b":4},"B":{"a":4,"b":1},"C":{"a":2,"b":8},"D":{"a":8,"b":2}},"conditions":["nonSeqFull","nonSeqPartial","seqNoFeedback","seqFeedback"],"classroomPairings":[["A","B"],["C","D"]],"coinWeights":[0.2,0.5,0.8],"subjectId":"AZNIEFUIVB2H0","assignmentId":"33FOTY3KEN7VF8X96E12YYAL1Z8C1X","hitId":"3QGHA0EA0JM3KKNCY0PQRLYAHJ3BWH","url":"https://gershmanlab.com/experiments/alicia/teaching/experiment/?hitId=3QGHA0EA0JM3KKNCY0PQRLYAHJ3BWH&workerId=AZNIEFUIVB2H0&assignmentId=33FOTY3KEN7VF8X96E12YYAL1Z8C1X&a=KTF38&tp_a=KTF38&b=33FOTY3KEN7VF8X96E12YYAL1Z8C1X&tp_b=33FOTY3KEN7VF8X96E12YYAL1Z8C1X&c=365198&tp_c=365198"},{"rt":1254,"stimulus":"\n            <h4 style=\"color:Orange;\">Student 8</h4>\n            <h2>The weight of your coin is <b style=\"color:Tomato;\">0.2</b>.</h2>\n            <p>In this block, you will be giving <b>one</b> set of examples to Student 8.</p>\n                <p>You will receive feedback at the end of the block.</p>\n            ","response":0,"trial_type":"html-button-response","trial_index":70,"time_elapsed":1155359,"internal_node_id":"0.0-60.0","params":{"nStudents":24,"maxFlips":30,"completionMinutes":45,"basePay":8,"maxBonus":9,"perTrialBonus":0.5,"perTrialBonusThreshold":0.1,"exampleCost":0.01},"classroomParams":{"A":{"a":1,"b":4},"B":{"a":4,"b":1},"C":{"a":2,"b":8},"D":{"a":8,"b":2}},"conditions":["nonSeqFull","nonSeqPartial","seqNoFeedback","seqFeedback"],"classroomPairings":[["A","B"],["C","D"]],"coinWeights":[0.2,0.5,0.8],"subjectId":"AZNIEFUIVB2H0","assignmentId":"33FOTY3KEN7VF8X96E12YYAL1Z8C1X","hitId":"3QGHA0EA0JM3KKNCY0PQRLYAHJ3BWH","url":"https://gershmanlab.com/experiments/alicia/teaching/experiment/?hitId=3QGHA0EA0JM3KKNCY0PQRLYAHJ3BWH&workerId=AZNIEFUIVB2H0&assignmentId=33FOTY3KEN7VF8X96E12YYAL1Z8C1X&a=KTF38&tp_a=KTF38&b=33FOTY3KEN7VF8X96E12YYAL1Z8C1X&tp_b=33FOTY3KEN7VF8X96E12YYAL1Z8C1X&c=365198&tp_c=365198"},{"rt":8693,"response":{"heads":"10","tails":"10"},"type":"response","condition":"nonSeqPartial","trueTheta":0.2,"classrooms":["A","B"],"studentTrueClassroom":"A","exampleSet":"first","trial_type":"survey-html-form","trial_index":71,"time_elapsed":1164056,"internal_node_id":"0.0-61.0-0.0","params":{"nStudents":24,"maxFlips":30,"completionMinutes":45,"basePay":8,"maxBonus":9,"perTrialBonus":0.5,"perTrialBonusThreshold":0.1,"exampleCost":0.01},"classroomParams":{"A":{"a":1,"b":4},"B":{"a":4,"b":1},"C":{"a":2,"b":8},"D":{"a":8,"b":2}},"conditions":["nonSeqFull","nonSeqPartial","seqNoFeedback","seqFeedback"],"classroomPairings":[["A","B"],["C","D"]],"coinWeights":[0.2,0.5,0.8],"subjectId":"AZNIEFUIVB2H0","assignmentId":"33FOTY3KEN7VF8X96E12YYAL1Z8C1X","hitId":"3QGHA0EA0JM3KKNCY0PQRLYAHJ3BWH","url":"https://gershmanlab.com/experiments/alicia/teaching/experiment/?hitId=3QGHA0EA0JM3KKNCY0PQRLYAHJ3BWH&workerId=AZNIEFUIVB2H0&assignmentId=33FOTY3KEN7VF8X96E12YYAL1Z8C1X&a=KTF38&tp_a=KTF38&b=33FOTY3KEN7VF8X96E12YYAL1Z8C1X&tp_b=33FOTY3KEN7VF8X96E12YYAL1Z8C1X&c=365198&tp_c=365198","heads":10,"tails":10,"studentIndex":7,"studentTrueHypers":{"a":1,"b":4},"studentGuess":0.44,"delta":0.24,"totalExamples":20,"bonus":0,"bonusSoFar":1.32},{"rt":null,"stimulus":"Sending examples to student... ","response":null,"trial_type":"html-keyboard-response","trial_index":72,"time_elapsed":1165566,"internal_node_id":"0.0-62.0","params":{"nStudents":24,"maxFlips":30,"completionMinutes":45,"basePay":8,"maxBonus":9,"perTrialBonus":0.5,"perTrialBonusThreshold":0.1,"exampleCost":0.01},"classroomParams":{"A":{"a":1,"b":4},"B":{"a":4,"b":1},"C":{"a":2,"b":8},"D":{"a":8,"b":2}},"conditions":["nonSeqFull","nonSeqPartial","seqNoFeedback","seqFeedback"],"classroomPairings":[["A","B"],["C","D"]],"coinWeights":[0.2,0.5,0.8],"subjectId":"AZNIEFUIVB2H0","assignmentId":"33FOTY3KEN7VF8X96E12YYAL1Z8C1X","hitId":"3QGHA0EA0JM3KKNCY0PQRLYAHJ3BWH","url":"https://gershmanlab.com/experiments/alicia/teaching/experiment/?hitId=3QGHA0EA0JM3KKNCY0PQRLYAHJ3BWH&workerId=AZNIEFUIVB2H0&assignmentId=33FOTY3KEN7VF8X96E12YYAL1Z8C1X&a=KTF38&tp_a=KTF38&b=33FOTY3KEN7VF8X96E12YYAL1Z8C1X&tp_b=33FOTY3KEN7VF8X96E12YYAL1Z8C1X&c=365198&tp_c=365198"},{"rt":null,"stimulus":"Examples sent to student! Waiting for student...","response":null,"trial_type":"html-keyboard-response","trial_index":73,"time_elapsed":1170580,"internal_node_id":"0.0-63.0","params":{"nStudents":24,"maxFlips":30,"completionMinutes":45,"basePay":8,"maxBonus":9,"perTrialBonus":0.5,"perTrialBonusThreshold":0.1,"exampleCost":0.01},"classroomParams":{"A":{"a":1,"b":4},"B":{"a":4,"b":1},"C":{"a":2,"b":8},"D":{"a":8,"b":2}},"conditions":["nonSeqFull","nonSeqPartial","seqNoFeedback","seqFeedback"],"classroomPairings":[["A","B"],["C","D"]],"coinWeights":[0.2,0.5,0.8],"subjectId":"AZNIEFUIVB2H0","assignmentId":"33FOTY3KEN7VF8X96E12YYAL1Z8C1X","hitId":"3QGHA0EA0JM3KKNCY0PQRLYAHJ3BWH","url":"https://gershmanlab.com/experiments/alicia/teaching/experiment/?hitId=3QGHA0EA0JM3KKNCY0PQRLYAHJ3BWH&workerId=AZNIEFUIVB2H0&assignmentId=33FOTY3KEN7VF8X96E12YYAL1Z8C1X&a=KTF38&tp_a=KTF38&b=33FOTY3KEN7VF8X96E12YYAL1Z8C1X&tp_b=33FOTY3KEN7VF8X96E12YYAL1Z8C1X&c=365198&tp_c=365198"},{"rt":2964,"stimulus":"\n                <p>Student's guess for coin weight: <b style=\"color:Tomato;\">0.44</b></p>\n                <p>You received a bonus of <b>$0</b>. Total bonus so far: <b>$1.32</b></b></p>\n                <p> Press any key to continue.</p>\n                ","response":" ","trial_type":"html-keyboard-response","trial_index":74,"time_elapsed":1173545,"internal_node_id":"0.0-64.0","params":{"nStudents":24,"maxFlips":30,"completionMinutes":45,"basePay":8,"maxBonus":9,"perTrialBonus":0.5,"perTrialBonusThreshold":0.1,"exampleCost":0.01},"classroomParams":{"A":{"a":1,"b":4},"B":{"a":4,"b":1},"C":{"a":2,"b":8},"D":{"a":8,"b":2}},"conditions":["nonSeqFull","nonSeqPartial","seqNoFeedback","seqFeedback"],"classroomPairings":[["A","B"],["C","D"]],"coinWeights":[0.2,0.5,0.8],"subjectId":"AZNIEFUIVB2H0","assignmentId":"33FOTY3KEN7VF8X96E12YYAL1Z8C1X","hitId":"3QGHA0EA0JM3KKNCY0PQRLYAHJ3BWH","url":"https://gershmanlab.com/experiments/alicia/teaching/experiment/?hitId=3QGHA0EA0JM3KKNCY0PQRLYAHJ3BWH&workerId=AZNIEFUIVB2H0&assignmentId=33FOTY3KEN7VF8X96E12YYAL1Z8C1X&a=KTF38&tp_a=KTF38&b=33FOTY3KEN7VF8X96E12YYAL1Z8C1X&tp_b=33FOTY3KEN7VF8X96E12YYAL1Z8C1X&c=365198&tp_c=365198"},{"rt":null,"stimulus":"<div style=\"font-size:60px;\">Next student</div>","response":null,"trial_type":"html-keyboard-response","trial_index":75,"time_elapsed":1176554,"internal_node_id":"0.0-65.0-0.0","params":{"nStudents":24,"maxFlips":30,"completionMinutes":45,"basePay":8,"maxBonus":9,"perTrialBonus":0.5,"perTrialBonusThreshold":0.1,"exampleCost":0.01},"classroomParams":{"A":{"a":1,"b":4},"B":{"a":4,"b":1},"C":{"a":2,"b":8},"D":{"a":8,"b":2}},"conditions":["nonSeqFull","nonSeqPartial","seqNoFeedback","seqFeedback"],"classroomPairings":[["A","B"],["C","D"]],"coinWeights":[0.2,0.5,0.8],"subjectId":"AZNIEFUIVB2H0","assignmentId":"33FOTY3KEN7VF8X96E12YYAL1Z8C1X","hitId":"3QGHA0EA0JM3KKNCY0PQRLYAHJ3BWH","url":"https://gershmanlab.com/experiments/alicia/teaching/experiment/?hitId=3QGHA0EA0JM3KKNCY0PQRLYAHJ3BWH&workerId=AZNIEFUIVB2H0&assignmentId=33FOTY3KEN7VF8X96E12YYAL1Z8C1X&a=KTF38&tp_a=KTF38&b=33FOTY3KEN7VF8X96E12YYAL1Z8C1X&tp_b=33FOTY3KEN7VF8X96E12YYAL1Z8C1X&c=365198&tp_c=365198"},{"rt":1437,"stimulus":"\n            <h4 style=\"color:Orange;\">Student 9</h4>\n            <h2>The weight of your coin is <b style=\"color:Tomato;\">0.5</b>.</h2>\n            <p>In this block, you will be giving <b>one</b> set of examples to Student 9.</p>\n                <p>You will receive feedback at the end of the block.</p>\n            ","response":0,"trial_type":"html-button-response","trial_index":76,"time_elapsed":1177991,"internal_node_id":"0.0-66.0","params":{"nStudents":24,"maxFlips":30,"completionMinutes":45,"basePay":8,"maxBonus":9,"perTrialBonus":0.5,"perTrialBonusThreshold":0.1,"exampleCost":0.01},"classroomParams":{"A":{"a":1,"b":4},"B":{"a":4,"b":1},"C":{"a":2,"b":8},"D":{"a":8,"b":2}},"conditions":["nonSeqFull","nonSeqPartial","seqNoFeedback","seqFeedback"],"classroomPairings":[["A","B"],["C","D"]],"coinWeights":[0.2,0.5,0.8],"subjectId":"AZNIEFUIVB2H0","assignmentId":"33FOTY3KEN7VF8X96E12YYAL1Z8C1X","hitId":"3QGHA0EA0JM3KKNCY0PQRLYAHJ3BWH","url":"https://gershmanlab.com/experiments/alicia/teaching/experiment/?hitId=3QGHA0EA0JM3KKNCY0PQRLYAHJ3BWH&workerId=AZNIEFUIVB2H0&assignmentId=33FOTY3KEN7VF8X96E12YYAL1Z8C1X&a=KTF38&tp_a=KTF38&b=33FOTY3KEN7VF8X96E12YYAL1Z8C1X&tp_b=33FOTY3KEN7VF8X96E12YYAL1Z8C1X&c=365198&tp_c=365198"},{"rt":14835,"response":{"heads":"6","tails":"0"},"type":"response","condition":"nonSeqFull","trueTheta":0.5,"classrooms":["C","D"],"studentTrueClassroom":"C","exampleSet":"first","trial_type":"survey-html-form","trial_index":77,"time_elapsed":1192831,"internal_node_id":"0.0-67.0-0.0","params":{"nStudents":24,"maxFlips":30,"completionMinutes":45,"basePay":8,"maxBonus":9,"perTrialBonus":0.5,"perTrialBonusThreshold":0.1,"exampleCost":0.01},"classroomParams":{"A":{"a":1,"b":4},"B":{"a":4,"b":1},"C":{"a":2,"b":8},"D":{"a":8,"b":2}},"conditions":["nonSeqFull","nonSeqPartial","seqNoFeedback","seqFeedback"],"classroomPairings":[["A","B"],["C","D"]],"coinWeights":[0.2,0.5,0.8],"subjectId":"AZNIEFUIVB2H0","assignmentId":"33FOTY3KEN7VF8X96E12YYAL1Z8C1X","hitId":"3QGHA0EA0JM3KKNCY0PQRLYAHJ3BWH","url":"https://gershmanlab.com/experiments/alicia/teaching/experiment/?hitId=3QGHA0EA0JM3KKNCY0PQRLYAHJ3BWH&workerId=AZNIEFUIVB2H0&assignmentId=33FOTY3KEN7VF8X96E12YYAL1Z8C1X&a=KTF38&tp_a=KTF38&b=33FOTY3KEN7VF8X96E12YYAL1Z8C1X&tp_b=33FOTY3KEN7VF8X96E12YYAL1Z8C1X&c=365198&tp_c=365198","heads":6,"tails":0,"studentIndex":8,"studentTrueHypers":{"a":2,"b":8},"studentGuess":0.5,"delta":0,"totalExamples":6,"bonus":0.44,"bonusSoFar":1.76},{"rt":null,"stimulus":"Sending examples to student... ","response":null,"trial_type":"html-keyboard-response","trial_index":78,"time_elapsed":1194088,"internal_node_id":"0.0-68.0","params":{"nStudents":24,"maxFlips":30,"completionMinutes":45,"basePay":8,"maxBonus":9,"perTrialBonus":0.5,"perTrialBonusThreshold":0.1,"exampleCost":0.01},"classroomParams":{"A":{"a":1,"b":4},"B":{"a":4,"b":1},"C":{"a":2,"b":8},"D":{"a":8,"b":2}},"conditions":["nonSeqFull","nonSeqPartial","seqNoFeedback","seqFeedback"],"classroomPairings":[["A","B"],["C","D"]],"coinWeights":[0.2,0.5,0.8],"subjectId":"AZNIEFUIVB2H0","assignmentId":"33FOTY3KEN7VF8X96E12YYAL1Z8C1X","hitId":"3QGHA0EA0JM3KKNCY0PQRLYAHJ3BWH","url":"https://gershmanlab.com/experiments/alicia/teaching/experiment/?hitId=3QGHA0EA0JM3KKNCY0PQRLYAHJ3BWH&workerId=AZNIEFUIVB2H0&assignmentId=33FOTY3KEN7VF8X96E12YYAL1Z8C1X&a=KTF38&tp_a=KTF38&b=33FOTY3KEN7VF8X96E12YYAL1Z8C1X&tp_b=33FOTY3KEN7VF8X96E12YYAL1Z8C1X&c=365198&tp_c=365198"},{"rt":null,"stimulus":"Examples sent to student! Waiting for student...","response":null,"trial_type":"html-keyboard-response","trial_index":79,"time_elapsed":1198097,"internal_node_id":"0.0-69.0","params":{"nStudents":24,"maxFlips":30,"completionMinutes":45,"basePay":8,"maxBonus":9,"perTrialBonus":0.5,"perTrialBonusThreshold":0.1,"exampleCost":0.01},"classroomParams":{"A":{"a":1,"b":4},"B":{"a":4,"b":1},"C":{"a":2,"b":8},"D":{"a":8,"b":2}},"conditions":["nonSeqFull","nonSeqPartial","seqNoFeedback","seqFeedback"],"classroomPairings":[["A","B"],["C","D"]],"coinWeights":[0.2,0.5,0.8],"subjectId":"AZNIEFUIVB2H0","assignmentId":"33FOTY3KEN7VF8X96E12YYAL1Z8C1X","hitId":"3QGHA0EA0JM3KKNCY0PQRLYAHJ3BWH","url":"https://gershmanlab.com/experiments/alicia/teaching/experiment/?hitId=3QGHA0EA0JM3KKNCY0PQRLYAHJ3BWH&workerId=AZNIEFUIVB2H0&assignmentId=33FOTY3KEN7VF8X96E12YYAL1Z8C1X&a=KTF38&tp_a=KTF38&b=33FOTY3KEN7VF8X96E12YYAL1Z8C1X&tp_b=33FOTY3KEN7VF8X96E12YYAL1Z8C1X&c=365198&tp_c=365198"},{"rt":3373,"stimulus":"\n                <p>Student's guess for coin weight: <b style=\"color:Tomato;\">0.50</b></p>\n                <p>You received a bonus of <b>$0.44</b>. Total bonus so far: <b>$1.76</b></b></p>\n                <p> Press any key to continue.</p>\n                ","response":" ","trial_type":"html-keyboard-response","trial_index":80,"time_elapsed":1201471,"internal_node_id":"0.0-70.0","params":{"nStudents":24,"maxFlips":30,"completionMinutes":45,"basePay":8,"maxBonus":9,"perTrialBonus":0.5,"perTrialBonusThreshold":0.1,"exampleCost":0.01},"classroomParams":{"A":{"a":1,"b":4},"B":{"a":4,"b":1},"C":{"a":2,"b":8},"D":{"a":8,"b":2}},"conditions":["nonSeqFull","nonSeqPartial","seqNoFeedback","seqFeedback"],"classroomPairings":[["A","B"],["C","D"]],"coinWeights":[0.2,0.5,0.8],"subjectId":"AZNIEFUIVB2H0","assignmentId":"33FOTY3KEN7VF8X96E12YYAL1Z8C1X","hitId":"3QGHA0EA0JM3KKNCY0PQRLYAHJ3BWH","url":"https://gershmanlab.com/experiments/alicia/teaching/experiment/?hitId=3QGHA0EA0JM3KKNCY0PQRLYAHJ3BWH&workerId=AZNIEFUIVB2H0&assignmentId=33FOTY3KEN7VF8X96E12YYAL1Z8C1X&a=KTF38&tp_a=KTF38&b=33FOTY3KEN7VF8X96E12YYAL1Z8C1X&tp_b=33FOTY3KEN7VF8X96E12YYAL1Z8C1X&c=365198&tp_c=365198"},{"rt":null,"stimulus":"<div style=\"font-size:60px;\">Next student</div>","response":null,"trial_type":"html-keyboard-response","trial_index":81,"time_elapsed":1203976,"internal_node_id":"0.0-71.0-0.0","params":{"nStudents":24,"maxFlips":30,"completionMinutes":45,"basePay":8,"maxBonus":9,"perTrialBonus":0.5,"perTrialBonusThreshold":0.1,"exampleCost":0.01},"classroomParams":{"A":{"a":1,"b":4},"B":{"a":4,"b":1},"C":{"a":2,"b":8},"D":{"a":8,"b":2}},"conditions":["nonSeqFull","nonSeqPartial","seqNoFeedback","seqFeedback"],"classroomPairings":[["A","B"],["C","D"]],"coinWeights":[0.2,0.5,0.8],"subjectId":"AZNIEFUIVB2H0","assignmentId":"33FOTY3KEN7VF8X96E12YYAL1Z8C1X","hitId":"3QGHA0EA0JM3KKNCY0PQRLYAHJ3BWH","url":"https://gershmanlab.com/experiments/alicia/teaching/experiment/?hitId=3QGHA0EA0JM3KKNCY0PQRLYAHJ3BWH&workerId=AZNIEFUIVB2H0&assignmentId=33FOTY3KEN7VF8X96E12YYAL1Z8C1X&a=KTF38&tp_a=KTF38&b=33FOTY3KEN7VF8X96E12YYAL1Z8C1X&tp_b=33FOTY3KEN7VF8X96E12YYAL1Z8C1X&c=365198&tp_c=365198"},{"rt":10983,"stimulus":"\n            <h4 style=\"color:Orange;\">Student 10</h4>\n            <h2>The weight of your coin is <b style=\"color:Tomato;\">0.5</b>.</h2>\n            <p>In this block, you will be giving <b>two</b> sets of examples to Student 10.</p>\n                <p>You will see the student's guess after the first set of examples. You will also receive feedback at the end of the block.</p>\n            ","response":0,"trial_type":"html-button-response","trial_index":82,"time_elapsed":1214959,"internal_node_id":"0.0-72.0","params":{"nStudents":24,"maxFlips":30,"completionMinutes":45,"basePay":8,"maxBonus":9,"perTrialBonus":0.5,"perTrialBonusThreshold":0.1,"exampleCost":0.01},"classroomParams":{"A":{"a":1,"b":4},"B":{"a":4,"b":1},"C":{"a":2,"b":8},"D":{"a":8,"b":2}},"conditions":["nonSeqFull","nonSeqPartial","seqNoFeedback","seqFeedback"],"classroomPairings":[["A","B"],["C","D"]],"coinWeights":[0.2,0.5,0.8],"subjectId":"AZNIEFUIVB2H0","assignmentId":"33FOTY3KEN7VF8X96E12YYAL1Z8C1X","hitId":"3QGHA0EA0JM3KKNCY0PQRLYAHJ3BWH","url":"https://gershmanlab.com/experiments/alicia/teaching/experiment/?hitId=3QGHA0EA0JM3KKNCY0PQRLYAHJ3BWH&workerId=AZNIEFUIVB2H0&assignmentId=33FOTY3KEN7VF8X96E12YYAL1Z8C1X&a=KTF38&tp_a=KTF38&b=33FOTY3KEN7VF8X96E12YYAL1Z8C1X&tp_b=33FOTY3KEN7VF8X96E12YYAL1Z8C1X&c=365198&tp_c=365198"},{"rt":8566,"response":{"heads":"3","tails":"3"},"type":"response","condition":"seqFeedback","trueTheta":0.5,"classrooms":["A","B"],"studentTrueClassroom":"B","exampleSet":"first","trial_type":"survey-html-form","trial_index":83,"time_elapsed":1223529,"internal_node_id":"0.0-73.0-0.0","params":{"nStudents":24,"maxFlips":30,"completionMinutes":45,"basePay":8,"maxBonus":9,"perTrialBonus":0.5,"perTrialBonusThreshold":0.1,"exampleCost":0.01},"classroomParams":{"A":{"a":1,"b":4},"B":{"a":4,"b":1},"C":{"a":2,"b":8},"D":{"a":8,"b":2}},"conditions":["nonSeqFull","nonSeqPartial","seqNoFeedback","seqFeedback"],"classroomPairings":[["A","B"],["C","D"]],"coinWeights":[0.2,0.5,0.8],"subjectId":"AZNIEFUIVB2H0","assignmentId":"33FOTY3KEN7VF8X96E12YYAL1Z8C1X","hitId":"3QGHA0EA0JM3KKNCY0PQRLYAHJ3BWH","url":"https://gershmanlab.com/experiments/alicia/teaching/experiment/?hitId=3QGHA0EA0JM3KKNCY0PQRLYAHJ3BWH&workerId=AZNIEFUIVB2H0&assignmentId=33FOTY3KEN7VF8X96E12YYAL1Z8C1X&a=KTF38&tp_a=KTF38&b=33FOTY3KEN7VF8X96E12YYAL1Z8C1X&tp_b=33FOTY3KEN7VF8X96E12YYAL1Z8C1X&c=365198&tp_c=365198","heads":3,"tails":3,"studentIndex":9,"studentTrueHypers":{"a":4,"b":1},"studentGuess":0.6363636363636364,"delta":0.13636363636363635,"totalExamples":6,"bonusSoFar":1.76},{"rt":null,"stimulus":"Sending examples to student... ","response":null,"trial_type":"html-keyboard-response","trial_index":84,"time_elapsed":1225288,"internal_node_id":"0.0-74.0","params":{"nStudents":24,"maxFlips":30,"completionMinutes":45,"basePay":8,"maxBonus":9,"perTrialBonus":0.5,"perTrialBonusThreshold":0.1,"exampleCost":0.01},"classroomParams":{"A":{"a":1,"b":4},"B":{"a":4,"b":1},"C":{"a":2,"b":8},"D":{"a":8,"b":2}},"conditions":["nonSeqFull","nonSeqPartial","seqNoFeedback","seqFeedback"],"classroomPairings":[["A","B"],["C","D"]],"coinWeights":[0.2,0.5,0.8],"subjectId":"AZNIEFUIVB2H0","assignmentId":"33FOTY3KEN7VF8X96E12YYAL1Z8C1X","hitId":"3QGHA0EA0JM3KKNCY0PQRLYAHJ3BWH","url":"https://gershmanlab.com/experiments/alicia/teaching/experiment/?hitId=3QGHA0EA0JM3KKNCY0PQRLYAHJ3BWH&workerId=AZNIEFUIVB2H0&assignmentId=33FOTY3KEN7VF8X96E12YYAL1Z8C1X&a=KTF38&tp_a=KTF38&b=33FOTY3KEN7VF8X96E12YYAL1Z8C1X&tp_b=33FOTY3KEN7VF8X96E12YYAL1Z8C1X&c=365198&tp_c=365198"},{"rt":null,"stimulus":"Examples sent to student! Waiting for student...","response":null,"trial_type":"html-keyboard-response","trial_index":85,"time_elapsed":1229796,"internal_node_id":"0.0-75.0","params":{"nStudents":24,"maxFlips":30,"completionMinutes":45,"basePay":8,"maxBonus":9,"perTrialBonus":0.5,"perTrialBonusThreshold":0.1,"exampleCost":0.01},"classroomParams":{"A":{"a":1,"b":4},"B":{"a":4,"b":1},"C":{"a":2,"b":8},"D":{"a":8,"b":2}},"conditions":["nonSeqFull","nonSeqPartial","seqNoFeedback","seqFeedback"],"classroomPairings":[["A","B"],["C","D"]],"coinWeights":[0.2,0.5,0.8],"subjectId":"AZNIEFUIVB2H0","assignmentId":"33FOTY3KEN7VF8X96E12YYAL1Z8C1X","hitId":"3QGHA0EA0JM3KKNCY0PQRLYAHJ3BWH","url":"https://gershmanlab.com/experiments/alicia/teaching/experiment/?hitId=3QGHA0EA0JM3KKNCY0PQRLYAHJ3BWH&workerId=AZNIEFUIVB2H0&assignmentId=33FOTY3KEN7VF8X96E12YYAL1Z8C1X&a=KTF38&tp_a=KTF38&b=33FOTY3KEN7VF8X96E12YYAL1Z8C1X&tp_b=33FOTY3KEN7VF8X96E12YYAL1Z8C1X&c=365198&tp_c=365198"},{"rt":5796,"stimulus":"\n                <p>Student's guess for coin weight: <b style=\"color:Tomato;\">0.64</b></p>\n                <p></b></p>\n                <p>You will now send another set of examples to your student. Press any k