[{"rt":21530,"response":{"heads":"5","tails":"1"},"type":"response","condition":"seqNoFeedback","trueTheta":0.5,"classrooms":["C","D"],"studentTrueClassroom":"D","exampleSet":"first","trial_type":"survey-html-form","trial_index":7,"time_elapsed":236561,"internal_node_id":"0.0-6.0-0.0","params":{"nStudents":24,"maxFlips":25,"completionMinutes":45,"basePay":8,"maxBonus":9,"perTrialBonus":0.5,"perTrialBonusThreshold":0.05,"exampleCost":0.02},"classroomParams":{"A":{"a":1,"b":4},"B":{"a":4,"b":1},"C":{"a":2,"b":8},"D":{"a":8,"b":2}},"conditions":["nonSeqFull","nonSeqPartial","seqNoFeedback","seqFeedback"],"classroomPairings":[["A","B"],["C","D"]],"coinWeights":[0.2,0.5,0.8],"subjectId":"A13FUEPWBCLBUY","assignmentId":"3Z2R0DQ0JI0H1RZJL97BT5KTFW8E2D","hitId":"3IH9TRB0FBLK6RLF7MSMKICTGYN1IU","url":"https://gershmanlab.com/experiments/alicia/teaching/experiment/?hitId=3IH9TRB0FBLK6RLF7MSMKICTGYN1IU&workerId=A13FUEPWBCLBUY&assignmentId=3Z2R0DQ0JI0H1RZJL97BT5KTFW8E2D&a=002Z3&tp_a=002Z3&b=3Z2R0DQ0JI0H1RZJL97BT5KTFW8E2D&tp_b=3Z2R0DQ0JI0H1RZJL97BT5KTFW8E2D&c=365633&tp_c=365633","heads":5,"tails":1,"studentIndex":0,"studentTrueHypers":{"a":8,"b":2},"studentGuess":0.8125,"delta":0.3125,"totalExamples":6,"bonusSoFar":0},{"rt":6863,"response":{"heads":"3","tails":"3"},"type":"response","condition":"seqNoFeedback","trueTheta":0.5,"classrooms":["C","D"],"studentTrueClassroom":"D","exampleSet":"second","trial_type":"survey-html-form","trial_index":10,"time_elapsed":248703,"internal_node_id":"0.0-9.0-0.0","params":{"nStudents":24,"maxFlips":25,"completionMinutes":45,"basePay":8,"maxBonus":9,"perTrialBonus":0.5,"perTrialBonusThreshold":0.05,"exampleCost":0.02},"classroomParams":{"A":{"a":1,"b":4},"B":{"a":4,"b":1},"C":{"a":2,"b":8},"D":{"a":8,"b":2}},"conditions":["nonSeqFull","nonSeqPartial","seqNoFeedback","seqFeedback"],"classroomPairings":[["A","B"],["C","D"]],"coinWeights":[0.2,0.5,0.8],"subjectId":"A13FUEPWBCLBUY","assignmentId":"3Z2R0DQ0JI0H1RZJL97BT5KTFW8E2D","hitId":"3IH9TRB0FBLK6RLF7MSMKICTGYN1IU","url":"https://gershmanlab.com/experiments/alicia/teaching/experiment/?hitId=3IH9TRB0FBLK6RLF7MSMKICTGYN1IU&workerId=A13FUEPWBCLBUY&assignmentId=3Z2R0DQ0JI0H1RZJL97BT5KTFW8E2D&a=002Z3&tp_a=002Z3&b=3Z2R0DQ0JI0H1RZJL97BT5KTFW8E2D&tp_b=3Z2R0DQ0JI0H1RZJL97BT5KTFW8E2D&c=365633&tp_c=365633","firstResponseHeads":5,"firstResponseTails":1,"secondResponseHeads":3,"secondResponseTails":3,"totalHeads":8,"totalTails":4,"studentIndex":0,"studentTrueHypers":{"a":8,"b":2},"studentGuess":0.7272727272727273,"delta":0.2272727272727273,"bonus":0,"bonusSoFar":0,"totalExamples":12},{"rt":3144,"response":{"heads":"5","tails":"0"},"type":"response","condition":"nonSeqPartial","trueTheta":0.8,"classrooms":["A","B"],"studentTrueClassroom":"A","exampleSet":"first","trial_type":"survey-html-form","trial_index":16,"time_elapsed":265897,"internal_node_id":"0.0-15.0-0.0","params":{"nStudents":24,"maxFlips":25,"completionMinutes":45,"basePay":8,"maxBonus":9,"perTrialBonus":0.5,"perTrialBonusThreshold":0.05,"exampleCost":0.02},"classroomParams":{"A":{"a":1,"b":4},"B":{"a":4,"b":1},"C":{"a":2,"b":8},"D":{"a":8,"b":2}},"conditions":["nonSeqFull","nonSeqPartial","seqNoFeedback","seqFeedback"],"classroomPairings":[["A","B"],["C","D"]],"coinWeights":[0.2,0.5,0.8],"subjectId":"A13FUEPWBCLBUY","assignmentId":"3Z2R0DQ0JI0H1RZJL97BT5KTFW8E2D","hitId":"3IH9TRB0FBLK6RLF7MSMKICTGYN1IU","url":"https://gershmanlab.com/experiments/alicia/teaching/experiment/?hitId=3IH9TRB0FBLK6RLF7MSMKICTGYN1IU&workerId=A13FUEPWBCLBUY&assignmentId=3Z2R0DQ0JI0H1RZJL97BT5KTFW8E2D&a=002Z3&tp_a=002Z3&b=3Z2R0DQ0JI0H1RZJL97BT5KTFW8E2D&tp_b=3Z2R0DQ0JI0H1RZJL97BT5KTFW8E2D&c=365633&tp_c=365633","heads":5,"tails":0,"studentIndex":1,"studentTrueHypers":{"a":1,"b":4},"studentGuess":0.6,"delta":0.20000000000000007,"totalExamples":5,"bonus":0,"bonusSoFar":0},{"rt":6569,"response":{"heads":"8","tails":"0"},"type":"response","condition":"nonSeqFull","trueTheta":0.8,"classrooms":["A","B"],"studentTrueClassroom":"B","exampleSet":"first","trial_type":"survey-html-form","trial_index":22,"time_elapsed":285883,"internal_node_id":"0.0-21.0-0.0","params":{"nStudents":24,"maxFlips":25,"completionMinutes":45,"basePay":8,"maxBonus":9,"perTrialBonus":0.5,"perTrialBonusThreshold":0.05,"exampleCost":0.02},"classroomParams":{"A":{"a":1,"b":4},"B":{"a":4,"b":1},"C":{"a":2,"b":8},"D":{"a":8,"b":2}},"conditions":["nonSeqFull","nonSeqPartial","seqNoFeedback","seqFeedback"],"classroomPairings":[["A","B"],["C","D"]],"coinWeights":[0.2,0.5,0.8],"subjectId":"A13FUEPWBCLBUY","assignmentId":"3Z2R0DQ0JI0H1RZJL97BT5KTFW8E2D","hitId":"3IH9TRB0FBLK6RLF7MSMKICTGYN1IU","url":"https://gershmanlab.com/experiments/alicia/teaching/experiment/?hitId=3IH9TRB0FBLK6RLF7MSMKICTGYN1IU&workerId=A13FUEPWBCLBUY&assignmentId=3Z2R0DQ0JI0H1RZJL97BT5KTFW8E2D&a=002Z3&tp_a=002Z3&b=3Z2R0DQ0JI0H1RZJL97BT5KTFW8E2D&tp_b=3Z2R0DQ0JI0H1RZJL97BT5KTFW8E2D&c=365633&tp_c=365633","heads":8,"tails":0,"studentIndex":2,"studentTrueHypers":{"a":4,"b":1},"studentGuess":0.9230769230769231,"delta":0.12307692307692308,"totalExamples":8,"bonus":0,"bonusSoFar":0},{"rt":5288,"response":{"heads":"2","tails":"8"},"type":"response","condition":"nonSeqFull","trueTheta":0.2,"classrooms":["A","B"],"studentTrueClassroom":"B","exampleSet":"first","trial_type":"survey-html-form","trial_index":28,"time_elapsed":301589,"internal_node_id":"0.0-27.0-0.0","params":{"nStudents":24,"maxFlips":25,"completionMinutes":45,"basePay":8,"maxBonus":9,"perTrialBonus":0.5,"perTrialBonusThreshold":0.05,"exampleCost":0.02},"classroomParams":{"A":{"a":1,"b":4},"B":{"a":4,"b":1},"C":{"a":2,"b":8},"D":{"a":8,"b":2}},"conditions":["nonSeqFull","nonSeqPartial","seqNoFeedback","seqFeedback"],"classroomPairings":[["A","B"],["C","D"]],"coinWeights":[0.2,0.5,0.8],"subjectId":"A13FUEPWBCLBUY","assignmentId":"3Z2R0DQ0JI0H1RZJL97BT5KTFW8E2D","hitId":"3IH9TRB0FBLK6RLF7MSMKICTGYN1IU","url":"https://gershmanlab.com/experiments/alicia/teaching/experiment/?hitId=3IH9TRB0FBLK6RLF7MSMKICTGYN1IU&workerId=A13FUEPWBCLBUY&assignmentId=3Z2R0DQ0JI0H1RZJL97BT5KTFW8E2D&a=002Z3&tp_a=002Z3&b=3Z2R0DQ0JI0H1RZJL97BT5KTFW8E2D&tp_b=3Z2R0DQ0JI0H1RZJL97BT5KTFW8E2D&c=365633&tp_c=365633","heads":2,"tails":8,"studentIndex":3,"studentTrueHypers":{"a":4,"b":1},"studentGuess":0.4,"delta":0.2,"totalExamples":10,"bonus":0,"bonusSoFar":0},{"rt":4396,"response":{"heads":"8","tails":"2"},"type":"response","condition":"seqFeedback","trueTheta":0.8,"classrooms":["C","D"],"studentTrueClassroom":"D","exampleSet":"first","trial_type":"survey-html-form","trial_index":34,"time_elapsed":319102,"internal_node_id":"0.0-33.0-0.0","params":{"nStudents":24,"maxFlips":25,"completionMinutes":45,"basePay":8,"maxBonus":9,"perTrialBonus":0.5,"perTrialBonusThreshold":0.05,"exampleCost":0.02},"classroomParams":{"A":{"a":1,"b":4},"B":{"a":4,"b":1},"C":{"a":2,"b":8},"D":{"a":8,"b":2}},"conditions":["nonSeqFull","nonSeqPartial","seqNoFeedback","seqFeedback"],"classroomPairings":[["A","B"],["C","D"]],"coinWeights":[0.2,0.5,0.8],"subjectId":"A13FUEPWBCLBUY","assignmentId":"3Z2R0DQ0JI0H1RZJL97BT5KTFW8E2D","hitId":"3IH9TRB0FBLK6RLF7MSMKICTGYN1IU","url":"https://gershmanlab.com/experiments/alicia/teaching/experiment/?hitId=3IH9TRB0FBLK6RLF7MSMKICTGYN1IU&workerId=A13FUEPWBCLBUY&assignmentId=3Z2R0DQ0JI0H1RZJL97BT5KTFW8E2D&a=002Z3&tp_a=002Z3&b=3Z2R0DQ0JI0H1RZJL97BT5KTFW8E2D&tp_b=3Z2R0DQ0JI0H1RZJL97BT5KTFW8E2D&c=365633&tp_c=365633","heads":8,"tails":2,"studentIndex":4,"studentTrueHypers":{"a":8,"b":2},"studentGuess":0.8,"delta":0,"totalExamples":10,"bonusSoFar":0},{"rt":8992,"response":{"heads":"8","tails":"2"},"type":"response","condition":"seqFeedback","trueTheta":0.8,"classrooms":["C","D"],"studentTrueClassroom":"D","exampleSet":"second","trial_type":"survey-html-form","trial_index":38,"time_elapsed":337660,"internal_node_id":"0.0-37.0-0.0","params":{"nStudents":24,"maxFlips":25,"completionMinutes":45,"basePay":8,"maxBonus":9,"perTrialBonus":0.5,"perTrialBonusThreshold":0.05,"exampleCost":0.02},"classroomParams":{"A":{"a":1,"b":4},"B":{"a":4,"b":1},"C":{"a":2,"b":8},"D":{"a":8,"b":2}},"conditions":["nonSeqFull","nonSeqPartial","seqNoFeedback","seqFeedback"],"classroomPairings":[["A","B"],["C","D"]],"coinWeights":[0.2,0.5,0.8],"subjectId":"A13FUEPWBCLBUY","assignmentId":"3Z2R0DQ0JI0H1RZJL97BT5KTFW8E2D","hitId":"3IH9TRB0FBLK6RLF7MSMKICTGYN1IU","url":"https://gershmanlab.com/experiments/alicia/teaching/experiment/?hitId=3IH9TRB0FBLK6RLF7MSMKICTGYN1IU&workerId=A13FUEPWBCLBUY&assignmentId=3Z2R0DQ0JI0H1RZJL97BT5KTFW8E2D&a=002Z3&tp_a=002Z3&b=3Z2R0DQ0JI0H1RZJL97BT5KTFW8E2D&tp_b=3Z2R0DQ0JI0H1RZJL97BT5KTFW8E2D&c=365633&tp_c=365633","firstResponseHeads":8,"firstResponseTails":2,"secondResponseHeads":8,"secondResponseTails":2,"totalHeads":16,"totalTails":4,"studentIndex":4,"studentTrueHypers":{"a":8,"b":2},"studentGuess":0.8,"delta":0,"bonus":0.1,"bonusSoFar":0.1,"totalExamples":20},{"rt":4000,"response":{"heads":"5","tails":"5"},"type":"response","condition":"seqFeedback","trueTheta":0.5,"classrooms":["A","B"],"studentTrueClassroom":"A","exampleSet":"first","trial_type":"survey-html-form","trial_index":44,"time_elapsed":359540,"internal_node_id":"0.0-43.0-0.0","params":{"nStudents":24,"maxFlips":25,"completionMinutes":45,"basePay":8,"maxBonus":9,"perTrialBonus":0.5,"perTrialBonusThreshold":0.05,"exampleCost":0.02},"classroomParams":{"A":{"a":1,"b":4},"B":{"a":4,"b":1},"C":{"a":2,"b":8},"D":{"a":8,"b":2}},"conditions":["nonSeqFull","nonSeqPartial","seqNoFeedback","seqFeedback"],"classroomPairings":[["A","B"],["C","D"]],"coinWeights":[0.2,0.5,0.8],"subjectId":"A13FUEPWBCLBUY","assignmentId":"3Z2R0DQ0JI0H1RZJL97BT5KTFW8E2D","hitId":"3IH9TRB0FBLK6RLF7MSMKICTGYN1IU","url":"https://gershmanlab.com/experiments/alicia/teaching/experiment/?hitId=3IH9TRB0FBLK6RLF7MSMKICTGYN1IU&workerId=A13FUEPWBCLBUY&assignmentId=3Z2R0DQ0JI0H1RZJL97BT5KTFW8E2D&a=002Z3&tp_a=002Z3&b=3Z2R0DQ0JI0H1RZJL97BT5KTFW8E2D&tp_b=3Z2R0DQ0JI0H1RZJL97BT5KTFW8E2D&c=365633&tp_c=365633","heads":5,"tails":5,"studentIndex":5,"studentTrueHypers":{"a":1,"b":4},"studentGuess":0.4,"delta":0.09999999999999998,"totalExamples":10,"bonusSoFar":0.1},{"rt":5225,"response":{"heads":"5","tails":"5"},"type":"response","condition":"seqFeedback","trueTheta":0.5,"classrooms":["A","B"],"studentTrueClassroom":"A","exampleSet":"second","trial_type":"survey-html-form","trial_index":48,"time_elapsed":372091,"internal_node_id":"0.0-47.0-0.0","params":{"nStudents":24,"maxFlips":25,"completionMinutes":45,"basePay":8,"maxBonus":9,"perTrialBonus":0.5,"perTrialBonusThreshold":0.05,"exampleCost":0.02},"classroomParams":{"A":{"a":1,"b":4},"B":{"a":4,"b":1},"C":{"a":2,"b":8},"D":{"a":8,"b":2}},"conditions":["nonSeqFull","nonSeqPartial","seqNoFeedback","seqFeedback"],"classroomPairings":[["A","B"],["C","D"]],"coinWeights":[0.2,0.5,0.8],"subjectId":"A13FUEPWBCLBUY","assignmentId":"3Z2R0DQ0JI0H1RZJL97BT5KTFW8E2D","hitId":"3IH9TRB0FBLK6RLF7MSMKICTGYN1IU","url":"https://gershmanlab.com/experiments/alicia/teaching/experiment/?hitId=3IH9TRB0FBLK6RLF7MSMKICTGYN1IU&workerId=A13FUEPWBCLBUY&assignmentId=3Z2R0DQ0JI0H1RZJL97BT5KTFW8E2D&a=002Z3&tp_a=002Z3&b=3Z2R0DQ0JI0H1RZJL97BT5KTFW8E2D&tp_b=3Z2R0DQ0JI0H1RZJL97BT5KTFW8E2D&c=365633&tp_c=365633","firstResponseHeads":5,"firstResponseTails":5,"secondResponseHeads":5,"secondResponseTails":5,"totalHeads":10,"totalTails":10,"studentIndex":5,"studentTrueHypers":{"a":1,"b":4},"studentGuess":0.44,"delta":0.06,"bonus":0,"bonusSoFar":0.1,"totalExamples":20},{"rt":7429,"response":{"heads":"2","tails":"8"},"type":"response","condition":"seqNoFeedback","trueTheta":0.2,"classrooms":["C","D"],"studentTrueClassroom":"D","exampleSet":"first","trial_type":"survey-html-form","trial_index":54,"time_elapsed":392125,"internal_node_id":"0.0-53.0-0.0","params":{"nStudents":24,"maxFlips":25,"completionMinutes":45,"basePay":8,"maxBonus":9,"perTrialBonus":0.5,"perTrialBonusThreshold":0.05,"exampleCost":0.02},"classroomParams":{"A":{"a":1,"b":4},"B":{"a":4,"b":1},"C":{"a":2,"b":8},"D":{"a":8,"b":2}},"conditions":["nonSeqFull","nonSeqPartial","seqNoFeedback","seqFeedback"],"classroomPairings":[["A","B"],["C","D"]],"coinWeights":[0.2,0.5,0.8],"subjectId":"A13FUEPWBCLBUY","assignmentId":"3Z2R0DQ0JI0H1RZJL97BT5KTFW8E2D","hitId":"3IH9TRB0FBLK6RLF7MSMKICTGYN1IU","url":"https://gershmanlab.com/experiments/alicia/teaching/experiment/?hitId=3IH9TRB0FBLK6RLF7MSMKICTGYN1IU&workerId=A13FUEPWBCLBUY&assignmentId=3Z2R0DQ0JI0H1RZJL97BT5KTFW8E2D&a=002Z3&tp_a=002Z3&b=3Z2R0DQ0JI0H1RZJL97BT5KTFW8E2D&tp_b=3Z2R0DQ0JI0H1RZJL97BT5KTFW8E2D&c=365633&tp_c=365633","heads":2,"tails":8,"studentIndex":6,"studentTrueHypers":{"a":8,"b":2},"studentGuess":0.5,"delta":0.3,"totalExamples":10,"bonusSoFar":0.1},{"rt":7226,"response":{"heads":"2","tails":"8"},"type":"response","condition":"seqNoFeedback","trueTheta":0.2,"classrooms":["C","D"],"studentTrueClassroom":"D","exampleSet":"second","trial_type":"survey-html-form","trial_index":57,"time_elapsed":406136,"internal_node_id":"0.0-56.0-0.0","params":{"nStudents":24,"maxFlips":25,"completionMinutes":45,"basePay":8,"maxBonus":9,"perTrialBonus":0.5,"perTrialBonusThreshold":0.05,"exampleCost":0.02},"classroomParams":{"A":{"a":1,"b":4},"B":{"a":4,"b":1},"C":{"a":2,"b":8},"D":{"a":8,"b":2}},"conditions":["nonSeqFull","nonSeqPartial","seqNoFeedback","seqFeedback"],"classroomPairings":[["A","B"],["C","D"]],"coinWeights":[0.2,0.5,0.8],"subjectId":"A13FUEPWBCLBUY","assignmentId":"3Z2R0DQ0JI0H1RZJL97BT5KTFW8E2D","hitId":"3IH9TRB0FBLK6RLF7MSMKICTGYN1IU","url":"https://gershmanlab.com/experiments/alicia/teaching/experiment/?hitId=3IH9TRB0FBLK6RLF7MSMKICTGYN1IU&workerId=A13FUEPWBCLBUY&assignmentId=3Z2R0DQ0JI0H1RZJL97BT5KTFW8E2D&a=002Z3&tp_a=002Z3&b=3Z2R0DQ0JI0H1RZJL97BT5KTFW8E2D&tp_b=3Z2R0DQ0JI0H1RZJL97BT5KTFW8E2D&c=365633&tp_c=365633","firstResponseHeads":2,"firstResponseTails":8,"secondResponseHeads":2,"secondResponseTails":8,"totalHeads":4,"totalTails":16,"studentIndex":6,"studentTrueHypers":{"a":8,"b":2},"studentGuess":0.4,"delta":0.2,"bonus":0,"bonusSoFar":0.1,"totalExamples":20},{"rt":4507,"response":{"heads":"8","tails":"1"},"type":"response","condition":"seqNoFeedback","trueTheta":0.8,"classrooms":["A","B"],"studentTrueClassroom":"B","exampleSet":"first","trial_type":"survey-html-form","trial_index":63,"time_elapsed":423255,"internal_node_id":"0.0-62.0-0.0","params":{"nStudents":24,"maxFlips":25,"completionMinutes":45,"basePay":8,"maxBonus":9,"perTrialBonus":0.5,"perTrialBonusThreshold":0.05,"exampleCost":0.02},"classroomParams":{"A":{"a":1,"b":4},"B":{"a":4,"b":1},"C":{"a":2,"b":8},"D":{"a":8,"b":2}},"conditions":["nonSeqFull","nonSeqPartial","seqNoFeedback","seqFeedback"],"classroomPairings":[["A","B"],["C","D"]],"coinWeights":[0.2,0.5,0.8],"subjectId":"A13FUEPWBCLBUY","assignmentId":"3Z2R0DQ0JI0H1RZJL97BT5KTFW8E2D","hitId":"3IH9TRB0FBLK6RLF7MSMKICTGYN1IU","url":"https://gershmanlab.com/experiments/alicia/teaching/experiment/?hitId=3IH9TRB0FBLK6RLF7MSMKICTGYN1IU&workerId=A13FUEPWBCLBUY&assignmentId=3Z2R0DQ0JI0H1RZJL97BT5KTFW8E2D&a=002Z3&tp_a=002Z3&b=3Z2R0DQ0JI0H1RZJL97BT5KTFW8E2D&tp_b=3Z2R0DQ0JI0H1RZJL97BT5KTFW8E2D&c=365633&tp_c=365633","heads":8,"tails":1,"studentIndex":7,"studentTrueHypers":{"a":4,"b":1},"studentGuess":0.8571428571428571,"delta":0.05714285714285705,"totalExamples":9,"bonusSoFar":0.1},{"rt":5619,"response":{"heads":"6","tails":"1"},"type":"response","condition":"seqNoFeedback","trueTheta":0.8,"classrooms":["A","B"],"studentTrueClassroom":"B","exampleSet":"second","trial_type":"survey-html-form","trial_index":66,"time_elapsed":436659,"internal_node_id":"0.0-65.0-0.0","params":{"nStudents":24,"maxFlips":25,"completionMinutes":45,"basePay":8,"maxBonus":9,"perTrialBonus":0.5,"perTrialBonusThreshold":0.05,"exampleCost":0.02},"classroomParams":{"A":{"a":1,"b":4},"B":{"a":4,"b":1},"C":{"a":2,"b":8},"D":{"a":8,"b":2}},"conditions":["nonSeqFull","nonSeqPartial","seqNoFeedback","seqFeedback"],"classroomPairings":[["A","B"],["C","D"]],"coinWeights":[0.2,0.5,0.8],"subjectId":"A13FUEPWBCLBUY","assignmentId":"3Z2R0DQ0JI0H1RZJL97BT5KTFW8E2D","hitId":"3IH9TRB0FBLK6RLF7MSMKICTGYN1IU","url":"https://gershmanlab.com/experiments/alicia/teaching/experiment/?hitId=3IH9TRB0FBLK6RLF7MSMKICTGYN1IU&workerId=A13FUEPWBCLBUY&assignmentId=3Z2R0DQ0JI0H1RZJL97BT5KTFW8E2D&a=002Z3&tp_a=002Z3&b=3Z2R0DQ0JI0H1RZJL97BT5KTFW8E2D&tp_b=3Z2R0DQ0JI0H1RZJL97BT5KTFW8E2D&c=365633&tp_c=365633","firstResponseHeads":8,"firstResponseTails":1,"secondResponseHeads":6,"secondResponseTails":1,"totalHeads":14,"totalTails":2,"studentIndex":7,"studentTrueHypers":{"a":4,"b":1},"studentGuess":0.8571428571428571,"delta":0.05714285714285705,"bonus":0,"bonusSoFar":0.1,"totalExamples":16},{"rt":4063,"response":{"heads":"6","tails":"1"},"type":"response","condition":"seqFeedback","trueTheta":0.8,"classrooms":["A","B"],"studentTrueClassroom":"A","exampleSet":"first","trial_type":"survey-html-form","trial_index":72,"time_elapsed":451293,"internal_node_id":"0.0-71.0-0.0","params":{"nStudents":24,"maxFlips":25,"completionMinutes":45,"basePay":8,"maxBonus":9,"perTrialBonus":0.5,"perTrialBonusThreshold":0.05,"exampleCost":0.02},"classroomParams":{"A":{"a":1,"b":4},"B":{"a":4,"b":1},"C":{"a":2,"b":8},"D":{"a":8,"b":2}},"conditions":["nonSeqFull","nonSeqPartial","seqNoFeedback","seqFeedback"],"classroomPairings":[["A","B"],["C","D"]],"coinWeights":[0.2,0.5,0.8],"subjectId":"A13FUEPWBCLBUY","assignmentId":"3Z2R0DQ0JI0H1RZJL97BT5KTFW8E2D","hitId":"3IH9TRB0FBLK6RLF7MSMKICTGYN1IU","url":"https://gershmanlab.com/experiments/alicia/teaching/experiment/?hitId=3IH9TRB0FBLK6RLF7MSMKICTGYN1IU&workerId=A13FUEPWBCLBUY&assignmentId=3Z2R0DQ0JI0H1RZJL97BT5KTFW8E2D&a=002Z3&tp_a=002Z3&b=3Z2R0DQ0JI0H1RZJL97BT5KTFW8E2D&tp_b=3Z2R0DQ0JI0H1RZJL97BT5KTFW8E2D&c=365633&tp_c=365633","heads":6,"tails":1,"studentIndex":8,"studentTrueHypers":{"a":1,"b":4},"studentGuess":0.5833333333333334,"delta":0.21666666666666667,"totalExamples":7,"bonusSoFar":0.1},{"rt":4630,"response":{"heads":"8","tails":"1"},"type":"response","condition":"seqFeedback","trueTheta":0.8,"classrooms":["A","B"],"studentTrueClassroom":"A","exampleSet":"second","trial_type":"survey-html-form","trial_index":76,"time_elapsed":464541,"internal_node_id":"0.0-75.0-0.0","params":{"nStudents":24,"maxFlips":25,"completionMinutes":45,"basePay":8,"maxBonus":9,"perTrialBonus":0.5,"perTrialBonusThreshold":0.05,"exampleCost":0.02},"classroomParams":{"A":{"a":1,"b":4},"B":{"a":4,"b":1},"C":{"a":2,"b":8},"D":{"a":8,"b":2}},"conditions":["nonSeqFull","nonSeqPartial","seqNoFeedback","seqFeedback"],"classroomPairings":[["A","B"],["C","D"]],"coinWeights":[0.2,0.5,0.8],"subjectId":"A13FUEPWBCLBUY","assignmentId":"3Z2R0DQ0JI0H1RZJL97BT5KTFW8E2D","hitId":"3IH9TRB0FBLK6RLF7MSMKICTGYN1IU","url":"https://gershmanlab.com/experiments/alicia/teaching/experiment/?hitId=3IH9TRB0FBLK6RLF7MSMKICTGYN1IU&workerId=A13FUEPWBCLBUY&assignmentId=3Z2R0DQ0JI0H1RZJL97BT5KTFW8E2D&a=002Z3&tp_a=002Z3&b=3Z2R0DQ0JI0H1RZJL97BT5KTFW8E2D&tp_b=3Z2R0DQ0JI0H1RZJL97BT5KTFW8E2D&c=365633&tp_c=365633","firstResponseHeads":6,"firstResponseTails":1,"secondResponseHeads":8,"secondResponseTails":1,"totalHeads":14,"totalTails":2,"studentIndex":8,"studentTrueHypers":{"a":1,"b":4},"studentGuess":0.7142857142857143,"delta":0.08571428571428574,"bonus":0,"bonusSoFar":0.1,"totalExamples":16},{"rt":3543,"response":{"heads":"3","tails":"3"},"type":"response","condition":"nonSeqFull","trueTheta":0.5,"classrooms":["C","D"],"studentTrueClassroom":"D","exampleSet":"first","trial_type":"survey-html-form","trial_index":82,"time_elapsed":478201,"internal_node_id":"0.0-81.0-0.0","params":{"nStudents":24,"maxFlips":25,"completionMinutes":45,"basePay":8,"maxBonus":9,"perTrialBonus":0.5,"perTrialBonusThreshold":0.05,"exampleCost":0.02},"classroomParams":{"A":{"a":1,"b":4},"B":{"a":4,"b":1},"C":{"a":2,"b":8},"D":{"a":8,"b":2}},"conditions":["nonSeqFull","nonSeqPartial","seqNoFeedback","seqFeedback"],"classroomPairings":[["A","B"],["C","D"]],"coinWeights":[0.2,0.5,0.8],"subjectId":"A13FUEPWBCLBUY","assignmentId":"3Z2R0DQ0JI0H1RZJL97BT5KTFW8E2D","hitId":"3IH9TRB0FBLK6RLF7MSMKICTGYN1IU","url":"https://gershmanlab.com/experiments/alicia/teaching/experiment/?hitId=3IH9TRB0FBLK6RLF7MSMKICTGYN1IU&workerId=A13FUEPWBCLBUY&assignmentId=3Z2R0DQ0JI0H1RZJL97BT5KTFW8E2D&a=002Z3&tp_a=002Z3&b=3Z2R0DQ0JI0H1RZJL97BT5KTFW8E2D&tp_b=3Z2R0DQ0JI0H1RZJL97BT5KTFW8E2D&c=365633&tp_c=365633","heads":3,"tails":3,"studentIndex":9,"studentTrueHypers":{"a":8,"b":2},"studentGuess":0.6875,"delta":0.1875,"totalExamples":6,"bonus":0,"bonusSoFar":0.1},{"rt":4019,"response":{"heads":"4","tails":"4"},"type":"response","condition":"seqFeedback","trueTheta":0.5,"classrooms":["C","D"],"studentTrueClassroom":"D","exampleSet":"first","trial_type":"survey-html-form","trial_index":88,"time_elapsed":491891,"internal_node_id":"0.0-87.0-0.0","params":{"nStudents":24,"maxFlips":25,"completionMinutes":45,"basePay":8,"maxBonus":9,"perTrialBonus":0.5,"perTrialBonusThreshold":0.05,"exampleCost":0.02},"classroomParams":{"A":{"a":1,"b":4},"B":{"a":4,"b":1},"C":{"a":2,"b":8},"D":{"a":8,"b":2}},"conditions":["nonSeqFull","nonSeqPartial","seqNoFeedback","seqFeedback"],"classroomPairings":[["A","B"],["C","D"]],"coinWeights":[0.2,0.5,0.8],"subjectId":"A13FUEPWBCLBUY","assignmentId":"3Z2R0DQ0JI0H1RZJL97BT5KTFW8E2D","hitId":"3IH9TRB0FBLK6RLF7MSMKICTGYN1IU","url":"https://gershmanlab.com/experiments/alicia/teaching/experiment/?hitId=3IH9TRB0FBLK6RLF7MSMKICTGYN1IU&workerId=A13FUEPWBCLBUY&assignmentId=3Z2R0DQ0JI0H1RZJL97BT5KTFW8E2D&a=002Z3&tp_a=002Z3&b=3Z2R0DQ0JI0H1RZJL97BT5KTFW8E2D&tp_b=3Z2R0DQ0JI0H1RZJL97BT5KTFW8E2D&c=365633&tp_c=365633","heads":4,"tails":4,"studentIndex":10,"studentTrueHypers":{"a":8,"b":2},"studentGuess":0.6666666666666666,"delta":0.16666666666666663,"totalExamples":8,"bonusSoFar":0.1},{"rt":4298,"response":{"heads":"5","tails":"5"},"type":"response","condition":"seqFeedback","trueTheta":0.5,"classrooms":["C","D"],"studentTrueClassroom":"D","exampleSet":"second","trial_type":"survey-html-form","trial_index":92,"time_elapsed":503492,"internal_node_id":"0.0-91.0-0.0","params":{"nStudents":24,"maxFlips":25,"completionMinutes":45,"basePay":8,"maxBonus":9,"perTrialBonus":0.5,"perTrialBonusThreshold":0.05,"exampleCost":0.02},"classroomParams":{"A":{"a":1,"b":4},"B":{"a":4,"b":1},"C":{"a":2,"b":8},"D":{"a":8,"b":2}},"conditions":["nonSeqFull","nonSeqPartial","seqNoFeedback","seqFeedback"],"classroomPairings":[["A","B"],["C","D"]],"coinWeights":[0.2,0.5,0.8],"subjectId":"A13FUEPWBCLBUY","assignmentId":"3Z2R0DQ0JI0H1RZJL97BT5KTFW8E2D","hitId":"3IH9TRB0FBLK6RLF7MSMKICTGYN1IU","url":"https://gershmanlab.com/experiments/alicia/teaching/experiment/?hitId=3IH9TRB0FBLK6RLF7MSMKICTGYN1IU&workerId=A13FUEPWBCLBUY&assignmentId=3Z2R0DQ0JI0H1RZJL97BT5KTFW8E2D&a=002Z3&tp_a=002Z3&b=3Z2R0DQ0JI0H1RZJL97BT5KTFW8E2D&tp_b=3Z2R0DQ0JI0H1RZJL97BT5KTFW8E2D&c=365633&tp_c=365633","firstResponseHeads":4,"firstResponseTails":4,"secondResponseHeads":5,"secondResponseTails":5,"totalHeads":9,"totalTails":9,"studentIndex":10,"studentTrueHypers":{"a":8,"b":2},"studentGuess":0.6071428571428571,"delta":0.1071428571428571,"bonus":0,"bonusSoFar":0.1,"totalExamples":18},{"rt":4019,"response":{"heads":"6","tails":"1"},"type":"response","condition":"seqNoFeedback","trueTheta":0.8,"classrooms":["C","D"],"studentTrueClassroom":"D","exampleSet":"first","trial_type":"survey-html-form","trial_index":98,"time_elapsed":517570,"internal_node_id":"0.0-97.0-0.0","params":{"nStudents":24,"maxFlips":25,"completionMinutes":45,"basePay":8,"maxBonus":9,"perTrialBonus":0.5,"perTrialBonusThreshold":0.05,"exampleCost":0.02},"classroomParams":{"A":{"a":1,"b":4},"B":{"a":4,"b":1},"C":{"a":2,"b":8},"D":{"a":8,"b":2}},"conditions":["nonSeqFull","nonSeqPartial","seqNoFeedback","seqFeedback"],"classroomPairings":[["A","B"],["C","D"]],"coinWeights":[0.2,0.5,0.8],"subjectId":"A13FUEPWBCLBUY","assignmentId":"3Z2R0DQ0JI0H1RZJL97BT5KTFW8E2D","hitId":"3IH9TRB0FBLK6RLF7MSMKICTGYN1IU","url":"https://gershmanlab.com/experiments/alicia/teaching/experiment/?hitId=3IH9TRB0FBLK6RLF7MSMKICTGYN1IU&workerId=A13FUEPWBCLBUY&assignmentId=3Z2R0DQ0JI0H1RZJL97BT5KTFW8E2D&a=002Z3&tp_a=002Z3&b=3Z2R0DQ0JI0H1RZJL97BT5KTFW8E2D&tp_b=3Z2R0DQ0JI0H1RZJL97BT5KTFW8E2D&c=365633&tp_c=365633","heads":6,"tails":1,"studentIndex":11,"studentTrueHypers":{"a":8,"b":2},"studentGuess":0.8235294117647058,"delta":0.0235294117647058,"totalExamples":7,"bonusSoFar":0.1},{"rt":4959,"response":{"heads":"8","tails":"2"},"type":"response","condition":"seqNoFeedback","trueTheta":0.8,"classrooms":["C","D"],"studentTrueClassroom":"D","exampleSet":"second","trial_type":"survey-html-form","trial_index":101,"time_elapsed":528809,"internal_node_id":"0.0-100.0-0.0","params":{"nStudents":24,"maxFlips":25,"completionMinutes":45,"basePay":8,"maxBonus":9,"perTrialBonus":0.5,"perTrialBonusThreshold":0.05,"exampleCost":0.02},"classroomParams":{"A":{"a":1,"b":4},"B":{"a":4,"b":1},"C":{"a":2,"b":8},"D":{"a":8,"b":2}},"conditions":["nonSeqFull","nonSeqPartial","seqNoFeedback","seqFeedback"],"classroomPairings":[["A","B"],["C","D"]],"coinWeights":[0.2,0.5,0.8],"subjectId":"A13FUEPWBCLBUY","assignmentId":"3Z2R0DQ0JI0H1RZJL97BT5KTFW8E2D","hitId":"3IH9TRB0FBLK6RLF7MSMKICTGYN1IU","url":"https://gershmanlab.com/experiments/alicia/teaching/experiment/?hitId=3IH9TRB0FBLK6RLF7MSMKICTGYN1IU&workerId=A13FUEPWBCLBUY&assignmentId=3Z2R0DQ0JI0H1RZJL97BT5KTFW8E2D&a=002Z3&tp_a=002Z3&b=3Z2R0DQ0JI0H1RZJL97BT5KTFW8E2D&tp_b=3Z2R0DQ0JI0H1RZJL97BT5KTFW8E2D&c=365633&tp_c=365633","firstResponseHeads":6,"firstResponseTails":1,"secondResponseHeads":8,"secondResponseTails":2,"totalHeads":14,"totalTails":3,"studentIndex":11,"studentTrueHypers":{"a":8,"b":2},"studentGuess":0.8148148148148148,"delta":0.014814814814814725,"bonus":0.16,"bonusSoFar":0.26,"totalExamples":17},{"rt":4001,"response":{"heads":"1","tails":"6"},"type":"response","condition":"seqFeedback","trueTheta":0.2,"classrooms":["A","B"],"studentTrueClassroom":"B","exampleSet":"first","trial_type":"survey-html-form","trial_index":107,"time_elapsed":543472,"internal_node_id":"0.0-106.0-0.0","params":{"nStudents":24,"maxFlips":25,"completionMinutes":45,"basePay":8,"maxBonus":9,"perTrialBonus":0.5,"perTrialBonusThreshold":0.05,"exampleCost":0.02},"classroomParams":{"A":{"a":1,"b":4},"B":{"a":4,"b":1},"C":{"a":2,"b":8},"D":{"a":8,"b":2}},"conditions":["nonSeqFull","nonSeqPartial","seqNoFeedback","seqFeedback"],"classroomPairings":[["A","B"],["C","D"]],"coinWeights":[0.2,0.5,0.8],"subjectId":"A13FUEPWBCLBUY","assignmentId":"3Z2R0DQ0JI0H1RZJL97BT5KTFW8E2D","hitId":"3IH9TRB0FBLK6RLF7MSMKICTGYN1IU","url":"https://gershmanlab.com/experiments/alicia/teaching/experiment/?hitId=3IH9TRB0FBLK6RLF7MSMKICTGYN1IU&workerId=A13FUEPWBCLBUY&assignmentId=3Z2R0DQ0JI0H1RZJL97BT5KTFW8E2D&a=002Z3&tp_a=002Z3&b=3Z2R0DQ0JI0H1RZJL97BT5KTFW8E2D&tp_b=3Z2R0DQ0JI0H1RZJL97BT5KTFW8E2D&c=365633&tp_c=365633","heads":1,"tails":6,"studentIndex":12,"studentTrueHypers":{"a":4,"b":1},"studentGuess":0.4166666666666667,"delta":0.21666666666666667,"totalExamples":7,"bonusSoFar":0.26},{"rt":4513,"response":{"heads":"1","tails":"6"},"type":"response","condition":"seqFeedback","trueTheta":0.2,"classrooms":["A","B"],"studentTrueClassroom":"B","exampleSet":"second","trial_type":"survey-html-form","trial_index":111,"time_elapsed":554815,"internal_node_id":"0.0-110.0-0.0","params":{"nStudents":24,"maxFlips":25,"completionMinutes":45,"basePay":8,"maxBonus":9,"perTrialBonus":0.5,"perTrialBonusThreshold":0.05,"exampleCost":0.02},"classroomParams":{"A":{"a":1,"b":4},"B":{"a":4,"b":1},"C":{"a":2,"b":8},"D":{"a":8,"b":2}},"conditions":["nonSeqFull","nonSeqPartial","seqNoFeedback","seqFeedback"],"classroomPairings":[["A","B"],["C","D"]],"coinWeights":[0.2,0.5,0.8],"subjectId":"A13FUEPWBCLBUY","assignmentId":"3Z2R0DQ0JI0H1RZJL97BT5KTFW8E2D","hitId":"3IH9TRB0FBLK6RLF7MSMKICTGYN1IU","url":"https://gershmanlab.com/experiments/alicia/teaching/experiment/?hitId=3IH9TRB0FBLK6RLF7MSMKICTGYN1IU&workerId=A13FUEPWBCLBUY&assignmentId=3Z2R0DQ0JI0H1RZJL97BT5KTFW8E2D&a=002Z3&tp_a=002Z3&b=3Z2R0DQ0JI0H1RZJL97BT5KTFW8E2D&tp_b=3Z2R0DQ0JI0H1RZJL97BT5KTFW8E2D&c=365633&tp_c=365633","firstResponseHeads":1,"firstResponseTails":6,"secondResponseHeads":1,"secondResponseTails":6,"totalHeads":2,"totalTails":12,"studentIndex":12,"studentTrueHypers":{"a":4,"b":1},"studentGuess":0.3157894736842105,"delta":0.1157894736842105,"bonus":0,"bonusSoFar":0.26,"totalExamples":14},{"rt":3762,"response":{"heads":"2","tails":"2"},"type":"response","condition":"seqNoFeedback","trueTheta":0.5,"classrooms":["A","B"],"studentTrueClassroom":"B","exampleSet":"first","trial_type":"survey-html-form","trial_index":117,"time_elapsed":572686,"internal_node_id":"0.0-116.0-0.0","params":{"nStudents":24,"maxFlips":25,"completionMinutes":45,"basePay":8,"maxBonus":9,"perTrialBonus":0.5,"perTrialBonusThreshold":0.05,"exampleCost":0.02},"classroomParams":{"A":{"a":1,"b":4},"B":{"a":4,"b":1},"C":{"a":2,"b":8},"D":{"a":8,"b":2}},"conditions":["nonSeqFull","nonSeqPartial","seqNoFeedback","seqFeedback"],"classroomPairings":[["A","B"],["C","D"]],"coinWeights":[0.2,0.5,0.8],"subjectId":"A13FUEPWBCLBUY","assignmentId":"3Z2R0DQ0JI0H1RZJL97BT5KTFW8E2D","hitId":"3IH9TRB0FBLK6RLF7MSMKICTGYN1IU","url":"https://gershmanlab.com/experiments/alicia/teaching/experiment/?hitId=3IH9TRB0FBLK6RLF7MSMKICTGYN1IU&workerId=A13FUEPWBCLBUY&assignmentId=3Z2R0DQ0JI0H1RZJL97BT5KTFW8E2D&a=002Z3&tp_a=002Z3&b=3Z2R0DQ0JI0H1RZJL97BT5KTFW8E2D&tp_b=3Z2R0DQ0JI0H1RZJL97BT5KTFW8E2D&c=365633&tp_c=365633","heads":2,"tails":2,"studentIndex":13,"studentTrueHypers":{"a":4,"b":1},"studentGuess":0.6666666666666666,"delta":0.16666666666666663,"totalExamples":4,"bonusSoFar":0.26},{"rt":4970,"response":{"heads":"2","tails":"2"},"type":"response","condition":"seqNoFeedback","trueTheta":0.5,"classrooms":["A","B"],"studentTrueClassroom":"B","exampleSet":"second","trial_type":"survey-html-form","trial_index":120,"time_elapsed":582939,"internal_node_id":"0.0-119.0-0.0","params":{"nStudents":24,"maxFlips":25,"completionMinutes":45,"basePay":8,"maxBonus":9,"perTrialBonus":0.5,"perTrialBonusThreshold":0.05,"exampleCost":0.02},"classroomParams":{"A":{"a":1,"b":4},"B":{"a":4,"b":1},"C":{"a":2,"b":8},"D":{"a":8,"b":2}},"conditions":["nonSeqFull","nonSeqPartial","seqNoFeedback","seqFeedback"],"classroomPairings":[["A","B"],["C","D"]],"coinWeights":[0.2,0.5,0.8],"subjectId":"A13FUEPWBCLBUY","assignmentId":"3Z2R0DQ0JI0H1RZJL97BT5KTFW8E2D","hitId":"3IH9TRB0FBLK6RLF7MSMKICTGYN1IU","url":"https://gershmanlab.com/experiments/alicia/teaching/experiment/?hitId=3IH9TRB0FBLK6RLF7MSMKICTGYN1IU&workerId=A13FUEPWBCLBUY&assignmentId=3Z2R0DQ0JI0H1RZJL97BT5KTFW8E2D&a=002Z3&tp_a=002Z3&b=3Z2R0DQ0JI0H1RZJL97BT5KTFW8E2D&tp_b=3Z2R0DQ0JI0H1RZJL97BT5KTFW8E2D&c=365633&tp_c=365633","firstResponseHeads":2,"firstResponseTails":2,"secondResponseHeads":2,"secondResponseTails":2,"totalHeads":4,"totalTails":4,"studentIndex":13,"studentTrueHypers":{"a":4,"b":1},"studentGuess":0.6153846153846154,"delta":0.11538461538461542,"bonus":0,"bonusSoFar":0.26,"totalExamples":8},{"rt":4009,"response":{"heads":"4","tails":"1"},"type":"response","condition":"nonSeqPartial","trueTheta":0.8,"classrooms":["C","D"],"studentTrueClassroom":"D","exampleSet":"first","trial_type":"survey-html-form","trial_index":126,"time_elapsed":598817,"internal_node_id":"0.0-125.0-0.0","params":{"nStudents":24,"maxFlips":25,"completionMinutes":45,"basePay":8,"maxBonus":9,"perTrialBonus":0.5,"perTrialBonusThreshold":0.05,"exampleCost":0.02},"classroomParams":{"A":{"a":1,"b":4},"B":{"a":4,"b":1},"C":{"a":2,"b":8},"D":{"a":8,"b":2}},"conditions":["nonSeqFull","nonSeqPartial","seqNoFeedback","seqFeedback"],"classroomPairings":[["A","B"],["C","D"]],"coinWeights":[0.2,0.5,0.8],"subjectId":"A13FUEPWBCLBUY","assignmentId":"3Z2R0DQ0JI0H1RZJL97BT5KTFW8E2D","hitId":"3IH9TRB0FBLK6RLF7MSMKICTGYN1IU","url":"https://gershmanlab.com/experiments/alicia/teaching/experiment/?hitId=3IH9TRB0FBLK6RLF7MSMKICTGYN1IU&workerId=A13FUEPWBCLBUY&assignmentId=3Z2R0DQ0JI0H1RZJL97BT5KTFW8E2D&a=002Z3&tp_a=002Z3&b=3Z2R0DQ0JI0H1RZJL97BT5KTFW8E2D&tp_b=3Z2R0DQ0JI0H1RZJL97BT5KTFW8E2D&c=365633&tp_c=365633","heads":4,"tails":1,"studentIndex":14,"studentTrueHypers":{"a":8,"b":2},"studentGuess":0.8,"delta":0,"totalExamples":5,"bonus":0.4,"bonusSoFar":0.66},{"rt":8890,"response":{"heads":"1","tails":"4"},"type":"response","condition":"nonSeqPartial","trueTheta":0.2,"classrooms":["C","D"],"studentTrueClassroom":"C","exampleSet":"first","trial_type":"survey-html-form","trial_index":132,"time_elapsed":620432,"internal_node_id":"0.0-131.0-0.0","params":{"nStudents":24,"maxFlips":25,"completionMinutes":45,"basePay":8,"maxBonus":9,"perTrialBonus":0.5,"perTrialBonusThreshold":0.05,"exampleCost":0.02},"classroomParams":{"A":{"a":1,"b":4},"B":{"a":4,"b":1},"C":{"a":2,"b":8},"D":{"a":8,"b":2}},"conditions":["nonSeqFull","nonSeqPartial","seqNoFeedback","seqFeedback"],"classroomPairings":[["A","B"],["C","D"]],"coinWeights":[0.2,0.5,0.8],"subjectId":"A13FUEPWBCLBUY","assignmentId":"3Z2R0DQ0JI0H1RZJL97BT5KTFW8E2D","hitId":"3IH9TRB0FBLK6RLF7MSMKICTGYN1IU","url":"https://gershmanlab.com/experiments/alicia/teaching/experiment/?hitId=3IH9TRB0FBLK6RLF7MSMKICTGYN1IU&workerId=A13FUEPWBCLBUY&assignmentId=3Z2R0DQ0JI0H1RZJL97BT5KTFW8E2D&a=002Z3&tp_a=002Z3&b=3Z2R0DQ0JI0H1RZJL97BT5KTFW8E2D&tp_b=3Z2R0DQ0JI0H1RZJL97BT5KTFW8E2D&c=365633&tp_c=365633","heads":1,"tails":4,"studentIndex":15,"studentTrueHypers":{"a":2,"b":8},"studentGuess":0.2,"delta":0,"totalExamples":5,"bonus":0.4,"bonusSoFar":1.06},{"rt":3467,"response":{"heads":"1","tails":"1"},"type":"response","condition":"nonSeqPartial","trueTheta":0.5,"classrooms":["A","B"],"studentTrueClassroom":"B","exampleSet":"first","trial_type":"survey-html-form","trial_index":138,"time_elapsed":634232,"internal_node_id":"0.0-137.0-0.0","params":{"nStudents":24,"maxFlips":25,"completionMinutes":45,"basePay":8,"maxBonus":9,"perTrialBonus":0.5,"perTrialBonusThreshold":0.05,"exampleCost":0.02},"classroomParams":{"A":{"a":1,"b":4},"B":{"a":4,"b":1},"C":{"a":2,"b":8},"D":{"a":8,"b":2}},"conditions":["nonSeqFull","nonSeqPartial","seqNoFeedback","seqFeedback"],"classroomPairings":[["A","B"],["C","D"]],"coinWeights":[0.2,0.5,0.8],"subjectId":"A13FUEPWBCLBUY","assignmentId":"3Z2R0DQ0JI0H1RZJL97BT5KTFW8E2D","hitId":"3IH9TRB0FBLK6RLF7MSMKICTGYN1IU","url":"https://gershmanlab.com/experiments/alicia/teaching/experiment/?hitId=3IH9TRB0FBLK6RLF7MSMKICTGYN1IU&workerId=A13FUEPWBCLBUY&assignmentId=3Z2R0DQ0JI0H1RZJL97BT5KTFW8E2D&a=002Z3&tp_a=002Z3&b=3Z2R0DQ0JI0H1RZJL97BT5KTFW8E2D&tp_b=3Z2R0DQ0JI0H1RZJL97BT5KTFW8E2D&c=365633&tp_c=365633","heads":1,"tails":1,"studentIndex":16,"studentTrueHypers":{"a":4,"b":1},"studentGuess":0.7142857142857143,"delta":0.2142857142857143,"totalExamples":2,"bonus":0,"bonusSoFar":1.06},{"rt":5846,"response":{"heads":"1","tails":"4"},"type":"response","condition":"nonSeqPartial","trueTheta":0.2,"classrooms":["A","B"],"studentTrueClassroom":"A","exampleSet":"first","trial_type":"survey-html-form","trial_index":144,"time_elapsed":650145,"internal_node_id":"0.0-143.0-0.0","params":{"nStudents":24,"maxFlips":25,"completionMinutes":45,"basePay":8,"maxBonus":9,"perTrialBonus":0.5,"perTrialBonusThreshold":0.05,"exampleCost":0.02},"classroomParams":{"A":{"a":1,"b":4},"B":{"a":4,"b":1},"C":{"a":2,"b":8},"D":{"a":8,"b":2}},"conditions":["nonSeqFull","nonSeqPartial","seqNoFeedback","seqFeedback"],"classroomPairings":[["A","B"],["C","D"]],"coinWeights":[0.2,0.5,0.8],"subjectId":"A13FUEPWBCLBUY","assignmentId":"3Z2R0DQ0JI0H1RZJL97BT5KTFW8E2D","hitId":"3IH9TRB0FBLK6RLF7MSMKICTGYN1IU","url":"https://gershmanlab.com/experiments/alicia/teaching/experiment/?hitId=3IH9TRB0FBLK6RLF7MSMKICTGYN1IU&workerId=A13FUEPWBCLBUY&assignmentId=3Z2R0DQ0JI0H1RZJL97BT5KTFW8E2D&a=002Z3&tp_a=002Z3&b=3Z2R0DQ0JI0H1RZJL97BT5KTFW8E2D&tp_b=3Z2R0DQ0JI0H1RZJL97BT5KTFW8E2D&c=365633&tp_c=365633","heads":1,"tails":4,"studentIndex":17,"studentTrueHypers":{"a":1,"b":4},"studentGuess":0.2,"delta":0,"totalExamples":5,"bonus":0.4,"bonusSoFar":1.46},{"rt":3511,"response":{"heads":"1","tails":"1"},"type":"response","condition":"nonSeqFull","trueTheta":0.5,"classrooms":["A","B"],"studentTrueClassroom":"A","exampleSet":"first","trial_type":"survey-html-form","trial_index":150,"time_elapsed":666173,"internal_node_id":"0.0-149.0-0.0","params":{"nStudents":24,"maxFlips":25,"completionMinutes":45,"basePay":8,"maxBonus":9,"perTrialBonus":0.5,"perTrialBonusThreshold":0.05,"exampleCost":0.02},"classroomParams":{"A":{"a":1,"b":4},"B":{"a":4,"b":1},"C":{"a":2,"b":8},"D":{"a":8,"b":2}},"conditions":["nonSeqFull","nonSeqPartial","seqNoFeedback","seqFeedback"],"classroomPairings":[["A","B"],["C","D"]],"coinWeights":[0.2,0.5,0.8],"subjectId":"A13FUEPWBCLBUY","assignmentId":"3Z2R0DQ0JI0H1RZJL97BT5KTFW8E2D","hitId":"3IH9TRB0FBLK6RLF7MSMKICTGYN1IU","url":"https://gershmanlab.com/experiments/alicia/teaching/experiment/?hitId=3IH9TRB0FBLK6RLF7MSMKICTGYN1IU&workerId=A13FUEPWBCLBUY&assignmentId=3Z2R0DQ0JI0H1RZJL97BT5KTFW8E2D&a=002Z3&tp_a=002Z3&b=3Z2R0DQ0JI0H1RZJL97BT5KTFW8E2D&tp_b=3Z2R0DQ0JI0H1RZJL97BT5KTFW8E2D&c=365633&tp_c=365633","heads":1,"tails":1,"studentIndex":18,"studentTrueHypers":{"a":1,"b":4},"studentGuess":0.2857142857142857,"delta":0.2142857142857143,"totalExamples":2,"bonus":0,"bonusSoFar":1.46},{"rt":5998,"response":{"heads":"8","tails":"2"},"type":"response","condition":"seqFeedback","trueTheta":0.2,"classrooms":["C","D"],"studentTrueClassroom":"C","exampleSet":"first","trial_type":"survey-html-form","trial_index":156,"time_elapsed":683193,"internal_node_id":"0.0-155.0-0.0","params":{"nStudents":24,"maxFlips":25,"completionMinutes":45,"basePay":8,"maxBonus":9,"perTrialBonus":0.5,"perTrialBonusThreshold":0.05,"exampleCost":0.02},"classroomParams":{"A":{"a":1,"b":4},"B":{"a":4,"b":1},"C":{"a":2,"b":8},"D":{"a":8,"b":2}},"conditions":["nonSeqFull","nonSeqPartial","seqNoFeedback","seqFeedback"],"classroomPairings":[["A","B"],["C","D"]],"coinWeights":[0.2,0.5,0.8],"subjectId":"A13FUEPWBCLBUY","assignmentId":"3Z2R0DQ0JI0H1RZJL97BT5KTFW8E2D","hitId":"3IH9TRB0FBLK6RLF7MSMKICTGYN1IU","url":"https://gershmanlab.com/experiments/alicia/teaching/experiment/?hitId=3IH9TRB0FBLK6RLF7MSMKICTGYN1IU&workerId=A13FUEPWBCLBUY&assignmentId=3Z2R0DQ0JI0H1RZJL97BT5KTFW8E2D&a=002Z3&tp_a=002Z3&b=3Z2R0DQ0JI0H1RZJL97BT5KTFW8E2D&tp_b=3Z2R0DQ0JI0H1RZJL97BT5KTFW8E2D&c=365633&tp_c=365633","heads":8,"tails":2,"studentIndex":19,"studentTrueHypers":{"a":2,"b":8},"studentGuess":0.5,"delta":0.3,"totalExamples":10,"bonusSoFar":1.46},{"rt":9732,"response":{"heads":"4","tails":"1"},"type":"response","condition":"seqFeedback","trueTheta":0.2,"classrooms":["C","D"],"studentTrueClassroom":"C","exampleSet":"second","trial_type":"survey-html-form","trial_index":160,"time_elapsed":699989,"internal_node_id":"0.0-159.0-0.0","params":{"nStudents":24,"maxFlips":25,"completionMinutes":45,"basePay":8,"maxBonus":9,"perTrialBonus":0.5,"perTrialBonusThreshold":0.05,"exampleCost":0.02},"classroomParams":{"A":{"a":1,"b":4},"B":{"a":4,"b":1},"C":{"a":2,"b":8},"D":{"a":8,"b":2}},"conditions":["nonSeqFull","nonSeqPartial","seqNoFeedback","seqFeedback"],"classroomPairings":[["A","B"],["C","D"]],"coinWeights":[0.2,0.5,0.8],"subjectId":"A13FUEPWBCLBUY","assignmentId":"3Z2R0DQ0JI0H1RZJL97BT5KTFW8E2D","hitId":"3IH9TRB0FBLK6RLF7MSMKICTGYN1IU","url":"https://gershmanlab.com/experiments/alicia/teaching/experiment/?hitId=3IH9TRB0FBLK6RLF7MSMKICTGYN1IU&workerId=A13FUEPWBCLBUY&assignmentId=3Z2R0DQ0JI0H1RZJL97BT5KTFW8E2D&a=002Z3&tp_a=002Z3&b=3Z2R0DQ0JI0H1RZJL97BT5KTFW8E2D&tp_b=3Z2R0DQ0JI0H1RZJL97BT5KTFW8E2D&c=365633&tp_c=365633","firstResponseHeads":8,"firstResponseTails":2,"secondResponseHeads":4,"secondResponseTails":1,"totalHeads":12,"totalTails":3,"studentIndex":19,"studentTrueHypers":{"a":2,"b":8},"studentGuess":0.56,"delta":0.36000000000000004,"bonus":0,"bonusSoFar":1.46,"totalExamples":15},{"rt":7787,"response":{"heads":"1","tails":"4"},"type":"response","condition":"nonSeqFull","trueTheta":0.2,"classrooms":["C","D"],"studentTrueClassroom":"D","exampleSet":"first","trial_type":"survey-html-form","trial_index":166,"time_elapsed":719391,"internal_node_id":"0.0-165.0-0.0","params":{"nStudents":24,"maxFlips":25,"completionMinutes":45,"basePay":8,"maxBonus":9,"perTrialBonus":0.5,"perTrialBonusThreshold":0.05,"exampleCost":0.02},"classroomParams":{"A":{"a":1,"b":4},"B":{"a":4,"b":1},"C":{"a":2,"b":8},"D":{"a":8,"b":2}},"conditions":["nonSeqFull","nonSeqPartial","seqNoFeedback","seqFeedback"],"classroomPairings":[["A","B"],["C","D"]],"coinWeights":[0.2,0.5,0.8],"subjectId":"A13FUEPWBCLBUY","assignmentId":"3Z2R0DQ0JI0H1RZJL97BT5KTFW8E2D","hitId":"3IH9TRB0FBLK6RLF7MSMKICTGYN1IU","url":"https://gershmanlab.com/experiments/alicia/teaching/experiment/?hitId=3IH9TRB0FBLK6RLF7MSMKICTGYN1IU&workerId=A13FUEPWBCLBUY&assignmentId=3Z2R0DQ0JI0H1RZJL97BT5KTFW8E2D&a=002Z3&tp_a=002Z3&b=3Z2R0DQ0JI0H1RZJL97BT5KTFW8E2D&tp_b=3Z2R0DQ0JI0H1RZJL97BT5KTFW8E2D&c=365633&tp_c=365633","heads":1,"tails":4,"studentIndex":20,"studentTrueHypers":{"a":8,"b":2},"studentGuess":0.6,"delta":0.39999999999999997,"totalExamples":5,"bonus":0,"bonusSoFar":1.46},{"rt":4351,"response":{"heads":"1","tails":"4"},"type":"response","condition":"seqNoFeedback","trueTheta":0.2,"classrooms":["A","B"],"studentTrueClassroom":"B","exampleSet":"first","trial_type":"survey-html-form","trial_index":172,"time_elapsed":733667,"internal_node_id":"0.0-171.0-0.0","params":{"nStudents":24,"maxFlips":25,"completionMinutes":45,"basePay":8,"maxBonus":9,"perTrialBonus":0.5,"perTrialBonusThreshold":0.05,"exampleCost":0.02},"classroomParams":{"A":{"a":1,"b":4},"B":{"a":4,"b":1},"C":{"a":2,"b":8},"D":{"a":8,"b":2}},"conditions":["nonSeqFull","nonSeqPartial","seqNoFeedback","seqFeedback"],"classroomPairings":[["A","B"],["C","D"]],"coinWeights":[0.2,0.5,0.8],"subjectId":"A13FUEPWBCLBUY","assignmentId":"3Z2R0DQ0JI0H1RZJL97BT5KTFW8E2D","hitId":"3IH9TRB0FBLK6RLF7MSMKICTGYN1IU","url":"https://gershmanlab.com/experiments/alicia/teaching/experiment/?hitId=3IH9TRB0FBLK6RLF7MSMKICTGYN1IU&workerId=A13FUEPWBCLBUY&assignmentId=3Z2R0DQ0JI0H1RZJL97BT5KTFW8E2D&a=002Z3&tp_a=002Z3&b=3Z2R0DQ0JI0H1RZJL97BT5KTFW8E2D&tp_b=3Z2R0DQ0JI0H1RZJL97BT5KTFW8E2D&c=365633&tp_c=365633","heads":1,"tails":4,"studentIndex":21,"studentTrueHypers":{"a":4,"b":1},"studentGuess":0.5,"delta":0.3,"totalExamples":5,"bonusSoFar":1.46},{"rt":5280,"response":{"heads":"1","tails":"4"},"type":"response","condition":"seqNoFeedback","trueTheta":0.2,"classrooms":["A","B"],"studentTrueClassroom":"B","exampleSet":"second","trial_type":"survey-html-form","trial_index":175,"time_elapsed":745227,"internal_node_id":"0.0-174.0-0.0","params":{"nStudents":24,"maxFlips":25,"completionMinutes":45,"basePay":8,"maxBonus":9,"perTrialBonus":0.5,"perTrialBonusThreshold":0.05,"exampleCost":0.02},"classroomParams":{"A":{"a":1,"b":4},"B":{"a":4,"b":1},"C":{"a":2,"b":8},"D":{"a":8,"b":2}},"conditions":["nonSeqFull","nonSeqPartial","seqNoFeedback","seqFeedback"],"classroomPairings":[["A","B"],["C","D"]],"coinWeights":[0.2,0.5,0.8],"subjectId":"A13FUEPWBCLBUY","assignmentId":"3Z2R0DQ0JI0H1RZJL97BT5KTFW8E2D","hitId":"3IH9TRB0FBLK6RLF7MSMKICTGYN1IU","url":"https://gershmanlab.com/experiments/alicia/teaching/experiment/?hitId=3IH9TRB0FBLK6RLF7MSMKICTGYN1IU&workerId=A13FUEPWBCLBUY&assignmentId=3Z2R0DQ0JI0H1RZJL97BT5KTFW8E2D&a=002Z3&tp_a=002Z3&b=3Z2R0DQ0JI0H1RZJL97BT5KTFW8E2D&tp_b=3Z2R0DQ0JI0H1RZJL97BT5KTFW8E2D&c=365633&tp_c=365633","firstResponseHeads":1,"firstResponseTails":4,"secondResponseHeads":1,"secondResponseTails":4,"totalHeads":2,"totalTails":8,"studentIndex":21,"studentTrueHypers":{"a":4,"b":1},"studentGuess":0.4,"delta":0.2,"bonus":0,"bonusSoFar":1.46,"totalExamples":10},{"rt":4528,"response":{"heads":"4","tails":"1"},"type":"response","condition":"nonSeqFull","trueTheta":0.8,"classrooms":["C","D"],"studentTrueClassroom":"D","exampleSet":"first","trial_type":"survey-html-form","trial_index":181,"time_elapsed":759674,"internal_node_id":"0.0-180.0-0.0","params":{"nStudents":24,"maxFlips":25,"completionMinutes":45,"basePay":8,"maxBonus":9,"perTrialBonus":0.5,"perTrialBonusThreshold":0.05,"exampleCost":0.02},"classroomParams":{"A":{"a":1,"b":4},"B":{"a":4,"b":1},"C":{"a":2,"b":8},"D":{"a":8,"b":2}},"conditions":["nonSeqFull","nonSeqPartial","seqNoFeedback","seqFeedback"],"classroomPairings":[["A","B"],["C","D"]],"coinWeights":[0.2,0.5,0.8],"subjectId":"A13FUEPWBCLBUY","assignmentId":"3Z2R0DQ0JI0H1RZJL97BT5KTFW8E2D","hitId":"3IH9TRB0FBLK6RLF7MSMKICTGYN1IU","url":"https://gershmanlab.com/experiments/alicia/teaching/experiment/?hitId=3IH9TRB0FBLK6RLF7MSMKICTGYN1IU&workerId=A13FUEPWBCLBUY&assignmentId=3Z2R0DQ0JI0H1RZJL97BT5KTFW8E2D&a=002Z3&tp_a=002Z3&b=3Z2R0DQ0JI0H1RZJL97BT5KTFW8E2D&tp_b=3Z2R0DQ0JI0H1RZJL97BT5KTFW8E2D&c=365633&tp_c=365633","heads":4,"tails":1,"studentIndex":22,"studentTrueHypers":{"a":8,"b":2},"studentGuess":0.8,"delta":0,"totalExamples":5,"bonus":0.4,"bonusSoFar":1.86},{"rt":3145,"response":{"heads":"1","tails":"1"},"type":"response","condition":"nonSeqPartial","trueTheta":0.5,"classrooms":["C","D"],"studentTrueClassroom":"C","exampleSet":"first","trial_type":"survey-html-form","trial_index":187,"time_elapsed":773368,"internal_node_id":"0.0-186.0-0.0","params":{"nStudents":24,"maxFlips":25,"completionMinutes":45,"basePay":8,"maxBonus":9,"perTrialBonus":0.5,"perTrialBonusThreshold":0.05,"exampleCost":0.02},"classroomParams":{"A":{"a":1,"b":4},"B":{"a":4,"b":1},"C":{"a":2,"b":8},"D":{"a":8,"b":2}},"conditions":["nonSeqFull","nonSeqPartial","seqNoFeedback","seqFeedback"],"classroomPairings":[["A","B"],["C","D"]],"coinWeights":[0.2,0.5,0.8],"subjectId":"A13FUEPWBCLBUY","assignmentId":"3Z2R0DQ0JI0H1RZJL97BT5KTFW8E2D","hitId":"3IH9TRB0FBLK6RLF7MSMKICTGYN1IU","url":"https://gershmanlab.com/experiments/alicia/teaching/experiment/?hitId=3IH9TRB0FBLK6RLF7MSMKICTGYN1IU&workerId=A13FUEPWBCLBUY&assignmentId=3Z2R0DQ0JI0H1RZJL97BT5KTFW8E2D&a=002Z3&tp_a=002Z3&b=3Z2R0DQ0JI0H1RZJL97BT5KTFW8E2D&tp_b=3Z2R0DQ0JI0H1RZJL97BT5KTFW8E2D&c=365633&tp_c=365633","heads":1,"tails":1,"studentIndex":23,"studentTrueHypers":{"a":2,"b":8},"studentGuess":0.25,"delta":0.25,"totalExamples":2,"bonus":0,"bonusSoFar":1.86},{"rt":15329,"response":{"gender":"male","age":"38","understood":"yes","comments":"No additional comments."},"type":"response","trial_type":"survey-html-form","trial_index":191,"time_elapsed":797301,"internal_node_id":"0.0-191.0","params":{"nStudents":24,"maxFlips":25,"completionMinutes":45,"basePay":8,"maxBonus":9,"perTrialBonus":0.5,"perTrialBonusThreshold":0.05,"exampleCost":0.02},"classroomParams":{"A":{"a":1,"b":4},"B":{"a":4,"b":1},"C":{"a":2,"b":8},"D":{"a":8,"b":2}},"conditions":["nonSeqFull","nonSeqPartial","seqNoFeedback","seqFeedback"],"classroomPairings":[["A","B"],["C","D"]],"coinWeights":[0.2,0.5,0.8],"subjectId":"A13FUEPWBCLBUY","assignmentId":"3Z2R0DQ0JI0H1RZJL97BT5KTFW8E2D","hitId":"3IH9TRB0FBLK6RLF7MSMKICTGYN1IU","url":"https://gershmanlab.com/experiments/alicia/teaching/experiment/?hitId=3IH9TRB0FBLK6RLF7MSMKICTGYN1IU&workerId=A13FUEPWBCLBUY&assignmentId=3Z2R0DQ0JI0H1RZJL97BT5KTFW8E2D&a=002Z3&tp_a=002Z3&b=3Z2R0DQ0JI0H1RZJL97BT5KTFW8E2D&tp_b=3Z2R0DQ0JI0H1RZJL97BT5KTFW8E2D&c=365633&tp_c=365633","totalBonus":1.86}]