[{"rt":114657,"response":{"heads":"13","tails":"12"},"type":"response","condition":"seqNoFeedback","trueTheta":0.8,"classrooms":["A","B"],"studentTrueClassroom":"B","exampleSet":"first","trial_type":"survey-html-form","trial_index":7,"time_elapsed":639924,"internal_node_id":"0.0-6.0-0.0","params":{"nStudents":24,"maxFlips":25,"completionMinutes":45,"basePay":8,"maxBonus":9,"perTrialBonus":0.5,"perTrialBonusThreshold":0.05,"exampleCost":0.02},"classroomParams":{"A":{"a":1,"b":4},"B":{"a":4,"b":1},"C":{"a":2,"b":8},"D":{"a":8,"b":2}},"conditions":["nonSeqFull","nonSeqPartial","seqNoFeedback","seqFeedback"],"classroomPairings":[["A","B"],["C","D"]],"coinWeights":[0.2,0.5,0.8],"subjectId":"A181HHZC94KPZR","assignmentId":"308XBLVESJQ0Y84KQ8KMT5MGORBBRP","hitId":"3IH9TRB0FBLK6RLF7MSMKICTGYN1IU","url":"https://gershmanlab.com/experiments/alicia/teaching/experiment/?hitId=3IH9TRB0FBLK6RLF7MSMKICTGYN1IU&workerId=A181HHZC94KPZR&assignmentId=308XBLVESJQ0Y84KQ8KMT5MGORBBRP&a=EB803&tp_a=EB803&b=308XBLVESJQ0Y84KQ8KMT5MGORBBRP&tp_b=308XBLVESJQ0Y84KQ8KMT5MGORBBRP&c=365633&tp_c=365633","heads":13,"tails":12,"studentIndex":0,"studentTrueHypers":{"a":4,"b":1},"studentGuess":0.5666666666666667,"delta":0.2333333333333334,"totalExamples":25,"bonusSoFar":0},{"rt":144747,"response":{"heads":"20","tails":"5"},"type":"response","condition":"seqNoFeedback","trueTheta":0.8,"classrooms":["A","B"],"studentTrueClassroom":"B","exampleSet":"second","trial_type":"survey-html-form","trial_index":10,"time_elapsed":792433,"internal_node_id":"0.0-9.0-0.0","params":{"nStudents":24,"maxFlips":25,"completionMinutes":45,"basePay":8,"maxBonus":9,"perTrialBonus":0.5,"perTrialBonusThreshold":0.05,"exampleCost":0.02},"classroomParams":{"A":{"a":1,"b":4},"B":{"a":4,"b":1},"C":{"a":2,"b":8},"D":{"a":8,"b":2}},"conditions":["nonSeqFull","nonSeqPartial","seqNoFeedback","seqFeedback"],"classroomPairings":[["A","B"],["C","D"]],"coinWeights":[0.2,0.5,0.8],"subjectId":"A181HHZC94KPZR","assignmentId":"308XBLVESJQ0Y84KQ8KMT5MGORBBRP","hitId":"3IH9TRB0FBLK6RLF7MSMKICTGYN1IU","url":"https://gershmanlab.com/experiments/alicia/teaching/experiment/?hitId=3IH9TRB0FBLK6RLF7MSMKICTGYN1IU&workerId=A181HHZC94KPZR&assignmentId=308XBLVESJQ0Y84KQ8KMT5MGORBBRP&a=EB803&tp_a=EB803&b=308XBLVESJQ0Y84KQ8KMT5MGORBBRP&tp_b=308XBLVESJQ0Y84KQ8KMT5MGORBBRP&c=365633&tp_c=365633","firstResponseHeads":13,"firstResponseTails":12,"secondResponseHeads":20,"secondResponseTails":5,"totalHeads":33,"totalTails":17,"studentIndex":0,"studentTrueHypers":{"a":4,"b":1},"studentGuess":0.6727272727272727,"delta":0.12727272727272732,"bonus":0,"bonusSoFar":0,"totalExamples":50},{"rt":21657,"response":{"heads":"5","tails":"20"},"type":"response","condition":"seqNoFeedback","trueTheta":0.2,"classrooms":["C","D"],"studentTrueClassroom":"C","exampleSet":"first","trial_type":"survey-html-form","trial_index":16,"time_elapsed":870823,"internal_node_id":"0.0-15.0-0.0","params":{"nStudents":24,"maxFlips":25,"completionMinutes":45,"basePay":8,"maxBonus":9,"perTrialBonus":0.5,"perTrialBonusThreshold":0.05,"exampleCost":0.02},"classroomParams":{"A":{"a":1,"b":4},"B":{"a":4,"b":1},"C":{"a":2,"b":8},"D":{"a":8,"b":2}},"conditions":["nonSeqFull","nonSeqPartial","seqNoFeedback","seqFeedback"],"classroomPairings":[["A","B"],["C","D"]],"coinWeights":[0.2,0.5,0.8],"subjectId":"A181HHZC94KPZR","assignmentId":"308XBLVESJQ0Y84KQ8KMT5MGORBBRP","hitId":"3IH9TRB0FBLK6RLF7MSMKICTGYN1IU","url":"https://gershmanlab.com/experiments/alicia/teaching/experiment/?hitId=3IH9TRB0FBLK6RLF7MSMKICTGYN1IU&workerId=A181HHZC94KPZR&assignmentId=308XBLVESJQ0Y84KQ8KMT5MGORBBRP&a=EB803&tp_a=EB803&b=308XBLVESJQ0Y84KQ8KMT5MGORBBRP&tp_b=308XBLVESJQ0Y84KQ8KMT5MGORBBRP&c=365633&tp_c=365633","heads":5,"tails":20,"studentIndex":1,"studentTrueHypers":{"a":2,"b":8},"studentGuess":0.2,"delta":0,"totalExamples":25,"bonusSoFar":0},{"rt":11009,"response":{"heads":"5","tails":"20"},"type":"response","condition":"seqNoFeedback","trueTheta":0.2,"classrooms":["C","D"],"studentTrueClassroom":"C","exampleSet":"second","trial_type":"survey-html-form","trial_index":19,"time_elapsed":889350,"internal_node_id":"0.0-18.0-0.0","params":{"nStudents":24,"maxFlips":25,"completionMinutes":45,"basePay":8,"maxBonus":9,"perTrialBonus":0.5,"perTrialBonusThreshold":0.05,"exampleCost":0.02},"classroomParams":{"A":{"a":1,"b":4},"B":{"a":4,"b":1},"C":{"a":2,"b":8},"D":{"a":8,"b":2}},"conditions":["nonSeqFull","nonSeqPartial","seqNoFeedback","seqFeedback"],"classroomPairings":[["A","B"],["C","D"]],"coinWeights":[0.2,0.5,0.8],"subjectId":"A181HHZC94KPZR","assignmentId":"308XBLVESJQ0Y84KQ8KMT5MGORBBRP","hitId":"3IH9TRB0FBLK6RLF7MSMKICTGYN1IU","url":"https://gershmanlab.com/experiments/alicia/teaching/experiment/?hitId=3IH9TRB0FBLK6RLF7MSMKICTGYN1IU&workerId=A181HHZC94KPZR&assignmentId=308XBLVESJQ0Y84KQ8KMT5MGORBBRP&a=EB803&tp_a=EB803&b=308XBLVESJQ0Y84KQ8KMT5MGORBBRP&tp_b=308XBLVESJQ0Y84KQ8KMT5MGORBBRP&c=365633&tp_c=365633","firstResponseHeads":5,"firstResponseTails":20,"secondResponseHeads":5,"secondResponseTails":20,"totalHeads":10,"totalTails":40,"studentIndex":1,"studentTrueHypers":{"a":2,"b":8},"studentGuess":0.2,"delta":0,"bonus":0,"bonusSoFar":0,"totalExamples":50},{"rt":8172,"response":{"heads":"13","tails":"12"},"type":"response","condition":"seqFeedback","trueTheta":0.5,"classrooms":["A","B"],"studentTrueClassroom":"A","exampleSet":"first","trial_type":"survey-html-form","trial_index":25,"time_elapsed":970549,"internal_node_id":"0.0-24.0-0.0","params":{"nStudents":24,"maxFlips":25,"completionMinutes":45,"basePay":8,"maxBonus":9,"perTrialBonus":0.5,"perTrialBonusThreshold":0.05,"exampleCost":0.02},"classroomParams":{"A":{"a":1,"b":4},"B":{"a":4,"b":1},"C":{"a":2,"b":8},"D":{"a":8,"b":2}},"conditions":["nonSeqFull","nonSeqPartial","seqNoFeedback","seqFeedback"],"classroomPairings":[["A","B"],["C","D"]],"coinWeights":[0.2,0.5,0.8],"subjectId":"A181HHZC94KPZR","assignmentId":"308XBLVESJQ0Y84KQ8KMT5MGORBBRP","hitId":"3IH9TRB0FBLK6RLF7MSMKICTGYN1IU","url":"https://gershmanlab.com/experiments/alicia/teaching/experiment/?hitId=3IH9TRB0FBLK6RLF7MSMKICTGYN1IU&workerId=A181HHZC94KPZR&assignmentId=308XBLVESJQ0Y84KQ8KMT5MGORBBRP&a=EB803&tp_a=EB803&b=308XBLVESJQ0Y84KQ8KMT5MGORBBRP&tp_b=308XBLVESJQ0Y84KQ8KMT5MGORBBRP&c=365633&tp_c=365633","heads":13,"tails":12,"studentIndex":2,"studentTrueHypers":{"a":1,"b":4},"studentGuess":0.4666666666666667,"delta":0.033333333333333326,"totalExamples":25,"bonusSoFar":0},{"rt":18469,"response":{"heads":"25","tails":"0"},"type":"response","condition":"seqFeedback","trueTheta":0.5,"classrooms":["A","B"],"studentTrueClassroom":"A","exampleSet":"second","trial_type":"survey-html-form","trial_index":29,"time_elapsed":999785,"internal_node_id":"0.0-28.0-0.0","params":{"nStudents":24,"maxFlips":25,"completionMinutes":45,"basePay":8,"maxBonus":9,"perTrialBonus":0.5,"perTrialBonusThreshold":0.05,"exampleCost":0.02},"classroomParams":{"A":{"a":1,"b":4},"B":{"a":4,"b":1},"C":{"a":2,"b":8},"D":{"a":8,"b":2}},"conditions":["nonSeqFull","nonSeqPartial","seqNoFeedback","seqFeedback"],"classroomPairings":[["A","B"],["C","D"]],"coinWeights":[0.2,0.5,0.8],"subjectId":"A181HHZC94KPZR","assignmentId":"308XBLVESJQ0Y84KQ8KMT5MGORBBRP","hitId":"3IH9TRB0FBLK6RLF7MSMKICTGYN1IU","url":"https://gershmanlab.com/experiments/alicia/teaching/experiment/?hitId=3IH9TRB0FBLK6RLF7MSMKICTGYN1IU&workerId=A181HHZC94KPZR&assignmentId=308XBLVESJQ0Y84KQ8KMT5MGORBBRP&a=EB803&tp_a=EB803&b=308XBLVESJQ0Y84KQ8KMT5MGORBBRP&tp_b=308XBLVESJQ0Y84KQ8KMT5MGORBBRP&c=365633&tp_c=365633","firstResponseHeads":13,"firstResponseTails":12,"secondResponseHeads":25,"secondResponseTails":0,"totalHeads":38,"totalTails":12,"studentIndex":2,"studentTrueHypers":{"a":1,"b":4},"studentGuess":0.7090909090909091,"delta":0.2090909090909091,"bonus":0,"bonusSoFar":0,"totalExamples":50},{"rt":22332,"response":{"heads":"20","tails":"5"},"type":"response","condition":"nonSeqFull","trueTheta":0.8,"classrooms":["A","B"],"studentTrueClassroom":"A","exampleSet":"first","trial_type":"survey-html-form","trial_index":35,"time_elapsed":1048326,"internal_node_id":"0.0-34.0-0.0","params":{"nStudents":24,"maxFlips":25,"completionMinutes":45,"basePay":8,"maxBonus":9,"perTrialBonus":0.5,"perTrialBonusThreshold":0.05,"exampleCost":0.02},"classroomParams":{"A":{"a":1,"b":4},"B":{"a":4,"b":1},"C":{"a":2,"b":8},"D":{"a":8,"b":2}},"conditions":["nonSeqFull","nonSeqPartial","seqNoFeedback","seqFeedback"],"classroomPairings":[["A","B"],["C","D"]],"coinWeights":[0.2,0.5,0.8],"subjectId":"A181HHZC94KPZR","assignmentId":"308XBLVESJQ0Y84KQ8KMT5MGORBBRP","hitId":"3IH9TRB0FBLK6RLF7MSMKICTGYN1IU","url":"https://gershmanlab.com/experiments/alicia/teaching/experiment/?hitId=3IH9TRB0FBLK6RLF7MSMKICTGYN1IU&workerId=A181HHZC94KPZR&assignmentId=308XBLVESJQ0Y84KQ8KMT5MGORBBRP&a=EB803&tp_a=EB803&b=308XBLVESJQ0Y84KQ8KMT5MGORBBRP&tp_b=308XBLVESJQ0Y84KQ8KMT5MGORBBRP&c=365633&tp_c=365633","heads":20,"tails":5,"studentIndex":3,"studentTrueHypers":{"a":1,"b":4},"studentGuess":0.7,"delta":0.10000000000000009,"totalExamples":25,"bonus":0,"bonusSoFar":0},{"rt":11990,"response":{"heads":"22","tails":"3"},"type":"response","condition":"nonSeqFull","trueTheta":0.8,"classrooms":["C","D"],"studentTrueClassroom":"C","exampleSet":"first","trial_type":"survey-html-form","trial_index":41,"time_elapsed":1081486,"internal_node_id":"0.0-40.0-0.0","params":{"nStudents":24,"maxFlips":25,"completionMinutes":45,"basePay":8,"maxBonus":9,"perTrialBonus":0.5,"perTrialBonusThreshold":0.05,"exampleCost":0.02},"classroomParams":{"A":{"a":1,"b":4},"B":{"a":4,"b":1},"C":{"a":2,"b":8},"D":{"a":8,"b":2}},"conditions":["nonSeqFull","nonSeqPartial","seqNoFeedback","seqFeedback"],"classroomPairings":[["A","B"],["C","D"]],"coinWeights":[0.2,0.5,0.8],"subjectId":"A181HHZC94KPZR","assignmentId":"308XBLVESJQ0Y84KQ8KMT5MGORBBRP","hitId":"3IH9TRB0FBLK6RLF7MSMKICTGYN1IU","url":"https://gershmanlab.com/experiments/alicia/teaching/experiment/?hitId=3IH9TRB0FBLK6RLF7MSMKICTGYN1IU&workerId=A181HHZC94KPZR&assignmentId=308XBLVESJQ0Y84KQ8KMT5MGORBBRP&a=EB803&tp_a=EB803&b=308XBLVESJQ0Y84KQ8KMT5MGORBBRP&tp_b=308XBLVESJQ0Y84KQ8KMT5MGORBBRP&c=365633&tp_c=365633","heads":22,"tails":3,"studentIndex":4,"studentTrueHypers":{"a":2,"b":8},"studentGuess":0.6857142857142857,"delta":0.11428571428571432,"totalExamples":25,"bonus":0,"bonusSoFar":0},{"rt":39202,"response":{"heads":"15","tails":"10"},"type":"response","condition":"seqFeedback","trueTheta":0.5,"classrooms":["C","D"],"studentTrueClassroom":"D","exampleSet":"first","trial_type":"survey-html-form","trial_index":47,"time_elapsed":1138212,"internal_node_id":"0.0-46.0-0.0","params":{"nStudents":24,"maxFlips":25,"completionMinutes":45,"basePay":8,"maxBonus":9,"perTrialBonus":0.5,"perTrialBonusThreshold":0.05,"exampleCost":0.02},"classroomParams":{"A":{"a":1,"b":4},"B":{"a":4,"b":1},"C":{"a":2,"b":8},"D":{"a":8,"b":2}},"conditions":["nonSeqFull","nonSeqPartial","seqNoFeedback","seqFeedback"],"classroomPairings":[["A","B"],["C","D"]],"coinWeights":[0.2,0.5,0.8],"subjectId":"A181HHZC94KPZR","assignmentId":"308XBLVESJQ0Y84KQ8KMT5MGORBBRP","hitId":"3IH9TRB0FBLK6RLF7MSMKICTGYN1IU","url":"https://gershmanlab.com/experiments/alicia/teaching/experiment/?hitId=3IH9TRB0FBLK6RLF7MSMKICTGYN1IU&workerId=A181HHZC94KPZR&assignmentId=308XBLVESJQ0Y84KQ8KMT5MGORBBRP&a=EB803&tp_a=EB803&b=308XBLVESJQ0Y84KQ8KMT5MGORBBRP&tp_b=308XBLVESJQ0Y84KQ8KMT5MGORBBRP&c=365633&tp_c=365633","heads":15,"tails":10,"studentIndex":5,"studentTrueHypers":{"a":8,"b":2},"studentGuess":0.6571428571428571,"delta":0.15714285714285714,"totalExamples":25,"bonusSoFar":0},{"rt":22846,"response":{"heads":"8","tails":"7"},"type":"response","condition":"seqFeedback","trueTheta":0.5,"classrooms":["C","D"],"studentTrueClassroom":"D","exampleSet":"second","trial_type":"survey-html-form","trial_index":51,"time_elapsed":1172210,"internal_node_id":"0.0-50.0-0.0","params":{"nStudents":24,"maxFlips":25,"completionMinutes":45,"basePay":8,"maxBonus":9,"perTrialBonus":0.5,"perTrialBonusThreshold":0.05,"exampleCost":0.02},"classroomParams":{"A":{"a":1,"b":4},"B":{"a":4,"b":1},"C":{"a":2,"b":8},"D":{"a":8,"b":2}},"conditions":["nonSeqFull","nonSeqPartial","seqNoFeedback","seqFeedback"],"classroomPairings":[["A","B"],["C","D"]],"coinWeights":[0.2,0.5,0.8],"subjectId":"A181HHZC94KPZR","assignmentId":"308XBLVESJQ0Y84KQ8KMT5MGORBBRP","hitId":"3IH9TRB0FBLK6RLF7MSMKICTGYN1IU","url":"https://gershmanlab.com/experiments/alicia/teaching/experiment/?hitId=3IH9TRB0FBLK6RLF7MSMKICTGYN1IU&workerId=A181HHZC94KPZR&assignmentId=308XBLVESJQ0Y84KQ8KMT5MGORBBRP&a=EB803&tp_a=EB803&b=308XBLVESJQ0Y84KQ8KMT5MGORBBRP&tp_b=308XBLVESJQ0Y84KQ8KMT5MGORBBRP&c=365633&tp_c=365633","firstResponseHeads":15,"firstResponseTails":10,"secondResponseHeads":8,"secondResponseTails":7,"totalHeads":23,"totalTails":17,"studentIndex":5,"studentTrueHypers":{"a":8,"b":2},"studentGuess":0.62,"delta":0.12,"bonus":0,"bonusSoFar":0,"totalExamples":40},{"rt":8287,"response":{"heads":"23","tails":"2"},"type":"response","condition":"nonSeqFull","trueTheta":0.2,"classrooms":["A","B"],"studentTrueClassroom":"B","exampleSet":"first","trial_type":"survey-html-form","trial_index":57,"time_elapsed":1201541,"internal_node_id":"0.0-56.0-0.0","params":{"nStudents":24,"maxFlips":25,"completionMinutes":45,"basePay":8,"maxBonus":9,"perTrialBonus":0.5,"perTrialBonusThreshold":0.05,"exampleCost":0.02},"classroomParams":{"A":{"a":1,"b":4},"B":{"a":4,"b":1},"C":{"a":2,"b":8},"D":{"a":8,"b":2}},"conditions":["nonSeqFull","nonSeqPartial","seqNoFeedback","seqFeedback"],"classroomPairings":[["A","B"],["C","D"]],"coinWeights":[0.2,0.5,0.8],"subjectId":"A181HHZC94KPZR","assignmentId":"308XBLVESJQ0Y84KQ8KMT5MGORBBRP","hitId":"3IH9TRB0FBLK6RLF7MSMKICTGYN1IU","url":"https://gershmanlab.com/experiments/alicia/teaching/experiment/?hitId=3IH9TRB0FBLK6RLF7MSMKICTGYN1IU&workerId=A181HHZC94KPZR&assignmentId=308XBLVESJQ0Y84KQ8KMT5MGORBBRP&a=EB803&tp_a=EB803&b=308XBLVESJQ0Y84KQ8KMT5MGORBBRP&tp_b=308XBLVESJQ0Y84KQ8KMT5MGORBBRP&c=365633&tp_c=365633","heads":23,"tails":2,"studentIndex":6,"studentTrueHypers":{"a":4,"b":1},"studentGuess":0.9,"delta":0.7,"totalExamples":25,"bonus":0,"bonusSoFar":0},{"rt":11408,"response":{"heads":"5","tails":"5"},"type":"response","condition":"nonSeqPartial","trueTheta":0.5,"classrooms":["C","D"],"studentTrueClassroom":"C","exampleSet":"first","trial_type":"survey-html-form","trial_index":63,"time_elapsed":1233050,"internal_node_id":"0.0-62.0-0.0","params":{"nStudents":24,"maxFlips":25,"completionMinutes":45,"basePay":8,"maxBonus":9,"perTrialBonus":0.5,"perTrialBonusThreshold":0.05,"exampleCost":0.02},"classroomParams":{"A":{"a":1,"b":4},"B":{"a":4,"b":1},"C":{"a":2,"b":8},"D":{"a":8,"b":2}},"conditions":["nonSeqFull","nonSeqPartial","seqNoFeedback","seqFeedback"],"classroomPairings":[["A","B"],["C","D"]],"coinWeights":[0.2,0.5,0.8],"subjectId":"A181HHZC94KPZR","assignmentId":"308XBLVESJQ0Y84KQ8KMT5MGORBBRP","hitId":"3IH9TRB0FBLK6RLF7MSMKICTGYN1IU","url":"https://gershmanlab.com/experiments/alicia/teaching/experiment/?hitId=3IH9TRB0FBLK6RLF7MSMKICTGYN1IU&workerId=A181HHZC94KPZR&assignmentId=308XBLVESJQ0Y84KQ8KMT5MGORBBRP&a=EB803&tp_a=EB803&b=308XBLVESJQ0Y84KQ8KMT5MGORBBRP&tp_b=308XBLVESJQ0Y84KQ8KMT5MGORBBRP&c=365633&tp_c=365633","heads":5,"tails":5,"studentIndex":7,"studentTrueHypers":{"a":2,"b":8},"studentGuess":0.35,"delta":0.15000000000000002,"totalExamples":10,"bonus":0,"bonusSoFar":0},{"rt":18133,"response":{"heads":"21","tails":"4"},"type":"response","condition":"nonSeqFull","trueTheta":0.5,"classrooms":["A","B"],"studentTrueClassroom":"B","exampleSet":"first","trial_type":"survey-html-form","trial_index":69,"time_elapsed":1266364,"internal_node_id":"0.0-68.0-0.0","params":{"nStudents":24,"maxFlips":25,"completionMinutes":45,"basePay":8,"maxBonus":9,"perTrialBonus":0.5,"perTrialBonusThreshold":0.05,"exampleCost":0.02},"classroomParams":{"A":{"a":1,"b":4},"B":{"a":4,"b":1},"C":{"a":2,"b":8},"D":{"a":8,"b":2}},"conditions":["nonSeqFull","nonSeqPartial","seqNoFeedback","seqFeedback"],"classroomPairings":[["A","B"],["C","D"]],"coinWeights":[0.2,0.5,0.8],"subjectId":"A181HHZC94KPZR","assignmentId":"308XBLVESJQ0Y84KQ8KMT5MGORBBRP","hitId":"3IH9TRB0FBLK6RLF7MSMKICTGYN1IU","url":"https://gershmanlab.com/experiments/alicia/teaching/experiment/?hitId=3IH9TRB0FBLK6RLF7MSMKICTGYN1IU&workerId=A181HHZC94KPZR&assignmentId=308XBLVESJQ0Y84KQ8KMT5MGORBBRP&a=EB803&tp_a=EB803&b=308XBLVESJQ0Y84KQ8KMT5MGORBBRP&tp_b=308XBLVESJQ0Y84KQ8KMT5MGORBBRP&c=365633&tp_c=365633","heads":21,"tails":4,"studentIndex":8,"studentTrueHypers":{"a":4,"b":1},"studentGuess":0.8333333333333334,"delta":0.33333333333333337,"totalExamples":25,"bonus":0,"bonusSoFar":0},{"rt":19290,"response":{"heads":"24","tails":"1"},"type":"response","condition":"seqFeedback","trueTheta":0.8,"classrooms":["A","B"],"studentTrueClassroom":"A","exampleSet":"first","trial_type":"survey-html-form","trial_index":75,"time_elapsed":1307368,"internal_node_id":"0.0-74.0-0.0","params":{"nStudents":24,"maxFlips":25,"completionMinutes":45,"basePay":8,"maxBonus":9,"perTrialBonus":0.5,"perTrialBonusThreshold":0.05,"exampleCost":0.02},"classroomParams":{"A":{"a":1,"b":4},"B":{"a":4,"b":1},"C":{"a":2,"b":8},"D":{"a":8,"b":2}},"conditions":["nonSeqFull","nonSeqPartial","seqNoFeedback","seqFeedback"],"classroomPairings":[["A","B"],["C","D"]],"coinWeights":[0.2,0.5,0.8],"subjectId":"A181HHZC94KPZR","assignmentId":"308XBLVESJQ0Y84KQ8KMT5MGORBBRP","hitId":"3IH9TRB0FBLK6RLF7MSMKICTGYN1IU","url":"https://gershmanlab.com/experiments/alicia/teaching/experiment/?hitId=3IH9TRB0FBLK6RLF7MSMKICTGYN1IU&workerId=A181HHZC94KPZR&assignmentId=308XBLVESJQ0Y84KQ8KMT5MGORBBRP&a=EB803&tp_a=EB803&b=308XBLVESJQ0Y84KQ8KMT5MGORBBRP&tp_b=308XBLVESJQ0Y84KQ8KMT5MGORBBRP&c=365633&tp_c=365633","heads":24,"tails":1,"studentIndex":9,"studentTrueHypers":{"a":1,"b":4},"studentGuess":0.8333333333333334,"delta":0.033333333333333326,"totalExamples":25,"bonusSoFar":0},{"rt":6600,"response":{"heads":"24","tails":"1"},"type":"response","condition":"seqFeedback","trueTheta":0.8,"classrooms":["A","B"],"studentTrueClassroom":"A","exampleSet":"second","trial_type":"survey-html-form","trial_index":79,"time_elapsed":1324587,"internal_node_id":"0.0-78.0-0.0","params":{"nStudents":24,"maxFlips":25,"completionMinutes":45,"basePay":8,"maxBonus":9,"perTrialBonus":0.5,"perTrialBonusThreshold":0.05,"exampleCost":0.02},"classroomParams":{"A":{"a":1,"b":4},"B":{"a":4,"b":1},"C":{"a":2,"b":8},"D":{"a":8,"b":2}},"conditions":["nonSeqFull","nonSeqPartial","seqNoFeedback","seqFeedback"],"classroomPairings":[["A","B"],["C","D"]],"coinWeights":[0.2,0.5,0.8],"subjectId":"A181HHZC94KPZR","assignmentId":"308XBLVESJQ0Y84KQ8KMT5MGORBBRP","hitId":"3IH9TRB0FBLK6RLF7MSMKICTGYN1IU","url":"https://gershmanlab.com/experiments/alicia/teaching/experiment/?hitId=3IH9TRB0FBLK6RLF7MSMKICTGYN1IU&workerId=A181HHZC94KPZR&assignmentId=308XBLVESJQ0Y84KQ8KMT5MGORBBRP&a=EB803&tp_a=EB803&b=308XBLVESJQ0Y84KQ8KMT5MGORBBRP&tp_b=308XBLVESJQ0Y84KQ8KMT5MGORBBRP&c=365633&tp_c=365633","firstResponseHeads":24,"firstResponseTails":1,"secondResponseHeads":24,"secondResponseTails":1,"totalHeads":48,"totalTails":2,"studentIndex":9,"studentTrueHypers":{"a":1,"b":4},"studentGuess":0.8909090909090909,"delta":0.09090909090909083,"bonus":0,"bonusSoFar":0,"totalExamples":50},{"rt":10690,"response":{"heads":"0","tails":"25"},"type":"response","condition":"nonSeqFull","trueTheta":0.2,"classrooms":["C","D"],"studentTrueClassroom":"D","exampleSet":"first","trial_type":"survey-html-form","trial_index":85,"time_elapsed":1360535,"internal_node_id":"0.0-84.0-0.0","params":{"nStudents":24,"maxFlips":25,"completionMinutes":45,"basePay":8,"maxBonus":9,"perTrialBonus":0.5,"perTrialBonusThreshold":0.05,"exampleCost":0.02},"classroomParams":{"A":{"a":1,"b":4},"B":{"a":4,"b":1},"C":{"a":2,"b":8},"D":{"a":8,"b":2}},"conditions":["nonSeqFull","nonSeqPartial","seqNoFeedback","seqFeedback"],"classroomPairings":[["A","B"],["C","D"]],"coinWeights":[0.2,0.5,0.8],"subjectId":"A181HHZC94KPZR","assignmentId":"308XBLVESJQ0Y84KQ8KMT5MGORBBRP","hitId":"3IH9TRB0FBLK6RLF7MSMKICTGYN1IU","url":"https://gershmanlab.com/experiments/alicia/teaching/experiment/?hitId=3IH9TRB0FBLK6RLF7MSMKICTGYN1IU&workerId=A181HHZC94KPZR&assignmentId=308XBLVESJQ0Y84KQ8KMT5MGORBBRP&a=EB803&tp_a=EB803&b=308XBLVESJQ0Y84KQ8KMT5MGORBBRP&tp_b=308XBLVESJQ0Y84KQ8KMT5MGORBBRP&c=365633&tp_c=365633","heads":0,"tails":25,"studentIndex":10,"studentTrueHypers":{"a":8,"b":2},"studentGuess":0.22857142857142856,"delta":0.028571428571428553,"totalExamples":25,"bonus":0,"bonusSoFar":0},{"rt":12969,"response":{"heads":"0","tails":"25"},"type":"response","condition":"nonSeqPartial","trueTheta":0.2,"classrooms":["C","D"],"studentTrueClassroom":"C","exampleSet":"first","trial_type":"survey-html-form","trial_index":91,"time_elapsed":1398740,"internal_node_id":"0.0-90.0-0.0","params":{"nStudents":24,"maxFlips":25,"completionMinutes":45,"basePay":8,"maxBonus":9,"perTrialBonus":0.5,"perTrialBonusThreshold":0.05,"exampleCost":0.02},"classroomParams":{"A":{"a":1,"b":4},"B":{"a":4,"b":1},"C":{"a":2,"b":8},"D":{"a":8,"b":2}},"conditions":["nonSeqFull","nonSeqPartial","seqNoFeedback","seqFeedback"],"classroomPairings":[["A","B"],["C","D"]],"coinWeights":[0.2,0.5,0.8],"subjectId":"A181HHZC94KPZR","assignmentId":"308XBLVESJQ0Y84KQ8KMT5MGORBBRP","hitId":"3IH9TRB0FBLK6RLF7MSMKICTGYN1IU","url":"https://gershmanlab.com/experiments/alicia/teaching/experiment/?hitId=3IH9TRB0FBLK6RLF7MSMKICTGYN1IU&workerId=A181HHZC94KPZR&assignmentId=308XBLVESJQ0Y84KQ8KMT5MGORBBRP&a=EB803&tp_a=EB803&b=308XBLVESJQ0Y84KQ8KMT5MGORBBRP&tp_b=308XBLVESJQ0Y84KQ8KMT5MGORBBRP&c=365633&tp_c=365633","heads":0,"tails":25,"studentIndex":11,"studentTrueHypers":{"a":2,"b":8},"studentGuess":0.05714285714285714,"delta":0.14285714285714288,"totalExamples":25,"bonus":0,"bonusSoFar":0},{"rt":36387,"response":{"heads":"19","tails":"6"},"type":"response","condition":"nonSeqPartial","trueTheta":0.5,"classrooms":["A","B"],"studentTrueClassroom":"A","exampleSet":"first","trial_type":"survey-html-form","trial_index":97,"time_elapsed":1447299,"internal_node_id":"0.0-96.0-0.0","params":{"nStudents":24,"maxFlips":25,"completionMinutes":45,"basePay":8,"maxBonus":9,"perTrialBonus":0.5,"perTrialBonusThreshold":0.05,"exampleCost":0.02},"classroomParams":{"A":{"a":1,"b":4},"B":{"a":4,"b":1},"C":{"a":2,"b":8},"D":{"a":8,"b":2}},"conditions":["nonSeqFull","nonSeqPartial","seqNoFeedback","seqFeedback"],"classroomPairings":[["A","B"],["C","D"]],"coinWeights":[0.2,0.5,0.8],"subjectId":"A181HHZC94KPZR","assignmentId":"308XBLVESJQ0Y84KQ8KMT5MGORBBRP","hitId":"3IH9TRB0FBLK6RLF7MSMKICTGYN1IU","url":"https://gershmanlab.com/experiments/alicia/teaching/experiment/?hitId=3IH9TRB0FBLK6RLF7MSMKICTGYN1IU&workerId=A181HHZC94KPZR&assignmentId=308XBLVESJQ0Y84KQ8KMT5MGORBBRP&a=EB803&tp_a=EB803&b=308XBLVESJQ0Y84KQ8KMT5MGORBBRP&tp_b=308XBLVESJQ0Y84KQ8KMT5MGORBBRP&c=365633&tp_c=365633","heads":19,"tails":6,"studentIndex":12,"studentTrueHypers":{"a":1,"b":4},"studentGuess":0.6666666666666666,"delta":0.16666666666666663,"totalExamples":25,"bonus":0,"bonusSoFar":0},{"rt":45780,"response":{"heads":"4","tails":"16"},"type":"response","condition":"nonSeqFull","trueTheta":0.5,"classrooms":["C","D"],"studentTrueClassroom":"D","exampleSet":"first","trial_type":"survey-html-form","trial_index":103,"time_elapsed":1507402,"internal_node_id":"0.0-102.0-0.0","params":{"nStudents":24,"maxFlips":25,"completionMinutes":45,"basePay":8,"maxBonus":9,"perTrialBonus":0.5,"perTrialBonusThreshold":0.05,"exampleCost":0.02},"classroomParams":{"A":{"a":1,"b":4},"B":{"a":4,"b":1},"C":{"a":2,"b":8},"D":{"a":8,"b":2}},"conditions":["nonSeqFull","nonSeqPartial","seqNoFeedback","seqFeedback"],"classroomPairings":[["A","B"],["C","D"]],"coinWeights":[0.2,0.5,0.8],"subjectId":"A181HHZC94KPZR","assignmentId":"308XBLVESJQ0Y84KQ8KMT5MGORBBRP","hitId":"3IH9TRB0FBLK6RLF7MSMKICTGYN1IU","url":"https://gershmanlab.com/experiments/alicia/teaching/experiment/?hitId=3IH9TRB0FBLK6RLF7MSMKICTGYN1IU&workerId=A181HHZC94KPZR&assignmentId=308XBLVESJQ0Y84KQ8KMT5MGORBBRP&a=EB803&tp_a=EB803&b=308XBLVESJQ0Y84KQ8KMT5MGORBBRP&tp_b=308XBLVESJQ0Y84KQ8KMT5MGORBBRP&c=365633&tp_c=365633","heads":4,"tails":16,"studentIndex":13,"studentTrueHypers":{"a":8,"b":2},"studentGuess":0.4,"delta":0.09999999999999998,"totalExamples":20,"bonus":0,"bonusSoFar":0},{"rt":59280,"response":{"heads":"20","tails":"5"},"type":"response","condition":"nonSeqPartial","trueTheta":0.8,"classrooms":["C","D"],"studentTrueClassroom":"D","exampleSet":"first","trial_type":"survey-html-form","trial_index":109,"time_elapsed":1594427,"internal_node_id":"0.0-108.0-0.0","params":{"nStudents":24,"maxFlips":25,"completionMinutes":45,"basePay":8,"maxBonus":9,"perTrialBonus":0.5,"perTrialBonusThreshold":0.05,"exampleCost":0.02},"classroomParams":{"A":{"a":1,"b":4},"B":{"a":4,"b":1},"C":{"a":2,"b":8},"D":{"a":8,"b":2}},"conditions":["nonSeqFull","nonSeqPartial","seqNoFeedback","seqFeedback"],"classroomPairings":[["A","B"],["C","D"]],"coinWeights":[0.2,0.5,0.8],"subjectId":"A181HHZC94KPZR","assignmentId":"308XBLVESJQ0Y84KQ8KMT5MGORBBRP","hitId":"3IH9TRB0FBLK6RLF7MSMKICTGYN1IU","url":"https://gershmanlab.com/experiments/alicia/teaching/experiment/?hitId=3IH9TRB0FBLK6RLF7MSMKICTGYN1IU&workerId=A181HHZC94KPZR&assignmentId=308XBLVESJQ0Y84KQ8KMT5MGORBBRP&a=EB803&tp_a=EB803&b=308XBLVESJQ0Y84KQ8KMT5MGORBBRP&tp_b=308XBLVESJQ0Y84KQ8KMT5MGORBBRP&c=365633&tp_c=365633","heads":20,"tails":5,"studentIndex":14,"studentTrueHypers":{"a":8,"b":2},"studentGuess":0.8,"delta":0,"totalExamples":25,"bonus":0,"bonusSoFar":0},{"rt":31928,"response":{"heads":"5","tails":"20"},"type":"response","condition":"seqFeedback","trueTheta":0.2,"classrooms":["A","B"],"studentTrueClassroom":"A","exampleSet":"first","trial_type":"survey-html-form","trial_index":115,"time_elapsed":1655430,"internal_node_id":"0.0-114.0-0.0","params":{"nStudents":24,"maxFlips":25,"completionMinutes":45,"basePay":8,"maxBonus":9,"perTrialBonus":0.5,"perTrialBonusThreshold":0.05,"exampleCost":0.02},"classroomParams":{"A":{"a":1,"b":4},"B":{"a":4,"b":1},"C":{"a":2,"b":8},"D":{"a":8,"b":2}},"conditions":["nonSeqFull","nonSeqPartial","seqNoFeedback","seqFeedback"],"classroomPairings":[["A","B"],["C","D"]],"coinWeights":[0.2,0.5,0.8],"subjectId":"A181HHZC94KPZR","assignmentId":"308XBLVESJQ0Y84KQ8KMT5MGORBBRP","hitId":"3IH9TRB0FBLK6RLF7MSMKICTGYN1IU","url":"https://gershmanlab.com/experiments/alicia/teaching/experiment/?hitId=3IH9TRB0FBLK6RLF7MSMKICTGYN1IU&workerId=A181HHZC94KPZR&assignmentId=308XBLVESJQ0Y84KQ8KMT5MGORBBRP&a=EB803&tp_a=EB803&b=308XBLVESJQ0Y84KQ8KMT5MGORBBRP&tp_b=308XBLVESJQ0Y84KQ8KMT5MGORBBRP&c=365633&tp_c=365633","heads":5,"tails":20,"studentIndex":15,"studentTrueHypers":{"a":1,"b":4},"studentGuess":0.2,"delta":0,"totalExamples":25,"bonusSoFar":0},{"rt":18228,"response":{"heads":"5","tails":"20"},"type":"response","condition":"seqFeedback","trueTheta":0.2,"classrooms":["A","B"],"studentTrueClassroom":"A","exampleSet":"second","trial_type":"survey-html-form","trial_index":119,"time_elapsed":1683880,"internal_node_id":"0.0-118.0-0.0","params":{"nStudents":24,"maxFlips":25,"completionMinutes":45,"basePay":8,"maxBonus":9,"perTrialBonus":0.5,"perTrialBonusThreshold":0.05,"exampleCost":0.02},"classroomParams":{"A":{"a":1,"b":4},"B":{"a":4,"b":1},"C":{"a":2,"b":8},"D":{"a":8,"b":2}},"conditions":["nonSeqFull","nonSeqPartial","seqNoFeedback","seqFeedback"],"classroomPairings":[["A","B"],["C","D"]],"coinWeights":[0.2,0.5,0.8],"subjectId":"A181HHZC94KPZR","assignmentId":"308XBLVESJQ0Y84KQ8KMT5MGORBBRP","hitId":"3IH9TRB0FBLK6RLF7MSMKICTGYN1IU","url":"https://gershmanlab.com/experiments/alicia/teaching/experiment/?hitId=3IH9TRB0FBLK6RLF7MSMKICTGYN1IU&workerId=A181HHZC94KPZR&assignmentId=308XBLVESJQ0Y84KQ8KMT5MGORBBRP&a=EB803&tp_a=EB803&b=308XBLVESJQ0Y84KQ8KMT5MGORBBRP&tp_b=308XBLVESJQ0Y84KQ8KMT5MGORBBRP&c=365633&tp_c=365633","firstResponseHeads":5,"firstResponseTails":20,"secondResponseHeads":5,"secondResponseTails":20,"totalHeads":10,"totalTails":40,"studentIndex":15,"studentTrueHypers":{"a":1,"b":4},"studentGuess":0.2,"delta":0,"bonus":0,"bonusSoFar":0,"totalExamples":50},{"rt":17579,"response":{"heads":"20","tails":"5"},"type":"response","condition":"seqFeedback","trueTheta":0.8,"classrooms":["C","D"],"studentTrueClassroom":"D","exampleSet":"first","trial_type":"survey-html-form","trial_index":125,"time_elapsed":1729634,"internal_node_id":"0.0-124.0-0.0","params":{"nStudents":24,"maxFlips":25,"completionMinutes":45,"basePay":8,"maxBonus":9,"perTrialBonus":0.5,"perTrialBonusThreshold":0.05,"exampleCost":0.02},"classroomParams":{"A":{"a":1,"b":4},"B":{"a":4,"b":1},"C":{"a":2,"b":8},"D":{"a":8,"b":2}},"conditions":["nonSeqFull","nonSeqPartial","seqNoFeedback","seqFeedback"],"classroomPairings":[["A","B"],["C","D"]],"coinWeights":[0.2,0.5,0.8],"subjectId":"A181HHZC94KPZR","assignmentId":"308XBLVESJQ0Y84KQ8KMT5MGORBBRP","hitId":"3IH9TRB0FBLK6RLF7MSMKICTGYN1IU","url":"https://gershmanlab.com/experiments/alicia/teaching/experiment/?hitId=3IH9TRB0FBLK6RLF7MSMKICTGYN1IU&workerId=A181HHZC94KPZR&assignmentId=308XBLVESJQ0Y84KQ8KMT5MGORBBRP&a=EB803&tp_a=EB803&b=308XBLVESJQ0Y84KQ8KMT5MGORBBRP&tp_b=308XBLVESJQ0Y84KQ8KMT5MGORBBRP&c=365633&tp_c=365633","heads":20,"tails":5,"studentIndex":16,"studentTrueHypers":{"a":8,"b":2},"studentGuess":0.8,"delta":0,"totalExamples":25,"bonusSoFar":0},{"rt":7488,"response":{"heads":"20","tails":"5"},"type":"response","condition":"seqFeedback","trueTheta":0.8,"classrooms":["C","D"],"studentTrueClassroom":"D","exampleSet":"second","trial_type":"survey-html-form","trial_index":129,"time_elapsed":1747218,"internal_node_id":"0.0-128.0-0.0","params":{"nStudents":24,"maxFlips":25,"completionMinutes":45,"basePay":8,"maxBonus":9,"perTrialBonus":0.5,"perTrialBonusThreshold":0.05,"exampleCost":0.02},"classroomParams":{"A":{"a":1,"b":4},"B":{"a":4,"b":1},"C":{"a":2,"b":8},"D":{"a":8,"b":2}},"conditions":["nonSeqFull","nonSeqPartial","seqNoFeedback","seqFeedback"],"classroomPairings":[["A","B"],["C","D"]],"coinWeights":[0.2,0.5,0.8],"subjectId":"A181HHZC94KPZR","assignmentId":"308XBLVESJQ0Y84KQ8KMT5MGORBBRP","hitId":"3IH9TRB0FBLK6RLF7MSMKICTGYN1IU","url":"https://gershmanlab.com/experiments/alicia/teaching/experiment/?hitId=3IH9TRB0FBLK6RLF7MSMKICTGYN1IU&workerId=A181HHZC94KPZR&assignmentId=308XBLVESJQ0Y84KQ8KMT5MGORBBRP&a=EB803&tp_a=EB803&b=308XBLVESJQ0Y84KQ8KMT5MGORBBRP&tp_b=308XBLVESJQ0Y84KQ8KMT5MGORBBRP&c=365633&tp_c=365633","firstResponseHeads":20,"firstResponseTails":5,"secondResponseHeads":20,"secondResponseTails":5,"totalHeads":40,"totalTails":10,"studentIndex":16,"studentTrueHypers":{"a":8,"b":2},"studentGuess":0.8,"delta":0,"bonus":0,"bonusSoFar":0,"totalExamples":50},{"rt":14908,"response":{"heads":"5","tails":"20"},"type":"response","condition":"nonSeqPartial","trueTheta":0.2,"classrooms":["A","B"],"studentTrueClassroom":"A","exampleSet":"first","trial_type":"survey-html-form","trial_index":135,"time_elapsed":1777073,"internal_node_id":"0.0-134.0-0.0","params":{"nStudents":24,"maxFlips":25,"completionMinutes":45,"basePay":8,"maxBonus":9,"perTrialBonus":0.5,"perTrialBonusThreshold":0.05,"exampleCost":0.02},"classroomParams":{"A":{"a":1,"b":4},"B":{"a":4,"b":1},"C":{"a":2,"b":8},"D":{"a":8,"b":2}},"conditions":["nonSeqFull","nonSeqPartial","seqNoFeedback","seqFeedback"],"classroomPairings":[["A","B"],["C","D"]],"coinWeights":[0.2,0.5,0.8],"subjectId":"A181HHZC94KPZR","assignmentId":"308XBLVESJQ0Y84KQ8KMT5MGORBBRP","hitId":"3IH9TRB0FBLK6RLF7MSMKICTGYN1IU","url":"https://gershmanlab.com/experiments/alicia/teaching/experiment/?hitId=3IH9TRB0FBLK6RLF7MSMKICTGYN1IU&workerId=A181HHZC94KPZR&assignmentId=308XBLVESJQ0Y84KQ8KMT5MGORBBRP&a=EB803&tp_a=EB803&b=308XBLVESJQ0Y84KQ8KMT5MGORBBRP&tp_b=308XBLVESJQ0Y84KQ8KMT5MGORBBRP&c=365633&tp_c=365633","heads":5,"tails":20,"studentIndex":17,"studentTrueHypers":{"a":1,"b":4},"studentGuess":0.2,"delta":0,"totalExamples":25,"bonus":0,"bonusSoFar":0},{"rt":24602,"response":{"heads":"20","tails":"5"},"type":"response","condition":"seqNoFeedback","trueTheta":0.8,"classrooms":["C","D"],"studentTrueClassroom":"C","exampleSet":"first","trial_type":"survey-html-form","trial_index":141,"time_elapsed":1817573,"internal_node_id":"0.0-140.0-0.0","params":{"nStudents":24,"maxFlips":25,"completionMinutes":45,"basePay":8,"maxBonus":9,"perTrialBonus":0.5,"perTrialBonusThreshold":0.05,"exampleCost":0.02},"classroomParams":{"A":{"a":1,"b":4},"B":{"a":4,"b":1},"C":{"a":2,"b":8},"D":{"a":8,"b":2}},"conditions":["nonSeqFull","nonSeqPartial","seqNoFeedback","seqFeedback"],"classroomPairings":[["A","B"],["C","D"]],"coinWeights":[0.2,0.5,0.8],"subjectId":"A181HHZC94KPZR","assignmentId":"308XBLVESJQ0Y84KQ8KMT5MGORBBRP","hitId":"3IH9TRB0FBLK6RLF7MSMKICTGYN1IU","url":"https://gershmanlab.com/experiments/alicia/teaching/experiment/?hitId=3IH9TRB0FBLK6RLF7MSMKICTGYN1IU&workerId=A181HHZC94KPZR&assignmentId=308XBLVESJQ0Y84KQ8KMT5MGORBBRP&a=EB803&tp_a=EB803&b=308XBLVESJQ0Y84KQ8KMT5MGORBBRP&tp_b=308XBLVESJQ0Y84KQ8KMT5MGORBBRP&c=365633&tp_c=365633","heads":20,"tails":5,"studentIndex":18,"studentTrueHypers":{"a":2,"b":8},"studentGuess":0.6285714285714286,"delta":0.17142857142857149,"totalExamples":25,"bonusSoFar":0},{"rt":7207,"response":{"heads":"20","tails":"5"},"type":"response","condition":"seqNoFeedback","trueTheta":0.8,"classrooms":["C","D"],"studentTrueClassroom":"C","exampleSet":"second","trial_type":"survey-html-form","trial_index":144,"time_elapsed":1831795,"internal_node_id":"0.0-143.0-0.0","params":{"nStudents":24,"maxFlips":25,"completionMinutes":45,"basePay":8,"maxBonus":9,"perTrialBonus":0.5,"perTrialBonusThreshold":0.05,"exampleCost":0.02},"classroomParams":{"A":{"a":1,"b":4},"B":{"a":4,"b":1},"C":{"a":2,"b":8},"D":{"a":8,"b":2}},"conditions":["nonSeqFull","nonSeqPartial","seqNoFeedback","seqFeedback"],"classroomPairings":[["A","B"],["C","D"]],"coinWeights":[0.2,0.5,0.8],"subjectId":"A181HHZC94KPZR","assignmentId":"308XBLVESJQ0Y84KQ8KMT5MGORBBRP","hitId":"3IH9TRB0FBLK6RLF7MSMKICTGYN1IU","url":"https://gershmanlab.com/experiments/alicia/teaching/experiment/?hitId=3IH9TRB0FBLK6RLF7MSMKICTGYN1IU&workerId=A181HHZC94KPZR&assignmentId=308XBLVESJQ0Y84KQ8KMT5MGORBBRP&a=EB803&tp_a=EB803&b=308XBLVESJQ0Y84KQ8KMT5MGORBBRP&tp_b=308XBLVESJQ0Y84KQ8KMT5MGORBBRP&c=365633&tp_c=365633","firstResponseHeads":20,"firstResponseTails":5,"secondResponseHeads":20,"secondResponseTails":5,"totalHeads":40,"totalTails":10,"studentIndex":18,"studentTrueHypers":{"a":2,"b":8},"studentGuess":0.7,"delta":0.10000000000000009,"bonus":0,"bonusSoFar":0,"totalExamples":50},{"rt":18368,"response":{"heads":"13","tails":"2"},"type":"response","condition":"seqNoFeedback","trueTheta":0.5,"classrooms":["C","D"],"studentTrueClassroom":"C","exampleSet":"first","trial_type":"survey-html-form","trial_index":150,"time_elapsed":1866914,"internal_node_id":"0.0-149.0-0.0","params":{"nStudents":24,"maxFlips":25,"completionMinutes":45,"basePay":8,"maxBonus":9,"perTrialBonus":0.5,"perTrialBonusThreshold":0.05,"exampleCost":0.02},"classroomParams":{"A":{"a":1,"b":4},"B":{"a":4,"b":1},"C":{"a":2,"b":8},"D":{"a":8,"b":2}},"conditions":["nonSeqFull","nonSeqPartial","seqNoFeedback","seqFeedback"],"classroomPairings":[["A","B"],["C","D"]],"coinWeights":[0.2,0.5,0.8],"subjectId":"A181HHZC94KPZR","assignmentId":"308XBLVESJQ0Y84KQ8KMT5MGORBBRP","hitId":"3IH9TRB0FBLK6RLF7MSMKICTGYN1IU","url":"https://gershmanlab.com/experiments/alicia/teaching/experiment/?hitId=3IH9TRB0FBLK6RLF7MSMKICTGYN1IU&workerId=A181HHZC94KPZR&assignmentId=308XBLVESJQ0Y84KQ8KMT5MGORBBRP&a=EB803&tp_a=EB803&b=308XBLVESJQ0Y84KQ8KMT5MGORBBRP&tp_b=308XBLVESJQ0Y84KQ8KMT5MGORBBRP&c=365633&tp_c=365633","heads":13,"tails":2,"studentIndex":19,"studentTrueHypers":{"a":2,"b":8},"studentGuess":0.6,"delta":0.09999999999999998,"totalExamples":15,"bonusSoFar":0},{"rt":16750,"response":{"heads":"13","tails":"8"},"type":"response","condition":"seqNoFeedback","trueTheta":0.5,"classrooms":["C","D"],"studentTrueClassroom":"C","exampleSet":"second","trial_type":"survey-html-form","trial_index":153,"time_elapsed":1891428,"internal_node_id":"0.0-152.0-0.0","params":{"nStudents":24,"maxFlips":25,"completionMinutes":45,"basePay":8,"maxBonus":9,"perTrialBonus":0.5,"perTrialBonusThreshold":0.05,"exampleCost":0.02},"classroomParams":{"A":{"a":1,"b":4},"B":{"a":4,"b":1},"C":{"a":2,"b":8},"D":{"a":8,"b":2}},"conditions":["nonSeqFull","nonSeqPartial","seqNoFeedback","seqFeedback"],"classroomPairings":[["A","B"],["C","D"]],"coinWeights":[0.2,0.5,0.8],"subjectId":"A181HHZC94KPZR","assignmentId":"308XBLVESJQ0Y84KQ8KMT5MGORBBRP","hitId":"3IH9TRB0FBLK6RLF7MSMKICTGYN1IU","url":"https://gershmanlab.com/experiments/alicia/teaching/experiment/?hitId=3IH9TRB0FBLK6RLF7MSMKICTGYN1IU&workerId=A181HHZC94KPZR&assignmentId=308XBLVESJQ0Y84KQ8KMT5MGORBBRP&a=EB803&tp_a=EB803&b=308XBLVESJQ0Y84KQ8KMT5MGORBBRP&tp_b=308XBLVESJQ0Y84KQ8KMT5MGORBBRP&c=365633&tp_c=365633","firstResponseHeads":13,"firstResponseTails":2,"secondResponseHeads":13,"secondResponseTails":8,"totalHeads":26,"totalTails":10,"studentIndex":19,"studentTrueHypers":{"a":2,"b":8},"studentGuess":0.6086956521739131,"delta":0.10869565217391308,"bonus":0,"bonusSoFar":0,"totalExamples":36},{"rt":10895,"response":{"heads":"5","tails":"20"},"type":"response","condition":"seqNoFeedback","trueTheta":0.2,"classrooms":["A","B"],"studentTrueClassroom":"B","exampleSet":"first","trial_type":"survey-html-form","trial_index":159,"time_elapsed":1915733,"internal_node_id":"0.0-158.0-0.0","params":{"nStudents":24,"maxFlips":25,"completionMinutes":45,"basePay":8,"maxBonus":9,"perTrialBonus":0.5,"perTrialBonusThreshold":0.05,"exampleCost":0.02},"classroomParams":{"A":{"a":1,"b":4},"B":{"a":4,"b":1},"C":{"a":2,"b":8},"D":{"a":8,"b":2}},"conditions":["nonSeqFull","nonSeqPartial","seqNoFeedback","seqFeedback"],"classroomPairings":[["A","B"],["C","D"]],"coinWeights":[0.2,0.5,0.8],"subjectId":"A181HHZC94KPZR","assignmentId":"308XBLVESJQ0Y84KQ8KMT5MGORBBRP","hitId":"3IH9TRB0FBLK6RLF7MSMKICTGYN1IU","url":"https://gershmanlab.com/experiments/alicia/teaching/experiment/?hitId=3IH9TRB0FBLK6RLF7MSMKICTGYN1IU&workerId=A181HHZC94KPZR&assignmentId=308XBLVESJQ0Y84KQ8KMT5MGORBBRP&a=EB803&tp_a=EB803&b=308XBLVESJQ0Y84KQ8KMT5MGORBBRP&tp_b=308XBLVESJQ0Y84KQ8KMT5MGORBBRP&c=365633&tp_c=365633","heads":5,"tails":20,"studentIndex":20,"studentTrueHypers":{"a":4,"b":1},"studentGuess":0.3,"delta":0.09999999999999998,"totalExamples":25,"bonusSoFar":0},{"rt":6247,"response":{"heads":"5","tails":"20"},"type":"response","condition":"seqNoFeedback","trueTheta":0.2,"classrooms":["A","B"],"studentTrueClassroom":"B","exampleSet":"second","trial_type":"survey-html-form","trial_index":162,"time_elapsed":1927993,"internal_node_id":"0.0-161.0-0.0","params":{"nStudents":24,"maxFlips":25,"completionMinutes":45,"basePay":8,"maxBonus":9,"perTrialBonus":0.5,"perTrialBonusThreshold":0.05,"exampleCost":0.02},"classroomParams":{"A":{"a":1,"b":4},"B":{"a":4,"b":1},"C":{"a":2,"b":8},"D":{"a":8,"b":2}},"conditions":["nonSeqFull","nonSeqPartial","seqNoFeedback","seqFeedback"],"classroomPairings":[["A","B"],["C","D"]],"coinWeights":[0.2,0.5,0.8],"subjectId":"A181HHZC94KPZR","assignmentId":"308XBLVESJQ0Y84KQ8KMT5MGORBBRP","hitId":"3IH9TRB0FBLK6RLF7MSMKICTGYN1IU","url":"https://gershmanlab.com/experiments/alicia/teaching/experiment/?hitId=3IH9TRB0FBLK6RLF7MSMKICTGYN1IU&workerId=A181HHZC94KPZR&assignmentId=308XBLVESJQ0Y84KQ8KMT5MGORBBRP&a=EB803&tp_a=EB803&b=308XBLVESJQ0Y84KQ8KMT5MGORBBRP&tp_b=308XBLVESJQ0Y84KQ8KMT5MGORBBRP&c=365633&tp_c=365633","firstResponseHeads":5,"firstResponseTails":20,"secondResponseHeads":5,"secondResponseTails":20,"totalHeads":10,"totalTails":40,"studentIndex":20,"studentTrueHypers":{"a":4,"b":1},"studentGuess":0.2545454545454545,"delta":0.05454545454545451,"bonus":0,"bonusSoFar":0,"totalExamples":50},{"rt":10704,"response":{"heads":"10","tails":"15"},"type":"response","condition":"seqNoFeedback","trueTheta":0.5,"classrooms":["A","B"],"studentTrueClassroom":"A","exampleSet":"first","trial_type":"survey-html-form","trial_index":168,"time_elapsed":1958451,"internal_node_id":"0.0-167.0-0.0","params":{"nStudents":24,"maxFlips":25,"completionMinutes":45,"basePay":8,"maxBonus":9,"perTrialBonus":0.5,"perTrialBonusThreshold":0.05,"exampleCost":0.02},"classroomParams":{"A":{"a":1,"b":4},"B":{"a":4,"b":1},"C":{"a":2,"b":8},"D":{"a":8,"b":2}},"conditions":["nonSeqFull","nonSeqPartial","seqNoFeedback","seqFeedback"],"classroomPairings":[["A","B"],["C","D"]],"coinWeights":[0.2,0.5,0.8],"subjectId":"A181HHZC94KPZR","assignmentId":"308XBLVESJQ0Y84KQ8KMT5MGORBBRP","hitId":"3IH9TRB0FBLK6RLF7MSMKICTGYN1IU","url":"https://gershmanlab.com/experiments/alicia/teaching/experiment/?hitId=3IH9TRB0FBLK6RLF7MSMKICTGYN1IU&workerId=A181HHZC94KPZR&assignmentId=308XBLVESJQ0Y84KQ8KMT5MGORBBRP&a=EB803&tp_a=EB803&b=308XBLVESJQ0Y84KQ8KMT5MGORBBRP&tp_b=308XBLVESJQ0Y84KQ8KMT5MGORBBRP&c=365633&tp_c=365633","heads":10,"tails":15,"studentIndex":21,"studentTrueHypers":{"a":1,"b":4},"studentGuess":0.36666666666666664,"delta":0.13333333333333336,"totalExamples":25,"bonusSoFar":0},{"rt":4453,"response":{"heads":"10","tails":"15"},"type":"response","condition":"seqNoFeedback","trueTheta":0.5,"classrooms":["A","B"],"studentTrueClassroom":"A","exampleSet":"second","trial_type":"survey-html-form","trial_index":171,"time_elapsed":1970669,"internal_node_id":"0.0-170.0-0.0","params":{"nStudents":24,"maxFlips":25,"completionMinutes":45,"basePay":8,"maxBonus":9,"perTrialBonus":0.5,"perTrialBonusThreshold":0.05,"exampleCost":0.02},"classroomParams":{"A":{"a":1,"b":4},"B":{"a":4,"b":1},"C":{"a":2,"b":8},"D":{"a":8,"b":2}},"conditions":["nonSeqFull","nonSeqPartial","seqNoFeedback","seqFeedback"],"classroomPairings":[["A","B"],["C","D"]],"coinWeights":[0.2,0.5,0.8],"subjectId":"A181HHZC94KPZR","assignmentId":"308XBLVESJQ0Y84KQ8KMT5MGORBBRP","hitId":"3IH9TRB0FBLK6RLF7MSMKICTGYN1IU","url":"https://gershmanlab.com/experiments/alicia/teaching/experiment/?hitId=3IH9TRB0FBLK6RLF7MSMKICTGYN1IU&workerId=A181HHZC94KPZR&assignmentId=308XBLVESJQ0Y84KQ8KMT5MGORBBRP&a=EB803&tp_a=EB803&b=308XBLVESJQ0Y84KQ8KMT5MGORBBRP&tp_b=308XBLVESJQ0Y84KQ8KMT5MGORBBRP&c=365633&tp_c=365633","firstResponseHeads":10,"firstResponseTails":15,"secondResponseHeads":10,"secondResponseTails":15,"totalHeads":20,"totalTails":30,"studentIndex":21,"studentTrueHypers":{"a":1,"b":4},"studentGuess":0.38181818181818183,"delta":0.11818181818181817,"bonus":0,"bonusSoFar":0,"totalExamples":50},{"rt":18786,"response":{"heads":"2","tails":"23"},"type":"response","condition":"seqFeedback","trueTheta":0.2,"classrooms":["C","D"],"studentTrueClassroom":"D","exampleSet":"first","trial_type":"survey-html-form","trial_index":177,"time_elapsed":2061684,"internal_node_id":"0.0-176.0-0.0","params":{"nStudents":24,"maxFlips":25,"completionMinutes":45,"basePay":8,"maxBonus":9,"perTrialBonus":0.5,"perTrialBonusThreshold":0.05,"exampleCost":0.02},"classroomParams":{"A":{"a":1,"b":4},"B":{"a":4,"b":1},"C":{"a":2,"b":8},"D":{"a":8,"b":2}},"conditions":["nonSeqFull","nonSeqPartial","seqNoFeedback","seqFeedback"],"classroomPairings":[["A","B"],["C","D"]],"coinWeights":[0.2,0.5,0.8],"subjectId":"A181HHZC94KPZR","assignmentId":"308XBLVESJQ0Y84KQ8KMT5MGORBBRP","hitId":"3IH9TRB0FBLK6RLF7MSMKICTGYN1IU","url":"https://gershmanlab.com/experiments/alicia/teaching/experiment/?hitId=3IH9TRB0FBLK6RLF7MSMKICTGYN1IU&workerId=A181HHZC94KPZR&assignmentId=308XBLVESJQ0Y84KQ8KMT5MGORBBRP&a=EB803&tp_a=EB803&b=308XBLVESJQ0Y84KQ8KMT5MGORBBRP&tp_b=308XBLVESJQ0Y84KQ8KMT5MGORBBRP&c=365633&tp_c=365633","heads":2,"tails":23,"studentIndex":22,"studentTrueHypers":{"a":8,"b":2},"studentGuess":0.2857142857142857,"delta":0.08571428571428569,"totalExamples":25,"bonusSoFar":0},{"rt":11346,"response":{"heads":"2","tails":"23"},"type":"response","condition":"seqFeedback","trueTheta":0.2,"classrooms":["C","D"],"studentTrueClassroom":"D","exampleSet":"second","trial_type":"survey-html-form","trial_index":181,"time_elapsed":2109816,"internal_node_id":"0.0-180.0-0.0","params":{"nStudents":24,"maxFlips":25,"completionMinutes":45,"basePay":8,"maxBonus":9,"perTrialBonus":0.5,"perTrialBonusThreshold":0.05,"exampleCost":0.02},"classroomParams":{"A":{"a":1,"b":4},"B":{"a":4,"b":1},"C":{"a":2,"b":8},"D":{"a":8,"b":2}},"conditions":["nonSeqFull","nonSeqPartial","seqNoFeedback","seqFeedback"],"classroomPairings":[["A","B"],["C","D"]],"coinWeights":[0.2,0.5,0.8],"subjectId":"A181HHZC94KPZR","assignmentId":"308XBLVESJQ0Y84KQ8KMT5MGORBBRP","hitId":"3IH9TRB0FBLK6RLF7MSMKICTGYN1IU","url":"https://gershmanlab.com/experiments/alicia/teaching/experiment/?hitId=3IH9TRB0FBLK6RLF7MSMKICTGYN1IU&workerId=A181HHZC94KPZR&assignmentId=308XBLVESJQ0Y84KQ8KMT5MGORBBRP&a=EB803&tp_a=EB803&b=308XBLVESJQ0Y84KQ8KMT5MGORBBRP&tp_b=308XBLVESJQ0Y84KQ8KMT5MGORBBRP&c=365633&tp_c=365633","firstResponseHeads":2,"firstResponseTails":23,"secondResponseHeads":2,"secondResponseTails":23,"totalHeads":4,"totalTails":46,"studentIndex":22,"studentTrueHypers":{"a":8,"b":2},"studentGuess":0.2,"delta":0,"bonus":0,"bonusSoFar":0,"totalExamples":50},{"rt":6218,"response":{"heads":"24","tails":"1"},"type":"response","condition":"nonSeqPartial","trueTheta":0.8,"classrooms":["A","B"],"studentTrueClassroom":"A","exampleSet":"first","trial_type":"survey-html-form","trial_index":187,"time_elapsed":2132780,"internal_node_id":"0.0-186.0-0.0","params":{"nStudents":24,"maxFlips":25,"completionMinutes":45,"basePay":8,"maxBonus":9,"perTrialBonus":0.5,"perTrialBonusThreshold":0.05,"exampleCost":0.02},"classroomParams":{"A":{"a":1,"b":4},"B":{"a":4,"b":1},"C":{"a":2,"b":8},"D":{"a":8,"b":2}},"conditions":["nonSeqFull","nonSeqPartial","seqNoFeedback","seqFeedback"],"classroomPairings":[["A","B"],["C","D"]],"coinWeights":[0.2,0.5,0.8],"subjectId":"A181HHZC94KPZR","assignmentId":"308XBLVESJQ0Y84KQ8KMT5MGORBBRP","hitId":"3IH9TRB0FBLK6RLF7MSMKICTGYN1IU","url":"https://gershmanlab.com/experiments/alicia/teaching/experiment/?hitId=3IH9TRB0FBLK6RLF7MSMKICTGYN1IU&workerId=A181HHZC94KPZR&assignmentId=308XBLVESJQ0Y84KQ8KMT5MGORBBRP&a=EB803&tp_a=EB803&b=308XBLVESJQ0Y84KQ8KMT5MGORBBRP&tp_b=308XBLVESJQ0Y84KQ8KMT5MGORBBRP&c=365633&tp_c=365633","heads":24,"tails":1,"studentIndex":23,"studentTrueHypers":{"a":1,"b":4},"studentGuess":0.8333333333333334,"delta":0.033333333333333326,"totalExamples":25,"bonus":0,"bonusSoFar":0},{"rt":45729,"response":{"gender":"male","age":"41","understood":"yes","comments":"Some results were spot on, but no bonus was assigned that I could see.  Maybe I didn't fully understand the instructions."},"type":"response","trial_type":"survey-html-form","trial_index":191,"time_elapsed":2189082,"internal_node_id":"0.0-191.0","params":{"nStudents":24,"maxFlips":25,"completionMinutes":45,"basePay":8,"maxBonus":9,"perTrialBonus":0.5,"perTrialBonusThreshold":0.05,"exampleCost":0.02},"classroomParams":{"A":{"a":1,"b":4},"B":{"a":4,"b":1},"C":{"a":2,"b":8},"D":{"a":8,"b":2}},"conditions":["nonSeqFull","nonSeqPartial","seqNoFeedback","seqFeedback"],"classroomPairings":[["A","B"],["C","D"]],"coinWeights":[0.2,0.5,0.8],"subjectId":"A181HHZC94KPZR","assignmentId":"308XBLVESJQ0Y84KQ8KMT5MGORBBRP","hitId":"3IH9TRB0FBLK6RLF7MSMKICTGYN1IU","url":"https://gershmanlab.com/experiments/alicia/teaching/experiment/?hitId=3IH9TRB0FBLK6RLF7MSMKICTGYN1IU&workerId=A181HHZC94KPZR&assignmentId=308XBLVESJQ0Y84KQ8KMT5MGORBBRP&a=EB803&tp_a=EB803&b=308XBLVESJQ0Y84KQ8KMT5MGORBBRP&tp_b=308XBLVESJQ0Y84KQ8KMT5MGORBBRP&c=365633&tp_c=365633","totalBonus":0}]