[{"rt":36318,"response":{"heads":"8","tails":"2"},"type":"response","condition":"nonSeqPartial","trueTheta":0.8,"classrooms":["C","D"],"studentTrueClassroom":"C","exampleSet":"first","trial_type":"survey-html-form","trial_index":22,"time_elapsed":660585,"internal_node_id":"0.0-6.0-0.0","params":{"nStudents":24,"maxFlips":25,"completionMinutes":45,"basePay":8,"maxBonus":9,"perTrialBonus":0.5,"perTrialBonusThreshold":0.05,"exampleCost":0.02},"classroomParams":{"A":{"a":1,"b":4},"B":{"a":4,"b":1},"C":{"a":2,"b":8},"D":{"a":8,"b":2}},"conditions":["nonSeqFull","nonSeqPartial","seqNoFeedback","seqFeedback"],"classroomPairings":[["A","B"],["C","D"]],"coinWeights":[0.2,0.5,0.8],"subjectId":"A1FVXS8IM5QYO8","assignmentId":"3JWH6J9I9TZFJACSX135KLH6NUMBN1","hitId":"3XUY87HIVP03YZXVLN9CW37DVI1MM2","url":"https://gershmanlab.com/experiments/alicia/teaching/experiment/?hitId=3XUY87HIVP03YZXVLN9CW37DVI1MM2&workerId=A1FVXS8IM5QYO8&assignmentId=3JWH6J9I9TZFJACSX135KLH6NUMBN1&a=I6WJ3&tp_a=I6WJ3&b=3JWH6J9I9TZFJACSX135KLH6NUMBN1&tp_b=3JWH6J9I9TZFJACSX135KLH6NUMBN1&c=365633&tp_c=365633","heads":8,"tails":2,"studentIndex":0,"studentTrueHypers":{"a":2,"b":8},"studentGuess":0.5,"delta":0.30000000000000004,"totalExamples":10,"bonus":0,"bonusSoFar":0},{"rt":13398,"response":{"heads":"7","tails":"3"},"type":"response","condition":"seqNoFeedback","trueTheta":0.8,"classrooms":["A","B"],"studentTrueClassroom":"A","exampleSet":"first","trial_type":"survey-html-form","trial_index":28,"time_elapsed":688749,"internal_node_id":"0.0-12.0-0.0","params":{"nStudents":24,"maxFlips":25,"completionMinutes":45,"basePay":8,"maxBonus":9,"perTrialBonus":0.5,"perTrialBonusThreshold":0.05,"exampleCost":0.02},"classroomParams":{"A":{"a":1,"b":4},"B":{"a":4,"b":1},"C":{"a":2,"b":8},"D":{"a":8,"b":2}},"conditions":["nonSeqFull","nonSeqPartial","seqNoFeedback","seqFeedback"],"classroomPairings":[["A","B"],["C","D"]],"coinWeights":[0.2,0.5,0.8],"subjectId":"A1FVXS8IM5QYO8","assignmentId":"3JWH6J9I9TZFJACSX135KLH6NUMBN1","hitId":"3XUY87HIVP03YZXVLN9CW37DVI1MM2","url":"https://gershmanlab.com/experiments/alicia/teaching/experiment/?hitId=3XUY87HIVP03YZXVLN9CW37DVI1MM2&workerId=A1FVXS8IM5QYO8&assignmentId=3JWH6J9I9TZFJACSX135KLH6NUMBN1&a=I6WJ3&tp_a=I6WJ3&b=3JWH6J9I9TZFJACSX135KLH6NUMBN1&tp_b=3JWH6J9I9TZFJACSX135KLH6NUMBN1&c=365633&tp_c=365633","heads":7,"tails":3,"studentIndex":1,"studentTrueHypers":{"a":1,"b":4},"studentGuess":0.5333333333333333,"delta":0.2666666666666667,"totalExamples":10,"bonusSoFar":0},{"rt":20484,"response":{"heads":"15","tails":"5"},"type":"response","condition":"seqNoFeedback","trueTheta":0.8,"classrooms":["A","B"],"studentTrueClassroom":"A","exampleSet":"second","trial_type":"survey-html-form","trial_index":31,"time_elapsed":715744,"internal_node_id":"0.0-15.0-0.0","params":{"nStudents":24,"maxFlips":25,"completionMinutes":45,"basePay":8,"maxBonus":9,"perTrialBonus":0.5,"perTrialBonusThreshold":0.05,"exampleCost":0.02},"classroomParams":{"A":{"a":1,"b":4},"B":{"a":4,"b":1},"C":{"a":2,"b":8},"D":{"a":8,"b":2}},"conditions":["nonSeqFull","nonSeqPartial","seqNoFeedback","seqFeedback"],"classroomPairings":[["A","B"],["C","D"]],"coinWeights":[0.2,0.5,0.8],"subjectId":"A1FVXS8IM5QYO8","assignmentId":"3JWH6J9I9TZFJACSX135KLH6NUMBN1","hitId":"3XUY87HIVP03YZXVLN9CW37DVI1MM2","url":"https://gershmanlab.com/experiments/alicia/teaching/experiment/?hitId=3XUY87HIVP03YZXVLN9CW37DVI1MM2&workerId=A1FVXS8IM5QYO8&assignmentId=3JWH6J9I9TZFJACSX135KLH6NUMBN1&a=I6WJ3&tp_a=I6WJ3&b=3JWH6J9I9TZFJACSX135KLH6NUMBN1&tp_b=3JWH6J9I9TZFJACSX135KLH6NUMBN1&c=365633&tp_c=365633","firstResponseHeads":7,"firstResponseTails":3,"secondResponseHeads":15,"secondResponseTails":5,"totalHeads":22,"totalTails":8,"studentIndex":1,"studentTrueHypers":{"a":1,"b":4},"studentGuess":0.6571428571428571,"delta":0.1428571428571429,"bonus":0,"bonusSoFar":0,"totalExamples":30},{"rt":14035,"response":{"heads":"15","tails":"5"},"type":"response","condition":"nonSeqFull","trueTheta":0.8,"classrooms":["C","D"],"studentTrueClassroom":"C","exampleSet":"first","trial_type":"survey-html-form","trial_index":37,"time_elapsed":746198,"internal_node_id":"0.0-21.0-0.0","params":{"nStudents":24,"maxFlips":25,"completionMinutes":45,"basePay":8,"maxBonus":9,"perTrialBonus":0.5,"perTrialBonusThreshold":0.05,"exampleCost":0.02},"classroomParams":{"A":{"a":1,"b":4},"B":{"a":4,"b":1},"C":{"a":2,"b":8},"D":{"a":8,"b":2}},"conditions":["nonSeqFull","nonSeqPartial","seqNoFeedback","seqFeedback"],"classroomPairings":[["A","B"],["C","D"]],"coinWeights":[0.2,0.5,0.8],"subjectId":"A1FVXS8IM5QYO8","assignmentId":"3JWH6J9I9TZFJACSX135KLH6NUMBN1","hitId":"3XUY87HIVP03YZXVLN9CW37DVI1MM2","url":"https://gershmanlab.com/experiments/alicia/teaching/experiment/?hitId=3XUY87HIVP03YZXVLN9CW37DVI1MM2&workerId=A1FVXS8IM5QYO8&assignmentId=3JWH6J9I9TZFJACSX135KLH6NUMBN1&a=I6WJ3&tp_a=I6WJ3&b=3JWH6J9I9TZFJACSX135KLH6NUMBN1&tp_b=3JWH6J9I9TZFJACSX135KLH6NUMBN1&c=365633&tp_c=365633","heads":15,"tails":5,"studentIndex":2,"studentTrueHypers":{"a":2,"b":8},"studentGuess":0.5666666666666667,"delta":0.2333333333333334,"totalExamples":20,"bonus":0,"bonusSoFar":0},{"rt":22290,"response":{"heads":"9","tails":"2"},"type":"response","condition":"seqFeedback","trueTheta":0.8,"classrooms":["C","D"],"studentTrueClassroom":"D","exampleSet":"first","trial_type":"survey-html-form","trial_index":43,"time_elapsed":782467,"internal_node_id":"0.0-27.0-0.0","params":{"nStudents":24,"maxFlips":25,"completionMinutes":45,"basePay":8,"maxBonus":9,"perTrialBonus":0.5,"perTrialBonusThreshold":0.05,"exampleCost":0.02},"classroomParams":{"A":{"a":1,"b":4},"B":{"a":4,"b":1},"C":{"a":2,"b":8},"D":{"a":8,"b":2}},"conditions":["nonSeqFull","nonSeqPartial","seqNoFeedback","seqFeedback"],"classroomPairings":[["A","B"],["C","D"]],"coinWeights":[0.2,0.5,0.8],"subjectId":"A1FVXS8IM5QYO8","assignmentId":"3JWH6J9I9TZFJACSX135KLH6NUMBN1","hitId":"3XUY87HIVP03YZXVLN9CW37DVI1MM2","url":"https://gershmanlab.com/experiments/alicia/teaching/experiment/?hitId=3XUY87HIVP03YZXVLN9CW37DVI1MM2&workerId=A1FVXS8IM5QYO8&assignmentId=3JWH6J9I9TZFJACSX135KLH6NUMBN1&a=I6WJ3&tp_a=I6WJ3&b=3JWH6J9I9TZFJACSX135KLH6NUMBN1&tp_b=3JWH6J9I9TZFJACSX135KLH6NUMBN1&c=365633&tp_c=365633","heads":9,"tails":2,"studentIndex":3,"studentTrueHypers":{"a":8,"b":2},"studentGuess":0.8095238095238095,"delta":0.00952380952380949,"totalExamples":11,"bonusSoFar":0},{"rt":7586,"response":{"heads":"10","tails":"2"},"type":"response","condition":"seqFeedback","trueTheta":0.8,"classrooms":["C","D"],"studentTrueClassroom":"D","exampleSet":"second","trial_type":"survey-html-form","trial_index":47,"time_elapsed":802234,"internal_node_id":"0.0-31.0-0.0","params":{"nStudents":24,"maxFlips":25,"completionMinutes":45,"basePay":8,"maxBonus":9,"perTrialBonus":0.5,"perTrialBonusThreshold":0.05,"exampleCost":0.02},"classroomParams":{"A":{"a":1,"b":4},"B":{"a":4,"b":1},"C":{"a":2,"b":8},"D":{"a":8,"b":2}},"conditions":["nonSeqFull","nonSeqPartial","seqNoFeedback","seqFeedback"],"classroomPairings":[["A","B"],["C","D"]],"coinWeights":[0.2,0.5,0.8],"subjectId":"A1FVXS8IM5QYO8","assignmentId":"3JWH6J9I9TZFJACSX135KLH6NUMBN1","hitId":"3XUY87HIVP03YZXVLN9CW37DVI1MM2","url":"https://gershmanlab.com/experiments/alicia/teaching/experiment/?hitId=3XUY87HIVP03YZXVLN9CW37DVI1MM2&workerId=A1FVXS8IM5QYO8&assignmentId=3JWH6J9I9TZFJACSX135KLH6NUMBN1&a=I6WJ3&tp_a=I6WJ3&b=3JWH6J9I9TZFJACSX135KLH6NUMBN1&tp_b=3JWH6J9I9TZFJACSX135KLH6NUMBN1&c=365633&tp_c=365633","firstResponseHeads":9,"firstResponseTails":2,"secondResponseHeads":10,"secondResponseTails":2,"totalHeads":19,"totalTails":4,"studentIndex":3,"studentTrueHypers":{"a":8,"b":2},"studentGuess":0.8181818181818182,"delta":0.018181818181818188,"bonus":0.04,"bonusSoFar":0.04,"totalExamples":23},{"rt":11838,"response":{"heads":"2","tails":"10"},"type":"response","condition":"nonSeqPartial","trueTheta":0.2,"classrooms":["A","B"],"studentTrueClassroom":"A","exampleSet":"first","trial_type":"survey-html-form","trial_index":53,"time_elapsed":829996,"internal_node_id":"0.0-37.0-0.0","params":{"nStudents":24,"maxFlips":25,"completionMinutes":45,"basePay":8,"maxBonus":9,"perTrialBonus":0.5,"perTrialBonusThreshold":0.05,"exampleCost":0.02},"classroomParams":{"A":{"a":1,"b":4},"B":{"a":4,"b":1},"C":{"a":2,"b":8},"D":{"a":8,"b":2}},"conditions":["nonSeqFull","nonSeqPartial","seqNoFeedback","seqFeedback"],"classroomPairings":[["A","B"],["C","D"]],"coinWeights":[0.2,0.5,0.8],"subjectId":"A1FVXS8IM5QYO8","assignmentId":"3JWH6J9I9TZFJACSX135KLH6NUMBN1","hitId":"3XUY87HIVP03YZXVLN9CW37DVI1MM2","url":"https://gershmanlab.com/experiments/alicia/teaching/experiment/?hitId=3XUY87HIVP03YZXVLN9CW37DVI1MM2&workerId=A1FVXS8IM5QYO8&assignmentId=3JWH6J9I9TZFJACSX135KLH6NUMBN1&a=I6WJ3&tp_a=I6WJ3&b=3JWH6J9I9TZFJACSX135KLH6NUMBN1&tp_b=3JWH6J9I9TZFJACSX135KLH6NUMBN1&c=365633&tp_c=365633","heads":2,"tails":10,"studentIndex":4,"studentTrueHypers":{"a":1,"b":4},"studentGuess":0.17647058823529413,"delta":0.023529411764705882,"totalExamples":12,"bonus":0.26,"bonusSoFar":0.3},{"rt":7294,"response":{"heads":"5","tails":"5"},"type":"response","condition":"seqNoFeedback","trueTheta":0.5,"classrooms":["C","D"],"studentTrueClassroom":"C","exampleSet":"first","trial_type":"survey-html-form","trial_index":59,"time_elapsed":849430,"internal_node_id":"0.0-43.0-0.0","params":{"nStudents":24,"maxFlips":25,"completionMinutes":45,"basePay":8,"maxBonus":9,"perTrialBonus":0.5,"perTrialBonusThreshold":0.05,"exampleCost":0.02},"classroomParams":{"A":{"a":1,"b":4},"B":{"a":4,"b":1},"C":{"a":2,"b":8},"D":{"a":8,"b":2}},"conditions":["nonSeqFull","nonSeqPartial","seqNoFeedback","seqFeedback"],"classroomPairings":[["A","B"],["C","D"]],"coinWeights":[0.2,0.5,0.8],"subjectId":"A1FVXS8IM5QYO8","assignmentId":"3JWH6J9I9TZFJACSX135KLH6NUMBN1","hitId":"3XUY87HIVP03YZXVLN9CW37DVI1MM2","url":"https://gershmanlab.com/experiments/alicia/teaching/experiment/?hitId=3XUY87HIVP03YZXVLN9CW37DVI1MM2&workerId=A1FVXS8IM5QYO8&assignmentId=3JWH6J9I9TZFJACSX135KLH6NUMBN1&a=I6WJ3&tp_a=I6WJ3&b=3JWH6J9I9TZFJACSX135KLH6NUMBN1&tp_b=3JWH6J9I9TZFJACSX135KLH6NUMBN1&c=365633&tp_c=365633","heads":5,"tails":5,"studentIndex":5,"studentTrueHypers":{"a":2,"b":8},"studentGuess":0.35,"delta":0.15000000000000002,"totalExamples":10,"bonusSoFar":0.3},{"rt":9360,"response":{"heads":"10","tails":"10"},"type":"response","condition":"seqNoFeedback","trueTheta":0.5,"classrooms":["C","D"],"studentTrueClassroom":"C","exampleSet":"second","trial_type":"survey-html-form","trial_index":62,"time_elapsed":865053,"internal_node_id":"0.0-46.0-0.0","params":{"nStudents":24,"maxFlips":25,"completionMinutes":45,"basePay":8,"maxBonus":9,"perTrialBonus":0.5,"perTrialBonusThreshold":0.05,"exampleCost":0.02},"classroomParams":{"A":{"a":1,"b":4},"B":{"a":4,"b":1},"C":{"a":2,"b":8},"D":{"a":8,"b":2}},"conditions":["nonSeqFull","nonSeqPartial","seqNoFeedback","seqFeedback"],"classroomPairings":[["A","B"],["C","D"]],"coinWeights":[0.2,0.5,0.8],"subjectId":"A1FVXS8IM5QYO8","assignmentId":"3JWH6J9I9TZFJACSX135KLH6NUMBN1","hitId":"3XUY87HIVP03YZXVLN9CW37DVI1MM2","url":"https://gershmanlab.com/experiments/alicia/teaching/experiment/?hitId=3XUY87HIVP03YZXVLN9CW37DVI1MM2&workerId=A1FVXS8IM5QYO8&assignmentId=3JWH6J9I9TZFJACSX135KLH6NUMBN1&a=I6WJ3&tp_a=I6WJ3&b=3JWH6J9I9TZFJACSX135KLH6NUMBN1&tp_b=3JWH6J9I9TZFJACSX135KLH6NUMBN1&c=365633&tp_c=365633","firstResponseHeads":5,"firstResponseTails":5,"secondResponseHeads":10,"secondResponseTails":10,"totalHeads":15,"totalTails":15,"studentIndex":5,"studentTrueHypers":{"a":2,"b":8},"studentGuess":0.425,"delta":0.07500000000000001,"bonus":0,"bonusSoFar":0.3,"totalExamples":30},{"rt":7646,"response":{"heads":"5","tails":"5"},"type":"response","condition":"nonSeqPartial","trueTheta":0.5,"classrooms":["C","D"],"studentTrueClassroom":"C","exampleSet":"first","trial_type":"survey-html-form","trial_index":68,"time_elapsed":886137,"internal_node_id":"0.0-52.0-0.0","params":{"nStudents":24,"maxFlips":25,"completionMinutes":45,"basePay":8,"maxBonus":9,"perTrialBonus":0.5,"perTrialBonusThreshold":0.05,"exampleCost":0.02},"classroomParams":{"A":{"a":1,"b":4},"B":{"a":4,"b":1},"C":{"a":2,"b":8},"D":{"a":8,"b":2}},"conditions":["nonSeqFull","nonSeqPartial","seqNoFeedback","seqFeedback"],"classroomPairings":[["A","B"],["C","D"]],"coinWeights":[0.2,0.5,0.8],"subjectId":"A1FVXS8IM5QYO8","assignmentId":"3JWH6J9I9TZFJACSX135KLH6NUMBN1","hitId":"3XUY87HIVP03YZXVLN9CW37DVI1MM2","url":"https://gershmanlab.com/experiments/alicia/teaching/experiment/?hitId=3XUY87HIVP03YZXVLN9CW37DVI1MM2&workerId=A1FVXS8IM5QYO8&assignmentId=3JWH6J9I9TZFJACSX135KLH6NUMBN1&a=I6WJ3&tp_a=I6WJ3&b=3JWH6J9I9TZFJACSX135KLH6NUMBN1&tp_b=3JWH6J9I9TZFJACSX135KLH6NUMBN1&c=365633&tp_c=365633","heads":5,"tails":5,"studentIndex":6,"studentTrueHypers":{"a":2,"b":8},"studentGuess":0.35,"delta":0.15000000000000002,"totalExamples":10,"bonus":0,"bonusSoFar":0.3},{"rt":7958,"response":{"heads":"2","tails":"10"},"type":"response","condition":"seqNoFeedback","trueTheta":0.2,"classrooms":["C","D"],"studentTrueClassroom":"D","exampleSet":"first","trial_type":"survey-html-form","trial_index":74,"time_elapsed":907854,"internal_node_id":"0.0-58.0-0.0","params":{"nStudents":24,"maxFlips":25,"completionMinutes":45,"basePay":8,"maxBonus":9,"perTrialBonus":0.5,"perTrialBonusThreshold":0.05,"exampleCost":0.02},"classroomParams":{"A":{"a":1,"b":4},"B":{"a":4,"b":1},"C":{"a":2,"b":8},"D":{"a":8,"b":2}},"conditions":["nonSeqFull","nonSeqPartial","seqNoFeedback","seqFeedback"],"classroomPairings":[["A","B"],["C","D"]],"coinWeights":[0.2,0.5,0.8],"subjectId":"A1FVXS8IM5QYO8","assignmentId":"3JWH6J9I9TZFJACSX135KLH6NUMBN1","hitId":"3XUY87HIVP03YZXVLN9CW37DVI1MM2","url":"https://gershmanlab.com/experiments/alicia/teaching/experiment/?hitId=3XUY87HIVP03YZXVLN9CW37DVI1MM2&workerId=A1FVXS8IM5QYO8&assignmentId=3JWH6J9I9TZFJACSX135KLH6NUMBN1&a=I6WJ3&tp_a=I6WJ3&b=3JWH6J9I9TZFJACSX135KLH6NUMBN1&tp_b=3JWH6J9I9TZFJACSX135KLH6NUMBN1&c=365633&tp_c=365633","heads":2,"tails":10,"studentIndex":7,"studentTrueHypers":{"a":8,"b":2},"studentGuess":0.45454545454545453,"delta":0.2545454545454545,"totalExamples":12,"bonusSoFar":0.3},{"rt":10341,"response":{"heads":"4","tails":"12"},"type":"response","condition":"seqNoFeedback","trueTheta":0.2,"classrooms":["C","D"],"studentTrueClassroom":"D","exampleSet":"second","trial_type":"survey-html-form","trial_index":77,"time_elapsed":923707,"internal_node_id":"0.0-61.0-0.0","params":{"nStudents":24,"maxFlips":25,"completionMinutes":45,"basePay":8,"maxBonus":9,"perTrialBonus":0.5,"perTrialBonusThreshold":0.05,"exampleCost":0.02},"classroomParams":{"A":{"a":1,"b":4},"B":{"a":4,"b":1},"C":{"a":2,"b":8},"D":{"a":8,"b":2}},"conditions":["nonSeqFull","nonSeqPartial","seqNoFeedback","seqFeedback"],"classroomPairings":[["A","B"],["C","D"]],"coinWeights":[0.2,0.5,0.8],"subjectId":"A1FVXS8IM5QYO8","assignmentId":"3JWH6J9I9TZFJACSX135KLH6NUMBN1","hitId":"3XUY87HIVP03YZXVLN9CW37DVI1MM2","url":"https://gershmanlab.com/experiments/alicia/teaching/experiment/?hitId=3XUY87HIVP03YZXVLN9CW37DVI1MM2&workerId=A1FVXS8IM5QYO8&assignmentId=3JWH6J9I9TZFJACSX135KLH6NUMBN1&a=I6WJ3&tp_a=I6WJ3&b=3JWH6J9I9TZFJACSX135KLH6NUMBN1&tp_b=3JWH6J9I9TZFJACSX135KLH6NUMBN1&c=365633&tp_c=365633","firstResponseHeads":2,"firstResponseTails":10,"secondResponseHeads":4,"secondResponseTails":12,"totalHeads":6,"totalTails":22,"studentIndex":7,"studentTrueHypers":{"a":8,"b":2},"studentGuess":0.3684210526315789,"delta":0.16842105263157892,"bonus":0,"bonusSoFar":0.3,"totalExamples":28},{"rt":13292,"response":{"heads":"3","tails":"7"},"type":"response","condition":"nonSeqPartial","trueTheta":0.2,"classrooms":["C","D"],"studentTrueClassroom":"D","exampleSet":"first","trial_type":"survey-html-form","trial_index":83,"time_elapsed":949063,"internal_node_id":"0.0-67.0-0.0","params":{"nStudents":24,"maxFlips":25,"completionMinutes":45,"basePay":8,"maxBonus":9,"perTrialBonus":0.5,"perTrialBonusThreshold":0.05,"exampleCost":0.02},"classroomParams":{"A":{"a":1,"b":4},"B":{"a":4,"b":1},"C":{"a":2,"b":8},"D":{"a":8,"b":2}},"conditions":["nonSeqFull","nonSeqPartial","seqNoFeedback","seqFeedback"],"classroomPairings":[["A","B"],["C","D"]],"coinWeights":[0.2,0.5,0.8],"subjectId":"A1FVXS8IM5QYO8","assignmentId":"3JWH6J9I9TZFJACSX135KLH6NUMBN1","hitId":"3XUY87HIVP03YZXVLN9CW37DVI1MM2","url":"https://gershmanlab.com/experiments/alicia/teaching/experiment/?hitId=3XUY87HIVP03YZXVLN9CW37DVI1MM2&workerId=A1FVXS8IM5QYO8&assignmentId=3JWH6J9I9TZFJACSX135KLH6NUMBN1&a=I6WJ3&tp_a=I6WJ3&b=3JWH6J9I9TZFJACSX135KLH6NUMBN1&tp_b=3JWH6J9I9TZFJACSX135KLH6NUMBN1&c=365633&tp_c=365633","heads":3,"tails":7,"studentIndex":8,"studentTrueHypers":{"a":8,"b":2},"studentGuess":0.55,"delta":0.35000000000000003,"totalExamples":10,"bonus":0,"bonusSoFar":0.3},{"rt":7083,"response":{"heads":"5","tails":"5"},"type":"response","condition":"seqFeedback","trueTheta":0.5,"classrooms":["A","B"],"studentTrueClassroom":"B","exampleSet":"first","trial_type":"survey-html-form","trial_index":89,"time_elapsed":971411,"internal_node_id":"0.0-73.0-0.0","params":{"nStudents":24,"maxFlips":25,"completionMinutes":45,"basePay":8,"maxBonus":9,"perTrialBonus":0.5,"perTrialBonusThreshold":0.05,"exampleCost":0.02},"classroomParams":{"A":{"a":1,"b":4},"B":{"a":4,"b":1},"C":{"a":2,"b":8},"D":{"a":8,"b":2}},"conditions":["nonSeqFull","nonSeqPartial","seqNoFeedback","seqFeedback"],"classroomPairings":[["A","B"],["C","D"]],"coinWeights":[0.2,0.5,0.8],"subjectId":"A1FVXS8IM5QYO8","assignmentId":"3JWH6J9I9TZFJACSX135KLH6NUMBN1","hitId":"3XUY87HIVP03YZXVLN9CW37DVI1MM2","url":"https://gershmanlab.com/experiments/alicia/teaching/experiment/?hitId=3XUY87HIVP03YZXVLN9CW37DVI1MM2&workerId=A1FVXS8IM5QYO8&assignmentId=3JWH6J9I9TZFJACSX135KLH6NUMBN1&a=I6WJ3&tp_a=I6WJ3&b=3JWH6J9I9TZFJACSX135KLH6NUMBN1&tp_b=3JWH6J9I9TZFJACSX135KLH6NUMBN1&c=365633&tp_c=365633","heads":5,"tails":5,"studentIndex":9,"studentTrueHypers":{"a":4,"b":1},"studentGuess":0.6,"delta":0.09999999999999998,"totalExamples":10,"bonusSoFar":0.3},{"rt":8123,"response":{"heads":"7","tails":"7"},"type":"response","condition":"seqFeedback","trueTheta":0.5,"classrooms":["A","B"],"studentTrueClassroom":"B","exampleSet":"second","trial_type":"survey-html-form","trial_index":93,"time_elapsed":989214,"internal_node_id":"0.0-77.0-0.0","params":{"nStudents":24,"maxFlips":25,"completionMinutes":45,"basePay":8,"maxBonus":9,"perTrialBonus":0.5,"perTrialBonusThreshold":0.05,"exampleCost":0.02},"classroomParams":{"A":{"a":1,"b":4},"B":{"a":4,"b":1},"C":{"a":2,"b":8},"D":{"a":8,"b":2}},"conditions":["nonSeqFull","nonSeqPartial","seqNoFeedback","seqFeedback"],"classroomPairings":[["A","B"],["C","D"]],"coinWeights":[0.2,0.5,0.8],"subjectId":"A1FVXS8IM5QYO8","assignmentId":"3JWH6J9I9TZFJACSX135KLH6NUMBN1","hitId":"3XUY87HIVP03YZXVLN9CW37DVI1MM2","url":"https://gershmanlab.com/experiments/alicia/teaching/experiment/?hitId=3XUY87HIVP03YZXVLN9CW37DVI1MM2&workerId=A1FVXS8IM5QYO8&assignmentId=3JWH6J9I9TZFJACSX135KLH6NUMBN1&a=I6WJ3&tp_a=I6WJ3&b=3JWH6J9I9TZFJACSX135KLH6NUMBN1&tp_b=3JWH6J9I9TZFJACSX135KLH6NUMBN1&c=365633&tp_c=365633","firstResponseHeads":5,"firstResponseTails":5,"secondResponseHeads":7,"secondResponseTails":7,"totalHeads":12,"totalTails":12,"studentIndex":9,"studentTrueHypers":{"a":4,"b":1},"studentGuess":0.5517241379310345,"delta":0.051724137931034475,"bonus":0,"bonusSoFar":0.3,"totalExamples":24},{"rt":7156,"response":{"heads":"8","tails":"8"},"type":"response","condition":"seqNoFeedback","trueTheta":0.5,"classrooms":["A","B"],"studentTrueClassroom":"A","exampleSet":"first","trial_type":"survey-html-form","trial_index":99,"time_elapsed":1008923,"internal_node_id":"0.0-83.0-0.0","params":{"nStudents":24,"maxFlips":25,"completionMinutes":45,"basePay":8,"maxBonus":9,"perTrialBonus":0.5,"perTrialBonusThreshold":0.05,"exampleCost":0.02},"classroomParams":{"A":{"a":1,"b":4},"B":{"a":4,"b":1},"C":{"a":2,"b":8},"D":{"a":8,"b":2}},"conditions":["nonSeqFull","nonSeqPartial","seqNoFeedback","seqFeedback"],"classroomPairings":[["A","B"],["C","D"]],"coinWeights":[0.2,0.5,0.8],"subjectId":"A1FVXS8IM5QYO8","assignmentId":"3JWH6J9I9TZFJACSX135KLH6NUMBN1","hitId":"3XUY87HIVP03YZXVLN9CW37DVI1MM2","url":"https://gershmanlab.com/experiments/alicia/teaching/experiment/?hitId=3XUY87HIVP03YZXVLN9CW37DVI1MM2&workerId=A1FVXS8IM5QYO8&assignmentId=3JWH6J9I9TZFJACSX135KLH6NUMBN1&a=I6WJ3&tp_a=I6WJ3&b=3JWH6J9I9TZFJACSX135KLH6NUMBN1&tp_b=3JWH6J9I9TZFJACSX135KLH6NUMBN1&c=365633&tp_c=365633","heads":8,"tails":8,"studentIndex":10,"studentTrueHypers":{"a":1,"b":4},"studentGuess":0.42857142857142855,"delta":0.07142857142857145,"totalExamples":16,"bonusSoFar":0.3},{"rt":9772,"response":{"heads":"6","tails":"8"},"type":"response","condition":"seqNoFeedback","trueTheta":0.5,"classrooms":["A","B"],"studentTrueClassroom":"A","exampleSet":"second","trial_type":"survey-html-form","trial_index":102,"time_elapsed":1025211,"internal_node_id":"0.0-86.0-0.0","params":{"nStudents":24,"maxFlips":25,"completionMinutes":45,"basePay":8,"maxBonus":9,"perTrialBonus":0.5,"perTrialBonusThreshold":0.05,"exampleCost":0.02},"classroomParams":{"A":{"a":1,"b":4},"B":{"a":4,"b":1},"C":{"a":2,"b":8},"D":{"a":8,"b":2}},"conditions":["nonSeqFull","nonSeqPartial","seqNoFeedback","seqFeedback"],"classroomPairings":[["A","B"],["C","D"]],"coinWeights":[0.2,0.5,0.8],"subjectId":"A1FVXS8IM5QYO8","assignmentId":"3JWH6J9I9TZFJACSX135KLH6NUMBN1","hitId":"3XUY87HIVP03YZXVLN9CW37DVI1MM2","url":"https://gershmanlab.com/experiments/alicia/teaching/experiment/?hitId=3XUY87HIVP03YZXVLN9CW37DVI1MM2&workerId=A1FVXS8IM5QYO8&assignmentId=3JWH6J9I9TZFJACSX135KLH6NUMBN1&a=I6WJ3&tp_a=I6WJ3&b=3JWH6J9I9TZFJACSX135KLH6NUMBN1&tp_b=3JWH6J9I9TZFJACSX135KLH6NUMBN1&c=365633&tp_c=365633","firstResponseHeads":8,"firstResponseTails":8,"secondResponseHeads":6,"secondResponseTails":8,"totalHeads":14,"totalTails":16,"studentIndex":10,"studentTrueHypers":{"a":1,"b":4},"studentGuess":0.42857142857142855,"delta":0.07142857142857145,"bonus":0,"bonusSoFar":0.3,"totalExamples":30},{"rt":9643,"response":{"heads":"6","tails":"6"},"type":"response","condition":"seqFeedback","trueTheta":0.2,"classrooms":["C","D"],"studentTrueClassroom":"D","exampleSet":"first","trial_type":"survey-html-form","trial_index":108,"time_elapsed":1048849,"internal_node_id":"0.0-92.0-0.0","params":{"nStudents":24,"maxFlips":25,"completionMinutes":45,"basePay":8,"maxBonus":9,"perTrialBonus":0.5,"perTrialBonusThreshold":0.05,"exampleCost":0.02},"classroomParams":{"A":{"a":1,"b":4},"B":{"a":4,"b":1},"C":{"a":2,"b":8},"D":{"a":8,"b":2}},"conditions":["nonSeqFull","nonSeqPartial","seqNoFeedback","seqFeedback"],"classroomPairings":[["A","B"],["C","D"]],"coinWeights":[0.2,0.5,0.8],"subjectId":"A1FVXS8IM5QYO8","assignmentId":"3JWH6J9I9TZFJACSX135KLH6NUMBN1","hitId":"3XUY87HIVP03YZXVLN9CW37DVI1MM2","url":"https://gershmanlab.com/experiments/alicia/teaching/experiment/?hitId=3XUY87HIVP03YZXVLN9CW37DVI1MM2&workerId=A1FVXS8IM5QYO8&assignmentId=3JWH6J9I9TZFJACSX135KLH6NUMBN1&a=I6WJ3&tp_a=I6WJ3&b=3JWH6J9I9TZFJACSX135KLH6NUMBN1&tp_b=3JWH6J9I9TZFJACSX135KLH6NUMBN1&c=365633&tp_c=365633","heads":6,"tails":6,"studentIndex":11,"studentTrueHypers":{"a":8,"b":2},"studentGuess":0.6363636363636364,"delta":0.43636363636363634,"totalExamples":12,"bonusSoFar":0.3},{"rt":8215,"response":{"heads":"5","tails":"5"},"type":"response","condition":"seqFeedback","trueTheta":0.2,"classrooms":["C","D"],"studentTrueClassroom":"D","exampleSet":"second","trial_type":"survey-html-form","trial_index":112,"time_elapsed":1067138,"internal_node_id":"0.0-96.0-0.0","params":{"nStudents":24,"maxFlips":25,"completionMinutes":45,"basePay":8,"maxBonus":9,"perTrialBonus":0.5,"perTrialBonusThreshold":0.05,"exampleCost":0.02},"classroomParams":{"A":{"a":1,"b":4},"B":{"a":4,"b":1},"C":{"a":2,"b":8},"D":{"a":8,"b":2}},"conditions":["nonSeqFull","nonSeqPartial","seqNoFeedback","seqFeedback"],"classroomPairings":[["A","B"],["C","D"]],"coinWeights":[0.2,0.5,0.8],"subjectId":"A1FVXS8IM5QYO8","assignmentId":"3JWH6J9I9TZFJACSX135KLH6NUMBN1","hitId":"3XUY87HIVP03YZXVLN9CW37DVI1MM2","url":"https://gershmanlab.com/experiments/alicia/teaching/experiment/?hitId=3XUY87HIVP03YZXVLN9CW37DVI1MM2&workerId=A1FVXS8IM5QYO8&assignmentId=3JWH6J9I9TZFJACSX135KLH6NUMBN1&a=I6WJ3&tp_a=I6WJ3&b=3JWH6J9I9TZFJACSX135KLH6NUMBN1&tp_b=3JWH6J9I9TZFJACSX135KLH6NUMBN1&c=365633&tp_c=365633","firstResponseHeads":6,"firstResponseTails":6,"secondResponseHeads":5,"secondResponseTails":5,"totalHeads":11,"totalTails":11,"studentIndex":11,"studentTrueHypers":{"a":8,"b":2},"studentGuess":0.59375,"delta":0.39375,"bonus":0,"bonusSoFar":0.3,"totalExamples":22},{"rt":9820,"response":{"heads":"4","tails":"8"},"type":"response","condition":"seqFeedback","trueTheta":0.2,"classrooms":["A","B"],"studentTrueClassroom":"A","exampleSet":"first","trial_type":"survey-html-form","trial_index":118,"time_elapsed":1105375,"internal_node_id":"0.0-102.0-0.0","params":{"nStudents":24,"maxFlips":25,"completionMinutes":45,"basePay":8,"maxBonus":9,"perTrialBonus":0.5,"perTrialBonusThreshold":0.05,"exampleCost":0.02},"classroomParams":{"A":{"a":1,"b":4},"B":{"a":4,"b":1},"C":{"a":2,"b":8},"D":{"a":8,"b":2}},"conditions":["nonSeqFull","nonSeqPartial","seqNoFeedback","seqFeedback"],"classroomPairings":[["A","B"],["C","D"]],"coinWeights":[0.2,0.5,0.8],"subjectId":"A1FVXS8IM5QYO8","assignmentId":"3JWH6J9I9TZFJACSX135KLH6NUMBN1","hitId":"3XUY87HIVP03YZXVLN9CW37DVI1MM2","url":"https://gershmanlab.com/experiments/alicia/teaching/experiment/?hitId=3XUY87HIVP03YZXVLN9CW37DVI1MM2&workerId=A1FVXS8IM5QYO8&assignmentId=3JWH6J9I9TZFJACSX135KLH6NUMBN1&a=I6WJ3&tp_a=I6WJ3&b=3JWH6J9I9TZFJACSX135KLH6NUMBN1&tp_b=3JWH6J9I9TZFJACSX135KLH6NUMBN1&c=365633&tp_c=365633","heads":4,"tails":8,"studentIndex":12,"studentTrueHypers":{"a":1,"b":4},"studentGuess":0.29411764705882354,"delta":0.09411764705882353,"totalExamples":12,"bonusSoFar":0.3},{"rt":7407,"response":{"heads":"4","tails":"9"},"type":"response","condition":"seqFeedback","trueTheta":0.2,"classrooms":["A","B"],"studentTrueClassroom":"A","exampleSet":"second","trial_type":"survey-html-form","trial_index":122,"time_elapsed":1121015,"internal_node_id":"0.0-106.0-0.0","params":{"nStudents":24,"maxFlips":25,"completionMinutes":45,"basePay":8,"maxBonus":9,"perTrialBonus":0.5,"perTrialBonusThreshold":0.05,"exampleCost":0.02},"classroomParams":{"A":{"a":1,"b":4},"B":{"a":4,"b":1},"C":{"a":2,"b":8},"D":{"a":8,"b":2}},"conditions":["nonSeqFull","nonSeqPartial","seqNoFeedback","seqFeedback"],"classroomPairings":[["A","B"],["C","D"]],"coinWeights":[0.2,0.5,0.8],"subjectId":"A1FVXS8IM5QYO8","assignmentId":"3JWH6J9I9TZFJACSX135KLH6NUMBN1","hitId":"3XUY87HIVP03YZXVLN9CW37DVI1MM2","url":"https://gershmanlab.com/experiments/alicia/teaching/experiment/?hitId=3XUY87HIVP03YZXVLN9CW37DVI1MM2&workerId=A1FVXS8IM5QYO8&assignmentId=3JWH6J9I9TZFJACSX135KLH6NUMBN1&a=I6WJ3&tp_a=I6WJ3&b=3JWH6J9I9TZFJACSX135KLH6NUMBN1&tp_b=3JWH6J9I9TZFJACSX135KLH6NUMBN1&c=365633&tp_c=365633","firstResponseHeads":4,"firstResponseTails":8,"secondResponseHeads":4,"secondResponseTails":9,"totalHeads":8,"totalTails":17,"studentIndex":12,"studentTrueHypers":{"a":1,"b":4},"studentGuess":0.3,"delta":0.09999999999999998,"bonus":0,"bonusSoFar":0.3,"totalExamples":25},{"rt":12817,"response":{"heads":"6","tails":"2"},"type":"response","condition":"nonSeqFull","trueTheta":0.8,"classrooms":["A","B"],"studentTrueClassroom":"A","exampleSet":"first","trial_type":"survey-html-form","trial_index":128,"time_elapsed":1148122,"internal_node_id":"0.0-112.0-0.0","params":{"nStudents":24,"maxFlips":25,"completionMinutes":45,"basePay":8,"maxBonus":9,"perTrialBonus":0.5,"perTrialBonusThreshold":0.05,"exampleCost":0.02},"classroomParams":{"A":{"a":1,"b":4},"B":{"a":4,"b":1},"C":{"a":2,"b":8},"D":{"a":8,"b":2}},"conditions":["nonSeqFull","nonSeqPartial","seqNoFeedback","seqFeedback"],"classroomPairings":[["A","B"],["C","D"]],"coinWeights":[0.2,0.5,0.8],"subjectId":"A1FVXS8IM5QYO8","assignmentId":"3JWH6J9I9TZFJACSX135KLH6NUMBN1","hitId":"3XUY87HIVP03YZXVLN9CW37DVI1MM2","url":"https://gershmanlab.com/experiments/alicia/teaching/experiment/?hitId=3XUY87HIVP03YZXVLN9CW37DVI1MM2&workerId=A1FVXS8IM5QYO8&assignmentId=3JWH6J9I9TZFJACSX135KLH6NUMBN1&a=I6WJ3&tp_a=I6WJ3&b=3JWH6J9I9TZFJACSX135KLH6NUMBN1&tp_b=3JWH6J9I9TZFJACSX135KLH6NUMBN1&c=365633&tp_c=365633","heads":6,"tails":2,"studentIndex":13,"studentTrueHypers":{"a":1,"b":4},"studentGuess":0.5384615384615384,"delta":0.2615384615384616,"totalExamples":8,"bonus":0,"bonusSoFar":0.3},{"rt":9544,"response":{"heads":"5","tails":"8"},"type":"response","condition":"nonSeqFull","trueTheta":0.2,"classrooms":["A","B"],"studentTrueClassroom":"B","exampleSet":"first","trial_type":"survey-html-form","trial_index":134,"time_elapsed":1172893,"internal_node_id":"0.0-118.0-0.0","params":{"nStudents":24,"maxFlips":25,"completionMinutes":45,"basePay":8,"maxBonus":9,"perTrialBonus":0.5,"perTrialBonusThreshold":0.05,"exampleCost":0.02},"classroomParams":{"A":{"a":1,"b":4},"B":{"a":4,"b":1},"C":{"a":2,"b":8},"D":{"a":8,"b":2}},"conditions":["nonSeqFull","nonSeqPartial","seqNoFeedback","seqFeedback"],"classroomPairings":[["A","B"],["C","D"]],"coinWeights":[0.2,0.5,0.8],"subjectId":"A1FVXS8IM5QYO8","assignmentId":"3JWH6J9I9TZFJACSX135KLH6NUMBN1","hitId":"3XUY87HIVP03YZXVLN9CW37DVI1MM2","url":"https://gershmanlab.com/experiments/alicia/teaching/experiment/?hitId=3XUY87HIVP03YZXVLN9CW37DVI1MM2&workerId=A1FVXS8IM5QYO8&assignmentId=3JWH6J9I9TZFJACSX135KLH6NUMBN1&a=I6WJ3&tp_a=I6WJ3&b=3JWH6J9I9TZFJACSX135KLH6NUMBN1&tp_b=3JWH6J9I9TZFJACSX135KLH6NUMBN1&c=365633&tp_c=365633","heads":5,"tails":8,"studentIndex":14,"studentTrueHypers":{"a":4,"b":1},"studentGuess":0.5,"delta":0.3,"totalExamples":13,"bonus":0,"bonusSoFar":0.3},{"rt":6596,"response":{"heads":"5","tails":"5"},"type":"response","condition":"nonSeqPartial","trueTheta":0.5,"classrooms":["A","B"],"studentTrueClassroom":"A","exampleSet":"first","trial_type":"survey-html-form","trial_index":140,"time_elapsed":1192156,"internal_node_id":"0.0-124.0-0.0","params":{"nStudents":24,"maxFlips":25,"completionMinutes":45,"basePay":8,"maxBonus":9,"perTrialBonus":0.5,"perTrialBonusThreshold":0.05,"exampleCost":0.02},"classroomParams":{"A":{"a":1,"b":4},"B":{"a":4,"b":1},"C":{"a":2,"b":8},"D":{"a":8,"b":2}},"conditions":["nonSeqFull","nonSeqPartial","seqNoFeedback","seqFeedback"],"classroomPairings":[["A","B"],["C","D"]],"coinWeights":[0.2,0.5,0.8],"subjectId":"A1FVXS8IM5QYO8","assignmentId":"3JWH6J9I9TZFJACSX135KLH6NUMBN1","hitId":"3XUY87HIVP03YZXVLN9CW37DVI1MM2","url":"https://gershmanlab.com/experiments/alicia/teaching/experiment/?hitId=3XUY87HIVP03YZXVLN9CW37DVI1MM2&workerId=A1FVXS8IM5QYO8&assignmentId=3JWH6J9I9TZFJACSX135KLH6NUMBN1&a=I6WJ3&tp_a=I6WJ3&b=3JWH6J9I9TZFJACSX135KLH6NUMBN1&tp_b=3JWH6J9I9TZFJACSX135KLH6NUMBN1&c=365633&tp_c=365633","heads":5,"tails":5,"studentIndex":15,"studentTrueHypers":{"a":1,"b":4},"studentGuess":0.4,"delta":0.09999999999999998,"totalExamples":10,"bonus":0,"bonusSoFar":0.3},{"rt":8200,"response":{"heads":"8","tails":"2"},"type":"response","condition":"seqNoFeedback","trueTheta":0.8,"classrooms":["C","D"],"studentTrueClassroom":"C","exampleSet":"first","trial_type":"survey-html-form","trial_index":146,"time_elapsed":1213259,"internal_node_id":"0.0-130.0-0.0","params":{"nStudents":24,"maxFlips":25,"completionMinutes":45,"basePay":8,"maxBonus":9,"perTrialBonus":0.5,"perTrialBonusThreshold":0.05,"exampleCost":0.02},"classroomParams":{"A":{"a":1,"b":4},"B":{"a":4,"b":1},"C":{"a":2,"b":8},"D":{"a":8,"b":2}},"conditions":["nonSeqFull","nonSeqPartial","seqNoFeedback","seqFeedback"],"classroomPairings":[["A","B"],["C","D"]],"coinWeights":[0.2,0.5,0.8],"subjectId":"A1FVXS8IM5QYO8","assignmentId":"3JWH6J9I9TZFJACSX135KLH6NUMBN1","hitId":"3XUY87HIVP03YZXVLN9CW37DVI1MM2","url":"https://gershmanlab.com/experiments/alicia/teaching/experiment/?hitId=3XUY87HIVP03YZXVLN9CW37DVI1MM2&workerId=A1FVXS8IM5QYO8&assignmentId=3JWH6J9I9TZFJACSX135KLH6NUMBN1&a=I6WJ3&tp_a=I6WJ3&b=3JWH6J9I9TZFJACSX135KLH6NUMBN1&tp_b=3JWH6J9I9TZFJACSX135KLH6NUMBN1&c=365633&tp_c=365633","heads":8,"tails":2,"studentIndex":16,"studentTrueHypers":{"a":2,"b":8},"studentGuess":0.5,"delta":0.30000000000000004,"totalExamples":10,"bonusSoFar":0.3},{"rt":9447,"response":{"heads":"6","tails":"2"},"type":"response","condition":"seqNoFeedback","trueTheta":0.8,"classrooms":["C","D"],"studentTrueClassroom":"C","exampleSet":"second","trial_type":"survey-html-form","trial_index":149,"time_elapsed":1229468,"internal_node_id":"0.0-133.0-0.0","params":{"nStudents":24,"maxFlips":25,"completionMinutes":45,"basePay":8,"maxBonus":9,"perTrialBonus":0.5,"perTrialBonusThreshold":0.05,"exampleCost":0.02},"classroomParams":{"A":{"a":1,"b":4},"B":{"a":4,"b":1},"C":{"a":2,"b":8},"D":{"a":8,"b":2}},"conditions":["nonSeqFull","nonSeqPartial","seqNoFeedback","seqFeedback"],"classroomPairings":[["A","B"],["C","D"]],"coinWeights":[0.2,0.5,0.8],"subjectId":"A1FVXS8IM5QYO8","assignmentId":"3JWH6J9I9TZFJACSX135KLH6NUMBN1","hitId":"3XUY87HIVP03YZXVLN9CW37DVI1MM2","url":"https://gershmanlab.com/experiments/alicia/teaching/experiment/?hitId=3XUY87HIVP03YZXVLN9CW37DVI1MM2&workerId=A1FVXS8IM5QYO8&assignmentId=3JWH6J9I9TZFJACSX135KLH6NUMBN1&a=I6WJ3&tp_a=I6WJ3&b=3JWH6J9I9TZFJACSX135KLH6NUMBN1&tp_b=3JWH6J9I9TZFJACSX135KLH6NUMBN1&c=365633&tp_c=365633","firstResponseHeads":8,"firstResponseTails":2,"secondResponseHeads":6,"secondResponseTails":2,"totalHeads":14,"totalTails":4,"studentIndex":16,"studentTrueHypers":{"a":2,"b":8},"studentGuess":0.5714285714285714,"delta":0.22857142857142865,"bonus":0,"bonusSoFar":0.3,"totalExamples":18},{"rt":9304,"response":{"heads":"2","tails":"8"},"type":"response","condition":"nonSeqFull","trueTheta":0.2,"classrooms":["C","D"],"studentTrueClassroom":"D","exampleSet":"first","trial_type":"survey-html-form","trial_index":155,"time_elapsed":1251200,"internal_node_id":"0.0-139.0-0.0","params":{"nStudents":24,"maxFlips":25,"completionMinutes":45,"basePay":8,"maxBonus":9,"perTrialBonus":0.5,"perTrialBonusThreshold":0.05,"exampleCost":0.02},"classroomParams":{"A":{"a":1,"b":4},"B":{"a":4,"b":1},"C":{"a":2,"b":8},"D":{"a":8,"b":2}},"conditions":["nonSeqFull","nonSeqPartial","seqNoFeedback","seqFeedback"],"classroomPairings":[["A","B"],["C","D"]],"coinWeights":[0.2,0.5,0.8],"subjectId":"A1FVXS8IM5QYO8","assignmentId":"3JWH6J9I9TZFJACSX135KLH6NUMBN1","hitId":"3XUY87HIVP03YZXVLN9CW37DVI1MM2","url":"https://gershmanlab.com/experiments/alicia/teaching/experiment/?hitId=3XUY87HIVP03YZXVLN9CW37DVI1MM2&workerId=A1FVXS8IM5QYO8&assignmentId=3JWH6J9I9TZFJACSX135KLH6NUMBN1&a=I6WJ3&tp_a=I6WJ3&b=3JWH6J9I9TZFJACSX135KLH6NUMBN1&tp_b=3JWH6J9I9TZFJACSX135KLH6NUMBN1&c=365633&tp_c=365633","heads":2,"tails":8,"studentIndex":17,"studentTrueHypers":{"a":8,"b":2},"studentGuess":0.5,"delta":0.3,"totalExamples":10,"bonus":0,"bonusSoFar":0.3},{"rt":10785,"response":{"heads":"8","tails":"3"},"type":"response","condition":"nonSeqFull","trueTheta":0.5,"classrooms":["A","B"],"studentTrueClassroom":"B","exampleSet":"first","trial_type":"survey-html-form","trial_index":161,"time_elapsed":1442942,"internal_node_id":"0.0-145.0-0.0","params":{"nStudents":24,"maxFlips":25,"completionMinutes":45,"basePay":8,"maxBonus":9,"perTrialBonus":0.5,"perTrialBonusThreshold":0.05,"exampleCost":0.02},"classroomParams":{"A":{"a":1,"b":4},"B":{"a":4,"b":1},"C":{"a":2,"b":8},"D":{"a":8,"b":2}},"conditions":["nonSeqFull","nonSeqPartial","seqNoFeedback","seqFeedback"],"classroomPairings":[["A","B"],["C","D"]],"coinWeights":[0.2,0.5,0.8],"subjectId":"A1FVXS8IM5QYO8","assignmentId":"3JWH6J9I9TZFJACSX135KLH6NUMBN1","hitId":"3XUY87HIVP03YZXVLN9CW37DVI1MM2","url":"https://gershmanlab.com/experiments/alicia/teaching/experiment/?hitId=3XUY87HIVP03YZXVLN9CW37DVI1MM2&workerId=A1FVXS8IM5QYO8&assignmentId=3JWH6J9I9TZFJACSX135KLH6NUMBN1&a=I6WJ3&tp_a=I6WJ3&b=3JWH6J9I9TZFJACSX135KLH6NUMBN1&tp_b=3JWH6J9I9TZFJACSX135KLH6NUMBN1&c=365633&tp_c=365633","heads":8,"tails":3,"studentIndex":18,"studentTrueHypers":{"a":4,"b":1},"studentGuess":0.75,"delta":0.25,"totalExamples":11,"bonus":0,"bonusSoFar":0.3},{"rt":6108,"response":{"heads":"8","tails":"2"},"type":"response","condition":"nonSeqPartial","trueTheta":0.8,"classrooms":["A","B"],"studentTrueClassroom":"B","exampleSet":"first","trial_type":"survey-html-form","trial_index":167,"time_elapsed":1462948,"internal_node_id":"0.0-151.0-0.0","params":{"nStudents":24,"maxFlips":25,"completionMinutes":45,"basePay":8,"maxBonus":9,"perTrialBonus":0.5,"perTrialBonusThreshold":0.05,"exampleCost":0.02},"classroomParams":{"A":{"a":1,"b":4},"B":{"a":4,"b":1},"C":{"a":2,"b":8},"D":{"a":8,"b":2}},"conditions":["nonSeqFull","nonSeqPartial","seqNoFeedback","seqFeedback"],"classroomPairings":[["A","B"],["C","D"]],"coinWeights":[0.2,0.5,0.8],"subjectId":"A1FVXS8IM5QYO8","assignmentId":"3JWH6J9I9TZFJACSX135KLH6NUMBN1","hitId":"3XUY87HIVP03YZXVLN9CW37DVI1MM2","url":"https://gershmanlab.com/experiments/alicia/teaching/experiment/?hitId=3XUY87HIVP03YZXVLN9CW37DVI1MM2&workerId=A1FVXS8IM5QYO8&assignmentId=3JWH6J9I9TZFJACSX135KLH6NUMBN1&a=I6WJ3&tp_a=I6WJ3&b=3JWH6J9I9TZFJACSX135KLH6NUMBN1&tp_b=3JWH6J9I9TZFJACSX135KLH6NUMBN1&c=365633&tp_c=365633","heads":8,"tails":2,"studentIndex":19,"studentTrueHypers":{"a":4,"b":1},"studentGuess":0.8,"delta":0,"totalExamples":10,"bonus":0.3,"bonusSoFar":0.6},{"rt":6431,"response":{"heads":"8","tails":"2"},"type":"response","condition":"seqFeedback","trueTheta":0.8,"classrooms":["A","B"],"studentTrueClassroom":"A","exampleSet":"first","trial_type":"survey-html-form","trial_index":173,"time_elapsed":1481253,"internal_node_id":"0.0-157.0-0.0","params":{"nStudents":24,"maxFlips":25,"completionMinutes":45,"basePay":8,"maxBonus":9,"perTrialBonus":0.5,"perTrialBonusThreshold":0.05,"exampleCost":0.02},"classroomParams":{"A":{"a":1,"b":4},"B":{"a":4,"b":1},"C":{"a":2,"b":8},"D":{"a":8,"b":2}},"conditions":["nonSeqFull","nonSeqPartial","seqNoFeedback","seqFeedback"],"classroomPairings":[["A","B"],["C","D"]],"coinWeights":[0.2,0.5,0.8],"subjectId":"A1FVXS8IM5QYO8","assignmentId":"3JWH6J9I9TZFJACSX135KLH6NUMBN1","hitId":"3XUY87HIVP03YZXVLN9CW37DVI1MM2","url":"https://gershmanlab.com/experiments/alicia/teaching/experiment/?hitId=3XUY87HIVP03YZXVLN9CW37DVI1MM2&workerId=A1FVXS8IM5QYO8&assignmentId=3JWH6J9I9TZFJACSX135KLH6NUMBN1&a=I6WJ3&tp_a=I6WJ3&b=3JWH6J9I9TZFJACSX135KLH6NUMBN1&tp_b=3JWH6J9I9TZFJACSX135KLH6NUMBN1&c=365633&tp_c=365633","heads":8,"tails":2,"studentIndex":20,"studentTrueHypers":{"a":1,"b":4},"studentGuess":0.6,"delta":0.20000000000000007,"totalExamples":10,"bonusSoFar":0.6},{"rt":7710,"response":{"heads":"12","tails":"2"},"type":"response","condition":"seqFeedback","trueTheta":0.8,"classrooms":["A","B"],"studentTrueClassroom":"A","exampleSet":"second","trial_type":"survey-html-form","trial_index":177,"time_elapsed":1500243,"internal_node_id":"0.0-161.0-0.0","params":{"nStudents":24,"maxFlips":25,"completionMinutes":45,"basePay":8,"maxBonus":9,"perTrialBonus":0.5,"perTrialBonusThreshold":0.05,"exampleCost":0.02},"classroomParams":{"A":{"a":1,"b":4},"B":{"a":4,"b":1},"C":{"a":2,"b":8},"D":{"a":8,"b":2}},"conditions":["nonSeqFull","nonSeqPartial","seqNoFeedback","seqFeedback"],"classroomPairings":[["A","B"],["C","D"]],"coinWeights":[0.2,0.5,0.8],"subjectId":"A1FVXS8IM5QYO8","assignmentId":"3JWH6J9I9TZFJACSX135KLH6NUMBN1","hitId":"3XUY87HIVP03YZXVLN9CW37DVI1MM2","url":"https://gershmanlab.com/experiments/alicia/teaching/experiment/?hitId=3XUY87HIVP03YZXVLN9CW37DVI1MM2&workerId=A1FVXS8IM5QYO8&assignmentId=3JWH6J9I9TZFJACSX135KLH6NUMBN1&a=I6WJ3&tp_a=I6WJ3&b=3JWH6J9I9TZFJACSX135KLH6NUMBN1&tp_b=3JWH6J9I9TZFJACSX135KLH6NUMBN1&c=365633&tp_c=365633","firstResponseHeads":8,"firstResponseTails":2,"secondResponseHeads":12,"secondResponseTails":2,"totalHeads":20,"totalTails":4,"studentIndex":20,"studentTrueHypers":{"a":1,"b":4},"studentGuess":0.7241379310344828,"delta":0.07586206896551728,"bonus":0,"bonusSoFar":0.6,"totalExamples":24},{"rt":8572,"response":{"heads":"9","tails":"3"},"type":"response","condition":"seqFeedback","trueTheta":0.5,"classrooms":["C","D"],"studentTrueClassroom":"C","exampleSet":"first","trial_type":"survey-html-form","trial_index":183,"time_elapsed":1525214,"internal_node_id":"0.0-167.0-0.0","params":{"nStudents":24,"maxFlips":25,"completionMinutes":45,"basePay":8,"maxBonus":9,"perTrialBonus":0.5,"perTrialBonusThreshold":0.05,"exampleCost":0.02},"classroomParams":{"A":{"a":1,"b":4},"B":{"a":4,"b":1},"C":{"a":2,"b":8},"D":{"a":8,"b":2}},"conditions":["nonSeqFull","nonSeqPartial","seqNoFeedback","seqFeedback"],"classroomPairings":[["A","B"],["C","D"]],"coinWeights":[0.2,0.5,0.8],"subjectId":"A1FVXS8IM5QYO8","assignmentId":"3JWH6J9I9TZFJACSX135KLH6NUMBN1","hitId":"3XUY87HIVP03YZXVLN9CW37DVI1MM2","url":"https://gershmanlab.com/experiments/alicia/teaching/experiment/?hitId=3XUY87HIVP03YZXVLN9CW37DVI1MM2&workerId=A1FVXS8IM5QYO8&assignmentId=3JWH6J9I9TZFJACSX135KLH6NUMBN1&a=I6WJ3&tp_a=I6WJ3&b=3JWH6J9I9TZFJACSX135KLH6NUMBN1&tp_b=3JWH6J9I9TZFJACSX135KLH6NUMBN1&c=365633&tp_c=365633","heads":9,"tails":3,"studentIndex":21,"studentTrueHypers":{"a":2,"b":8},"studentGuess":0.5,"delta":0,"totalExamples":12,"bonusSoFar":0.6},{"rt":9883,"response":{"heads":"10","tails":"5"},"type":"response","condition":"seqFeedback","trueTheta":0.5,"classrooms":["C","D"],"studentTrueClassroom":"C","exampleSet":"second","trial_type":"survey-html-form","trial_index":187,"time_elapsed":1542988,"internal_node_id":"0.0-171.0-0.0","params":{"nStudents":24,"maxFlips":25,"completionMinutes":45,"basePay":8,"maxBonus":9,"perTrialBonus":0.5,"perTrialBonusThreshold":0.05,"exampleCost":0.02},"classroomParams":{"A":{"a":1,"b":4},"B":{"a":4,"b":1},"C":{"a":2,"b":8},"D":{"a":8,"b":2}},"conditions":["nonSeqFull","nonSeqPartial","seqNoFeedback","seqFeedback"],"classroomPairings":[["A","B"],["C","D"]],"coinWeights":[0.2,0.5,0.8],"subjectId":"A1FVXS8IM5QYO8","assignmentId":"3JWH6J9I9TZFJACSX135KLH6NUMBN1","hitId":"3XUY87HIVP03YZXVLN9CW37DVI1MM2","url":"https://gershmanlab.com/experiments/alicia/teaching/experiment/?hitId=3XUY87HIVP03YZXVLN9CW37DVI1MM2&workerId=A1FVXS8IM5QYO8&assignmentId=3JWH6J9I9TZFJACSX135KLH6NUMBN1&a=I6WJ3&tp_a=I6WJ3&b=3JWH6J9I9TZFJACSX135KLH6NUMBN1&tp_b=3JWH6J9I9TZFJACSX135KLH6NUMBN1&c=365633&tp_c=365633","firstResponseHeads":9,"firstResponseTails":3,"secondResponseHeads":10,"secondResponseTails":5,"totalHeads":19,"totalTails":8,"studentIndex":21,"studentTrueHypers":{"a":2,"b":8},"studentGuess":0.5675675675675675,"delta":0.06756756756756754,"bonus":0,"bonusSoFar":0.6,"totalExamples":27},{"rt":6671,"response":{"heads":"10","tails":"5"},"type":"response","condition":"nonSeqFull","trueTheta":0.5,"classrooms":["C","D"],"studentTrueClassroom":"C","exampleSet":"first","trial_type":"survey-html-form","trial_index":193,"time_elapsed":1561691,"internal_node_id":"0.0-177.0-0.0","params":{"nStudents":24,"maxFlips":25,"completionMinutes":45,"basePay":8,"maxBonus":9,"perTrialBonus":0.5,"perTrialBonusThreshold":0.05,"exampleCost":0.02},"classroomParams":{"A":{"a":1,"b":4},"B":{"a":4,"b":1},"C":{"a":2,"b":8},"D":{"a":8,"b":2}},"conditions":["nonSeqFull","nonSeqPartial","seqNoFeedback","seqFeedback"],"classroomPairings":[["A","B"],["C","D"]],"coinWeights":[0.2,0.5,0.8],"subjectId":"A1FVXS8IM5QYO8","assignmentId":"3JWH6J9I9TZFJACSX135KLH6NUMBN1","hitId":"3XUY87HIVP03YZXVLN9CW37DVI1MM2","url":"https://gershmanlab.com/experiments/alicia/teaching/experiment/?hitId=3XUY87HIVP03YZXVLN9CW37DVI1MM2&workerId=A1FVXS8IM5QYO8&assignmentId=3JWH6J9I9TZFJACSX135KLH6NUMBN1&a=I6WJ3&tp_a=I6WJ3&b=3JWH6J9I9TZFJACSX135KLH6NUMBN1&tp_b=3JWH6J9I9TZFJACSX135KLH6NUMBN1&c=365633&tp_c=365633","heads":10,"tails":5,"studentIndex":22,"studentTrueHypers":{"a":2,"b":8},"studentGuess":0.48,"delta":0.020000000000000018,"totalExamples":15,"bonus":0.2,"bonusSoFar":0.8},{"rt":7994,"response":{"heads":"6","tails":"6"},"type":"response","condition":"seqNoFeedback","trueTheta":0.2,"classrooms":["A","B"],"studentTrueClassroom":"B","exampleSet":"first","trial_type":"survey-html-form","trial_index":199,"time_elapsed":1581103,"internal_node_id":"0.0-183.0-0.0","params":{"nStudents":24,"maxFlips":25,"completionMinutes":45,"basePay":8,"maxBonus":9,"perTrialBonus":0.5,"perTrialBonusThreshold":0.05,"exampleCost":0.02},"classroomParams":{"A":{"a":1,"b":4},"B":{"a":4,"b":1},"C":{"a":2,"b":8},"D":{"a":8,"b":2}},"conditions":["nonSeqFull","nonSeqPartial","seqNoFeedback","seqFeedback"],"classroomPairings":[["A","B"],["C","D"]],"coinWeights":[0.2,0.5,0.8],"subjectId":"A1FVXS8IM5QYO8","assignmentId":"3JWH6J9I9TZFJACSX135KLH6NUMBN1","hitId":"3XUY87HIVP03YZXVLN9CW37DVI1MM2","url":"https://gershmanlab.com/experiments/alicia/teaching/experiment/?hitId=3XUY87HIVP03YZXVLN9CW37DVI1MM2&workerId=A1FVXS8IM5QYO8&assignmentId=3JWH6J9I9TZFJACSX135KLH6NUMBN1&a=I6WJ3&tp_a=I6WJ3&b=3JWH6J9I9TZFJACSX135KLH6NUMBN1&tp_b=3JWH6J9I9TZFJACSX135KLH6NUMBN1&c=365633&tp_c=365633","heads":6,"tails":6,"studentIndex":23,"studentTrueHypers":{"a":4,"b":1},"studentGuess":0.5882352941176471,"delta":0.38823529411764707,"totalExamples":12,"bonusSoFar":0.8},{"rt":25887,"response":{"heads":"4","tails":"7"},"type":"response","condition":"seqNoFeedback","trueTheta":0.2,"classrooms":["A","B"],"studentTrueClassroom":"B","exampleSet":"second","trial_type":"survey-html-form","trial_index":202,"time_elapsed":1613505,"internal_node_id":"0.0-186.0-0.0","params":{"nStudents":24,"maxFlips":25,"completionMinutes":45,"basePay":8,"maxBonus":9,"perTrialBonus":0.5,"perTrialBonusThreshold":0.05,"exampleCost":0.02},"classroomParams":{"A":{"a":1,"b":4},"B":{"a":4,"b":1},"C":{"a":2,"b":8},"D":{"a":8,"b":2}},"conditions":["nonSeqFull","nonSeqPartial","seqNoFeedback","seqFeedback"],"classroomPairings":[["A","B"],["C","D"]],"coinWeights":[0.2,0.5,0.8],"subjectId":"A1FVXS8IM5QYO8","assignmentId":"3JWH6J9I9TZFJACSX135KLH6NUMBN1","hitId":"3XUY87HIVP03YZXVLN9CW37DVI1MM2","url":"https://gershmanlab.com/experiments/alicia/teaching/experiment/?hitId=3XUY87HIVP03YZXVLN9CW37DVI1MM2&workerId=A1FVXS8IM5QYO8&assignmentId=3JWH6J9I9TZFJACSX135KLH6NUMBN1&a=I6WJ3&tp_a=I6WJ3&b=3JWH6J9I9TZFJACSX135KLH6NUMBN1&tp_b=3JWH6J9I9TZFJACSX135KLH6NUMBN1&c=365633&tp_c=365633","firstResponseHeads":6,"firstResponseTails":6,"secondResponseHeads":4,"secondResponseTails":7,"totalHeads":10,"totalTails":13,"studentIndex":23,"studentTrueHypers":{"a":4,"b":1},"studentGuess":0.5,"delta":0.3,"bonus":0,"bonusSoFar":0.8,"totalExamples":23},{"rt":23126,"response":{"gender":"female","age":"56","understood":"yes","comments":"It was really interesting - thank you"},"type":"response","trial_type":"survey-html-form","trial_index":206,"time_elapsed":1643961,"internal_node_id":"0.0-191.0","params":{"nStudents":24,"maxFlips":25,"completionMinutes":45,"basePay":8,"maxBonus":9,"perTrialBonus":0.5,"perTrialBonusThreshold":0.05,"exampleCost":0.02},"classroomParams":{"A":{"a":1,"b":4},"B":{"a":4,"b":1},"C":{"a":2,"b":8},"D":{"a":8,"b":2}},"conditions":["nonSeqFull","nonSeqPartial","seqNoFeedback","seqFeedback"],"classroomPairings":[["A","B"],["C","D"]],"coinWeights":[0.2,0.5,0.8],"subjectId":"A1FVXS8IM5QYO8","assignmentId":"3JWH6J9I9TZFJACSX135KLH6NUMBN1","hitId":"3XUY87HIVP03YZXVLN9CW37DVI1MM2","url":"https://gershmanlab.com/experiments/alicia/teaching/experiment/?hitId=3XUY87HIVP03YZXVLN9CW37DVI1MM2&workerId=A1FVXS8IM5QYO8&assignmentId=3JWH6J9I9TZFJACSX135KLH6NUMBN1&a=I6WJ3&tp_a=I6WJ3&b=3JWH6J9I9TZFJACSX135KLH6NUMBN1&tp_b=3JWH6J9I9TZFJACSX135KLH6NUMBN1&c=365633&tp_c=365633","totalBonus":0.8}]