[{"rt":17423,"response":{"heads":"0","tails":"1"},"type":"response","condition":"nonSeqFull","trueTheta":0.5,"classrooms":["C","D"],"studentTrueClassroom":"D","exampleSet":"first","trial_type":"survey-html-form","trial_index":10,"time_elapsed":395526,"internal_node_id":"0.0-6.0-0.0","params":{"nStudents":24,"maxFlips":25,"completionMinutes":45,"basePay":8,"maxBonus":9,"perTrialBonus":0.5,"perTrialBonusThreshold":0.05,"exampleCost":0.02},"classroomParams":{"A":{"a":1,"b":4},"B":{"a":4,"b":1},"C":{"a":2,"b":8},"D":{"a":8,"b":2}},"conditions":["nonSeqFull","nonSeqPartial","seqNoFeedback","seqFeedback"],"classroomPairings":[["A","B"],["C","D"]],"coinWeights":[0.2,0.5,0.8],"subjectId":"A1I72NHC21347A","assignmentId":"3LO69W1SU4ZLMRHI1AF4844EYCEGLL","hitId":"39WICJI5ATE2BKO4UUUR86UGAV2Z3G","url":"https://gershmanlab.com/experiments/alicia/teaching/experiment/?hitId=39WICJI5ATE2BKO4UUUR86UGAV2Z3G&workerId=A1I72NHC21347A&assignmentId=3LO69W1SU4ZLMRHI1AF4844EYCEGLL&a=S9OL3&tp_a=S9OL3&b=3LO69W1SU4ZLMRHI1AF4844EYCEGLL&tp_b=3LO69W1SU4ZLMRHI1AF4844EYCEGLL&c=365633&tp_c=365633","heads":0,"tails":1,"studentIndex":0,"studentTrueHypers":{"a":8,"b":2},"studentGuess":0.7272727272727273,"delta":0.2272727272727273,"totalExamples":1,"bonus":0,"bonusSoFar":0},{"rt":21207,"response":{"heads":"0","tails":"3"},"type":"response","condition":"nonSeqPartial","trueTheta":0.2,"classrooms":["C","D"],"studentTrueClassroom":"C","exampleSet":"first","trial_type":"survey-html-form","trial_index":16,"time_elapsed":442797,"internal_node_id":"0.0-12.0-0.0","params":{"nStudents":24,"maxFlips":25,"completionMinutes":45,"basePay":8,"maxBonus":9,"perTrialBonus":0.5,"perTrialBonusThreshold":0.05,"exampleCost":0.02},"classroomParams":{"A":{"a":1,"b":4},"B":{"a":4,"b":1},"C":{"a":2,"b":8},"D":{"a":8,"b":2}},"conditions":["nonSeqFull","nonSeqPartial","seqNoFeedback","seqFeedback"],"classroomPairings":[["A","B"],["C","D"]],"coinWeights":[0.2,0.5,0.8],"subjectId":"A1I72NHC21347A","assignmentId":"3LO69W1SU4ZLMRHI1AF4844EYCEGLL","hitId":"39WICJI5ATE2BKO4UUUR86UGAV2Z3G","url":"https://gershmanlab.com/experiments/alicia/teaching/experiment/?hitId=39WICJI5ATE2BKO4UUUR86UGAV2Z3G&workerId=A1I72NHC21347A&assignmentId=3LO69W1SU4ZLMRHI1AF4844EYCEGLL&a=S9OL3&tp_a=S9OL3&b=3LO69W1SU4ZLMRHI1AF4844EYCEGLL&tp_b=3LO69W1SU4ZLMRHI1AF4844EYCEGLL&c=365633&tp_c=365633","heads":0,"tails":3,"studentIndex":1,"studentTrueHypers":{"a":2,"b":8},"studentGuess":0.15384615384615385,"delta":0.046153846153846156,"totalExamples":3,"bonus":0.44,"bonusSoFar":0.44},{"rt":11943,"response":{"heads":"4","tails":"4"},"type":"response","condition":"nonSeqPartial","trueTheta":0.5,"classrooms":["A","B"],"studentTrueClassroom":"B","exampleSet":"first","trial_type":"survey-html-form","trial_index":22,"time_elapsed":473428,"internal_node_id":"0.0-18.0-0.0","params":{"nStudents":24,"maxFlips":25,"completionMinutes":45,"basePay":8,"maxBonus":9,"perTrialBonus":0.5,"perTrialBonusThreshold":0.05,"exampleCost":0.02},"classroomParams":{"A":{"a":1,"b":4},"B":{"a":4,"b":1},"C":{"a":2,"b":8},"D":{"a":8,"b":2}},"conditions":["nonSeqFull","nonSeqPartial","seqNoFeedback","seqFeedback"],"classroomPairings":[["A","B"],["C","D"]],"coinWeights":[0.2,0.5,0.8],"subjectId":"A1I72NHC21347A","assignmentId":"3LO69W1SU4ZLMRHI1AF4844EYCEGLL","hitId":"39WICJI5ATE2BKO4UUUR86UGAV2Z3G","url":"https://gershmanlab.com/experiments/alicia/teaching/experiment/?hitId=39WICJI5ATE2BKO4UUUR86UGAV2Z3G&workerId=A1I72NHC21347A&assignmentId=3LO69W1SU4ZLMRHI1AF4844EYCEGLL&a=S9OL3&tp_a=S9OL3&b=3LO69W1SU4ZLMRHI1AF4844EYCEGLL&tp_b=3LO69W1SU4ZLMRHI1AF4844EYCEGLL&c=365633&tp_c=365633","heads":4,"tails":4,"studentIndex":2,"studentTrueHypers":{"a":4,"b":1},"studentGuess":0.6153846153846154,"delta":0.11538461538461542,"totalExamples":8,"bonus":0,"bonusSoFar":0.44},{"rt":8359,"response":{"heads":"3","tails":"3"},"type":"response","condition":"seqFeedback","trueTheta":0.5,"classrooms":["A","B"],"studentTrueClassroom":"B","exampleSet":"first","trial_type":"survey-html-form","trial_index":28,"time_elapsed":509749,"internal_node_id":"0.0-24.0-0.0","params":{"nStudents":24,"maxFlips":25,"completionMinutes":45,"basePay":8,"maxBonus":9,"perTrialBonus":0.5,"perTrialBonusThreshold":0.05,"exampleCost":0.02},"classroomParams":{"A":{"a":1,"b":4},"B":{"a":4,"b":1},"C":{"a":2,"b":8},"D":{"a":8,"b":2}},"conditions":["nonSeqFull","nonSeqPartial","seqNoFeedback","seqFeedback"],"classroomPairings":[["A","B"],["C","D"]],"coinWeights":[0.2,0.5,0.8],"subjectId":"A1I72NHC21347A","assignmentId":"3LO69W1SU4ZLMRHI1AF4844EYCEGLL","hitId":"39WICJI5ATE2BKO4UUUR86UGAV2Z3G","url":"https://gershmanlab.com/experiments/alicia/teaching/experiment/?hitId=39WICJI5ATE2BKO4UUUR86UGAV2Z3G&workerId=A1I72NHC21347A&assignmentId=3LO69W1SU4ZLMRHI1AF4844EYCEGLL&a=S9OL3&tp_a=S9OL3&b=3LO69W1SU4ZLMRHI1AF4844EYCEGLL&tp_b=3LO69W1SU4ZLMRHI1AF4844EYCEGLL&c=365633&tp_c=365633","heads":3,"tails":3,"studentIndex":3,"studentTrueHypers":{"a":4,"b":1},"studentGuess":0.6363636363636364,"delta":0.13636363636363635,"totalExamples":6,"bonusSoFar":0.44},{"rt":8378,"response":{"heads":"2","tails":"3"},"type":"response","condition":"seqFeedback","trueTheta":0.5,"classrooms":["A","B"],"studentTrueClassroom":"B","exampleSet":"second","trial_type":"survey-html-form","trial_index":32,"time_elapsed":529685,"internal_node_id":"0.0-28.0-0.0","params":{"nStudents":24,"maxFlips":25,"completionMinutes":45,"basePay":8,"maxBonus":9,"perTrialBonus":0.5,"perTrialBonusThreshold":0.05,"exampleCost":0.02},"classroomParams":{"A":{"a":1,"b":4},"B":{"a":4,"b":1},"C":{"a":2,"b":8},"D":{"a":8,"b":2}},"conditions":["nonSeqFull","nonSeqPartial","seqNoFeedback","seqFeedback"],"classroomPairings":[["A","B"],["C","D"]],"coinWeights":[0.2,0.5,0.8],"subjectId":"A1I72NHC21347A","assignmentId":"3LO69W1SU4ZLMRHI1AF4844EYCEGLL","hitId":"39WICJI5ATE2BKO4UUUR86UGAV2Z3G","url":"https://gershmanlab.com/experiments/alicia/teaching/experiment/?hitId=39WICJI5ATE2BKO4UUUR86UGAV2Z3G&workerId=A1I72NHC21347A&assignmentId=3LO69W1SU4ZLMRHI1AF4844EYCEGLL&a=S9OL3&tp_a=S9OL3&b=3LO69W1SU4ZLMRHI1AF4844EYCEGLL&tp_b=3LO69W1SU4ZLMRHI1AF4844EYCEGLL&c=365633&tp_c=365633","firstResponseHeads":3,"firstResponseTails":3,"secondResponseHeads":2,"secondResponseTails":3,"totalHeads":5,"totalTails":6,"studentIndex":3,"studentTrueHypers":{"a":4,"b":1},"studentGuess":0.5625,"delta":0.0625,"bonus":0,"bonusSoFar":0.44,"totalExamples":11},{"rt":3703,"response":{"heads":"0","tails":"3"},"type":"response","condition":"seqFeedback","trueTheta":0.2,"classrooms":["A","B"],"studentTrueClassroom":"B","exampleSet":"first","trial_type":"survey-html-form","trial_index":38,"time_elapsed":556037,"internal_node_id":"0.0-34.0-0.0","params":{"nStudents":24,"maxFlips":25,"completionMinutes":45,"basePay":8,"maxBonus":9,"perTrialBonus":0.5,"perTrialBonusThreshold":0.05,"exampleCost":0.02},"classroomParams":{"A":{"a":1,"b":4},"B":{"a":4,"b":1},"C":{"a":2,"b":8},"D":{"a":8,"b":2}},"conditions":["nonSeqFull","nonSeqPartial","seqNoFeedback","seqFeedback"],"classroomPairings":[["A","B"],["C","D"]],"coinWeights":[0.2,0.5,0.8],"subjectId":"A1I72NHC21347A","assignmentId":"3LO69W1SU4ZLMRHI1AF4844EYCEGLL","hitId":"39WICJI5ATE2BKO4UUUR86UGAV2Z3G","url":"https://gershmanlab.com/experiments/alicia/teaching/experiment/?hitId=39WICJI5ATE2BKO4UUUR86UGAV2Z3G&workerId=A1I72NHC21347A&assignmentId=3LO69W1SU4ZLMRHI1AF4844EYCEGLL&a=S9OL3&tp_a=S9OL3&b=3LO69W1SU4ZLMRHI1AF4844EYCEGLL&tp_b=3LO69W1SU4ZLMRHI1AF4844EYCEGLL&c=365633&tp_c=365633","heads":0,"tails":3,"studentIndex":4,"studentTrueHypers":{"a":4,"b":1},"studentGuess":0.5,"delta":0.3,"totalExamples":3,"bonusSoFar":0.44},{"rt":6419,"response":{"heads":"0","tails":"5"},"type":"response","condition":"seqFeedback","trueTheta":0.2,"classrooms":["A","B"],"studentTrueClassroom":"B","exampleSet":"second","trial_type":"survey-html-form","trial_index":42,"time_elapsed":572316,"internal_node_id":"0.0-38.0-0.0","params":{"nStudents":24,"maxFlips":25,"completionMinutes":45,"basePay":8,"maxBonus":9,"perTrialBonus":0.5,"perTrialBonusThreshold":0.05,"exampleCost":0.02},"classroomParams":{"A":{"a":1,"b":4},"B":{"a":4,"b":1},"C":{"a":2,"b":8},"D":{"a":8,"b":2}},"conditions":["nonSeqFull","nonSeqPartial","seqNoFeedback","seqFeedback"],"classroomPairings":[["A","B"],["C","D"]],"coinWeights":[0.2,0.5,0.8],"subjectId":"A1I72NHC21347A","assignmentId":"3LO69W1SU4ZLMRHI1AF4844EYCEGLL","hitId":"39WICJI5ATE2BKO4UUUR86UGAV2Z3G","url":"https://gershmanlab.com/experiments/alicia/teaching/experiment/?hitId=39WICJI5ATE2BKO4UUUR86UGAV2Z3G&workerId=A1I72NHC21347A&assignmentId=3LO69W1SU4ZLMRHI1AF4844EYCEGLL&a=S9OL3&tp_a=S9OL3&b=3LO69W1SU4ZLMRHI1AF4844EYCEGLL&tp_b=3LO69W1SU4ZLMRHI1AF4844EYCEGLL&c=365633&tp_c=365633","firstResponseHeads":0,"firstResponseTails":3,"secondResponseHeads":0,"secondResponseTails":5,"totalHeads":0,"totalTails":8,"studentIndex":4,"studentTrueHypers":{"a":4,"b":1},"studentGuess":0.3076923076923077,"delta":0.1076923076923077,"bonus":0,"bonusSoFar":0.44,"totalExamples":8},{"rt":7959,"response":{"heads":"4","tails":"0"},"type":"response","condition":"nonSeqFull","trueTheta":0.8,"classrooms":["A","B"],"studentTrueClassroom":"A","exampleSet":"first","trial_type":"survey-html-form","trial_index":48,"time_elapsed":598229,"internal_node_id":"0.0-44.0-0.0","params":{"nStudents":24,"maxFlips":25,"completionMinutes":45,"basePay":8,"maxBonus":9,"perTrialBonus":0.5,"perTrialBonusThreshold":0.05,"exampleCost":0.02},"classroomParams":{"A":{"a":1,"b":4},"B":{"a":4,"b":1},"C":{"a":2,"b":8},"D":{"a":8,"b":2}},"conditions":["nonSeqFull","nonSeqPartial","seqNoFeedback","seqFeedback"],"classroomPairings":[["A","B"],["C","D"]],"coinWeights":[0.2,0.5,0.8],"subjectId":"A1I72NHC21347A","assignmentId":"3LO69W1SU4ZLMRHI1AF4844EYCEGLL","hitId":"39WICJI5ATE2BKO4UUUR86UGAV2Z3G","url":"https://gershmanlab.com/experiments/alicia/teaching/experiment/?hitId=39WICJI5ATE2BKO4UUUR86UGAV2Z3G&workerId=A1I72NHC21347A&assignmentId=3LO69W1SU4ZLMRHI1AF4844EYCEGLL&a=S9OL3&tp_a=S9OL3&b=3LO69W1SU4ZLMRHI1AF4844EYCEGLL&tp_b=3LO69W1SU4ZLMRHI1AF4844EYCEGLL&c=365633&tp_c=365633","heads":4,"tails":0,"studentIndex":5,"studentTrueHypers":{"a":1,"b":4},"studentGuess":0.5555555555555556,"delta":0.24444444444444446,"totalExamples":4,"bonus":0,"bonusSoFar":0.44},{"rt":9111,"response":{"heads":"2","tails":"2"},"type":"response","condition":"seqNoFeedback","trueTheta":0.5,"classrooms":["C","D"],"studentTrueClassroom":"C","exampleSet":"first","trial_type":"survey-html-form","trial_index":54,"time_elapsed":620885,"internal_node_id":"0.0-50.0-0.0","params":{"nStudents":24,"maxFlips":25,"completionMinutes":45,"basePay":8,"maxBonus":9,"perTrialBonus":0.5,"perTrialBonusThreshold":0.05,"exampleCost":0.02},"classroomParams":{"A":{"a":1,"b":4},"B":{"a":4,"b":1},"C":{"a":2,"b":8},"D":{"a":8,"b":2}},"conditions":["nonSeqFull","nonSeqPartial","seqNoFeedback","seqFeedback"],"classroomPairings":[["A","B"],["C","D"]],"coinWeights":[0.2,0.5,0.8],"subjectId":"A1I72NHC21347A","assignmentId":"3LO69W1SU4ZLMRHI1AF4844EYCEGLL","hitId":"39WICJI5ATE2BKO4UUUR86UGAV2Z3G","url":"https://gershmanlab.com/experiments/alicia/teaching/experiment/?hitId=39WICJI5ATE2BKO4UUUR86UGAV2Z3G&workerId=A1I72NHC21347A&assignmentId=3LO69W1SU4ZLMRHI1AF4844EYCEGLL&a=S9OL3&tp_a=S9OL3&b=3LO69W1SU4ZLMRHI1AF4844EYCEGLL&tp_b=3LO69W1SU4ZLMRHI1AF4844EYCEGLL&c=365633&tp_c=365633","heads":2,"tails":2,"studentIndex":6,"studentTrueHypers":{"a":2,"b":8},"studentGuess":0.2857142857142857,"delta":0.2142857142857143,"totalExamples":4,"bonusSoFar":0.44},{"rt":10027,"response":{"heads":"1","tails":"1"},"type":"response","condition":"seqNoFeedback","trueTheta":0.5,"classrooms":["C","D"],"studentTrueClassroom":"C","exampleSet":"second","trial_type":"survey-html-form","trial_index":57,"time_elapsed":636421,"internal_node_id":"0.0-53.0-0.0","params":{"nStudents":24,"maxFlips":25,"completionMinutes":45,"basePay":8,"maxBonus":9,"perTrialBonus":0.5,"perTrialBonusThreshold":0.05,"exampleCost":0.02},"classroomParams":{"A":{"a":1,"b":4},"B":{"a":4,"b":1},"C":{"a":2,"b":8},"D":{"a":8,"b":2}},"conditions":["nonSeqFull","nonSeqPartial","seqNoFeedback","seqFeedback"],"classroomPairings":[["A","B"],["C","D"]],"coinWeights":[0.2,0.5,0.8],"subjectId":"A1I72NHC21347A","assignmentId":"3LO69W1SU4ZLMRHI1AF4844EYCEGLL","hitId":"39WICJI5ATE2BKO4UUUR86UGAV2Z3G","url":"https://gershmanlab.com/experiments/alicia/teaching/experiment/?hitId=39WICJI5ATE2BKO4UUUR86UGAV2Z3G&workerId=A1I72NHC21347A&assignmentId=3LO69W1SU4ZLMRHI1AF4844EYCEGLL&a=S9OL3&tp_a=S9OL3&b=3LO69W1SU4ZLMRHI1AF4844EYCEGLL&tp_b=3LO69W1SU4ZLMRHI1AF4844EYCEGLL&c=365633&tp_c=365633","firstResponseHeads":2,"firstResponseTails":2,"secondResponseHeads":1,"secondResponseTails":1,"totalHeads":3,"totalTails":3,"studentIndex":6,"studentTrueHypers":{"a":2,"b":8},"studentGuess":0.3125,"delta":0.1875,"bonus":0,"bonusSoFar":0.44,"totalExamples":6},{"rt":4031,"response":{"heads":"2","tails":"0"},"type":"response","condition":"seqNoFeedback","trueTheta":0.8,"classrooms":["A","B"],"studentTrueClassroom":"A","exampleSet":"first","trial_type":"survey-html-form","trial_index":63,"time_elapsed":657180,"internal_node_id":"0.0-59.0-0.0","params":{"nStudents":24,"maxFlips":25,"completionMinutes":45,"basePay":8,"maxBonus":9,"perTrialBonus":0.5,"perTrialBonusThreshold":0.05,"exampleCost":0.02},"classroomParams":{"A":{"a":1,"b":4},"B":{"a":4,"b":1},"C":{"a":2,"b":8},"D":{"a":8,"b":2}},"conditions":["nonSeqFull","nonSeqPartial","seqNoFeedback","seqFeedback"],"classroomPairings":[["A","B"],["C","D"]],"coinWeights":[0.2,0.5,0.8],"subjectId":"A1I72NHC21347A","assignmentId":"3LO69W1SU4ZLMRHI1AF4844EYCEGLL","hitId":"39WICJI5ATE2BKO4UUUR86UGAV2Z3G","url":"https://gershmanlab.com/experiments/alicia/teaching/experiment/?hitId=39WICJI5ATE2BKO4UUUR86UGAV2Z3G&workerId=A1I72NHC21347A&assignmentId=3LO69W1SU4ZLMRHI1AF4844EYCEGLL&a=S9OL3&tp_a=S9OL3&b=3LO69W1SU4ZLMRHI1AF4844EYCEGLL&tp_b=3LO69W1SU4ZLMRHI1AF4844EYCEGLL&c=365633&tp_c=365633","heads":2,"tails":0,"studentIndex":7,"studentTrueHypers":{"a":1,"b":4},"studentGuess":0.42857142857142855,"delta":0.3714285714285715,"totalExamples":2,"bonusSoFar":0.44},{"rt":4174,"response":{"heads":"2","tails":"0"},"type":"response","condition":"seqNoFeedback","trueTheta":0.8,"classrooms":["A","B"],"studentTrueClassroom":"A","exampleSet":"second","trial_type":"survey-html-form","trial_index":66,"time_elapsed":667380,"internal_node_id":"0.0-62.0-0.0","params":{"nStudents":24,"maxFlips":25,"completionMinutes":45,"basePay":8,"maxBonus":9,"perTrialBonus":0.5,"perTrialBonusThreshold":0.05,"exampleCost":0.02},"classroomParams":{"A":{"a":1,"b":4},"B":{"a":4,"b":1},"C":{"a":2,"b":8},"D":{"a":8,"b":2}},"conditions":["nonSeqFull","nonSeqPartial","seqNoFeedback","seqFeedback"],"classroomPairings":[["A","B"],["C","D"]],"coinWeights":[0.2,0.5,0.8],"subjectId":"A1I72NHC21347A","assignmentId":"3LO69W1SU4ZLMRHI1AF4844EYCEGLL","hitId":"39WICJI5ATE2BKO4UUUR86UGAV2Z3G","url":"https://gershmanlab.com/experiments/alicia/teaching/experiment/?hitId=39WICJI5ATE2BKO4UUUR86UGAV2Z3G&workerId=A1I72NHC21347A&assignmentId=3LO69W1SU4ZLMRHI1AF4844EYCEGLL&a=S9OL3&tp_a=S9OL3&b=3LO69W1SU4ZLMRHI1AF4844EYCEGLL&tp_b=3LO69W1SU4ZLMRHI1AF4844EYCEGLL&c=365633&tp_c=365633","firstResponseHeads":2,"firstResponseTails":0,"secondResponseHeads":2,"secondResponseTails":0,"totalHeads":4,"totalTails":0,"studentIndex":7,"studentTrueHypers":{"a":1,"b":4},"studentGuess":0.5555555555555556,"delta":0.24444444444444446,"bonus":0,"bonusSoFar":0.44,"totalExamples":4},{"rt":6271,"response":{"heads":"0","tails":"1"},"type":"response","condition":"seqFeedback","trueTheta":0.2,"classrooms":["C","D"],"studentTrueClassroom":"D","exampleSet":"first","trial_type":"survey-html-form","trial_index":72,"time_elapsed":689636,"internal_node_id":"0.0-68.0-0.0","params":{"nStudents":24,"maxFlips":25,"completionMinutes":45,"basePay":8,"maxBonus":9,"perTrialBonus":0.5,"perTrialBonusThreshold":0.05,"exampleCost":0.02},"classroomParams":{"A":{"a":1,"b":4},"B":{"a":4,"b":1},"C":{"a":2,"b":8},"D":{"a":8,"b":2}},"conditions":["nonSeqFull","nonSeqPartial","seqNoFeedback","seqFeedback"],"classroomPairings":[["A","B"],["C","D"]],"coinWeights":[0.2,0.5,0.8],"subjectId":"A1I72NHC21347A","assignmentId":"3LO69W1SU4ZLMRHI1AF4844EYCEGLL","hitId":"39WICJI5ATE2BKO4UUUR86UGAV2Z3G","url":"https://gershmanlab.com/experiments/alicia/teaching/experiment/?hitId=39WICJI5ATE2BKO4UUUR86UGAV2Z3G&workerId=A1I72NHC21347A&assignmentId=3LO69W1SU4ZLMRHI1AF4844EYCEGLL&a=S9OL3&tp_a=S9OL3&b=3LO69W1SU4ZLMRHI1AF4844EYCEGLL&tp_b=3LO69W1SU4ZLMRHI1AF4844EYCEGLL&c=365633&tp_c=365633","heads":0,"tails":1,"studentIndex":8,"studentTrueHypers":{"a":8,"b":2},"studentGuess":0.7272727272727273,"delta":0.5272727272727273,"totalExamples":1,"bonusSoFar":0.44},{"rt":5918,"response":{"heads":"0","tails":"1"},"type":"response","condition":"seqFeedback","trueTheta":0.2,"classrooms":["C","D"],"studentTrueClassroom":"D","exampleSet":"second","trial_type":"survey-html-form","trial_index":76,"time_elapsed":707236,"internal_node_id":"0.0-72.0-0.0","params":{"nStudents":24,"maxFlips":25,"completionMinutes":45,"basePay":8,"maxBonus":9,"perTrialBonus":0.5,"perTrialBonusThreshold":0.05,"exampleCost":0.02},"classroomParams":{"A":{"a":1,"b":4},"B":{"a":4,"b":1},"C":{"a":2,"b":8},"D":{"a":8,"b":2}},"conditions":["nonSeqFull","nonSeqPartial","seqNoFeedback","seqFeedback"],"classroomPairings":[["A","B"],["C","D"]],"coinWeights":[0.2,0.5,0.8],"subjectId":"A1I72NHC21347A","assignmentId":"3LO69W1SU4ZLMRHI1AF4844EYCEGLL","hitId":"39WICJI5ATE2BKO4UUUR86UGAV2Z3G","url":"https://gershmanlab.com/experiments/alicia/teaching/experiment/?hitId=39WICJI5ATE2BKO4UUUR86UGAV2Z3G&workerId=A1I72NHC21347A&assignmentId=3LO69W1SU4ZLMRHI1AF4844EYCEGLL&a=S9OL3&tp_a=S9OL3&b=3LO69W1SU4ZLMRHI1AF4844EYCEGLL&tp_b=3LO69W1SU4ZLMRHI1AF4844EYCEGLL&c=365633&tp_c=365633","firstResponseHeads":0,"firstResponseTails":1,"secondResponseHeads":0,"secondResponseTails":1,"totalHeads":0,"totalTails":2,"studentIndex":8,"studentTrueHypers":{"a":8,"b":2},"studentGuess":0.6666666666666666,"delta":0.4666666666666666,"bonus":0,"bonusSoFar":0.44,"totalExamples":2},{"rt":2342,"response":{"heads":"0","tails":"1"},"type":"response","condition":"nonSeqPartial","trueTheta":0.2,"classrooms":["A","B"],"studentTrueClassroom":"B","exampleSet":"first","trial_type":"survey-html-form","trial_index":82,"time_elapsed":723708,"internal_node_id":"0.0-78.0-0.0","params":{"nStudents":24,"maxFlips":25,"completionMinutes":45,"basePay":8,"maxBonus":9,"perTrialBonus":0.5,"perTrialBonusThreshold":0.05,"exampleCost":0.02},"classroomParams":{"A":{"a":1,"b":4},"B":{"a":4,"b":1},"C":{"a":2,"b":8},"D":{"a":8,"b":2}},"conditions":["nonSeqFull","nonSeqPartial","seqNoFeedback","seqFeedback"],"classroomPairings":[["A","B"],["C","D"]],"coinWeights":[0.2,0.5,0.8],"subjectId":"A1I72NHC21347A","assignmentId":"3LO69W1SU4ZLMRHI1AF4844EYCEGLL","hitId":"39WICJI5ATE2BKO4UUUR86UGAV2Z3G","url":"https://gershmanlab.com/experiments/alicia/teaching/experiment/?hitId=39WICJI5ATE2BKO4UUUR86UGAV2Z3G&workerId=A1I72NHC21347A&assignmentId=3LO69W1SU4ZLMRHI1AF4844EYCEGLL&a=S9OL3&tp_a=S9OL3&b=3LO69W1SU4ZLMRHI1AF4844EYCEGLL&tp_b=3LO69W1SU4ZLMRHI1AF4844EYCEGLL&c=365633&tp_c=365633","heads":0,"tails":1,"studentIndex":9,"studentTrueHypers":{"a":4,"b":1},"studentGuess":0.6666666666666666,"delta":0.4666666666666666,"totalExamples":1,"bonus":0,"bonusSoFar":0.44},{"rt":3904,"response":{"heads":"2","tails":"0"},"type":"response","condition":"seqFeedback","trueTheta":0.8,"classrooms":["A","B"],"studentTrueClassroom":"B","exampleSet":"first","trial_type":"survey-html-form","trial_index":88,"time_elapsed":742588,"internal_node_id":"0.0-84.0-0.0","params":{"nStudents":24,"maxFlips":25,"completionMinutes":45,"basePay":8,"maxBonus":9,"perTrialBonus":0.5,"perTrialBonusThreshold":0.05,"exampleCost":0.02},"classroomParams":{"A":{"a":1,"b":4},"B":{"a":4,"b":1},"C":{"a":2,"b":8},"D":{"a":8,"b":2}},"conditions":["nonSeqFull","nonSeqPartial","seqNoFeedback","seqFeedback"],"classroomPairings":[["A","B"],["C","D"]],"coinWeights":[0.2,0.5,0.8],"subjectId":"A1I72NHC21347A","assignmentId":"3LO69W1SU4ZLMRHI1AF4844EYCEGLL","hitId":"39WICJI5ATE2BKO4UUUR86UGAV2Z3G","url":"https://gershmanlab.com/experiments/alicia/teaching/experiment/?hitId=39WICJI5ATE2BKO4UUUR86UGAV2Z3G&workerId=A1I72NHC21347A&assignmentId=3LO69W1SU4ZLMRHI1AF4844EYCEGLL&a=S9OL3&tp_a=S9OL3&b=3LO69W1SU4ZLMRHI1AF4844EYCEGLL&tp_b=3LO69W1SU4ZLMRHI1AF4844EYCEGLL&c=365633&tp_c=365633","heads":2,"tails":0,"studentIndex":10,"studentTrueHypers":{"a":4,"b":1},"studentGuess":0.8571428571428571,"delta":0.05714285714285705,"totalExamples":2,"bonusSoFar":0.44},{"rt":5611,"response":{"heads":"2","tails":"0"},"type":"response","condition":"seqFeedback","trueTheta":0.8,"classrooms":["A","B"],"studentTrueClassroom":"B","exampleSet":"second","trial_type":"survey-html-form","trial_index":92,"time_elapsed":760156,"internal_node_id":"0.0-88.0-0.0","params":{"nStudents":24,"maxFlips":25,"completionMinutes":45,"basePay":8,"maxBonus":9,"perTrialBonus":0.5,"perTrialBonusThreshold":0.05,"exampleCost":0.02},"classroomParams":{"A":{"a":1,"b":4},"B":{"a":4,"b":1},"C":{"a":2,"b":8},"D":{"a":8,"b":2}},"conditions":["nonSeqFull","nonSeqPartial","seqNoFeedback","seqFeedback"],"classroomPairings":[["A","B"],["C","D"]],"coinWeights":[0.2,0.5,0.8],"subjectId":"A1I72NHC21347A","assignmentId":"3LO69W1SU4ZLMRHI1AF4844EYCEGLL","hitId":"39WICJI5ATE2BKO4UUUR86UGAV2Z3G","url":"https://gershmanlab.com/experiments/alicia/teaching/experiment/?hitId=39WICJI5ATE2BKO4UUUR86UGAV2Z3G&workerId=A1I72NHC21347A&assignmentId=3LO69W1SU4ZLMRHI1AF4844EYCEGLL&a=S9OL3&tp_a=S9OL3&b=3LO69W1SU4ZLMRHI1AF4844EYCEGLL&tp_b=3LO69W1SU4ZLMRHI1AF4844EYCEGLL&c=365633&tp_c=365633","firstResponseHeads":2,"firstResponseTails":0,"secondResponseHeads":2,"secondResponseTails":0,"totalHeads":4,"totalTails":0,"studentIndex":10,"studentTrueHypers":{"a":4,"b":1},"studentGuess":0.8888888888888888,"delta":0.0888888888888888,"bonus":0,"bonusSoFar":0.44,"totalExamples":4},{"rt":2783,"response":{"heads":"0","tails":"2"},"type":"response","condition":"seqNoFeedback","trueTheta":0.2,"classrooms":["A","B"],"studentTrueClassroom":"A","exampleSet":"first","trial_type":"survey-html-form","trial_index":98,"time_elapsed":777116,"internal_node_id":"0.0-94.0-0.0","params":{"nStudents":24,"maxFlips":25,"completionMinutes":45,"basePay":8,"maxBonus":9,"perTrialBonus":0.5,"perTrialBonusThreshold":0.05,"exampleCost":0.02},"classroomParams":{"A":{"a":1,"b":4},"B":{"a":4,"b":1},"C":{"a":2,"b":8},"D":{"a":8,"b":2}},"conditions":["nonSeqFull","nonSeqPartial","seqNoFeedback","seqFeedback"],"classroomPairings":[["A","B"],["C","D"]],"coinWeights":[0.2,0.5,0.8],"subjectId":"A1I72NHC21347A","assignmentId":"3LO69W1SU4ZLMRHI1AF4844EYCEGLL","hitId":"39WICJI5ATE2BKO4UUUR86UGAV2Z3G","url":"https://gershmanlab.com/experiments/alicia/teaching/experiment/?hitId=39WICJI5ATE2BKO4UUUR86UGAV2Z3G&workerId=A1I72NHC21347A&assignmentId=3LO69W1SU4ZLMRHI1AF4844EYCEGLL&a=S9OL3&tp_a=S9OL3&b=3LO69W1SU4ZLMRHI1AF4844EYCEGLL&tp_b=3LO69W1SU4ZLMRHI1AF4844EYCEGLL&c=365633&tp_c=365633","heads":0,"tails":2,"studentIndex":11,"studentTrueHypers":{"a":1,"b":4},"studentGuess":0.14285714285714285,"delta":0.05714285714285716,"totalExamples":2,"bonusSoFar":0.44},{"rt":4914,"response":{"heads":"0","tails":"4"},"type":"response","condition":"seqNoFeedback","trueTheta":0.2,"classrooms":["A","B"],"studentTrueClassroom":"A","exampleSet":"second","trial_type":"survey-html-form","trial_index":101,"time_elapsed":789300,"internal_node_id":"0.0-97.0-0.0","params":{"nStudents":24,"maxFlips":25,"completionMinutes":45,"basePay":8,"maxBonus":9,"perTrialBonus":0.5,"perTrialBonusThreshold":0.05,"exampleCost":0.02},"classroomParams":{"A":{"a":1,"b":4},"B":{"a":4,"b":1},"C":{"a":2,"b":8},"D":{"a":8,"b":2}},"conditions":["nonSeqFull","nonSeqPartial","seqNoFeedback","seqFeedback"],"classroomPairings":[["A","B"],["C","D"]],"coinWeights":[0.2,0.5,0.8],"subjectId":"A1I72NHC21347A","assignmentId":"3LO69W1SU4ZLMRHI1AF4844EYCEGLL","hitId":"39WICJI5ATE2BKO4UUUR86UGAV2Z3G","url":"https://gershmanlab.com/experiments/alicia/teaching/experiment/?hitId=39WICJI5ATE2BKO4UUUR86UGAV2Z3G&workerId=A1I72NHC21347A&assignmentId=3LO69W1SU4ZLMRHI1AF4844EYCEGLL&a=S9OL3&tp_a=S9OL3&b=3LO69W1SU4ZLMRHI1AF4844EYCEGLL&tp_b=3LO69W1SU4ZLMRHI1AF4844EYCEGLL&c=365633&tp_c=365633","firstResponseHeads":0,"firstResponseTails":2,"secondResponseHeads":0,"secondResponseTails":4,"totalHeads":0,"totalTails":6,"studentIndex":11,"studentTrueHypers":{"a":1,"b":4},"studentGuess":0.09090909090909091,"delta":0.1090909090909091,"bonus":0,"bonusSoFar":0.44,"totalExamples":6},{"rt":4975,"response":{"heads":"0","tails":"5"},"type":"response","condition":"seqNoFeedback","trueTheta":0.2,"classrooms":["C","D"],"studentTrueClassroom":"C","exampleSet":"first","trial_type":"survey-html-form","trial_index":107,"time_elapsed":809884,"internal_node_id":"0.0-103.0-0.0","params":{"nStudents":24,"maxFlips":25,"completionMinutes":45,"basePay":8,"maxBonus":9,"perTrialBonus":0.5,"perTrialBonusThreshold":0.05,"exampleCost":0.02},"classroomParams":{"A":{"a":1,"b":4},"B":{"a":4,"b":1},"C":{"a":2,"b":8},"D":{"a":8,"b":2}},"conditions":["nonSeqFull","nonSeqPartial","seqNoFeedback","seqFeedback"],"classroomPairings":[["A","B"],["C","D"]],"coinWeights":[0.2,0.5,0.8],"subjectId":"A1I72NHC21347A","assignmentId":"3LO69W1SU4ZLMRHI1AF4844EYCEGLL","hitId":"39WICJI5ATE2BKO4UUUR86UGAV2Z3G","url":"https://gershmanlab.com/experiments/alicia/teaching/experiment/?hitId=39WICJI5ATE2BKO4UUUR86UGAV2Z3G&workerId=A1I72NHC21347A&assignmentId=3LO69W1SU4ZLMRHI1AF4844EYCEGLL&a=S9OL3&tp_a=S9OL3&b=3LO69W1SU4ZLMRHI1AF4844EYCEGLL&tp_b=3LO69W1SU4ZLMRHI1AF4844EYCEGLL&c=365633&tp_c=365633","heads":0,"tails":5,"studentIndex":12,"studentTrueHypers":{"a":2,"b":8},"studentGuess":0.13333333333333333,"delta":0.06666666666666668,"totalExamples":5,"bonusSoFar":0.44},{"rt":6423,"response":{"heads":"0","tails":"5"},"type":"response","condition":"seqNoFeedback","trueTheta":0.2,"classrooms":["C","D"],"studentTrueClassroom":"C","exampleSet":"second","trial_type":"survey-html-form","trial_index":110,"time_elapsed":821812,"internal_node_id":"0.0-106.0-0.0","params":{"nStudents":24,"maxFlips":25,"completionMinutes":45,"basePay":8,"maxBonus":9,"perTrialBonus":0.5,"perTrialBonusThreshold":0.05,"exampleCost":0.02},"classroomParams":{"A":{"a":1,"b":4},"B":{"a":4,"b":1},"C":{"a":2,"b":8},"D":{"a":8,"b":2}},"conditions":["nonSeqFull","nonSeqPartial","seqNoFeedback","seqFeedback"],"classroomPairings":[["A","B"],["C","D"]],"coinWeights":[0.2,0.5,0.8],"subjectId":"A1I72NHC21347A","assignmentId":"3LO69W1SU4ZLMRHI1AF4844EYCEGLL","hitId":"39WICJI5ATE2BKO4UUUR86UGAV2Z3G","url":"https://gershmanlab.com/experiments/alicia/teaching/experiment/?hitId=39WICJI5ATE2BKO4UUUR86UGAV2Z3G&workerId=A1I72NHC21347A&assignmentId=3LO69W1SU4ZLMRHI1AF4844EYCEGLL&a=S9OL3&tp_a=S9OL3&b=3LO69W1SU4ZLMRHI1AF4844EYCEGLL&tp_b=3LO69W1SU4ZLMRHI1AF4844EYCEGLL&c=365633&tp_c=365633","firstResponseHeads":0,"firstResponseTails":5,"secondResponseHeads":0,"secondResponseTails":5,"totalHeads":0,"totalTails":10,"studentIndex":12,"studentTrueHypers":{"a":2,"b":8},"studentGuess":0.1,"delta":0.1,"bonus":0,"bonusSoFar":0.44,"totalExamples":10},{"rt":4047,"response":{"heads":"3","tails":"3"},"type":"response","condition":"nonSeqPartial","trueTheta":0.5,"classrooms":["C","D"],"studentTrueClassroom":"D","exampleSet":"first","trial_type":"survey-html-form","trial_index":116,"time_elapsed":840220,"internal_node_id":"0.0-112.0-0.0","params":{"nStudents":24,"maxFlips":25,"completionMinutes":45,"basePay":8,"maxBonus":9,"perTrialBonus":0.5,"perTrialBonusThreshold":0.05,"exampleCost":0.02},"classroomParams":{"A":{"a":1,"b":4},"B":{"a":4,"b":1},"C":{"a":2,"b":8},"D":{"a":8,"b":2}},"conditions":["nonSeqFull","nonSeqPartial","seqNoFeedback","seqFeedback"],"classroomPairings":[["A","B"],["C","D"]],"coinWeights":[0.2,0.5,0.8],"subjectId":"A1I72NHC21347A","assignmentId":"3LO69W1SU4ZLMRHI1AF4844EYCEGLL","hitId":"39WICJI5ATE2BKO4UUUR86UGAV2Z3G","url":"https://gershmanlab.com/experiments/alicia/teaching/experiment/?hitId=39WICJI5ATE2BKO4UUUR86UGAV2Z3G&workerId=A1I72NHC21347A&assignmentId=3LO69W1SU4ZLMRHI1AF4844EYCEGLL&a=S9OL3&tp_a=S9OL3&b=3LO69W1SU4ZLMRHI1AF4844EYCEGLL&tp_b=3LO69W1SU4ZLMRHI1AF4844EYCEGLL&c=365633&tp_c=365633","heads":3,"tails":3,"studentIndex":13,"studentTrueHypers":{"a":8,"b":2},"studentGuess":0.6875,"delta":0.1875,"totalExamples":6,"bonus":0,"bonusSoFar":0.44},{"rt":3407,"response":{"heads":"4","tails":"0"},"type":"response","condition":"nonSeqPartial","trueTheta":0.8,"classrooms":["A","B"],"studentTrueClassroom":"B","exampleSet":"first","trial_type":"survey-html-form","trial_index":122,"time_elapsed":855867,"internal_node_id":"0.0-118.0-0.0","params":{"nStudents":24,"maxFlips":25,"completionMinutes":45,"basePay":8,"maxBonus":9,"perTrialBonus":0.5,"perTrialBonusThreshold":0.05,"exampleCost":0.02},"classroomParams":{"A":{"a":1,"b":4},"B":{"a":4,"b":1},"C":{"a":2,"b":8},"D":{"a":8,"b":2}},"conditions":["nonSeqFull","nonSeqPartial","seqNoFeedback","seqFeedback"],"classroomPairings":[["A","B"],["C","D"]],"coinWeights":[0.2,0.5,0.8],"subjectId":"A1I72NHC21347A","assignmentId":"3LO69W1SU4ZLMRHI1AF4844EYCEGLL","hitId":"39WICJI5ATE2BKO4UUUR86UGAV2Z3G","url":"https://gershmanlab.com/experiments/alicia/teaching/experiment/?hitId=39WICJI5ATE2BKO4UUUR86UGAV2Z3G&workerId=A1I72NHC21347A&assignmentId=3LO69W1SU4ZLMRHI1AF4844EYCEGLL&a=S9OL3&tp_a=S9OL3&b=3LO69W1SU4ZLMRHI1AF4844EYCEGLL&tp_b=3LO69W1SU4ZLMRHI1AF4844EYCEGLL&c=365633&tp_c=365633","heads":4,"tails":0,"studentIndex":14,"studentTrueHypers":{"a":4,"b":1},"studentGuess":0.8888888888888888,"delta":0.0888888888888888,"totalExamples":4,"bonus":0,"bonusSoFar":0.44},{"rt":3887,"response":{"heads":"2","tails":"2"},"type":"response","condition":"seqFeedback","trueTheta":0.5,"classrooms":["C","D"],"studentTrueClassroom":"D","exampleSet":"first","trial_type":"survey-html-form","trial_index":128,"time_elapsed":870275,"internal_node_id":"0.0-124.0-0.0","params":{"nStudents":24,"maxFlips":25,"completionMinutes":45,"basePay":8,"maxBonus":9,"perTrialBonus":0.5,"perTrialBonusThreshold":0.05,"exampleCost":0.02},"classroomParams":{"A":{"a":1,"b":4},"B":{"a":4,"b":1},"C":{"a":2,"b":8},"D":{"a":8,"b":2}},"conditions":["nonSeqFull","nonSeqPartial","seqNoFeedback","seqFeedback"],"classroomPairings":[["A","B"],["C","D"]],"coinWeights":[0.2,0.5,0.8],"subjectId":"A1I72NHC21347A","assignmentId":"3LO69W1SU4ZLMRHI1AF4844EYCEGLL","hitId":"39WICJI5ATE2BKO4UUUR86UGAV2Z3G","url":"https://gershmanlab.com/experiments/alicia/teaching/experiment/?hitId=39WICJI5ATE2BKO4UUUR86UGAV2Z3G&workerId=A1I72NHC21347A&assignmentId=3LO69W1SU4ZLMRHI1AF4844EYCEGLL&a=S9OL3&tp_a=S9OL3&b=3LO69W1SU4ZLMRHI1AF4844EYCEGLL&tp_b=3LO69W1SU4ZLMRHI1AF4844EYCEGLL&c=365633&tp_c=365633","heads":2,"tails":2,"studentIndex":15,"studentTrueHypers":{"a":8,"b":2},"studentGuess":0.7142857142857143,"delta":0.2142857142857143,"totalExamples":4,"bonusSoFar":0.44},{"rt":4940,"response":{"heads":"1","tails":"1"},"type":"response","condition":"seqFeedback","trueTheta":0.5,"classrooms":["C","D"],"studentTrueClassroom":"D","exampleSet":"second","trial_type":"survey-html-form","trial_index":132,"time_elapsed":883195,"internal_node_id":"0.0-128.0-0.0","params":{"nStudents":24,"maxFlips":25,"completionMinutes":45,"basePay":8,"maxBonus":9,"perTrialBonus":0.5,"perTrialBonusThreshold":0.05,"exampleCost":0.02},"classroomParams":{"A":{"a":1,"b":4},"B":{"a":4,"b":1},"C":{"a":2,"b":8},"D":{"a":8,"b":2}},"conditions":["nonSeqFull","nonSeqPartial","seqNoFeedback","seqFeedback"],"classroomPairings":[["A","B"],["C","D"]],"coinWeights":[0.2,0.5,0.8],"subjectId":"A1I72NHC21347A","assignmentId":"3LO69W1SU4ZLMRHI1AF4844EYCEGLL","hitId":"39WICJI5ATE2BKO4UUUR86UGAV2Z3G","url":"https://gershmanlab.com/experiments/alicia/teaching/experiment/?hitId=39WICJI5ATE2BKO4UUUR86UGAV2Z3G&workerId=A1I72NHC21347A&assignmentId=3LO69W1SU4ZLMRHI1AF4844EYCEGLL&a=S9OL3&tp_a=S9OL3&b=3LO69W1SU4ZLMRHI1AF4844EYCEGLL&tp_b=3LO69W1SU4ZLMRHI1AF4844EYCEGLL&c=365633&tp_c=365633","firstResponseHeads":2,"firstResponseTails":2,"secondResponseHeads":1,"secondResponseTails":1,"totalHeads":3,"totalTails":3,"studentIndex":15,"studentTrueHypers":{"a":8,"b":2},"studentGuess":0.6875,"delta":0.1875,"bonus":0,"bonusSoFar":0.44,"totalExamples":6},{"rt":4935,"response":{"heads":"8","tails":"0"},"type":"response","condition":"nonSeqPartial","trueTheta":0.8,"classrooms":["C","D"],"studentTrueClassroom":"D","exampleSet":"first","trial_type":"survey-html-form","trial_index":138,"time_elapsed":902715,"internal_node_id":"0.0-134.0-0.0","params":{"nStudents":24,"maxFlips":25,"completionMinutes":45,"basePay":8,"maxBonus":9,"perTrialBonus":0.5,"perTrialBonusThreshold":0.05,"exampleCost":0.02},"classroomParams":{"A":{"a":1,"b":4},"B":{"a":4,"b":1},"C":{"a":2,"b":8},"D":{"a":8,"b":2}},"conditions":["nonSeqFull","nonSeqPartial","seqNoFeedback","seqFeedback"],"classroomPairings":[["A","B"],["C","D"]],"coinWeights":[0.2,0.5,0.8],"subjectId":"A1I72NHC21347A","assignmentId":"3LO69W1SU4ZLMRHI1AF4844EYCEGLL","hitId":"39WICJI5ATE2BKO4UUUR86UGAV2Z3G","url":"https://gershmanlab.com/experiments/alicia/teaching/experiment/?hitId=39WICJI5ATE2BKO4UUUR86UGAV2Z3G&workerId=A1I72NHC21347A&assignmentId=3LO69W1SU4ZLMRHI1AF4844EYCEGLL&a=S9OL3&tp_a=S9OL3&b=3LO69W1SU4ZLMRHI1AF4844EYCEGLL&tp_b=3LO69W1SU4ZLMRHI1AF4844EYCEGLL&c=365633&tp_c=365633","heads":8,"tails":0,"studentIndex":16,"studentTrueHypers":{"a":8,"b":2},"studentGuess":0.8888888888888888,"delta":0.0888888888888888,"totalExamples":8,"bonus":0,"bonusSoFar":0.44},{"rt":4903,"response":{"heads":"0","tails":"6"},"type":"response","condition":"nonSeqFull","trueTheta":0.2,"classrooms":["A","B"],"studentTrueClassroom":"B","exampleSet":"first","trial_type":"survey-html-form","trial_index":144,"time_elapsed":922683,"internal_node_id":"0.0-140.0-0.0","params":{"nStudents":24,"maxFlips":25,"completionMinutes":45,"basePay":8,"maxBonus":9,"perTrialBonus":0.5,"perTrialBonusThreshold":0.05,"exampleCost":0.02},"classroomParams":{"A":{"a":1,"b":4},"B":{"a":4,"b":1},"C":{"a":2,"b":8},"D":{"a":8,"b":2}},"conditions":["nonSeqFull","nonSeqPartial","seqNoFeedback","seqFeedback"],"classroomPairings":[["A","B"],["C","D"]],"coinWeights":[0.2,0.5,0.8],"subjectId":"A1I72NHC21347A","assignmentId":"3LO69W1SU4ZLMRHI1AF4844EYCEGLL","hitId":"39WICJI5ATE2BKO4UUUR86UGAV2Z3G","url":"https://gershmanlab.com/experiments/alicia/teaching/experiment/?hitId=39WICJI5ATE2BKO4UUUR86UGAV2Z3G&workerId=A1I72NHC21347A&assignmentId=3LO69W1SU4ZLMRHI1AF4844EYCEGLL&a=S9OL3&tp_a=S9OL3&b=3LO69W1SU4ZLMRHI1AF4844EYCEGLL&tp_b=3LO69W1SU4ZLMRHI1AF4844EYCEGLL&c=365633&tp_c=365633","heads":0,"tails":6,"studentIndex":17,"studentTrueHypers":{"a":4,"b":1},"studentGuess":0.36363636363636365,"delta":0.16363636363636364,"totalExamples":6,"bonus":0,"bonusSoFar":0.44},{"rt":7503,"response":{"heads":"7","tails":"0"},"type":"response","condition":"seqFeedback","trueTheta":0.8,"classrooms":["C","D"],"studentTrueClassroom":"C","exampleSet":"first","trial_type":"survey-html-form","trial_index":150,"time_elapsed":944723,"internal_node_id":"0.0-146.0-0.0","params":{"nStudents":24,"maxFlips":25,"completionMinutes":45,"basePay":8,"maxBonus":9,"perTrialBonus":0.5,"perTrialBonusThreshold":0.05,"exampleCost":0.02},"classroomParams":{"A":{"a":1,"b":4},"B":{"a":4,"b":1},"C":{"a":2,"b":8},"D":{"a":8,"b":2}},"conditions":["nonSeqFull","nonSeqPartial","seqNoFeedback","seqFeedback"],"classroomPairings":[["A","B"],["C","D"]],"coinWeights":[0.2,0.5,0.8],"subjectId":"A1I72NHC21347A","assignmentId":"3LO69W1SU4ZLMRHI1AF4844EYCEGLL","hitId":"39WICJI5ATE2BKO4UUUR86UGAV2Z3G","url":"https://gershmanlab.com/experiments/alicia/teaching/experiment/?hitId=39WICJI5ATE2BKO4UUUR86UGAV2Z3G&workerId=A1I72NHC21347A&assignmentId=3LO69W1SU4ZLMRHI1AF4844EYCEGLL&a=S9OL3&tp_a=S9OL3&b=3LO69W1SU4ZLMRHI1AF4844EYCEGLL&tp_b=3LO69W1SU4ZLMRHI1AF4844EYCEGLL&c=365633&tp_c=365633","heads":7,"tails":0,"studentIndex":18,"studentTrueHypers":{"a":2,"b":8},"studentGuess":0.5294117647058824,"delta":0.2705882352941177,"totalExamples":7,"bonusSoFar":0.44},{"rt":7095,"response":{"heads":"10","tails":"0"},"type":"response","condition":"seqFeedback","trueTheta":0.8,"classrooms":["C","D"],"studentTrueClassroom":"C","exampleSet":"second","trial_type":"survey-html-form","trial_index":154,"time_elapsed":962995,"internal_node_id":"0.0-150.0-0.0","params":{"nStudents":24,"maxFlips":25,"completionMinutes":45,"basePay":8,"maxBonus":9,"perTrialBonus":0.5,"perTrialBonusThreshold":0.05,"exampleCost":0.02},"classroomParams":{"A":{"a":1,"b":4},"B":{"a":4,"b":1},"C":{"a":2,"b":8},"D":{"a":8,"b":2}},"conditions":["nonSeqFull","nonSeqPartial","seqNoFeedback","seqFeedback"],"classroomPairings":[["A","B"],["C","D"]],"coinWeights":[0.2,0.5,0.8],"subjectId":"A1I72NHC21347A","assignmentId":"3LO69W1SU4ZLMRHI1AF4844EYCEGLL","hitId":"39WICJI5ATE2BKO4UUUR86UGAV2Z3G","url":"https://gershmanlab.com/experiments/alicia/teaching/experiment/?hitId=39WICJI5ATE2BKO4UUUR86UGAV2Z3G&workerId=A1I72NHC21347A&assignmentId=3LO69W1SU4ZLMRHI1AF4844EYCEGLL&a=S9OL3&tp_a=S9OL3&b=3LO69W1SU4ZLMRHI1AF4844EYCEGLL&tp_b=3LO69W1SU4ZLMRHI1AF4844EYCEGLL&c=365633&tp_c=365633","firstResponseHeads":7,"firstResponseTails":0,"secondResponseHeads":10,"secondResponseTails":0,"totalHeads":17,"totalTails":0,"studentIndex":18,"studentTrueHypers":{"a":2,"b":8},"studentGuess":0.7037037037037037,"delta":0.09629629629629632,"bonus":0,"bonusSoFar":0.44,"totalExamples":17},{"rt":5687,"response":{"heads":"0","tails":"10"},"type":"response","condition":"nonSeqFull","trueTheta":0.2,"classrooms":["C","D"],"studentTrueClassroom":"D","exampleSet":"first","trial_type":"survey-html-form","trial_index":160,"time_elapsed":983643,"internal_node_id":"0.0-156.0-0.0","params":{"nStudents":24,"maxFlips":25,"completionMinutes":45,"basePay":8,"maxBonus":9,"perTrialBonus":0.5,"perTrialBonusThreshold":0.05,"exampleCost":0.02},"classroomParams":{"A":{"a":1,"b":4},"B":{"a":4,"b":1},"C":{"a":2,"b":8},"D":{"a":8,"b":2}},"conditions":["nonSeqFull","nonSeqPartial","seqNoFeedback","seqFeedback"],"classroomPairings":[["A","B"],["C","D"]],"coinWeights":[0.2,0.5,0.8],"subjectId":"A1I72NHC21347A","assignmentId":"3LO69W1SU4ZLMRHI1AF4844EYCEGLL","hitId":"39WICJI5ATE2BKO4UUUR86UGAV2Z3G","url":"https://gershmanlab.com/experiments/alicia/teaching/experiment/?hitId=39WICJI5ATE2BKO4UUUR86UGAV2Z3G&workerId=A1I72NHC21347A&assignmentId=3LO69W1SU4ZLMRHI1AF4844EYCEGLL&a=S9OL3&tp_a=S9OL3&b=3LO69W1SU4ZLMRHI1AF4844EYCEGLL&tp_b=3LO69W1SU4ZLMRHI1AF4844EYCEGLL&c=365633&tp_c=365633","heads":0,"tails":10,"studentIndex":19,"studentTrueHypers":{"a":8,"b":2},"studentGuess":0.4,"delta":0.2,"totalExamples":10,"bonus":0,"bonusSoFar":0.44},{"rt":5295,"response":{"heads":"12","tails":"0"},"type":"response","condition":"nonSeqFull","trueTheta":0.8,"classrooms":["C","D"],"studentTrueClassroom":"C","exampleSet":"first","trial_type":"survey-html-form","trial_index":166,"time_elapsed":1002259,"internal_node_id":"0.0-162.0-0.0","params":{"nStudents":24,"maxFlips":25,"completionMinutes":45,"basePay":8,"maxBonus":9,"perTrialBonus":0.5,"perTrialBonusThreshold":0.05,"exampleCost":0.02},"classroomParams":{"A":{"a":1,"b":4},"B":{"a":4,"b":1},"C":{"a":2,"b":8},"D":{"a":8,"b":2}},"conditions":["nonSeqFull","nonSeqPartial","seqNoFeedback","seqFeedback"],"classroomPairings":[["A","B"],["C","D"]],"coinWeights":[0.2,0.5,0.8],"subjectId":"A1I72NHC21347A","assignmentId":"3LO69W1SU4ZLMRHI1AF4844EYCEGLL","hitId":"39WICJI5ATE2BKO4UUUR86UGAV2Z3G","url":"https://gershmanlab.com/experiments/alicia/teaching/experiment/?hitId=39WICJI5ATE2BKO4UUUR86UGAV2Z3G&workerId=A1I72NHC21347A&assignmentId=3LO69W1SU4ZLMRHI1AF4844EYCEGLL&a=S9OL3&tp_a=S9OL3&b=3LO69W1SU4ZLMRHI1AF4844EYCEGLL&tp_b=3LO69W1SU4ZLMRHI1AF4844EYCEGLL&c=365633&tp_c=365633","heads":12,"tails":0,"studentIndex":20,"studentTrueHypers":{"a":2,"b":8},"studentGuess":0.6363636363636364,"delta":0.1636363636363637,"totalExamples":12,"bonus":0,"bonusSoFar":0.44},{"rt":6438,"response":{"heads":"5","tails":"5"},"type":"response","condition":"nonSeqFull","trueTheta":0.5,"classrooms":["A","B"],"studentTrueClassroom":"A","exampleSet":"first","trial_type":"survey-html-form","trial_index":172,"time_elapsed":1021266,"internal_node_id":"0.0-168.0-0.0","params":{"nStudents":24,"maxFlips":25,"completionMinutes":45,"basePay":8,"maxBonus":9,"perTrialBonus":0.5,"perTrialBonusThreshold":0.05,"exampleCost":0.02},"classroomParams":{"A":{"a":1,"b":4},"B":{"a":4,"b":1},"C":{"a":2,"b":8},"D":{"a":8,"b":2}},"conditions":["nonSeqFull","nonSeqPartial","seqNoFeedback","seqFeedback"],"classroomPairings":[["A","B"],["C","D"]],"coinWeights":[0.2,0.5,0.8],"subjectId":"A1I72NHC21347A","assignmentId":"3LO69W1SU4ZLMRHI1AF4844EYCEGLL","hitId":"39WICJI5ATE2BKO4UUUR86UGAV2Z3G","url":"https://gershmanlab.com/experiments/alicia/teaching/experiment/?hitId=39WICJI5ATE2BKO4UUUR86UGAV2Z3G&workerId=A1I72NHC21347A&assignmentId=3LO69W1SU4ZLMRHI1AF4844EYCEGLL&a=S9OL3&tp_a=S9OL3&b=3LO69W1SU4ZLMRHI1AF4844EYCEGLL&tp_b=3LO69W1SU4ZLMRHI1AF4844EYCEGLL&c=365633&tp_c=365633","heads":5,"tails":5,"studentIndex":21,"studentTrueHypers":{"a":1,"b":4},"studentGuess":0.4,"delta":0.09999999999999998,"totalExamples":10,"bonus":0,"bonusSoFar":0.44},{"rt":4495,"response":{"heads":"11","tails":"0"},"type":"response","condition":"seqNoFeedback","trueTheta":0.8,"classrooms":["C","D"],"studentTrueClassroom":"C","exampleSet":"first","trial_type":"survey-html-form","trial_index":178,"time_elapsed":1037387,"internal_node_id":"0.0-174.0-0.0","params":{"nStudents":24,"maxFlips":25,"completionMinutes":45,"basePay":8,"maxBonus":9,"perTrialBonus":0.5,"perTrialBonusThreshold":0.05,"exampleCost":0.02},"classroomParams":{"A":{"a":1,"b":4},"B":{"a":4,"b":1},"C":{"a":2,"b":8},"D":{"a":8,"b":2}},"conditions":["nonSeqFull","nonSeqPartial","seqNoFeedback","seqFeedback"],"classroomPairings":[["A","B"],["C","D"]],"coinWeights":[0.2,0.5,0.8],"subjectId":"A1I72NHC21347A","assignmentId":"3LO69W1SU4ZLMRHI1AF4844EYCEGLL","hitId":"39WICJI5ATE2BKO4UUUR86UGAV2Z3G","url":"https://gershmanlab.com/experiments/alicia/teaching/experiment/?hitId=39WICJI5ATE2BKO4UUUR86UGAV2Z3G&workerId=A1I72NHC21347A&assignmentId=3LO69W1SU4ZLMRHI1AF4844EYCEGLL&a=S9OL3&tp_a=S9OL3&b=3LO69W1SU4ZLMRHI1AF4844EYCEGLL&tp_b=3LO69W1SU4ZLMRHI1AF4844EYCEGLL&c=365633&tp_c=365633","heads":11,"tails":0,"studentIndex":22,"studentTrueHypers":{"a":2,"b":8},"studentGuess":0.6190476190476191,"delta":0.18095238095238098,"totalExamples":11,"bonusSoFar":0.44},{"rt":8788,"response":{"heads":"12","tails":"0"},"type":"response","condition":"seqNoFeedback","trueTheta":0.8,"classrooms":["C","D"],"studentTrueClassroom":"C","exampleSet":"second","trial_type":"survey-html-form","trial_index":181,"time_elapsed":1053938,"internal_node_id":"0.0-177.0-0.0","params":{"nStudents":24,"maxFlips":25,"completionMinutes":45,"basePay":8,"maxBonus":9,"perTrialBonus":0.5,"perTrialBonusThreshold":0.05,"exampleCost":0.02},"classroomParams":{"A":{"a":1,"b":4},"B":{"a":4,"b":1},"C":{"a":2,"b":8},"D":{"a":8,"b":2}},"conditions":["nonSeqFull","nonSeqPartial","seqNoFeedback","seqFeedback"],"classroomPairings":[["A","B"],["C","D"]],"coinWeights":[0.2,0.5,0.8],"subjectId":"A1I72NHC21347A","assignmentId":"3LO69W1SU4ZLMRHI1AF4844EYCEGLL","hitId":"39WICJI5ATE2BKO4UUUR86UGAV2Z3G","url":"https://gershmanlab.com/experiments/alicia/teaching/experiment/?hitId=39WICJI5ATE2BKO4UUUR86UGAV2Z3G&workerId=A1I72NHC21347A&assignmentId=3LO69W1SU4ZLMRHI1AF4844EYCEGLL&a=S9OL3&tp_a=S9OL3&b=3LO69W1SU4ZLMRHI1AF4844EYCEGLL&tp_b=3LO69W1SU4ZLMRHI1AF4844EYCEGLL&c=365633&tp_c=365633","firstResponseHeads":11,"firstResponseTails":0,"secondResponseHeads":12,"secondResponseTails":0,"totalHeads":23,"totalTails":0,"studentIndex":22,"studentTrueHypers":{"a":2,"b":8},"studentGuess":0.7575757575757576,"delta":0.042424242424242475,"bonus":0.04,"bonusSoFar":0.48,"totalExamples":23},{"rt":5511,"response":{"heads":"5","tails":"5"},"type":"response","condition":"seqNoFeedback","trueTheta":0.5,"classrooms":["A","B"],"studentTrueClassroom":"B","exampleSet":"first","trial_type":"survey-html-form","trial_index":187,"time_elapsed":1072354,"internal_node_id":"0.0-183.0-0.0","params":{"nStudents":24,"maxFlips":25,"completionMinutes":45,"basePay":8,"maxBonus":9,"perTrialBonus":0.5,"perTrialBonusThreshold":0.05,"exampleCost":0.02},"classroomParams":{"A":{"a":1,"b":4},"B":{"a":4,"b":1},"C":{"a":2,"b":8},"D":{"a":8,"b":2}},"conditions":["nonSeqFull","nonSeqPartial","seqNoFeedback","seqFeedback"],"classroomPairings":[["A","B"],["C","D"]],"coinWeights":[0.2,0.5,0.8],"subjectId":"A1I72NHC21347A","assignmentId":"3LO69W1SU4ZLMRHI1AF4844EYCEGLL","hitId":"39WICJI5ATE2BKO4UUUR86UGAV2Z3G","url":"https://gershmanlab.com/experiments/alicia/teaching/experiment/?hitId=39WICJI5ATE2BKO4UUUR86UGAV2Z3G&workerId=A1I72NHC21347A&assignmentId=3LO69W1SU4ZLMRHI1AF4844EYCEGLL&a=S9OL3&tp_a=S9OL3&b=3LO69W1SU4ZLMRHI1AF4844EYCEGLL&tp_b=3LO69W1SU4ZLMRHI1AF4844EYCEGLL&c=365633&tp_c=365633","heads":5,"tails":5,"studentIndex":23,"studentTrueHypers":{"a":4,"b":1},"studentGuess":0.6,"delta":0.09999999999999998,"totalExamples":10,"bonusSoFar":0.48},{"rt":7539,"response":{"heads":"5","tails":"5"},"type":"response","condition":"seqNoFeedback","trueTheta":0.5,"classrooms":["A","B"],"studentTrueClassroom":"B","exampleSet":"second","trial_type":"survey-html-form","trial_index":190,"time_elapsed":1086658,"internal_node_id":"0.0-186.0-0.0","params":{"nStudents":24,"maxFlips":25,"completionMinutes":45,"basePay":8,"maxBonus":9,"perTrialBonus":0.5,"perTrialBonusThreshold":0.05,"exampleCost":0.02},"classroomParams":{"A":{"a":1,"b":4},"B":{"a":4,"b":1},"C":{"a":2,"b":8},"D":{"a":8,"b":2}},"conditions":["nonSeqFull","nonSeqPartial","seqNoFeedback","seqFeedback"],"classroomPairings":[["A","B"],["C","D"]],"coinWeights":[0.2,0.5,0.8],"subjectId":"A1I72NHC21347A","assignmentId":"3LO69W1SU4ZLMRHI1AF4844EYCEGLL","hitId":"39WICJI5ATE2BKO4UUUR86UGAV2Z3G","url":"https://gershmanlab.com/experiments/alicia/teaching/experiment/?hitId=39WICJI5ATE2BKO4UUUR86UGAV2Z3G&workerId=A1I72NHC21347A&assignmentId=3LO69W1SU4ZLMRHI1AF4844EYCEGLL&a=S9OL3&tp_a=S9OL3&b=3LO69W1SU4ZLMRHI1AF4844EYCEGLL&tp_b=3LO69W1SU4ZLMRHI1AF4844EYCEGLL&c=365633&tp_c=365633","firstResponseHeads":5,"firstResponseTails":5,"secondResponseHeads":5,"secondResponseTails":5,"totalHeads":10,"totalTails":10,"studentIndex":23,"studentTrueHypers":{"a":4,"b":1},"studentGuess":0.56,"delta":0.06000000000000005,"bonus":0,"bonusSoFar":0.48,"totalExamples":20},{"rt":6955,"response":{"gender":"female","age":"57","understood":"yes","comments":""},"type":"response","trial_type":"survey-html-form","trial_index":194,"time_elapsed":1102258,"internal_node_id":"0.0-191.0","params":{"nStudents":24,"maxFlips":25,"completionMinutes":45,"basePay":8,"maxBonus":9,"perTrialBonus":0.5,"perTrialBonusThreshold":0.05,"exampleCost":0.02},"classroomParams":{"A":{"a":1,"b":4},"B":{"a":4,"b":1},"C":{"a":2,"b":8},"D":{"a":8,"b":2}},"conditions":["nonSeqFull","nonSeqPartial","seqNoFeedback","seqFeedback"],"classroomPairings":[["A","B"],["C","D"]],"coinWeights":[0.2,0.5,0.8],"subjectId":"A1I72NHC21347A","assignmentId":"3LO69W1SU4ZLMRHI1AF4844EYCEGLL","hitId":"39WICJI5ATE2BKO4UUUR86UGAV2Z3G","url":"https://gershmanlab.com/experiments/alicia/teaching/experiment/?hitId=39WICJI5ATE2BKO4UUUR86UGAV2Z3G&workerId=A1I72NHC21347A&assignmentId=3LO69W1SU4ZLMRHI1AF4844EYCEGLL&a=S9OL3&tp_a=S9OL3&b=3LO69W1SU4ZLMRHI1AF4844EYCEGLL&tp_b=3LO69W1SU4ZLMRHI1AF4844EYCEGLL&c=365633&tp_c=365633","totalBonus":0.48}]