[{"rt":22749,"response":{"heads":"3","tails":"7"},"type":"response","condition":"nonSeqFull","trueTheta":0.2,"classrooms":["A","B"],"studentTrueClassroom":"B","exampleSet":"first","trial_type":"survey-html-form","trial_index":10,"time_elapsed":3146580,"internal_node_id":"0.0-6.0-0.0","params":{"nStudents":24,"maxFlips":25,"completionMinutes":45,"basePay":8,"maxBonus":9,"perTrialBonus":0.5,"perTrialBonusThreshold":0.05,"exampleCost":0.02},"classroomParams":{"A":{"a":1,"b":4},"B":{"a":4,"b":1},"C":{"a":2,"b":8},"D":{"a":8,"b":2}},"conditions":["nonSeqFull","nonSeqPartial","seqNoFeedback","seqFeedback"],"classroomPairings":[["A","B"],["C","D"]],"coinWeights":[0.2,0.5,0.8],"subjectId":"A1K8VUKRL53OX","assignmentId":"3JV9LGBJWU0TSCKFE2VW0L88THJOGA","hitId":"3IH9TRB0FBLK6RLF7MSMKICTGYN1IU","url":"https://gershmanlab.com/experiments/alicia/teaching/experiment/?hitId=3IH9TRB0FBLK6RLF7MSMKICTGYN1IU&workerId=A1K8VUKRL53OX&assignmentId=3JV9LGBJWU0TSCKFE2VW0L88THJOGA&a=JLVJ3&tp_a=JLVJ3&b=3JV9LGBJWU0TSCKFE2VW0L88THJOGA&tp_b=3JV9LGBJWU0TSCKFE2VW0L88THJOGA&c=365633&tp_c=365633","heads":3,"tails":7,"studentIndex":0,"studentTrueHypers":{"a":4,"b":1},"studentGuess":0.4666666666666667,"delta":0.26666666666666666,"totalExamples":10,"bonus":0,"bonusSoFar":0},{"rt":27606,"response":{"heads":"1","tails":"1"},"type":"response","condition":"seqNoFeedback","trueTheta":0.5,"classrooms":["A","B"],"studentTrueClassroom":"A","exampleSet":"first","trial_type":"survey-html-form","trial_index":16,"time_elapsed":3198972,"internal_node_id":"0.0-12.0-0.0","params":{"nStudents":24,"maxFlips":25,"completionMinutes":45,"basePay":8,"maxBonus":9,"perTrialBonus":0.5,"perTrialBonusThreshold":0.05,"exampleCost":0.02},"classroomParams":{"A":{"a":1,"b":4},"B":{"a":4,"b":1},"C":{"a":2,"b":8},"D":{"a":8,"b":2}},"conditions":["nonSeqFull","nonSeqPartial","seqNoFeedback","seqFeedback"],"classroomPairings":[["A","B"],["C","D"]],"coinWeights":[0.2,0.5,0.8],"subjectId":"A1K8VUKRL53OX","assignmentId":"3JV9LGBJWU0TSCKFE2VW0L88THJOGA","hitId":"3IH9TRB0FBLK6RLF7MSMKICTGYN1IU","url":"https://gershmanlab.com/experiments/alicia/teaching/experiment/?hitId=3IH9TRB0FBLK6RLF7MSMKICTGYN1IU&workerId=A1K8VUKRL53OX&assignmentId=3JV9LGBJWU0TSCKFE2VW0L88THJOGA&a=JLVJ3&tp_a=JLVJ3&b=3JV9LGBJWU0TSCKFE2VW0L88THJOGA&tp_b=3JV9LGBJWU0TSCKFE2VW0L88THJOGA&c=365633&tp_c=365633","heads":1,"tails":1,"studentIndex":1,"studentTrueHypers":{"a":1,"b":4},"studentGuess":0.2857142857142857,"delta":0.2142857142857143,"totalExamples":2,"bonusSoFar":0},{"rt":6249,"response":{"heads":"02","tails":"02"},"type":"response","condition":"seqNoFeedback","trueTheta":0.5,"classrooms":["A","B"],"studentTrueClassroom":"A","exampleSet":"second","trial_type":"survey-html-form","trial_index":19,"time_elapsed":3211734,"internal_node_id":"0.0-15.0-0.0","params":{"nStudents":24,"maxFlips":25,"completionMinutes":45,"basePay":8,"maxBonus":9,"perTrialBonus":0.5,"perTrialBonusThreshold":0.05,"exampleCost":0.02},"classroomParams":{"A":{"a":1,"b":4},"B":{"a":4,"b":1},"C":{"a":2,"b":8},"D":{"a":8,"b":2}},"conditions":["nonSeqFull","nonSeqPartial","seqNoFeedback","seqFeedback"],"classroomPairings":[["A","B"],["C","D"]],"coinWeights":[0.2,0.5,0.8],"subjectId":"A1K8VUKRL53OX","assignmentId":"3JV9LGBJWU0TSCKFE2VW0L88THJOGA","hitId":"3IH9TRB0FBLK6RLF7MSMKICTGYN1IU","url":"https://gershmanlab.com/experiments/alicia/teaching/experiment/?hitId=3IH9TRB0FBLK6RLF7MSMKICTGYN1IU&workerId=A1K8VUKRL53OX&assignmentId=3JV9LGBJWU0TSCKFE2VW0L88THJOGA&a=JLVJ3&tp_a=JLVJ3&b=3JV9LGBJWU0TSCKFE2VW0L88THJOGA&tp_b=3JV9LGBJWU0TSCKFE2VW0L88THJOGA&c=365633&tp_c=365633","firstResponseHeads":1,"firstResponseTails":1,"secondResponseHeads":2,"secondResponseTails":2,"totalHeads":3,"totalTails":3,"studentIndex":1,"studentTrueHypers":{"a":1,"b":4},"studentGuess":0.36363636363636365,"delta":0.13636363636363635,"bonus":0,"bonusSoFar":0,"totalExamples":6},{"rt":30862,"response":{"heads":"1","tails":"1"},"type":"response","condition":"seqFeedback","trueTheta":0.8,"classrooms":["A","B"],"studentTrueClassroom":"A","exampleSet":"first","trial_type":"survey-html-form","trial_index":25,"time_elapsed":3263950,"internal_node_id":"0.0-21.0-0.0","params":{"nStudents":24,"maxFlips":25,"completionMinutes":45,"basePay":8,"maxBonus":9,"perTrialBonus":0.5,"perTrialBonusThreshold":0.05,"exampleCost":0.02},"classroomParams":{"A":{"a":1,"b":4},"B":{"a":4,"b":1},"C":{"a":2,"b":8},"D":{"a":8,"b":2}},"conditions":["nonSeqFull","nonSeqPartial","seqNoFeedback","seqFeedback"],"classroomPairings":[["A","B"],["C","D"]],"coinWeights":[0.2,0.5,0.8],"subjectId":"A1K8VUKRL53OX","assignmentId":"3JV9LGBJWU0TSCKFE2VW0L88THJOGA","hitId":"3IH9TRB0FBLK6RLF7MSMKICTGYN1IU","url":"https://gershmanlab.com/experiments/alicia/teaching/experiment/?hitId=3IH9TRB0FBLK6RLF7MSMKICTGYN1IU&workerId=A1K8VUKRL53OX&assignmentId=3JV9LGBJWU0TSCKFE2VW0L88THJOGA&a=JLVJ3&tp_a=JLVJ3&b=3JV9LGBJWU0TSCKFE2VW0L88THJOGA&tp_b=3JV9LGBJWU0TSCKFE2VW0L88THJOGA&c=365633&tp_c=365633","heads":1,"tails":1,"studentIndex":2,"studentTrueHypers":{"a":1,"b":4},"studentGuess":0.2857142857142857,"delta":0.5142857142857143,"totalExamples":2,"bonusSoFar":0},{"rt":10465,"response":{"heads":"2","tails":"2"},"type":"response","condition":"seqFeedback","trueTheta":0.8,"classrooms":["A","B"],"studentTrueClassroom":"A","exampleSet":"second","trial_type":"survey-html-form","trial_index":29,"time_elapsed":3287190,"internal_node_id":"0.0-25.0-0.0","params":{"nStudents":24,"maxFlips":25,"completionMinutes":45,"basePay":8,"maxBonus":9,"perTrialBonus":0.5,"perTrialBonusThreshold":0.05,"exampleCost":0.02},"classroomParams":{"A":{"a":1,"b":4},"B":{"a":4,"b":1},"C":{"a":2,"b":8},"D":{"a":8,"b":2}},"conditions":["nonSeqFull","nonSeqPartial","seqNoFeedback","seqFeedback"],"classroomPairings":[["A","B"],["C","D"]],"coinWeights":[0.2,0.5,0.8],"subjectId":"A1K8VUKRL53OX","assignmentId":"3JV9LGBJWU0TSCKFE2VW0L88THJOGA","hitId":"3IH9TRB0FBLK6RLF7MSMKICTGYN1IU","url":"https://gershmanlab.com/experiments/alicia/teaching/experiment/?hitId=3IH9TRB0FBLK6RLF7MSMKICTGYN1IU&workerId=A1K8VUKRL53OX&assignmentId=3JV9LGBJWU0TSCKFE2VW0L88THJOGA&a=JLVJ3&tp_a=JLVJ3&b=3JV9LGBJWU0TSCKFE2VW0L88THJOGA&tp_b=3JV9LGBJWU0TSCKFE2VW0L88THJOGA&c=365633&tp_c=365633","firstResponseHeads":1,"firstResponseTails":1,"secondResponseHeads":2,"secondResponseTails":2,"totalHeads":3,"totalTails":3,"studentIndex":2,"studentTrueHypers":{"a":1,"b":4},"studentGuess":0.36363636363636365,"delta":0.4363636363636364,"bonus":0,"bonusSoFar":0,"totalExamples":6},{"rt":6165,"response":{"heads":"1","tails":"0"},"type":"response","condition":"seqNoFeedback","trueTheta":0.8,"classrooms":["C","D"],"studentTrueClassroom":"D","exampleSet":"first","trial_type":"survey-html-form","trial_index":35,"time_elapsed":3306054,"internal_node_id":"0.0-31.0-0.0","params":{"nStudents":24,"maxFlips":25,"completionMinutes":45,"basePay":8,"maxBonus":9,"perTrialBonus":0.5,"perTrialBonusThreshold":0.05,"exampleCost":0.02},"classroomParams":{"A":{"a":1,"b":4},"B":{"a":4,"b":1},"C":{"a":2,"b":8},"D":{"a":8,"b":2}},"conditions":["nonSeqFull","nonSeqPartial","seqNoFeedback","seqFeedback"],"classroomPairings":[["A","B"],["C","D"]],"coinWeights":[0.2,0.5,0.8],"subjectId":"A1K8VUKRL53OX","assignmentId":"3JV9LGBJWU0TSCKFE2VW0L88THJOGA","hitId":"3IH9TRB0FBLK6RLF7MSMKICTGYN1IU","url":"https://gershmanlab.com/experiments/alicia/teaching/experiment/?hitId=3IH9TRB0FBLK6RLF7MSMKICTGYN1IU&workerId=A1K8VUKRL53OX&assignmentId=3JV9LGBJWU0TSCKFE2VW0L88THJOGA&a=JLVJ3&tp_a=JLVJ3&b=3JV9LGBJWU0TSCKFE2VW0L88THJOGA&tp_b=3JV9LGBJWU0TSCKFE2VW0L88THJOGA&c=365633&tp_c=365633","heads":1,"tails":0,"studentIndex":3,"studentTrueHypers":{"a":8,"b":2},"studentGuess":0.8181818181818182,"delta":0.018181818181818188,"totalExamples":1,"bonusSoFar":0},{"rt":4887,"response":{"heads":"0","tails":"0"},"type":"response","condition":"seqNoFeedback","trueTheta":0.8,"classrooms":["C","D"],"studentTrueClassroom":"D","exampleSet":"second","trial_type":"survey-html-form","trial_index":38,"time_elapsed":3316958,"internal_node_id":"0.0-34.0-0.0","params":{"nStudents":24,"maxFlips":25,"completionMinutes":45,"basePay":8,"maxBonus":9,"perTrialBonus":0.5,"perTrialBonusThreshold":0.05,"exampleCost":0.02},"classroomParams":{"A":{"a":1,"b":4},"B":{"a":4,"b":1},"C":{"a":2,"b":8},"D":{"a":8,"b":2}},"conditions":["nonSeqFull","nonSeqPartial","seqNoFeedback","seqFeedback"],"classroomPairings":[["A","B"],["C","D"]],"coinWeights":[0.2,0.5,0.8],"subjectId":"A1K8VUKRL53OX","assignmentId":"3JV9LGBJWU0TSCKFE2VW0L88THJOGA","hitId":"3IH9TRB0FBLK6RLF7MSMKICTGYN1IU","url":"https://gershmanlab.com/experiments/alicia/teaching/experiment/?hitId=3IH9TRB0FBLK6RLF7MSMKICTGYN1IU&workerId=A1K8VUKRL53OX&assignmentId=3JV9LGBJWU0TSCKFE2VW0L88THJOGA&a=JLVJ3&tp_a=JLVJ3&b=3JV9LGBJWU0TSCKFE2VW0L88THJOGA&tp_b=3JV9LGBJWU0TSCKFE2VW0L88THJOGA&c=365633&tp_c=365633","firstResponseHeads":1,"firstResponseTails":0,"secondResponseHeads":0,"secondResponseTails":0,"totalHeads":1,"totalTails":0,"studentIndex":3,"studentTrueHypers":{"a":8,"b":2},"studentGuess":0.8181818181818182,"delta":0.018181818181818188,"bonus":0.48,"bonusSoFar":0.48,"totalExamples":1},{"rt":5724,"response":{"heads":"0","tails":"0"},"type":"response","condition":"seqNoFeedback","trueTheta":0.8,"classrooms":["C","D"],"studentTrueClassroom":"D","exampleSet":"second","trial_type":"survey-html-form","trial_index":39,"time_elapsed":3322684,"internal_node_id":"0.0-34.1-0.1","params":{"nStudents":24,"maxFlips":25,"completionMinutes":45,"basePay":8,"maxBonus":9,"perTrialBonus":0.5,"perTrialBonusThreshold":0.05,"exampleCost":0.02},"classroomParams":{"A":{"a":1,"b":4},"B":{"a":4,"b":1},"C":{"a":2,"b":8},"D":{"a":8,"b":2}},"conditions":["nonSeqFull","nonSeqPartial","seqNoFeedback","seqFeedback"],"classroomPairings":[["A","B"],["C","D"]],"coinWeights":[0.2,0.5,0.8],"subjectId":"A1K8VUKRL53OX","assignmentId":"3JV9LGBJWU0TSCKFE2VW0L88THJOGA","hitId":"3IH9TRB0FBLK6RLF7MSMKICTGYN1IU","url":"https://gershmanlab.com/experiments/alicia/teaching/experiment/?hitId=3IH9TRB0FBLK6RLF7MSMKICTGYN1IU&workerId=A1K8VUKRL53OX&assignmentId=3JV9LGBJWU0TSCKFE2VW0L88THJOGA&a=JLVJ3&tp_a=JLVJ3&b=3JV9LGBJWU0TSCKFE2VW0L88THJOGA&tp_b=3JV9LGBJWU0TSCKFE2VW0L88THJOGA&c=365633&tp_c=365633","firstResponseHeads":1,"firstResponseTails":0,"secondResponseHeads":0,"secondResponseTails":0,"totalHeads":1,"totalTails":0,"studentIndex":3,"studentTrueHypers":{"a":8,"b":2},"studentGuess":0.8181818181818182,"delta":0.018181818181818188,"bonus":0.48,"bonusSoFar":0.96,"totalExamples":1},{"rt":7409,"response":{"heads":"1","tails":"1"},"type":"response","condition":"seqNoFeedback","trueTheta":0.8,"classrooms":["C","D"],"studentTrueClassroom":"D","exampleSet":"second","trial_type":"survey-html-form","trial_index":40,"time_elapsed":3330094,"internal_node_id":"0.0-34.2-0.2","params":{"nStudents":24,"maxFlips":25,"completionMinutes":45,"basePay":8,"maxBonus":9,"perTrialBonus":0.5,"perTrialBonusThreshold":0.05,"exampleCost":0.02},"classroomParams":{"A":{"a":1,"b":4},"B":{"a":4,"b":1},"C":{"a":2,"b":8},"D":{"a":8,"b":2}},"conditions":["nonSeqFull","nonSeqPartial","seqNoFeedback","seqFeedback"],"classroomPairings":[["A","B"],["C","D"]],"coinWeights":[0.2,0.5,0.8],"subjectId":"A1K8VUKRL53OX","assignmentId":"3JV9LGBJWU0TSCKFE2VW0L88THJOGA","hitId":"3IH9TRB0FBLK6RLF7MSMKICTGYN1IU","url":"https://gershmanlab.com/experiments/alicia/teaching/experiment/?hitId=3IH9TRB0FBLK6RLF7MSMKICTGYN1IU&workerId=A1K8VUKRL53OX&assignmentId=3JV9LGBJWU0TSCKFE2VW0L88THJOGA&a=JLVJ3&tp_a=JLVJ3&b=3JV9LGBJWU0TSCKFE2VW0L88THJOGA&tp_b=3JV9LGBJWU0TSCKFE2VW0L88THJOGA&c=365633&tp_c=365633","firstResponseHeads":1,"firstResponseTails":0,"secondResponseHeads":1,"secondResponseTails":1,"totalHeads":2,"totalTails":1,"studentIndex":3,"studentTrueHypers":{"a":8,"b":2},"studentGuess":0.7692307692307693,"delta":0.03076923076923077,"bonus":0.44,"bonusSoFar":1.4,"totalExamples":3},{"rt":4030,"response":{"heads":"1","tails":"1"},"type":"response","condition":"nonSeqPartial","trueTheta":0.8,"classrooms":["A","B"],"studentTrueClassroom":"A","exampleSet":"first","trial_type":"survey-html-form","trial_index":46,"time_elapsed":3354900,"internal_node_id":"0.0-40.0-0.0","params":{"nStudents":24,"maxFlips":25,"completionMinutes":45,"basePay":8,"maxBonus":9,"perTrialBonus":0.5,"perTrialBonusThreshold":0.05,"exampleCost":0.02},"classroomParams":{"A":{"a":1,"b":4},"B":{"a":4,"b":1},"C":{"a":2,"b":8},"D":{"a":8,"b":2}},"conditions":["nonSeqFull","nonSeqPartial","seqNoFeedback","seqFeedback"],"classroomPairings":[["A","B"],["C","D"]],"coinWeights":[0.2,0.5,0.8],"subjectId":"A1K8VUKRL53OX","assignmentId":"3JV9LGBJWU0TSCKFE2VW0L88THJOGA","hitId":"3IH9TRB0FBLK6RLF7MSMKICTGYN1IU","url":"https://gershmanlab.com/experiments/alicia/teaching/experiment/?hitId=3IH9TRB0FBLK6RLF7MSMKICTGYN1IU&workerId=A1K8VUKRL53OX&assignmentId=3JV9LGBJWU0TSCKFE2VW0L88THJOGA&a=JLVJ3&tp_a=JLVJ3&b=3JV9LGBJWU0TSCKFE2VW0L88THJOGA&tp_b=3JV9LGBJWU0TSCKFE2VW0L88THJOGA&c=365633&tp_c=365633","heads":1,"tails":1,"studentIndex":4,"studentTrueHypers":{"a":1,"b":4},"studentGuess":0.2857142857142857,"delta":0.5142857142857143,"totalExamples":2,"bonus":0,"bonusSoFar":1.4},{"rt":4926,"response":{"heads":"1","tails":"0"},"type":"response","condition":"seqFeedback","trueTheta":0.2,"classrooms":["A","B"],"studentTrueClassroom":"A","exampleSet":"first","trial_type":"survey-html-form","trial_index":52,"time_elapsed":3377291,"internal_node_id":"0.0-46.0-0.0","params":{"nStudents":24,"maxFlips":25,"completionMinutes":45,"basePay":8,"maxBonus":9,"perTrialBonus":0.5,"perTrialBonusThreshold":0.05,"exampleCost":0.02},"classroomParams":{"A":{"a":1,"b":4},"B":{"a":4,"b":1},"C":{"a":2,"b":8},"D":{"a":8,"b":2}},"conditions":["nonSeqFull","nonSeqPartial","seqNoFeedback","seqFeedback"],"classroomPairings":[["A","B"],["C","D"]],"coinWeights":[0.2,0.5,0.8],"subjectId":"A1K8VUKRL53OX","assignmentId":"3JV9LGBJWU0TSCKFE2VW0L88THJOGA","hitId":"3IH9TRB0FBLK6RLF7MSMKICTGYN1IU","url":"https://gershmanlab.com/experiments/alicia/teaching/experiment/?hitId=3IH9TRB0FBLK6RLF7MSMKICTGYN1IU&workerId=A1K8VUKRL53OX&assignmentId=3JV9LGBJWU0TSCKFE2VW0L88THJOGA&a=JLVJ3&tp_a=JLVJ3&b=3JV9LGBJWU0TSCKFE2VW0L88THJOGA&tp_b=3JV9LGBJWU0TSCKFE2VW0L88THJOGA&c=365633&tp_c=365633","heads":1,"tails":0,"studentIndex":5,"studentTrueHypers":{"a":1,"b":4},"studentGuess":0.3333333333333333,"delta":0.1333333333333333,"totalExamples":1,"bonusSoFar":1.4},{"rt":5897,"response":{"heads":"1","tails":"1"},"type":"response","condition":"seqFeedback","trueTheta":0.2,"classrooms":["A","B"],"studentTrueClassroom":"A","exampleSet":"second","trial_type":"survey-html-form","trial_index":56,"time_elapsed":3395668,"internal_node_id":"0.0-50.0-0.0","params":{"nStudents":24,"maxFlips":25,"completionMinutes":45,"basePay":8,"maxBonus":9,"perTrialBonus":0.5,"perTrialBonusThreshold":0.05,"exampleCost":0.02},"classroomParams":{"A":{"a":1,"b":4},"B":{"a":4,"b":1},"C":{"a":2,"b":8},"D":{"a":8,"b":2}},"conditions":["nonSeqFull","nonSeqPartial","seqNoFeedback","seqFeedback"],"classroomPairings":[["A","B"],["C","D"]],"coinWeights":[0.2,0.5,0.8],"subjectId":"A1K8VUKRL53OX","assignmentId":"3JV9LGBJWU0TSCKFE2VW0L88THJOGA","hitId":"3IH9TRB0FBLK6RLF7MSMKICTGYN1IU","url":"https://gershmanlab.com/experiments/alicia/teaching/experiment/?hitId=3IH9TRB0FBLK6RLF7MSMKICTGYN1IU&workerId=A1K8VUKRL53OX&assignmentId=3JV9LGBJWU0TSCKFE2VW0L88THJOGA&a=JLVJ3&tp_a=JLVJ3&b=3JV9LGBJWU0TSCKFE2VW0L88THJOGA&tp_b=3JV9LGBJWU0TSCKFE2VW0L88THJOGA&c=365633&tp_c=365633","firstResponseHeads":1,"firstResponseTails":0,"secondResponseHeads":1,"secondResponseTails":1,"totalHeads":2,"totalTails":1,"studentIndex":5,"studentTrueHypers":{"a":1,"b":4},"studentGuess":0.375,"delta":0.175,"bonus":0,"bonusSoFar":1.4,"totalExamples":3},{"rt":4623,"response":{"heads":"1","tails":"1"},"type":"response","condition":"nonSeqFull","trueTheta":0.2,"classrooms":["C","D"],"studentTrueClassroom":"D","exampleSet":"first","trial_type":"survey-html-form","trial_index":62,"time_elapsed":3414644,"internal_node_id":"0.0-56.0-0.0","params":{"nStudents":24,"maxFlips":25,"completionMinutes":45,"basePay":8,"maxBonus":9,"perTrialBonus":0.5,"perTrialBonusThreshold":0.05,"exampleCost":0.02},"classroomParams":{"A":{"a":1,"b":4},"B":{"a":4,"b":1},"C":{"a":2,"b":8},"D":{"a":8,"b":2}},"conditions":["nonSeqFull","nonSeqPartial","seqNoFeedback","seqFeedback"],"classroomPairings":[["A","B"],["C","D"]],"coinWeights":[0.2,0.5,0.8],"subjectId":"A1K8VUKRL53OX","assignmentId":"3JV9LGBJWU0TSCKFE2VW0L88THJOGA","hitId":"3IH9TRB0FBLK6RLF7MSMKICTGYN1IU","url":"https://gershmanlab.com/experiments/alicia/teaching/experiment/?hitId=3IH9TRB0FBLK6RLF7MSMKICTGYN1IU&workerId=A1K8VUKRL53OX&assignmentId=3JV9LGBJWU0TSCKFE2VW0L88THJOGA&a=JLVJ3&tp_a=JLVJ3&b=3JV9LGBJWU0TSCKFE2VW0L88THJOGA&tp_b=3JV9LGBJWU0TSCKFE2VW0L88THJOGA&c=365633&tp_c=365633","heads":1,"tails":1,"studentIndex":6,"studentTrueHypers":{"a":8,"b":2},"studentGuess":0.75,"delta":0.55,"totalExamples":2,"bonus":0,"bonusSoFar":1.4},{"rt":4175,"response":{"heads":"1","tails":"1"},"type":"response","condition":"nonSeqFull","trueTheta":0.5,"classrooms":["C","D"],"studentTrueClassroom":"C","exampleSet":"first","trial_type":"survey-html-form","trial_index":68,"time_elapsed":3435516,"internal_node_id":"0.0-62.0-0.0","params":{"nStudents":24,"maxFlips":25,"completionMinutes":45,"basePay":8,"maxBonus":9,"perTrialBonus":0.5,"perTrialBonusThreshold":0.05,"exampleCost":0.02},"classroomParams":{"A":{"a":1,"b":4},"B":{"a":4,"b":1},"C":{"a":2,"b":8},"D":{"a":8,"b":2}},"conditions":["nonSeqFull","nonSeqPartial","seqNoFeedback","seqFeedback"],"classroomPairings":[["A","B"],["C","D"]],"coinWeights":[0.2,0.5,0.8],"subjectId":"A1K8VUKRL53OX","assignmentId":"3JV9LGBJWU0TSCKFE2VW0L88THJOGA","hitId":"3IH9TRB0FBLK6RLF7MSMKICTGYN1IU","url":"https://gershmanlab.com/experiments/alicia/teaching/experiment/?hitId=3IH9TRB0FBLK6RLF7MSMKICTGYN1IU&workerId=A1K8VUKRL53OX&assignmentId=3JV9LGBJWU0TSCKFE2VW0L88THJOGA&a=JLVJ3&tp_a=JLVJ3&b=3JV9LGBJWU0TSCKFE2VW0L88THJOGA&tp_b=3JV9LGBJWU0TSCKFE2VW0L88THJOGA&c=365633&tp_c=365633","heads":1,"tails":1,"studentIndex":7,"studentTrueHypers":{"a":2,"b":8},"studentGuess":0.25,"delta":0.25,"totalExamples":2,"bonus":0,"bonusSoFar":1.4},{"rt":4821,"response":{"heads":"1","tails":"1"},"type":"response","condition":"nonSeqFull","trueTheta":0.5,"classrooms":["A","B"],"studentTrueClassroom":"B","exampleSet":"first","trial_type":"survey-html-form","trial_index":74,"time_elapsed":3457479,"internal_node_id":"0.0-68.0-0.0","params":{"nStudents":24,"maxFlips":25,"completionMinutes":45,"basePay":8,"maxBonus":9,"perTrialBonus":0.5,"perTrialBonusThreshold":0.05,"exampleCost":0.02},"classroomParams":{"A":{"a":1,"b":4},"B":{"a":4,"b":1},"C":{"a":2,"b":8},"D":{"a":8,"b":2}},"conditions":["nonSeqFull","nonSeqPartial","seqNoFeedback","seqFeedback"],"classroomPairings":[["A","B"],["C","D"]],"coinWeights":[0.2,0.5,0.8],"subjectId":"A1K8VUKRL53OX","assignmentId":"3JV9LGBJWU0TSCKFE2VW0L88THJOGA","hitId":"3IH9TRB0FBLK6RLF7MSMKICTGYN1IU","url":"https://gershmanlab.com/experiments/alicia/teaching/experiment/?hitId=3IH9TRB0FBLK6RLF7MSMKICTGYN1IU&workerId=A1K8VUKRL53OX&assignmentId=3JV9LGBJWU0TSCKFE2VW0L88THJOGA&a=JLVJ3&tp_a=JLVJ3&b=3JV9LGBJWU0TSCKFE2VW0L88THJOGA&tp_b=3JV9LGBJWU0TSCKFE2VW0L88THJOGA&c=365633&tp_c=365633","heads":1,"tails":1,"studentIndex":8,"studentTrueHypers":{"a":4,"b":1},"studentGuess":0.7142857142857143,"delta":0.2142857142857143,"totalExamples":2,"bonus":0,"bonusSoFar":1.4},{"rt":4038,"response":{"heads":"1","tails":"1"},"type":"response","condition":"seqNoFeedback","trueTheta":0.2,"classrooms":["C","D"],"studentTrueClassroom":"D","exampleSet":"first","trial_type":"survey-html-form","trial_index":80,"time_elapsed":3473112,"internal_node_id":"0.0-74.0-0.0","params":{"nStudents":24,"maxFlips":25,"completionMinutes":45,"basePay":8,"maxBonus":9,"perTrialBonus":0.5,"perTrialBonusThreshold":0.05,"exampleCost":0.02},"classroomParams":{"A":{"a":1,"b":4},"B":{"a":4,"b":1},"C":{"a":2,"b":8},"D":{"a":8,"b":2}},"conditions":["nonSeqFull","nonSeqPartial","seqNoFeedback","seqFeedback"],"classroomPairings":[["A","B"],["C","D"]],"coinWeights":[0.2,0.5,0.8],"subjectId":"A1K8VUKRL53OX","assignmentId":"3JV9LGBJWU0TSCKFE2VW0L88THJOGA","hitId":"3IH9TRB0FBLK6RLF7MSMKICTGYN1IU","url":"https://gershmanlab.com/experiments/alicia/teaching/experiment/?hitId=3IH9TRB0FBLK6RLF7MSMKICTGYN1IU&workerId=A1K8VUKRL53OX&assignmentId=3JV9LGBJWU0TSCKFE2VW0L88THJOGA&a=JLVJ3&tp_a=JLVJ3&b=3JV9LGBJWU0TSCKFE2VW0L88THJOGA&tp_b=3JV9LGBJWU0TSCKFE2VW0L88THJOGA&c=365633&tp_c=365633","heads":1,"tails":1,"studentIndex":9,"studentTrueHypers":{"a":8,"b":2},"studentGuess":0.75,"delta":0.55,"totalExamples":2,"bonusSoFar":1.4},{"rt":3974,"response":{"heads":"1","tails":"1"},"type":"response","condition":"seqNoFeedback","trueTheta":0.2,"classrooms":["C","D"],"studentTrueClassroom":"D","exampleSet":"second","trial_type":"survey-html-form","trial_index":83,"time_elapsed":3484096,"internal_node_id":"0.0-77.0-0.0","params":{"nStudents":24,"maxFlips":25,"completionMinutes":45,"basePay":8,"maxBonus":9,"perTrialBonus":0.5,"perTrialBonusThreshold":0.05,"exampleCost":0.02},"classroomParams":{"A":{"a":1,"b":4},"B":{"a":4,"b":1},"C":{"a":2,"b":8},"D":{"a":8,"b":2}},"conditions":["nonSeqFull","nonSeqPartial","seqNoFeedback","seqFeedback"],"classroomPairings":[["A","B"],["C","D"]],"coinWeights":[0.2,0.5,0.8],"subjectId":"A1K8VUKRL53OX","assignmentId":"3JV9LGBJWU0TSCKFE2VW0L88THJOGA","hitId":"3IH9TRB0FBLK6RLF7MSMKICTGYN1IU","url":"https://gershmanlab.com/experiments/alicia/teaching/experiment/?hitId=3IH9TRB0FBLK6RLF7MSMKICTGYN1IU&workerId=A1K8VUKRL53OX&assignmentId=3JV9LGBJWU0TSCKFE2VW0L88THJOGA&a=JLVJ3&tp_a=JLVJ3&b=3JV9LGBJWU0TSCKFE2VW0L88THJOGA&tp_b=3JV9LGBJWU0TSCKFE2VW0L88THJOGA&c=365633&tp_c=365633","firstResponseHeads":1,"firstResponseTails":1,"secondResponseHeads":1,"secondResponseTails":1,"totalHeads":2,"totalTails":2,"studentIndex":9,"studentTrueHypers":{"a":8,"b":2},"studentGuess":0.7142857142857143,"delta":0.5142857142857142,"bonus":0,"bonusSoFar":1.4,"totalExamples":4},{"rt":5151,"response":{"heads":"2","tails":"2"},"type":"response","condition":"nonSeqPartial","trueTheta":0.2,"classrooms":["C","D"],"studentTrueClassroom":"D","exampleSet":"first","trial_type":"survey-html-form","trial_index":89,"time_elapsed":3505368,"internal_node_id":"0.0-83.0-0.0","params":{"nStudents":24,"maxFlips":25,"completionMinutes":45,"basePay":8,"maxBonus":9,"perTrialBonus":0.5,"perTrialBonusThreshold":0.05,"exampleCost":0.02},"classroomParams":{"A":{"a":1,"b":4},"B":{"a":4,"b":1},"C":{"a":2,"b":8},"D":{"a":8,"b":2}},"conditions":["nonSeqFull","nonSeqPartial","seqNoFeedback","seqFeedback"],"classroomPairings":[["A","B"],["C","D"]],"coinWeights":[0.2,0.5,0.8],"subjectId":"A1K8VUKRL53OX","assignmentId":"3JV9LGBJWU0TSCKFE2VW0L88THJOGA","hitId":"3IH9TRB0FBLK6RLF7MSMKICTGYN1IU","url":"https://gershmanlab.com/experiments/alicia/teaching/experiment/?hitId=3IH9TRB0FBLK6RLF7MSMKICTGYN1IU&workerId=A1K8VUKRL53OX&assignmentId=3JV9LGBJWU0TSCKFE2VW0L88THJOGA&a=JLVJ3&tp_a=JLVJ3&b=3JV9LGBJWU0TSCKFE2VW0L88THJOGA&tp_b=3JV9LGBJWU0TSCKFE2VW0L88THJOGA&c=365633&tp_c=365633","heads":2,"tails":2,"studentIndex":10,"studentTrueHypers":{"a":8,"b":2},"studentGuess":0.7142857142857143,"delta":0.5142857142857142,"totalExamples":4,"bonus":0,"bonusSoFar":1.4},{"rt":3446,"response":{"heads":"0","tails":"0"},"type":"response","condition":"nonSeqPartial","trueTheta":0.8,"classrooms":["C","D"],"studentTrueClassroom":"D","exampleSet":"first","trial_type":"survey-html-form","trial_index":95,"time_elapsed":3523720,"internal_node_id":"0.0-89.0-0.0","params":{"nStudents":24,"maxFlips":25,"completionMinutes":45,"basePay":8,"maxBonus":9,"perTrialBonus":0.5,"perTrialBonusThreshold":0.05,"exampleCost":0.02},"classroomParams":{"A":{"a":1,"b":4},"B":{"a":4,"b":1},"C":{"a":2,"b":8},"D":{"a":8,"b":2}},"conditions":["nonSeqFull","nonSeqPartial","seqNoFeedback","seqFeedback"],"classroomPairings":[["A","B"],["C","D"]],"coinWeights":[0.2,0.5,0.8],"subjectId":"A1K8VUKRL53OX","assignmentId":"3JV9LGBJWU0TSCKFE2VW0L88THJOGA","hitId":"3IH9TRB0FBLK6RLF7MSMKICTGYN1IU","url":"https://gershmanlab.com/experiments/alicia/teaching/experiment/?hitId=3IH9TRB0FBLK6RLF7MSMKICTGYN1IU&workerId=A1K8VUKRL53OX&assignmentId=3JV9LGBJWU0TSCKFE2VW0L88THJOGA&a=JLVJ3&tp_a=JLVJ3&b=3JV9LGBJWU0TSCKFE2VW0L88THJOGA&tp_b=3JV9LGBJWU0TSCKFE2VW0L88THJOGA&c=365633&tp_c=365633","heads":0,"tails":0,"studentIndex":11,"studentTrueHypers":{"a":8,"b":2},"studentGuess":0.8,"delta":0,"totalExamples":0,"bonus":0.5,"bonusSoFar":1.9},{"rt":2781,"response":{"heads":"0","tails":"0"},"type":"response","condition":"nonSeqPartial","trueTheta":0.8,"classrooms":["C","D"],"studentTrueClassroom":"D","exampleSet":"first","trial_type":"survey-html-form","trial_index":96,"time_elapsed":3526504,"internal_node_id":"0.0-89.1-0.1","params":{"nStudents":24,"maxFlips":25,"completionMinutes":45,"basePay":8,"maxBonus":9,"perTrialBonus":0.5,"perTrialBonusThreshold":0.05,"exampleCost":0.02},"classroomParams":{"A":{"a":1,"b":4},"B":{"a":4,"b":1},"C":{"a":2,"b":8},"D":{"a":8,"b":2}},"conditions":["nonSeqFull","nonSeqPartial","seqNoFeedback","seqFeedback"],"classroomPairings":[["A","B"],["C","D"]],"coinWeights":[0.2,0.5,0.8],"subjectId":"A1K8VUKRL53OX","assignmentId":"3JV9LGBJWU0TSCKFE2VW0L88THJOGA","hitId":"3IH9TRB0FBLK6RLF7MSMKICTGYN1IU","url":"https://gershmanlab.com/experiments/alicia/teaching/experiment/?hitId=3IH9TRB0FBLK6RLF7MSMKICTGYN1IU&workerId=A1K8VUKRL53OX&assignmentId=3JV9LGBJWU0TSCKFE2VW0L88THJOGA&a=JLVJ3&tp_a=JLVJ3&b=3JV9LGBJWU0TSCKFE2VW0L88THJOGA&tp_b=3JV9LGBJWU0TSCKFE2VW0L88THJOGA&c=365633&tp_c=365633","heads":0,"tails":0,"studentIndex":11,"studentTrueHypers":{"a":8,"b":2},"studentGuess":0.8,"delta":0,"totalExamples":0,"bonus":0.5,"bonusSoFar":2.4},{"rt":5278,"response":{"heads":"1","tails":"1"},"type":"response","condition":"nonSeqPartial","trueTheta":0.8,"classrooms":["C","D"],"studentTrueClassroom":"D","exampleSet":"first","trial_type":"survey-html-form","trial_index":97,"time_elapsed":3531783,"internal_node_id":"0.0-89.2-0.2","params":{"nStudents":24,"maxFlips":25,"completionMinutes":45,"basePay":8,"maxBonus":9,"perTrialBonus":0.5,"perTrialBonusThreshold":0.05,"exampleCost":0.02},"classroomParams":{"A":{"a":1,"b":4},"B":{"a":4,"b":1},"C":{"a":2,"b":8},"D":{"a":8,"b":2}},"conditions":["nonSeqFull","nonSeqPartial","seqNoFeedback","seqFeedback"],"classroomPairings":[["A","B"],["C","D"]],"coinWeights":[0.2,0.5,0.8],"subjectId":"A1K8VUKRL53OX","assignmentId":"3JV9LGBJWU0TSCKFE2VW0L88THJOGA","hitId":"3IH9TRB0FBLK6RLF7MSMKICTGYN1IU","url":"https://gershmanlab.com/experiments/alicia/teaching/experiment/?hitId=3IH9TRB0FBLK6RLF7MSMKICTGYN1IU&workerId=A1K8VUKRL53OX&assignmentId=3JV9LGBJWU0TSCKFE2VW0L88THJOGA&a=JLVJ3&tp_a=JLVJ3&b=3JV9LGBJWU0TSCKFE2VW0L88THJOGA&tp_b=3JV9LGBJWU0TSCKFE2VW0L88THJOGA&c=365633&tp_c=365633","heads":1,"tails":1,"studentIndex":11,"studentTrueHypers":{"a":8,"b":2},"studentGuess":0.75,"delta":0.050000000000000044,"totalExamples":2,"bonus":0,"bonusSoFar":2.4},{"rt":6398,"response":{"heads":"1","tails":"3"},"type":"response","condition":"seqFeedback","trueTheta":0.5,"classrooms":["A","B"],"studentTrueClassroom":"B","exampleSet":"first","trial_type":"survey-html-form","trial_index":103,"time_elapsed":3554743,"internal_node_id":"0.0-95.0-0.0","params":{"nStudents":24,"maxFlips":25,"completionMinutes":45,"basePay":8,"maxBonus":9,"perTrialBonus":0.5,"perTrialBonusThreshold":0.05,"exampleCost":0.02},"classroomParams":{"A":{"a":1,"b":4},"B":{"a":4,"b":1},"C":{"a":2,"b":8},"D":{"a":8,"b":2}},"conditions":["nonSeqFull","nonSeqPartial","seqNoFeedback","seqFeedback"],"classroomPairings":[["A","B"],["C","D"]],"coinWeights":[0.2,0.5,0.8],"subjectId":"A1K8VUKRL53OX","assignmentId":"3JV9LGBJWU0TSCKFE2VW0L88THJOGA","hitId":"3IH9TRB0FBLK6RLF7MSMKICTGYN1IU","url":"https://gershmanlab.com/experiments/alicia/teaching/experiment/?hitId=3IH9TRB0FBLK6RLF7MSMKICTGYN1IU&workerId=A1K8VUKRL53OX&assignmentId=3JV9LGBJWU0TSCKFE2VW0L88THJOGA&a=JLVJ3&tp_a=JLVJ3&b=3JV9LGBJWU0TSCKFE2VW0L88THJOGA&tp_b=3JV9LGBJWU0TSCKFE2VW0L88THJOGA&c=365633&tp_c=365633","heads":1,"tails":3,"studentIndex":12,"studentTrueHypers":{"a":4,"b":1},"studentGuess":0.5555555555555556,"delta":0.05555555555555558,"totalExamples":4,"bonusSoFar":2.4},{"rt":7749,"response":{"heads":"1","tails":"4"},"type":"response","condition":"seqFeedback","trueTheta":0.5,"classrooms":["A","B"],"studentTrueClassroom":"B","exampleSet":"second","trial_type":"survey-html-form","trial_index":107,"time_elapsed":3573308,"internal_node_id":"0.0-99.0-0.0","params":{"nStudents":24,"maxFlips":25,"completionMinutes":45,"basePay":8,"maxBonus":9,"perTrialBonus":0.5,"perTrialBonusThreshold":0.05,"exampleCost":0.02},"classroomParams":{"A":{"a":1,"b":4},"B":{"a":4,"b":1},"C":{"a":2,"b":8},"D":{"a":8,"b":2}},"conditions":["nonSeqFull","nonSeqPartial","seqNoFeedback","seqFeedback"],"classroomPairings":[["A","B"],["C","D"]],"coinWeights":[0.2,0.5,0.8],"subjectId":"A1K8VUKRL53OX","assignmentId":"3JV9LGBJWU0TSCKFE2VW0L88THJOGA","hitId":"3IH9TRB0FBLK6RLF7MSMKICTGYN1IU","url":"https://gershmanlab.com/experiments/alicia/teaching/experiment/?hitId=3IH9TRB0FBLK6RLF7MSMKICTGYN1IU&workerId=A1K8VUKRL53OX&assignmentId=3JV9LGBJWU0TSCKFE2VW0L88THJOGA&a=JLVJ3&tp_a=JLVJ3&b=3JV9LGBJWU0TSCKFE2VW0L88THJOGA&tp_b=3JV9LGBJWU0TSCKFE2VW0L88THJOGA&c=365633&tp_c=365633","firstResponseHeads":1,"firstResponseTails":3,"secondResponseHeads":1,"secondResponseTails":4,"totalHeads":2,"totalTails":7,"studentIndex":12,"studentTrueHypers":{"a":4,"b":1},"studentGuess":0.42857142857142855,"delta":0.07142857142857145,"bonus":0,"bonusSoFar":2.4,"totalExamples":9},{"rt":8453,"response":{"heads":"2","tails":"2"},"type":"response","condition":"nonSeqPartial","trueTheta":0.5,"classrooms":["A","B"],"studentTrueClassroom":"A","exampleSet":"first","trial_type":"survey-html-form","trial_index":113,"time_elapsed":3593866,"internal_node_id":"0.0-105.0-0.0","params":{"nStudents":24,"maxFlips":25,"completionMinutes":45,"basePay":8,"maxBonus":9,"perTrialBonus":0.5,"perTrialBonusThreshold":0.05,"exampleCost":0.02},"classroomParams":{"A":{"a":1,"b":4},"B":{"a":4,"b":1},"C":{"a":2,"b":8},"D":{"a":8,"b":2}},"conditions":["nonSeqFull","nonSeqPartial","seqNoFeedback","seqFeedback"],"classroomPairings":[["A","B"],["C","D"]],"coinWeights":[0.2,0.5,0.8],"subjectId":"A1K8VUKRL53OX","assignmentId":"3JV9LGBJWU0TSCKFE2VW0L88THJOGA","hitId":"3IH9TRB0FBLK6RLF7MSMKICTGYN1IU","url":"https://gershmanlab.com/experiments/alicia/teaching/experiment/?hitId=3IH9TRB0FBLK6RLF7MSMKICTGYN1IU&workerId=A1K8VUKRL53OX&assignmentId=3JV9LGBJWU0TSCKFE2VW0L88THJOGA&a=JLVJ3&tp_a=JLVJ3&b=3JV9LGBJWU0TSCKFE2VW0L88THJOGA&tp_b=3JV9LGBJWU0TSCKFE2VW0L88THJOGA&c=365633&tp_c=365633","heads":2,"tails":2,"studentIndex":13,"studentTrueHypers":{"a":1,"b":4},"studentGuess":0.3333333333333333,"delta":0.16666666666666669,"totalExamples":4,"bonus":0,"bonusSoFar":2.4},{"rt":5375,"response":{"heads":"3","tails":"2"},"type":"response","condition":"nonSeqFull","trueTheta":0.8,"classrooms":["C","D"],"studentTrueClassroom":"C","exampleSet":"first","trial_type":"survey-html-form","trial_index":119,"time_elapsed":3616892,"internal_node_id":"0.0-111.0-0.0","params":{"nStudents":24,"maxFlips":25,"completionMinutes":45,"basePay":8,"maxBonus":9,"perTrialBonus":0.5,"perTrialBonusThreshold":0.05,"exampleCost":0.02},"classroomParams":{"A":{"a":1,"b":4},"B":{"a":4,"b":1},"C":{"a":2,"b":8},"D":{"a":8,"b":2}},"conditions":["nonSeqFull","nonSeqPartial","seqNoFeedback","seqFeedback"],"classroomPairings":[["A","B"],["C","D"]],"coinWeights":[0.2,0.5,0.8],"subjectId":"A1K8VUKRL53OX","assignmentId":"3JV9LGBJWU0TSCKFE2VW0L88THJOGA","hitId":"3IH9TRB0FBLK6RLF7MSMKICTGYN1IU","url":"https://gershmanlab.com/experiments/alicia/teaching/experiment/?hitId=3IH9TRB0FBLK6RLF7MSMKICTGYN1IU&workerId=A1K8VUKRL53OX&assignmentId=3JV9LGBJWU0TSCKFE2VW0L88THJOGA&a=JLVJ3&tp_a=JLVJ3&b=3JV9LGBJWU0TSCKFE2VW0L88THJOGA&tp_b=3JV9LGBJWU0TSCKFE2VW0L88THJOGA&c=365633&tp_c=365633","heads":3,"tails":2,"studentIndex":14,"studentTrueHypers":{"a":2,"b":8},"studentGuess":0.3333333333333333,"delta":0.46666666666666673,"totalExamples":5,"bonus":0,"bonusSoFar":2.4},{"rt":4848,"response":{"heads":"2","tails":"2"},"type":"response","condition":"seqNoFeedback","trueTheta":0.5,"classrooms":["C","D"],"studentTrueClassroom":"C","exampleSet":"first","trial_type":"survey-html-form","trial_index":125,"time_elapsed":3635061,"internal_node_id":"0.0-117.0-0.0","params":{"nStudents":24,"maxFlips":25,"completionMinutes":45,"basePay":8,"maxBonus":9,"perTrialBonus":0.5,"perTrialBonusThreshold":0.05,"exampleCost":0.02},"classroomParams":{"A":{"a":1,"b":4},"B":{"a":4,"b":1},"C":{"a":2,"b":8},"D":{"a":8,"b":2}},"conditions":["nonSeqFull","nonSeqPartial","seqNoFeedback","seqFeedback"],"classroomPairings":[["A","B"],["C","D"]],"coinWeights":[0.2,0.5,0.8],"subjectId":"A1K8VUKRL53OX","assignmentId":"3JV9LGBJWU0TSCKFE2VW0L88THJOGA","hitId":"3IH9TRB0FBLK6RLF7MSMKICTGYN1IU","url":"https://gershmanlab.com/experiments/alicia/teaching/experiment/?hitId=3IH9TRB0FBLK6RLF7MSMKICTGYN1IU&workerId=A1K8VUKRL53OX&assignmentId=3JV9LGBJWU0TSCKFE2VW0L88THJOGA&a=JLVJ3&tp_a=JLVJ3&b=3JV9LGBJWU0TSCKFE2VW0L88THJOGA&tp_b=3JV9LGBJWU0TSCKFE2VW0L88THJOGA&c=365633&tp_c=365633","heads":2,"tails":2,"studentIndex":15,"studentTrueHypers":{"a":2,"b":8},"studentGuess":0.2857142857142857,"delta":0.2142857142857143,"totalExamples":4,"bonusSoFar":2.4},{"rt":4983,"response":{"heads":"2","tails":"2"},"type":"response","condition":"seqNoFeedback","trueTheta":0.5,"classrooms":["C","D"],"studentTrueClassroom":"C","exampleSet":"second","trial_type":"survey-html-form","trial_index":128,"time_elapsed":3647061,"internal_node_id":"0.0-120.0-0.0","params":{"nStudents":24,"maxFlips":25,"completionMinutes":45,"basePay":8,"maxBonus":9,"perTrialBonus":0.5,"perTrialBonusThreshold":0.05,"exampleCost":0.02},"classroomParams":{"A":{"a":1,"b":4},"B":{"a":4,"b":1},"C":{"a":2,"b":8},"D":{"a":8,"b":2}},"conditions":["nonSeqFull","nonSeqPartial","seqNoFeedback","seqFeedback"],"classroomPairings":[["A","B"],["C","D"]],"coinWeights":[0.2,0.5,0.8],"subjectId":"A1K8VUKRL53OX","assignmentId":"3JV9LGBJWU0TSCKFE2VW0L88THJOGA","hitId":"3IH9TRB0FBLK6RLF7MSMKICTGYN1IU","url":"https://gershmanlab.com/experiments/alicia/teaching/experiment/?hitId=3IH9TRB0FBLK6RLF7MSMKICTGYN1IU&workerId=A1K8VUKRL53OX&assignmentId=3JV9LGBJWU0TSCKFE2VW0L88THJOGA&a=JLVJ3&tp_a=JLVJ3&b=3JV9LGBJWU0TSCKFE2VW0L88THJOGA&tp_b=3JV9LGBJWU0TSCKFE2VW0L88THJOGA&c=365633&tp_c=365633","firstResponseHeads":2,"firstResponseTails":2,"secondResponseHeads":2,"secondResponseTails":2,"totalHeads":4,"totalTails":4,"studentIndex":15,"studentTrueHypers":{"a":2,"b":8},"studentGuess":0.3333333333333333,"delta":0.16666666666666669,"bonus":0,"bonusSoFar":2.4,"totalExamples":8},{"rt":4388,"response":{"heads":"2","tails":"2"},"type":"response","condition":"seqNoFeedback","trueTheta":0.2,"classrooms":["A","B"],"studentTrueClassroom":"B","exampleSet":"first","trial_type":"survey-html-form","trial_index":134,"time_elapsed":3665619,"internal_node_id":"0.0-126.0-0.0","params":{"nStudents":24,"maxFlips":25,"completionMinutes":45,"basePay":8,"maxBonus":9,"perTrialBonus":0.5,"perTrialBonusThreshold":0.05,"exampleCost":0.02},"classroomParams":{"A":{"a":1,"b":4},"B":{"a":4,"b":1},"C":{"a":2,"b":8},"D":{"a":8,"b":2}},"conditions":["nonSeqFull","nonSeqPartial","seqNoFeedback","seqFeedback"],"classroomPairings":[["A","B"],["C","D"]],"coinWeights":[0.2,0.5,0.8],"subjectId":"A1K8VUKRL53OX","assignmentId":"3JV9LGBJWU0TSCKFE2VW0L88THJOGA","hitId":"3IH9TRB0FBLK6RLF7MSMKICTGYN1IU","url":"https://gershmanlab.com/experiments/alicia/teaching/experiment/?hitId=3IH9TRB0FBLK6RLF7MSMKICTGYN1IU&workerId=A1K8VUKRL53OX&assignmentId=3JV9LGBJWU0TSCKFE2VW0L88THJOGA&a=JLVJ3&tp_a=JLVJ3&b=3JV9LGBJWU0TSCKFE2VW0L88THJOGA&tp_b=3JV9LGBJWU0TSCKFE2VW0L88THJOGA&c=365633&tp_c=365633","heads":2,"tails":2,"studentIndex":16,"studentTrueHypers":{"a":4,"b":1},"studentGuess":0.6666666666666666,"delta":0.4666666666666666,"totalExamples":4,"bonusSoFar":2.4},{"rt":10376,"response":{"heads":"2","tails":"2"},"type":"response","condition":"seqNoFeedback","trueTheta":0.2,"classrooms":["A","B"],"studentTrueClassroom":"B","exampleSet":"second","trial_type":"survey-html-form","trial_index":137,"time_elapsed":3682774,"internal_node_id":"0.0-129.0-0.0","params":{"nStudents":24,"maxFlips":25,"completionMinutes":45,"basePay":8,"maxBonus":9,"perTrialBonus":0.5,"perTrialBonusThreshold":0.05,"exampleCost":0.02},"classroomParams":{"A":{"a":1,"b":4},"B":{"a":4,"b":1},"C":{"a":2,"b":8},"D":{"a":8,"b":2}},"conditions":["nonSeqFull","nonSeqPartial","seqNoFeedback","seqFeedback"],"classroomPairings":[["A","B"],["C","D"]],"coinWeights":[0.2,0.5,0.8],"subjectId":"A1K8VUKRL53OX","assignmentId":"3JV9LGBJWU0TSCKFE2VW0L88THJOGA","hitId":"3IH9TRB0FBLK6RLF7MSMKICTGYN1IU","url":"https://gershmanlab.com/experiments/alicia/teaching/experiment/?hitId=3IH9TRB0FBLK6RLF7MSMKICTGYN1IU&workerId=A1K8VUKRL53OX&assignmentId=3JV9LGBJWU0TSCKFE2VW0L88THJOGA&a=JLVJ3&tp_a=JLVJ3&b=3JV9LGBJWU0TSCKFE2VW0L88THJOGA&tp_b=3JV9LGBJWU0TSCKFE2VW0L88THJOGA&c=365633&tp_c=365633","firstResponseHeads":2,"firstResponseTails":2,"secondResponseHeads":2,"secondResponseTails":2,"totalHeads":4,"totalTails":4,"studentIndex":16,"studentTrueHypers":{"a":4,"b":1},"studentGuess":0.6153846153846154,"delta":0.4153846153846154,"bonus":0,"bonusSoFar":2.4,"totalExamples":8},{"rt":4285,"response":{"heads":"2","tails":"2"},"type":"response","condition":"nonSeqPartial","trueTheta":0.2,"classrooms":["A","B"],"studentTrueClassroom":"B","exampleSet":"first","trial_type":"survey-html-form","trial_index":143,"time_elapsed":3700221,"internal_node_id":"0.0-135.0-0.0","params":{"nStudents":24,"maxFlips":25,"completionMinutes":45,"basePay":8,"maxBonus":9,"perTrialBonus":0.5,"perTrialBonusThreshold":0.05,"exampleCost":0.02},"classroomParams":{"A":{"a":1,"b":4},"B":{"a":4,"b":1},"C":{"a":2,"b":8},"D":{"a":8,"b":2}},"conditions":["nonSeqFull","nonSeqPartial","seqNoFeedback","seqFeedback"],"classroomPairings":[["A","B"],["C","D"]],"coinWeights":[0.2,0.5,0.8],"subjectId":"A1K8VUKRL53OX","assignmentId":"3JV9LGBJWU0TSCKFE2VW0L88THJOGA","hitId":"3IH9TRB0FBLK6RLF7MSMKICTGYN1IU","url":"https://gershmanlab.com/experiments/alicia/teaching/experiment/?hitId=3IH9TRB0FBLK6RLF7MSMKICTGYN1IU&workerId=A1K8VUKRL53OX&assignmentId=3JV9LGBJWU0TSCKFE2VW0L88THJOGA&a=JLVJ3&tp_a=JLVJ3&b=3JV9LGBJWU0TSCKFE2VW0L88THJOGA&tp_b=3JV9LGBJWU0TSCKFE2VW0L88THJOGA&c=365633&tp_c=365633","heads":2,"tails":2,"studentIndex":17,"studentTrueHypers":{"a":4,"b":1},"studentGuess":0.6666666666666666,"delta":0.4666666666666666,"totalExamples":4,"bonus":0,"bonusSoFar":2.4},{"rt":4350,"response":{"heads":"1","tails":"1"},"type":"response","condition":"nonSeqFull","trueTheta":0.8,"classrooms":["A","B"],"studentTrueClassroom":"A","exampleSet":"first","trial_type":"survey-html-form","trial_index":149,"time_elapsed":3719238,"internal_node_id":"0.0-141.0-0.0","params":{"nStudents":24,"maxFlips":25,"completionMinutes":45,"basePay":8,"maxBonus":9,"perTrialBonus":0.5,"perTrialBonusThreshold":0.05,"exampleCost":0.02},"classroomParams":{"A":{"a":1,"b":4},"B":{"a":4,"b":1},"C":{"a":2,"b":8},"D":{"a":8,"b":2}},"conditions":["nonSeqFull","nonSeqPartial","seqNoFeedback","seqFeedback"],"classroomPairings":[["A","B"],["C","D"]],"coinWeights":[0.2,0.5,0.8],"subjectId":"A1K8VUKRL53OX","assignmentId":"3JV9LGBJWU0TSCKFE2VW0L88THJOGA","hitId":"3IH9TRB0FBLK6RLF7MSMKICTGYN1IU","url":"https://gershmanlab.com/experiments/alicia/teaching/experiment/?hitId=3IH9TRB0FBLK6RLF7MSMKICTGYN1IU&workerId=A1K8VUKRL53OX&assignmentId=3JV9LGBJWU0TSCKFE2VW0L88THJOGA&a=JLVJ3&tp_a=JLVJ3&b=3JV9LGBJWU0TSCKFE2VW0L88THJOGA&tp_b=3JV9LGBJWU0TSCKFE2VW0L88THJOGA&c=365633&tp_c=365633","heads":1,"tails":1,"studentIndex":18,"studentTrueHypers":{"a":1,"b":4},"studentGuess":0.2857142857142857,"delta":0.5142857142857143,"totalExamples":2,"bonus":0,"bonusSoFar":2.4},{"rt":7597,"response":{"heads":"2","tails":"2"},"type":"response","condition":"seqFeedback","trueTheta":0.5,"classrooms":["C","D"],"studentTrueClassroom":"D","exampleSet":"first","trial_type":"survey-html-form","trial_index":155,"time_elapsed":3744566,"internal_node_id":"0.0-147.0-0.0","params":{"nStudents":24,"maxFlips":25,"completionMinutes":45,"basePay":8,"maxBonus":9,"perTrialBonus":0.5,"perTrialBonusThreshold":0.05,"exampleCost":0.02},"classroomParams":{"A":{"a":1,"b":4},"B":{"a":4,"b":1},"C":{"a":2,"b":8},"D":{"a":8,"b":2}},"conditions":["nonSeqFull","nonSeqPartial","seqNoFeedback","seqFeedback"],"classroomPairings":[["A","B"],["C","D"]],"coinWeights":[0.2,0.5,0.8],"subjectId":"A1K8VUKRL53OX","assignmentId":"3JV9LGBJWU0TSCKFE2VW0L88THJOGA","hitId":"3IH9TRB0FBLK6RLF7MSMKICTGYN1IU","url":"https://gershmanlab.com/experiments/alicia/teaching/experiment/?hitId=3IH9TRB0FBLK6RLF7MSMKICTGYN1IU&workerId=A1K8VUKRL53OX&assignmentId=3JV9LGBJWU0TSCKFE2VW0L88THJOGA&a=JLVJ3&tp_a=JLVJ3&b=3JV9LGBJWU0TSCKFE2VW0L88THJOGA&tp_b=3JV9LGBJWU0TSCKFE2VW0L88THJOGA&c=365633&tp_c=365633","heads":2,"tails":2,"studentIndex":19,"studentTrueHypers":{"a":8,"b":2},"studentGuess":0.7142857142857143,"delta":0.2142857142857143,"totalExamples":4,"bonusSoFar":2.4},{"rt":8488,"response":{"heads":"2","tails":"2"},"type":"response","condition":"seqFeedback","trueTheta":0.5,"classrooms":["C","D"],"studentTrueClassroom":"D","exampleSet":"second","trial_type":"survey-html-form","trial_index":159,"time_elapsed":3762571,"internal_node_id":"0.0-151.0-0.0","params":{"nStudents":24,"maxFlips":25,"completionMinutes":45,"basePay":8,"maxBonus":9,"perTrialBonus":0.5,"perTrialBonusThreshold":0.05,"exampleCost":0.02},"classroomParams":{"A":{"a":1,"b":4},"B":{"a":4,"b":1},"C":{"a":2,"b":8},"D":{"a":8,"b":2}},"conditions":["nonSeqFull","nonSeqPartial","seqNoFeedback","seqFeedback"],"classroomPairings":[["A","B"],["C","D"]],"coinWeights":[0.2,0.5,0.8],"subjectId":"A1K8VUKRL53OX","assignmentId":"3JV9LGBJWU0TSCKFE2VW0L88THJOGA","hitId":"3IH9TRB0FBLK6RLF7MSMKICTGYN1IU","url":"https://gershmanlab.com/experiments/alicia/teaching/experiment/?hitId=3IH9TRB0FBLK6RLF7MSMKICTGYN1IU&workerId=A1K8VUKRL53OX&assignmentId=3JV9LGBJWU0TSCKFE2VW0L88THJOGA&a=JLVJ3&tp_a=JLVJ3&b=3JV9LGBJWU0TSCKFE2VW0L88THJOGA&tp_b=3JV9LGBJWU0TSCKFE2VW0L88THJOGA&c=365633&tp_c=365633","firstResponseHeads":2,"firstResponseTails":2,"secondResponseHeads":2,"secondResponseTails":2,"totalHeads":4,"totalTails":4,"studentIndex":19,"studentTrueHypers":{"a":8,"b":2},"studentGuess":0.6666666666666666,"delta":0.16666666666666663,"bonus":0,"bonusSoFar":2.4,"totalExamples":8},{"rt":5023,"response":{"heads":"2","tails":"2"},"type":"response","condition":"seqFeedback","trueTheta":0.2,"classrooms":["C","D"],"studentTrueClassroom":"D","exampleSet":"first","trial_type":"survey-html-form","trial_index":165,"time_elapsed":3783667,"internal_node_id":"0.0-157.0-0.0","params":{"nStudents":24,"maxFlips":25,"completionMinutes":45,"basePay":8,"maxBonus":9,"perTrialBonus":0.5,"perTrialBonusThreshold":0.05,"exampleCost":0.02},"classroomParams":{"A":{"a":1,"b":4},"B":{"a":4,"b":1},"C":{"a":2,"b":8},"D":{"a":8,"b":2}},"conditions":["nonSeqFull","nonSeqPartial","seqNoFeedback","seqFeedback"],"classroomPairings":[["A","B"],["C","D"]],"coinWeights":[0.2,0.5,0.8],"subjectId":"A1K8VUKRL53OX","assignmentId":"3JV9LGBJWU0TSCKFE2VW0L88THJOGA","hitId":"3IH9TRB0FBLK6RLF7MSMKICTGYN1IU","url":"https://gershmanlab.com/experiments/alicia/teaching/experiment/?hitId=3IH9TRB0FBLK6RLF7MSMKICTGYN1IU&workerId=A1K8VUKRL53OX&assignmentId=3JV9LGBJWU0TSCKFE2VW0L88THJOGA&a=JLVJ3&tp_a=JLVJ3&b=3JV9LGBJWU0TSCKFE2VW0L88THJOGA&tp_b=3JV9LGBJWU0TSCKFE2VW0L88THJOGA&c=365633&tp_c=365633","heads":2,"tails":2,"studentIndex":20,"studentTrueHypers":{"a":8,"b":2},"studentGuess":0.7142857142857143,"delta":0.5142857142857142,"totalExamples":4,"bonusSoFar":2.4},{"rt":5224,"response":{"heads":"1","tails":"2"},"type":"response","condition":"seqFeedback","trueTheta":0.2,"classrooms":["C","D"],"studentTrueClassroom":"D","exampleSet":"second","trial_type":"survey-html-form","trial_index":169,"time_elapsed":3798020,"internal_node_id":"0.0-161.0-0.0","params":{"nStudents":24,"maxFlips":25,"completionMinutes":45,"basePay":8,"maxBonus":9,"perTrialBonus":0.5,"perTrialBonusThreshold":0.05,"exampleCost":0.02},"classroomParams":{"A":{"a":1,"b":4},"B":{"a":4,"b":1},"C":{"a":2,"b":8},"D":{"a":8,"b":2}},"conditions":["nonSeqFull","nonSeqPartial","seqNoFeedback","seqFeedback"],"classroomPairings":[["A","B"],["C","D"]],"coinWeights":[0.2,0.5,0.8],"subjectId":"A1K8VUKRL53OX","assignmentId":"3JV9LGBJWU0TSCKFE2VW0L88THJOGA","hitId":"3IH9TRB0FBLK6RLF7MSMKICTGYN1IU","url":"https://gershmanlab.com/experiments/alicia/teaching/experiment/?hitId=3IH9TRB0FBLK6RLF7MSMKICTGYN1IU&workerId=A1K8VUKRL53OX&assignmentId=3JV9LGBJWU0TSCKFE2VW0L88THJOGA&a=JLVJ3&tp_a=JLVJ3&b=3JV9LGBJWU0TSCKFE2VW0L88THJOGA&tp_b=3JV9LGBJWU0TSCKFE2VW0L88THJOGA&c=365633&tp_c=365633","firstResponseHeads":2,"firstResponseTails":2,"secondResponseHeads":1,"secondResponseTails":2,"totalHeads":3,"totalTails":4,"studentIndex":20,"studentTrueHypers":{"a":8,"b":2},"studentGuess":0.6470588235294118,"delta":0.4470588235294118,"bonus":0,"bonusSoFar":2.4,"totalExamples":7},{"rt":7108,"response":{"heads":"2","tails":"8"},"type":"response","condition":"nonSeqPartial","trueTheta":0.5,"classrooms":["C","D"],"studentTrueClassroom":"C","exampleSet":"first","trial_type":"survey-html-form","trial_index":175,"time_elapsed":3817959,"internal_node_id":"0.0-167.0-0.0","params":{"nStudents":24,"maxFlips":25,"completionMinutes":45,"basePay":8,"maxBonus":9,"perTrialBonus":0.5,"perTrialBonusThreshold":0.05,"exampleCost":0.02},"classroomParams":{"A":{"a":1,"b":4},"B":{"a":4,"b":1},"C":{"a":2,"b":8},"D":{"a":8,"b":2}},"conditions":["nonSeqFull","nonSeqPartial","seqNoFeedback","seqFeedback"],"classroomPairings":[["A","B"],["C","D"]],"coinWeights":[0.2,0.5,0.8],"subjectId":"A1K8VUKRL53OX","assignmentId":"3JV9LGBJWU0TSCKFE2VW0L88THJOGA","hitId":"3IH9TRB0FBLK6RLF7MSMKICTGYN1IU","url":"https://gershmanlab.com/experiments/alicia/teaching/experiment/?hitId=3IH9TRB0FBLK6RLF7MSMKICTGYN1IU&workerId=A1K8VUKRL53OX&assignmentId=3JV9LGBJWU0TSCKFE2VW0L88THJOGA&a=JLVJ3&tp_a=JLVJ3&b=3JV9LGBJWU0TSCKFE2VW0L88THJOGA&tp_b=3JV9LGBJWU0TSCKFE2VW0L88THJOGA&c=365633&tp_c=365633","heads":2,"tails":8,"studentIndex":21,"studentTrueHypers":{"a":2,"b":8},"studentGuess":0.2,"delta":0.3,"totalExamples":10,"bonus":0,"bonusSoFar":2.4},{"rt":8390,"response":{"heads":"1","tails":"4"},"type":"response","condition":"seqNoFeedback","trueTheta":0.8,"classrooms":["A","B"],"studentTrueClassroom":"A","exampleSet":"first","trial_type":"survey-html-form","trial_index":181,"time_elapsed":3840458,"internal_node_id":"0.0-173.0-0.0","params":{"nStudents":24,"maxFlips":25,"completionMinutes":45,"basePay":8,"maxBonus":9,"perTrialBonus":0.5,"perTrialBonusThreshold":0.05,"exampleCost":0.02},"classroomParams":{"A":{"a":1,"b":4},"B":{"a":4,"b":1},"C":{"a":2,"b":8},"D":{"a":8,"b":2}},"conditions":["nonSeqFull","nonSeqPartial","seqNoFeedback","seqFeedback"],"classroomPairings":[["A","B"],["C","D"]],"coinWeights":[0.2,0.5,0.8],"subjectId":"A1K8VUKRL53OX","assignmentId":"3JV9LGBJWU0TSCKFE2VW0L88THJOGA","hitId":"3IH9TRB0FBLK6RLF7MSMKICTGYN1IU","url":"https://gershmanlab.com/experiments/alicia/teaching/experiment/?hitId=3IH9TRB0FBLK6RLF7MSMKICTGYN1IU&workerId=A1K8VUKRL53OX&assignmentId=3JV9LGBJWU0TSCKFE2VW0L88THJOGA&a=JLVJ3&tp_a=JLVJ3&b=3JV9LGBJWU0TSCKFE2VW0L88THJOGA&tp_b=3JV9LGBJWU0TSCKFE2VW0L88THJOGA&c=365633&tp_c=365633","heads":1,"tails":4,"studentIndex":22,"studentTrueHypers":{"a":1,"b":4},"studentGuess":0.2,"delta":0.6000000000000001,"totalExamples":5,"bonusSoFar":2.4},{"rt":7884,"response":{"heads":"4","tails":"1"},"type":"response","condition":"seqNoFeedback","trueTheta":0.8,"classrooms":["A","B"],"studentTrueClassroom":"A","exampleSet":"second","trial_type":"survey-html-form","trial_index":184,"time_elapsed":3854864,"internal_node_id":"0.0-176.0-0.0","params":{"nStudents":24,"maxFlips":25,"completionMinutes":45,"basePay":8,"maxBonus":9,"perTrialBonus":0.5,"perTrialBonusThreshold":0.05,"exampleCost":0.02},"classroomParams":{"A":{"a":1,"b":4},"B":{"a":4,"b":1},"C":{"a":2,"b":8},"D":{"a":8,"b":2}},"conditions":["nonSeqFull","nonSeqPartial","seqNoFeedback","seqFeedback"],"classroomPairings":[["A","B"],["C","D"]],"coinWeights":[0.2,0.5,0.8],"subjectId":"A1K8VUKRL53OX","assignmentId":"3JV9LGBJWU0TSCKFE2VW0L88THJOGA","hitId":"3IH9TRB0FBLK6RLF7MSMKICTGYN1IU","url":"https://gershmanlab.com/experiments/alicia/teaching/experiment/?hitId=3IH9TRB0FBLK6RLF7MSMKICTGYN1IU&workerId=A1K8VUKRL53OX&assignmentId=3JV9LGBJWU0TSCKFE2VW0L88THJOGA&a=JLVJ3&tp_a=JLVJ3&b=3JV9LGBJWU0TSCKFE2VW0L88THJOGA&tp_b=3JV9LGBJWU0TSCKFE2VW0L88THJOGA&c=365633&tp_c=365633","firstResponseHeads":1,"firstResponseTails":4,"secondResponseHeads":4,"secondResponseTails":1,"totalHeads":5,"totalTails":5,"studentIndex":22,"studentTrueHypers":{"a":1,"b":4},"studentGuess":0.4,"delta":0.4,"bonus":0,"bonusSoFar":2.4,"totalExamples":10},{"rt":4710,"response":{"heads":"2","tails":"2"},"type":"response","condition":"seqFeedback","trueTheta":0.8,"classrooms":["C","D"],"studentTrueClassroom":"D","exampleSet":"first","trial_type":"survey-html-form","trial_index":190,"time_elapsed":3878878,"internal_node_id":"0.0-182.0-0.0","params":{"nStudents":24,"maxFlips":25,"completionMinutes":45,"basePay":8,"maxBonus":9,"perTrialBonus":0.5,"perTrialBonusThreshold":0.05,"exampleCost":0.02},"classroomParams":{"A":{"a":1,"b":4},"B":{"a":4,"b":1},"C":{"a":2,"b":8},"D":{"a":8,"b":2}},"conditions":["nonSeqFull","nonSeqPartial","seqNoFeedback","seqFeedback"],"classroomPairings":[["A","B"],["C","D"]],"coinWeights":[0.2,0.5,0.8],"subjectId":"A1K8VUKRL53OX","assignmentId":"3JV9LGBJWU0TSCKFE2VW0L88THJOGA","hitId":"3IH9TRB0FBLK6RLF7MSMKICTGYN1IU","url":"https://gershmanlab.com/experiments/alicia/teaching/experiment/?hitId=3IH9TRB0FBLK6RLF7MSMKICTGYN1IU&workerId=A1K8VUKRL53OX&assignmentId=3JV9LGBJWU0TSCKFE2VW0L88THJOGA&a=JLVJ3&tp_a=JLVJ3&b=3JV9LGBJWU0TSCKFE2VW0L88THJOGA&tp_b=3JV9LGBJWU0TSCKFE2VW0L88THJOGA&c=365633&tp_c=365633","heads":2,"tails":2,"studentIndex":23,"studentTrueHypers":{"a":8,"b":2},"studentGuess":0.7142857142857143,"delta":0.08571428571428574,"totalExamples":4,"bonusSoFar":2.4},{"rt":6094,"response":{"heads":"2","tails":"2"},"type":"response","condition":"seqFeedback","trueTheta":0.8,"classrooms":["C","D"],"studentTrueClassroom":"D","exampleSet":"second","trial_type":"survey-html-form","trial_index":194,"time_elapsed":3894294,"internal_node_id":"0.0-186.0-0.0","params":{"nStudents":24,"maxFlips":25,"completionMinutes":45,"basePay":8,"maxBonus":9,"perTrialBonus":0.5,"perTrialBonusThreshold":0.05,"exampleCost":0.02},"classroomParams":{"A":{"a":1,"b":4},"B":{"a":4,"b":1},"C":{"a":2,"b":8},"D":{"a":8,"b":2}},"conditions":["nonSeqFull","nonSeqPartial","seqNoFeedback","seqFeedback"],"classroomPairings":[["A","B"],["C","D"]],"coinWeights":[0.2,0.5,0.8],"subjectId":"A1K8VUKRL53OX","assignmentId":"3JV9LGBJWU0TSCKFE2VW0L88THJOGA","hitId":"3IH9TRB0FBLK6RLF7MSMKICTGYN1IU","url":"https://gershmanlab.com/experiments/alicia/teaching/experiment/?hitId=3IH9TRB0FBLK6RLF7MSMKICTGYN1IU&workerId=A1K8VUKRL53OX&assignmentId=3JV9LGBJWU0TSCKFE2VW0L88THJOGA&a=JLVJ3&tp_a=JLVJ3&b=3JV9LGBJWU0TSCKFE2VW0L88THJOGA&tp_b=3JV9LGBJWU0TSCKFE2VW0L88THJOGA&c=365633&tp_c=365633","firstResponseHeads":2,"firstResponseTails":2,"secondResponseHeads":2,"secondResponseTails":2,"totalHeads":4,"totalTails":4,"studentIndex":23,"studentTrueHypers":{"a":8,"b":2},"studentGuess":0.6666666666666666,"delta":0.13333333333333341,"bonus":0,"bonusSoFar":2.4,"totalExamples":8},{"rt":14041,"response":{"gender":"male","age":"30","understood":"yes","comments":"no"},"type":"response","trial_type":"survey-html-form","trial_index":198,"time_elapsed":3917047,"internal_node_id":"0.0-191.0","params":{"nStudents":24,"maxFlips":25,"completionMinutes":45,"basePay":8,"maxBonus":9,"perTrialBonus":0.5,"perTrialBonusThreshold":0.05,"exampleCost":0.02},"classroomParams":{"A":{"a":1,"b":4},"B":{"a":4,"b":1},"C":{"a":2,"b":8},"D":{"a":8,"b":2}},"conditions":["nonSeqFull","nonSeqPartial","seqNoFeedback","seqFeedback"],"classroomPairings":[["A","B"],["C","D"]],"coinWeights":[0.2,0.5,0.8],"subjectId":"A1K8VUKRL53OX","assignmentId":"3JV9LGBJWU0TSCKFE2VW0L88THJOGA","hitId":"3IH9TRB0FBLK6RLF7MSMKICTGYN1IU","url":"https://gershmanlab.com/experiments/alicia/teaching/experiment/?hitId=3IH9TRB0FBLK6RLF7MSMKICTGYN1IU&workerId=A1K8VUKRL53OX&assignmentId=3JV9LGBJWU0TSCKFE2VW0L88THJOGA&a=JLVJ3&tp_a=JLVJ3&b=3JV9LGBJWU0TSCKFE2VW0L88THJOGA&tp_b=3JV9LGBJWU0TSCKFE2VW0L88THJOGA&c=365633&tp_c=365633","totalBonus":2.4}]