[{"rt":24450,"response":{"heads":"0","tails":"0"},"type":"response","condition":"seqNoFeedback","trueTheta":0.2,"classrooms":["C","D"],"studentTrueClassroom":"D","exampleSet":"first","trial_type":"survey-html-form","trial_index":7,"time_elapsed":95169,"internal_node_id":"0.0-6.0-0.0","params":{"nStudents":24,"maxFlips":25,"completionMinutes":45,"basePay":8,"maxBonus":9,"perTrialBonus":0.5,"perTrialBonusThreshold":0.05,"exampleCost":0.02},"classroomParams":{"A":{"a":1,"b":4},"B":{"a":4,"b":1},"C":{"a":2,"b":8},"D":{"a":8,"b":2}},"conditions":["nonSeqFull","nonSeqPartial","seqNoFeedback","seqFeedback"],"classroomPairings":[["A","B"],["C","D"]],"coinWeights":[0.2,0.5,0.8],"subjectId":"A1OZPLHNIU1519","assignmentId":"3HFNH7HEMI0WDOXVTFN0PQ388I1GQA","hitId":"3XUY87HIVP03YZXVLN9CW37DVI1MM2","url":"https://gershmanlab.com/experiments/alicia/teaching/experiment/?hitId=3XUY87HIVP03YZXVLN9CW37DVI1MM2&workerId=A1OZPLHNIU1519&assignmentId=3HFNH7HEMI0WDOXVTFN0PQ388I1GQA&a=EHFH3&tp_a=EHFH3&b=3HFNH7HEMI0WDOXVTFN0PQ388I1GQA&tp_b=3HFNH7HEMI0WDOXVTFN0PQ388I1GQA&c=365633&tp_c=365633","heads":0,"tails":0,"studentIndex":0,"studentTrueHypers":{"a":8,"b":2},"studentGuess":0.8,"delta":0.6000000000000001,"totalExamples":0,"bonusSoFar":0},{"rt":31115,"response":{"heads":"0","tails":"0"},"type":"response","condition":"seqNoFeedback","trueTheta":0.2,"classrooms":["C","D"],"studentTrueClassroom":"D","exampleSet":"first","trial_type":"survey-html-form","trial_index":8,"time_elapsed":126286,"internal_node_id":"0.0-6.1-0.1","params":{"nStudents":24,"maxFlips":25,"completionMinutes":45,"basePay":8,"maxBonus":9,"perTrialBonus":0.5,"perTrialBonusThreshold":0.05,"exampleCost":0.02},"classroomParams":{"A":{"a":1,"b":4},"B":{"a":4,"b":1},"C":{"a":2,"b":8},"D":{"a":8,"b":2}},"conditions":["nonSeqFull","nonSeqPartial","seqNoFeedback","seqFeedback"],"classroomPairings":[["A","B"],["C","D"]],"coinWeights":[0.2,0.5,0.8],"subjectId":"A1OZPLHNIU1519","assignmentId":"3HFNH7HEMI0WDOXVTFN0PQ388I1GQA","hitId":"3XUY87HIVP03YZXVLN9CW37DVI1MM2","url":"https://gershmanlab.com/experiments/alicia/teaching/experiment/?hitId=3XUY87HIVP03YZXVLN9CW37DVI1MM2&workerId=A1OZPLHNIU1519&assignmentId=3HFNH7HEMI0WDOXVTFN0PQ388I1GQA&a=EHFH3&tp_a=EHFH3&b=3HFNH7HEMI0WDOXVTFN0PQ388I1GQA&tp_b=3HFNH7HEMI0WDOXVTFN0PQ388I1GQA&c=365633&tp_c=365633","heads":0,"tails":0,"studentIndex":0,"studentTrueHypers":{"a":8,"b":2},"studentGuess":0.8,"delta":0.6000000000000001,"totalExamples":0,"bonusSoFar":0},{"rt":816,"response":{"heads":"0","tails":"0"},"type":"response","condition":"seqNoFeedback","trueTheta":0.2,"classrooms":["C","D"],"studentTrueClassroom":"D","exampleSet":"first","trial_type":"survey-html-form","trial_index":9,"time_elapsed":127103,"internal_node_id":"0.0-6.2-0.2","params":{"nStudents":24,"maxFlips":25,"completionMinutes":45,"basePay":8,"maxBonus":9,"perTrialBonus":0.5,"perTrialBonusThreshold":0.05,"exampleCost":0.02},"classroomParams":{"A":{"a":1,"b":4},"B":{"a":4,"b":1},"C":{"a":2,"b":8},"D":{"a":8,"b":2}},"conditions":["nonSeqFull","nonSeqPartial","seqNoFeedback","seqFeedback"],"classroomPairings":[["A","B"],["C","D"]],"coinWeights":[0.2,0.5,0.8],"subjectId":"A1OZPLHNIU1519","assignmentId":"3HFNH7HEMI0WDOXVTFN0PQ388I1GQA","hitId":"3XUY87HIVP03YZXVLN9CW37DVI1MM2","url":"https://gershmanlab.com/experiments/alicia/teaching/experiment/?hitId=3XUY87HIVP03YZXVLN9CW37DVI1MM2&workerId=A1OZPLHNIU1519&assignmentId=3HFNH7HEMI0WDOXVTFN0PQ388I1GQA&a=EHFH3&tp_a=EHFH3&b=3HFNH7HEMI0WDOXVTFN0PQ388I1GQA&tp_b=3HFNH7HEMI0WDOXVTFN0PQ388I1GQA&c=365633&tp_c=365633","heads":0,"tails":0,"studentIndex":0,"studentTrueHypers":{"a":8,"b":2},"studentGuess":0.8,"delta":0.6000000000000001,"totalExamples":0,"bonusSoFar":0},{"rt":447,"response":{"heads":"0","tails":"0"},"type":"response","condition":"seqNoFeedback","trueTheta":0.2,"classrooms":["C","D"],"studentTrueClassroom":"D","exampleSet":"first","trial_type":"survey-html-form","trial_index":10,"time_elapsed":127551,"internal_node_id":"0.0-6.3-0.3","params":{"nStudents":24,"maxFlips":25,"completionMinutes":45,"basePay":8,"maxBonus":9,"perTrialBonus":0.5,"perTrialBonusThreshold":0.05,"exampleCost":0.02},"classroomParams":{"A":{"a":1,"b":4},"B":{"a":4,"b":1},"C":{"a":2,"b":8},"D":{"a":8,"b":2}},"conditions":["nonSeqFull","nonSeqPartial","seqNoFeedback","seqFeedback"],"classroomPairings":[["A","B"],["C","D"]],"coinWeights":[0.2,0.5,0.8],"subjectId":"A1OZPLHNIU1519","assignmentId":"3HFNH7HEMI0WDOXVTFN0PQ388I1GQA","hitId":"3XUY87HIVP03YZXVLN9CW37DVI1MM2","url":"https://gershmanlab.com/experiments/alicia/teaching/experiment/?hitId=3XUY87HIVP03YZXVLN9CW37DVI1MM2&workerId=A1OZPLHNIU1519&assignmentId=3HFNH7HEMI0WDOXVTFN0PQ388I1GQA&a=EHFH3&tp_a=EHFH3&b=3HFNH7HEMI0WDOXVTFN0PQ388I1GQA&tp_b=3HFNH7HEMI0WDOXVTFN0PQ388I1GQA&c=365633&tp_c=365633","heads":0,"tails":0,"studentIndex":0,"studentTrueHypers":{"a":8,"b":2},"studentGuess":0.8,"delta":0.6000000000000001,"totalExamples":0,"bonusSoFar":0},{"rt":16967,"response":{"heads":"2","tails":"8"},"type":"response","condition":"seqNoFeedback","trueTheta":0.2,"classrooms":["C","D"],"studentTrueClassroom":"D","exampleSet":"first","trial_type":"survey-html-form","trial_index":11,"time_elapsed":144519,"internal_node_id":"0.0-6.4-0.4","params":{"nStudents":24,"maxFlips":25,"completionMinutes":45,"basePay":8,"maxBonus":9,"perTrialBonus":0.5,"perTrialBonusThreshold":0.05,"exampleCost":0.02},"classroomParams":{"A":{"a":1,"b":4},"B":{"a":4,"b":1},"C":{"a":2,"b":8},"D":{"a":8,"b":2}},"conditions":["nonSeqFull","nonSeqPartial","seqNoFeedback","seqFeedback"],"classroomPairings":[["A","B"],["C","D"]],"coinWeights":[0.2,0.5,0.8],"subjectId":"A1OZPLHNIU1519","assignmentId":"3HFNH7HEMI0WDOXVTFN0PQ388I1GQA","hitId":"3XUY87HIVP03YZXVLN9CW37DVI1MM2","url":"https://gershmanlab.com/experiments/alicia/teaching/experiment/?hitId=3XUY87HIVP03YZXVLN9CW37DVI1MM2&workerId=A1OZPLHNIU1519&assignmentId=3HFNH7HEMI0WDOXVTFN0PQ388I1GQA&a=EHFH3&tp_a=EHFH3&b=3HFNH7HEMI0WDOXVTFN0PQ388I1GQA&tp_b=3HFNH7HEMI0WDOXVTFN0PQ388I1GQA&c=365633&tp_c=365633","heads":2,"tails":8,"studentIndex":0,"studentTrueHypers":{"a":8,"b":2},"studentGuess":0.5,"delta":0.3,"totalExamples":10,"bonusSoFar":0},{"rt":21627,"response":{"heads":"2","tails":"8"},"type":"response","condition":"seqNoFeedback","trueTheta":0.2,"classrooms":["C","D"],"studentTrueClassroom":"D","exampleSet":"second","trial_type":"survey-html-form","trial_index":14,"time_elapsed":172920,"internal_node_id":"0.0-9.0-0.0","params":{"nStudents":24,"maxFlips":25,"completionMinutes":45,"basePay":8,"maxBonus":9,"perTrialBonus":0.5,"perTrialBonusThreshold":0.05,"exampleCost":0.02},"classroomParams":{"A":{"a":1,"b":4},"B":{"a":4,"b":1},"C":{"a":2,"b":8},"D":{"a":8,"b":2}},"conditions":["nonSeqFull","nonSeqPartial","seqNoFeedback","seqFeedback"],"classroomPairings":[["A","B"],["C","D"]],"coinWeights":[0.2,0.5,0.8],"subjectId":"A1OZPLHNIU1519","assignmentId":"3HFNH7HEMI0WDOXVTFN0PQ388I1GQA","hitId":"3XUY87HIVP03YZXVLN9CW37DVI1MM2","url":"https://gershmanlab.com/experiments/alicia/teaching/experiment/?hitId=3XUY87HIVP03YZXVLN9CW37DVI1MM2&workerId=A1OZPLHNIU1519&assignmentId=3HFNH7HEMI0WDOXVTFN0PQ388I1GQA&a=EHFH3&tp_a=EHFH3&b=3HFNH7HEMI0WDOXVTFN0PQ388I1GQA&tp_b=3HFNH7HEMI0WDOXVTFN0PQ388I1GQA&c=365633&tp_c=365633","firstResponseHeads":0,"firstResponseTails":0,"secondResponseHeads":2,"secondResponseTails":8,"totalHeads":2,"totalTails":8,"studentIndex":0,"studentTrueHypers":{"a":8,"b":2},"studentGuess":0.5,"delta":0.3,"bonus":0,"bonusSoFar":0,"totalExamples":10},{"rt":18073,"response":{"heads":"6","tails":"0"},"type":"response","condition":"seqFeedback","trueTheta":0.5,"classrooms":["C","D"],"studentTrueClassroom":"C","exampleSet":"first","trial_type":"survey-html-form","trial_index":20,"time_elapsed":214560,"internal_node_id":"0.0-15.0-0.0","params":{"nStudents":24,"maxFlips":25,"completionMinutes":45,"basePay":8,"maxBonus":9,"perTrialBonus":0.5,"perTrialBonusThreshold":0.05,"exampleCost":0.02},"classroomParams":{"A":{"a":1,"b":4},"B":{"a":4,"b":1},"C":{"a":2,"b":8},"D":{"a":8,"b":2}},"conditions":["nonSeqFull","nonSeqPartial","seqNoFeedback","seqFeedback"],"classroomPairings":[["A","B"],["C","D"]],"coinWeights":[0.2,0.5,0.8],"subjectId":"A1OZPLHNIU1519","assignmentId":"3HFNH7HEMI0WDOXVTFN0PQ388I1GQA","hitId":"3XUY87HIVP03YZXVLN9CW37DVI1MM2","url":"https://gershmanlab.com/experiments/alicia/teaching/experiment/?hitId=3XUY87HIVP03YZXVLN9CW37DVI1MM2&workerId=A1OZPLHNIU1519&assignmentId=3HFNH7HEMI0WDOXVTFN0PQ388I1GQA&a=EHFH3&tp_a=EHFH3&b=3HFNH7HEMI0WDOXVTFN0PQ388I1GQA&tp_b=3HFNH7HEMI0WDOXVTFN0PQ388I1GQA&c=365633&tp_c=365633","heads":6,"tails":0,"studentIndex":1,"studentTrueHypers":{"a":2,"b":8},"studentGuess":0.5,"delta":0,"totalExamples":6,"bonusSoFar":0},{"rt":20641,"response":{"heads":"1","tails":"1"},"type":"response","condition":"seqFeedback","trueTheta":0.5,"classrooms":["C","D"],"studentTrueClassroom":"C","exampleSet":"second","trial_type":"survey-html-form","trial_index":24,"time_elapsed":247813,"internal_node_id":"0.0-19.0-0.0","params":{"nStudents":24,"maxFlips":25,"completionMinutes":45,"basePay":8,"maxBonus":9,"perTrialBonus":0.5,"perTrialBonusThreshold":0.05,"exampleCost":0.02},"classroomParams":{"A":{"a":1,"b":4},"B":{"a":4,"b":1},"C":{"a":2,"b":8},"D":{"a":8,"b":2}},"conditions":["nonSeqFull","nonSeqPartial","seqNoFeedback","seqFeedback"],"classroomPairings":[["A","B"],["C","D"]],"coinWeights":[0.2,0.5,0.8],"subjectId":"A1OZPLHNIU1519","assignmentId":"3HFNH7HEMI0WDOXVTFN0PQ388I1GQA","hitId":"3XUY87HIVP03YZXVLN9CW37DVI1MM2","url":"https://gershmanlab.com/experiments/alicia/teaching/experiment/?hitId=3XUY87HIVP03YZXVLN9CW37DVI1MM2&workerId=A1OZPLHNIU1519&assignmentId=3HFNH7HEMI0WDOXVTFN0PQ388I1GQA&a=EHFH3&tp_a=EHFH3&b=3HFNH7HEMI0WDOXVTFN0PQ388I1GQA&tp_b=3HFNH7HEMI0WDOXVTFN0PQ388I1GQA&c=365633&tp_c=365633","firstResponseHeads":6,"firstResponseTails":0,"secondResponseHeads":1,"secondResponseTails":1,"totalHeads":7,"totalTails":1,"studentIndex":1,"studentTrueHypers":{"a":2,"b":8},"studentGuess":0.5,"delta":0,"bonus":0.34,"bonusSoFar":0.34,"totalExamples":8},{"rt":40446,"response":{"heads":"19","tails":"0"},"type":"response","condition":"nonSeqFull","trueTheta":0.8,"classrooms":["A","B"],"studentTrueClassroom":"A","exampleSet":"first","trial_type":"survey-html-form","trial_index":30,"time_elapsed":305264,"internal_node_id":"0.0-25.0-0.0","params":{"nStudents":24,"maxFlips":25,"completionMinutes":45,"basePay":8,"maxBonus":9,"perTrialBonus":0.5,"perTrialBonusThreshold":0.05,"exampleCost":0.02},"classroomParams":{"A":{"a":1,"b":4},"B":{"a":4,"b":1},"C":{"a":2,"b":8},"D":{"a":8,"b":2}},"conditions":["nonSeqFull","nonSeqPartial","seqNoFeedback","seqFeedback"],"classroomPairings":[["A","B"],["C","D"]],"coinWeights":[0.2,0.5,0.8],"subjectId":"A1OZPLHNIU1519","assignmentId":"3HFNH7HEMI0WDOXVTFN0PQ388I1GQA","hitId":"3XUY87HIVP03YZXVLN9CW37DVI1MM2","url":"https://gershmanlab.com/experiments/alicia/teaching/experiment/?hitId=3XUY87HIVP03YZXVLN9CW37DVI1MM2&workerId=A1OZPLHNIU1519&assignmentId=3HFNH7HEMI0WDOXVTFN0PQ388I1GQA&a=EHFH3&tp_a=EHFH3&b=3HFNH7HEMI0WDOXVTFN0PQ388I1GQA&tp_b=3HFNH7HEMI0WDOXVTFN0PQ388I1GQA&c=365633&tp_c=365633","heads":19,"tails":0,"studentIndex":2,"studentTrueHypers":{"a":1,"b":4},"studentGuess":0.8333333333333334,"delta":0.033333333333333326,"totalExamples":19,"bonus":0.12,"bonusSoFar":0.46},{"rt":15217,"response":{"heads":"4","tails":"0"},"type":"response","condition":"seqFeedback","trueTheta":0.5,"classrooms":["A","B"],"studentTrueClassroom":"B","exampleSet":"first","trial_type":"survey-html-form","trial_index":36,"time_elapsed":339047,"internal_node_id":"0.0-31.0-0.0","params":{"nStudents":24,"maxFlips":25,"completionMinutes":45,"basePay":8,"maxBonus":9,"perTrialBonus":0.5,"perTrialBonusThreshold":0.05,"exampleCost":0.02},"classroomParams":{"A":{"a":1,"b":4},"B":{"a":4,"b":1},"C":{"a":2,"b":8},"D":{"a":8,"b":2}},"conditions":["nonSeqFull","nonSeqPartial","seqNoFeedback","seqFeedback"],"classroomPairings":[["A","B"],["C","D"]],"coinWeights":[0.2,0.5,0.8],"subjectId":"A1OZPLHNIU1519","assignmentId":"3HFNH7HEMI0WDOXVTFN0PQ388I1GQA","hitId":"3XUY87HIVP03YZXVLN9CW37DVI1MM2","url":"https://gershmanlab.com/experiments/alicia/teaching/experiment/?hitId=3XUY87HIVP03YZXVLN9CW37DVI1MM2&workerId=A1OZPLHNIU1519&assignmentId=3HFNH7HEMI0WDOXVTFN0PQ388I1GQA&a=EHFH3&tp_a=EHFH3&b=3HFNH7HEMI0WDOXVTFN0PQ388I1GQA&tp_b=3HFNH7HEMI0WDOXVTFN0PQ388I1GQA&c=365633&tp_c=365633","heads":4,"tails":0,"studentIndex":3,"studentTrueHypers":{"a":4,"b":1},"studentGuess":0.8888888888888888,"delta":0.38888888888888884,"totalExamples":4,"bonusSoFar":0.46},{"rt":24383,"response":{"heads":"0","tails":"7"},"type":"response","condition":"seqFeedback","trueTheta":0.5,"classrooms":["A","B"],"studentTrueClassroom":"B","exampleSet":"second","trial_type":"survey-html-form","trial_index":40,"time_elapsed":375371,"internal_node_id":"0.0-35.0-0.0","params":{"nStudents":24,"maxFlips":25,"completionMinutes":45,"basePay":8,"maxBonus":9,"perTrialBonus":0.5,"perTrialBonusThreshold":0.05,"exampleCost":0.02},"classroomParams":{"A":{"a":1,"b":4},"B":{"a":4,"b":1},"C":{"a":2,"b":8},"D":{"a":8,"b":2}},"conditions":["nonSeqFull","nonSeqPartial","seqNoFeedback","seqFeedback"],"classroomPairings":[["A","B"],["C","D"]],"coinWeights":[0.2,0.5,0.8],"subjectId":"A1OZPLHNIU1519","assignmentId":"3HFNH7HEMI0WDOXVTFN0PQ388I1GQA","hitId":"3XUY87HIVP03YZXVLN9CW37DVI1MM2","url":"https://gershmanlab.com/experiments/alicia/teaching/experiment/?hitId=3XUY87HIVP03YZXVLN9CW37DVI1MM2&workerId=A1OZPLHNIU1519&assignmentId=3HFNH7HEMI0WDOXVTFN0PQ388I1GQA&a=EHFH3&tp_a=EHFH3&b=3HFNH7HEMI0WDOXVTFN0PQ388I1GQA&tp_b=3HFNH7HEMI0WDOXVTFN0PQ388I1GQA&c=365633&tp_c=365633","firstResponseHeads":4,"firstResponseTails":0,"secondResponseHeads":0,"secondResponseTails":7,"totalHeads":4,"totalTails":7,"studentIndex":3,"studentTrueHypers":{"a":4,"b":1},"studentGuess":0.5,"delta":0,"bonus":0.28,"bonusSoFar":0.74,"totalExamples":11},{"rt":13541,"response":{"heads":"6","tails":"0"},"type":"response","condition":"nonSeqFull","trueTheta":0.5,"classrooms":["C","D"],"studentTrueClassroom":"C","exampleSet":"first","trial_type":"survey-html-form","trial_index":46,"time_elapsed":404409,"internal_node_id":"0.0-41.0-0.0","params":{"nStudents":24,"maxFlips":25,"completionMinutes":45,"basePay":8,"maxBonus":9,"perTrialBonus":0.5,"perTrialBonusThreshold":0.05,"exampleCost":0.02},"classroomParams":{"A":{"a":1,"b":4},"B":{"a":4,"b":1},"C":{"a":2,"b":8},"D":{"a":8,"b":2}},"conditions":["nonSeqFull","nonSeqPartial","seqNoFeedback","seqFeedback"],"classroomPairings":[["A","B"],["C","D"]],"coinWeights":[0.2,0.5,0.8],"subjectId":"A1OZPLHNIU1519","assignmentId":"3HFNH7HEMI0WDOXVTFN0PQ388I1GQA","hitId":"3XUY87HIVP03YZXVLN9CW37DVI1MM2","url":"https://gershmanlab.com/experiments/alicia/teaching/experiment/?hitId=3XUY87HIVP03YZXVLN9CW37DVI1MM2&workerId=A1OZPLHNIU1519&assignmentId=3HFNH7HEMI0WDOXVTFN0PQ388I1GQA&a=EHFH3&tp_a=EHFH3&b=3HFNH7HEMI0WDOXVTFN0PQ388I1GQA&tp_b=3HFNH7HEMI0WDOXVTFN0PQ388I1GQA&c=365633&tp_c=365633","heads":6,"tails":0,"studentIndex":4,"studentTrueHypers":{"a":2,"b":8},"studentGuess":0.5,"delta":0,"totalExamples":6,"bonus":0.38,"bonusSoFar":1.12},{"rt":13595,"response":{"heads":"3","tails":"0"},"type":"response","condition":"nonSeqPartial","trueTheta":0.5,"classrooms":["A","B"],"studentTrueClassroom":"B","exampleSet":"first","trial_type":"survey-html-form","trial_index":52,"time_elapsed":432941,"internal_node_id":"0.0-47.0-0.0","params":{"nStudents":24,"maxFlips":25,"completionMinutes":45,"basePay":8,"maxBonus":9,"perTrialBonus":0.5,"perTrialBonusThreshold":0.05,"exampleCost":0.02},"classroomParams":{"A":{"a":1,"b":4},"B":{"a":4,"b":1},"C":{"a":2,"b":8},"D":{"a":8,"b":2}},"conditions":["nonSeqFull","nonSeqPartial","seqNoFeedback","seqFeedback"],"classroomPairings":[["A","B"],["C","D"]],"coinWeights":[0.2,0.5,0.8],"subjectId":"A1OZPLHNIU1519","assignmentId":"3HFNH7HEMI0WDOXVTFN0PQ388I1GQA","hitId":"3XUY87HIVP03YZXVLN9CW37DVI1MM2","url":"https://gershmanlab.com/experiments/alicia/teaching/experiment/?hitId=3XUY87HIVP03YZXVLN9CW37DVI1MM2&workerId=A1OZPLHNIU1519&assignmentId=3HFNH7HEMI0WDOXVTFN0PQ388I1GQA&a=EHFH3&tp_a=EHFH3&b=3HFNH7HEMI0WDOXVTFN0PQ388I1GQA&tp_b=3HFNH7HEMI0WDOXVTFN0PQ388I1GQA&c=365633&tp_c=365633","heads":3,"tails":0,"studentIndex":5,"studentTrueHypers":{"a":4,"b":1},"studentGuess":0.875,"delta":0.375,"totalExamples":3,"bonus":0,"bonusSoFar":1.12},{"rt":56466,"response":{"heads":"1","tails":"4"},"type":"response","condition":"nonSeqPartial","trueTheta":0.2,"classrooms":["A","B"],"studentTrueClassroom":"A","exampleSet":"first","trial_type":"survey-html-form","trial_index":58,"time_elapsed":503953,"internal_node_id":"0.0-53.0-0.0","params":{"nStudents":24,"maxFlips":25,"completionMinutes":45,"basePay":8,"maxBonus":9,"perTrialBonus":0.5,"perTrialBonusThreshold":0.05,"exampleCost":0.02},"classroomParams":{"A":{"a":1,"b":4},"B":{"a":4,"b":1},"C":{"a":2,"b":8},"D":{"a":8,"b":2}},"conditions":["nonSeqFull","nonSeqPartial","seqNoFeedback","seqFeedback"],"classroomPairings":[["A","B"],["C","D"]],"coinWeights":[0.2,0.5,0.8],"subjectId":"A1OZPLHNIU1519","assignmentId":"3HFNH7HEMI0WDOXVTFN0PQ388I1GQA","hitId":"3XUY87HIVP03YZXVLN9CW37DVI1MM2","url":"https://gershmanlab.com/experiments/alicia/teaching/experiment/?hitId=3XUY87HIVP03YZXVLN9CW37DVI1MM2&workerId=A1OZPLHNIU1519&assignmentId=3HFNH7HEMI0WDOXVTFN0PQ388I1GQA&a=EHFH3&tp_a=EHFH3&b=3HFNH7HEMI0WDOXVTFN0PQ388I1GQA&tp_b=3HFNH7HEMI0WDOXVTFN0PQ388I1GQA&c=365633&tp_c=365633","heads":1,"tails":4,"studentIndex":6,"studentTrueHypers":{"a":1,"b":4},"studentGuess":0.2,"delta":0,"totalExamples":5,"bonus":0.4,"bonusSoFar":1.52},{"rt":25138,"response":{"heads":"1","tails":"0"},"type":"response","condition":"seqFeedback","trueTheta":0.8,"classrooms":["A","B"],"studentTrueClassroom":"B","exampleSet":"first","trial_type":"survey-html-form","trial_index":64,"time_elapsed":552553,"internal_node_id":"0.0-59.0-0.0","params":{"nStudents":24,"maxFlips":25,"completionMinutes":45,"basePay":8,"maxBonus":9,"perTrialBonus":0.5,"perTrialBonusThreshold":0.05,"exampleCost":0.02},"classroomParams":{"A":{"a":1,"b":4},"B":{"a":4,"b":1},"C":{"a":2,"b":8},"D":{"a":8,"b":2}},"conditions":["nonSeqFull","nonSeqPartial","seqNoFeedback","seqFeedback"],"classroomPairings":[["A","B"],["C","D"]],"coinWeights":[0.2,0.5,0.8],"subjectId":"A1OZPLHNIU1519","assignmentId":"3HFNH7HEMI0WDOXVTFN0PQ388I1GQA","hitId":"3XUY87HIVP03YZXVLN9CW37DVI1MM2","url":"https://gershmanlab.com/experiments/alicia/teaching/experiment/?hitId=3XUY87HIVP03YZXVLN9CW37DVI1MM2&workerId=A1OZPLHNIU1519&assignmentId=3HFNH7HEMI0WDOXVTFN0PQ388I1GQA&a=EHFH3&tp_a=EHFH3&b=3HFNH7HEMI0WDOXVTFN0PQ388I1GQA&tp_b=3HFNH7HEMI0WDOXVTFN0PQ388I1GQA&c=365633&tp_c=365633","heads":1,"tails":0,"studentIndex":7,"studentTrueHypers":{"a":4,"b":1},"studentGuess":0.8333333333333334,"delta":0.033333333333333326,"totalExamples":1,"bonusSoFar":1.52},{"rt":29781,"response":{"heads":"0","tails":"1"},"type":"response","condition":"seqFeedback","trueTheta":0.8,"classrooms":["A","B"],"studentTrueClassroom":"B","exampleSet":"second","trial_type":"survey-html-form","trial_index":68,"time_elapsed":596225,"internal_node_id":"0.0-63.0-0.0","params":{"nStudents":24,"maxFlips":25,"completionMinutes":45,"basePay":8,"maxBonus":9,"perTrialBonus":0.5,"perTrialBonusThreshold":0.05,"exampleCost":0.02},"classroomParams":{"A":{"a":1,"b":4},"B":{"a":4,"b":1},"C":{"a":2,"b":8},"D":{"a":8,"b":2}},"conditions":["nonSeqFull","nonSeqPartial","seqNoFeedback","seqFeedback"],"classroomPairings":[["A","B"],["C","D"]],"coinWeights":[0.2,0.5,0.8],"subjectId":"A1OZPLHNIU1519","assignmentId":"3HFNH7HEMI0WDOXVTFN0PQ388I1GQA","hitId":"3XUY87HIVP03YZXVLN9CW37DVI1MM2","url":"https://gershmanlab.com/experiments/alicia/teaching/experiment/?hitId=3XUY87HIVP03YZXVLN9CW37DVI1MM2&workerId=A1OZPLHNIU1519&assignmentId=3HFNH7HEMI0WDOXVTFN0PQ388I1GQA&a=EHFH3&tp_a=EHFH3&b=3HFNH7HEMI0WDOXVTFN0PQ388I1GQA&tp_b=3HFNH7HEMI0WDOXVTFN0PQ388I1GQA&c=365633&tp_c=365633","firstResponseHeads":1,"firstResponseTails":0,"secondResponseHeads":0,"secondResponseTails":1,"totalHeads":1,"totalTails":1,"studentIndex":7,"studentTrueHypers":{"a":4,"b":1},"studentGuess":0.7142857142857143,"delta":0.08571428571428574,"bonus":0,"bonusSoFar":1.52,"totalExamples":2},{"rt":19480,"response":{"heads":"6","tails":"0"},"type":"response","condition":"seqNoFeedback","trueTheta":0.5,"classrooms":["C","D"],"studentTrueClassroom":"C","exampleSet":"first","trial_type":"survey-html-form","trial_index":74,"time_elapsed":632927,"internal_node_id":"0.0-69.0-0.0","params":{"nStudents":24,"maxFlips":25,"completionMinutes":45,"basePay":8,"maxBonus":9,"perTrialBonus":0.5,"perTrialBonusThreshold":0.05,"exampleCost":0.02},"classroomParams":{"A":{"a":1,"b":4},"B":{"a":4,"b":1},"C":{"a":2,"b":8},"D":{"a":8,"b":2}},"conditions":["nonSeqFull","nonSeqPartial","seqNoFeedback","seqFeedback"],"classroomPairings":[["A","B"],["C","D"]],"coinWeights":[0.2,0.5,0.8],"subjectId":"A1OZPLHNIU1519","assignmentId":"3HFNH7HEMI0WDOXVTFN0PQ388I1GQA","hitId":"3XUY87HIVP03YZXVLN9CW37DVI1MM2","url":"https://gershmanlab.com/experiments/alicia/teaching/experiment/?hitId=3XUY87HIVP03YZXVLN9CW37DVI1MM2&workerId=A1OZPLHNIU1519&assignmentId=3HFNH7HEMI0WDOXVTFN0PQ388I1GQA&a=EHFH3&tp_a=EHFH3&b=3HFNH7HEMI0WDOXVTFN0PQ388I1GQA&tp_b=3HFNH7HEMI0WDOXVTFN0PQ388I1GQA&c=365633&tp_c=365633","heads":6,"tails":0,"studentIndex":8,"studentTrueHypers":{"a":2,"b":8},"studentGuess":0.5,"delta":0,"totalExamples":6,"bonusSoFar":1.52},{"rt":18424,"response":{"heads":"0","tails":"1"},"type":"response","condition":"seqNoFeedback","trueTheta":0.5,"classrooms":["C","D"],"studentTrueClassroom":"C","exampleSet":"second","trial_type":"survey-html-form","trial_index":77,"time_elapsed":658134,"internal_node_id":"0.0-72.0-0.0","params":{"nStudents":24,"maxFlips":25,"completionMinutes":45,"basePay":8,"maxBonus":9,"perTrialBonus":0.5,"perTrialBonusThreshold":0.05,"exampleCost":0.02},"classroomParams":{"A":{"a":1,"b":4},"B":{"a":4,"b":1},"C":{"a":2,"b":8},"D":{"a":8,"b":2}},"conditions":["nonSeqFull","nonSeqPartial","seqNoFeedback","seqFeedback"],"classroomPairings":[["A","B"],["C","D"]],"coinWeights":[0.2,0.5,0.8],"subjectId":"A1OZPLHNIU1519","assignmentId":"3HFNH7HEMI0WDOXVTFN0PQ388I1GQA","hitId":"3XUY87HIVP03YZXVLN9CW37DVI1MM2","url":"https://gershmanlab.com/experiments/alicia/teaching/experiment/?hitId=3XUY87HIVP03YZXVLN9CW37DVI1MM2&workerId=A1OZPLHNIU1519&assignmentId=3HFNH7HEMI0WDOXVTFN0PQ388I1GQA&a=EHFH3&tp_a=EHFH3&b=3HFNH7HEMI0WDOXVTFN0PQ388I1GQA&tp_b=3HFNH7HEMI0WDOXVTFN0PQ388I1GQA&c=365633&tp_c=365633","firstResponseHeads":6,"firstResponseTails":0,"secondResponseHeads":0,"secondResponseTails":1,"totalHeads":6,"totalTails":1,"studentIndex":8,"studentTrueHypers":{"a":2,"b":8},"studentGuess":0.47058823529411764,"delta":0.02941176470588236,"bonus":0.36,"bonusSoFar":1.88,"totalExamples":7},{"rt":11446,"response":{"heads":"3","tails":"0"},"type":"response","condition":"seqNoFeedback","trueTheta":0.5,"classrooms":["A","B"],"studentTrueClassroom":"B","exampleSet":"first","trial_type":"survey-html-form","trial_index":83,"time_elapsed":684269,"internal_node_id":"0.0-78.0-0.0","params":{"nStudents":24,"maxFlips":25,"completionMinutes":45,"basePay":8,"maxBonus":9,"perTrialBonus":0.5,"perTrialBonusThreshold":0.05,"exampleCost":0.02},"classroomParams":{"A":{"a":1,"b":4},"B":{"a":4,"b":1},"C":{"a":2,"b":8},"D":{"a":8,"b":2}},"conditions":["nonSeqFull","nonSeqPartial","seqNoFeedback","seqFeedback"],"classroomPairings":[["A","B"],["C","D"]],"coinWeights":[0.2,0.5,0.8],"subjectId":"A1OZPLHNIU1519","assignmentId":"3HFNH7HEMI0WDOXVTFN0PQ388I1GQA","hitId":"3XUY87HIVP03YZXVLN9CW37DVI1MM2","url":"https://gershmanlab.com/experiments/alicia/teaching/experiment/?hitId=3XUY87HIVP03YZXVLN9CW37DVI1MM2&workerId=A1OZPLHNIU1519&assignmentId=3HFNH7HEMI0WDOXVTFN0PQ388I1GQA&a=EHFH3&tp_a=EHFH3&b=3HFNH7HEMI0WDOXVTFN0PQ388I1GQA&tp_b=3HFNH7HEMI0WDOXVTFN0PQ388I1GQA&c=365633&tp_c=365633","heads":3,"tails":0,"studentIndex":9,"studentTrueHypers":{"a":4,"b":1},"studentGuess":0.875,"delta":0.375,"totalExamples":3,"bonusSoFar":1.88},{"rt":26842,"response":{"heads":"1","tails":"1"},"type":"response","condition":"seqNoFeedback","trueTheta":0.5,"classrooms":["A","B"],"studentTrueClassroom":"B","exampleSet":"second","trial_type":"survey-html-form","trial_index":86,"time_elapsed":717373,"internal_node_id":"0.0-81.0-0.0","params":{"nStudents":24,"maxFlips":25,"completionMinutes":45,"basePay":8,"maxBonus":9,"perTrialBonus":0.5,"perTrialBonusThreshold":0.05,"exampleCost":0.02},"classroomParams":{"A":{"a":1,"b":4},"B":{"a":4,"b":1},"C":{"a":2,"b":8},"D":{"a":8,"b":2}},"conditions":["nonSeqFull","nonSeqPartial","seqNoFeedback","seqFeedback"],"classroomPairings":[["A","B"],["C","D"]],"coinWeights":[0.2,0.5,0.8],"subjectId":"A1OZPLHNIU1519","assignmentId":"3HFNH7HEMI0WDOXVTFN0PQ388I1GQA","hitId":"3XUY87HIVP03YZXVLN9CW37DVI1MM2","url":"https://gershmanlab.com/experiments/alicia/teaching/experiment/?hitId=3XUY87HIVP03YZXVLN9CW37DVI1MM2&workerId=A1OZPLHNIU1519&assignmentId=3HFNH7HEMI0WDOXVTFN0PQ388I1GQA&a=EHFH3&tp_a=EHFH3&b=3HFNH7HEMI0WDOXVTFN0PQ388I1GQA&tp_b=3HFNH7HEMI0WDOXVTFN0PQ388I1GQA&c=365633&tp_c=365633","firstResponseHeads":3,"firstResponseTails":0,"secondResponseHeads":1,"secondResponseTails":1,"totalHeads":4,"totalTails":1,"studentIndex":9,"studentTrueHypers":{"a":4,"b":1},"studentGuess":0.8,"delta":0.30000000000000004,"bonus":0,"bonusSoFar":1.88,"totalExamples":5},{"rt":52619,"response":{"heads":"19","tails":"0"},"type":"response","condition":"nonSeqFull","trueTheta":0.2,"classrooms":["A","B"],"studentTrueClassroom":"A","exampleSet":"first","trial_type":"survey-html-form","trial_index":92,"time_elapsed":784910,"internal_node_id":"0.0-87.0-0.0","params":{"nStudents":24,"maxFlips":25,"completionMinutes":45,"basePay":8,"maxBonus":9,"perTrialBonus":0.5,"perTrialBonusThreshold":0.05,"exampleCost":0.02},"classroomParams":{"A":{"a":1,"b":4},"B":{"a":4,"b":1},"C":{"a":2,"b":8},"D":{"a":8,"b":2}},"conditions":["nonSeqFull","nonSeqPartial","seqNoFeedback","seqFeedback"],"classroomPairings":[["A","B"],["C","D"]],"coinWeights":[0.2,0.5,0.8],"subjectId":"A1OZPLHNIU1519","assignmentId":"3HFNH7HEMI0WDOXVTFN0PQ388I1GQA","hitId":"3XUY87HIVP03YZXVLN9CW37DVI1MM2","url":"https://gershmanlab.com/experiments/alicia/teaching/experiment/?hitId=3XUY87HIVP03YZXVLN9CW37DVI1MM2&workerId=A1OZPLHNIU1519&assignmentId=3HFNH7HEMI0WDOXVTFN0PQ388I1GQA&a=EHFH3&tp_a=EHFH3&b=3HFNH7HEMI0WDOXVTFN0PQ388I1GQA&tp_b=3HFNH7HEMI0WDOXVTFN0PQ388I1GQA&c=365633&tp_c=365633","heads":19,"tails":0,"studentIndex":10,"studentTrueHypers":{"a":1,"b":4},"studentGuess":0.8333333333333334,"delta":0.6333333333333333,"totalExamples":19,"bonus":0,"bonusSoFar":1.88},{"rt":22465,"response":{"heads":"1","tails":"0"},"type":"response","condition":"nonSeqPartial","trueTheta":0.2,"classrooms":["C","D"],"studentTrueClassroom":"D","exampleSet":"first","trial_type":"survey-html-form","trial_index":98,"time_elapsed":823483,"internal_node_id":"0.0-93.0-0.0","params":{"nStudents":24,"maxFlips":25,"completionMinutes":45,"basePay":8,"maxBonus":9,"perTrialBonus":0.5,"perTrialBonusThreshold":0.05,"exampleCost":0.02},"classroomParams":{"A":{"a":1,"b":4},"B":{"a":4,"b":1},"C":{"a":2,"b":8},"D":{"a":8,"b":2}},"conditions":["nonSeqFull","nonSeqPartial","seqNoFeedback","seqFeedback"],"classroomPairings":[["A","B"],["C","D"]],"coinWeights":[0.2,0.5,0.8],"subjectId":"A1OZPLHNIU1519","assignmentId":"3HFNH7HEMI0WDOXVTFN0PQ388I1GQA","hitId":"3XUY87HIVP03YZXVLN9CW37DVI1MM2","url":"https://gershmanlab.com/experiments/alicia/teaching/experiment/?hitId=3XUY87HIVP03YZXVLN9CW37DVI1MM2&workerId=A1OZPLHNIU1519&assignmentId=3HFNH7HEMI0WDOXVTFN0PQ388I1GQA&a=EHFH3&tp_a=EHFH3&b=3HFNH7HEMI0WDOXVTFN0PQ388I1GQA&tp_b=3HFNH7HEMI0WDOXVTFN0PQ388I1GQA&c=365633&tp_c=365633","heads":1,"tails":0,"studentIndex":11,"studentTrueHypers":{"a":8,"b":2},"studentGuess":0.8181818181818182,"delta":0.6181818181818182,"totalExamples":1,"bonus":0,"bonusSoFar":1.88},{"rt":16516,"response":{"heads":"0","tails":"1"},"type":"response","condition":"seqFeedback","trueTheta":0.2,"classrooms":["A","B"],"studentTrueClassroom":"B","exampleSet":"first","trial_type":"survey-html-form","trial_index":104,"time_elapsed":855473,"internal_node_id":"0.0-99.0-0.0","params":{"nStudents":24,"maxFlips":25,"completionMinutes":45,"basePay":8,"maxBonus":9,"perTrialBonus":0.5,"perTrialBonusThreshold":0.05,"exampleCost":0.02},"classroomParams":{"A":{"a":1,"b":4},"B":{"a":4,"b":1},"C":{"a":2,"b":8},"D":{"a":8,"b":2}},"conditions":["nonSeqFull","nonSeqPartial","seqNoFeedback","seqFeedback"],"classroomPairings":[["A","B"],["C","D"]],"coinWeights":[0.2,0.5,0.8],"subjectId":"A1OZPLHNIU1519","assignmentId":"3HFNH7HEMI0WDOXVTFN0PQ388I1GQA","hitId":"3XUY87HIVP03YZXVLN9CW37DVI1MM2","url":"https://gershmanlab.com/experiments/alicia/teaching/experiment/?hitId=3XUY87HIVP03YZXVLN9CW37DVI1MM2&workerId=A1OZPLHNIU1519&assignmentId=3HFNH7HEMI0WDOXVTFN0PQ388I1GQA&a=EHFH3&tp_a=EHFH3&b=3HFNH7HEMI0WDOXVTFN0PQ388I1GQA&tp_b=3HFNH7HEMI0WDOXVTFN0PQ388I1GQA&c=365633&tp_c=365633","heads":0,"tails":1,"studentIndex":12,"studentTrueHypers":{"a":4,"b":1},"studentGuess":0.6666666666666666,"delta":0.4666666666666666,"totalExamples":1,"bonusSoFar":1.88},{"rt":24265,"response":{"heads":"24","tails":"0"},"type":"response","condition":"seqFeedback","trueTheta":0.2,"classrooms":["A","B"],"studentTrueClassroom":"B","exampleSet":"second","trial_type":"survey-html-form","trial_index":108,"time_elapsed":891140,"internal_node_id":"0.0-103.0-0.0","params":{"nStudents":24,"maxFlips":25,"completionMinutes":45,"basePay":8,"maxBonus":9,"perTrialBonus":0.5,"perTrialBonusThreshold":0.05,"exampleCost":0.02},"classroomParams":{"A":{"a":1,"b":4},"B":{"a":4,"b":1},"C":{"a":2,"b":8},"D":{"a":8,"b":2}},"conditions":["nonSeqFull","nonSeqPartial","seqNoFeedback","seqFeedback"],"classroomPairings":[["A","B"],["C","D"]],"coinWeights":[0.2,0.5,0.8],"subjectId":"A1OZPLHNIU1519","assignmentId":"3HFNH7HEMI0WDOXVTFN0PQ388I1GQA","hitId":"3XUY87HIVP03YZXVLN9CW37DVI1MM2","url":"https://gershmanlab.com/experiments/alicia/teaching/experiment/?hitId=3XUY87HIVP03YZXVLN9CW37DVI1MM2&workerId=A1OZPLHNIU1519&assignmentId=3HFNH7HEMI0WDOXVTFN0PQ388I1GQA&a=EHFH3&tp_a=EHFH3&b=3HFNH7HEMI0WDOXVTFN0PQ388I1GQA&tp_b=3HFNH7HEMI0WDOXVTFN0PQ388I1GQA&c=365633&tp_c=365633","firstResponseHeads":0,"firstResponseTails":1,"secondResponseHeads":24,"secondResponseTails":0,"totalHeads":24,"totalTails":1,"studentIndex":12,"studentTrueHypers":{"a":4,"b":1},"studentGuess":0.9333333333333333,"delta":0.7333333333333334,"bonus":0,"bonusSoFar":1.88,"totalExamples":25},{"rt":12947,"response":{"heads":"1","tails":"0"},"type":"response","condition":"nonSeqFull","trueTheta":0.8,"classrooms":["C","D"],"studentTrueClassroom":"D","exampleSet":"first","trial_type":"survey-html-form","trial_index":114,"time_elapsed":922673,"internal_node_id":"0.0-109.0-0.0","params":{"nStudents":24,"maxFlips":25,"completionMinutes":45,"basePay":8,"maxBonus":9,"perTrialBonus":0.5,"perTrialBonusThreshold":0.05,"exampleCost":0.02},"classroomParams":{"A":{"a":1,"b":4},"B":{"a":4,"b":1},"C":{"a":2,"b":8},"D":{"a":8,"b":2}},"conditions":["nonSeqFull","nonSeqPartial","seqNoFeedback","seqFeedback"],"classroomPairings":[["A","B"],["C","D"]],"coinWeights":[0.2,0.5,0.8],"subjectId":"A1OZPLHNIU1519","assignmentId":"3HFNH7HEMI0WDOXVTFN0PQ388I1GQA","hitId":"3XUY87HIVP03YZXVLN9CW37DVI1MM2","url":"https://gershmanlab.com/experiments/alicia/teaching/experiment/?hitId=3XUY87HIVP03YZXVLN9CW37DVI1MM2&workerId=A1OZPLHNIU1519&assignmentId=3HFNH7HEMI0WDOXVTFN0PQ388I1GQA&a=EHFH3&tp_a=EHFH3&b=3HFNH7HEMI0WDOXVTFN0PQ388I1GQA&tp_b=3HFNH7HEMI0WDOXVTFN0PQ388I1GQA&c=365633&tp_c=365633","heads":1,"tails":0,"studentIndex":13,"studentTrueHypers":{"a":8,"b":2},"studentGuess":0.8181818181818182,"delta":0.018181818181818188,"totalExamples":1,"bonus":0.48,"bonusSoFar":2.36},{"rt":16845,"response":{"heads":"1","tails":"0"},"type":"response","condition":"seqFeedback","trueTheta":0.2,"classrooms":["C","D"],"studentTrueClassroom":"D","exampleSet":"first","trial_type":"survey-html-form","trial_index":120,"time_elapsed":955289,"internal_node_id":"0.0-115.0-0.0","params":{"nStudents":24,"maxFlips":25,"completionMinutes":45,"basePay":8,"maxBonus":9,"perTrialBonus":0.5,"perTrialBonusThreshold":0.05,"exampleCost":0.02},"classroomParams":{"A":{"a":1,"b":4},"B":{"a":4,"b":1},"C":{"a":2,"b":8},"D":{"a":8,"b":2}},"conditions":["nonSeqFull","nonSeqPartial","seqNoFeedback","seqFeedback"],"classroomPairings":[["A","B"],["C","D"]],"coinWeights":[0.2,0.5,0.8],"subjectId":"A1OZPLHNIU1519","assignmentId":"3HFNH7HEMI0WDOXVTFN0PQ388I1GQA","hitId":"3XUY87HIVP03YZXVLN9CW37DVI1MM2","url":"https://gershmanlab.com/experiments/alicia/teaching/experiment/?hitId=3XUY87HIVP03YZXVLN9CW37DVI1MM2&workerId=A1OZPLHNIU1519&assignmentId=3HFNH7HEMI0WDOXVTFN0PQ388I1GQA&a=EHFH3&tp_a=EHFH3&b=3HFNH7HEMI0WDOXVTFN0PQ388I1GQA&tp_b=3HFNH7HEMI0WDOXVTFN0PQ388I1GQA&c=365633&tp_c=365633","heads":1,"tails":0,"studentIndex":14,"studentTrueHypers":{"a":8,"b":2},"studentGuess":0.8181818181818182,"delta":0.6181818181818182,"totalExamples":1,"bonusSoFar":2.36},{"rt":35984,"response":{"heads":"0","tails":"24"},"type":"response","condition":"seqFeedback","trueTheta":0.2,"classrooms":["C","D"],"studentTrueClassroom":"D","exampleSet":"second","trial_type":"survey-html-form","trial_index":124,"time_elapsed":1003851,"internal_node_id":"0.0-119.0-0.0","params":{"nStudents":24,"maxFlips":25,"completionMinutes":45,"basePay":8,"maxBonus":9,"perTrialBonus":0.5,"perTrialBonusThreshold":0.05,"exampleCost":0.02},"classroomParams":{"A":{"a":1,"b":4},"B":{"a":4,"b":1},"C":{"a":2,"b":8},"D":{"a":8,"b":2}},"conditions":["nonSeqFull","nonSeqPartial","seqNoFeedback","seqFeedback"],"classroomPairings":[["A","B"],["C","D"]],"coinWeights":[0.2,0.5,0.8],"subjectId":"A1OZPLHNIU1519","assignmentId":"3HFNH7HEMI0WDOXVTFN0PQ388I1GQA","hitId":"3XUY87HIVP03YZXVLN9CW37DVI1MM2","url":"https://gershmanlab.com/experiments/alicia/teaching/experiment/?hitId=3XUY87HIVP03YZXVLN9CW37DVI1MM2&workerId=A1OZPLHNIU1519&assignmentId=3HFNH7HEMI0WDOXVTFN0PQ388I1GQA&a=EHFH3&tp_a=EHFH3&b=3HFNH7HEMI0WDOXVTFN0PQ388I1GQA&tp_b=3HFNH7HEMI0WDOXVTFN0PQ388I1GQA&c=365633&tp_c=365633","firstResponseHeads":1,"firstResponseTails":0,"secondResponseHeads":0,"secondResponseTails":24,"totalHeads":1,"totalTails":24,"studentIndex":14,"studentTrueHypers":{"a":8,"b":2},"studentGuess":0.2571428571428571,"delta":0.057142857142857106,"bonus":0,"bonusSoFar":2.36,"totalExamples":25},{"rt":41595,"response":{"heads":"0","tails":"25"},"type":"response","condition":"nonSeqFull","trueTheta":0.2,"classrooms":["C","D"],"studentTrueClassroom":"D","exampleSet":"first","trial_type":"survey-html-form","trial_index":130,"time_elapsed":1060175,"internal_node_id":"0.0-125.0-0.0","params":{"nStudents":24,"maxFlips":25,"completionMinutes":45,"basePay":8,"maxBonus":9,"perTrialBonus":0.5,"perTrialBonusThreshold":0.05,"exampleCost":0.02},"classroomParams":{"A":{"a":1,"b":4},"B":{"a":4,"b":1},"C":{"a":2,"b":8},"D":{"a":8,"b":2}},"conditions":["nonSeqFull","nonSeqPartial","seqNoFeedback","seqFeedback"],"classroomPairings":[["A","B"],["C","D"]],"coinWeights":[0.2,0.5,0.8],"subjectId":"A1OZPLHNIU1519","assignmentId":"3HFNH7HEMI0WDOXVTFN0PQ388I1GQA","hitId":"3XUY87HIVP03YZXVLN9CW37DVI1MM2","url":"https://gershmanlab.com/experiments/alicia/teaching/experiment/?hitId=3XUY87HIVP03YZXVLN9CW37DVI1MM2&workerId=A1OZPLHNIU1519&assignmentId=3HFNH7HEMI0WDOXVTFN0PQ388I1GQA&a=EHFH3&tp_a=EHFH3&b=3HFNH7HEMI0WDOXVTFN0PQ388I1GQA&tp_b=3HFNH7HEMI0WDOXVTFN0PQ388I1GQA&c=365633&tp_c=365633","heads":0,"tails":25,"studentIndex":15,"studentTrueHypers":{"a":8,"b":2},"studentGuess":0.22857142857142856,"delta":0.028571428571428553,"totalExamples":25,"bonus":0,"bonusSoFar":2.36},{"rt":11730,"response":{"heads":"1","tails":"0"},"type":"response","condition":"seqNoFeedback","trueTheta":0.8,"classrooms":["C","D"],"studentTrueClassroom":"D","exampleSet":"first","trial_type":"survey-html-form","trial_index":136,"time_elapsed":1085896,"internal_node_id":"0.0-131.0-0.0","params":{"nStudents":24,"maxFlips":25,"completionMinutes":45,"basePay":8,"maxBonus":9,"perTrialBonus":0.5,"perTrialBonusThreshold":0.05,"exampleCost":0.02},"classroomParams":{"A":{"a":1,"b":4},"B":{"a":4,"b":1},"C":{"a":2,"b":8},"D":{"a":8,"b":2}},"conditions":["nonSeqFull","nonSeqPartial","seqNoFeedback","seqFeedback"],"classroomPairings":[["A","B"],["C","D"]],"coinWeights":[0.2,0.5,0.8],"subjectId":"A1OZPLHNIU1519","assignmentId":"3HFNH7HEMI0WDOXVTFN0PQ388I1GQA","hitId":"3XUY87HIVP03YZXVLN9CW37DVI1MM2","url":"https://gershmanlab.com/experiments/alicia/teaching/experiment/?hitId=3XUY87HIVP03YZXVLN9CW37DVI1MM2&workerId=A1OZPLHNIU1519&assignmentId=3HFNH7HEMI0WDOXVTFN0PQ388I1GQA&a=EHFH3&tp_a=EHFH3&b=3HFNH7HEMI0WDOXVTFN0PQ388I1GQA&tp_b=3HFNH7HEMI0WDOXVTFN0PQ388I1GQA&c=365633&tp_c=365633","heads":1,"tails":0,"studentIndex":16,"studentTrueHypers":{"a":8,"b":2},"studentGuess":0.8181818181818182,"delta":0.018181818181818188,"totalExamples":1,"bonusSoFar":2.36},{"rt":8024,"response":{"heads":"0","tails":"1"},"type":"response","condition":"seqNoFeedback","trueTheta":0.8,"classrooms":["C","D"],"studentTrueClassroom":"D","exampleSet":"second","trial_type":"survey-html-form","trial_index":139,"time_elapsed":1100925,"internal_node_id":"0.0-134.0-0.0","params":{"nStudents":24,"maxFlips":25,"completionMinutes":45,"basePay":8,"maxBonus":9,"perTrialBonus":0.5,"perTrialBonusThreshold":0.05,"exampleCost":0.02},"classroomParams":{"A":{"a":1,"b":4},"B":{"a":4,"b":1},"C":{"a":2,"b":8},"D":{"a":8,"b":2}},"conditions":["nonSeqFull","nonSeqPartial","seqNoFeedback","seqFeedback"],"classroomPairings":[["A","B"],["C","D"]],"coinWeights":[0.2,0.5,0.8],"subjectId":"A1OZPLHNIU1519","assignmentId":"3HFNH7HEMI0WDOXVTFN0PQ388I1GQA","hitId":"3XUY87HIVP03YZXVLN9CW37DVI1MM2","url":"https://gershmanlab.com/experiments/alicia/teaching/experiment/?hitId=3XUY87HIVP03YZXVLN9CW37DVI1MM2&workerId=A1OZPLHNIU1519&assignmentId=3HFNH7HEMI0WDOXVTFN0PQ388I1GQA&a=EHFH3&tp_a=EHFH3&b=3HFNH7HEMI0WDOXVTFN0PQ388I1GQA&tp_b=3HFNH7HEMI0WDOXVTFN0PQ388I1GQA&c=365633&tp_c=365633","firstResponseHeads":1,"firstResponseTails":0,"secondResponseHeads":0,"secondResponseTails":1,"totalHeads":1,"totalTails":1,"studentIndex":16,"studentTrueHypers":{"a":8,"b":2},"studentGuess":0.75,"delta":0.050000000000000044,"bonus":0,"bonusSoFar":2.36,"totalExamples":2},{"rt":11587,"response":{"heads":"0","tails":"1"},"type":"response","condition":"seqFeedback","trueTheta":0.8,"classrooms":["C","D"],"studentTrueClassroom":"C","exampleSet":"first","trial_type":"survey-html-form","trial_index":145,"time_elapsed":1129091,"internal_node_id":"0.0-140.0-0.0","params":{"nStudents":24,"maxFlips":25,"completionMinutes":45,"basePay":8,"maxBonus":9,"perTrialBonus":0.5,"perTrialBonusThreshold":0.05,"exampleCost":0.02},"classroomParams":{"A":{"a":1,"b":4},"B":{"a":4,"b":1},"C":{"a":2,"b":8},"D":{"a":8,"b":2}},"conditions":["nonSeqFull","nonSeqPartial","seqNoFeedback","seqFeedback"],"classroomPairings":[["A","B"],["C","D"]],"coinWeights":[0.2,0.5,0.8],"subjectId":"A1OZPLHNIU1519","assignmentId":"3HFNH7HEMI0WDOXVTFN0PQ388I1GQA","hitId":"3XUY87HIVP03YZXVLN9CW37DVI1MM2","url":"https://gershmanlab.com/experiments/alicia/teaching/experiment/?hitId=3XUY87HIVP03YZXVLN9CW37DVI1MM2&workerId=A1OZPLHNIU1519&assignmentId=3HFNH7HEMI0WDOXVTFN0PQ388I1GQA&a=EHFH3&tp_a=EHFH3&b=3HFNH7HEMI0WDOXVTFN0PQ388I1GQA&tp_b=3HFNH7HEMI0WDOXVTFN0PQ388I1GQA&c=365633&tp_c=365633","heads":0,"tails":1,"studentIndex":17,"studentTrueHypers":{"a":2,"b":8},"studentGuess":0.18181818181818182,"delta":0.6181818181818182,"totalExamples":1,"bonusSoFar":2.36},{"rt":33096,"response":{"heads":"24","tails":"0"},"type":"response","condition":"seqFeedback","trueTheta":0.8,"classrooms":["C","D"],"studentTrueClassroom":"C","exampleSet":"second","trial_type":"survey-html-form","trial_index":149,"time_elapsed":1173219,"internal_node_id":"0.0-144.0-0.0","params":{"nStudents":24,"maxFlips":25,"completionMinutes":45,"basePay":8,"maxBonus":9,"perTrialBonus":0.5,"perTrialBonusThreshold":0.05,"exampleCost":0.02},"classroomParams":{"A":{"a":1,"b":4},"B":{"a":4,"b":1},"C":{"a":2,"b":8},"D":{"a":8,"b":2}},"conditions":["nonSeqFull","nonSeqPartial","seqNoFeedback","seqFeedback"],"classroomPairings":[["A","B"],["C","D"]],"coinWeights":[0.2,0.5,0.8],"subjectId":"A1OZPLHNIU1519","assignmentId":"3HFNH7HEMI0WDOXVTFN0PQ388I1GQA","hitId":"3XUY87HIVP03YZXVLN9CW37DVI1MM2","url":"https://gershmanlab.com/experiments/alicia/teaching/experiment/?hitId=3XUY87HIVP03YZXVLN9CW37DVI1MM2&workerId=A1OZPLHNIU1519&assignmentId=3HFNH7HEMI0WDOXVTFN0PQ388I1GQA&a=EHFH3&tp_a=EHFH3&b=3HFNH7HEMI0WDOXVTFN0PQ388I1GQA&tp_b=3HFNH7HEMI0WDOXVTFN0PQ388I1GQA&c=365633&tp_c=365633","firstResponseHeads":0,"firstResponseTails":1,"secondResponseHeads":24,"secondResponseTails":0,"totalHeads":24,"totalTails":1,"studentIndex":17,"studentTrueHypers":{"a":2,"b":8},"studentGuess":0.7428571428571429,"delta":0.05714285714285716,"bonus":0,"bonusSoFar":2.36,"totalExamples":25},{"rt":10045,"response":{"heads":"1","tails":"0"},"type":"response","condition":"nonSeqPartial","trueTheta":0.8,"classrooms":["A","B"],"studentTrueClassroom":"B","exampleSet":"first","trial_type":"survey-html-form","trial_index":155,"time_elapsed":1198964,"internal_node_id":"0.0-150.0-0.0","params":{"nStudents":24,"maxFlips":25,"completionMinutes":45,"basePay":8,"maxBonus":9,"perTrialBonus":0.5,"perTrialBonusThreshold":0.05,"exampleCost":0.02},"classroomParams":{"A":{"a":1,"b":4},"B":{"a":4,"b":1},"C":{"a":2,"b":8},"D":{"a":8,"b":2}},"conditions":["nonSeqFull","nonSeqPartial","seqNoFeedback","seqFeedback"],"classroomPairings":[["A","B"],["C","D"]],"coinWeights":[0.2,0.5,0.8],"subjectId":"A1OZPLHNIU1519","assignmentId":"3HFNH7HEMI0WDOXVTFN0PQ388I1GQA","hitId":"3XUY87HIVP03YZXVLN9CW37DVI1MM2","url":"https://gershmanlab.com/experiments/alicia/teaching/experiment/?hitId=3XUY87HIVP03YZXVLN9CW37DVI1MM2&workerId=A1OZPLHNIU1519&assignmentId=3HFNH7HEMI0WDOXVTFN0PQ388I1GQA&a=EHFH3&tp_a=EHFH3&b=3HFNH7HEMI0WDOXVTFN0PQ388I1GQA&tp_b=3HFNH7HEMI0WDOXVTFN0PQ388I1GQA&c=365633&tp_c=365633","heads":1,"tails":0,"studentIndex":18,"studentTrueHypers":{"a":4,"b":1},"studentGuess":0.8333333333333334,"delta":0.033333333333333326,"totalExamples":1,"bonus":0.48,"bonusSoFar":2.84},{"rt":8785,"response":{"heads":"1","tails":"0"},"type":"response","condition":"seqNoFeedback","trueTheta":0.8,"classrooms":["A","B"],"studentTrueClassroom":"B","exampleSet":"first","trial_type":"survey-html-form","trial_index":161,"time_elapsed":1224950,"internal_node_id":"0.0-156.0-0.0","params":{"nStudents":24,"maxFlips":25,"completionMinutes":45,"basePay":8,"maxBonus":9,"perTrialBonus":0.5,"perTrialBonusThreshold":0.05,"exampleCost":0.02},"classroomParams":{"A":{"a":1,"b":4},"B":{"a":4,"b":1},"C":{"a":2,"b":8},"D":{"a":8,"b":2}},"conditions":["nonSeqFull","nonSeqPartial","seqNoFeedback","seqFeedback"],"classroomPairings":[["A","B"],["C","D"]],"coinWeights":[0.2,0.5,0.8],"subjectId":"A1OZPLHNIU1519","assignmentId":"3HFNH7HEMI0WDOXVTFN0PQ388I1GQA","hitId":"3XUY87HIVP03YZXVLN9CW37DVI1MM2","url":"https://gershmanlab.com/experiments/alicia/teaching/experiment/?hitId=3XUY87HIVP03YZXVLN9CW37DVI1MM2&workerId=A1OZPLHNIU1519&assignmentId=3HFNH7HEMI0WDOXVTFN0PQ388I1GQA&a=EHFH3&tp_a=EHFH3&b=3HFNH7HEMI0WDOXVTFN0PQ388I1GQA&tp_b=3HFNH7HEMI0WDOXVTFN0PQ388I1GQA&c=365633&tp_c=365633","heads":1,"tails":0,"studentIndex":19,"studentTrueHypers":{"a":4,"b":1},"studentGuess":0.8333333333333334,"delta":0.033333333333333326,"totalExamples":1,"bonusSoFar":2.84},{"rt":18562,"response":{"heads":"4","tails":"1"},"type":"response","condition":"seqNoFeedback","trueTheta":0.8,"classrooms":["A","B"],"studentTrueClassroom":"B","exampleSet":"second","trial_type":"survey-html-form","trial_index":164,"time_elapsed":1251275,"internal_node_id":"0.0-159.0-0.0","params":{"nStudents":24,"maxFlips":25,"completionMinutes":45,"basePay":8,"maxBonus":9,"perTrialBonus":0.5,"perTrialBonusThreshold":0.05,"exampleCost":0.02},"classroomParams":{"A":{"a":1,"b":4},"B":{"a":4,"b":1},"C":{"a":2,"b":8},"D":{"a":8,"b":2}},"conditions":["nonSeqFull","nonSeqPartial","seqNoFeedback","seqFeedback"],"classroomPairings":[["A","B"],["C","D"]],"coinWeights":[0.2,0.5,0.8],"subjectId":"A1OZPLHNIU1519","assignmentId":"3HFNH7HEMI0WDOXVTFN0PQ388I1GQA","hitId":"3XUY87HIVP03YZXVLN9CW37DVI1MM2","url":"https://gershmanlab.com/experiments/alicia/teaching/experiment/?hitId=3XUY87HIVP03YZXVLN9CW37DVI1MM2&workerId=A1OZPLHNIU1519&assignmentId=3HFNH7HEMI0WDOXVTFN0PQ388I1GQA&a=EHFH3&tp_a=EHFH3&b=3HFNH7HEMI0WDOXVTFN0PQ388I1GQA&tp_b=3HFNH7HEMI0WDOXVTFN0PQ388I1GQA&c=365633&tp_c=365633","firstResponseHeads":1,"firstResponseTails":0,"secondResponseHeads":4,"secondResponseTails":1,"totalHeads":5,"totalTails":1,"studentIndex":19,"studentTrueHypers":{"a":4,"b":1},"studentGuess":0.8181818181818182,"delta":0.018181818181818188,"bonus":0.38,"bonusSoFar":3.22,"totalExamples":6},{"rt":14871,"response":{"heads":"1","tails":"0"},"type":"response","condition":"seqNoFeedback","trueTheta":0.2,"classrooms":["A","B"],"studentTrueClassroom":"A","exampleSet":"first","trial_type":"survey-html-form","trial_index":170,"time_elapsed":1281809,"internal_node_id":"0.0-165.0-0.0","params":{"nStudents":24,"maxFlips":25,"completionMinutes":45,"basePay":8,"maxBonus":9,"perTrialBonus":0.5,"perTrialBonusThreshold":0.05,"exampleCost":0.02},"classroomParams":{"A":{"a":1,"b":4},"B":{"a":4,"b":1},"C":{"a":2,"b":8},"D":{"a":8,"b":2}},"conditions":["nonSeqFull","nonSeqPartial","seqNoFeedback","seqFeedback"],"classroomPairings":[["A","B"],["C","D"]],"coinWeights":[0.2,0.5,0.8],"subjectId":"A1OZPLHNIU1519","assignmentId":"3HFNH7HEMI0WDOXVTFN0PQ388I1GQA","hitId":"3XUY87HIVP03YZXVLN9CW37DVI1MM2","url":"https://gershmanlab.com/experiments/alicia/teaching/experiment/?hitId=3XUY87HIVP03YZXVLN9CW37DVI1MM2&workerId=A1OZPLHNIU1519&assignmentId=3HFNH7HEMI0WDOXVTFN0PQ388I1GQA&a=EHFH3&tp_a=EHFH3&b=3HFNH7HEMI0WDOXVTFN0PQ388I1GQA&tp_b=3HFNH7HEMI0WDOXVTFN0PQ388I1GQA&c=365633&tp_c=365633","heads":1,"tails":0,"studentIndex":20,"studentTrueHypers":{"a":1,"b":4},"studentGuess":0.3333333333333333,"delta":0.1333333333333333,"totalExamples":1,"bonusSoFar":3.22},{"rt":16640,"response":{"heads":"1","tails":"4"},"type":"response","condition":"seqNoFeedback","trueTheta":0.2,"classrooms":["A","B"],"studentTrueClassroom":"A","exampleSet":"second","trial_type":"survey-html-form","trial_index":173,"time_elapsed":1305965,"internal_node_id":"0.0-168.0-0.0","params":{"nStudents":24,"maxFlips":25,"completionMinutes":45,"basePay":8,"maxBonus":9,"perTrialBonus":0.5,"perTrialBonusThreshold":0.05,"exampleCost":0.02},"classroomParams":{"A":{"a":1,"b":4},"B":{"a":4,"b":1},"C":{"a":2,"b":8},"D":{"a":8,"b":2}},"conditions":["nonSeqFull","nonSeqPartial","seqNoFeedback","seqFeedback"],"classroomPairings":[["A","B"],["C","D"]],"coinWeights":[0.2,0.5,0.8],"subjectId":"A1OZPLHNIU1519","assignmentId":"3HFNH7HEMI0WDOXVTFN0PQ388I1GQA","hitId":"3XUY87HIVP03YZXVLN9CW37DVI1MM2","url":"https://gershmanlab.com/experiments/alicia/teaching/experiment/?hitId=3XUY87HIVP03YZXVLN9CW37DVI1MM2&workerId=A1OZPLHNIU1519&assignmentId=3HFNH7HEMI0WDOXVTFN0PQ388I1GQA&a=EHFH3&tp_a=EHFH3&b=3HFNH7HEMI0WDOXVTFN0PQ388I1GQA&tp_b=3HFNH7HEMI0WDOXVTFN0PQ388I1GQA&c=365633&tp_c=365633","firstResponseHeads":1,"firstResponseTails":0,"secondResponseHeads":1,"secondResponseTails":4,"totalHeads":2,"totalTails":4,"studentIndex":20,"studentTrueHypers":{"a":1,"b":4},"studentGuess":0.2727272727272727,"delta":0.0727272727272727,"bonus":0,"bonusSoFar":3.22,"totalExamples":6},{"rt":10536,"response":{"heads":"0","tails":"3"},"type":"response","condition":"nonSeqFull","trueTheta":0.5,"classrooms":["A","B"],"studentTrueClassroom":"B","exampleSet":"first","trial_type":"survey-html-form","trial_index":179,"time_elapsed":1330866,"internal_node_id":"0.0-174.0-0.0","params":{"nStudents":24,"maxFlips":25,"completionMinutes":45,"basePay":8,"maxBonus":9,"perTrialBonus":0.5,"perTrialBonusThreshold":0.05,"exampleCost":0.02},"classroomParams":{"A":{"a":1,"b":4},"B":{"a":4,"b":1},"C":{"a":2,"b":8},"D":{"a":8,"b":2}},"conditions":["nonSeqFull","nonSeqPartial","seqNoFeedback","seqFeedback"],"classroomPairings":[["A","B"],["C","D"]],"coinWeights":[0.2,0.5,0.8],"subjectId":"A1OZPLHNIU1519","assignmentId":"3HFNH7HEMI0WDOXVTFN0PQ388I1GQA","hitId":"3XUY87HIVP03YZXVLN9CW37DVI1MM2","url":"https://gershmanlab.com/experiments/alicia/teaching/experiment/?hitId=3XUY87HIVP03YZXVLN9CW37DVI1MM2&workerId=A1OZPLHNIU1519&assignmentId=3HFNH7HEMI0WDOXVTFN0PQ388I1GQA&a=EHFH3&tp_a=EHFH3&b=3HFNH7HEMI0WDOXVTFN0PQ388I1GQA&tp_b=3HFNH7HEMI0WDOXVTFN0PQ388I1GQA&c=365633&tp_c=365633","heads":0,"tails":3,"studentIndex":21,"studentTrueHypers":{"a":4,"b":1},"studentGuess":0.5,"delta":0,"totalExamples":3,"bonus":0.44,"bonusSoFar":3.66},{"rt":9978,"response":{"heads":"1","tails":"0"},"type":"response","condition":"nonSeqPartial","trueTheta":0.8,"classrooms":["C","D"],"studentTrueClassroom":"D","exampleSet":"first","trial_type":"survey-html-form","trial_index":185,"time_elapsed":1353898,"internal_node_id":"0.0-180.0-0.0","params":{"nStudents":24,"maxFlips":25,"completionMinutes":45,"basePay":8,"maxBonus":9,"perTrialBonus":0.5,"perTrialBonusThreshold":0.05,"exampleCost":0.02},"classroomParams":{"A":{"a":1,"b":4},"B":{"a":4,"b":1},"C":{"a":2,"b":8},"D":{"a":8,"b":2}},"conditions":["nonSeqFull","nonSeqPartial","seqNoFeedback","seqFeedback"],"classroomPairings":[["A","B"],["C","D"]],"coinWeights":[0.2,0.5,0.8],"subjectId":"A1OZPLHNIU1519","assignmentId":"3HFNH7HEMI0WDOXVTFN0PQ388I1GQA","hitId":"3XUY87HIVP03YZXVLN9CW37DVI1MM2","url":"https://gershmanlab.com/experiments/alicia/teaching/experiment/?hitId=3XUY87HIVP03YZXVLN9CW37DVI1MM2&workerId=A1OZPLHNIU1519&assignmentId=3HFNH7HEMI0WDOXVTFN0PQ388I1GQA&a=EHFH3&tp_a=EHFH3&b=3HFNH7HEMI0WDOXVTFN0PQ388I1GQA&tp_b=3HFNH7HEMI0WDOXVTFN0PQ388I1GQA&c=365633&tp_c=365633","heads":1,"tails":0,"studentIndex":22,"studentTrueHypers":{"a":8,"b":2},"studentGuess":0.8181818181818182,"delta":0.018181818181818188,"totalExamples":1,"bonus":0.48,"bonusSoFar":4.14},{"rt":25381,"response":{"heads":"6","tails":"0"},"type":"response","condition":"nonSeqPartial","trueTheta":0.5,"classrooms":["C","D"],"studentTrueClassroom":"C","exampleSet":"first","trial_type":"survey-html-form","trial_index":191,"time_elapsed":1392908,"internal_node_id":"0.0-186.0-0.0","params":{"nStudents":24,"maxFlips":25,"completionMinutes":45,"basePay":8,"maxBonus":9,"perTrialBonus":0.5,"perTrialBonusThreshold":0.05,"exampleCost":0.02},"classroomParams":{"A":{"a":1,"b":4},"B":{"a":4,"b":1},"C":{"a":2,"b":8},"D":{"a":8,"b":2}},"conditions":["nonSeqFull","nonSeqPartial","seqNoFeedback","seqFeedback"],"classroomPairings":[["A","B"],["C","D"]],"coinWeights":[0.2,0.5,0.8],"subjectId":"A1OZPLHNIU1519","assignmentId":"3HFNH7HEMI0WDOXVTFN0PQ388I1GQA","hitId":"3XUY87HIVP03YZXVLN9CW37DVI1MM2","url":"https://gershmanlab.com/experiments/alicia/teaching/experiment/?hitId=3XUY87HIVP03YZXVLN9CW37DVI1MM2&workerId=A1OZPLHNIU1519&assignmentId=3HFNH7HEMI0WDOXVTFN0PQ388I1GQA&a=EHFH3&tp_a=EHFH3&b=3HFNH7HEMI0WDOXVTFN0PQ388I1GQA&tp_b=3HFNH7HEMI0WDOXVTFN0PQ388I1GQA&c=365633&tp_c=365633","heads":6,"tails":0,"studentIndex":23,"studentTrueHypers":{"a":2,"b":8},"studentGuess":0.5,"delta":0,"totalExamples":6,"bonus":0.38,"bonusSoFar":4.52},{"rt":12905,"response":{"gender":"male","age":"58","understood":"yes","comments":""},"type":"response","trial_type":"survey-html-form","trial_index":195,"time_elapsed":1415011,"internal_node_id":"0.0-191.0","params":{"nStudents":24,"maxFlips":25,"completionMinutes":45,"basePay":8,"maxBonus":9,"perTrialBonus":0.5,"perTrialBonusThreshold":0.05,"exampleCost":0.02},"classroomParams":{"A":{"a":1,"b":4},"B":{"a":4,"b":1},"C":{"a":2,"b":8},"D":{"a":8,"b":2}},"conditions":["nonSeqFull","nonSeqPartial","seqNoFeedback","seqFeedback"],"classroomPairings":[["A","B"],["C","D"]],"coinWeights":[0.2,0.5,0.8],"subjectId":"A1OZPLHNIU1519","assignmentId":"3HFNH7HEMI0WDOXVTFN0PQ388I1GQA","hitId":"3XUY87HIVP03YZXVLN9CW37DVI1MM2","url":"https://gershmanlab.com/experiments/alicia/teaching/experiment/?hitId=3XUY87HIVP03YZXVLN9CW37DVI1MM2&workerId=A1OZPLHNIU1519&assignmentId=3HFNH7HEMI0WDOXVTFN0PQ388I1GQA&a=EHFH3&tp_a=EHFH3&b=3HFNH7HEMI0WDOXVTFN0PQ388I1GQA&tp_b=3HFNH7HEMI0WDOXVTFN0PQ388I1GQA&c=365633&tp_c=365633","totalBonus":4.52}]