[{"rt":44776,"response":{"heads":"2","tails":"8"},"type":"response","condition":"seqNoFeedback","trueTheta":0.2,"classrooms":["C","D"],"studentTrueClassroom":"C","exampleSet":"first","trial_type":"survey-html-form","trial_index":7,"time_elapsed":181552,"internal_node_id":"0.0-6.0-0.0","params":{"nStudents":24,"maxFlips":25,"completionMinutes":45,"basePay":8,"maxBonus":9,"perTrialBonus":0.5,"perTrialBonusThreshold":0.05,"exampleCost":0.02},"classroomParams":{"A":{"a":1,"b":4},"B":{"a":4,"b":1},"C":{"a":2,"b":8},"D":{"a":8,"b":2}},"conditions":["nonSeqFull","nonSeqPartial","seqNoFeedback","seqFeedback"],"classroomPairings":[["A","B"],["C","D"]],"coinWeights":[0.2,0.5,0.8],"subjectId":"A272X64FOZFYLB","assignmentId":"3GU1KF0O4JNFMVO5DGGXOAM1N9NBPX","hitId":"3XUY87HIVP03YZXVLN9CW37DVI1MM2","url":"https://gershmanlab.com/experiments/alicia/teaching/experiment/?hitId=3XUY87HIVP03YZXVLN9CW37DVI1MM2&workerId=A272X64FOZFYLB&assignmentId=3GU1KF0O4JNFMVO5DGGXOAM1N9NBPX&a=OKUG3&tp_a=OKUG3&b=3GU1KF0O4JNFMVO5DGGXOAM1N9NBPX&tp_b=3GU1KF0O4JNFMVO5DGGXOAM1N9NBPX&c=365633&tp_c=365633","heads":2,"tails":8,"studentIndex":0,"studentTrueHypers":{"a":2,"b":8},"studentGuess":0.2,"delta":0,"totalExamples":10,"bonusSoFar":0},{"rt":13607,"response":{"heads":"0","tails":"0"},"type":"response","condition":"seqNoFeedback","trueTheta":0.2,"classrooms":["C","D"],"studentTrueClassroom":"C","exampleSet":"second","trial_type":"survey-html-form","trial_index":10,"time_elapsed":203179,"internal_node_id":"0.0-9.0-0.0","params":{"nStudents":24,"maxFlips":25,"completionMinutes":45,"basePay":8,"maxBonus":9,"perTrialBonus":0.5,"perTrialBonusThreshold":0.05,"exampleCost":0.02},"classroomParams":{"A":{"a":1,"b":4},"B":{"a":4,"b":1},"C":{"a":2,"b":8},"D":{"a":8,"b":2}},"conditions":["nonSeqFull","nonSeqPartial","seqNoFeedback","seqFeedback"],"classroomPairings":[["A","B"],["C","D"]],"coinWeights":[0.2,0.5,0.8],"subjectId":"A272X64FOZFYLB","assignmentId":"3GU1KF0O4JNFMVO5DGGXOAM1N9NBPX","hitId":"3XUY87HIVP03YZXVLN9CW37DVI1MM2","url":"https://gershmanlab.com/experiments/alicia/teaching/experiment/?hitId=3XUY87HIVP03YZXVLN9CW37DVI1MM2&workerId=A272X64FOZFYLB&assignmentId=3GU1KF0O4JNFMVO5DGGXOAM1N9NBPX&a=OKUG3&tp_a=OKUG3&b=3GU1KF0O4JNFMVO5DGGXOAM1N9NBPX&tp_b=3GU1KF0O4JNFMVO5DGGXOAM1N9NBPX&c=365633&tp_c=365633","firstResponseHeads":2,"firstResponseTails":8,"secondResponseHeads":0,"secondResponseTails":0,"totalHeads":2,"totalTails":8,"studentIndex":0,"studentTrueHypers":{"a":2,"b":8},"studentGuess":0.2,"delta":0,"bonus":0.3,"bonusSoFar":0.3,"totalExamples":10},{"rt":6067,"response":{"heads":"0","tails":"0"},"type":"response","condition":"seqNoFeedback","trueTheta":0.2,"classrooms":["C","D"],"studentTrueClassroom":"C","exampleSet":"second","trial_type":"survey-html-form","trial_index":11,"time_elapsed":209248,"internal_node_id":"0.0-9.1-0.1","params":{"nStudents":24,"maxFlips":25,"completionMinutes":45,"basePay":8,"maxBonus":9,"perTrialBonus":0.5,"perTrialBonusThreshold":0.05,"exampleCost":0.02},"classroomParams":{"A":{"a":1,"b":4},"B":{"a":4,"b":1},"C":{"a":2,"b":8},"D":{"a":8,"b":2}},"conditions":["nonSeqFull","nonSeqPartial","seqNoFeedback","seqFeedback"],"classroomPairings":[["A","B"],["C","D"]],"coinWeights":[0.2,0.5,0.8],"subjectId":"A272X64FOZFYLB","assignmentId":"3GU1KF0O4JNFMVO5DGGXOAM1N9NBPX","hitId":"3XUY87HIVP03YZXVLN9CW37DVI1MM2","url":"https://gershmanlab.com/experiments/alicia/teaching/experiment/?hitId=3XUY87HIVP03YZXVLN9CW37DVI1MM2&workerId=A272X64FOZFYLB&assignmentId=3GU1KF0O4JNFMVO5DGGXOAM1N9NBPX&a=OKUG3&tp_a=OKUG3&b=3GU1KF0O4JNFMVO5DGGXOAM1N9NBPX&tp_b=3GU1KF0O4JNFMVO5DGGXOAM1N9NBPX&c=365633&tp_c=365633","firstResponseHeads":2,"firstResponseTails":8,"secondResponseHeads":0,"secondResponseTails":0,"totalHeads":2,"totalTails":8,"studentIndex":0,"studentTrueHypers":{"a":2,"b":8},"studentGuess":0.2,"delta":0,"bonus":0.3,"bonusSoFar":0.6,"totalExamples":10},{"rt":6463,"response":{"heads":"2","tails":"8"},"type":"response","condition":"seqNoFeedback","trueTheta":0.2,"classrooms":["C","D"],"studentTrueClassroom":"C","exampleSet":"second","trial_type":"survey-html-form","trial_index":12,"time_elapsed":215712,"internal_node_id":"0.0-9.2-0.2","params":{"nStudents":24,"maxFlips":25,"completionMinutes":45,"basePay":8,"maxBonus":9,"perTrialBonus":0.5,"perTrialBonusThreshold":0.05,"exampleCost":0.02},"classroomParams":{"A":{"a":1,"b":4},"B":{"a":4,"b":1},"C":{"a":2,"b":8},"D":{"a":8,"b":2}},"conditions":["nonSeqFull","nonSeqPartial","seqNoFeedback","seqFeedback"],"classroomPairings":[["A","B"],["C","D"]],"coinWeights":[0.2,0.5,0.8],"subjectId":"A272X64FOZFYLB","assignmentId":"3GU1KF0O4JNFMVO5DGGXOAM1N9NBPX","hitId":"3XUY87HIVP03YZXVLN9CW37DVI1MM2","url":"https://gershmanlab.com/experiments/alicia/teaching/experiment/?hitId=3XUY87HIVP03YZXVLN9CW37DVI1MM2&workerId=A272X64FOZFYLB&assignmentId=3GU1KF0O4JNFMVO5DGGXOAM1N9NBPX&a=OKUG3&tp_a=OKUG3&b=3GU1KF0O4JNFMVO5DGGXOAM1N9NBPX&tp_b=3GU1KF0O4JNFMVO5DGGXOAM1N9NBPX&c=365633&tp_c=365633","firstResponseHeads":2,"firstResponseTails":8,"secondResponseHeads":2,"secondResponseTails":8,"totalHeads":4,"totalTails":16,"studentIndex":0,"studentTrueHypers":{"a":2,"b":8},"studentGuess":0.2,"delta":0,"bonus":0.1,"bonusSoFar":0.7,"totalExamples":20},{"rt":17215,"response":{"heads":"1","tails":"4"},"type":"response","condition":"nonSeqFull","trueTheta":0.2,"classrooms":["A","B"],"studentTrueClassroom":"A","exampleSet":"first","trial_type":"survey-html-form","trial_index":18,"time_elapsed":245767,"internal_node_id":"0.0-15.0-0.0","params":{"nStudents":24,"maxFlips":25,"completionMinutes":45,"basePay":8,"maxBonus":9,"perTrialBonus":0.5,"perTrialBonusThreshold":0.05,"exampleCost":0.02},"classroomParams":{"A":{"a":1,"b":4},"B":{"a":4,"b":1},"C":{"a":2,"b":8},"D":{"a":8,"b":2}},"conditions":["nonSeqFull","nonSeqPartial","seqNoFeedback","seqFeedback"],"classroomPairings":[["A","B"],["C","D"]],"coinWeights":[0.2,0.5,0.8],"subjectId":"A272X64FOZFYLB","assignmentId":"3GU1KF0O4JNFMVO5DGGXOAM1N9NBPX","hitId":"3XUY87HIVP03YZXVLN9CW37DVI1MM2","url":"https://gershmanlab.com/experiments/alicia/teaching/experiment/?hitId=3XUY87HIVP03YZXVLN9CW37DVI1MM2&workerId=A272X64FOZFYLB&assignmentId=3GU1KF0O4JNFMVO5DGGXOAM1N9NBPX&a=OKUG3&tp_a=OKUG3&b=3GU1KF0O4JNFMVO5DGGXOAM1N9NBPX&tp_b=3GU1KF0O4JNFMVO5DGGXOAM1N9NBPX&c=365633&tp_c=365633","heads":1,"tails":4,"studentIndex":1,"studentTrueHypers":{"a":1,"b":4},"studentGuess":0.2,"delta":0,"totalExamples":5,"bonus":0.4,"bonusSoFar":1.1},{"rt":13263,"response":{"heads":"8","tails":"2"},"type":"response","condition":"seqFeedback","trueTheta":0.8,"classrooms":["C","D"],"studentTrueClassroom":"D","exampleSet":"first","trial_type":"survey-html-form","trial_index":24,"time_elapsed":279079,"internal_node_id":"0.0-21.0-0.0","params":{"nStudents":24,"maxFlips":25,"completionMinutes":45,"basePay":8,"maxBonus":9,"perTrialBonus":0.5,"perTrialBonusThreshold":0.05,"exampleCost":0.02},"classroomParams":{"A":{"a":1,"b":4},"B":{"a":4,"b":1},"C":{"a":2,"b":8},"D":{"a":8,"b":2}},"conditions":["nonSeqFull","nonSeqPartial","seqNoFeedback","seqFeedback"],"classroomPairings":[["A","B"],["C","D"]],"coinWeights":[0.2,0.5,0.8],"subjectId":"A272X64FOZFYLB","assignmentId":"3GU1KF0O4JNFMVO5DGGXOAM1N9NBPX","hitId":"3XUY87HIVP03YZXVLN9CW37DVI1MM2","url":"https://gershmanlab.com/experiments/alicia/teaching/experiment/?hitId=3XUY87HIVP03YZXVLN9CW37DVI1MM2&workerId=A272X64FOZFYLB&assignmentId=3GU1KF0O4JNFMVO5DGGXOAM1N9NBPX&a=OKUG3&tp_a=OKUG3&b=3GU1KF0O4JNFMVO5DGGXOAM1N9NBPX&tp_b=3GU1KF0O4JNFMVO5DGGXOAM1N9NBPX&c=365633&tp_c=365633","heads":8,"tails":2,"studentIndex":2,"studentTrueHypers":{"a":8,"b":2},"studentGuess":0.8,"delta":0,"totalExamples":10,"bonusSoFar":1.1},{"rt":13015,"response":{"heads":"8","tails":"2"},"type":"response","condition":"seqFeedback","trueTheta":0.8,"classrooms":["C","D"],"studentTrueClassroom":"D","exampleSet":"second","trial_type":"survey-html-form","trial_index":28,"time_elapsed":301607,"internal_node_id":"0.0-25.0-0.0","params":{"nStudents":24,"maxFlips":25,"completionMinutes":45,"basePay":8,"maxBonus":9,"perTrialBonus":0.5,"perTrialBonusThreshold":0.05,"exampleCost":0.02},"classroomParams":{"A":{"a":1,"b":4},"B":{"a":4,"b":1},"C":{"a":2,"b":8},"D":{"a":8,"b":2}},"conditions":["nonSeqFull","nonSeqPartial","seqNoFeedback","seqFeedback"],"classroomPairings":[["A","B"],["C","D"]],"coinWeights":[0.2,0.5,0.8],"subjectId":"A272X64FOZFYLB","assignmentId":"3GU1KF0O4JNFMVO5DGGXOAM1N9NBPX","hitId":"3XUY87HIVP03YZXVLN9CW37DVI1MM2","url":"https://gershmanlab.com/experiments/alicia/teaching/experiment/?hitId=3XUY87HIVP03YZXVLN9CW37DVI1MM2&workerId=A272X64FOZFYLB&assignmentId=3GU1KF0O4JNFMVO5DGGXOAM1N9NBPX&a=OKUG3&tp_a=OKUG3&b=3GU1KF0O4JNFMVO5DGGXOAM1N9NBPX&tp_b=3GU1KF0O4JNFMVO5DGGXOAM1N9NBPX&c=365633&tp_c=365633","firstResponseHeads":8,"firstResponseTails":2,"secondResponseHeads":8,"secondResponseTails":2,"totalHeads":16,"totalTails":4,"studentIndex":2,"studentTrueHypers":{"a":8,"b":2},"studentGuess":0.8,"delta":0,"bonus":0.1,"bonusSoFar":1.2,"totalExamples":20},{"rt":25111,"response":{"heads":"5","tails":"5"},"type":"response","condition":"nonSeqFull","trueTheta":0.5,"classrooms":["A","B"],"studentTrueClassroom":"A","exampleSet":"first","trial_type":"survey-html-form","trial_index":34,"time_elapsed":343344,"internal_node_id":"0.0-31.0-0.0","params":{"nStudents":24,"maxFlips":25,"completionMinutes":45,"basePay":8,"maxBonus":9,"perTrialBonus":0.5,"perTrialBonusThreshold":0.05,"exampleCost":0.02},"classroomParams":{"A":{"a":1,"b":4},"B":{"a":4,"b":1},"C":{"a":2,"b":8},"D":{"a":8,"b":2}},"conditions":["nonSeqFull","nonSeqPartial","seqNoFeedback","seqFeedback"],"classroomPairings":[["A","B"],["C","D"]],"coinWeights":[0.2,0.5,0.8],"subjectId":"A272X64FOZFYLB","assignmentId":"3GU1KF0O4JNFMVO5DGGXOAM1N9NBPX","hitId":"3XUY87HIVP03YZXVLN9CW37DVI1MM2","url":"https://gershmanlab.com/experiments/alicia/teaching/experiment/?hitId=3XUY87HIVP03YZXVLN9CW37DVI1MM2&workerId=A272X64FOZFYLB&assignmentId=3GU1KF0O4JNFMVO5DGGXOAM1N9NBPX&a=OKUG3&tp_a=OKUG3&b=3GU1KF0O4JNFMVO5DGGXOAM1N9NBPX&tp_b=3GU1KF0O4JNFMVO5DGGXOAM1N9NBPX&c=365633&tp_c=365633","heads":5,"tails":5,"studentIndex":3,"studentTrueHypers":{"a":1,"b":4},"studentGuess":0.4,"delta":0.09999999999999998,"totalExamples":10,"bonus":0,"bonusSoFar":1.2},{"rt":7487,"response":{"heads":"8","tails":"2"},"type":"response","condition":"seqNoFeedback","trueTheta":0.8,"classrooms":["C","D"],"studentTrueClassroom":"C","exampleSet":"first","trial_type":"survey-html-form","trial_index":40,"time_elapsed":367152,"internal_node_id":"0.0-37.0-0.0","params":{"nStudents":24,"maxFlips":25,"completionMinutes":45,"basePay":8,"maxBonus":9,"perTrialBonus":0.5,"perTrialBonusThreshold":0.05,"exampleCost":0.02},"classroomParams":{"A":{"a":1,"b":4},"B":{"a":4,"b":1},"C":{"a":2,"b":8},"D":{"a":8,"b":2}},"conditions":["nonSeqFull","nonSeqPartial","seqNoFeedback","seqFeedback"],"classroomPairings":[["A","B"],["C","D"]],"coinWeights":[0.2,0.5,0.8],"subjectId":"A272X64FOZFYLB","assignmentId":"3GU1KF0O4JNFMVO5DGGXOAM1N9NBPX","hitId":"3XUY87HIVP03YZXVLN9CW37DVI1MM2","url":"https://gershmanlab.com/experiments/alicia/teaching/experiment/?hitId=3XUY87HIVP03YZXVLN9CW37DVI1MM2&workerId=A272X64FOZFYLB&assignmentId=3GU1KF0O4JNFMVO5DGGXOAM1N9NBPX&a=OKUG3&tp_a=OKUG3&b=3GU1KF0O4JNFMVO5DGGXOAM1N9NBPX&tp_b=3GU1KF0O4JNFMVO5DGGXOAM1N9NBPX&c=365633&tp_c=365633","heads":8,"tails":2,"studentIndex":4,"studentTrueHypers":{"a":2,"b":8},"studentGuess":0.5,"delta":0.30000000000000004,"totalExamples":10,"bonusSoFar":1.2},{"rt":23527,"response":{"heads":"4","tails":"1"},"type":"response","condition":"seqNoFeedback","trueTheta":0.8,"classrooms":["C","D"],"studentTrueClassroom":"C","exampleSet":"second","trial_type":"survey-html-form","trial_index":43,"time_elapsed":396704,"internal_node_id":"0.0-40.0-0.0","params":{"nStudents":24,"maxFlips":25,"completionMinutes":45,"basePay":8,"maxBonus":9,"perTrialBonus":0.5,"perTrialBonusThreshold":0.05,"exampleCost":0.02},"classroomParams":{"A":{"a":1,"b":4},"B":{"a":4,"b":1},"C":{"a":2,"b":8},"D":{"a":8,"b":2}},"conditions":["nonSeqFull","nonSeqPartial","seqNoFeedback","seqFeedback"],"classroomPairings":[["A","B"],["C","D"]],"coinWeights":[0.2,0.5,0.8],"subjectId":"A272X64FOZFYLB","assignmentId":"3GU1KF0O4JNFMVO5DGGXOAM1N9NBPX","hitId":"3XUY87HIVP03YZXVLN9CW37DVI1MM2","url":"https://gershmanlab.com/experiments/alicia/teaching/experiment/?hitId=3XUY87HIVP03YZXVLN9CW37DVI1MM2&workerId=A272X64FOZFYLB&assignmentId=3GU1KF0O4JNFMVO5DGGXOAM1N9NBPX&a=OKUG3&tp_a=OKUG3&b=3GU1KF0O4JNFMVO5DGGXOAM1N9NBPX&tp_b=3GU1KF0O4JNFMVO5DGGXOAM1N9NBPX&c=365633&tp_c=365633","firstResponseHeads":8,"firstResponseTails":2,"secondResponseHeads":4,"secondResponseTails":1,"totalHeads":12,"totalTails":3,"studentIndex":4,"studentTrueHypers":{"a":2,"b":8},"studentGuess":0.56,"delta":0.24,"bonus":0,"bonusSoFar":1.2,"totalExamples":15},{"rt":78640,"response":{"heads":"11","tails":"0"},"type":"response","condition":"nonSeqFull","trueTheta":0.8,"classrooms":["A","B"],"studentTrueClassroom":"A","exampleSet":"first","trial_type":"survey-html-form","trial_index":49,"time_elapsed":492009,"internal_node_id":"0.0-46.0-0.0","params":{"nStudents":24,"maxFlips":25,"completionMinutes":45,"basePay":8,"maxBonus":9,"perTrialBonus":0.5,"perTrialBonusThreshold":0.05,"exampleCost":0.02},"classroomParams":{"A":{"a":1,"b":4},"B":{"a":4,"b":1},"C":{"a":2,"b":8},"D":{"a":8,"b":2}},"conditions":["nonSeqFull","nonSeqPartial","seqNoFeedback","seqFeedback"],"classroomPairings":[["A","B"],["C","D"]],"coinWeights":[0.2,0.5,0.8],"subjectId":"A272X64FOZFYLB","assignmentId":"3GU1KF0O4JNFMVO5DGGXOAM1N9NBPX","hitId":"3XUY87HIVP03YZXVLN9CW37DVI1MM2","url":"https://gershmanlab.com/experiments/alicia/teaching/experiment/?hitId=3XUY87HIVP03YZXVLN9CW37DVI1MM2&workerId=A272X64FOZFYLB&assignmentId=3GU1KF0O4JNFMVO5DGGXOAM1N9NBPX&a=OKUG3&tp_a=OKUG3&b=3GU1KF0O4JNFMVO5DGGXOAM1N9NBPX&tp_b=3GU1KF0O4JNFMVO5DGGXOAM1N9NBPX&c=365633&tp_c=365633","heads":11,"tails":0,"studentIndex":5,"studentTrueHypers":{"a":1,"b":4},"studentGuess":0.75,"delta":0.050000000000000044,"totalExamples":11,"bonus":0,"bonusSoFar":1.2},{"rt":31463,"response":{"heads":"4","tails":"1"},"type":"response","condition":"seqNoFeedback","trueTheta":0.8,"classrooms":["A","B"],"studentTrueClassroom":"B","exampleSet":"first","trial_type":"survey-html-form","trial_index":55,"time_elapsed":540575,"internal_node_id":"0.0-52.0-0.0","params":{"nStudents":24,"maxFlips":25,"completionMinutes":45,"basePay":8,"maxBonus":9,"perTrialBonus":0.5,"perTrialBonusThreshold":0.05,"exampleCost":0.02},"classroomParams":{"A":{"a":1,"b":4},"B":{"a":4,"b":1},"C":{"a":2,"b":8},"D":{"a":8,"b":2}},"conditions":["nonSeqFull","nonSeqPartial","seqNoFeedback","seqFeedback"],"classroomPairings":[["A","B"],["C","D"]],"coinWeights":[0.2,0.5,0.8],"subjectId":"A272X64FOZFYLB","assignmentId":"3GU1KF0O4JNFMVO5DGGXOAM1N9NBPX","hitId":"3XUY87HIVP03YZXVLN9CW37DVI1MM2","url":"https://gershmanlab.com/experiments/alicia/teaching/experiment/?hitId=3XUY87HIVP03YZXVLN9CW37DVI1MM2&workerId=A272X64FOZFYLB&assignmentId=3GU1KF0O4JNFMVO5DGGXOAM1N9NBPX&a=OKUG3&tp_a=OKUG3&b=3GU1KF0O4JNFMVO5DGGXOAM1N9NBPX&tp_b=3GU1KF0O4JNFMVO5DGGXOAM1N9NBPX&c=365633&tp_c=365633","heads":4,"tails":1,"studentIndex":6,"studentTrueHypers":{"a":4,"b":1},"studentGuess":0.8,"delta":0,"totalExamples":5,"bonusSoFar":1.2},{"rt":4860,"response":{"heads":"4","tails":"1"},"type":"response","condition":"seqNoFeedback","trueTheta":0.8,"classrooms":["A","B"],"studentTrueClassroom":"B","exampleSet":"second","trial_type":"survey-html-form","trial_index":58,"time_elapsed":552463,"internal_node_id":"0.0-55.0-0.0","params":{"nStudents":24,"maxFlips":25,"completionMinutes":45,"basePay":8,"maxBonus":9,"perTrialBonus":0.5,"perTrialBonusThreshold":0.05,"exampleCost":0.02},"classroomParams":{"A":{"a":1,"b":4},"B":{"a":4,"b":1},"C":{"a":2,"b":8},"D":{"a":8,"b":2}},"conditions":["nonSeqFull","nonSeqPartial","seqNoFeedback","seqFeedback"],"classroomPairings":[["A","B"],["C","D"]],"coinWeights":[0.2,0.5,0.8],"subjectId":"A272X64FOZFYLB","assignmentId":"3GU1KF0O4JNFMVO5DGGXOAM1N9NBPX","hitId":"3XUY87HIVP03YZXVLN9CW37DVI1MM2","url":"https://gershmanlab.com/experiments/alicia/teaching/experiment/?hitId=3XUY87HIVP03YZXVLN9CW37DVI1MM2&workerId=A272X64FOZFYLB&assignmentId=3GU1KF0O4JNFMVO5DGGXOAM1N9NBPX&a=OKUG3&tp_a=OKUG3&b=3GU1KF0O4JNFMVO5DGGXOAM1N9NBPX&tp_b=3GU1KF0O4JNFMVO5DGGXOAM1N9NBPX&c=365633&tp_c=365633","firstResponseHeads":4,"firstResponseTails":1,"secondResponseHeads":4,"secondResponseTails":1,"totalHeads":8,"totalTails":2,"studentIndex":6,"studentTrueHypers":{"a":4,"b":1},"studentGuess":0.8,"delta":0,"bonus":0.3,"bonusSoFar":1.5,"totalExamples":10},{"rt":10639,"response":{"heads":"1","tails":"4"},"type":"response","condition":"seqNoFeedback","trueTheta":0.2,"classrooms":["A","B"],"studentTrueClassroom":"B","exampleSet":"first","trial_type":"survey-html-form","trial_index":64,"time_elapsed":575952,"internal_node_id":"0.0-61.0-0.0","params":{"nStudents":24,"maxFlips":25,"completionMinutes":45,"basePay":8,"maxBonus":9,"perTrialBonus":0.5,"perTrialBonusThreshold":0.05,"exampleCost":0.02},"classroomParams":{"A":{"a":1,"b":4},"B":{"a":4,"b":1},"C":{"a":2,"b":8},"D":{"a":8,"b":2}},"conditions":["nonSeqFull","nonSeqPartial","seqNoFeedback","seqFeedback"],"classroomPairings":[["A","B"],["C","D"]],"coinWeights":[0.2,0.5,0.8],"subjectId":"A272X64FOZFYLB","assignmentId":"3GU1KF0O4JNFMVO5DGGXOAM1N9NBPX","hitId":"3XUY87HIVP03YZXVLN9CW37DVI1MM2","url":"https://gershmanlab.com/experiments/alicia/teaching/experiment/?hitId=3XUY87HIVP03YZXVLN9CW37DVI1MM2&workerId=A272X64FOZFYLB&assignmentId=3GU1KF0O4JNFMVO5DGGXOAM1N9NBPX&a=OKUG3&tp_a=OKUG3&b=3GU1KF0O4JNFMVO5DGGXOAM1N9NBPX&tp_b=3GU1KF0O4JNFMVO5DGGXOAM1N9NBPX&c=365633&tp_c=365633","heads":1,"tails":4,"studentIndex":7,"studentTrueHypers":{"a":4,"b":1},"studentGuess":0.5,"delta":0.3,"totalExamples":5,"bonusSoFar":1.5},{"rt":2262,"response":{"heads":"1","tails":"4"},"type":"response","condition":"seqNoFeedback","trueTheta":0.2,"classrooms":["A","B"],"studentTrueClassroom":"B","exampleSet":"second","trial_type":"survey-html-form","trial_index":67,"time_elapsed":583991,"internal_node_id":"0.0-64.0-0.0","params":{"nStudents":24,"maxFlips":25,"completionMinutes":45,"basePay":8,"maxBonus":9,"perTrialBonus":0.5,"perTrialBonusThreshold":0.05,"exampleCost":0.02},"classroomParams":{"A":{"a":1,"b":4},"B":{"a":4,"b":1},"C":{"a":2,"b":8},"D":{"a":8,"b":2}},"conditions":["nonSeqFull","nonSeqPartial","seqNoFeedback","seqFeedback"],"classroomPairings":[["A","B"],["C","D"]],"coinWeights":[0.2,0.5,0.8],"subjectId":"A272X64FOZFYLB","assignmentId":"3GU1KF0O4JNFMVO5DGGXOAM1N9NBPX","hitId":"3XUY87HIVP03YZXVLN9CW37DVI1MM2","url":"https://gershmanlab.com/experiments/alicia/teaching/experiment/?hitId=3XUY87HIVP03YZXVLN9CW37DVI1MM2&workerId=A272X64FOZFYLB&assignmentId=3GU1KF0O4JNFMVO5DGGXOAM1N9NBPX&a=OKUG3&tp_a=OKUG3&b=3GU1KF0O4JNFMVO5DGGXOAM1N9NBPX&tp_b=3GU1KF0O4JNFMVO5DGGXOAM1N9NBPX&c=365633&tp_c=365633","firstResponseHeads":1,"firstResponseTails":4,"secondResponseHeads":1,"secondResponseTails":4,"totalHeads":2,"totalTails":8,"studentIndex":7,"studentTrueHypers":{"a":4,"b":1},"studentGuess":0.4,"delta":0.2,"bonus":0,"bonusSoFar":1.5,"totalExamples":10},{"rt":16975,"response":{"heads":"1","tails":"4"},"type":"response","condition":"seqFeedback","trueTheta":0.2,"classrooms":["C","D"],"studentTrueClassroom":"D","exampleSet":"first","trial_type":"survey-html-form","trial_index":73,"time_elapsed":619200,"internal_node_id":"0.0-70.0-0.0","params":{"nStudents":24,"maxFlips":25,"completionMinutes":45,"basePay":8,"maxBonus":9,"perTrialBonus":0.5,"perTrialBonusThreshold":0.05,"exampleCost":0.02},"classroomParams":{"A":{"a":1,"b":4},"B":{"a":4,"b":1},"C":{"a":2,"b":8},"D":{"a":8,"b":2}},"conditions":["nonSeqFull","nonSeqPartial","seqNoFeedback","seqFeedback"],"classroomPairings":[["A","B"],["C","D"]],"coinWeights":[0.2,0.5,0.8],"subjectId":"A272X64FOZFYLB","assignmentId":"3GU1KF0O4JNFMVO5DGGXOAM1N9NBPX","hitId":"3XUY87HIVP03YZXVLN9CW37DVI1MM2","url":"https://gershmanlab.com/experiments/alicia/teaching/experiment/?hitId=3XUY87HIVP03YZXVLN9CW37DVI1MM2&workerId=A272X64FOZFYLB&assignmentId=3GU1KF0O4JNFMVO5DGGXOAM1N9NBPX&a=OKUG3&tp_a=OKUG3&b=3GU1KF0O4JNFMVO5DGGXOAM1N9NBPX&tp_b=3GU1KF0O4JNFMVO5DGGXOAM1N9NBPX&c=365633&tp_c=365633","heads":1,"tails":4,"studentIndex":8,"studentTrueHypers":{"a":8,"b":2},"studentGuess":0.6,"delta":0.39999999999999997,"totalExamples":5,"bonusSoFar":1.5},{"rt":51540,"response":{"heads":"0","tails":"25"},"type":"response","condition":"seqFeedback","trueTheta":0.2,"classrooms":["C","D"],"studentTrueClassroom":"D","exampleSet":"second","trial_type":"survey-html-form","trial_index":77,"time_elapsed":685099,"internal_node_id":"0.0-74.0-0.0","params":{"nStudents":24,"maxFlips":25,"completionMinutes":45,"basePay":8,"maxBonus":9,"perTrialBonus":0.5,"perTrialBonusThreshold":0.05,"exampleCost":0.02},"classroomParams":{"A":{"a":1,"b":4},"B":{"a":4,"b":1},"C":{"a":2,"b":8},"D":{"a":8,"b":2}},"conditions":["nonSeqFull","nonSeqPartial","seqNoFeedback","seqFeedback"],"classroomPairings":[["A","B"],["C","D"]],"coinWeights":[0.2,0.5,0.8],"subjectId":"A272X64FOZFYLB","assignmentId":"3GU1KF0O4JNFMVO5DGGXOAM1N9NBPX","hitId":"3XUY87HIVP03YZXVLN9CW37DVI1MM2","url":"https://gershmanlab.com/experiments/alicia/teaching/experiment/?hitId=3XUY87HIVP03YZXVLN9CW37DVI1MM2&workerId=A272X64FOZFYLB&assignmentId=3GU1KF0O4JNFMVO5DGGXOAM1N9NBPX&a=OKUG3&tp_a=OKUG3&b=3GU1KF0O4JNFMVO5DGGXOAM1N9NBPX&tp_b=3GU1KF0O4JNFMVO5DGGXOAM1N9NBPX&c=365633&tp_c=365633","firstResponseHeads":1,"firstResponseTails":4,"secondResponseHeads":0,"secondResponseTails":25,"totalHeads":1,"totalTails":29,"studentIndex":8,"studentTrueHypers":{"a":8,"b":2},"studentGuess":0.225,"delta":0.024999999999999994,"bonus":0,"bonusSoFar":1.5,"totalExamples":30},{"rt":32431,"response":{"heads":"1","tails":"4"},"type":"response","condition":"nonSeqPartial","trueTheta":0.2,"classrooms":["A","B"],"studentTrueClassroom":"B","exampleSet":"first","trial_type":"survey-html-form","trial_index":83,"time_elapsed":730591,"internal_node_id":"0.0-80.0-0.0","params":{"nStudents":24,"maxFlips":25,"completionMinutes":45,"basePay":8,"maxBonus":9,"perTrialBonus":0.5,"perTrialBonusThreshold":0.05,"exampleCost":0.02},"classroomParams":{"A":{"a":1,"b":4},"B":{"a":4,"b":1},"C":{"a":2,"b":8},"D":{"a":8,"b":2}},"conditions":["nonSeqFull","nonSeqPartial","seqNoFeedback","seqFeedback"],"classroomPairings":[["A","B"],["C","D"]],"coinWeights":[0.2,0.5,0.8],"subjectId":"A272X64FOZFYLB","assignmentId":"3GU1KF0O4JNFMVO5DGGXOAM1N9NBPX","hitId":"3XUY87HIVP03YZXVLN9CW37DVI1MM2","url":"https://gershmanlab.com/experiments/alicia/teaching/experiment/?hitId=3XUY87HIVP03YZXVLN9CW37DVI1MM2&workerId=A272X64FOZFYLB&assignmentId=3GU1KF0O4JNFMVO5DGGXOAM1N9NBPX&a=OKUG3&tp_a=OKUG3&b=3GU1KF0O4JNFMVO5DGGXOAM1N9NBPX&tp_b=3GU1KF0O4JNFMVO5DGGXOAM1N9NBPX&c=365633&tp_c=365633","heads":1,"tails":4,"studentIndex":9,"studentTrueHypers":{"a":4,"b":1},"studentGuess":0.5,"delta":0.3,"totalExamples":5,"bonus":0,"bonusSoFar":1.5},{"rt":29006,"response":{"heads":"1","tails":"4"},"type":"response","condition":"nonSeqPartial","trueTheta":0.2,"classrooms":["C","D"],"studentTrueClassroom":"D","exampleSet":"first","trial_type":"survey-html-form","trial_index":89,"time_elapsed":770927,"internal_node_id":"0.0-86.0-0.0","params":{"nStudents":24,"maxFlips":25,"completionMinutes":45,"basePay":8,"maxBonus":9,"perTrialBonus":0.5,"perTrialBonusThreshold":0.05,"exampleCost":0.02},"classroomParams":{"A":{"a":1,"b":4},"B":{"a":4,"b":1},"C":{"a":2,"b":8},"D":{"a":8,"b":2}},"conditions":["nonSeqFull","nonSeqPartial","seqNoFeedback","seqFeedback"],"classroomPairings":[["A","B"],["C","D"]],"coinWeights":[0.2,0.5,0.8],"subjectId":"A272X64FOZFYLB","assignmentId":"3GU1KF0O4JNFMVO5DGGXOAM1N9NBPX","hitId":"3XUY87HIVP03YZXVLN9CW37DVI1MM2","url":"https://gershmanlab.com/experiments/alicia/teaching/experiment/?hitId=3XUY87HIVP03YZXVLN9CW37DVI1MM2&workerId=A272X64FOZFYLB&assignmentId=3GU1KF0O4JNFMVO5DGGXOAM1N9NBPX&a=OKUG3&tp_a=OKUG3&b=3GU1KF0O4JNFMVO5DGGXOAM1N9NBPX&tp_b=3GU1KF0O4JNFMVO5DGGXOAM1N9NBPX&c=365633&tp_c=365633","heads":1,"tails":4,"studentIndex":10,"studentTrueHypers":{"a":8,"b":2},"studentGuess":0.6,"delta":0.39999999999999997,"totalExamples":5,"bonus":0,"bonusSoFar":1.5},{"rt":58846,"response":{"heads":"10","tails":"10"},"type":"response","condition":"seqNoFeedback","trueTheta":0.5,"classrooms":["C","D"],"studentTrueClassroom":"D","exampleSet":"first","trial_type":"survey-html-form","trial_index":95,"time_elapsed":840431,"internal_node_id":"0.0-92.0-0.0","params":{"nStudents":24,"maxFlips":25,"completionMinutes":45,"basePay":8,"maxBonus":9,"perTrialBonus":0.5,"perTrialBonusThreshold":0.05,"exampleCost":0.02},"classroomParams":{"A":{"a":1,"b":4},"B":{"a":4,"b":1},"C":{"a":2,"b":8},"D":{"a":8,"b":2}},"conditions":["nonSeqFull","nonSeqPartial","seqNoFeedback","seqFeedback"],"classroomPairings":[["A","B"],["C","D"]],"coinWeights":[0.2,0.5,0.8],"subjectId":"A272X64FOZFYLB","assignmentId":"3GU1KF0O4JNFMVO5DGGXOAM1N9NBPX","hitId":"3XUY87HIVP03YZXVLN9CW37DVI1MM2","url":"https://gershmanlab.com/experiments/alicia/teaching/experiment/?hitId=3XUY87HIVP03YZXVLN9CW37DVI1MM2&workerId=A272X64FOZFYLB&assignmentId=3GU1KF0O4JNFMVO5DGGXOAM1N9NBPX&a=OKUG3&tp_a=OKUG3&b=3GU1KF0O4JNFMVO5DGGXOAM1N9NBPX&tp_b=3GU1KF0O4JNFMVO5DGGXOAM1N9NBPX&c=365633&tp_c=365633","heads":10,"tails":10,"studentIndex":11,"studentTrueHypers":{"a":8,"b":2},"studentGuess":0.6,"delta":0.09999999999999998,"totalExamples":20,"bonusSoFar":1.5},{"rt":13700,"response":{"heads":"5","tails":"5"},"type":"response","condition":"seqNoFeedback","trueTheta":0.5,"classrooms":["C","D"],"studentTrueClassroom":"D","exampleSet":"second","trial_type":"survey-html-form","trial_index":98,"time_elapsed":860647,"internal_node_id":"0.0-95.0-0.0","params":{"nStudents":24,"maxFlips":25,"completionMinutes":45,"basePay":8,"maxBonus":9,"perTrialBonus":0.5,"perTrialBonusThreshold":0.05,"exampleCost":0.02},"classroomParams":{"A":{"a":1,"b":4},"B":{"a":4,"b":1},"C":{"a":2,"b":8},"D":{"a":8,"b":2}},"conditions":["nonSeqFull","nonSeqPartial","seqNoFeedback","seqFeedback"],"classroomPairings":[["A","B"],["C","D"]],"coinWeights":[0.2,0.5,0.8],"subjectId":"A272X64FOZFYLB","assignmentId":"3GU1KF0O4JNFMVO5DGGXOAM1N9NBPX","hitId":"3XUY87HIVP03YZXVLN9CW37DVI1MM2","url":"https://gershmanlab.com/experiments/alicia/teaching/experiment/?hitId=3XUY87HIVP03YZXVLN9CW37DVI1MM2&workerId=A272X64FOZFYLB&assignmentId=3GU1KF0O4JNFMVO5DGGXOAM1N9NBPX&a=OKUG3&tp_a=OKUG3&b=3GU1KF0O4JNFMVO5DGGXOAM1N9NBPX&tp_b=3GU1KF0O4JNFMVO5DGGXOAM1N9NBPX&c=365633&tp_c=365633","firstResponseHeads":10,"firstResponseTails":10,"secondResponseHeads":5,"secondResponseTails":5,"totalHeads":15,"totalTails":15,"studentIndex":11,"studentTrueHypers":{"a":8,"b":2},"studentGuess":0.575,"delta":0.07499999999999996,"bonus":0,"bonusSoFar":1.5,"totalExamples":30},{"rt":12607,"response":{"heads":"4","tails":"1"},"type":"response","condition":"nonSeqPartial","trueTheta":0.8,"classrooms":["C","D"],"studentTrueClassroom":"D","exampleSet":"first","trial_type":"survey-html-form","trial_index":104,"time_elapsed":884415,"internal_node_id":"0.0-101.0-0.0","params":{"nStudents":24,"maxFlips":25,"completionMinutes":45,"basePay":8,"maxBonus":9,"perTrialBonus":0.5,"perTrialBonusThreshold":0.05,"exampleCost":0.02},"classroomParams":{"A":{"a":1,"b":4},"B":{"a":4,"b":1},"C":{"a":2,"b":8},"D":{"a":8,"b":2}},"conditions":["nonSeqFull","nonSeqPartial","seqNoFeedback","seqFeedback"],"classroomPairings":[["A","B"],["C","D"]],"coinWeights":[0.2,0.5,0.8],"subjectId":"A272X64FOZFYLB","assignmentId":"3GU1KF0O4JNFMVO5DGGXOAM1N9NBPX","hitId":"3XUY87HIVP03YZXVLN9CW37DVI1MM2","url":"https://gershmanlab.com/experiments/alicia/teaching/experiment/?hitId=3XUY87HIVP03YZXVLN9CW37DVI1MM2&workerId=A272X64FOZFYLB&assignmentId=3GU1KF0O4JNFMVO5DGGXOAM1N9NBPX&a=OKUG3&tp_a=OKUG3&b=3GU1KF0O4JNFMVO5DGGXOAM1N9NBPX&tp_b=3GU1KF0O4JNFMVO5DGGXOAM1N9NBPX&c=365633&tp_c=365633","heads":4,"tails":1,"studentIndex":12,"studentTrueHypers":{"a":8,"b":2},"studentGuess":0.8,"delta":0,"totalExamples":5,"bonus":0.4,"bonusSoFar":1.9},{"rt":31623,"response":{"heads":"4","tails":"1"},"type":"response","condition":"nonSeqPartial","trueTheta":0.8,"classrooms":["A","B"],"studentTrueClassroom":"B","exampleSet":"first","trial_type":"survey-html-form","trial_index":110,"time_elapsed":927415,"internal_node_id":"0.0-107.0-0.0","params":{"nStudents":24,"maxFlips":25,"completionMinutes":45,"basePay":8,"maxBonus":9,"perTrialBonus":0.5,"perTrialBonusThreshold":0.05,"exampleCost":0.02},"classroomParams":{"A":{"a":1,"b":4},"B":{"a":4,"b":1},"C":{"a":2,"b":8},"D":{"a":8,"b":2}},"conditions":["nonSeqFull","nonSeqPartial","seqNoFeedback","seqFeedback"],"classroomPairings":[["A","B"],["C","D"]],"coinWeights":[0.2,0.5,0.8],"subjectId":"A272X64FOZFYLB","assignmentId":"3GU1KF0O4JNFMVO5DGGXOAM1N9NBPX","hitId":"3XUY87HIVP03YZXVLN9CW37DVI1MM2","url":"https://gershmanlab.com/experiments/alicia/teaching/experiment/?hitId=3XUY87HIVP03YZXVLN9CW37DVI1MM2&workerId=A272X64FOZFYLB&assignmentId=3GU1KF0O4JNFMVO5DGGXOAM1N9NBPX&a=OKUG3&tp_a=OKUG3&b=3GU1KF0O4JNFMVO5DGGXOAM1N9NBPX&tp_b=3GU1KF0O4JNFMVO5DGGXOAM1N9NBPX&c=365633&tp_c=365633","heads":4,"tails":1,"studentIndex":13,"studentTrueHypers":{"a":4,"b":1},"studentGuess":0.8,"delta":0,"totalExamples":5,"bonus":0.4,"bonusSoFar":2.3},{"rt":18375,"response":{"heads":"12","tails":"12"},"type":"response","condition":"seqFeedback","trueTheta":0.5,"classrooms":["C","D"],"studentTrueClassroom":"C","exampleSet":"first","trial_type":"survey-html-form","trial_index":116,"time_elapsed":959767,"internal_node_id":"0.0-113.0-0.0","params":{"nStudents":24,"maxFlips":25,"completionMinutes":45,"basePay":8,"maxBonus":9,"perTrialBonus":0.5,"perTrialBonusThreshold":0.05,"exampleCost":0.02},"classroomParams":{"A":{"a":1,"b":4},"B":{"a":4,"b":1},"C":{"a":2,"b":8},"D":{"a":8,"b":2}},"conditions":["nonSeqFull","nonSeqPartial","seqNoFeedback","seqFeedback"],"classroomPairings":[["A","B"],["C","D"]],"coinWeights":[0.2,0.5,0.8],"subjectId":"A272X64FOZFYLB","assignmentId":"3GU1KF0O4JNFMVO5DGGXOAM1N9NBPX","hitId":"3XUY87HIVP03YZXVLN9CW37DVI1MM2","url":"https://gershmanlab.com/experiments/alicia/teaching/experiment/?hitId=3XUY87HIVP03YZXVLN9CW37DVI1MM2&workerId=A272X64FOZFYLB&assignmentId=3GU1KF0O4JNFMVO5DGGXOAM1N9NBPX&a=OKUG3&tp_a=OKUG3&b=3GU1KF0O4JNFMVO5DGGXOAM1N9NBPX&tp_b=3GU1KF0O4JNFMVO5DGGXOAM1N9NBPX&c=365633&tp_c=365633","heads":12,"tails":12,"studentIndex":14,"studentTrueHypers":{"a":2,"b":8},"studentGuess":0.4117647058823529,"delta":0.08823529411764708,"totalExamples":24,"bonusSoFar":2.3},{"rt":53784,"response":{"heads":"3","tails":"0"},"type":"response","condition":"seqFeedback","trueTheta":0.5,"classrooms":["C","D"],"studentTrueClassroom":"C","exampleSet":"second","trial_type":"survey-html-form","trial_index":120,"time_elapsed":1035440,"internal_node_id":"0.0-117.0-0.0","params":{"nStudents":24,"maxFlips":25,"completionMinutes":45,"basePay":8,"maxBonus":9,"perTrialBonus":0.5,"perTrialBonusThreshold":0.05,"exampleCost":0.02},"classroomParams":{"A":{"a":1,"b":4},"B":{"a":4,"b":1},"C":{"a":2,"b":8},"D":{"a":8,"b":2}},"conditions":["nonSeqFull","nonSeqPartial","seqNoFeedback","seqFeedback"],"classroomPairings":[["A","B"],["C","D"]],"coinWeights":[0.2,0.5,0.8],"subjectId":"A272X64FOZFYLB","assignmentId":"3GU1KF0O4JNFMVO5DGGXOAM1N9NBPX","hitId":"3XUY87HIVP03YZXVLN9CW37DVI1MM2","url":"https://gershmanlab.com/experiments/alicia/teaching/experiment/?hitId=3XUY87HIVP03YZXVLN9CW37DVI1MM2&workerId=A272X64FOZFYLB&assignmentId=3GU1KF0O4JNFMVO5DGGXOAM1N9NBPX&a=OKUG3&tp_a=OKUG3&b=3GU1KF0O4JNFMVO5DGGXOAM1N9NBPX&tp_b=3GU1KF0O4JNFMVO5DGGXOAM1N9NBPX&c=365633&tp_c=365633","firstResponseHeads":12,"firstResponseTails":12,"secondResponseHeads":3,"secondResponseTails":0,"totalHeads":15,"totalTails":12,"studentIndex":14,"studentTrueHypers":{"a":2,"b":8},"studentGuess":0.4594594594594595,"delta":0.040540540540540515,"bonus":0,"bonusSoFar":2.3,"totalExamples":27},{"rt":10648,"response":{"heads":"12","tails":"12"},"type":"response","condition":"nonSeqPartial","trueTheta":0.5,"classrooms":["A","B"],"studentTrueClassroom":"B","exampleSet":"first","trial_type":"survey-html-form","trial_index":126,"time_elapsed":1066863,"internal_node_id":"0.0-123.0-0.0","params":{"nStudents":24,"maxFlips":25,"completionMinutes":45,"basePay":8,"maxBonus":9,"perTrialBonus":0.5,"perTrialBonusThreshold":0.05,"exampleCost":0.02},"classroomParams":{"A":{"a":1,"b":4},"B":{"a":4,"b":1},"C":{"a":2,"b":8},"D":{"a":8,"b":2}},"conditions":["nonSeqFull","nonSeqPartial","seqNoFeedback","seqFeedback"],"classroomPairings":[["A","B"],["C","D"]],"coinWeights":[0.2,0.5,0.8],"subjectId":"A272X64FOZFYLB","assignmentId":"3GU1KF0O4JNFMVO5DGGXOAM1N9NBPX","hitId":"3XUY87HIVP03YZXVLN9CW37DVI1MM2","url":"https://gershmanlab.com/experiments/alicia/teaching/experiment/?hitId=3XUY87HIVP03YZXVLN9CW37DVI1MM2&workerId=A272X64FOZFYLB&assignmentId=3GU1KF0O4JNFMVO5DGGXOAM1N9NBPX&a=OKUG3&tp_a=OKUG3&b=3GU1KF0O4JNFMVO5DGGXOAM1N9NBPX&tp_b=3GU1KF0O4JNFMVO5DGGXOAM1N9NBPX&c=365633&tp_c=365633","heads":12,"tails":12,"studentIndex":15,"studentTrueHypers":{"a":4,"b":1},"studentGuess":0.5517241379310345,"delta":0.051724137931034475,"totalExamples":24,"bonus":0,"bonusSoFar":2.3},{"rt":49551,"response":{"heads":"5","tails":"20"},"type":"response","condition":"seqFeedback","trueTheta":0.2,"classrooms":["A","B"],"studentTrueClassroom":"B","exampleSet":"first","trial_type":"survey-html-form","trial_index":132,"time_elapsed":1131759,"internal_node_id":"0.0-129.0-0.0","params":{"nStudents":24,"maxFlips":25,"completionMinutes":45,"basePay":8,"maxBonus":9,"perTrialBonus":0.5,"perTrialBonusThreshold":0.05,"exampleCost":0.02},"classroomParams":{"A":{"a":1,"b":4},"B":{"a":4,"b":1},"C":{"a":2,"b":8},"D":{"a":8,"b":2}},"conditions":["nonSeqFull","nonSeqPartial","seqNoFeedback","seqFeedback"],"classroomPairings":[["A","B"],["C","D"]],"coinWeights":[0.2,0.5,0.8],"subjectId":"A272X64FOZFYLB","assignmentId":"3GU1KF0O4JNFMVO5DGGXOAM1N9NBPX","hitId":"3XUY87HIVP03YZXVLN9CW37DVI1MM2","url":"https://gershmanlab.com/experiments/alicia/teaching/experiment/?hitId=3XUY87HIVP03YZXVLN9CW37DVI1MM2&workerId=A272X64FOZFYLB&assignmentId=3GU1KF0O4JNFMVO5DGGXOAM1N9NBPX&a=OKUG3&tp_a=OKUG3&b=3GU1KF0O4JNFMVO5DGGXOAM1N9NBPX&tp_b=3GU1KF0O4JNFMVO5DGGXOAM1N9NBPX&c=365633&tp_c=365633","heads":5,"tails":20,"studentIndex":16,"studentTrueHypers":{"a":4,"b":1},"studentGuess":0.3,"delta":0.09999999999999998,"totalExamples":25,"bonusSoFar":2.3},{"rt":66248,"response":{"heads":"1","tails":"4"},"type":"response","condition":"seqFeedback","trueTheta":0.2,"classrooms":["A","B"],"studentTrueClassroom":"B","exampleSet":"second","trial_type":"survey-html-form","trial_index":136,"time_elapsed":1228047,"internal_node_id":"0.0-133.0-0.0","params":{"nStudents":24,"maxFlips":25,"completionMinutes":45,"basePay":8,"maxBonus":9,"perTrialBonus":0.5,"perTrialBonusThreshold":0.05,"exampleCost":0.02},"classroomParams":{"A":{"a":1,"b":4},"B":{"a":4,"b":1},"C":{"a":2,"b":8},"D":{"a":8,"b":2}},"conditions":["nonSeqFull","nonSeqPartial","seqNoFeedback","seqFeedback"],"classroomPairings":[["A","B"],["C","D"]],"coinWeights":[0.2,0.5,0.8],"subjectId":"A272X64FOZFYLB","assignmentId":"3GU1KF0O4JNFMVO5DGGXOAM1N9NBPX","hitId":"3XUY87HIVP03YZXVLN9CW37DVI1MM2","url":"https://gershmanlab.com/experiments/alicia/teaching/experiment/?hitId=3XUY87HIVP03YZXVLN9CW37DVI1MM2&workerId=A272X64FOZFYLB&assignmentId=3GU1KF0O4JNFMVO5DGGXOAM1N9NBPX&a=OKUG3&tp_a=OKUG3&b=3GU1KF0O4JNFMVO5DGGXOAM1N9NBPX&tp_b=3GU1KF0O4JNFMVO5DGGXOAM1N9NBPX&c=365633&tp_c=365633","firstResponseHeads":5,"firstResponseTails":20,"secondResponseHeads":1,"secondResponseTails":4,"totalHeads":6,"totalTails":24,"studentIndex":16,"studentTrueHypers":{"a":4,"b":1},"studentGuess":0.2857142857142857,"delta":0.08571428571428569,"bonus":0,"bonusSoFar":2.3,"totalExamples":30},{"rt":72727,"response":{"heads":"12","tails":"12"},"type":"response","condition":"seqNoFeedback","trueTheta":0.5,"classrooms":["A","B"],"studentTrueClassroom":"B","exampleSet":"first","trial_type":"survey-html-form","trial_index":142,"time_elapsed":1327886,"internal_node_id":"0.0-139.0-0.0","params":{"nStudents":24,"maxFlips":25,"completionMinutes":45,"basePay":8,"maxBonus":9,"perTrialBonus":0.5,"perTrialBonusThreshold":0.05,"exampleCost":0.02},"classroomParams":{"A":{"a":1,"b":4},"B":{"a":4,"b":1},"C":{"a":2,"b":8},"D":{"a":8,"b":2}},"conditions":["nonSeqFull","nonSeqPartial","seqNoFeedback","seqFeedback"],"classroomPairings":[["A","B"],["C","D"]],"coinWeights":[0.2,0.5,0.8],"subjectId":"A272X64FOZFYLB","assignmentId":"3GU1KF0O4JNFMVO5DGGXOAM1N9NBPX","hitId":"3XUY87HIVP03YZXVLN9CW37DVI1MM2","url":"https://gershmanlab.com/experiments/alicia/teaching/experiment/?hitId=3XUY87HIVP03YZXVLN9CW37DVI1MM2&workerId=A272X64FOZFYLB&assignmentId=3GU1KF0O4JNFMVO5DGGXOAM1N9NBPX&a=OKUG3&tp_a=OKUG3&b=3GU1KF0O4JNFMVO5DGGXOAM1N9NBPX&tp_b=3GU1KF0O4JNFMVO5DGGXOAM1N9NBPX&c=365633&tp_c=365633","heads":12,"tails":12,"studentIndex":17,"studentTrueHypers":{"a":4,"b":1},"studentGuess":0.5517241379310345,"delta":0.051724137931034475,"totalExamples":24,"bonusSoFar":2.3},{"rt":8564,"response":{"heads":"12","tails":"12"},"type":"response","condition":"seqNoFeedback","trueTheta":0.5,"classrooms":["A","B"],"studentTrueClassroom":"B","exampleSet":"second","trial_type":"survey-html-form","trial_index":145,"time_elapsed":1344214,"internal_node_id":"0.0-142.0-0.0","params":{"nStudents":24,"maxFlips":25,"completionMinutes":45,"basePay":8,"maxBonus":9,"perTrialBonus":0.5,"perTrialBonusThreshold":0.05,"exampleCost":0.02},"classroomParams":{"A":{"a":1,"b":4},"B":{"a":4,"b":1},"C":{"a":2,"b":8},"D":{"a":8,"b":2}},"conditions":["nonSeqFull","nonSeqPartial","seqNoFeedback","seqFeedback"],"classroomPairings":[["A","B"],["C","D"]],"coinWeights":[0.2,0.5,0.8],"subjectId":"A272X64FOZFYLB","assignmentId":"3GU1KF0O4JNFMVO5DGGXOAM1N9NBPX","hitId":"3XUY87HIVP03YZXVLN9CW37DVI1MM2","url":"https://gershmanlab.com/experiments/alicia/teaching/experiment/?hitId=3XUY87HIVP03YZXVLN9CW37DVI1MM2&workerId=A272X64FOZFYLB&assignmentId=3GU1KF0O4JNFMVO5DGGXOAM1N9NBPX&a=OKUG3&tp_a=OKUG3&b=3GU1KF0O4JNFMVO5DGGXOAM1N9NBPX&tp_b=3GU1KF0O4JNFMVO5DGGXOAM1N9NBPX&c=365633&tp_c=365633","firstResponseHeads":12,"firstResponseTails":12,"secondResponseHeads":12,"secondResponseTails":12,"totalHeads":24,"totalTails":24,"studentIndex":17,"studentTrueHypers":{"a":4,"b":1},"studentGuess":0.5283018867924528,"delta":0.028301886792452824,"bonus":0,"bonusSoFar":2.3,"totalExamples":48},{"rt":20639,"response":{"heads":"6","tails":"0"},"type":"response","condition":"nonSeqPartial","trueTheta":0.5,"classrooms":["C","D"],"studentTrueClassroom":"D","exampleSet":"first","trial_type":"survey-html-form","trial_index":151,"time_elapsed":1380351,"internal_node_id":"0.0-148.0-0.0","params":{"nStudents":24,"maxFlips":25,"completionMinutes":45,"basePay":8,"maxBonus":9,"perTrialBonus":0.5,"perTrialBonusThreshold":0.05,"exampleCost":0.02},"classroomParams":{"A":{"a":1,"b":4},"B":{"a":4,"b":1},"C":{"a":2,"b":8},"D":{"a":8,"b":2}},"conditions":["nonSeqFull","nonSeqPartial","seqNoFeedback","seqFeedback"],"classroomPairings":[["A","B"],["C","D"]],"coinWeights":[0.2,0.5,0.8],"subjectId":"A272X64FOZFYLB","assignmentId":"3GU1KF0O4JNFMVO5DGGXOAM1N9NBPX","hitId":"3XUY87HIVP03YZXVLN9CW37DVI1MM2","url":"https://gershmanlab.com/experiments/alicia/teaching/experiment/?hitId=3XUY87HIVP03YZXVLN9CW37DVI1MM2&workerId=A272X64FOZFYLB&assignmentId=3GU1KF0O4JNFMVO5DGGXOAM1N9NBPX&a=OKUG3&tp_a=OKUG3&b=3GU1KF0O4JNFMVO5DGGXOAM1N9NBPX&tp_b=3GU1KF0O4JNFMVO5DGGXOAM1N9NBPX&c=365633&tp_c=365633","heads":6,"tails":0,"studentIndex":18,"studentTrueHypers":{"a":8,"b":2},"studentGuess":0.875,"delta":0.375,"totalExamples":6,"bonus":0,"bonusSoFar":2.3},{"rt":56224,"response":{"heads":"0","tails":"25"},"type":"response","condition":"nonSeqFull","trueTheta":0.2,"classrooms":["C","D"],"studentTrueClassroom":"D","exampleSet":"first","trial_type":"survey-html-form","trial_index":157,"time_elapsed":1450823,"internal_node_id":"0.0-154.0-0.0","params":{"nStudents":24,"maxFlips":25,"completionMinutes":45,"basePay":8,"maxBonus":9,"perTrialBonus":0.5,"perTrialBonusThreshold":0.05,"exampleCost":0.02},"classroomParams":{"A":{"a":1,"b":4},"B":{"a":4,"b":1},"C":{"a":2,"b":8},"D":{"a":8,"b":2}},"conditions":["nonSeqFull","nonSeqPartial","seqNoFeedback","seqFeedback"],"classroomPairings":[["A","B"],["C","D"]],"coinWeights":[0.2,0.5,0.8],"subjectId":"A272X64FOZFYLB","assignmentId":"3GU1KF0O4JNFMVO5DGGXOAM1N9NBPX","hitId":"3XUY87HIVP03YZXVLN9CW37DVI1MM2","url":"https://gershmanlab.com/experiments/alicia/teaching/experiment/?hitId=3XUY87HIVP03YZXVLN9CW37DVI1MM2&workerId=A272X64FOZFYLB&assignmentId=3GU1KF0O4JNFMVO5DGGXOAM1N9NBPX&a=OKUG3&tp_a=OKUG3&b=3GU1KF0O4JNFMVO5DGGXOAM1N9NBPX&tp_b=3GU1KF0O4JNFMVO5DGGXOAM1N9NBPX&c=365633&tp_c=365633","heads":0,"tails":25,"studentIndex":19,"studentTrueHypers":{"a":8,"b":2},"studentGuess":0.22857142857142856,"delta":0.028571428571428553,"totalExamples":25,"bonus":0,"bonusSoFar":2.3},{"rt":28448,"response":{"heads":"5","tails":"0"},"type":"response","condition":"nonSeqFull","trueTheta":0.5,"classrooms":["C","D"],"studentTrueClassroom":"C","exampleSet":"first","trial_type":"survey-html-form","trial_index":163,"time_elapsed":1548931,"internal_node_id":"0.0-160.0-0.0","params":{"nStudents":24,"maxFlips":25,"completionMinutes":45,"basePay":8,"maxBonus":9,"perTrialBonus":0.5,"perTrialBonusThreshold":0.05,"exampleCost":0.02},"classroomParams":{"A":{"a":1,"b":4},"B":{"a":4,"b":1},"C":{"a":2,"b":8},"D":{"a":8,"b":2}},"conditions":["nonSeqFull","nonSeqPartial","seqNoFeedback","seqFeedback"],"classroomPairings":[["A","B"],["C","D"]],"coinWeights":[0.2,0.5,0.8],"subjectId":"A272X64FOZFYLB","assignmentId":"3GU1KF0O4JNFMVO5DGGXOAM1N9NBPX","hitId":"3XUY87HIVP03YZXVLN9CW37DVI1MM2","url":"https://gershmanlab.com/experiments/alicia/teaching/experiment/?hitId=3XUY87HIVP03YZXVLN9CW37DVI1MM2&workerId=A272X64FOZFYLB&assignmentId=3GU1KF0O4JNFMVO5DGGXOAM1N9NBPX&a=OKUG3&tp_a=OKUG3&b=3GU1KF0O4JNFMVO5DGGXOAM1N9NBPX&tp_b=3GU1KF0O4JNFMVO5DGGXOAM1N9NBPX&c=365633&tp_c=365633","heads":5,"tails":0,"studentIndex":20,"studentTrueHypers":{"a":2,"b":8},"studentGuess":0.4666666666666667,"delta":0.033333333333333326,"totalExamples":5,"bonus":0.4,"bonusSoFar":2.7},{"rt":47623,"response":{"heads":"12","tails":"12"},"type":"response","condition":"seqFeedback","trueTheta":0.5,"classrooms":["A","B"],"studentTrueClassroom":"B","exampleSet":"first","trial_type":"survey-html-form","trial_index":169,"time_elapsed":1612898,"internal_node_id":"0.0-166.0-0.0","params":{"nStudents":24,"maxFlips":25,"completionMinutes":45,"basePay":8,"maxBonus":9,"perTrialBonus":0.5,"perTrialBonusThreshold":0.05,"exampleCost":0.02},"classroomParams":{"A":{"a":1,"b":4},"B":{"a":4,"b":1},"C":{"a":2,"b":8},"D":{"a":8,"b":2}},"conditions":["nonSeqFull","nonSeqPartial","seqNoFeedback","seqFeedback"],"classroomPairings":[["A","B"],["C","D"]],"coinWeights":[0.2,0.5,0.8],"subjectId":"A272X64FOZFYLB","assignmentId":"3GU1KF0O4JNFMVO5DGGXOAM1N9NBPX","hitId":"3XUY87HIVP03YZXVLN9CW37DVI1MM2","url":"https://gershmanlab.com/experiments/alicia/teaching/experiment/?hitId=3XUY87HIVP03YZXVLN9CW37DVI1MM2&workerId=A272X64FOZFYLB&assignmentId=3GU1KF0O4JNFMVO5DGGXOAM1N9NBPX&a=OKUG3&tp_a=OKUG3&b=3GU1KF0O4JNFMVO5DGGXOAM1N9NBPX&tp_b=3GU1KF0O4JNFMVO5DGGXOAM1N9NBPX&c=365633&tp_c=365633","heads":12,"tails":12,"studentIndex":21,"studentTrueHypers":{"a":4,"b":1},"studentGuess":0.5517241379310345,"delta":0.051724137931034475,"totalExamples":24,"bonusSoFar":2.7},{"rt":67123,"response":{"heads":"0","tails":"1"},"type":"response","condition":"seqFeedback","trueTheta":0.5,"classrooms":["A","B"],"studentTrueClassroom":"B","exampleSet":"second","trial_type":"survey-html-form","trial_index":173,"time_elapsed":1689594,"internal_node_id":"0.0-170.0-0.0","params":{"nStudents":24,"maxFlips":25,"completionMinutes":45,"basePay":8,"maxBonus":9,"perTrialBonus":0.5,"perTrialBonusThreshold":0.05,"exampleCost":0.02},"classroomParams":{"A":{"a":1,"b":4},"B":{"a":4,"b":1},"C":{"a":2,"b":8},"D":{"a":8,"b":2}},"conditions":["nonSeqFull","nonSeqPartial","seqNoFeedback","seqFeedback"],"classroomPairings":[["A","B"],["C","D"]],"coinWeights":[0.2,0.5,0.8],"subjectId":"A272X64FOZFYLB","assignmentId":"3GU1KF0O4JNFMVO5DGGXOAM1N9NBPX","hitId":"3XUY87HIVP03YZXVLN9CW37DVI1MM2","url":"https://gershmanlab.com/experiments/alicia/teaching/experiment/?hitId=3XUY87HIVP03YZXVLN9CW37DVI1MM2&workerId=A272X64FOZFYLB&assignmentId=3GU1KF0O4JNFMVO5DGGXOAM1N9NBPX&a=OKUG3&tp_a=OKUG3&b=3GU1KF0O4JNFMVO5DGGXOAM1N9NBPX&tp_b=3GU1KF0O4JNFMVO5DGGXOAM1N9NBPX&c=365633&tp_c=365633","firstResponseHeads":12,"firstResponseTails":12,"secondResponseHeads":0,"secondResponseTails":1,"totalHeads":12,"totalTails":13,"studentIndex":21,"studentTrueHypers":{"a":4,"b":1},"studentGuess":0.5333333333333333,"delta":0.033333333333333326,"bonus":0,"bonusSoFar":2.7,"totalExamples":25},{"rt":90148,"response":{"heads":"22","tails":"0"},"type":"response","condition":"nonSeqFull","trueTheta":0.8,"classrooms":["C","D"],"studentTrueClassroom":"C","exampleSet":"first","trial_type":"survey-html-form","trial_index":179,"time_elapsed":1799045,"internal_node_id":"0.0-176.0-0.0","params":{"nStudents":24,"maxFlips":25,"completionMinutes":45,"basePay":8,"maxBonus":9,"perTrialBonus":0.5,"perTrialBonusThreshold":0.05,"exampleCost":0.02},"classroomParams":{"A":{"a":1,"b":4},"B":{"a":4,"b":1},"C":{"a":2,"b":8},"D":{"a":8,"b":2}},"conditions":["nonSeqFull","nonSeqPartial","seqNoFeedback","seqFeedback"],"classroomPairings":[["A","B"],["C","D"]],"coinWeights":[0.2,0.5,0.8],"subjectId":"A272X64FOZFYLB","assignmentId":"3GU1KF0O4JNFMVO5DGGXOAM1N9NBPX","hitId":"3XUY87HIVP03YZXVLN9CW37DVI1MM2","url":"https://gershmanlab.com/experiments/alicia/teaching/experiment/?hitId=3XUY87HIVP03YZXVLN9CW37DVI1MM2&workerId=A272X64FOZFYLB&assignmentId=3GU1KF0O4JNFMVO5DGGXOAM1N9NBPX&a=OKUG3&tp_a=OKUG3&b=3GU1KF0O4JNFMVO5DGGXOAM1N9NBPX&tp_b=3GU1KF0O4JNFMVO5DGGXOAM1N9NBPX&c=365633&tp_c=365633","heads":22,"tails":0,"studentIndex":22,"studentTrueHypers":{"a":2,"b":8},"studentGuess":0.75,"delta":0.050000000000000044,"totalExamples":22,"bonus":0,"bonusSoFar":2.7},{"rt":85871,"response":{"heads":"4","tails":"1"},"type":"response","condition":"seqFeedback","trueTheta":0.8,"classrooms":["A","B"],"studentTrueClassroom":"B","exampleSet":"first","trial_type":"survey-html-form","trial_index":185,"time_elapsed":1925607,"internal_node_id":"0.0-182.0-0.0","params":{"nStudents":24,"maxFlips":25,"completionMinutes":45,"basePay":8,"maxBonus":9,"perTrialBonus":0.5,"perTrialBonusThreshold":0.05,"exampleCost":0.02},"classroomParams":{"A":{"a":1,"b":4},"B":{"a":4,"b":1},"C":{"a":2,"b":8},"D":{"a":8,"b":2}},"conditions":["nonSeqFull","nonSeqPartial","seqNoFeedback","seqFeedback"],"classroomPairings":[["A","B"],["C","D"]],"coinWeights":[0.2,0.5,0.8],"subjectId":"A272X64FOZFYLB","assignmentId":"3GU1KF0O4JNFMVO5DGGXOAM1N9NBPX","hitId":"3XUY87HIVP03YZXVLN9CW37DVI1MM2","url":"https://gershmanlab.com/experiments/alicia/teaching/experiment/?hitId=3XUY87HIVP03YZXVLN9CW37DVI1MM2&workerId=A272X64FOZFYLB&assignmentId=3GU1KF0O4JNFMVO5DGGXOAM1N9NBPX&a=OKUG3&tp_a=OKUG3&b=3GU1KF0O4JNFMVO5DGGXOAM1N9NBPX&tp_b=3GU1KF0O4JNFMVO5DGGXOAM1N9NBPX&c=365633&tp_c=365633","heads":4,"tails":1,"studentIndex":23,"studentTrueHypers":{"a":4,"b":1},"studentGuess":0.8,"delta":0,"totalExamples":5,"bonusSoFar":2.7},{"rt":42540,"response":{"heads":"4","tails":"1"},"type":"response","condition":"seqFeedback","trueTheta":0.8,"classrooms":["A","B"],"studentTrueClassroom":"B","exampleSet":"second","trial_type":"survey-html-form","trial_index":189,"time_elapsed":1983219,"internal_node_id":"0.0-186.0-0.0","params":{"nStudents":24,"maxFlips":25,"completionMinutes":45,"basePay":8,"maxBonus":9,"perTrialBonus":0.5,"perTrialBonusThreshold":0.05,"exampleCost":0.02},"classroomParams":{"A":{"a":1,"b":4},"B":{"a":4,"b":1},"C":{"a":2,"b":8},"D":{"a":8,"b":2}},"conditions":["nonSeqFull","nonSeqPartial","seqNoFeedback","seqFeedback"],"classroomPairings":[["A","B"],["C","D"]],"coinWeights":[0.2,0.5,0.8],"subjectId":"A272X64FOZFYLB","assignmentId":"3GU1KF0O4JNFMVO5DGGXOAM1N9NBPX","hitId":"3XUY87HIVP03YZXVLN9CW37DVI1MM2","url":"https://gershmanlab.com/experiments/alicia/teaching/experiment/?hitId=3XUY87HIVP03YZXVLN9CW37DVI1MM2&workerId=A272X64FOZFYLB&assignmentId=3GU1KF0O4JNFMVO5DGGXOAM1N9NBPX&a=OKUG3&tp_a=OKUG3&b=3GU1KF0O4JNFMVO5DGGXOAM1N9NBPX&tp_b=3GU1KF0O4JNFMVO5DGGXOAM1N9NBPX&c=365633&tp_c=365633","firstResponseHeads":4,"firstResponseTails":1,"secondResponseHeads":4,"secondResponseTails":1,"totalHeads":8,"totalTails":2,"studentIndex":23,"studentTrueHypers":{"a":4,"b":1},"studentGuess":0.8,"delta":0,"bonus":0.3,"bonusSoFar":3,"totalExamples":10},{"rt":16384,"response":{"gender":"male","age":"28","understood":"yes","comments":""},"type":"response","trial_type":"survey-html-form","trial_index":193,"time_elapsed":2014816,"internal_node_id":"0.0-191.0","params":{"nStudents":24,"maxFlips":25,"completionMinutes":45,"basePay":8,"maxBonus":9,"perTrialBonus":0.5,"perTrialBonusThreshold":0.05,"exampleCost":0.02},"classroomParams":{"A":{"a":1,"b":4},"B":{"a":4,"b":1},"C":{"a":2,"b":8},"D":{"a":8,"b":2}},"conditions":["nonSeqFull","nonSeqPartial","seqNoFeedback","seqFeedback"],"classroomPairings":[["A","B"],["C","D"]],"coinWeights":[0.2,0.5,0.8],"subjectId":"A272X64FOZFYLB","assignmentId":"3GU1KF0O4JNFMVO5DGGXOAM1N9NBPX","hitId":"3XUY87HIVP03YZXVLN9CW37DVI1MM2","url":"https://gershmanlab.com/experiments/alicia/teaching/experiment/?hitId=3XUY87HIVP03YZXVLN9CW37DVI1MM2&workerId=A272X64FOZFYLB&assignmentId=3GU1KF0O4JNFMVO5DGGXOAM1N9NBPX&a=OKUG3&tp_a=OKUG3&b=3GU1KF0O4JNFMVO5DGGXOAM1N9NBPX&tp_b=3GU1KF0O4JNFMVO5DGGXOAM1N9NBPX&c=365633&tp_c=365633","totalBonus":3}]