[{"rt":63195,"response":{"heads":"22","tails":"0"},"type":"response","condition":"nonSeqFull","trueTheta":0.8,"classrooms":["C","D"],"studentTrueClassroom":"C","exampleSet":"first","trial_type":"survey-html-form","trial_index":7,"time_elapsed":952933,"internal_node_id":"0.0-6.0-0.0","params":{"nStudents":24,"maxFlips":25,"completionMinutes":45,"basePay":8,"maxBonus":9,"perTrialBonus":0.5,"perTrialBonusThreshold":0.05,"exampleCost":0.02},"classroomParams":{"A":{"a":1,"b":4},"B":{"a":4,"b":1},"C":{"a":2,"b":8},"D":{"a":8,"b":2}},"conditions":["nonSeqFull","nonSeqPartial","seqNoFeedback","seqFeedback"],"classroomPairings":[["A","B"],["C","D"]],"coinWeights":[0.2,0.5,0.8],"subjectId":"A2I4PRZ9IZMKON","assignmentId":"39GXDJN2OU09PHNUWG5M30LI1R38VG","hitId":"3QGHA0EA0JM3KKNCY0PQRLYAHLBWBE","url":"https://gershmanlab.com/experiments/alicia/teaching/experiment/?hitId=3QGHA0EA0JM3KKNCY0PQRLYAHLBWBE&workerId=A2I4PRZ9IZMKON&assignmentId=39GXDJN2OU09PHNUWG5M30LI1R38VG&a=2DG93&tp_a=2DG93&b=39GXDJN2OU09PHNUWG5M30LI1R38VG&tp_b=39GXDJN2OU09PHNUWG5M30LI1R38VG&c=365633&tp_c=365633","heads":22,"tails":0,"studentIndex":0,"studentTrueHypers":{"a":2,"b":8},"studentGuess":0.75,"delta":0.050000000000000044,"totalExamples":22,"bonus":0,"bonusSoFar":0},{"rt":10482,"response":{"heads":"8","tails":"0"},"type":"response","condition":"nonSeqPartial","trueTheta":0.8,"classrooms":["A","B"],"studentTrueClassroom":"B","exampleSet":"first","trial_type":"survey-html-form","trial_index":13,"time_elapsed":982746,"internal_node_id":"0.0-12.0-0.0","params":{"nStudents":24,"maxFlips":25,"completionMinutes":45,"basePay":8,"maxBonus":9,"perTrialBonus":0.5,"perTrialBonusThreshold":0.05,"exampleCost":0.02},"classroomParams":{"A":{"a":1,"b":4},"B":{"a":4,"b":1},"C":{"a":2,"b":8},"D":{"a":8,"b":2}},"conditions":["nonSeqFull","nonSeqPartial","seqNoFeedback","seqFeedback"],"classroomPairings":[["A","B"],["C","D"]],"coinWeights":[0.2,0.5,0.8],"subjectId":"A2I4PRZ9IZMKON","assignmentId":"39GXDJN2OU09PHNUWG5M30LI1R38VG","hitId":"3QGHA0EA0JM3KKNCY0PQRLYAHLBWBE","url":"https://gershmanlab.com/experiments/alicia/teaching/experiment/?hitId=3QGHA0EA0JM3KKNCY0PQRLYAHLBWBE&workerId=A2I4PRZ9IZMKON&assignmentId=39GXDJN2OU09PHNUWG5M30LI1R38VG&a=2DG93&tp_a=2DG93&b=39GXDJN2OU09PHNUWG5M30LI1R38VG&tp_b=39GXDJN2OU09PHNUWG5M30LI1R38VG&c=365633&tp_c=365633","heads":8,"tails":0,"studentIndex":1,"studentTrueHypers":{"a":4,"b":1},"studentGuess":0.9230769230769231,"delta":0.12307692307692308,"totalExamples":8,"bonus":0,"bonusSoFar":0},{"rt":8171,"response":{"heads":"0","tails":"0"},"type":"response","condition":"nonSeqPartial","trueTheta":0.8,"classrooms":["C","D"],"studentTrueClassroom":"C","exampleSet":"first","trial_type":"survey-html-form","trial_index":19,"time_elapsed":1007855,"internal_node_id":"0.0-18.0-0.0","params":{"nStudents":24,"maxFlips":25,"completionMinutes":45,"basePay":8,"maxBonus":9,"perTrialBonus":0.5,"perTrialBonusThreshold":0.05,"exampleCost":0.02},"classroomParams":{"A":{"a":1,"b":4},"B":{"a":4,"b":1},"C":{"a":2,"b":8},"D":{"a":8,"b":2}},"conditions":["nonSeqFull","nonSeqPartial","seqNoFeedback","seqFeedback"],"classroomPairings":[["A","B"],["C","D"]],"coinWeights":[0.2,0.5,0.8],"subjectId":"A2I4PRZ9IZMKON","assignmentId":"39GXDJN2OU09PHNUWG5M30LI1R38VG","hitId":"3QGHA0EA0JM3KKNCY0PQRLYAHLBWBE","url":"https://gershmanlab.com/experiments/alicia/teaching/experiment/?hitId=3QGHA0EA0JM3KKNCY0PQRLYAHLBWBE&workerId=A2I4PRZ9IZMKON&assignmentId=39GXDJN2OU09PHNUWG5M30LI1R38VG&a=2DG93&tp_a=2DG93&b=39GXDJN2OU09PHNUWG5M30LI1R38VG&tp_b=39GXDJN2OU09PHNUWG5M30LI1R38VG&c=365633&tp_c=365633","heads":0,"tails":0,"studentIndex":2,"studentTrueHypers":{"a":2,"b":8},"studentGuess":0.2,"delta":0.6000000000000001,"totalExamples":0,"bonus":0,"bonusSoFar":0},{"rt":2187,"response":{"heads":"0","tails":"0"},"type":"response","condition":"nonSeqPartial","trueTheta":0.8,"classrooms":["C","D"],"studentTrueClassroom":"C","exampleSet":"first","trial_type":"survey-html-form","trial_index":20,"time_elapsed":1010046,"internal_node_id":"0.0-18.1-0.1","params":{"nStudents":24,"maxFlips":25,"completionMinutes":45,"basePay":8,"maxBonus":9,"perTrialBonus":0.5,"perTrialBonusThreshold":0.05,"exampleCost":0.02},"classroomParams":{"A":{"a":1,"b":4},"B":{"a":4,"b":1},"C":{"a":2,"b":8},"D":{"a":8,"b":2}},"conditions":["nonSeqFull","nonSeqPartial","seqNoFeedback","seqFeedback"],"classroomPairings":[["A","B"],["C","D"]],"coinWeights":[0.2,0.5,0.8],"subjectId":"A2I4PRZ9IZMKON","assignmentId":"39GXDJN2OU09PHNUWG5M30LI1R38VG","hitId":"3QGHA0EA0JM3KKNCY0PQRLYAHLBWBE","url":"https://gershmanlab.com/experiments/alicia/teaching/experiment/?hitId=3QGHA0EA0JM3KKNCY0PQRLYAHLBWBE&workerId=A2I4PRZ9IZMKON&assignmentId=39GXDJN2OU09PHNUWG5M30LI1R38VG&a=2DG93&tp_a=2DG93&b=39GXDJN2OU09PHNUWG5M30LI1R38VG&tp_b=39GXDJN2OU09PHNUWG5M30LI1R38VG&c=365633&tp_c=365633","heads":0,"tails":0,"studentIndex":2,"studentTrueHypers":{"a":2,"b":8},"studentGuess":0.2,"delta":0.6000000000000001,"totalExamples":0,"bonus":0,"bonusSoFar":0},{"rt":4749,"response":{"heads":"1","tails":"1"},"type":"response","condition":"nonSeqPartial","trueTheta":0.8,"classrooms":["C","D"],"studentTrueClassroom":"C","exampleSet":"first","trial_type":"survey-html-form","trial_index":21,"time_elapsed":1014796,"internal_node_id":"0.0-18.2-0.2","params":{"nStudents":24,"maxFlips":25,"completionMinutes":45,"basePay":8,"maxBonus":9,"perTrialBonus":0.5,"perTrialBonusThreshold":0.05,"exampleCost":0.02},"classroomParams":{"A":{"a":1,"b":4},"B":{"a":4,"b":1},"C":{"a":2,"b":8},"D":{"a":8,"b":2}},"conditions":["nonSeqFull","nonSeqPartial","seqNoFeedback","seqFeedback"],"classroomPairings":[["A","B"],["C","D"]],"coinWeights":[0.2,0.5,0.8],"subjectId":"A2I4PRZ9IZMKON","assignmentId":"39GXDJN2OU09PHNUWG5M30LI1R38VG","hitId":"3QGHA0EA0JM3KKNCY0PQRLYAHLBWBE","url":"https://gershmanlab.com/experiments/alicia/teaching/experiment/?hitId=3QGHA0EA0JM3KKNCY0PQRLYAHLBWBE&workerId=A2I4PRZ9IZMKON&assignmentId=39GXDJN2OU09PHNUWG5M30LI1R38VG&a=2DG93&tp_a=2DG93&b=39GXDJN2OU09PHNUWG5M30LI1R38VG&tp_b=39GXDJN2OU09PHNUWG5M30LI1R38VG&c=365633&tp_c=365633","heads":1,"tails":1,"studentIndex":2,"studentTrueHypers":{"a":2,"b":8},"studentGuess":0.25,"delta":0.55,"totalExamples":2,"bonus":0,"bonusSoFar":0},{"rt":7737,"response":{"heads":"1","tails":"1"},"type":"response","condition":"seqFeedback","trueTheta":0.2,"classrooms":["C","D"],"studentTrueClassroom":"D","exampleSet":"first","trial_type":"survey-html-form","trial_index":27,"time_elapsed":1040991,"internal_node_id":"0.0-24.0-0.0","params":{"nStudents":24,"maxFlips":25,"completionMinutes":45,"basePay":8,"maxBonus":9,"perTrialBonus":0.5,"perTrialBonusThreshold":0.05,"exampleCost":0.02},"classroomParams":{"A":{"a":1,"b":4},"B":{"a":4,"b":1},"C":{"a":2,"b":8},"D":{"a":8,"b":2}},"conditions":["nonSeqFull","nonSeqPartial","seqNoFeedback","seqFeedback"],"classroomPairings":[["A","B"],["C","D"]],"coinWeights":[0.2,0.5,0.8],"subjectId":"A2I4PRZ9IZMKON","assignmentId":"39GXDJN2OU09PHNUWG5M30LI1R38VG","hitId":"3QGHA0EA0JM3KKNCY0PQRLYAHLBWBE","url":"https://gershmanlab.com/experiments/alicia/teaching/experiment/?hitId=3QGHA0EA0JM3KKNCY0PQRLYAHLBWBE&workerId=A2I4PRZ9IZMKON&assignmentId=39GXDJN2OU09PHNUWG5M30LI1R38VG&a=2DG93&tp_a=2DG93&b=39GXDJN2OU09PHNUWG5M30LI1R38VG&tp_b=39GXDJN2OU09PHNUWG5M30LI1R38VG&c=365633&tp_c=365633","heads":1,"tails":1,"studentIndex":3,"studentTrueHypers":{"a":8,"b":2},"studentGuess":0.75,"delta":0.55,"totalExamples":2,"bonusSoFar":0},{"rt":14643,"response":{"heads":"0","tails":"20"},"type":"response","condition":"seqFeedback","trueTheta":0.2,"classrooms":["C","D"],"studentTrueClassroom":"D","exampleSet":"second","trial_type":"survey-html-form","trial_index":31,"time_elapsed":1065069,"internal_node_id":"0.0-28.0-0.0","params":{"nStudents":24,"maxFlips":25,"completionMinutes":45,"basePay":8,"maxBonus":9,"perTrialBonus":0.5,"perTrialBonusThreshold":0.05,"exampleCost":0.02},"classroomParams":{"A":{"a":1,"b":4},"B":{"a":4,"b":1},"C":{"a":2,"b":8},"D":{"a":8,"b":2}},"conditions":["nonSeqFull","nonSeqPartial","seqNoFeedback","seqFeedback"],"classroomPairings":[["A","B"],["C","D"]],"coinWeights":[0.2,0.5,0.8],"subjectId":"A2I4PRZ9IZMKON","assignmentId":"39GXDJN2OU09PHNUWG5M30LI1R38VG","hitId":"3QGHA0EA0JM3KKNCY0PQRLYAHLBWBE","url":"https://gershmanlab.com/experiments/alicia/teaching/experiment/?hitId=3QGHA0EA0JM3KKNCY0PQRLYAHLBWBE&workerId=A2I4PRZ9IZMKON&assignmentId=39GXDJN2OU09PHNUWG5M30LI1R38VG&a=2DG93&tp_a=2DG93&b=39GXDJN2OU09PHNUWG5M30LI1R38VG&tp_b=39GXDJN2OU09PHNUWG5M30LI1R38VG&c=365633&tp_c=365633","firstResponseHeads":1,"firstResponseTails":1,"secondResponseHeads":0,"secondResponseTails":20,"totalHeads":1,"totalTails":21,"studentIndex":3,"studentTrueHypers":{"a":8,"b":2},"studentGuess":0.28125,"delta":0.08124999999999999,"bonus":0,"bonusSoFar":0,"totalExamples":22},{"rt":8825,"response":{"heads":"0","tails":"6"},"type":"response","condition":"nonSeqFull","trueTheta":0.5,"classrooms":["C","D"],"studentTrueClassroom":"D","exampleSet":"first","trial_type":"survey-html-form","trial_index":37,"time_elapsed":1087068,"internal_node_id":"0.0-34.0-0.0","params":{"nStudents":24,"maxFlips":25,"completionMinutes":45,"basePay":8,"maxBonus":9,"perTrialBonus":0.5,"perTrialBonusThreshold":0.05,"exampleCost":0.02},"classroomParams":{"A":{"a":1,"b":4},"B":{"a":4,"b":1},"C":{"a":2,"b":8},"D":{"a":8,"b":2}},"conditions":["nonSeqFull","nonSeqPartial","seqNoFeedback","seqFeedback"],"classroomPairings":[["A","B"],["C","D"]],"coinWeights":[0.2,0.5,0.8],"subjectId":"A2I4PRZ9IZMKON","assignmentId":"39GXDJN2OU09PHNUWG5M30LI1R38VG","hitId":"3QGHA0EA0JM3KKNCY0PQRLYAHLBWBE","url":"https://gershmanlab.com/experiments/alicia/teaching/experiment/?hitId=3QGHA0EA0JM3KKNCY0PQRLYAHLBWBE&workerId=A2I4PRZ9IZMKON&assignmentId=39GXDJN2OU09PHNUWG5M30LI1R38VG&a=2DG93&tp_a=2DG93&b=39GXDJN2OU09PHNUWG5M30LI1R38VG&tp_b=39GXDJN2OU09PHNUWG5M30LI1R38VG&c=365633&tp_c=365633","heads":0,"tails":6,"studentIndex":4,"studentTrueHypers":{"a":8,"b":2},"studentGuess":0.5,"delta":0,"totalExamples":6,"bonus":0.38,"bonusSoFar":0.38},{"rt":6076,"response":{"heads":"6","tails":"0"},"type":"response","condition":"nonSeqPartial","trueTheta":0.5,"classrooms":["C","D"],"studentTrueClassroom":"C","exampleSet":"first","trial_type":"survey-html-form","trial_index":43,"time_elapsed":1105212,"internal_node_id":"0.0-40.0-0.0","params":{"nStudents":24,"maxFlips":25,"completionMinutes":45,"basePay":8,"maxBonus":9,"perTrialBonus":0.5,"perTrialBonusThreshold":0.05,"exampleCost":0.02},"classroomParams":{"A":{"a":1,"b":4},"B":{"a":4,"b":1},"C":{"a":2,"b":8},"D":{"a":8,"b":2}},"conditions":["nonSeqFull","nonSeqPartial","seqNoFeedback","seqFeedback"],"classroomPairings":[["A","B"],["C","D"]],"coinWeights":[0.2,0.5,0.8],"subjectId":"A2I4PRZ9IZMKON","assignmentId":"39GXDJN2OU09PHNUWG5M30LI1R38VG","hitId":"3QGHA0EA0JM3KKNCY0PQRLYAHLBWBE","url":"https://gershmanlab.com/experiments/alicia/teaching/experiment/?hitId=3QGHA0EA0JM3KKNCY0PQRLYAHLBWBE&workerId=A2I4PRZ9IZMKON&assignmentId=39GXDJN2OU09PHNUWG5M30LI1R38VG&a=2DG93&tp_a=2DG93&b=39GXDJN2OU09PHNUWG5M30LI1R38VG&tp_b=39GXDJN2OU09PHNUWG5M30LI1R38VG&c=365633&tp_c=365633","heads":6,"tails":0,"studentIndex":5,"studentTrueHypers":{"a":2,"b":8},"studentGuess":0.5,"delta":0,"totalExamples":6,"bonus":0.38,"bonusSoFar":0.76},{"rt":3635,"response":{"heads":"6","tails":"0"},"type":"response","condition":"seqFeedback","trueTheta":0.5,"classrooms":["C","D"],"studentTrueClassroom":"D","exampleSet":"first","trial_type":"survey-html-form","trial_index":49,"time_elapsed":1125117,"internal_node_id":"0.0-46.0-0.0","params":{"nStudents":24,"maxFlips":25,"completionMinutes":45,"basePay":8,"maxBonus":9,"perTrialBonus":0.5,"perTrialBonusThreshold":0.05,"exampleCost":0.02},"classroomParams":{"A":{"a":1,"b":4},"B":{"a":4,"b":1},"C":{"a":2,"b":8},"D":{"a":8,"b":2}},"conditions":["nonSeqFull","nonSeqPartial","seqNoFeedback","seqFeedback"],"classroomPairings":[["A","B"],["C","D"]],"coinWeights":[0.2,0.5,0.8],"subjectId":"A2I4PRZ9IZMKON","assignmentId":"39GXDJN2OU09PHNUWG5M30LI1R38VG","hitId":"3QGHA0EA0JM3KKNCY0PQRLYAHLBWBE","url":"https://gershmanlab.com/experiments/alicia/teaching/experiment/?hitId=3QGHA0EA0JM3KKNCY0PQRLYAHLBWBE&workerId=A2I4PRZ9IZMKON&assignmentId=39GXDJN2OU09PHNUWG5M30LI1R38VG&a=2DG93&tp_a=2DG93&b=39GXDJN2OU09PHNUWG5M30LI1R38VG&tp_b=39GXDJN2OU09PHNUWG5M30LI1R38VG&c=365633&tp_c=365633","heads":6,"tails":0,"studentIndex":6,"studentTrueHypers":{"a":8,"b":2},"studentGuess":0.875,"delta":0.375,"totalExamples":6,"bonusSoFar":0.76},{"rt":5113,"response":{"heads":"0","tails":"6"},"type":"response","condition":"seqFeedback","trueTheta":0.5,"classrooms":["C","D"],"studentTrueClassroom":"D","exampleSet":"second","trial_type":"survey-html-form","trial_index":53,"time_elapsed":1138463,"internal_node_id":"0.0-50.0-0.0","params":{"nStudents":24,"maxFlips":25,"completionMinutes":45,"basePay":8,"maxBonus":9,"perTrialBonus":0.5,"perTrialBonusThreshold":0.05,"exampleCost":0.02},"classroomParams":{"A":{"a":1,"b":4},"B":{"a":4,"b":1},"C":{"a":2,"b":8},"D":{"a":8,"b":2}},"conditions":["nonSeqFull","nonSeqPartial","seqNoFeedback","seqFeedback"],"classroomPairings":[["A","B"],["C","D"]],"coinWeights":[0.2,0.5,0.8],"subjectId":"A2I4PRZ9IZMKON","assignmentId":"39GXDJN2OU09PHNUWG5M30LI1R38VG","hitId":"3QGHA0EA0JM3KKNCY0PQRLYAHLBWBE","url":"https://gershmanlab.com/experiments/alicia/teaching/experiment/?hitId=3QGHA0EA0JM3KKNCY0PQRLYAHLBWBE&workerId=A2I4PRZ9IZMKON&assignmentId=39GXDJN2OU09PHNUWG5M30LI1R38VG&a=2DG93&tp_a=2DG93&b=39GXDJN2OU09PHNUWG5M30LI1R38VG&tp_b=39GXDJN2OU09PHNUWG5M30LI1R38VG&c=365633&tp_c=365633","firstResponseHeads":6,"firstResponseTails":0,"secondResponseHeads":0,"secondResponseTails":6,"totalHeads":6,"totalTails":6,"studentIndex":6,"studentTrueHypers":{"a":8,"b":2},"studentGuess":0.6363636363636364,"delta":0.13636363636363635,"bonus":0,"bonusSoFar":0.76,"totalExamples":12},{"rt":23475,"response":{"heads":"0","tails":"22"},"type":"response","condition":"nonSeqFull","trueTheta":0.2,"classrooms":["C","D"],"studentTrueClassroom":"D","exampleSet":"first","trial_type":"survey-html-form","trial_index":59,"time_elapsed":1177574,"internal_node_id":"0.0-56.0-0.0","params":{"nStudents":24,"maxFlips":25,"completionMinutes":45,"basePay":8,"maxBonus":9,"perTrialBonus":0.5,"perTrialBonusThreshold":0.05,"exampleCost":0.02},"classroomParams":{"A":{"a":1,"b":4},"B":{"a":4,"b":1},"C":{"a":2,"b":8},"D":{"a":8,"b":2}},"conditions":["nonSeqFull","nonSeqPartial","seqNoFeedback","seqFeedback"],"classroomPairings":[["A","B"],["C","D"]],"coinWeights":[0.2,0.5,0.8],"subjectId":"A2I4PRZ9IZMKON","assignmentId":"39GXDJN2OU09PHNUWG5M30LI1R38VG","hitId":"3QGHA0EA0JM3KKNCY0PQRLYAHLBWBE","url":"https://gershmanlab.com/experiments/alicia/teaching/experiment/?hitId=3QGHA0EA0JM3KKNCY0PQRLYAHLBWBE&workerId=A2I4PRZ9IZMKON&assignmentId=39GXDJN2OU09PHNUWG5M30LI1R38VG&a=2DG93&tp_a=2DG93&b=39GXDJN2OU09PHNUWG5M30LI1R38VG&tp_b=39GXDJN2OU09PHNUWG5M30LI1R38VG&c=365633&tp_c=365633","heads":0,"tails":22,"studentIndex":7,"studentTrueHypers":{"a":8,"b":2},"studentGuess":0.25,"delta":0.04999999999999999,"totalExamples":22,"bonus":0.06,"bonusSoFar":0.82},{"rt":7124,"response":{"heads":"0","tails":"0"},"type":"response","condition":"seqNoFeedback","trueTheta":0.2,"classrooms":["A","B"],"studentTrueClassroom":"B","exampleSet":"first","trial_type":"survey-html-form","trial_index":65,"time_elapsed":1197119,"internal_node_id":"0.0-62.0-0.0","params":{"nStudents":24,"maxFlips":25,"completionMinutes":45,"basePay":8,"maxBonus":9,"perTrialBonus":0.5,"perTrialBonusThreshold":0.05,"exampleCost":0.02},"classroomParams":{"A":{"a":1,"b":4},"B":{"a":4,"b":1},"C":{"a":2,"b":8},"D":{"a":8,"b":2}},"conditions":["nonSeqFull","nonSeqPartial","seqNoFeedback","seqFeedback"],"classroomPairings":[["A","B"],["C","D"]],"coinWeights":[0.2,0.5,0.8],"subjectId":"A2I4PRZ9IZMKON","assignmentId":"39GXDJN2OU09PHNUWG5M30LI1R38VG","hitId":"3QGHA0EA0JM3KKNCY0PQRLYAHLBWBE","url":"https://gershmanlab.com/experiments/alicia/teaching/experiment/?hitId=3QGHA0EA0JM3KKNCY0PQRLYAHLBWBE&workerId=A2I4PRZ9IZMKON&assignmentId=39GXDJN2OU09PHNUWG5M30LI1R38VG&a=2DG93&tp_a=2DG93&b=39GXDJN2OU09PHNUWG5M30LI1R38VG&tp_b=39GXDJN2OU09PHNUWG5M30LI1R38VG&c=365633&tp_c=365633","heads":0,"tails":0,"studentIndex":8,"studentTrueHypers":{"a":4,"b":1},"studentGuess":0.8,"delta":0.6000000000000001,"totalExamples":0,"bonusSoFar":0.82},{"rt":16580,"response":{"heads":"0","tails":"1"},"type":"response","condition":"seqNoFeedback","trueTheta":0.2,"classrooms":["A","B"],"studentTrueClassroom":"B","exampleSet":"first","trial_type":"survey-html-form","trial_index":66,"time_elapsed":1213702,"internal_node_id":"0.0-62.1-0.1","params":{"nStudents":24,"maxFlips":25,"completionMinutes":45,"basePay":8,"maxBonus":9,"perTrialBonus":0.5,"perTrialBonusThreshold":0.05,"exampleCost":0.02},"classroomParams":{"A":{"a":1,"b":4},"B":{"a":4,"b":1},"C":{"a":2,"b":8},"D":{"a":8,"b":2}},"conditions":["nonSeqFull","nonSeqPartial","seqNoFeedback","seqFeedback"],"classroomPairings":[["A","B"],["C","D"]],"coinWeights":[0.2,0.5,0.8],"subjectId":"A2I4PRZ9IZMKON","assignmentId":"39GXDJN2OU09PHNUWG5M30LI1R38VG","hitId":"3QGHA0EA0JM3KKNCY0PQRLYAHLBWBE","url":"https://gershmanlab.com/experiments/alicia/teaching/experiment/?hitId=3QGHA0EA0JM3KKNCY0PQRLYAHLBWBE&workerId=A2I4PRZ9IZMKON&assignmentId=39GXDJN2OU09PHNUWG5M30LI1R38VG&a=2DG93&tp_a=2DG93&b=39GXDJN2OU09PHNUWG5M30LI1R38VG&tp_b=39GXDJN2OU09PHNUWG5M30LI1R38VG&c=365633&tp_c=365633","heads":0,"tails":1,"studentIndex":8,"studentTrueHypers":{"a":4,"b":1},"studentGuess":0.6666666666666666,"delta":0.4666666666666666,"totalExamples":1,"bonusSoFar":0.82},{"rt":15808,"response":{"heads":"0","tails":"1"},"type":"response","condition":"seqNoFeedback","trueTheta":0.2,"classrooms":["A","B"],"studentTrueClassroom":"B","exampleSet":"second","trial_type":"survey-html-form","trial_index":69,"time_elapsed":1236016,"internal_node_id":"0.0-65.0-0.0","params":{"nStudents":24,"maxFlips":25,"completionMinutes":45,"basePay":8,"maxBonus":9,"perTrialBonus":0.5,"perTrialBonusThreshold":0.05,"exampleCost":0.02},"classroomParams":{"A":{"a":1,"b":4},"B":{"a":4,"b":1},"C":{"a":2,"b":8},"D":{"a":8,"b":2}},"conditions":["nonSeqFull","nonSeqPartial","seqNoFeedback","seqFeedback"],"classroomPairings":[["A","B"],["C","D"]],"coinWeights":[0.2,0.5,0.8],"subjectId":"A2I4PRZ9IZMKON","assignmentId":"39GXDJN2OU09PHNUWG5M30LI1R38VG","hitId":"3QGHA0EA0JM3KKNCY0PQRLYAHLBWBE","url":"https://gershmanlab.com/experiments/alicia/teaching/experiment/?hitId=3QGHA0EA0JM3KKNCY0PQRLYAHLBWBE&workerId=A2I4PRZ9IZMKON&assignmentId=39GXDJN2OU09PHNUWG5M30LI1R38VG&a=2DG93&tp_a=2DG93&b=39GXDJN2OU09PHNUWG5M30LI1R38VG&tp_b=39GXDJN2OU09PHNUWG5M30LI1R38VG&c=365633&tp_c=365633","firstResponseHeads":0,"firstResponseTails":0,"secondResponseHeads":0,"secondResponseTails":1,"totalHeads":0,"totalTails":1,"studentIndex":8,"studentTrueHypers":{"a":4,"b":1},"studentGuess":0.6666666666666666,"delta":0.4666666666666666,"bonus":0,"bonusSoFar":0.82,"totalExamples":1},{"rt":8794,"response":{"heads":"0","tails":"1"},"type":"response","condition":"nonSeqFull","trueTheta":0.2,"classrooms":["A","B"],"studentTrueClassroom":"A","exampleSet":"first","trial_type":"survey-html-form","trial_index":75,"time_elapsed":1260531,"internal_node_id":"0.0-71.0-0.0","params":{"nStudents":24,"maxFlips":25,"completionMinutes":45,"basePay":8,"maxBonus":9,"perTrialBonus":0.5,"perTrialBonusThreshold":0.05,"exampleCost":0.02},"classroomParams":{"A":{"a":1,"b":4},"B":{"a":4,"b":1},"C":{"a":2,"b":8},"D":{"a":8,"b":2}},"conditions":["nonSeqFull","nonSeqPartial","seqNoFeedback","seqFeedback"],"classroomPairings":[["A","B"],["C","D"]],"coinWeights":[0.2,0.5,0.8],"subjectId":"A2I4PRZ9IZMKON","assignmentId":"39GXDJN2OU09PHNUWG5M30LI1R38VG","hitId":"3QGHA0EA0JM3KKNCY0PQRLYAHLBWBE","url":"https://gershmanlab.com/experiments/alicia/teaching/experiment/?hitId=3QGHA0EA0JM3KKNCY0PQRLYAHLBWBE&workerId=A2I4PRZ9IZMKON&assignmentId=39GXDJN2OU09PHNUWG5M30LI1R38VG&a=2DG93&tp_a=2DG93&b=39GXDJN2OU09PHNUWG5M30LI1R38VG&tp_b=39GXDJN2OU09PHNUWG5M30LI1R38VG&c=365633&tp_c=365633","heads":0,"tails":1,"studentIndex":9,"studentTrueHypers":{"a":1,"b":4},"studentGuess":0.16666666666666666,"delta":0.033333333333333354,"totalExamples":1,"bonus":0.48,"bonusSoFar":1.3},{"rt":6041,"response":{"heads":"3","tails":"0"},"type":"response","condition":"seqFeedback","trueTheta":0.5,"classrooms":["A","B"],"studentTrueClassroom":"B","exampleSet":"first","trial_type":"survey-html-form","trial_index":81,"time_elapsed":1280218,"internal_node_id":"0.0-77.0-0.0","params":{"nStudents":24,"maxFlips":25,"completionMinutes":45,"basePay":8,"maxBonus":9,"perTrialBonus":0.5,"perTrialBonusThreshold":0.05,"exampleCost":0.02},"classroomParams":{"A":{"a":1,"b":4},"B":{"a":4,"b":1},"C":{"a":2,"b":8},"D":{"a":8,"b":2}},"conditions":["nonSeqFull","nonSeqPartial","seqNoFeedback","seqFeedback"],"classroomPairings":[["A","B"],["C","D"]],"coinWeights":[0.2,0.5,0.8],"subjectId":"A2I4PRZ9IZMKON","assignmentId":"39GXDJN2OU09PHNUWG5M30LI1R38VG","hitId":"3QGHA0EA0JM3KKNCY0PQRLYAHLBWBE","url":"https://gershmanlab.com/experiments/alicia/teaching/experiment/?hitId=3QGHA0EA0JM3KKNCY0PQRLYAHLBWBE&workerId=A2I4PRZ9IZMKON&assignmentId=39GXDJN2OU09PHNUWG5M30LI1R38VG&a=2DG93&tp_a=2DG93&b=39GXDJN2OU09PHNUWG5M30LI1R38VG&tp_b=39GXDJN2OU09PHNUWG5M30LI1R38VG&c=365633&tp_c=365633","heads":3,"tails":0,"studentIndex":10,"studentTrueHypers":{"a":4,"b":1},"studentGuess":0.875,"delta":0.375,"totalExamples":3,"bonusSoFar":1.3},{"rt":3480,"response":{"heads":"0","tails":"6"},"type":"response","condition":"seqFeedback","trueTheta":0.5,"classrooms":["A","B"],"studentTrueClassroom":"B","exampleSet":"second","trial_type":"survey-html-form","trial_index":85,"time_elapsed":1293464,"internal_node_id":"0.0-81.0-0.0","params":{"nStudents":24,"maxFlips":25,"completionMinutes":45,"basePay":8,"maxBonus":9,"perTrialBonus":0.5,"perTrialBonusThreshold":0.05,"exampleCost":0.02},"classroomParams":{"A":{"a":1,"b":4},"B":{"a":4,"b":1},"C":{"a":2,"b":8},"D":{"a":8,"b":2}},"conditions":["nonSeqFull","nonSeqPartial","seqNoFeedback","seqFeedback"],"classroomPairings":[["A","B"],["C","D"]],"coinWeights":[0.2,0.5,0.8],"subjectId":"A2I4PRZ9IZMKON","assignmentId":"39GXDJN2OU09PHNUWG5M30LI1R38VG","hitId":"3QGHA0EA0JM3KKNCY0PQRLYAHLBWBE","url":"https://gershmanlab.com/experiments/alicia/teaching/experiment/?hitId=3QGHA0EA0JM3KKNCY0PQRLYAHLBWBE&workerId=A2I4PRZ9IZMKON&assignmentId=39GXDJN2OU09PHNUWG5M30LI1R38VG&a=2DG93&tp_a=2DG93&b=39GXDJN2OU09PHNUWG5M30LI1R38VG&tp_b=39GXDJN2OU09PHNUWG5M30LI1R38VG&c=365633&tp_c=365633","firstResponseHeads":3,"firstResponseTails":0,"secondResponseHeads":0,"secondResponseTails":6,"totalHeads":3,"totalTails":6,"studentIndex":10,"studentTrueHypers":{"a":4,"b":1},"studentGuess":0.5,"delta":0,"bonus":0.32,"bonusSoFar":1.62,"totalExamples":9},{"rt":5693,"response":{"heads":"0","tails":"1"},"type":"response","condition":"seqNoFeedback","trueTheta":0.8,"classrooms":["C","D"],"studentTrueClassroom":"C","exampleSet":"first","trial_type":"survey-html-form","trial_index":91,"time_elapsed":1315222,"internal_node_id":"0.0-87.0-0.0","params":{"nStudents":24,"maxFlips":25,"completionMinutes":45,"basePay":8,"maxBonus":9,"perTrialBonus":0.5,"perTrialBonusThreshold":0.05,"exampleCost":0.02},"classroomParams":{"A":{"a":1,"b":4},"B":{"a":4,"b":1},"C":{"a":2,"b":8},"D":{"a":8,"b":2}},"conditions":["nonSeqFull","nonSeqPartial","seqNoFeedback","seqFeedback"],"classroomPairings":[["A","B"],["C","D"]],"coinWeights":[0.2,0.5,0.8],"subjectId":"A2I4PRZ9IZMKON","assignmentId":"39GXDJN2OU09PHNUWG5M30LI1R38VG","hitId":"3QGHA0EA0JM3KKNCY0PQRLYAHLBWBE","url":"https://gershmanlab.com/experiments/alicia/teaching/experiment/?hitId=3QGHA0EA0JM3KKNCY0PQRLYAHLBWBE&workerId=A2I4PRZ9IZMKON&assignmentId=39GXDJN2OU09PHNUWG5M30LI1R38VG&a=2DG93&tp_a=2DG93&b=39GXDJN2OU09PHNUWG5M30LI1R38VG&tp_b=39GXDJN2OU09PHNUWG5M30LI1R38VG&c=365633&tp_c=365633","heads":0,"tails":1,"studentIndex":11,"studentTrueHypers":{"a":2,"b":8},"studentGuess":0.18181818181818182,"delta":0.6181818181818182,"totalExamples":1,"bonusSoFar":1.62},{"rt":4953,"response":{"heads":"1","tails":"0"},"type":"response","condition":"seqNoFeedback","trueTheta":0.8,"classrooms":["C","D"],"studentTrueClassroom":"C","exampleSet":"second","trial_type":"survey-html-form","trial_index":94,"time_elapsed":1327431,"internal_node_id":"0.0-90.0-0.0","params":{"nStudents":24,"maxFlips":25,"completionMinutes":45,"basePay":8,"maxBonus":9,"perTrialBonus":0.5,"perTrialBonusThreshold":0.05,"exampleCost":0.02},"classroomParams":{"A":{"a":1,"b":4},"B":{"a":4,"b":1},"C":{"a":2,"b":8},"D":{"a":8,"b":2}},"conditions":["nonSeqFull","nonSeqPartial","seqNoFeedback","seqFeedback"],"classroomPairings":[["A","B"],["C","D"]],"coinWeights":[0.2,0.5,0.8],"subjectId":"A2I4PRZ9IZMKON","assignmentId":"39GXDJN2OU09PHNUWG5M30LI1R38VG","hitId":"3QGHA0EA0JM3KKNCY0PQRLYAHLBWBE","url":"https://gershmanlab.com/experiments/alicia/teaching/experiment/?hitId=3QGHA0EA0JM3KKNCY0PQRLYAHLBWBE&workerId=A2I4PRZ9IZMKON&assignmentId=39GXDJN2OU09PHNUWG5M30LI1R38VG&a=2DG93&tp_a=2DG93&b=39GXDJN2OU09PHNUWG5M30LI1R38VG&tp_b=39GXDJN2OU09PHNUWG5M30LI1R38VG&c=365633&tp_c=365633","firstResponseHeads":0,"firstResponseTails":1,"secondResponseHeads":1,"secondResponseTails":0,"totalHeads":1,"totalTails":1,"studentIndex":11,"studentTrueHypers":{"a":2,"b":8},"studentGuess":0.25,"delta":0.55,"bonus":0,"bonusSoFar":1.62,"totalExamples":2},{"rt":3972,"response":{"heads":"0","tails":"1"},"type":"response","condition":"nonSeqPartial","trueTheta":0.2,"classrooms":["C","D"],"studentTrueClassroom":"C","exampleSet":"first","trial_type":"survey-html-form","trial_index":100,"time_elapsed":1344609,"internal_node_id":"0.0-96.0-0.0","params":{"nStudents":24,"maxFlips":25,"completionMinutes":45,"basePay":8,"maxBonus":9,"perTrialBonus":0.5,"perTrialBonusThreshold":0.05,"exampleCost":0.02},"classroomParams":{"A":{"a":1,"b":4},"B":{"a":4,"b":1},"C":{"a":2,"b":8},"D":{"a":8,"b":2}},"conditions":["nonSeqFull","nonSeqPartial","seqNoFeedback","seqFeedback"],"classroomPairings":[["A","B"],["C","D"]],"coinWeights":[0.2,0.5,0.8],"subjectId":"A2I4PRZ9IZMKON","assignmentId":"39GXDJN2OU09PHNUWG5M30LI1R38VG","hitId":"3QGHA0EA0JM3KKNCY0PQRLYAHLBWBE","url":"https://gershmanlab.com/experiments/alicia/teaching/experiment/?hitId=3QGHA0EA0JM3KKNCY0PQRLYAHLBWBE&workerId=A2I4PRZ9IZMKON&assignmentId=39GXDJN2OU09PHNUWG5M30LI1R38VG&a=2DG93&tp_a=2DG93&b=39GXDJN2OU09PHNUWG5M30LI1R38VG&tp_b=39GXDJN2OU09PHNUWG5M30LI1R38VG&c=365633&tp_c=365633","heads":0,"tails":1,"studentIndex":12,"studentTrueHypers":{"a":2,"b":8},"studentGuess":0.18181818181818182,"delta":0.018181818181818188,"totalExamples":1,"bonus":0.48,"bonusSoFar":2.1},{"rt":3700,"response":{"heads":"0","tails":"1"},"type":"response","condition":"seqNoFeedback","trueTheta":0.2,"classrooms":["C","D"],"studentTrueClassroom":"D","exampleSet":"first","trial_type":"survey-html-form","trial_index":106,"time_elapsed":1358780,"internal_node_id":"0.0-102.0-0.0","params":{"nStudents":24,"maxFlips":25,"completionMinutes":45,"basePay":8,"maxBonus":9,"perTrialBonus":0.5,"perTrialBonusThreshold":0.05,"exampleCost":0.02},"classroomParams":{"A":{"a":1,"b":4},"B":{"a":4,"b":1},"C":{"a":2,"b":8},"D":{"a":8,"b":2}},"conditions":["nonSeqFull","nonSeqPartial","seqNoFeedback","seqFeedback"],"classroomPairings":[["A","B"],["C","D"]],"coinWeights":[0.2,0.5,0.8],"subjectId":"A2I4PRZ9IZMKON","assignmentId":"39GXDJN2OU09PHNUWG5M30LI1R38VG","hitId":"3QGHA0EA0JM3KKNCY0PQRLYAHLBWBE","url":"https://gershmanlab.com/experiments/alicia/teaching/experiment/?hitId=3QGHA0EA0JM3KKNCY0PQRLYAHLBWBE&workerId=A2I4PRZ9IZMKON&assignmentId=39GXDJN2OU09PHNUWG5M30LI1R38VG&a=2DG93&tp_a=2DG93&b=39GXDJN2OU09PHNUWG5M30LI1R38VG&tp_b=39GXDJN2OU09PHNUWG5M30LI1R38VG&c=365633&tp_c=365633","heads":0,"tails":1,"studentIndex":13,"studentTrueHypers":{"a":8,"b":2},"studentGuess":0.7272727272727273,"delta":0.5272727272727273,"totalExamples":1,"bonusSoFar":2.1},{"rt":6455,"response":{"heads":"1","tails":"0"},"type":"response","condition":"seqNoFeedback","trueTheta":0.2,"classrooms":["C","D"],"studentTrueClassroom":"D","exampleSet":"second","trial_type":"survey-html-form","trial_index":109,"time_elapsed":1372741,"internal_node_id":"0.0-105.0-0.0","params":{"nStudents":24,"maxFlips":25,"completionMinutes":45,"basePay":8,"maxBonus":9,"perTrialBonus":0.5,"perTrialBonusThreshold":0.05,"exampleCost":0.02},"classroomParams":{"A":{"a":1,"b":4},"B":{"a":4,"b":1},"C":{"a":2,"b":8},"D":{"a":8,"b":2}},"conditions":["nonSeqFull","nonSeqPartial","seqNoFeedback","seqFeedback"],"classroomPairings":[["A","B"],["C","D"]],"coinWeights":[0.2,0.5,0.8],"subjectId":"A2I4PRZ9IZMKON","assignmentId":"39GXDJN2OU09PHNUWG5M30LI1R38VG","hitId":"3QGHA0EA0JM3KKNCY0PQRLYAHLBWBE","url":"https://gershmanlab.com/experiments/alicia/teaching/experiment/?hitId=3QGHA0EA0JM3KKNCY0PQRLYAHLBWBE&workerId=A2I4PRZ9IZMKON&assignmentId=39GXDJN2OU09PHNUWG5M30LI1R38VG&a=2DG93&tp_a=2DG93&b=39GXDJN2OU09PHNUWG5M30LI1R38VG&tp_b=39GXDJN2OU09PHNUWG5M30LI1R38VG&c=365633&tp_c=365633","firstResponseHeads":0,"firstResponseTails":1,"secondResponseHeads":1,"secondResponseTails":0,"totalHeads":1,"totalTails":1,"studentIndex":13,"studentTrueHypers":{"a":8,"b":2},"studentGuess":0.75,"delta":0.55,"bonus":0,"bonusSoFar":2.1,"totalExamples":2},{"rt":4732,"response":{"heads":"3","tails":"0"},"type":"response","condition":"nonSeqFull","trueTheta":0.5,"classrooms":["A","B"],"studentTrueClassroom":"A","exampleSet":"first","trial_type":"survey-html-form","trial_index":115,"time_elapsed":1390197,"internal_node_id":"0.0-111.0-0.0","params":{"nStudents":24,"maxFlips":25,"completionMinutes":45,"basePay":8,"maxBonus":9,"perTrialBonus":0.5,"perTrialBonusThreshold":0.05,"exampleCost":0.02},"classroomParams":{"A":{"a":1,"b":4},"B":{"a":4,"b":1},"C":{"a":2,"b":8},"D":{"a":8,"b":2}},"conditions":["nonSeqFull","nonSeqPartial","seqNoFeedback","seqFeedback"],"classroomPairings":[["A","B"],["C","D"]],"coinWeights":[0.2,0.5,0.8],"subjectId":"A2I4PRZ9IZMKON","assignmentId":"39GXDJN2OU09PHNUWG5M30LI1R38VG","hitId":"3QGHA0EA0JM3KKNCY0PQRLYAHLBWBE","url":"https://gershmanlab.com/experiments/alicia/teaching/experiment/?hitId=3QGHA0EA0JM3KKNCY0PQRLYAHLBWBE&workerId=A2I4PRZ9IZMKON&assignmentId=39GXDJN2OU09PHNUWG5M30LI1R38VG&a=2DG93&tp_a=2DG93&b=39GXDJN2OU09PHNUWG5M30LI1R38VG&tp_b=39GXDJN2OU09PHNUWG5M30LI1R38VG&c=365633&tp_c=365633","heads":3,"tails":0,"studentIndex":14,"studentTrueHypers":{"a":1,"b":4},"studentGuess":0.5,"delta":0,"totalExamples":3,"bonus":0.44,"bonusSoFar":2.54},{"rt":6818,"response":{"heads":"1","tails":"0"},"type":"response","condition":"seqFeedback","trueTheta":0.8,"classrooms":["A","B"],"studentTrueClassroom":"A","exampleSet":"first","trial_type":"survey-html-form","trial_index":121,"time_elapsed":1411461,"internal_node_id":"0.0-117.0-0.0","params":{"nStudents":24,"maxFlips":25,"completionMinutes":45,"basePay":8,"maxBonus":9,"perTrialBonus":0.5,"perTrialBonusThreshold":0.05,"exampleCost":0.02},"classroomParams":{"A":{"a":1,"b":4},"B":{"a":4,"b":1},"C":{"a":2,"b":8},"D":{"a":8,"b":2}},"conditions":["nonSeqFull","nonSeqPartial","seqNoFeedback","seqFeedback"],"classroomPairings":[["A","B"],["C","D"]],"coinWeights":[0.2,0.5,0.8],"subjectId":"A2I4PRZ9IZMKON","assignmentId":"39GXDJN2OU09PHNUWG5M30LI1R38VG","hitId":"3QGHA0EA0JM3KKNCY0PQRLYAHLBWBE","url":"https://gershmanlab.com/experiments/alicia/teaching/experiment/?hitId=3QGHA0EA0JM3KKNCY0PQRLYAHLBWBE&workerId=A2I4PRZ9IZMKON&assignmentId=39GXDJN2OU09PHNUWG5M30LI1R38VG&a=2DG93&tp_a=2DG93&b=39GXDJN2OU09PHNUWG5M30LI1R38VG&tp_b=39GXDJN2OU09PHNUWG5M30LI1R38VG&c=365633&tp_c=365633","heads":1,"tails":0,"studentIndex":15,"studentTrueHypers":{"a":1,"b":4},"studentGuess":0.3333333333333333,"delta":0.46666666666666673,"totalExamples":1,"bonusSoFar":2.54},{"rt":19925,"response":{"heads":"0","tails":"18"},"type":"response","condition":"seqFeedback","trueTheta":0.8,"classrooms":["A","B"],"studentTrueClassroom":"A","exampleSet":"second","trial_type":"survey-html-form","trial_index":125,"time_elapsed":1440072,"internal_node_id":"0.0-121.0-0.0","params":{"nStudents":24,"maxFlips":25,"completionMinutes":45,"basePay":8,"maxBonus":9,"perTrialBonus":0.5,"perTrialBonusThreshold":0.05,"exampleCost":0.02},"classroomParams":{"A":{"a":1,"b":4},"B":{"a":4,"b":1},"C":{"a":2,"b":8},"D":{"a":8,"b":2}},"conditions":["nonSeqFull","nonSeqPartial","seqNoFeedback","seqFeedback"],"classroomPairings":[["A","B"],["C","D"]],"coinWeights":[0.2,0.5,0.8],"subjectId":"A2I4PRZ9IZMKON","assignmentId":"39GXDJN2OU09PHNUWG5M30LI1R38VG","hitId":"3QGHA0EA0JM3KKNCY0PQRLYAHLBWBE","url":"https://gershmanlab.com/experiments/alicia/teaching/experiment/?hitId=3QGHA0EA0JM3KKNCY0PQRLYAHLBWBE&workerId=A2I4PRZ9IZMKON&assignmentId=39GXDJN2OU09PHNUWG5M30LI1R38VG&a=2DG93&tp_a=2DG93&b=39GXDJN2OU09PHNUWG5M30LI1R38VG&tp_b=39GXDJN2OU09PHNUWG5M30LI1R38VG&c=365633&tp_c=365633","firstResponseHeads":1,"firstResponseTails":0,"secondResponseHeads":0,"secondResponseTails":18,"totalHeads":1,"totalTails":18,"studentIndex":15,"studentTrueHypers":{"a":1,"b":4},"studentGuess":0.08333333333333333,"delta":0.7166666666666667,"bonus":0,"bonusSoFar":2.54,"totalExamples":19},{"rt":3267,"response":{"heads":"3","tails":"0"},"type":"response","condition":"seqNoFeedback","trueTheta":0.5,"classrooms":["A","B"],"studentTrueClassroom":"A","exampleSet":"first","trial_type":"survey-html-form","trial_index":131,"time_elapsed":1457040,"internal_node_id":"0.0-127.0-0.0","params":{"nStudents":24,"maxFlips":25,"completionMinutes":45,"basePay":8,"maxBonus":9,"perTrialBonus":0.5,"perTrialBonusThreshold":0.05,"exampleCost":0.02},"classroomParams":{"A":{"a":1,"b":4},"B":{"a":4,"b":1},"C":{"a":2,"b":8},"D":{"a":8,"b":2}},"conditions":["nonSeqFull","nonSeqPartial","seqNoFeedback","seqFeedback"],"classroomPairings":[["A","B"],["C","D"]],"coinWeights":[0.2,0.5,0.8],"subjectId":"A2I4PRZ9IZMKON","assignmentId":"39GXDJN2OU09PHNUWG5M30LI1R38VG","hitId":"3QGHA0EA0JM3KKNCY0PQRLYAHLBWBE","url":"https://gershmanlab.com/experiments/alicia/teaching/experiment/?hitId=3QGHA0EA0JM3KKNCY0PQRLYAHLBWBE&workerId=A2I4PRZ9IZMKON&assignmentId=39GXDJN2OU09PHNUWG5M30LI1R38VG&a=2DG93&tp_a=2DG93&b=39GXDJN2OU09PHNUWG5M30LI1R38VG&tp_b=39GXDJN2OU09PHNUWG5M30LI1R38VG&c=365633&tp_c=365633","heads":3,"tails":0,"studentIndex":16,"studentTrueHypers":{"a":1,"b":4},"studentGuess":0.5,"delta":0,"totalExamples":3,"bonusSoFar":2.54},{"rt":11479,"response":{"heads":"0","tails":"1"},"type":"response","condition":"seqNoFeedback","trueTheta":0.5,"classrooms":["A","B"],"studentTrueClassroom":"A","exampleSet":"second","trial_type":"survey-html-form","trial_index":134,"time_elapsed":1474274,"internal_node_id":"0.0-130.0-0.0","params":{"nStudents":24,"maxFlips":25,"completionMinutes":45,"basePay":8,"maxBonus":9,"perTrialBonus":0.5,"perTrialBonusThreshold":0.05,"exampleCost":0.02},"classroomParams":{"A":{"a":1,"b":4},"B":{"a":4,"b":1},"C":{"a":2,"b":8},"D":{"a":8,"b":2}},"conditions":["nonSeqFull","nonSeqPartial","seqNoFeedback","seqFeedback"],"classroomPairings":[["A","B"],["C","D"]],"coinWeights":[0.2,0.5,0.8],"subjectId":"A2I4PRZ9IZMKON","assignmentId":"39GXDJN2OU09PHNUWG5M30LI1R38VG","hitId":"3QGHA0EA0JM3KKNCY0PQRLYAHLBWBE","url":"https://gershmanlab.com/experiments/alicia/teaching/experiment/?hitId=3QGHA0EA0JM3KKNCY0PQRLYAHLBWBE&workerId=A2I4PRZ9IZMKON&assignmentId=39GXDJN2OU09PHNUWG5M30LI1R38VG&a=2DG93&tp_a=2DG93&b=39GXDJN2OU09PHNUWG5M30LI1R38VG&tp_b=39GXDJN2OU09PHNUWG5M30LI1R38VG&c=365633&tp_c=365633","firstResponseHeads":3,"firstResponseTails":0,"secondResponseHeads":0,"secondResponseTails":1,"totalHeads":3,"totalTails":1,"studentIndex":16,"studentTrueHypers":{"a":1,"b":4},"studentGuess":0.4444444444444444,"delta":0.05555555555555558,"bonus":0,"bonusSoFar":2.54,"totalExamples":4},{"rt":2790,"response":{"heads":"3","tails":"0"},"type":"response","condition":"nonSeqPartial","trueTheta":0.5,"classrooms":["A","B"],"studentTrueClassroom":"A","exampleSet":"first","trial_type":"survey-html-form","trial_index":140,"time_elapsed":1488397,"internal_node_id":"0.0-136.0-0.0","params":{"nStudents":24,"maxFlips":25,"completionMinutes":45,"basePay":8,"maxBonus":9,"perTrialBonus":0.5,"perTrialBonusThreshold":0.05,"exampleCost":0.02},"classroomParams":{"A":{"a":1,"b":4},"B":{"a":4,"b":1},"C":{"a":2,"b":8},"D":{"a":8,"b":2}},"conditions":["nonSeqFull","nonSeqPartial","seqNoFeedback","seqFeedback"],"classroomPairings":[["A","B"],["C","D"]],"coinWeights":[0.2,0.5,0.8],"subjectId":"A2I4PRZ9IZMKON","assignmentId":"39GXDJN2OU09PHNUWG5M30LI1R38VG","hitId":"3QGHA0EA0JM3KKNCY0PQRLYAHLBWBE","url":"https://gershmanlab.com/experiments/alicia/teaching/experiment/?hitId=3QGHA0EA0JM3KKNCY0PQRLYAHLBWBE&workerId=A2I4PRZ9IZMKON&assignmentId=39GXDJN2OU09PHNUWG5M30LI1R38VG&a=2DG93&tp_a=2DG93&b=39GXDJN2OU09PHNUWG5M30LI1R38VG&tp_b=39GXDJN2OU09PHNUWG5M30LI1R38VG&c=365633&tp_c=365633","heads":3,"tails":0,"studentIndex":17,"studentTrueHypers":{"a":1,"b":4},"studentGuess":0.5,"delta":0,"totalExamples":3,"bonus":0.44,"bonusSoFar":2.98},{"rt":5053,"response":{"heads":"0","tails":"1"},"type":"response","condition":"seqFeedback","trueTheta":0.8,"classrooms":["C","D"],"studentTrueClassroom":"C","exampleSet":"first","trial_type":"survey-html-form","trial_index":146,"time_elapsed":1507980,"internal_node_id":"0.0-142.0-0.0","params":{"nStudents":24,"maxFlips":25,"completionMinutes":45,"basePay":8,"maxBonus":9,"perTrialBonus":0.5,"perTrialBonusThreshold":0.05,"exampleCost":0.02},"classroomParams":{"A":{"a":1,"b":4},"B":{"a":4,"b":1},"C":{"a":2,"b":8},"D":{"a":8,"b":2}},"conditions":["nonSeqFull","nonSeqPartial","seqNoFeedback","seqFeedback"],"classroomPairings":[["A","B"],["C","D"]],"coinWeights":[0.2,0.5,0.8],"subjectId":"A2I4PRZ9IZMKON","assignmentId":"39GXDJN2OU09PHNUWG5M30LI1R38VG","hitId":"3QGHA0EA0JM3KKNCY0PQRLYAHLBWBE","url":"https://gershmanlab.com/experiments/alicia/teaching/experiment/?hitId=3QGHA0EA0JM3KKNCY0PQRLYAHLBWBE&workerId=A2I4PRZ9IZMKON&assignmentId=39GXDJN2OU09PHNUWG5M30LI1R38VG&a=2DG93&tp_a=2DG93&b=39GXDJN2OU09PHNUWG5M30LI1R38VG&tp_b=39GXDJN2OU09PHNUWG5M30LI1R38VG&c=365633&tp_c=365633","heads":0,"tails":1,"studentIndex":18,"studentTrueHypers":{"a":2,"b":8},"studentGuess":0.18181818181818182,"delta":0.6181818181818182,"totalExamples":1,"bonusSoFar":2.98},{"rt":19981,"response":{"heads":"19","tails":"0"},"type":"response","condition":"seqFeedback","trueTheta":0.8,"classrooms":["C","D"],"studentTrueClassroom":"C","exampleSet":"second","trial_type":"survey-html-form","trial_index":150,"time_elapsed":1536897,"internal_node_id":"0.0-146.0-0.0","params":{"nStudents":24,"maxFlips":25,"completionMinutes":45,"basePay":8,"maxBonus":9,"perTrialBonus":0.5,"perTrialBonusThreshold":0.05,"exampleCost":0.02},"classroomParams":{"A":{"a":1,"b":4},"B":{"a":4,"b":1},"C":{"a":2,"b":8},"D":{"a":8,"b":2}},"conditions":["nonSeqFull","nonSeqPartial","seqNoFeedback","seqFeedback"],"classroomPairings":[["A","B"],["C","D"]],"coinWeights":[0.2,0.5,0.8],"subjectId":"A2I4PRZ9IZMKON","assignmentId":"39GXDJN2OU09PHNUWG5M30LI1R38VG","hitId":"3QGHA0EA0JM3KKNCY0PQRLYAHLBWBE","url":"https://gershmanlab.com/experiments/alicia/teaching/experiment/?hitId=3QGHA0EA0JM3KKNCY0PQRLYAHLBWBE&workerId=A2I4PRZ9IZMKON&assignmentId=39GXDJN2OU09PHNUWG5M30LI1R38VG&a=2DG93&tp_a=2DG93&b=39GXDJN2OU09PHNUWG5M30LI1R38VG&tp_b=39GXDJN2OU09PHNUWG5M30LI1R38VG&c=365633&tp_c=365633","firstResponseHeads":0,"firstResponseTails":1,"secondResponseHeads":19,"secondResponseTails":0,"totalHeads":19,"totalTails":1,"studentIndex":18,"studentTrueHypers":{"a":2,"b":8},"studentGuess":0.7,"delta":0.10000000000000009,"bonus":0,"bonusSoFar":2.98,"totalExamples":20},{"rt":18055,"response":{"heads":"1","tails":"0"},"type":"response","condition":"nonSeqFull","trueTheta":0.8,"classrooms":["A","B"],"studentTrueClassroom":"B","exampleSet":"first","trial_type":"survey-html-form","trial_index":156,"time_elapsed":1567906,"internal_node_id":"0.0-152.0-0.0","params":{"nStudents":24,"maxFlips":25,"completionMinutes":45,"basePay":8,"maxBonus":9,"perTrialBonus":0.5,"perTrialBonusThreshold":0.05,"exampleCost":0.02},"classroomParams":{"A":{"a":1,"b":4},"B":{"a":4,"b":1},"C":{"a":2,"b":8},"D":{"a":8,"b":2}},"conditions":["nonSeqFull","nonSeqPartial","seqNoFeedback","seqFeedback"],"classroomPairings":[["A","B"],["C","D"]],"coinWeights":[0.2,0.5,0.8],"subjectId":"A2I4PRZ9IZMKON","assignmentId":"39GXDJN2OU09PHNUWG5M30LI1R38VG","hitId":"3QGHA0EA0JM3KKNCY0PQRLYAHLBWBE","url":"https://gershmanlab.com/experiments/alicia/teaching/experiment/?hitId=3QGHA0EA0JM3KKNCY0PQRLYAHLBWBE&workerId=A2I4PRZ9IZMKON&assignmentId=39GXDJN2OU09PHNUWG5M30LI1R38VG&a=2DG93&tp_a=2DG93&b=39GXDJN2OU09PHNUWG5M30LI1R38VG&tp_b=39GXDJN2OU09PHNUWG5M30LI1R38VG&c=365633&tp_c=365633","heads":1,"tails":0,"studentIndex":19,"studentTrueHypers":{"a":4,"b":1},"studentGuess":0.8333333333333334,"delta":0.033333333333333326,"totalExamples":1,"bonus":0.48,"bonusSoFar":3.46},{"rt":5861,"response":{"heads":"1","tails":"0"},"type":"response","condition":"seqNoFeedback","trueTheta":0.8,"classrooms":["A","B"],"studentTrueClassroom":"A","exampleSet":"first","trial_type":"survey-html-form","trial_index":162,"time_elapsed":1602181,"internal_node_id":"0.0-158.0-0.0","params":{"nStudents":24,"maxFlips":25,"completionMinutes":45,"basePay":8,"maxBonus":9,"perTrialBonus":0.5,"perTrialBonusThreshold":0.05,"exampleCost":0.02},"classroomParams":{"A":{"a":1,"b":4},"B":{"a":4,"b":1},"C":{"a":2,"b":8},"D":{"a":8,"b":2}},"conditions":["nonSeqFull","nonSeqPartial","seqNoFeedback","seqFeedback"],"classroomPairings":[["A","B"],["C","D"]],"coinWeights":[0.2,0.5,0.8],"subjectId":"A2I4PRZ9IZMKON","assignmentId":"39GXDJN2OU09PHNUWG5M30LI1R38VG","hitId":"3QGHA0EA0JM3KKNCY0PQRLYAHLBWBE","url":"https://gershmanlab.com/experiments/alicia/teaching/experiment/?hitId=3QGHA0EA0JM3KKNCY0PQRLYAHLBWBE&workerId=A2I4PRZ9IZMKON&assignmentId=39GXDJN2OU09PHNUWG5M30LI1R38VG&a=2DG93&tp_a=2DG93&b=39GXDJN2OU09PHNUWG5M30LI1R38VG&tp_b=39GXDJN2OU09PHNUWG5M30LI1R38VG&c=365633&tp_c=365633","heads":1,"tails":0,"studentIndex":20,"studentTrueHypers":{"a":1,"b":4},"studentGuess":0.3333333333333333,"delta":0.46666666666666673,"totalExamples":1,"bonusSoFar":3.46},{"rt":16336,"response":{"heads":"1","tails":"1"},"type":"response","condition":"seqNoFeedback","trueTheta":0.8,"classrooms":["A","B"],"studentTrueClassroom":"A","exampleSet":"second","trial_type":"survey-html-form","trial_index":165,"time_elapsed":1624523,"internal_node_id":"0.0-161.0-0.0","params":{"nStudents":24,"maxFlips":25,"completionMinutes":45,"basePay":8,"maxBonus":9,"perTrialBonus":0.5,"perTrialBonusThreshold":0.05,"exampleCost":0.02},"classroomParams":{"A":{"a":1,"b":4},"B":{"a":4,"b":1},"C":{"a":2,"b":8},"D":{"a":8,"b":2}},"conditions":["nonSeqFull","nonSeqPartial","seqNoFeedback","seqFeedback"],"classroomPairings":[["A","B"],["C","D"]],"coinWeights":[0.2,0.5,0.8],"subjectId":"A2I4PRZ9IZMKON","assignmentId":"39GXDJN2OU09PHNUWG5M30LI1R38VG","hitId":"3QGHA0EA0JM3KKNCY0PQRLYAHLBWBE","url":"https://gershmanlab.com/experiments/alicia/teaching/experiment/?hitId=3QGHA0EA0JM3KKNCY0PQRLYAHLBWBE&workerId=A2I4PRZ9IZMKON&assignmentId=39GXDJN2OU09PHNUWG5M30LI1R38VG&a=2DG93&tp_a=2DG93&b=39GXDJN2OU09PHNUWG5M30LI1R38VG&tp_b=39GXDJN2OU09PHNUWG5M30LI1R38VG&c=365633&tp_c=365633","firstResponseHeads":1,"firstResponseTails":0,"secondResponseHeads":1,"secondResponseTails":1,"totalHeads":2,"totalTails":1,"studentIndex":20,"studentTrueHypers":{"a":1,"b":4},"studentGuess":0.375,"delta":0.42500000000000004,"bonus":0,"bonusSoFar":3.46,"totalExamples":3},{"rt":4941,"response":{"heads":"6","tails":"0"},"type":"response","condition":"seqNoFeedback","trueTheta":0.5,"classrooms":["C","D"],"studentTrueClassroom":"C","exampleSet":"first","trial_type":"survey-html-form","trial_index":171,"time_elapsed":1645548,"internal_node_id":"0.0-167.0-0.0","params":{"nStudents":24,"maxFlips":25,"completionMinutes":45,"basePay":8,"maxBonus":9,"perTrialBonus":0.5,"perTrialBonusThreshold":0.05,"exampleCost":0.02},"classroomParams":{"A":{"a":1,"b":4},"B":{"a":4,"b":1},"C":{"a":2,"b":8},"D":{"a":8,"b":2}},"conditions":["nonSeqFull","nonSeqPartial","seqNoFeedback","seqFeedback"],"classroomPairings":[["A","B"],["C","D"]],"coinWeights":[0.2,0.5,0.8],"subjectId":"A2I4PRZ9IZMKON","assignmentId":"39GXDJN2OU09PHNUWG5M30LI1R38VG","hitId":"3QGHA0EA0JM3KKNCY0PQRLYAHLBWBE","url":"https://gershmanlab.com/experiments/alicia/teaching/experiment/?hitId=3QGHA0EA0JM3KKNCY0PQRLYAHLBWBE&workerId=A2I4PRZ9IZMKON&assignmentId=39GXDJN2OU09PHNUWG5M30LI1R38VG&a=2DG93&tp_a=2DG93&b=39GXDJN2OU09PHNUWG5M30LI1R38VG&tp_b=39GXDJN2OU09PHNUWG5M30LI1R38VG&c=365633&tp_c=365633","heads":6,"tails":0,"studentIndex":21,"studentTrueHypers":{"a":2,"b":8},"studentGuess":0.5,"delta":0,"totalExamples":6,"bonusSoFar":3.46},{"rt":4934,"response":{"heads":"1","tails":"1"},"type":"response","condition":"seqNoFeedback","trueTheta":0.5,"classrooms":["C","D"],"studentTrueClassroom":"C","exampleSet":"second","trial_type":"survey-html-form","trial_index":174,"time_elapsed":1657741,"internal_node_id":"0.0-170.0-0.0","params":{"nStudents":24,"maxFlips":25,"completionMinutes":45,"basePay":8,"maxBonus":9,"perTrialBonus":0.5,"perTrialBonusThreshold":0.05,"exampleCost":0.02},"classroomParams":{"A":{"a":1,"b":4},"B":{"a":4,"b":1},"C":{"a":2,"b":8},"D":{"a":8,"b":2}},"conditions":["nonSeqFull","nonSeqPartial","seqNoFeedback","seqFeedback"],"classroomPairings":[["A","B"],["C","D"]],"coinWeights":[0.2,0.5,0.8],"subjectId":"A2I4PRZ9IZMKON","assignmentId":"39GXDJN2OU09PHNUWG5M30LI1R38VG","hitId":"3QGHA0EA0JM3KKNCY0PQRLYAHLBWBE","url":"https://gershmanlab.com/experiments/alicia/teaching/experiment/?hitId=3QGHA0EA0JM3KKNCY0PQRLYAHLBWBE&workerId=A2I4PRZ9IZMKON&assignmentId=39GXDJN2OU09PHNUWG5M30LI1R38VG&a=2DG93&tp_a=2DG93&b=39GXDJN2OU09PHNUWG5M30LI1R38VG&tp_b=39GXDJN2OU09PHNUWG5M30LI1R38VG&c=365633&tp_c=365633","firstResponseHeads":6,"firstResponseTails":0,"secondResponseHeads":1,"secondResponseTails":1,"totalHeads":7,"totalTails":1,"studentIndex":21,"studentTrueHypers":{"a":2,"b":8},"studentGuess":0.5,"delta":0,"bonus":0.34,"bonusSoFar":3.8,"totalExamples":8},{"rt":14928,"response":{"heads":"0","tails":"1"},"type":"response","condition":"seqFeedback","trueTheta":0.2,"classrooms":["A","B"],"studentTrueClassroom":"B","exampleSet":"first","trial_type":"survey-html-form","trial_index":180,"time_elapsed":1691111,"internal_node_id":"0.0-176.0-0.0","params":{"nStudents":24,"maxFlips":25,"completionMinutes":45,"basePay":8,"maxBonus":9,"perTrialBonus":0.5,"perTrialBonusThreshold":0.05,"exampleCost":0.02},"classroomParams":{"A":{"a":1,"b":4},"B":{"a":4,"b":1},"C":{"a":2,"b":8},"D":{"a":8,"b":2}},"conditions":["nonSeqFull","nonSeqPartial","seqNoFeedback","seqFeedback"],"classroomPairings":[["A","B"],["C","D"]],"coinWeights":[0.2,0.5,0.8],"subjectId":"A2I4PRZ9IZMKON","assignmentId":"39GXDJN2OU09PHNUWG5M30LI1R38VG","hitId":"3QGHA0EA0JM3KKNCY0PQRLYAHLBWBE","url":"https://gershmanlab.com/experiments/alicia/teaching/experiment/?hitId=3QGHA0EA0JM3KKNCY0PQRLYAHLBWBE&workerId=A2I4PRZ9IZMKON&assignmentId=39GXDJN2OU09PHNUWG5M30LI1R38VG&a=2DG93&tp_a=2DG93&b=39GXDJN2OU09PHNUWG5M30LI1R38VG&tp_b=39GXDJN2OU09PHNUWG5M30LI1R38VG&c=365633&tp_c=365633","heads":0,"tails":1,"studentIndex":22,"studentTrueHypers":{"a":4,"b":1},"studentGuess":0.6666666666666666,"delta":0.4666666666666666,"totalExamples":1,"bonusSoFar":3.8},{"rt":37830,"response":{"heads":"0","tails":"11"},"type":"response","condition":"seqFeedback","trueTheta":0.2,"classrooms":["A","B"],"studentTrueClassroom":"B","exampleSet":"second","trial_type":"survey-html-form","trial_index":184,"time_elapsed":1738306,"internal_node_id":"0.0-180.0-0.0","params":{"nStudents":24,"maxFlips":25,"completionMinutes":45,"basePay":8,"maxBonus":9,"perTrialBonus":0.5,"perTrialBonusThreshold":0.05,"exampleCost":0.02},"classroomParams":{"A":{"a":1,"b":4},"B":{"a":4,"b":1},"C":{"a":2,"b":8},"D":{"a":8,"b":2}},"conditions":["nonSeqFull","nonSeqPartial","seqNoFeedback","seqFeedback"],"classroomPairings":[["A","B"],["C","D"]],"coinWeights":[0.2,0.5,0.8],"subjectId":"A2I4PRZ9IZMKON","assignmentId":"39GXDJN2OU09PHNUWG5M30LI1R38VG","hitId":"3QGHA0EA0JM3KKNCY0PQRLYAHLBWBE","url":"https://gershmanlab.com/experiments/alicia/teaching/experiment/?hitId=3QGHA0EA0JM3KKNCY0PQRLYAHLBWBE&workerId=A2I4PRZ9IZMKON&assignmentId=39GXDJN2OU09PHNUWG5M30LI1R38VG&a=2DG93&tp_a=2DG93&b=39GXDJN2OU09PHNUWG5M30LI1R38VG&tp_b=39GXDJN2OU09PHNUWG5M30LI1R38VG&c=365633&tp_c=365633","firstResponseHeads":0,"firstResponseTails":1,"secondResponseHeads":0,"secondResponseTails":11,"totalHeads":0,"totalTails":12,"studentIndex":22,"studentTrueHypers":{"a":4,"b":1},"studentGuess":0.23529411764705882,"delta":0.03529411764705881,"bonus":0.26,"bonusSoFar":4.06,"totalExamples":12},{"rt":5278,"response":{"heads":"0","tails":"1"},"type":"response","condition":"nonSeqPartial","trueTheta":0.2,"classrooms":["A","B"],"studentTrueClassroom":"A","exampleSet":"first","trial_type":"survey-html-form","trial_index":190,"time_elapsed":1759730,"internal_node_id":"0.0-186.0-0.0","params":{"nStudents":24,"maxFlips":25,"completionMinutes":45,"basePay":8,"maxBonus":9,"perTrialBonus":0.5,"perTrialBonusThreshold":0.05,"exampleCost":0.02},"classroomParams":{"A":{"a":1,"b":4},"B":{"a":4,"b":1},"C":{"a":2,"b":8},"D":{"a":8,"b":2}},"conditions":["nonSeqFull","nonSeqPartial","seqNoFeedback","seqFeedback"],"classroomPairings":[["A","B"],["C","D"]],"coinWeights":[0.2,0.5,0.8],"subjectId":"A2I4PRZ9IZMKON","assignmentId":"39GXDJN2OU09PHNUWG5M30LI1R38VG","hitId":"3QGHA0EA0JM3KKNCY0PQRLYAHLBWBE","url":"https://gershmanlab.com/experiments/alicia/teaching/experiment/?hitId=3QGHA0EA0JM3KKNCY0PQRLYAHLBWBE&workerId=A2I4PRZ9IZMKON&assignmentId=39GXDJN2OU09PHNUWG5M30LI1R38VG&a=2DG93&tp_a=2DG93&b=39GXDJN2OU09PHNUWG5M30LI1R38VG&tp_b=39GXDJN2OU09PHNUWG5M30LI1R38VG&c=365633&tp_c=365633","heads":0,"tails":1,"studentIndex":23,"studentTrueHypers":{"a":1,"b":4},"studentGuess":0.16666666666666666,"delta":0.033333333333333354,"totalExamples":1,"bonus":0.48,"bonusSoFar":4.54},{"rt":23341,"response":{"gender":"female","age":"32","understood":"yes","comments":"None"},"type":"response","trial_type":"survey-html-form","trial_index":194,"time_elapsed":1792941,"internal_node_id":"0.0-191.0","params":{"nStudents":24,"maxFlips":25,"completionMinutes":45,"basePay":8,"maxBonus":9,"perTrialBonus":0.5,"perTrialBonusThreshold":0.05,"exampleCost":0.02},"classroomParams":{"A":{"a":1,"b":4},"B":{"a":4,"b":1},"C":{"a":2,"b":8},"D":{"a":8,"b":2}},"conditions":["nonSeqFull","nonSeqPartial","seqNoFeedback","seqFeedback"],"classroomPairings":[["A","B"],["C","D"]],"coinWeights":[0.2,0.5,0.8],"subjectId":"A2I4PRZ9IZMKON","assignmentId":"39GXDJN2OU09PHNUWG5M30LI1R38VG","hitId":"3QGHA0EA0JM3KKNCY0PQRLYAHLBWBE","url":"https://gershmanlab.com/experiments/alicia/teaching/experiment/?hitId=3QGHA0EA0JM3KKNCY0PQRLYAHLBWBE&workerId=A2I4PRZ9IZMKON&assignmentId=39GXDJN2OU09PHNUWG5M30LI1R38VG&a=2DG93&tp_a=2DG93&b=39GXDJN2OU09PHNUWG5M30LI1R38VG&tp_b=39GXDJN2OU09PHNUWG5M30LI1R38VG&c=365633&tp_c=365633","totalBonus":4.54}]