[{"rt":24531,"response":{"heads":"1","tails":"1"},"type":"response","condition":"seqFeedback","trueTheta":0.5,"classrooms":["C","D"],"studentTrueClassroom":"C","exampleSet":"first","trial_type":"survey-html-form","trial_index":13,"time_elapsed":493778,"internal_node_id":"0.0-6.0-0.0","params":{"nStudents":24,"maxFlips":25,"completionMinutes":45,"basePay":8,"maxBonus":9,"perTrialBonus":0.5,"perTrialBonusThreshold":0.05,"exampleCost":0.02},"classroomParams":{"A":{"a":1,"b":4},"B":{"a":4,"b":1},"C":{"a":2,"b":8},"D":{"a":8,"b":2}},"conditions":["nonSeqFull","nonSeqPartial","seqNoFeedback","seqFeedback"],"classroomPairings":[["A","B"],["C","D"]],"coinWeights":[0.2,0.5,0.8],"subjectId":"A2QX3YJXAAHHVV","assignmentId":"3E337GFOLAUBARK3DNVJLW8337EGNN","hitId":"3IH9TRB0FBLK6RLF7MSMKICTGYN1IU","url":"https://gershmanlab.com/experiments/alicia/teaching/experiment/?hitId=3IH9TRB0FBLK6RLF7MSMKICTGYN1IU&workerId=A2QX3YJXAAHHVV&assignmentId=3E337GFOLAUBARK3DNVJLW8337EGNN&a=O73E3&tp_a=O73E3&b=3E337GFOLAUBARK3DNVJLW8337EGNN&tp_b=3E337GFOLAUBARK3DNVJLW8337EGNN&c=365633&tp_c=365633","heads":1,"tails":1,"studentIndex":0,"studentTrueHypers":{"a":2,"b":8},"studentGuess":0.25,"delta":0.25,"totalExamples":2,"bonusSoFar":0},{"rt":24356,"response":{"heads":"9","tails":"3"},"type":"response","condition":"seqFeedback","trueTheta":0.5,"classrooms":["C","D"],"studentTrueClassroom":"C","exampleSet":"second","trial_type":"survey-html-form","trial_index":17,"time_elapsed":534206,"internal_node_id":"0.0-10.0-0.0","params":{"nStudents":24,"maxFlips":25,"completionMinutes":45,"basePay":8,"maxBonus":9,"perTrialBonus":0.5,"perTrialBonusThreshold":0.05,"exampleCost":0.02},"classroomParams":{"A":{"a":1,"b":4},"B":{"a":4,"b":1},"C":{"a":2,"b":8},"D":{"a":8,"b":2}},"conditions":["nonSeqFull","nonSeqPartial","seqNoFeedback","seqFeedback"],"classroomPairings":[["A","B"],["C","D"]],"coinWeights":[0.2,0.5,0.8],"subjectId":"A2QX3YJXAAHHVV","assignmentId":"3E337GFOLAUBARK3DNVJLW8337EGNN","hitId":"3IH9TRB0FBLK6RLF7MSMKICTGYN1IU","url":"https://gershmanlab.com/experiments/alicia/teaching/experiment/?hitId=3IH9TRB0FBLK6RLF7MSMKICTGYN1IU&workerId=A2QX3YJXAAHHVV&assignmentId=3E337GFOLAUBARK3DNVJLW8337EGNN&a=O73E3&tp_a=O73E3&b=3E337GFOLAUBARK3DNVJLW8337EGNN&tp_b=3E337GFOLAUBARK3DNVJLW8337EGNN&c=365633&tp_c=365633","firstResponseHeads":1,"firstResponseTails":1,"secondResponseHeads":9,"secondResponseTails":3,"totalHeads":10,"totalTails":4,"studentIndex":0,"studentTrueHypers":{"a":2,"b":8},"studentGuess":0.5,"delta":0,"bonus":0.22,"bonusSoFar":0.22,"totalExamples":14},{"rt":49585,"response":{"heads":"1","tails":"1"},"type":"response","condition":"seqFeedback","trueTheta":0.8,"classrooms":["C","D"],"studentTrueClassroom":"D","exampleSet":"first","trial_type":"survey-html-form","trial_index":23,"time_elapsed":605931,"internal_node_id":"0.0-16.0-0.0","params":{"nStudents":24,"maxFlips":25,"completionMinutes":45,"basePay":8,"maxBonus":9,"perTrialBonus":0.5,"perTrialBonusThreshold":0.05,"exampleCost":0.02},"classroomParams":{"A":{"a":1,"b":4},"B":{"a":4,"b":1},"C":{"a":2,"b":8},"D":{"a":8,"b":2}},"conditions":["nonSeqFull","nonSeqPartial","seqNoFeedback","seqFeedback"],"classroomPairings":[["A","B"],["C","D"]],"coinWeights":[0.2,0.5,0.8],"subjectId":"A2QX3YJXAAHHVV","assignmentId":"3E337GFOLAUBARK3DNVJLW8337EGNN","hitId":"3IH9TRB0FBLK6RLF7MSMKICTGYN1IU","url":"https://gershmanlab.com/experiments/alicia/teaching/experiment/?hitId=3IH9TRB0FBLK6RLF7MSMKICTGYN1IU&workerId=A2QX3YJXAAHHVV&assignmentId=3E337GFOLAUBARK3DNVJLW8337EGNN&a=O73E3&tp_a=O73E3&b=3E337GFOLAUBARK3DNVJLW8337EGNN&tp_b=3E337GFOLAUBARK3DNVJLW8337EGNN&c=365633&tp_c=365633","heads":1,"tails":1,"studentIndex":1,"studentTrueHypers":{"a":8,"b":2},"studentGuess":0.75,"delta":0.050000000000000044,"totalExamples":2,"bonusSoFar":0.22},{"rt":34398,"response":{"heads":"0","tails":"0"},"type":"response","condition":"seqFeedback","trueTheta":0.8,"classrooms":["C","D"],"studentTrueClassroom":"D","exampleSet":"second","trial_type":"survey-html-form","trial_index":27,"time_elapsed":652109,"internal_node_id":"0.0-20.0-0.0","params":{"nStudents":24,"maxFlips":25,"completionMinutes":45,"basePay":8,"maxBonus":9,"perTrialBonus":0.5,"perTrialBonusThreshold":0.05,"exampleCost":0.02},"classroomParams":{"A":{"a":1,"b":4},"B":{"a":4,"b":1},"C":{"a":2,"b":8},"D":{"a":8,"b":2}},"conditions":["nonSeqFull","nonSeqPartial","seqNoFeedback","seqFeedback"],"classroomPairings":[["A","B"],["C","D"]],"coinWeights":[0.2,0.5,0.8],"subjectId":"A2QX3YJXAAHHVV","assignmentId":"3E337GFOLAUBARK3DNVJLW8337EGNN","hitId":"3IH9TRB0FBLK6RLF7MSMKICTGYN1IU","url":"https://gershmanlab.com/experiments/alicia/teaching/experiment/?hitId=3IH9TRB0FBLK6RLF7MSMKICTGYN1IU&workerId=A2QX3YJXAAHHVV&assignmentId=3E337GFOLAUBARK3DNVJLW8337EGNN&a=O73E3&tp_a=O73E3&b=3E337GFOLAUBARK3DNVJLW8337EGNN&tp_b=3E337GFOLAUBARK3DNVJLW8337EGNN&c=365633&tp_c=365633","firstResponseHeads":1,"firstResponseTails":1,"secondResponseHeads":0,"secondResponseTails":0,"totalHeads":1,"totalTails":1,"studentIndex":1,"studentTrueHypers":{"a":8,"b":2},"studentGuess":0.75,"delta":0.050000000000000044,"bonus":0,"bonusSoFar":0.22,"totalExamples":2},{"rt":14741,"response":{"heads":"1","tails":"0"},"type":"response","condition":"seqFeedback","trueTheta":0.8,"classrooms":["C","D"],"studentTrueClassroom":"D","exampleSet":"second","trial_type":"survey-html-form","trial_index":28,"time_elapsed":666852,"internal_node_id":"0.0-20.1-0.1","params":{"nStudents":24,"maxFlips":25,"completionMinutes":45,"basePay":8,"maxBonus":9,"perTrialBonus":0.5,"perTrialBonusThreshold":0.05,"exampleCost":0.02},"classroomParams":{"A":{"a":1,"b":4},"B":{"a":4,"b":1},"C":{"a":2,"b":8},"D":{"a":8,"b":2}},"conditions":["nonSeqFull","nonSeqPartial","seqNoFeedback","seqFeedback"],"classroomPairings":[["A","B"],["C","D"]],"coinWeights":[0.2,0.5,0.8],"subjectId":"A2QX3YJXAAHHVV","assignmentId":"3E337GFOLAUBARK3DNVJLW8337EGNN","hitId":"3IH9TRB0FBLK6RLF7MSMKICTGYN1IU","url":"https://gershmanlab.com/experiments/alicia/teaching/experiment/?hitId=3IH9TRB0FBLK6RLF7MSMKICTGYN1IU&workerId=A2QX3YJXAAHHVV&assignmentId=3E337GFOLAUBARK3DNVJLW8337EGNN&a=O73E3&tp_a=O73E3&b=3E337GFOLAUBARK3DNVJLW8337EGNN&tp_b=3E337GFOLAUBARK3DNVJLW8337EGNN&c=365633&tp_c=365633","firstResponseHeads":1,"firstResponseTails":1,"secondResponseHeads":1,"secondResponseTails":0,"totalHeads":2,"totalTails":1,"studentIndex":1,"studentTrueHypers":{"a":8,"b":2},"studentGuess":0.7692307692307693,"delta":0.03076923076923077,"bonus":0.44,"bonusSoFar":0.66,"totalExamples":3},{"rt":13851,"response":{"heads":"1","tails":"1"},"type":"response","condition":"seqNoFeedback","trueTheta":0.5,"classrooms":["A","B"],"studentTrueClassroom":"B","exampleSet":"first","trial_type":"survey-html-form","trial_index":34,"time_elapsed":709628,"internal_node_id":"0.0-26.0-0.0","params":{"nStudents":24,"maxFlips":25,"completionMinutes":45,"basePay":8,"maxBonus":9,"perTrialBonus":0.5,"perTrialBonusThreshold":0.05,"exampleCost":0.02},"classroomParams":{"A":{"a":1,"b":4},"B":{"a":4,"b":1},"C":{"a":2,"b":8},"D":{"a":8,"b":2}},"conditions":["nonSeqFull","nonSeqPartial","seqNoFeedback","seqFeedback"],"classroomPairings":[["A","B"],["C","D"]],"coinWeights":[0.2,0.5,0.8],"subjectId":"A2QX3YJXAAHHVV","assignmentId":"3E337GFOLAUBARK3DNVJLW8337EGNN","hitId":"3IH9TRB0FBLK6RLF7MSMKICTGYN1IU","url":"https://gershmanlab.com/experiments/alicia/teaching/experiment/?hitId=3IH9TRB0FBLK6RLF7MSMKICTGYN1IU&workerId=A2QX3YJXAAHHVV&assignmentId=3E337GFOLAUBARK3DNVJLW8337EGNN&a=O73E3&tp_a=O73E3&b=3E337GFOLAUBARK3DNVJLW8337EGNN&tp_b=3E337GFOLAUBARK3DNVJLW8337EGNN&c=365633&tp_c=365633","heads":1,"tails":1,"studentIndex":2,"studentTrueHypers":{"a":4,"b":1},"studentGuess":0.7142857142857143,"delta":0.2142857142857143,"totalExamples":2,"bonusSoFar":0.66},{"rt":31926,"response":{"heads":"3","tails":"0"},"type":"response","condition":"seqNoFeedback","trueTheta":0.5,"classrooms":["A","B"],"studentTrueClassroom":"B","exampleSet":"second","trial_type":"survey-html-form","trial_index":37,"time_elapsed":748321,"internal_node_id":"0.0-29.0-0.0","params":{"nStudents":24,"maxFlips":25,"completionMinutes":45,"basePay":8,"maxBonus":9,"perTrialBonus":0.5,"perTrialBonusThreshold":0.05,"exampleCost":0.02},"classroomParams":{"A":{"a":1,"b":4},"B":{"a":4,"b":1},"C":{"a":2,"b":8},"D":{"a":8,"b":2}},"conditions":["nonSeqFull","nonSeqPartial","seqNoFeedback","seqFeedback"],"classroomPairings":[["A","B"],["C","D"]],"coinWeights":[0.2,0.5,0.8],"subjectId":"A2QX3YJXAAHHVV","assignmentId":"3E337GFOLAUBARK3DNVJLW8337EGNN","hitId":"3IH9TRB0FBLK6RLF7MSMKICTGYN1IU","url":"https://gershmanlab.com/experiments/alicia/teaching/experiment/?hitId=3IH9TRB0FBLK6RLF7MSMKICTGYN1IU&workerId=A2QX3YJXAAHHVV&assignmentId=3E337GFOLAUBARK3DNVJLW8337EGNN&a=O73E3&tp_a=O73E3&b=3E337GFOLAUBARK3DNVJLW8337EGNN&tp_b=3E337GFOLAUBARK3DNVJLW8337EGNN&c=365633&tp_c=365633","firstResponseHeads":1,"firstResponseTails":1,"secondResponseHeads":3,"secondResponseTails":0,"totalHeads":4,"totalTails":1,"studentIndex":2,"studentTrueHypers":{"a":4,"b":1},"studentGuess":0.8,"delta":0.30000000000000004,"bonus":0,"bonusSoFar":0.66,"totalExamples":5},{"rt":12275,"response":{"heads":"1","tails":"0"},"type":"response","condition":"nonSeqPartial","trueTheta":0.5,"classrooms":["C","D"],"studentTrueClassroom":"C","exampleSet":"first","trial_type":"survey-html-form","trial_index":43,"time_elapsed":776234,"internal_node_id":"0.0-35.0-0.0","params":{"nStudents":24,"maxFlips":25,"completionMinutes":45,"basePay":8,"maxBonus":9,"perTrialBonus":0.5,"perTrialBonusThreshold":0.05,"exampleCost":0.02},"classroomParams":{"A":{"a":1,"b":4},"B":{"a":4,"b":1},"C":{"a":2,"b":8},"D":{"a":8,"b":2}},"conditions":["nonSeqFull","nonSeqPartial","seqNoFeedback","seqFeedback"],"classroomPairings":[["A","B"],["C","D"]],"coinWeights":[0.2,0.5,0.8],"subjectId":"A2QX3YJXAAHHVV","assignmentId":"3E337GFOLAUBARK3DNVJLW8337EGNN","hitId":"3IH9TRB0FBLK6RLF7MSMKICTGYN1IU","url":"https://gershmanlab.com/experiments/alicia/teaching/experiment/?hitId=3IH9TRB0FBLK6RLF7MSMKICTGYN1IU&workerId=A2QX3YJXAAHHVV&assignmentId=3E337GFOLAUBARK3DNVJLW8337EGNN&a=O73E3&tp_a=O73E3&b=3E337GFOLAUBARK3DNVJLW8337EGNN&tp_b=3E337GFOLAUBARK3DNVJLW8337EGNN&c=365633&tp_c=365633","heads":1,"tails":0,"studentIndex":3,"studentTrueHypers":{"a":2,"b":8},"studentGuess":0.2727272727272727,"delta":0.2272727272727273,"totalExamples":1,"bonus":0,"bonusSoFar":0.66},{"rt":9868,"response":{"heads":"0","tails":"00"},"type":"response","condition":"seqFeedback","trueTheta":0.8,"classrooms":["A","B"],"studentTrueClassroom":"B","exampleSet":"first","trial_type":"survey-html-form","trial_index":49,"time_elapsed":802315,"internal_node_id":"0.0-41.0-0.0","params":{"nStudents":24,"maxFlips":25,"completionMinutes":45,"basePay":8,"maxBonus":9,"perTrialBonus":0.5,"perTrialBonusThreshold":0.05,"exampleCost":0.02},"classroomParams":{"A":{"a":1,"b":4},"B":{"a":4,"b":1},"C":{"a":2,"b":8},"D":{"a":8,"b":2}},"conditions":["nonSeqFull","nonSeqPartial","seqNoFeedback","seqFeedback"],"classroomPairings":[["A","B"],["C","D"]],"coinWeights":[0.2,0.5,0.8],"subjectId":"A2QX3YJXAAHHVV","assignmentId":"3E337GFOLAUBARK3DNVJLW8337EGNN","hitId":"3IH9TRB0FBLK6RLF7MSMKICTGYN1IU","url":"https://gershmanlab.com/experiments/alicia/teaching/experiment/?hitId=3IH9TRB0FBLK6RLF7MSMKICTGYN1IU&workerId=A2QX3YJXAAHHVV&assignmentId=3E337GFOLAUBARK3DNVJLW8337EGNN&a=O73E3&tp_a=O73E3&b=3E337GFOLAUBARK3DNVJLW8337EGNN&tp_b=3E337GFOLAUBARK3DNVJLW8337EGNN&c=365633&tp_c=365633","heads":0,"tails":0,"studentIndex":4,"studentTrueHypers":{"a":4,"b":1},"studentGuess":0.8,"delta":0,"totalExamples":0,"bonusSoFar":0.66},{"rt":19150,"response":{"heads":"3","tails":"0"},"type":"response","condition":"seqFeedback","trueTheta":0.8,"classrooms":["A","B"],"studentTrueClassroom":"B","exampleSet":"first","trial_type":"survey-html-form","trial_index":50,"time_elapsed":821467,"internal_node_id":"0.0-41.1-0.1","params":{"nStudents":24,"maxFlips":25,"completionMinutes":45,"basePay":8,"maxBonus":9,"perTrialBonus":0.5,"perTrialBonusThreshold":0.05,"exampleCost":0.02},"classroomParams":{"A":{"a":1,"b":4},"B":{"a":4,"b":1},"C":{"a":2,"b":8},"D":{"a":8,"b":2}},"conditions":["nonSeqFull","nonSeqPartial","seqNoFeedback","seqFeedback"],"classroomPairings":[["A","B"],["C","D"]],"coinWeights":[0.2,0.5,0.8],"subjectId":"A2QX3YJXAAHHVV","assignmentId":"3E337GFOLAUBARK3DNVJLW8337EGNN","hitId":"3IH9TRB0FBLK6RLF7MSMKICTGYN1IU","url":"https://gershmanlab.com/experiments/alicia/teaching/experiment/?hitId=3IH9TRB0FBLK6RLF7MSMKICTGYN1IU&workerId=A2QX3YJXAAHHVV&assignmentId=3E337GFOLAUBARK3DNVJLW8337EGNN&a=O73E3&tp_a=O73E3&b=3E337GFOLAUBARK3DNVJLW8337EGNN&tp_b=3E337GFOLAUBARK3DNVJLW8337EGNN&c=365633&tp_c=365633","heads":3,"tails":0,"studentIndex":4,"studentTrueHypers":{"a":4,"b":1},"studentGuess":0.875,"delta":0.07499999999999996,"totalExamples":3,"bonusSoFar":0.66},{"rt":13613,"response":{"heads":"01","tails":"01"},"type":"response","condition":"seqFeedback","trueTheta":0.8,"classrooms":["A","B"],"studentTrueClassroom":"B","exampleSet":"second","trial_type":"survey-html-form","trial_index":54,"time_elapsed":846608,"internal_node_id":"0.0-45.0-0.0","params":{"nStudents":24,"maxFlips":25,"completionMinutes":45,"basePay":8,"maxBonus":9,"perTrialBonus":0.5,"perTrialBonusThreshold":0.05,"exampleCost":0.02},"classroomParams":{"A":{"a":1,"b":4},"B":{"a":4,"b":1},"C":{"a":2,"b":8},"D":{"a":8,"b":2}},"conditions":["nonSeqFull","nonSeqPartial","seqNoFeedback","seqFeedback"],"classroomPairings":[["A","B"],["C","D"]],"coinWeights":[0.2,0.5,0.8],"subjectId":"A2QX3YJXAAHHVV","assignmentId":"3E337GFOLAUBARK3DNVJLW8337EGNN","hitId":"3IH9TRB0FBLK6RLF7MSMKICTGYN1IU","url":"https://gershmanlab.com/experiments/alicia/teaching/experiment/?hitId=3IH9TRB0FBLK6RLF7MSMKICTGYN1IU&workerId=A2QX3YJXAAHHVV&assignmentId=3E337GFOLAUBARK3DNVJLW8337EGNN&a=O73E3&tp_a=O73E3&b=3E337GFOLAUBARK3DNVJLW8337EGNN&tp_b=3E337GFOLAUBARK3DNVJLW8337EGNN&c=365633&tp_c=365633","firstResponseHeads":0,"firstResponseTails":0,"secondResponseHeads":1,"secondResponseTails":1,"totalHeads":1,"totalTails":1,"studentIndex":4,"studentTrueHypers":{"a":4,"b":1},"studentGuess":0.7142857142857143,"delta":0.08571428571428574,"bonus":0,"bonusSoFar":0.66,"totalExamples":2},{"rt":35701,"response":{"heads":"2","tails":"8"},"type":"response","condition":"nonSeqPartial","trueTheta":0.2,"classrooms":["C","D"],"studentTrueClassroom":"D","exampleSet":"first","trial_type":"survey-html-form","trial_index":60,"time_elapsed":895695,"internal_node_id":"0.0-51.0-0.0","params":{"nStudents":24,"maxFlips":25,"completionMinutes":45,"basePay":8,"maxBonus":9,"perTrialBonus":0.5,"perTrialBonusThreshold":0.05,"exampleCost":0.02},"classroomParams":{"A":{"a":1,"b":4},"B":{"a":4,"b":1},"C":{"a":2,"b":8},"D":{"a":8,"b":2}},"conditions":["nonSeqFull","nonSeqPartial","seqNoFeedback","seqFeedback"],"classroomPairings":[["A","B"],["C","D"]],"coinWeights":[0.2,0.5,0.8],"subjectId":"A2QX3YJXAAHHVV","assignmentId":"3E337GFOLAUBARK3DNVJLW8337EGNN","hitId":"3IH9TRB0FBLK6RLF7MSMKICTGYN1IU","url":"https://gershmanlab.com/experiments/alicia/teaching/experiment/?hitId=3IH9TRB0FBLK6RLF7MSMKICTGYN1IU&workerId=A2QX3YJXAAHHVV&assignmentId=3E337GFOLAUBARK3DNVJLW8337EGNN&a=O73E3&tp_a=O73E3&b=3E337GFOLAUBARK3DNVJLW8337EGNN&tp_b=3E337GFOLAUBARK3DNVJLW8337EGNN&c=365633&tp_c=365633","heads":2,"tails":8,"studentIndex":5,"studentTrueHypers":{"a":8,"b":2},"studentGuess":0.5,"delta":0.3,"totalExamples":10,"bonus":0,"bonusSoFar":0.66},{"rt":20269,"response":{"heads":"6","tails":"0"},"type":"response","condition":"nonSeqFull","trueTheta":0.5,"classrooms":["C","D"],"studentTrueClassroom":"C","exampleSet":"first","trial_type":"survey-html-form","trial_index":66,"time_elapsed":930476,"internal_node_id":"0.0-57.0-0.0","params":{"nStudents":24,"maxFlips":25,"completionMinutes":45,"basePay":8,"maxBonus":9,"perTrialBonus":0.5,"perTrialBonusThreshold":0.05,"exampleCost":0.02},"classroomParams":{"A":{"a":1,"b":4},"B":{"a":4,"b":1},"C":{"a":2,"b":8},"D":{"a":8,"b":2}},"conditions":["nonSeqFull","nonSeqPartial","seqNoFeedback","seqFeedback"],"classroomPairings":[["A","B"],["C","D"]],"coinWeights":[0.2,0.5,0.8],"subjectId":"A2QX3YJXAAHHVV","assignmentId":"3E337GFOLAUBARK3DNVJLW8337EGNN","hitId":"3IH9TRB0FBLK6RLF7MSMKICTGYN1IU","url":"https://gershmanlab.com/experiments/alicia/teaching/experiment/?hitId=3IH9TRB0FBLK6RLF7MSMKICTGYN1IU&workerId=A2QX3YJXAAHHVV&assignmentId=3E337GFOLAUBARK3DNVJLW8337EGNN&a=O73E3&tp_a=O73E3&b=3E337GFOLAUBARK3DNVJLW8337EGNN&tp_b=3E337GFOLAUBARK3DNVJLW8337EGNN&c=365633&tp_c=365633","heads":6,"tails":0,"studentIndex":6,"studentTrueHypers":{"a":2,"b":8},"studentGuess":0.5,"delta":0,"totalExamples":6,"bonus":0.38,"bonusSoFar":1.04},{"rt":16129,"response":{"heads":"1","tails":"4"},"type":"response","condition":"seqFeedback","trueTheta":0.2,"classrooms":["A","B"],"studentTrueClassroom":"B","exampleSet":"first","trial_type":"survey-html-form","trial_index":72,"time_elapsed":966016,"internal_node_id":"0.0-63.0-0.0","params":{"nStudents":24,"maxFlips":25,"completionMinutes":45,"basePay":8,"maxBonus":9,"perTrialBonus":0.5,"perTrialBonusThreshold":0.05,"exampleCost":0.02},"classroomParams":{"A":{"a":1,"b":4},"B":{"a":4,"b":1},"C":{"a":2,"b":8},"D":{"a":8,"b":2}},"conditions":["nonSeqFull","nonSeqPartial","seqNoFeedback","seqFeedback"],"classroomPairings":[["A","B"],["C","D"]],"coinWeights":[0.2,0.5,0.8],"subjectId":"A2QX3YJXAAHHVV","assignmentId":"3E337GFOLAUBARK3DNVJLW8337EGNN","hitId":"3IH9TRB0FBLK6RLF7MSMKICTGYN1IU","url":"https://gershmanlab.com/experiments/alicia/teaching/experiment/?hitId=3IH9TRB0FBLK6RLF7MSMKICTGYN1IU&workerId=A2QX3YJXAAHHVV&assignmentId=3E337GFOLAUBARK3DNVJLW8337EGNN&a=O73E3&tp_a=O73E3&b=3E337GFOLAUBARK3DNVJLW8337EGNN&tp_b=3E337GFOLAUBARK3DNVJLW8337EGNN&c=365633&tp_c=365633","heads":1,"tails":4,"studentIndex":7,"studentTrueHypers":{"a":4,"b":1},"studentGuess":0.5,"delta":0.3,"totalExamples":5,"bonusSoFar":1.04},{"rt":35283,"response":{"heads":"0","tails":"15"},"type":"response","condition":"seqFeedback","trueTheta":0.2,"classrooms":["A","B"],"studentTrueClassroom":"B","exampleSet":"second","trial_type":"survey-html-form","trial_index":76,"time_elapsed":1011553,"internal_node_id":"0.0-67.0-0.0","params":{"nStudents":24,"maxFlips":25,"completionMinutes":45,"basePay":8,"maxBonus":9,"perTrialBonus":0.5,"perTrialBonusThreshold":0.05,"exampleCost":0.02},"classroomParams":{"A":{"a":1,"b":4},"B":{"a":4,"b":1},"C":{"a":2,"b":8},"D":{"a":8,"b":2}},"conditions":["nonSeqFull","nonSeqPartial","seqNoFeedback","seqFeedback"],"classroomPairings":[["A","B"],["C","D"]],"coinWeights":[0.2,0.5,0.8],"subjectId":"A2QX3YJXAAHHVV","assignmentId":"3E337GFOLAUBARK3DNVJLW8337EGNN","hitId":"3IH9TRB0FBLK6RLF7MSMKICTGYN1IU","url":"https://gershmanlab.com/experiments/alicia/teaching/experiment/?hitId=3IH9TRB0FBLK6RLF7MSMKICTGYN1IU&workerId=A2QX3YJXAAHHVV&assignmentId=3E337GFOLAUBARK3DNVJLW8337EGNN&a=O73E3&tp_a=O73E3&b=3E337GFOLAUBARK3DNVJLW8337EGNN&tp_b=3E337GFOLAUBARK3DNVJLW8337EGNN&c=365633&tp_c=365633","firstResponseHeads":1,"firstResponseTails":4,"secondResponseHeads":0,"secondResponseTails":15,"totalHeads":1,"totalTails":19,"studentIndex":7,"studentTrueHypers":{"a":4,"b":1},"studentGuess":0.2,"delta":0,"bonus":0.1,"bonusSoFar":1.14,"totalExamples":20},{"rt":35786,"response":{"heads":"1","tails":"1"},"type":"response","condition":"seqNoFeedback","trueTheta":0.8,"classrooms":["C","D"],"studentTrueClassroom":"D","exampleSet":"first","trial_type":"survey-html-form","trial_index":82,"time_elapsed":1060857,"internal_node_id":"0.0-73.0-0.0","params":{"nStudents":24,"maxFlips":25,"completionMinutes":45,"basePay":8,"maxBonus":9,"perTrialBonus":0.5,"perTrialBonusThreshold":0.05,"exampleCost":0.02},"classroomParams":{"A":{"a":1,"b":4},"B":{"a":4,"b":1},"C":{"a":2,"b":8},"D":{"a":8,"b":2}},"conditions":["nonSeqFull","nonSeqPartial","seqNoFeedback","seqFeedback"],"classroomPairings":[["A","B"],["C","D"]],"coinWeights":[0.2,0.5,0.8],"subjectId":"A2QX3YJXAAHHVV","assignmentId":"3E337GFOLAUBARK3DNVJLW8337EGNN","hitId":"3IH9TRB0FBLK6RLF7MSMKICTGYN1IU","url":"https://gershmanlab.com/experiments/alicia/teaching/experiment/?hitId=3IH9TRB0FBLK6RLF7MSMKICTGYN1IU&workerId=A2QX3YJXAAHHVV&assignmentId=3E337GFOLAUBARK3DNVJLW8337EGNN&a=O73E3&tp_a=O73E3&b=3E337GFOLAUBARK3DNVJLW8337EGNN&tp_b=3E337GFOLAUBARK3DNVJLW8337EGNN&c=365633&tp_c=365633","heads":1,"tails":1,"studentIndex":8,"studentTrueHypers":{"a":8,"b":2},"studentGuess":0.75,"delta":0.050000000000000044,"totalExamples":2,"bonusSoFar":1.14},{"rt":9231,"response":{"heads":"1","tails":"1"},"type":"response","condition":"seqNoFeedback","trueTheta":0.8,"classrooms":["C","D"],"studentTrueClassroom":"D","exampleSet":"second","trial_type":"survey-html-form","trial_index":85,"time_elapsed":1077601,"internal_node_id":"0.0-76.0-0.0","params":{"nStudents":24,"maxFlips":25,"completionMinutes":45,"basePay":8,"maxBonus":9,"perTrialBonus":0.5,"perTrialBonusThreshold":0.05,"exampleCost":0.02},"classroomParams":{"A":{"a":1,"b":4},"B":{"a":4,"b":1},"C":{"a":2,"b":8},"D":{"a":8,"b":2}},"conditions":["nonSeqFull","nonSeqPartial","seqNoFeedback","seqFeedback"],"classroomPairings":[["A","B"],["C","D"]],"coinWeights":[0.2,0.5,0.8],"subjectId":"A2QX3YJXAAHHVV","assignmentId":"3E337GFOLAUBARK3DNVJLW8337EGNN","hitId":"3IH9TRB0FBLK6RLF7MSMKICTGYN1IU","url":"https://gershmanlab.com/experiments/alicia/teaching/experiment/?hitId=3IH9TRB0FBLK6RLF7MSMKICTGYN1IU&workerId=A2QX3YJXAAHHVV&assignmentId=3E337GFOLAUBARK3DNVJLW8337EGNN&a=O73E3&tp_a=O73E3&b=3E337GFOLAUBARK3DNVJLW8337EGNN&tp_b=3E337GFOLAUBARK3DNVJLW8337EGNN&c=365633&tp_c=365633","firstResponseHeads":1,"firstResponseTails":1,"secondResponseHeads":1,"secondResponseTails":1,"totalHeads":2,"totalTails":2,"studentIndex":8,"studentTrueHypers":{"a":8,"b":2},"studentGuess":0.7142857142857143,"delta":0.08571428571428574,"bonus":0,"bonusSoFar":1.14,"totalExamples":4},{"rt":12144,"response":{"heads":"8","tails":"2"},"type":"response","condition":"nonSeqPartial","trueTheta":0.8,"classrooms":["C","D"],"studentTrueClassroom":"C","exampleSet":"first","trial_type":"survey-html-form","trial_index":91,"time_elapsed":1182455,"internal_node_id":"0.0-82.0-0.0","params":{"nStudents":24,"maxFlips":25,"completionMinutes":45,"basePay":8,"maxBonus":9,"perTrialBonus":0.5,"perTrialBonusThreshold":0.05,"exampleCost":0.02},"classroomParams":{"A":{"a":1,"b":4},"B":{"a":4,"b":1},"C":{"a":2,"b":8},"D":{"a":8,"b":2}},"conditions":["nonSeqFull","nonSeqPartial","seqNoFeedback","seqFeedback"],"classroomPairings":[["A","B"],["C","D"]],"coinWeights":[0.2,0.5,0.8],"subjectId":"A2QX3YJXAAHHVV","assignmentId":"3E337GFOLAUBARK3DNVJLW8337EGNN","hitId":"3IH9TRB0FBLK6RLF7MSMKICTGYN1IU","url":"https://gershmanlab.com/experiments/alicia/teaching/experiment/?hitId=3IH9TRB0FBLK6RLF7MSMKICTGYN1IU&workerId=A2QX3YJXAAHHVV&assignmentId=3E337GFOLAUBARK3DNVJLW8337EGNN&a=O73E3&tp_a=O73E3&b=3E337GFOLAUBARK3DNVJLW8337EGNN&tp_b=3E337GFOLAUBARK3DNVJLW8337EGNN&c=365633&tp_c=365633","heads":8,"tails":2,"studentIndex":9,"studentTrueHypers":{"a":2,"b":8},"studentGuess":0.5,"delta":0.30000000000000004,"totalExamples":10,"bonus":0,"bonusSoFar":1.14},{"rt":40003,"response":{"heads":"1","tails":"4"},"type":"response","condition":"nonSeqPartial","trueTheta":0.2,"classrooms":["A","B"],"studentTrueClassroom":"A","exampleSet":"first","trial_type":"survey-html-form","trial_index":97,"time_elapsed":1238252,"internal_node_id":"0.0-88.0-0.0","params":{"nStudents":24,"maxFlips":25,"completionMinutes":45,"basePay":8,"maxBonus":9,"perTrialBonus":0.5,"perTrialBonusThreshold":0.05,"exampleCost":0.02},"classroomParams":{"A":{"a":1,"b":4},"B":{"a":4,"b":1},"C":{"a":2,"b":8},"D":{"a":8,"b":2}},"conditions":["nonSeqFull","nonSeqPartial","seqNoFeedback","seqFeedback"],"classroomPairings":[["A","B"],["C","D"]],"coinWeights":[0.2,0.5,0.8],"subjectId":"A2QX3YJXAAHHVV","assignmentId":"3E337GFOLAUBARK3DNVJLW8337EGNN","hitId":"3IH9TRB0FBLK6RLF7MSMKICTGYN1IU","url":"https://gershmanlab.com/experiments/alicia/teaching/experiment/?hitId=3IH9TRB0FBLK6RLF7MSMKICTGYN1IU&workerId=A2QX3YJXAAHHVV&assignmentId=3E337GFOLAUBARK3DNVJLW8337EGNN&a=O73E3&tp_a=O73E3&b=3E337GFOLAUBARK3DNVJLW8337EGNN&tp_b=3E337GFOLAUBARK3DNVJLW8337EGNN&c=365633&tp_c=365633","heads":1,"tails":4,"studentIndex":10,"studentTrueHypers":{"a":1,"b":4},"studentGuess":0.2,"delta":0,"totalExamples":5,"bonus":0.4,"bonusSoFar":1.54},{"rt":27879,"response":{"heads":"4","tails":"1"},"type":"response","condition":"nonSeqPartial","trueTheta":0.5,"classrooms":["A","B"],"studentTrueClassroom":"B","exampleSet":"first","trial_type":"survey-html-form","trial_index":103,"time_elapsed":1282988,"internal_node_id":"0.0-94.0-0.0","params":{"nStudents":24,"maxFlips":25,"completionMinutes":45,"basePay":8,"maxBonus":9,"perTrialBonus":0.5,"perTrialBonusThreshold":0.05,"exampleCost":0.02},"classroomParams":{"A":{"a":1,"b":4},"B":{"a":4,"b":1},"C":{"a":2,"b":8},"D":{"a":8,"b":2}},"conditions":["nonSeqFull","nonSeqPartial","seqNoFeedback","seqFeedback"],"classroomPairings":[["A","B"],["C","D"]],"coinWeights":[0.2,0.5,0.8],"subjectId":"A2QX3YJXAAHHVV","assignmentId":"3E337GFOLAUBARK3DNVJLW8337EGNN","hitId":"3IH9TRB0FBLK6RLF7MSMKICTGYN1IU","url":"https://gershmanlab.com/experiments/alicia/teaching/experiment/?hitId=3IH9TRB0FBLK6RLF7MSMKICTGYN1IU&workerId=A2QX3YJXAAHHVV&assignmentId=3E337GFOLAUBARK3DNVJLW8337EGNN&a=O73E3&tp_a=O73E3&b=3E337GFOLAUBARK3DNVJLW8337EGNN&tp_b=3E337GFOLAUBARK3DNVJLW8337EGNN&c=365633&tp_c=365633","heads":4,"tails":1,"studentIndex":11,"studentTrueHypers":{"a":4,"b":1},"studentGuess":0.8,"delta":0.30000000000000004,"totalExamples":5,"bonus":0,"bonusSoFar":1.54},{"rt":11857,"response":{"heads":"6","tails":"0"},"type":"response","condition":"seqNoFeedback","trueTheta":0.5,"classrooms":["C","D"],"studentTrueClassroom":"C","exampleSet":"first","trial_type":"survey-html-form","trial_index":109,"time_elapsed":1310017,"internal_node_id":"0.0-100.0-0.0","params":{"nStudents":24,"maxFlips":25,"completionMinutes":45,"basePay":8,"maxBonus":9,"perTrialBonus":0.5,"perTrialBonusThreshold":0.05,"exampleCost":0.02},"classroomParams":{"A":{"a":1,"b":4},"B":{"a":4,"b":1},"C":{"a":2,"b":8},"D":{"a":8,"b":2}},"conditions":["nonSeqFull","nonSeqPartial","seqNoFeedback","seqFeedback"],"classroomPairings":[["A","B"],["C","D"]],"coinWeights":[0.2,0.5,0.8],"subjectId":"A2QX3YJXAAHHVV","assignmentId":"3E337GFOLAUBARK3DNVJLW8337EGNN","hitId":"3IH9TRB0FBLK6RLF7MSMKICTGYN1IU","url":"https://gershmanlab.com/experiments/alicia/teaching/experiment/?hitId=3IH9TRB0FBLK6RLF7MSMKICTGYN1IU&workerId=A2QX3YJXAAHHVV&assignmentId=3E337GFOLAUBARK3DNVJLW8337EGNN&a=O73E3&tp_a=O73E3&b=3E337GFOLAUBARK3DNVJLW8337EGNN&tp_b=3E337GFOLAUBARK3DNVJLW8337EGNN&c=365633&tp_c=365633","heads":6,"tails":0,"studentIndex":12,"studentTrueHypers":{"a":2,"b":8},"studentGuess":0.5,"delta":0,"totalExamples":6,"bonusSoFar":1.54},{"rt":22328,"response":{"heads":"1","tails":"1"},"type":"response","condition":"seqNoFeedback","trueTheta":0.5,"classrooms":["C","D"],"studentTrueClassroom":"C","exampleSet":"second","trial_type":"survey-html-form","trial_index":112,"time_elapsed":1337864,"internal_node_id":"0.0-103.0-0.0","params":{"nStudents":24,"maxFlips":25,"completionMinutes":45,"basePay":8,"maxBonus":9,"perTrialBonus":0.5,"perTrialBonusThreshold":0.05,"exampleCost":0.02},"classroomParams":{"A":{"a":1,"b":4},"B":{"a":4,"b":1},"C":{"a":2,"b":8},"D":{"a":8,"b":2}},"conditions":["nonSeqFull","nonSeqPartial","seqNoFeedback","seqFeedback"],"classroomPairings":[["A","B"],["C","D"]],"coinWeights":[0.2,0.5,0.8],"subjectId":"A2QX3YJXAAHHVV","assignmentId":"3E337GFOLAUBARK3DNVJLW8337EGNN","hitId":"3IH9TRB0FBLK6RLF7MSMKICTGYN1IU","url":"https://gershmanlab.com/experiments/alicia/teaching/experiment/?hitId=3IH9TRB0FBLK6RLF7MSMKICTGYN1IU&workerId=A2QX3YJXAAHHVV&assignmentId=3E337GFOLAUBARK3DNVJLW8337EGNN&a=O73E3&tp_a=O73E3&b=3E337GFOLAUBARK3DNVJLW8337EGNN&tp_b=3E337GFOLAUBARK3DNVJLW8337EGNN&c=365633&tp_c=365633","firstResponseHeads":6,"firstResponseTails":0,"secondResponseHeads":1,"secondResponseTails":1,"totalHeads":7,"totalTails":1,"studentIndex":12,"studentTrueHypers":{"a":2,"b":8},"studentGuess":0.5,"delta":0,"bonus":0.34,"bonusSoFar":1.88,"totalExamples":8},{"rt":10134,"response":{"heads":"4","tails":"1"},"type":"response","condition":"seqNoFeedback","trueTheta":0.8,"classrooms":["A","B"],"studentTrueClassroom":"A","exampleSet":"first","trial_type":"survey-html-form","trial_index":118,"time_elapsed":1364529,"internal_node_id":"0.0-109.0-0.0","params":{"nStudents":24,"maxFlips":25,"completionMinutes":45,"basePay":8,"maxBonus":9,"perTrialBonus":0.5,"perTrialBonusThreshold":0.05,"exampleCost":0.02},"classroomParams":{"A":{"a":1,"b":4},"B":{"a":4,"b":1},"C":{"a":2,"b":8},"D":{"a":8,"b":2}},"conditions":["nonSeqFull","nonSeqPartial","seqNoFeedback","seqFeedback"],"classroomPairings":[["A","B"],["C","D"]],"coinWeights":[0.2,0.5,0.8],"subjectId":"A2QX3YJXAAHHVV","assignmentId":"3E337GFOLAUBARK3DNVJLW8337EGNN","hitId":"3IH9TRB0FBLK6RLF7MSMKICTGYN1IU","url":"https://gershmanlab.com/experiments/alicia/teaching/experiment/?hitId=3IH9TRB0FBLK6RLF7MSMKICTGYN1IU&workerId=A2QX3YJXAAHHVV&assignmentId=3E337GFOLAUBARK3DNVJLW8337EGNN&a=O73E3&tp_a=O73E3&b=3E337GFOLAUBARK3DNVJLW8337EGNN&tp_b=3E337GFOLAUBARK3DNVJLW8337EGNN&c=365633&tp_c=365633","heads":4,"tails":1,"studentIndex":13,"studentTrueHypers":{"a":1,"b":4},"studentGuess":0.5,"delta":0.30000000000000004,"totalExamples":5,"bonusSoFar":1.88},{"rt":16038,"response":{"heads":"4","tails":"1"},"type":"response","condition":"seqNoFeedback","trueTheta":0.8,"classrooms":["A","B"],"studentTrueClassroom":"A","exampleSet":"second","trial_type":"survey-html-form","trial_index":121,"time_elapsed":1388587,"internal_node_id":"0.0-112.0-0.0","params":{"nStudents":24,"maxFlips":25,"completionMinutes":45,"basePay":8,"maxBonus":9,"perTrialBonus":0.5,"perTrialBonusThreshold":0.05,"exampleCost":0.02},"classroomParams":{"A":{"a":1,"b":4},"B":{"a":4,"b":1},"C":{"a":2,"b":8},"D":{"a":8,"b":2}},"conditions":["nonSeqFull","nonSeqPartial","seqNoFeedback","seqFeedback"],"classroomPairings":[["A","B"],["C","D"]],"coinWeights":[0.2,0.5,0.8],"subjectId":"A2QX3YJXAAHHVV","assignmentId":"3E337GFOLAUBARK3DNVJLW8337EGNN","hitId":"3IH9TRB0FBLK6RLF7MSMKICTGYN1IU","url":"https://gershmanlab.com/experiments/alicia/teaching/experiment/?hitId=3IH9TRB0FBLK6RLF7MSMKICTGYN1IU&workerId=A2QX3YJXAAHHVV&assignmentId=3E337GFOLAUBARK3DNVJLW8337EGNN&a=O73E3&tp_a=O73E3&b=3E337GFOLAUBARK3DNVJLW8337EGNN&tp_b=3E337GFOLAUBARK3DNVJLW8337EGNN&c=365633&tp_c=365633","firstResponseHeads":4,"firstResponseTails":1,"secondResponseHeads":4,"secondResponseTails":1,"totalHeads":8,"totalTails":2,"studentIndex":13,"studentTrueHypers":{"a":1,"b":4},"studentGuess":0.6,"delta":0.20000000000000007,"bonus":0,"bonusSoFar":1.88,"totalExamples":10},{"rt":32786,"response":{"heads":"1","tails":"4"},"type":"response","condition":"seqNoFeedback","trueTheta":0.2,"classrooms":["C","D"],"studentTrueClassroom":"C","exampleSet":"first","trial_type":"survey-html-form","trial_index":127,"time_elapsed":1439392,"internal_node_id":"0.0-118.0-0.0","params":{"nStudents":24,"maxFlips":25,"completionMinutes":45,"basePay":8,"maxBonus":9,"perTrialBonus":0.5,"perTrialBonusThreshold":0.05,"exampleCost":0.02},"classroomParams":{"A":{"a":1,"b":4},"B":{"a":4,"b":1},"C":{"a":2,"b":8},"D":{"a":8,"b":2}},"conditions":["nonSeqFull","nonSeqPartial","seqNoFeedback","seqFeedback"],"classroomPairings":[["A","B"],["C","D"]],"coinWeights":[0.2,0.5,0.8],"subjectId":"A2QX3YJXAAHHVV","assignmentId":"3E337GFOLAUBARK3DNVJLW8337EGNN","hitId":"3IH9TRB0FBLK6RLF7MSMKICTGYN1IU","url":"https://gershmanlab.com/experiments/alicia/teaching/experiment/?hitId=3IH9TRB0FBLK6RLF7MSMKICTGYN1IU&workerId=A2QX3YJXAAHHVV&assignmentId=3E337GFOLAUBARK3DNVJLW8337EGNN&a=O73E3&tp_a=O73E3&b=3E337GFOLAUBARK3DNVJLW8337EGNN&tp_b=3E337GFOLAUBARK3DNVJLW8337EGNN&c=365633&tp_c=365633","heads":1,"tails":4,"studentIndex":14,"studentTrueHypers":{"a":2,"b":8},"studentGuess":0.2,"delta":0,"totalExamples":5,"bonusSoFar":1.88},{"rt":6790,"response":{"heads":"1","tails":"4"},"type":"response","condition":"seqNoFeedback","trueTheta":0.2,"classrooms":["C","D"],"studentTrueClassroom":"C","exampleSet":"second","trial_type":"survey-html-form","trial_index":130,"time_elapsed":1452946,"internal_node_id":"0.0-121.0-0.0","params":{"nStudents":24,"maxFlips":25,"completionMinutes":45,"basePay":8,"maxBonus":9,"perTrialBonus":0.5,"perTrialBonusThreshold":0.05,"exampleCost":0.02},"classroomParams":{"A":{"a":1,"b":4},"B":{"a":4,"b":1},"C":{"a":2,"b":8},"D":{"a":8,"b":2}},"conditions":["nonSeqFull","nonSeqPartial","seqNoFeedback","seqFeedback"],"classroomPairings":[["A","B"],["C","D"]],"coinWeights":[0.2,0.5,0.8],"subjectId":"A2QX3YJXAAHHVV","assignmentId":"3E337GFOLAUBARK3DNVJLW8337EGNN","hitId":"3IH9TRB0FBLK6RLF7MSMKICTGYN1IU","url":"https://gershmanlab.com/experiments/alicia/teaching/experiment/?hitId=3IH9TRB0FBLK6RLF7MSMKICTGYN1IU&workerId=A2QX3YJXAAHHVV&assignmentId=3E337GFOLAUBARK3DNVJLW8337EGNN&a=O73E3&tp_a=O73E3&b=3E337GFOLAUBARK3DNVJLW8337EGNN&tp_b=3E337GFOLAUBARK3DNVJLW8337EGNN&c=365633&tp_c=365633","firstResponseHeads":1,"firstResponseTails":4,"secondResponseHeads":1,"secondResponseTails":4,"totalHeads":2,"totalTails":8,"studentIndex":14,"studentTrueHypers":{"a":2,"b":8},"studentGuess":0.2,"delta":0,"bonus":0.3,"bonusSoFar":2.18,"totalExamples":10},{"rt":32464,"response":{"heads":"1","tails":"1"},"type":"response","condition":"nonSeqFull","trueTheta":0.8,"classrooms":["C","D"],"studentTrueClassroom":"D","exampleSet":"first","trial_type":"survey-html-form","trial_index":136,"time_elapsed":1500155,"internal_node_id":"0.0-127.0-0.0","params":{"nStudents":24,"maxFlips":25,"completionMinutes":45,"basePay":8,"maxBonus":9,"perTrialBonus":0.5,"perTrialBonusThreshold":0.05,"exampleCost":0.02},"classroomParams":{"A":{"a":1,"b":4},"B":{"a":4,"b":1},"C":{"a":2,"b":8},"D":{"a":8,"b":2}},"conditions":["nonSeqFull","nonSeqPartial","seqNoFeedback","seqFeedback"],"classroomPairings":[["A","B"],["C","D"]],"coinWeights":[0.2,0.5,0.8],"subjectId":"A2QX3YJXAAHHVV","assignmentId":"3E337GFOLAUBARK3DNVJLW8337EGNN","hitId":"3IH9TRB0FBLK6RLF7MSMKICTGYN1IU","url":"https://gershmanlab.com/experiments/alicia/teaching/experiment/?hitId=3IH9TRB0FBLK6RLF7MSMKICTGYN1IU&workerId=A2QX3YJXAAHHVV&assignmentId=3E337GFOLAUBARK3DNVJLW8337EGNN&a=O73E3&tp_a=O73E3&b=3E337GFOLAUBARK3DNVJLW8337EGNN&tp_b=3E337GFOLAUBARK3DNVJLW8337EGNN&c=365633&tp_c=365633","heads":1,"tails":1,"studentIndex":15,"studentTrueHypers":{"a":8,"b":2},"studentGuess":0.75,"delta":0.050000000000000044,"totalExamples":2,"bonus":0,"bonusSoFar":2.18},{"rt":8049,"response":{"heads":"4","tails":"01"},"type":"response","condition":"nonSeqPartial","trueTheta":0.8,"classrooms":["A","B"],"studentTrueClassroom":"B","exampleSet":"first","trial_type":"survey-html-form","trial_index":142,"time_elapsed":1529432,"internal_node_id":"0.0-133.0-0.0","params":{"nStudents":24,"maxFlips":25,"completionMinutes":45,"basePay":8,"maxBonus":9,"perTrialBonus":0.5,"perTrialBonusThreshold":0.05,"exampleCost":0.02},"classroomParams":{"A":{"a":1,"b":4},"B":{"a":4,"b":1},"C":{"a":2,"b":8},"D":{"a":8,"b":2}},"conditions":["nonSeqFull","nonSeqPartial","seqNoFeedback","seqFeedback"],"classroomPairings":[["A","B"],["C","D"]],"coinWeights":[0.2,0.5,0.8],"subjectId":"A2QX3YJXAAHHVV","assignmentId":"3E337GFOLAUBARK3DNVJLW8337EGNN","hitId":"3IH9TRB0FBLK6RLF7MSMKICTGYN1IU","url":"https://gershmanlab.com/experiments/alicia/teaching/experiment/?hitId=3IH9TRB0FBLK6RLF7MSMKICTGYN1IU&workerId=A2QX3YJXAAHHVV&assignmentId=3E337GFOLAUBARK3DNVJLW8337EGNN&a=O73E3&tp_a=O73E3&b=3E337GFOLAUBARK3DNVJLW8337EGNN&tp_b=3E337GFOLAUBARK3DNVJLW8337EGNN&c=365633&tp_c=365633","heads":4,"tails":1,"studentIndex":16,"studentTrueHypers":{"a":4,"b":1},"studentGuess":0.8,"delta":0,"totalExamples":5,"bonus":0.4,"bonusSoFar":2.58},{"rt":9527,"response":{"heads":"1","tails":"4"},"type":"response","condition":"seqNoFeedback","trueTheta":0.2,"classrooms":["A","B"],"studentTrueClassroom":"B","exampleSet":"first","trial_type":"survey-html-form","trial_index":148,"time_elapsed":1558046,"internal_node_id":"0.0-139.0-0.0","params":{"nStudents":24,"maxFlips":25,"completionMinutes":45,"basePay":8,"maxBonus":9,"perTrialBonus":0.5,"perTrialBonusThreshold":0.05,"exampleCost":0.02},"classroomParams":{"A":{"a":1,"b":4},"B":{"a":4,"b":1},"C":{"a":2,"b":8},"D":{"a":8,"b":2}},"conditions":["nonSeqFull","nonSeqPartial","seqNoFeedback","seqFeedback"],"classroomPairings":[["A","B"],["C","D"]],"coinWeights":[0.2,0.5,0.8],"subjectId":"A2QX3YJXAAHHVV","assignmentId":"3E337GFOLAUBARK3DNVJLW8337EGNN","hitId":"3IH9TRB0FBLK6RLF7MSMKICTGYN1IU","url":"https://gershmanlab.com/experiments/alicia/teaching/experiment/?hitId=3IH9TRB0FBLK6RLF7MSMKICTGYN1IU&workerId=A2QX3YJXAAHHVV&assignmentId=3E337GFOLAUBARK3DNVJLW8337EGNN&a=O73E3&tp_a=O73E3&b=3E337GFOLAUBARK3DNVJLW8337EGNN&tp_b=3E337GFOLAUBARK3DNVJLW8337EGNN&c=365633&tp_c=365633","heads":1,"tails":4,"studentIndex":17,"studentTrueHypers":{"a":4,"b":1},"studentGuess":0.5,"delta":0.3,"totalExamples":5,"bonusSoFar":2.58},{"rt":10227,"response":{"heads":"1","tails":"4"},"type":"response","condition":"seqNoFeedback","trueTheta":0.2,"classrooms":["A","B"],"studentTrueClassroom":"B","exampleSet":"second","trial_type":"survey-html-form","trial_index":151,"time_elapsed":1574285,"internal_node_id":"0.0-142.0-0.0","params":{"nStudents":24,"maxFlips":25,"completionMinutes":45,"basePay":8,"maxBonus":9,"perTrialBonus":0.5,"perTrialBonusThreshold":0.05,"exampleCost":0.02},"classroomParams":{"A":{"a":1,"b":4},"B":{"a":4,"b":1},"C":{"a":2,"b":8},"D":{"a":8,"b":2}},"conditions":["nonSeqFull","nonSeqPartial","seqNoFeedback","seqFeedback"],"classroomPairings":[["A","B"],["C","D"]],"coinWeights":[0.2,0.5,0.8],"subjectId":"A2QX3YJXAAHHVV","assignmentId":"3E337GFOLAUBARK3DNVJLW8337EGNN","hitId":"3IH9TRB0FBLK6RLF7MSMKICTGYN1IU","url":"https://gershmanlab.com/experiments/alicia/teaching/experiment/?hitId=3IH9TRB0FBLK6RLF7MSMKICTGYN1IU&workerId=A2QX3YJXAAHHVV&assignmentId=3E337GFOLAUBARK3DNVJLW8337EGNN&a=O73E3&tp_a=O73E3&b=3E337GFOLAUBARK3DNVJLW8337EGNN&tp_b=3E337GFOLAUBARK3DNVJLW8337EGNN&c=365633&tp_c=365633","firstResponseHeads":1,"firstResponseTails":4,"secondResponseHeads":1,"secondResponseTails":4,"totalHeads":2,"totalTails":8,"studentIndex":17,"studentTrueHypers":{"a":4,"b":1},"studentGuess":0.4,"delta":0.2,"bonus":0,"bonusSoFar":2.58,"totalExamples":10},{"rt":14256,"response":{"heads":"1","tails":"4"},"type":"response","condition":"seqFeedback","trueTheta":0.2,"classrooms":["C","D"],"studentTrueClassroom":"D","exampleSet":"first","trial_type":"survey-html-form","trial_index":157,"time_elapsed":1600897,"internal_node_id":"0.0-148.0-0.0","params":{"nStudents":24,"maxFlips":25,"completionMinutes":45,"basePay":8,"maxBonus":9,"perTrialBonus":0.5,"perTrialBonusThreshold":0.05,"exampleCost":0.02},"classroomParams":{"A":{"a":1,"b":4},"B":{"a":4,"b":1},"C":{"a":2,"b":8},"D":{"a":8,"b":2}},"conditions":["nonSeqFull","nonSeqPartial","seqNoFeedback","seqFeedback"],"classroomPairings":[["A","B"],["C","D"]],"coinWeights":[0.2,0.5,0.8],"subjectId":"A2QX3YJXAAHHVV","assignmentId":"3E337GFOLAUBARK3DNVJLW8337EGNN","hitId":"3IH9TRB0FBLK6RLF7MSMKICTGYN1IU","url":"https://gershmanlab.com/experiments/alicia/teaching/experiment/?hitId=3IH9TRB0FBLK6RLF7MSMKICTGYN1IU&workerId=A2QX3YJXAAHHVV&assignmentId=3E337GFOLAUBARK3DNVJLW8337EGNN&a=O73E3&tp_a=O73E3&b=3E337GFOLAUBARK3DNVJLW8337EGNN&tp_b=3E337GFOLAUBARK3DNVJLW8337EGNN&c=365633&tp_c=365633","heads":1,"tails":4,"studentIndex":18,"studentTrueHypers":{"a":8,"b":2},"studentGuess":0.6,"delta":0.39999999999999997,"totalExamples":5,"bonusSoFar":2.58},{"rt":59079,"response":{"heads":"0","tails":"24"},"type":"response","condition":"seqFeedback","trueTheta":0.2,"classrooms":["C","D"],"studentTrueClassroom":"D","exampleSet":"second","trial_type":"survey-html-form","trial_index":161,"time_elapsed":1669873,"internal_node_id":"0.0-152.0-0.0","params":{"nStudents":24,"maxFlips":25,"completionMinutes":45,"basePay":8,"maxBonus":9,"perTrialBonus":0.5,"perTrialBonusThreshold":0.05,"exampleCost":0.02},"classroomParams":{"A":{"a":1,"b":4},"B":{"a":4,"b":1},"C":{"a":2,"b":8},"D":{"a":8,"b":2}},"conditions":["nonSeqFull","nonSeqPartial","seqNoFeedback","seqFeedback"],"classroomPairings":[["A","B"],["C","D"]],"coinWeights":[0.2,0.5,0.8],"subjectId":"A2QX3YJXAAHHVV","assignmentId":"3E337GFOLAUBARK3DNVJLW8337EGNN","hitId":"3IH9TRB0FBLK6RLF7MSMKICTGYN1IU","url":"https://gershmanlab.com/experiments/alicia/teaching/experiment/?hitId=3IH9TRB0FBLK6RLF7MSMKICTGYN1IU&workerId=A2QX3YJXAAHHVV&assignmentId=3E337GFOLAUBARK3DNVJLW8337EGNN&a=O73E3&tp_a=O73E3&b=3E337GFOLAUBARK3DNVJLW8337EGNN&tp_b=3E337GFOLAUBARK3DNVJLW8337EGNN&c=365633&tp_c=365633","firstResponseHeads":1,"firstResponseTails":4,"secondResponseHeads":0,"secondResponseTails":24,"totalHeads":1,"totalTails":28,"studentIndex":18,"studentTrueHypers":{"a":8,"b":2},"studentGuess":0.23076923076923078,"delta":0.03076923076923077,"bonus":0,"bonusSoFar":2.58,"totalExamples":29},{"rt":17717,"response":{"heads":"1","tails":"1"},"type":"response","condition":"seqFeedback","trueTheta":0.5,"classrooms":["A","B"],"studentTrueClassroom":"A","exampleSet":"first","trial_type":"survey-html-form","trial_index":167,"time_elapsed":1706183,"internal_node_id":"0.0-158.0-0.0","params":{"nStudents":24,"maxFlips":25,"completionMinutes":45,"basePay":8,"maxBonus":9,"perTrialBonus":0.5,"perTrialBonusThreshold":0.05,"exampleCost":0.02},"classroomParams":{"A":{"a":1,"b":4},"B":{"a":4,"b":1},"C":{"a":2,"b":8},"D":{"a":8,"b":2}},"conditions":["nonSeqFull","nonSeqPartial","seqNoFeedback","seqFeedback"],"classroomPairings":[["A","B"],["C","D"]],"coinWeights":[0.2,0.5,0.8],"subjectId":"A2QX3YJXAAHHVV","assignmentId":"3E337GFOLAUBARK3DNVJLW8337EGNN","hitId":"3IH9TRB0FBLK6RLF7MSMKICTGYN1IU","url":"https://gershmanlab.com/experiments/alicia/teaching/experiment/?hitId=3IH9TRB0FBLK6RLF7MSMKICTGYN1IU&workerId=A2QX3YJXAAHHVV&assignmentId=3E337GFOLAUBARK3DNVJLW8337EGNN&a=O73E3&tp_a=O73E3&b=3E337GFOLAUBARK3DNVJLW8337EGNN&tp_b=3E337GFOLAUBARK3DNVJLW8337EGNN&c=365633&tp_c=365633","heads":1,"tails":1,"studentIndex":19,"studentTrueHypers":{"a":1,"b":4},"studentGuess":0.2857142857142857,"delta":0.2142857142857143,"totalExamples":2,"bonusSoFar":2.58},{"rt":11114,"response":{"heads":"3","tails":"0"},"type":"response","condition":"seqFeedback","trueTheta":0.5,"classrooms":["A","B"],"studentTrueClassroom":"A","exampleSet":"second","trial_type":"survey-html-form","trial_index":171,"time_elapsed":1726717,"internal_node_id":"0.0-162.0-0.0","params":{"nStudents":24,"maxFlips":25,"completionMinutes":45,"basePay":8,"maxBonus":9,"perTrialBonus":0.5,"perTrialBonusThreshold":0.05,"exampleCost":0.02},"classroomParams":{"A":{"a":1,"b":4},"B":{"a":4,"b":1},"C":{"a":2,"b":8},"D":{"a":8,"b":2}},"conditions":["nonSeqFull","nonSeqPartial","seqNoFeedback","seqFeedback"],"classroomPairings":[["A","B"],["C","D"]],"coinWeights":[0.2,0.5,0.8],"subjectId":"A2QX3YJXAAHHVV","assignmentId":"3E337GFOLAUBARK3DNVJLW8337EGNN","hitId":"3IH9TRB0FBLK6RLF7MSMKICTGYN1IU","url":"https://gershmanlab.com/experiments/alicia/teaching/experiment/?hitId=3IH9TRB0FBLK6RLF7MSMKICTGYN1IU&workerId=A2QX3YJXAAHHVV&assignmentId=3E337GFOLAUBARK3DNVJLW8337EGNN&a=O73E3&tp_a=O73E3&b=3E337GFOLAUBARK3DNVJLW8337EGNN&tp_b=3E337GFOLAUBARK3DNVJLW8337EGNN&c=365633&tp_c=365633","firstResponseHeads":1,"firstResponseTails":1,"secondResponseHeads":3,"secondResponseTails":0,"totalHeads":4,"totalTails":1,"studentIndex":19,"studentTrueHypers":{"a":1,"b":4},"studentGuess":0.5,"delta":0,"bonus":0.4,"bonusSoFar":2.98,"totalExamples":5},{"rt":9017,"response":{"heads":"3","tails":"0"},"type":"response","condition":"nonSeqFull","trueTheta":0.5,"classrooms":["A","B"],"studentTrueClassroom":"A","exampleSet":"first","trial_type":"survey-html-form","trial_index":177,"time_elapsed":1751128,"internal_node_id":"0.0-168.0-0.0","params":{"nStudents":24,"maxFlips":25,"completionMinutes":45,"basePay":8,"maxBonus":9,"perTrialBonus":0.5,"perTrialBonusThreshold":0.05,"exampleCost":0.02},"classroomParams":{"A":{"a":1,"b":4},"B":{"a":4,"b":1},"C":{"a":2,"b":8},"D":{"a":8,"b":2}},"conditions":["nonSeqFull","nonSeqPartial","seqNoFeedback","seqFeedback"],"classroomPairings":[["A","B"],["C","D"]],"coinWeights":[0.2,0.5,0.8],"subjectId":"A2QX3YJXAAHHVV","assignmentId":"3E337GFOLAUBARK3DNVJLW8337EGNN","hitId":"3IH9TRB0FBLK6RLF7MSMKICTGYN1IU","url":"https://gershmanlab.com/experiments/alicia/teaching/experiment/?hitId=3IH9TRB0FBLK6RLF7MSMKICTGYN1IU&workerId=A2QX3YJXAAHHVV&assignmentId=3E337GFOLAUBARK3DNVJLW8337EGNN&a=O73E3&tp_a=O73E3&b=3E337GFOLAUBARK3DNVJLW8337EGNN&tp_b=3E337GFOLAUBARK3DNVJLW8337EGNN&c=365633&tp_c=365633","heads":3,"tails":0,"studentIndex":20,"studentTrueHypers":{"a":1,"b":4},"studentGuess":0.5,"delta":0,"totalExamples":3,"bonus":0.44,"bonusSoFar":3.42},{"rt":57874,"response":{"heads":"0","tails":"19"},"type":"response","condition":"nonSeqFull","trueTheta":0.2,"classrooms":["A","B"],"studentTrueClassroom":"B","exampleSet":"first","trial_type":"survey-html-form","trial_index":183,"time_elapsed":1823435,"internal_node_id":"0.0-174.0-0.0","params":{"nStudents":24,"maxFlips":25,"completionMinutes":45,"basePay":8,"maxBonus":9,"perTrialBonus":0.5,"perTrialBonusThreshold":0.05,"exampleCost":0.02},"classroomParams":{"A":{"a":1,"b":4},"B":{"a":4,"b":1},"C":{"a":2,"b":8},"D":{"a":8,"b":2}},"conditions":["nonSeqFull","nonSeqPartial","seqNoFeedback","seqFeedback"],"classroomPairings":[["A","B"],["C","D"]],"coinWeights":[0.2,0.5,0.8],"subjectId":"A2QX3YJXAAHHVV","assignmentId":"3E337GFOLAUBARK3DNVJLW8337EGNN","hitId":"3IH9TRB0FBLK6RLF7MSMKICTGYN1IU","url":"https://gershmanlab.com/experiments/alicia/teaching/experiment/?hitId=3IH9TRB0FBLK6RLF7MSMKICTGYN1IU&workerId=A2QX3YJXAAHHVV&assignmentId=3E337GFOLAUBARK3DNVJLW8337EGNN&a=O73E3&tp_a=O73E3&b=3E337GFOLAUBARK3DNVJLW8337EGNN&tp_b=3E337GFOLAUBARK3DNVJLW8337EGNN&c=365633&tp_c=365633","heads":0,"tails":19,"studentIndex":21,"studentTrueHypers":{"a":4,"b":1},"studentGuess":0.16666666666666666,"delta":0.033333333333333354,"totalExamples":19,"bonus":0.12,"bonusSoFar":3.54},{"rt":21656,"response":{"heads":"19","tails":"0"},"type":"response","condition":"nonSeqFull","trueTheta":0.8,"classrooms":["A","B"],"studentTrueClassroom":"A","exampleSet":"first","trial_type":"survey-html-form","trial_index":189,"time_elapsed":1860178,"internal_node_id":"0.0-180.0-0.0","params":{"nStudents":24,"maxFlips":25,"completionMinutes":45,"basePay":8,"maxBonus":9,"perTrialBonus":0.5,"perTrialBonusThreshold":0.05,"exampleCost":0.02},"classroomParams":{"A":{"a":1,"b":4},"B":{"a":4,"b":1},"C":{"a":2,"b":8},"D":{"a":8,"b":2}},"conditions":["nonSeqFull","nonSeqPartial","seqNoFeedback","seqFeedback"],"classroomPairings":[["A","B"],["C","D"]],"coinWeights":[0.2,0.5,0.8],"subjectId":"A2QX3YJXAAHHVV","assignmentId":"3E337GFOLAUBARK3DNVJLW8337EGNN","hitId":"3IH9TRB0FBLK6RLF7MSMKICTGYN1IU","url":"https://gershmanlab.com/experiments/alicia/teaching/experiment/?hitId=3IH9TRB0FBLK6RLF7MSMKICTGYN1IU&workerId=A2QX3YJXAAHHVV&assignmentId=3E337GFOLAUBARK3DNVJLW8337EGNN&a=O73E3&tp_a=O73E3&b=3E337GFOLAUBARK3DNVJLW8337EGNN&tp_b=3E337GFOLAUBARK3DNVJLW8337EGNN&c=365633&tp_c=365633","heads":19,"tails":0,"studentIndex":22,"studentTrueHypers":{"a":1,"b":4},"studentGuess":0.8333333333333334,"delta":0.033333333333333326,"totalExamples":19,"bonus":0.12,"bonusSoFar":3.66},{"rt":40035,"response":{"heads":"0","tails":"1"},"type":"response","condition":"nonSeqFull","trueTheta":0.2,"classrooms":["C","D"],"studentTrueClassroom":"C","exampleSet":"first","trial_type":"survey-html-form","trial_index":195,"time_elapsed":1914214,"internal_node_id":"0.0-186.0-0.0","params":{"nStudents":24,"maxFlips":25,"completionMinutes":45,"basePay":8,"maxBonus":9,"perTrialBonus":0.5,"perTrialBonusThreshold":0.05,"exampleCost":0.02},"classroomParams":{"A":{"a":1,"b":4},"B":{"a":4,"b":1},"C":{"a":2,"b":8},"D":{"a":8,"b":2}},"conditions":["nonSeqFull","nonSeqPartial","seqNoFeedback","seqFeedback"],"classroomPairings":[["A","B"],["C","D"]],"coinWeights":[0.2,0.5,0.8],"subjectId":"A2QX3YJXAAHHVV","assignmentId":"3E337GFOLAUBARK3DNVJLW8337EGNN","hitId":"3IH9TRB0FBLK6RLF7MSMKICTGYN1IU","url":"https://gershmanlab.com/experiments/alicia/teaching/experiment/?hitId=3IH9TRB0FBLK6RLF7MSMKICTGYN1IU&workerId=A2QX3YJXAAHHVV&assignmentId=3E337GFOLAUBARK3DNVJLW8337EGNN&a=O73E3&tp_a=O73E3&b=3E337GFOLAUBARK3DNVJLW8337EGNN&tp_b=3E337GFOLAUBARK3DNVJLW8337EGNN&c=365633&tp_c=365633","heads":0,"tails":1,"studentIndex":23,"studentTrueHypers":{"a":2,"b":8},"studentGuess":0.18181818181818182,"delta":0.018181818181818188,"totalExamples":1,"bonus":0.48,"bonusSoFar":4.14},{"rt":17970,"response":{"gender":"male","age":"32","understood":"yes","comments":""},"type":"response","trial_type":"survey-html-form","trial_index":199,"time_elapsed":1942154,"internal_node_id":"0.0-191.0","params":{"nStudents":24,"maxFlips":25,"completionMinutes":45,"basePay":8,"maxBonus":9,"perTrialBonus":0.5,"perTrialBonusThreshold":0.05,"exampleCost":0.02},"classroomParams":{"A":{"a":1,"b":4},"B":{"a":4,"b":1},"C":{"a":2,"b":8},"D":{"a":8,"b":2}},"conditions":["nonSeqFull","nonSeqPartial","seqNoFeedback","seqFeedback"],"classroomPairings":[["A","B"],["C","D"]],"coinWeights":[0.2,0.5,0.8],"subjectId":"A2QX3YJXAAHHVV","assignmentId":"3E337GFOLAUBARK3DNVJLW8337EGNN","hitId":"3IH9TRB0FBLK6RLF7MSMKICTGYN1IU","url":"https://gershmanlab.com/experiments/alicia/teaching/experiment/?hitId=3IH9TRB0FBLK6RLF7MSMKICTGYN1IU&workerId=A2QX3YJXAAHHVV&assignmentId=3E337GFOLAUBARK3DNVJLW8337EGNN&a=O73E3&tp_a=O73E3&b=3E337GFOLAUBARK3DNVJLW8337EGNN&tp_b=3E337GFOLAUBARK3DNVJLW8337EGNN&c=365633&tp_c=365633","totalBonus":4.14}]