[{"rt":34625,"response":{"heads":"8","tails":"2"},"type":"response","condition":"nonSeqPartial","trueTheta":0.8,"classrooms":["A","B"],"studentTrueClassroom":"B","exampleSet":"first","trial_type":"survey-html-form","trial_index":7,"time_elapsed":953401,"internal_node_id":"0.0-6.0-0.0","params":{"nStudents":24,"maxFlips":25,"completionMinutes":45,"basePay":8,"maxBonus":9,"perTrialBonus":0.5,"perTrialBonusThreshold":0.05,"exampleCost":0.02},"classroomParams":{"A":{"a":1,"b":4},"B":{"a":4,"b":1},"C":{"a":2,"b":8},"D":{"a":8,"b":2}},"conditions":["nonSeqFull","nonSeqPartial","seqNoFeedback","seqFeedback"],"classroomPairings":[["A","B"],["C","D"]],"coinWeights":[0.2,0.5,0.8],"subjectId":"A2R75YFKVALBXE","assignmentId":"3RKNTXVS3NKOESXU9IODQ1R0EV64A4","hitId":"3IH9TRB0FBLK6RLF7MSMKICTGYN1IU","url":"https://gershmanlab.com/experiments/alicia/teaching/experiment/?hitId=3IH9TRB0FBLK6RLF7MSMKICTGYN1IU&workerId=A2R75YFKVALBXE&assignmentId=3RKNTXVS3NKOESXU9IODQ1R0EV64A4&a=STKR3&tp_a=STKR3&b=3RKNTXVS3NKOESXU9IODQ1R0EV64A4&tp_b=3RKNTXVS3NKOESXU9IODQ1R0EV64A4&c=365633&tp_c=365633","heads":8,"tails":2,"studentIndex":0,"studentTrueHypers":{"a":4,"b":1},"studentGuess":0.8,"delta":0,"totalExamples":10,"bonus":0.3,"bonusSoFar":0.3},{"rt":59369,"response":{"heads":"8","tails":"2"},"type":"response","condition":"seqFeedback","trueTheta":0.8,"classrooms":["C","D"],"studentTrueClassroom":"D","exampleSet":"first","trial_type":"survey-html-form","trial_index":13,"time_elapsed":1043694,"internal_node_id":"0.0-12.0-0.0","params":{"nStudents":24,"maxFlips":25,"completionMinutes":45,"basePay":8,"maxBonus":9,"perTrialBonus":0.5,"perTrialBonusThreshold":0.05,"exampleCost":0.02},"classroomParams":{"A":{"a":1,"b":4},"B":{"a":4,"b":1},"C":{"a":2,"b":8},"D":{"a":8,"b":2}},"conditions":["nonSeqFull","nonSeqPartial","seqNoFeedback","seqFeedback"],"classroomPairings":[["A","B"],["C","D"]],"coinWeights":[0.2,0.5,0.8],"subjectId":"A2R75YFKVALBXE","assignmentId":"3RKNTXVS3NKOESXU9IODQ1R0EV64A4","hitId":"3IH9TRB0FBLK6RLF7MSMKICTGYN1IU","url":"https://gershmanlab.com/experiments/alicia/teaching/experiment/?hitId=3IH9TRB0FBLK6RLF7MSMKICTGYN1IU&workerId=A2R75YFKVALBXE&assignmentId=3RKNTXVS3NKOESXU9IODQ1R0EV64A4&a=STKR3&tp_a=STKR3&b=3RKNTXVS3NKOESXU9IODQ1R0EV64A4&tp_b=3RKNTXVS3NKOESXU9IODQ1R0EV64A4&c=365633&tp_c=365633","heads":8,"tails":2,"studentIndex":1,"studentTrueHypers":{"a":8,"b":2},"studentGuess":0.8,"delta":0,"totalExamples":10,"bonusSoFar":0.3},{"rt":15754,"response":{"heads":"8","tails":"2"},"type":"response","condition":"seqFeedback","trueTheta":0.8,"classrooms":["C","D"],"studentTrueClassroom":"D","exampleSet":"second","trial_type":"survey-html-form","trial_index":17,"time_elapsed":1073056,"internal_node_id":"0.0-16.0-0.0","params":{"nStudents":24,"maxFlips":25,"completionMinutes":45,"basePay":8,"maxBonus":9,"perTrialBonus":0.5,"perTrialBonusThreshold":0.05,"exampleCost":0.02},"classroomParams":{"A":{"a":1,"b":4},"B":{"a":4,"b":1},"C":{"a":2,"b":8},"D":{"a":8,"b":2}},"conditions":["nonSeqFull","nonSeqPartial","seqNoFeedback","seqFeedback"],"classroomPairings":[["A","B"],["C","D"]],"coinWeights":[0.2,0.5,0.8],"subjectId":"A2R75YFKVALBXE","assignmentId":"3RKNTXVS3NKOESXU9IODQ1R0EV64A4","hitId":"3IH9TRB0FBLK6RLF7MSMKICTGYN1IU","url":"https://gershmanlab.com/experiments/alicia/teaching/experiment/?hitId=3IH9TRB0FBLK6RLF7MSMKICTGYN1IU&workerId=A2R75YFKVALBXE&assignmentId=3RKNTXVS3NKOESXU9IODQ1R0EV64A4&a=STKR3&tp_a=STKR3&b=3RKNTXVS3NKOESXU9IODQ1R0EV64A4&tp_b=3RKNTXVS3NKOESXU9IODQ1R0EV64A4&c=365633&tp_c=365633","firstResponseHeads":8,"firstResponseTails":2,"secondResponseHeads":8,"secondResponseTails":2,"totalHeads":16,"totalTails":4,"studentIndex":1,"studentTrueHypers":{"a":8,"b":2},"studentGuess":0.8,"delta":0,"bonus":0.1,"bonusSoFar":0.4,"totalExamples":20},{"rt":5733,"response":{"heads":"1","tails":"1"},"type":"response","condition":"nonSeqFull","trueTheta":0.5,"classrooms":["C","D"],"studentTrueClassroom":"D","exampleSet":"first","trial_type":"survey-html-form","trial_index":23,"time_elapsed":1125682,"internal_node_id":"0.0-22.0-0.0","params":{"nStudents":24,"maxFlips":25,"completionMinutes":45,"basePay":8,"maxBonus":9,"perTrialBonus":0.5,"perTrialBonusThreshold":0.05,"exampleCost":0.02},"classroomParams":{"A":{"a":1,"b":4},"B":{"a":4,"b":1},"C":{"a":2,"b":8},"D":{"a":8,"b":2}},"conditions":["nonSeqFull","nonSeqPartial","seqNoFeedback","seqFeedback"],"classroomPairings":[["A","B"],["C","D"]],"coinWeights":[0.2,0.5,0.8],"subjectId":"A2R75YFKVALBXE","assignmentId":"3RKNTXVS3NKOESXU9IODQ1R0EV64A4","hitId":"3IH9TRB0FBLK6RLF7MSMKICTGYN1IU","url":"https://gershmanlab.com/experiments/alicia/teaching/experiment/?hitId=3IH9TRB0FBLK6RLF7MSMKICTGYN1IU&workerId=A2R75YFKVALBXE&assignmentId=3RKNTXVS3NKOESXU9IODQ1R0EV64A4&a=STKR3&tp_a=STKR3&b=3RKNTXVS3NKOESXU9IODQ1R0EV64A4&tp_b=3RKNTXVS3NKOESXU9IODQ1R0EV64A4&c=365633&tp_c=365633","heads":1,"tails":1,"studentIndex":2,"studentTrueHypers":{"a":8,"b":2},"studentGuess":0.75,"delta":0.25,"totalExamples":2,"bonus":0,"bonusSoFar":0.4},{"rt":24629,"response":{"heads":"1","tails":"4"},"type":"response","condition":"seqNoFeedback","trueTheta":0.2,"classrooms":["A","B"],"studentTrueClassroom":"B","exampleSet":"first","trial_type":"survey-html-form","trial_index":29,"time_elapsed":1186240,"internal_node_id":"0.0-28.0-0.0","params":{"nStudents":24,"maxFlips":25,"completionMinutes":45,"basePay":8,"maxBonus":9,"perTrialBonus":0.5,"perTrialBonusThreshold":0.05,"exampleCost":0.02},"classroomParams":{"A":{"a":1,"b":4},"B":{"a":4,"b":1},"C":{"a":2,"b":8},"D":{"a":8,"b":2}},"conditions":["nonSeqFull","nonSeqPartial","seqNoFeedback","seqFeedback"],"classroomPairings":[["A","B"],["C","D"]],"coinWeights":[0.2,0.5,0.8],"subjectId":"A2R75YFKVALBXE","assignmentId":"3RKNTXVS3NKOESXU9IODQ1R0EV64A4","hitId":"3IH9TRB0FBLK6RLF7MSMKICTGYN1IU","url":"https://gershmanlab.com/experiments/alicia/teaching/experiment/?hitId=3IH9TRB0FBLK6RLF7MSMKICTGYN1IU&workerId=A2R75YFKVALBXE&assignmentId=3RKNTXVS3NKOESXU9IODQ1R0EV64A4&a=STKR3&tp_a=STKR3&b=3RKNTXVS3NKOESXU9IODQ1R0EV64A4&tp_b=3RKNTXVS3NKOESXU9IODQ1R0EV64A4&c=365633&tp_c=365633","heads":1,"tails":4,"studentIndex":3,"studentTrueHypers":{"a":4,"b":1},"studentGuess":0.5,"delta":0.3,"totalExamples":5,"bonusSoFar":0.4},{"rt":21973,"response":{"heads":"1","tails":"4"},"type":"response","condition":"seqNoFeedback","trueTheta":0.2,"classrooms":["A","B"],"studentTrueClassroom":"B","exampleSet":"second","trial_type":"survey-html-form","trial_index":32,"time_elapsed":1214467,"internal_node_id":"0.0-31.0-0.0","params":{"nStudents":24,"maxFlips":25,"completionMinutes":45,"basePay":8,"maxBonus":9,"perTrialBonus":0.5,"perTrialBonusThreshold":0.05,"exampleCost":0.02},"classroomParams":{"A":{"a":1,"b":4},"B":{"a":4,"b":1},"C":{"a":2,"b":8},"D":{"a":8,"b":2}},"conditions":["nonSeqFull","nonSeqPartial","seqNoFeedback","seqFeedback"],"classroomPairings":[["A","B"],["C","D"]],"coinWeights":[0.2,0.5,0.8],"subjectId":"A2R75YFKVALBXE","assignmentId":"3RKNTXVS3NKOESXU9IODQ1R0EV64A4","hitId":"3IH9TRB0FBLK6RLF7MSMKICTGYN1IU","url":"https://gershmanlab.com/experiments/alicia/teaching/experiment/?hitId=3IH9TRB0FBLK6RLF7MSMKICTGYN1IU&workerId=A2R75YFKVALBXE&assignmentId=3RKNTXVS3NKOESXU9IODQ1R0EV64A4&a=STKR3&tp_a=STKR3&b=3RKNTXVS3NKOESXU9IODQ1R0EV64A4&tp_b=3RKNTXVS3NKOESXU9IODQ1R0EV64A4&c=365633&tp_c=365633","firstResponseHeads":1,"firstResponseTails":4,"secondResponseHeads":1,"secondResponseTails":4,"totalHeads":2,"totalTails":8,"studentIndex":3,"studentTrueHypers":{"a":4,"b":1},"studentGuess":0.4,"delta":0.2,"bonus":0,"bonusSoFar":0.4,"totalExamples":10},{"rt":26772,"response":{"heads":"4","tails":"1"},"type":"response","condition":"seqFeedback","trueTheta":0.8,"classrooms":["A","B"],"studentTrueClassroom":"A","exampleSet":"first","trial_type":"survey-html-form","trial_index":38,"time_elapsed":1286382,"internal_node_id":"0.0-37.0-0.0","params":{"nStudents":24,"maxFlips":25,"completionMinutes":45,"basePay":8,"maxBonus":9,"perTrialBonus":0.5,"perTrialBonusThreshold":0.05,"exampleCost":0.02},"classroomParams":{"A":{"a":1,"b":4},"B":{"a":4,"b":1},"C":{"a":2,"b":8},"D":{"a":8,"b":2}},"conditions":["nonSeqFull","nonSeqPartial","seqNoFeedback","seqFeedback"],"classroomPairings":[["A","B"],["C","D"]],"coinWeights":[0.2,0.5,0.8],"subjectId":"A2R75YFKVALBXE","assignmentId":"3RKNTXVS3NKOESXU9IODQ1R0EV64A4","hitId":"3IH9TRB0FBLK6RLF7MSMKICTGYN1IU","url":"https://gershmanlab.com/experiments/alicia/teaching/experiment/?hitId=3IH9TRB0FBLK6RLF7MSMKICTGYN1IU&workerId=A2R75YFKVALBXE&assignmentId=3RKNTXVS3NKOESXU9IODQ1R0EV64A4&a=STKR3&tp_a=STKR3&b=3RKNTXVS3NKOESXU9IODQ1R0EV64A4&tp_b=3RKNTXVS3NKOESXU9IODQ1R0EV64A4&c=365633&tp_c=365633","heads":4,"tails":1,"studentIndex":4,"studentTrueHypers":{"a":1,"b":4},"studentGuess":0.5,"delta":0.30000000000000004,"totalExamples":5,"bonusSoFar":0.4},{"rt":119690,"response":{"heads":"2","tails":"8"},"type":"response","condition":"seqFeedback","trueTheta":0.8,"classrooms":["A","B"],"studentTrueClassroom":"A","exampleSet":"second","trial_type":"survey-html-form","trial_index":42,"time_elapsed":1424421,"internal_node_id":"0.0-41.0-0.0","params":{"nStudents":24,"maxFlips":25,"completionMinutes":45,"basePay":8,"maxBonus":9,"perTrialBonus":0.5,"perTrialBonusThreshold":0.05,"exampleCost":0.02},"classroomParams":{"A":{"a":1,"b":4},"B":{"a":4,"b":1},"C":{"a":2,"b":8},"D":{"a":8,"b":2}},"conditions":["nonSeqFull","nonSeqPartial","seqNoFeedback","seqFeedback"],"classroomPairings":[["A","B"],["C","D"]],"coinWeights":[0.2,0.5,0.8],"subjectId":"A2R75YFKVALBXE","assignmentId":"3RKNTXVS3NKOESXU9IODQ1R0EV64A4","hitId":"3IH9TRB0FBLK6RLF7MSMKICTGYN1IU","url":"https://gershmanlab.com/experiments/alicia/teaching/experiment/?hitId=3IH9TRB0FBLK6RLF7MSMKICTGYN1IU&workerId=A2R75YFKVALBXE&assignmentId=3RKNTXVS3NKOESXU9IODQ1R0EV64A4&a=STKR3&tp_a=STKR3&b=3RKNTXVS3NKOESXU9IODQ1R0EV64A4&tp_b=3RKNTXVS3NKOESXU9IODQ1R0EV64A4&c=365633&tp_c=365633","firstResponseHeads":4,"firstResponseTails":1,"secondResponseHeads":2,"secondResponseTails":8,"totalHeads":6,"totalTails":9,"studentIndex":4,"studentTrueHypers":{"a":1,"b":4},"studentGuess":0.35,"delta":0.45000000000000007,"bonus":0,"bonusSoFar":0.4,"totalExamples":15},{"rt":38741,"response":{"heads":"1","tails":"4"},"type":"response","condition":"nonSeqFull","trueTheta":0.5,"classrooms":["A","B"],"studentTrueClassroom":"B","exampleSet":"first","trial_type":"survey-html-form","trial_index":48,"time_elapsed":1484830,"internal_node_id":"0.0-47.0-0.0","params":{"nStudents":24,"maxFlips":25,"completionMinutes":45,"basePay":8,"maxBonus":9,"perTrialBonus":0.5,"perTrialBonusThreshold":0.05,"exampleCost":0.02},"classroomParams":{"A":{"a":1,"b":4},"B":{"a":4,"b":1},"C":{"a":2,"b":8},"D":{"a":8,"b":2}},"conditions":["nonSeqFull","nonSeqPartial","seqNoFeedback","seqFeedback"],"classroomPairings":[["A","B"],["C","D"]],"coinWeights":[0.2,0.5,0.8],"subjectId":"A2R75YFKVALBXE","assignmentId":"3RKNTXVS3NKOESXU9IODQ1R0EV64A4","hitId":"3IH9TRB0FBLK6RLF7MSMKICTGYN1IU","url":"https://gershmanlab.com/experiments/alicia/teaching/experiment/?hitId=3IH9TRB0FBLK6RLF7MSMKICTGYN1IU&workerId=A2R75YFKVALBXE&assignmentId=3RKNTXVS3NKOESXU9IODQ1R0EV64A4&a=STKR3&tp_a=STKR3&b=3RKNTXVS3NKOESXU9IODQ1R0EV64A4&tp_b=3RKNTXVS3NKOESXU9IODQ1R0EV64A4&c=365633&tp_c=365633","heads":1,"tails":4,"studentIndex":5,"studentTrueHypers":{"a":4,"b":1},"studentGuess":0.5,"delta":0,"totalExamples":5,"bonus":0.4,"bonusSoFar":0.8},{"rt":51342,"response":{"heads":"1","tails":"1"},"type":"response","condition":"seqNoFeedback","trueTheta":0.5,"classrooms":["C","D"],"studentTrueClassroom":"C","exampleSet":"first","trial_type":"survey-html-form","trial_index":54,"time_elapsed":1557004,"internal_node_id":"0.0-53.0-0.0","params":{"nStudents":24,"maxFlips":25,"completionMinutes":45,"basePay":8,"maxBonus":9,"perTrialBonus":0.5,"perTrialBonusThreshold":0.05,"exampleCost":0.02},"classroomParams":{"A":{"a":1,"b":4},"B":{"a":4,"b":1},"C":{"a":2,"b":8},"D":{"a":8,"b":2}},"conditions":["nonSeqFull","nonSeqPartial","seqNoFeedback","seqFeedback"],"classroomPairings":[["A","B"],["C","D"]],"coinWeights":[0.2,0.5,0.8],"subjectId":"A2R75YFKVALBXE","assignmentId":"3RKNTXVS3NKOESXU9IODQ1R0EV64A4","hitId":"3IH9TRB0FBLK6RLF7MSMKICTGYN1IU","url":"https://gershmanlab.com/experiments/alicia/teaching/experiment/?hitId=3IH9TRB0FBLK6RLF7MSMKICTGYN1IU&workerId=A2R75YFKVALBXE&assignmentId=3RKNTXVS3NKOESXU9IODQ1R0EV64A4&a=STKR3&tp_a=STKR3&b=3RKNTXVS3NKOESXU9IODQ1R0EV64A4&tp_b=3RKNTXVS3NKOESXU9IODQ1R0EV64A4&c=365633&tp_c=365633","heads":1,"tails":1,"studentIndex":6,"studentTrueHypers":{"a":2,"b":8},"studentGuess":0.25,"delta":0.25,"totalExamples":2,"bonusSoFar":0.8},{"rt":13490,"response":{"heads":"1","tails":"1"},"type":"response","condition":"seqNoFeedback","trueTheta":0.5,"classrooms":["C","D"],"studentTrueClassroom":"C","exampleSet":"second","trial_type":"survey-html-form","trial_index":57,"time_elapsed":1576753,"internal_node_id":"0.0-56.0-0.0","params":{"nStudents":24,"maxFlips":25,"completionMinutes":45,"basePay":8,"maxBonus":9,"perTrialBonus":0.5,"perTrialBonusThreshold":0.05,"exampleCost":0.02},"classroomParams":{"A":{"a":1,"b":4},"B":{"a":4,"b":1},"C":{"a":2,"b":8},"D":{"a":8,"b":2}},"conditions":["nonSeqFull","nonSeqPartial","seqNoFeedback","seqFeedback"],"classroomPairings":[["A","B"],["C","D"]],"coinWeights":[0.2,0.5,0.8],"subjectId":"A2R75YFKVALBXE","assignmentId":"3RKNTXVS3NKOESXU9IODQ1R0EV64A4","hitId":"3IH9TRB0FBLK6RLF7MSMKICTGYN1IU","url":"https://gershmanlab.com/experiments/alicia/teaching/experiment/?hitId=3IH9TRB0FBLK6RLF7MSMKICTGYN1IU&workerId=A2R75YFKVALBXE&assignmentId=3RKNTXVS3NKOESXU9IODQ1R0EV64A4&a=STKR3&tp_a=STKR3&b=3RKNTXVS3NKOESXU9IODQ1R0EV64A4&tp_b=3RKNTXVS3NKOESXU9IODQ1R0EV64A4&c=365633&tp_c=365633","firstResponseHeads":1,"firstResponseTails":1,"secondResponseHeads":1,"secondResponseTails":1,"totalHeads":2,"totalTails":2,"studentIndex":6,"studentTrueHypers":{"a":2,"b":8},"studentGuess":0.2857142857142857,"delta":0.2142857142857143,"bonus":0,"bonusSoFar":0.8,"totalExamples":4},{"rt":283195,"response":{"heads":"4","tails":"16"},"type":"response","condition":"seqNoFeedback","trueTheta":0.2,"classrooms":["C","D"],"studentTrueClassroom":"C","exampleSet":"first","trial_type":"survey-html-form","trial_index":63,"time_elapsed":1883255,"internal_node_id":"0.0-62.0-0.0","params":{"nStudents":24,"maxFlips":25,"completionMinutes":45,"basePay":8,"maxBonus":9,"perTrialBonus":0.5,"perTrialBonusThreshold":0.05,"exampleCost":0.02},"classroomParams":{"A":{"a":1,"b":4},"B":{"a":4,"b":1},"C":{"a":2,"b":8},"D":{"a":8,"b":2}},"conditions":["nonSeqFull","nonSeqPartial","seqNoFeedback","seqFeedback"],"classroomPairings":[["A","B"],["C","D"]],"coinWeights":[0.2,0.5,0.8],"subjectId":"A2R75YFKVALBXE","assignmentId":"3RKNTXVS3NKOESXU9IODQ1R0EV64A4","hitId":"3IH9TRB0FBLK6RLF7MSMKICTGYN1IU","url":"https://gershmanlab.com/experiments/alicia/teaching/experiment/?hitId=3IH9TRB0FBLK6RLF7MSMKICTGYN1IU&workerId=A2R75YFKVALBXE&assignmentId=3RKNTXVS3NKOESXU9IODQ1R0EV64A4&a=STKR3&tp_a=STKR3&b=3RKNTXVS3NKOESXU9IODQ1R0EV64A4&tp_b=3RKNTXVS3NKOESXU9IODQ1R0EV64A4&c=365633&tp_c=365633","heads":4,"tails":16,"studentIndex":7,"studentTrueHypers":{"a":2,"b":8},"studentGuess":0.2,"delta":0,"totalExamples":20,"bonusSoFar":0.8},{"rt":12810,"response":{"heads":"4","tails":"16"},"type":"response","condition":"seqNoFeedback","trueTheta":0.2,"classrooms":["C","D"],"studentTrueClassroom":"C","exampleSet":"second","trial_type":"survey-html-form","trial_index":66,"time_elapsed":1903826,"internal_node_id":"0.0-65.0-0.0","params":{"nStudents":24,"maxFlips":25,"completionMinutes":45,"basePay":8,"maxBonus":9,"perTrialBonus":0.5,"perTrialBonusThreshold":0.05,"exampleCost":0.02},"classroomParams":{"A":{"a":1,"b":4},"B":{"a":4,"b":1},"C":{"a":2,"b":8},"D":{"a":8,"b":2}},"conditions":["nonSeqFull","nonSeqPartial","seqNoFeedback","seqFeedback"],"classroomPairings":[["A","B"],["C","D"]],"coinWeights":[0.2,0.5,0.8],"subjectId":"A2R75YFKVALBXE","assignmentId":"3RKNTXVS3NKOESXU9IODQ1R0EV64A4","hitId":"3IH9TRB0FBLK6RLF7MSMKICTGYN1IU","url":"https://gershmanlab.com/experiments/alicia/teaching/experiment/?hitId=3IH9TRB0FBLK6RLF7MSMKICTGYN1IU&workerId=A2R75YFKVALBXE&assignmentId=3RKNTXVS3NKOESXU9IODQ1R0EV64A4&a=STKR3&tp_a=STKR3&b=3RKNTXVS3NKOESXU9IODQ1R0EV64A4&tp_b=3RKNTXVS3NKOESXU9IODQ1R0EV64A4&c=365633&tp_c=365633","firstResponseHeads":4,"firstResponseTails":16,"secondResponseHeads":4,"secondResponseTails":16,"totalHeads":8,"totalTails":32,"studentIndex":7,"studentTrueHypers":{"a":2,"b":8},"studentGuess":0.2,"delta":0,"bonus":0,"bonusSoFar":0.8,"totalExamples":40},{"rt":36212,"response":{"heads":"1","tails":"1"},"type":"response","condition":"nonSeqFull","trueTheta":0.2,"classrooms":["A","B"],"studentTrueClassroom":"A","exampleSet":"first","trial_type":"survey-html-form","trial_index":72,"time_elapsed":1966601,"internal_node_id":"0.0-71.0-0.0","params":{"nStudents":24,"maxFlips":25,"completionMinutes":45,"basePay":8,"maxBonus":9,"perTrialBonus":0.5,"perTrialBonusThreshold":0.05,"exampleCost":0.02},"classroomParams":{"A":{"a":1,"b":4},"B":{"a":4,"b":1},"C":{"a":2,"b":8},"D":{"a":8,"b":2}},"conditions":["nonSeqFull","nonSeqPartial","seqNoFeedback","seqFeedback"],"classroomPairings":[["A","B"],["C","D"]],"coinWeights":[0.2,0.5,0.8],"subjectId":"A2R75YFKVALBXE","assignmentId":"3RKNTXVS3NKOESXU9IODQ1R0EV64A4","hitId":"3IH9TRB0FBLK6RLF7MSMKICTGYN1IU","url":"https://gershmanlab.com/experiments/alicia/teaching/experiment/?hitId=3IH9TRB0FBLK6RLF7MSMKICTGYN1IU&workerId=A2R75YFKVALBXE&assignmentId=3RKNTXVS3NKOESXU9IODQ1R0EV64A4&a=STKR3&tp_a=STKR3&b=3RKNTXVS3NKOESXU9IODQ1R0EV64A4&tp_b=3RKNTXVS3NKOESXU9IODQ1R0EV64A4&c=365633&tp_c=365633","heads":1,"tails":1,"studentIndex":8,"studentTrueHypers":{"a":1,"b":4},"studentGuess":0.2857142857142857,"delta":0.08571428571428569,"totalExamples":2,"bonus":0,"bonusSoFar":0.8},{"rt":57186,"response":{"heads":"1","tails":"4"},"type":"response","condition":"nonSeqFull","trueTheta":0.2,"classrooms":["C","D"],"studentTrueClassroom":"D","exampleSet":"first","trial_type":"survey-html-form","trial_index":78,"time_elapsed":2053356,"internal_node_id":"0.0-77.0-0.0","params":{"nStudents":24,"maxFlips":25,"completionMinutes":45,"basePay":8,"maxBonus":9,"perTrialBonus":0.5,"perTrialBonusThreshold":0.05,"exampleCost":0.02},"classroomParams":{"A":{"a":1,"b":4},"B":{"a":4,"b":1},"C":{"a":2,"b":8},"D":{"a":8,"b":2}},"conditions":["nonSeqFull","nonSeqPartial","seqNoFeedback","seqFeedback"],"classroomPairings":[["A","B"],["C","D"]],"coinWeights":[0.2,0.5,0.8],"subjectId":"A2R75YFKVALBXE","assignmentId":"3RKNTXVS3NKOESXU9IODQ1R0EV64A4","hitId":"3IH9TRB0FBLK6RLF7MSMKICTGYN1IU","url":"https://gershmanlab.com/experiments/alicia/teaching/experiment/?hitId=3IH9TRB0FBLK6RLF7MSMKICTGYN1IU&workerId=A2R75YFKVALBXE&assignmentId=3RKNTXVS3NKOESXU9IODQ1R0EV64A4&a=STKR3&tp_a=STKR3&b=3RKNTXVS3NKOESXU9IODQ1R0EV64A4&tp_b=3RKNTXVS3NKOESXU9IODQ1R0EV64A4&c=365633&tp_c=365633","heads":1,"tails":4,"studentIndex":9,"studentTrueHypers":{"a":8,"b":2},"studentGuess":0.6,"delta":0.39999999999999997,"totalExamples":5,"bonus":0,"bonusSoFar":0.8},{"rt":53602,"response":{"heads":"16","tails":"4"},"type":"response","condition":"nonSeqPartial","trueTheta":0.8,"classrooms":["C","D"],"studentTrueClassroom":"D","exampleSet":"first","trial_type":"survey-html-form","trial_index":84,"time_elapsed":2133828,"internal_node_id":"0.0-83.0-0.0","params":{"nStudents":24,"maxFlips":25,"completionMinutes":45,"basePay":8,"maxBonus":9,"perTrialBonus":0.5,"perTrialBonusThreshold":0.05,"exampleCost":0.02},"classroomParams":{"A":{"a":1,"b":4},"B":{"a":4,"b":1},"C":{"a":2,"b":8},"D":{"a":8,"b":2}},"conditions":["nonSeqFull","nonSeqPartial","seqNoFeedback","seqFeedback"],"classroomPairings":[["A","B"],["C","D"]],"coinWeights":[0.2,0.5,0.8],"subjectId":"A2R75YFKVALBXE","assignmentId":"3RKNTXVS3NKOESXU9IODQ1R0EV64A4","hitId":"3IH9TRB0FBLK6RLF7MSMKICTGYN1IU","url":"https://gershmanlab.com/experiments/alicia/teaching/experiment/?hitId=3IH9TRB0FBLK6RLF7MSMKICTGYN1IU&workerId=A2R75YFKVALBXE&assignmentId=3RKNTXVS3NKOESXU9IODQ1R0EV64A4&a=STKR3&tp_a=STKR3&b=3RKNTXVS3NKOESXU9IODQ1R0EV64A4&tp_b=3RKNTXVS3NKOESXU9IODQ1R0EV64A4&c=365633&tp_c=365633","heads":16,"tails":4,"studentIndex":10,"studentTrueHypers":{"a":8,"b":2},"studentGuess":0.8,"delta":0,"totalExamples":20,"bonus":0.1,"bonusSoFar":0.9},{"rt":27752,"response":{"heads":"5","tails":"5"},"type":"response","condition":"nonSeqPartial","trueTheta":0.5,"classrooms":["A","B"],"studentTrueClassroom":"A","exampleSet":"first","trial_type":"survey-html-form","trial_index":90,"time_elapsed":2292325,"internal_node_id":"0.0-89.0-0.0","params":{"nStudents":24,"maxFlips":25,"completionMinutes":45,"basePay":8,"maxBonus":9,"perTrialBonus":0.5,"perTrialBonusThreshold":0.05,"exampleCost":0.02},"classroomParams":{"A":{"a":1,"b":4},"B":{"a":4,"b":1},"C":{"a":2,"b":8},"D":{"a":8,"b":2}},"conditions":["nonSeqFull","nonSeqPartial","seqNoFeedback","seqFeedback"],"classroomPairings":[["A","B"],["C","D"]],"coinWeights":[0.2,0.5,0.8],"subjectId":"A2R75YFKVALBXE","assignmentId":"3RKNTXVS3NKOESXU9IODQ1R0EV64A4","hitId":"3IH9TRB0FBLK6RLF7MSMKICTGYN1IU","url":"https://gershmanlab.com/experiments/alicia/teaching/experiment/?hitId=3IH9TRB0FBLK6RLF7MSMKICTGYN1IU&workerId=A2R75YFKVALBXE&assignmentId=3RKNTXVS3NKOESXU9IODQ1R0EV64A4&a=STKR3&tp_a=STKR3&b=3RKNTXVS3NKOESXU9IODQ1R0EV64A4&tp_b=3RKNTXVS3NKOESXU9IODQ1R0EV64A4&c=365633&tp_c=365633","heads":5,"tails":5,"studentIndex":11,"studentTrueHypers":{"a":1,"b":4},"studentGuess":0.4,"delta":0.09999999999999998,"totalExamples":10,"bonus":0,"bonusSoFar":0.9},{"rt":37714,"response":{"heads":"4","tails":"16"},"type":"response","condition":"nonSeqPartial","trueTheta":0.2,"classrooms":["A","B"],"studentTrueClassroom":"A","exampleSet":"first","trial_type":"survey-html-form","trial_index":96,"time_elapsed":2349397,"internal_node_id":"0.0-95.0-0.0","params":{"nStudents":24,"maxFlips":25,"completionMinutes":45,"basePay":8,"maxBonus":9,"perTrialBonus":0.5,"perTrialBonusThreshold":0.05,"exampleCost":0.02},"classroomParams":{"A":{"a":1,"b":4},"B":{"a":4,"b":1},"C":{"a":2,"b":8},"D":{"a":8,"b":2}},"conditions":["nonSeqFull","nonSeqPartial","seqNoFeedback","seqFeedback"],"classroomPairings":[["A","B"],["C","D"]],"coinWeights":[0.2,0.5,0.8],"subjectId":"A2R75YFKVALBXE","assignmentId":"3RKNTXVS3NKOESXU9IODQ1R0EV64A4","hitId":"3IH9TRB0FBLK6RLF7MSMKICTGYN1IU","url":"https://gershmanlab.com/experiments/alicia/teaching/experiment/?hitId=3IH9TRB0FBLK6RLF7MSMKICTGYN1IU&workerId=A2R75YFKVALBXE&assignmentId=3RKNTXVS3NKOESXU9IODQ1R0EV64A4&a=STKR3&tp_a=STKR3&b=3RKNTXVS3NKOESXU9IODQ1R0EV64A4&tp_b=3RKNTXVS3NKOESXU9IODQ1R0EV64A4&c=365633&tp_c=365633","heads":4,"tails":16,"studentIndex":12,"studentTrueHypers":{"a":1,"b":4},"studentGuess":0.2,"delta":0,"totalExamples":20,"bonus":0.1,"bonusSoFar":1},{"rt":51854,"response":{"heads":"16","tails":"4"},"type":"response","condition":"seqNoFeedback","trueTheta":0.8,"classrooms":["C","D"],"studentTrueClassroom":"D","exampleSet":"first","trial_type":"survey-html-form","trial_index":102,"time_elapsed":2474632,"internal_node_id":"0.0-101.0-0.0","params":{"nStudents":24,"maxFlips":25,"completionMinutes":45,"basePay":8,"maxBonus":9,"perTrialBonus":0.5,"perTrialBonusThreshold":0.05,"exampleCost":0.02},"classroomParams":{"A":{"a":1,"b":4},"B":{"a":4,"b":1},"C":{"a":2,"b":8},"D":{"a":8,"b":2}},"conditions":["nonSeqFull","nonSeqPartial","seqNoFeedback","seqFeedback"],"classroomPairings":[["A","B"],["C","D"]],"coinWeights":[0.2,0.5,0.8],"subjectId":"A2R75YFKVALBXE","assignmentId":"3RKNTXVS3NKOESXU9IODQ1R0EV64A4","hitId":"3IH9TRB0FBLK6RLF7MSMKICTGYN1IU","url":"https://gershmanlab.com/experiments/alicia/teaching/experiment/?hitId=3IH9TRB0FBLK6RLF7MSMKICTGYN1IU&workerId=A2R75YFKVALBXE&assignmentId=3RKNTXVS3NKOESXU9IODQ1R0EV64A4&a=STKR3&tp_a=STKR3&b=3RKNTXVS3NKOESXU9IODQ1R0EV64A4&tp_b=3RKNTXVS3NKOESXU9IODQ1R0EV64A4&c=365633&tp_c=365633","heads":16,"tails":4,"studentIndex":13,"studentTrueHypers":{"a":8,"b":2},"studentGuess":0.8,"delta":0,"totalExamples":20,"bonusSoFar":1},{"rt":13270,"response":{"heads":"16","tails":"4"},"type":"response","condition":"seqNoFeedback","trueTheta":0.8,"classrooms":["C","D"],"studentTrueClassroom":"D","exampleSet":"second","trial_type":"survey-html-form","trial_index":105,"time_elapsed":2494664,"internal_node_id":"0.0-104.0-0.0","params":{"nStudents":24,"maxFlips":25,"completionMinutes":45,"basePay":8,"maxBonus":9,"perTrialBonus":0.5,"perTrialBonusThreshold":0.05,"exampleCost":0.02},"classroomParams":{"A":{"a":1,"b":4},"B":{"a":4,"b":1},"C":{"a":2,"b":8},"D":{"a":8,"b":2}},"conditions":["nonSeqFull","nonSeqPartial","seqNoFeedback","seqFeedback"],"classroomPairings":[["A","B"],["C","D"]],"coinWeights":[0.2,0.5,0.8],"subjectId":"A2R75YFKVALBXE","assignmentId":"3RKNTXVS3NKOESXU9IODQ1R0EV64A4","hitId":"3IH9TRB0FBLK6RLF7MSMKICTGYN1IU","url":"https://gershmanlab.com/experiments/alicia/teaching/experiment/?hitId=3IH9TRB0FBLK6RLF7MSMKICTGYN1IU&workerId=A2R75YFKVALBXE&assignmentId=3RKNTXVS3NKOESXU9IODQ1R0EV64A4&a=STKR3&tp_a=STKR3&b=3RKNTXVS3NKOESXU9IODQ1R0EV64A4&tp_b=3RKNTXVS3NKOESXU9IODQ1R0EV64A4&c=365633&tp_c=365633","firstResponseHeads":16,"firstResponseTails":4,"secondResponseHeads":16,"secondResponseTails":4,"totalHeads":32,"totalTails":8,"studentIndex":13,"studentTrueHypers":{"a":8,"b":2},"studentGuess":0.8,"delta":0,"bonus":0,"bonusSoFar":1,"totalExamples":40},{"rt":17197,"response":{"heads":"4","tails":"16"},"type":"response","condition":"seqFeedback","trueTheta":0.2,"classrooms":["C","D"],"studentTrueClassroom":"D","exampleSet":"first","trial_type":"survey-html-form","trial_index":111,"time_elapsed":2546985,"internal_node_id":"0.0-110.0-0.0","params":{"nStudents":24,"maxFlips":25,"completionMinutes":45,"basePay":8,"maxBonus":9,"perTrialBonus":0.5,"perTrialBonusThreshold":0.05,"exampleCost":0.02},"classroomParams":{"A":{"a":1,"b":4},"B":{"a":4,"b":1},"C":{"a":2,"b":8},"D":{"a":8,"b":2}},"conditions":["nonSeqFull","nonSeqPartial","seqNoFeedback","seqFeedback"],"classroomPairings":[["A","B"],["C","D"]],"coinWeights":[0.2,0.5,0.8],"subjectId":"A2R75YFKVALBXE","assignmentId":"3RKNTXVS3NKOESXU9IODQ1R0EV64A4","hitId":"3IH9TRB0FBLK6RLF7MSMKICTGYN1IU","url":"https://gershmanlab.com/experiments/alicia/teaching/experiment/?hitId=3IH9TRB0FBLK6RLF7MSMKICTGYN1IU&workerId=A2R75YFKVALBXE&assignmentId=3RKNTXVS3NKOESXU9IODQ1R0EV64A4&a=STKR3&tp_a=STKR3&b=3RKNTXVS3NKOESXU9IODQ1R0EV64A4&tp_b=3RKNTXVS3NKOESXU9IODQ1R0EV64A4&c=365633&tp_c=365633","heads":4,"tails":16,"studentIndex":14,"studentTrueHypers":{"a":8,"b":2},"studentGuess":0.4,"delta":0.2,"totalExamples":20,"bonusSoFar":1},{"rt":39522,"response":{"heads":"1","tails":"4"},"type":"response","condition":"seqFeedback","trueTheta":0.2,"classrooms":["C","D"],"studentTrueClassroom":"D","exampleSet":"second","trial_type":"survey-html-form","trial_index":115,"time_elapsed":2602571,"internal_node_id":"0.0-114.0-0.0","params":{"nStudents":24,"maxFlips":25,"completionMinutes":45,"basePay":8,"maxBonus":9,"perTrialBonus":0.5,"perTrialBonusThreshold":0.05,"exampleCost":0.02},"classroomParams":{"A":{"a":1,"b":4},"B":{"a":4,"b":1},"C":{"a":2,"b":8},"D":{"a":8,"b":2}},"conditions":["nonSeqFull","nonSeqPartial","seqNoFeedback","seqFeedback"],"classroomPairings":[["A","B"],["C","D"]],"coinWeights":[0.2,0.5,0.8],"subjectId":"A2R75YFKVALBXE","assignmentId":"3RKNTXVS3NKOESXU9IODQ1R0EV64A4","hitId":"3IH9TRB0FBLK6RLF7MSMKICTGYN1IU","url":"https://gershmanlab.com/experiments/alicia/teaching/experiment/?hitId=3IH9TRB0FBLK6RLF7MSMKICTGYN1IU&workerId=A2R75YFKVALBXE&assignmentId=3RKNTXVS3NKOESXU9IODQ1R0EV64A4&a=STKR3&tp_a=STKR3&b=3RKNTXVS3NKOESXU9IODQ1R0EV64A4&tp_b=3RKNTXVS3NKOESXU9IODQ1R0EV64A4&c=365633&tp_c=365633","firstResponseHeads":4,"firstResponseTails":16,"secondResponseHeads":1,"secondResponseTails":4,"totalHeads":5,"totalTails":20,"studentIndex":14,"studentTrueHypers":{"a":8,"b":2},"studentGuess":0.37142857142857144,"delta":0.17142857142857143,"bonus":0,"bonusSoFar":1,"totalExamples":25},{"rt":33169,"response":{"heads":"16","tails":"4"},"type":"response","condition":"nonSeqFull","trueTheta":0.8,"classrooms":["C","D"],"studentTrueClassroom":"D","exampleSet":"first","trial_type":"survey-html-form","trial_index":121,"time_elapsed":2654718,"internal_node_id":"0.0-120.0-0.0","params":{"nStudents":24,"maxFlips":25,"completionMinutes":45,"basePay":8,"maxBonus":9,"perTrialBonus":0.5,"perTrialBonusThreshold":0.05,"exampleCost":0.02},"classroomParams":{"A":{"a":1,"b":4},"B":{"a":4,"b":1},"C":{"a":2,"b":8},"D":{"a":8,"b":2}},"conditions":["nonSeqFull","nonSeqPartial","seqNoFeedback","seqFeedback"],"classroomPairings":[["A","B"],["C","D"]],"coinWeights":[0.2,0.5,0.8],"subjectId":"A2R75YFKVALBXE","assignmentId":"3RKNTXVS3NKOESXU9IODQ1R0EV64A4","hitId":"3IH9TRB0FBLK6RLF7MSMKICTGYN1IU","url":"https://gershmanlab.com/experiments/alicia/teaching/experiment/?hitId=3IH9TRB0FBLK6RLF7MSMKICTGYN1IU&workerId=A2R75YFKVALBXE&assignmentId=3RKNTXVS3NKOESXU9IODQ1R0EV64A4&a=STKR3&tp_a=STKR3&b=3RKNTXVS3NKOESXU9IODQ1R0EV64A4&tp_b=3RKNTXVS3NKOESXU9IODQ1R0EV64A4&c=365633&tp_c=365633","heads":16,"tails":4,"studentIndex":15,"studentTrueHypers":{"a":8,"b":2},"studentGuess":0.8,"delta":0,"totalExamples":20,"bonus":0.1,"bonusSoFar":1.1},{"rt":50401,"response":{"heads":"4","tails":"16"},"type":"response","condition":"nonSeqPartial","trueTheta":0.2,"classrooms":["C","D"],"studentTrueClassroom":"C","exampleSet":"first","trial_type":"survey-html-form","trial_index":127,"time_elapsed":2725355,"internal_node_id":"0.0-126.0-0.0","params":{"nStudents":24,"maxFlips":25,"completionMinutes":45,"basePay":8,"maxBonus":9,"perTrialBonus":0.5,"perTrialBonusThreshold":0.05,"exampleCost":0.02},"classroomParams":{"A":{"a":1,"b":4},"B":{"a":4,"b":1},"C":{"a":2,"b":8},"D":{"a":8,"b":2}},"conditions":["nonSeqFull","nonSeqPartial","seqNoFeedback","seqFeedback"],"classroomPairings":[["A","B"],["C","D"]],"coinWeights":[0.2,0.5,0.8],"subjectId":"A2R75YFKVALBXE","assignmentId":"3RKNTXVS3NKOESXU9IODQ1R0EV64A4","hitId":"3IH9TRB0FBLK6RLF7MSMKICTGYN1IU","url":"https://gershmanlab.com/experiments/alicia/teaching/experiment/?hitId=3IH9TRB0FBLK6RLF7MSMKICTGYN1IU&workerId=A2R75YFKVALBXE&assignmentId=3RKNTXVS3NKOESXU9IODQ1R0EV64A4&a=STKR3&tp_a=STKR3&b=3RKNTXVS3NKOESXU9IODQ1R0EV64A4&tp_b=3RKNTXVS3NKOESXU9IODQ1R0EV64A4&c=365633&tp_c=365633","heads":4,"tails":16,"studentIndex":16,"studentTrueHypers":{"a":2,"b":8},"studentGuess":0.2,"delta":0,"totalExamples":20,"bonus":0.1,"bonusSoFar":1.2},{"rt":28888,"response":{"heads":"5","tails":"5"},"type":"response","condition":"nonSeqPartial","trueTheta":0.5,"classrooms":["C","D"],"studentTrueClassroom":"D","exampleSet":"first","trial_type":"survey-html-form","trial_index":133,"time_elapsed":2772503,"internal_node_id":"0.0-132.0-0.0","params":{"nStudents":24,"maxFlips":25,"completionMinutes":45,"basePay":8,"maxBonus":9,"perTrialBonus":0.5,"perTrialBonusThreshold":0.05,"exampleCost":0.02},"classroomParams":{"A":{"a":1,"b":4},"B":{"a":4,"b":1},"C":{"a":2,"b":8},"D":{"a":8,"b":2}},"conditions":["nonSeqFull","nonSeqPartial","seqNoFeedback","seqFeedback"],"classroomPairings":[["A","B"],["C","D"]],"coinWeights":[0.2,0.5,0.8],"subjectId":"A2R75YFKVALBXE","assignmentId":"3RKNTXVS3NKOESXU9IODQ1R0EV64A4","hitId":"3IH9TRB0FBLK6RLF7MSMKICTGYN1IU","url":"https://gershmanlab.com/experiments/alicia/teaching/experiment/?hitId=3IH9TRB0FBLK6RLF7MSMKICTGYN1IU&workerId=A2R75YFKVALBXE&assignmentId=3RKNTXVS3NKOESXU9IODQ1R0EV64A4&a=STKR3&tp_a=STKR3&b=3RKNTXVS3NKOESXU9IODQ1R0EV64A4&tp_b=3RKNTXVS3NKOESXU9IODQ1R0EV64A4&c=365633&tp_c=365633","heads":5,"tails":5,"studentIndex":17,"studentTrueHypers":{"a":8,"b":2},"studentGuess":0.65,"delta":0.15000000000000002,"totalExamples":10,"bonus":0,"bonusSoFar":1.2},{"rt":53545,"response":{"heads":"8","tails":"2"},"type":"response","condition":"seqNoFeedback","trueTheta":0.8,"classrooms":["A","B"],"studentTrueClassroom":"B","exampleSet":"first","trial_type":"survey-html-form","trial_index":139,"time_elapsed":2844745,"internal_node_id":"0.0-138.0-0.0","params":{"nStudents":24,"maxFlips":25,"completionMinutes":45,"basePay":8,"maxBonus":9,"perTrialBonus":0.5,"perTrialBonusThreshold":0.05,"exampleCost":0.02},"classroomParams":{"A":{"a":1,"b":4},"B":{"a":4,"b":1},"C":{"a":2,"b":8},"D":{"a":8,"b":2}},"conditions":["nonSeqFull","nonSeqPartial","seqNoFeedback","seqFeedback"],"classroomPairings":[["A","B"],["C","D"]],"coinWeights":[0.2,0.5,0.8],"subjectId":"A2R75YFKVALBXE","assignmentId":"3RKNTXVS3NKOESXU9IODQ1R0EV64A4","hitId":"3IH9TRB0FBLK6RLF7MSMKICTGYN1IU","url":"https://gershmanlab.com/experiments/alicia/teaching/experiment/?hitId=3IH9TRB0FBLK6RLF7MSMKICTGYN1IU&workerId=A2R75YFKVALBXE&assignmentId=3RKNTXVS3NKOESXU9IODQ1R0EV64A4&a=STKR3&tp_a=STKR3&b=3RKNTXVS3NKOESXU9IODQ1R0EV64A4&tp_b=3RKNTXVS3NKOESXU9IODQ1R0EV64A4&c=365633&tp_c=365633","heads":8,"tails":2,"studentIndex":18,"studentTrueHypers":{"a":4,"b":1},"studentGuess":0.8,"delta":0,"totalExamples":10,"bonusSoFar":1.2},{"rt":34594,"response":{"heads":"12","tails":"3"},"type":"response","condition":"seqNoFeedback","trueTheta":0.8,"classrooms":["A","B"],"studentTrueClassroom":"B","exampleSet":"second","trial_type":"survey-html-form","trial_index":142,"time_elapsed":2886845,"internal_node_id":"0.0-141.0-0.0","params":{"nStudents":24,"maxFlips":25,"completionMinutes":45,"basePay":8,"maxBonus":9,"perTrialBonus":0.5,"perTrialBonusThreshold":0.05,"exampleCost":0.02},"classroomParams":{"A":{"a":1,"b":4},"B":{"a":4,"b":1},"C":{"a":2,"b":8},"D":{"a":8,"b":2}},"conditions":["nonSeqFull","nonSeqPartial","seqNoFeedback","seqFeedback"],"classroomPairings":[["A","B"],["C","D"]],"coinWeights":[0.2,0.5,0.8],"subjectId":"A2R75YFKVALBXE","assignmentId":"3RKNTXVS3NKOESXU9IODQ1R0EV64A4","hitId":"3IH9TRB0FBLK6RLF7MSMKICTGYN1IU","url":"https://gershmanlab.com/experiments/alicia/teaching/experiment/?hitId=3IH9TRB0FBLK6RLF7MSMKICTGYN1IU&workerId=A2R75YFKVALBXE&assignmentId=3RKNTXVS3NKOESXU9IODQ1R0EV64A4&a=STKR3&tp_a=STKR3&b=3RKNTXVS3NKOESXU9IODQ1R0EV64A4&tp_b=3RKNTXVS3NKOESXU9IODQ1R0EV64A4&c=365633&tp_c=365633","firstResponseHeads":8,"firstResponseTails":2,"secondResponseHeads":12,"secondResponseTails":3,"totalHeads":20,"totalTails":5,"studentIndex":18,"studentTrueHypers":{"a":4,"b":1},"studentGuess":0.8,"delta":0,"bonus":0,"bonusSoFar":1.2,"totalExamples":25},{"rt":10244,"response":{"heads":"5","tails":"5"},"type":"response","condition":"seqFeedback","trueTheta":0.5,"classrooms":["C","D"],"studentTrueClassroom":"D","exampleSet":"first","trial_type":"survey-html-form","trial_index":148,"time_elapsed":2986935,"internal_node_id":"0.0-147.0-0.0","params":{"nStudents":24,"maxFlips":25,"completionMinutes":45,"basePay":8,"maxBonus":9,"perTrialBonus":0.5,"perTrialBonusThreshold":0.05,"exampleCost":0.02},"classroomParams":{"A":{"a":1,"b":4},"B":{"a":4,"b":1},"C":{"a":2,"b":8},"D":{"a":8,"b":2}},"conditions":["nonSeqFull","nonSeqPartial","seqNoFeedback","seqFeedback"],"classroomPairings":[["A","B"],["C","D"]],"coinWeights":[0.2,0.5,0.8],"subjectId":"A2R75YFKVALBXE","assignmentId":"3RKNTXVS3NKOESXU9IODQ1R0EV64A4","hitId":"3IH9TRB0FBLK6RLF7MSMKICTGYN1IU","url":"https://gershmanlab.com/experiments/alicia/teaching/experiment/?hitId=3IH9TRB0FBLK6RLF7MSMKICTGYN1IU&workerId=A2R75YFKVALBXE&assignmentId=3RKNTXVS3NKOESXU9IODQ1R0EV64A4&a=STKR3&tp_a=STKR3&b=3RKNTXVS3NKOESXU9IODQ1R0EV64A4&tp_b=3RKNTXVS3NKOESXU9IODQ1R0EV64A4&c=365633&tp_c=365633","heads":5,"tails":5,"studentIndex":19,"studentTrueHypers":{"a":8,"b":2},"studentGuess":0.65,"delta":0.15000000000000002,"totalExamples":10,"bonusSoFar":1.2},{"rt":8641,"response":{"heads":"5","tails":"5"},"type":"response","condition":"seqFeedback","trueTheta":0.5,"classrooms":["C","D"],"studentTrueClassroom":"D","exampleSet":"second","trial_type":"survey-html-form","trial_index":152,"time_elapsed":3006032,"internal_node_id":"0.0-151.0-0.0","params":{"nStudents":24,"maxFlips":25,"completionMinutes":45,"basePay":8,"maxBonus":9,"perTrialBonus":0.5,"perTrialBonusThreshold":0.05,"exampleCost":0.02},"classroomParams":{"A":{"a":1,"b":4},"B":{"a":4,"b":1},"C":{"a":2,"b":8},"D":{"a":8,"b":2}},"conditions":["nonSeqFull","nonSeqPartial","seqNoFeedback","seqFeedback"],"classroomPairings":[["A","B"],["C","D"]],"coinWeights":[0.2,0.5,0.8],"subjectId":"A2R75YFKVALBXE","assignmentId":"3RKNTXVS3NKOESXU9IODQ1R0EV64A4","hitId":"3IH9TRB0FBLK6RLF7MSMKICTGYN1IU","url":"https://gershmanlab.com/experiments/alicia/teaching/experiment/?hitId=3IH9TRB0FBLK6RLF7MSMKICTGYN1IU&workerId=A2R75YFKVALBXE&assignmentId=3RKNTXVS3NKOESXU9IODQ1R0EV64A4&a=STKR3&tp_a=STKR3&b=3RKNTXVS3NKOESXU9IODQ1R0EV64A4&tp_b=3RKNTXVS3NKOESXU9IODQ1R0EV64A4&c=365633&tp_c=365633","firstResponseHeads":5,"firstResponseTails":5,"secondResponseHeads":5,"secondResponseTails":5,"totalHeads":10,"totalTails":10,"studentIndex":19,"studentTrueHypers":{"a":8,"b":2},"studentGuess":0.6,"delta":0.09999999999999998,"bonus":0,"bonusSoFar":1.2,"totalExamples":20},{"rt":50229,"response":{"heads":"16","tails":"2"},"type":"response","condition":"nonSeqFull","trueTheta":0.8,"classrooms":["A","B"],"studentTrueClassroom":"A","exampleSet":"first","trial_type":"survey-html-form","trial_index":158,"time_elapsed":3072911,"internal_node_id":"0.0-157.0-0.0","params":{"nStudents":24,"maxFlips":25,"completionMinutes":45,"basePay":8,"maxBonus":9,"perTrialBonus":0.5,"perTrialBonusThreshold":0.05,"exampleCost":0.02},"classroomParams":{"A":{"a":1,"b":4},"B":{"a":4,"b":1},"C":{"a":2,"b":8},"D":{"a":8,"b":2}},"conditions":["nonSeqFull","nonSeqPartial","seqNoFeedback","seqFeedback"],"classroomPairings":[["A","B"],["C","D"]],"coinWeights":[0.2,0.5,0.8],"subjectId":"A2R75YFKVALBXE","assignmentId":"3RKNTXVS3NKOESXU9IODQ1R0EV64A4","hitId":"3IH9TRB0FBLK6RLF7MSMKICTGYN1IU","url":"https://gershmanlab.com/experiments/alicia/teaching/experiment/?hitId=3IH9TRB0FBLK6RLF7MSMKICTGYN1IU&workerId=A2R75YFKVALBXE&assignmentId=3RKNTXVS3NKOESXU9IODQ1R0EV64A4&a=STKR3&tp_a=STKR3&b=3RKNTXVS3NKOESXU9IODQ1R0EV64A4&tp_b=3RKNTXVS3NKOESXU9IODQ1R0EV64A4&c=365633&tp_c=365633","heads":16,"tails":2,"studentIndex":20,"studentTrueHypers":{"a":1,"b":4},"studentGuess":0.7391304347826086,"delta":0.0608695652173914,"totalExamples":18,"bonus":0,"bonusSoFar":1.2},{"rt":65157,"response":{"heads":"4","tails":"16"},"type":"response","condition":"seqFeedback","trueTheta":0.2,"classrooms":["A","B"],"studentTrueClassroom":"A","exampleSet":"first","trial_type":"survey-html-form","trial_index":164,"time_elapsed":3159123,"internal_node_id":"0.0-163.0-0.0","params":{"nStudents":24,"maxFlips":25,"completionMinutes":45,"basePay":8,"maxBonus":9,"perTrialBonus":0.5,"perTrialBonusThreshold":0.05,"exampleCost":0.02},"classroomParams":{"A":{"a":1,"b":4},"B":{"a":4,"b":1},"C":{"a":2,"b":8},"D":{"a":8,"b":2}},"conditions":["nonSeqFull","nonSeqPartial","seqNoFeedback","seqFeedback"],"classroomPairings":[["A","B"],["C","D"]],"coinWeights":[0.2,0.5,0.8],"subjectId":"A2R75YFKVALBXE","assignmentId":"3RKNTXVS3NKOESXU9IODQ1R0EV64A4","hitId":"3IH9TRB0FBLK6RLF7MSMKICTGYN1IU","url":"https://gershmanlab.com/experiments/alicia/teaching/experiment/?hitId=3IH9TRB0FBLK6RLF7MSMKICTGYN1IU&workerId=A2R75YFKVALBXE&assignmentId=3RKNTXVS3NKOESXU9IODQ1R0EV64A4&a=STKR3&tp_a=STKR3&b=3RKNTXVS3NKOESXU9IODQ1R0EV64A4&tp_b=3RKNTXVS3NKOESXU9IODQ1R0EV64A4&c=365633&tp_c=365633","heads":4,"tails":16,"studentIndex":21,"studentTrueHypers":{"a":1,"b":4},"studentGuess":0.2,"delta":0,"totalExamples":20,"bonusSoFar":1.2},{"rt":12840,"response":{"heads":"1","tails":"4"},"type":"response","condition":"seqFeedback","trueTheta":0.2,"classrooms":["A","B"],"studentTrueClassroom":"A","exampleSet":"second","trial_type":"survey-html-form","trial_index":168,"time_elapsed":3185412,"internal_node_id":"0.0-167.0-0.0","params":{"nStudents":24,"maxFlips":25,"completionMinutes":45,"basePay":8,"maxBonus":9,"perTrialBonus":0.5,"perTrialBonusThreshold":0.05,"exampleCost":0.02},"classroomParams":{"A":{"a":1,"b":4},"B":{"a":4,"b":1},"C":{"a":2,"b":8},"D":{"a":8,"b":2}},"conditions":["nonSeqFull","nonSeqPartial","seqNoFeedback","seqFeedback"],"classroomPairings":[["A","B"],["C","D"]],"coinWeights":[0.2,0.5,0.8],"subjectId":"A2R75YFKVALBXE","assignmentId":"3RKNTXVS3NKOESXU9IODQ1R0EV64A4","hitId":"3IH9TRB0FBLK6RLF7MSMKICTGYN1IU","url":"https://gershmanlab.com/experiments/alicia/teaching/experiment/?hitId=3IH9TRB0FBLK6RLF7MSMKICTGYN1IU&workerId=A2R75YFKVALBXE&assignmentId=3RKNTXVS3NKOESXU9IODQ1R0EV64A4&a=STKR3&tp_a=STKR3&b=3RKNTXVS3NKOESXU9IODQ1R0EV64A4&tp_b=3RKNTXVS3NKOESXU9IODQ1R0EV64A4&c=365633&tp_c=365633","firstResponseHeads":4,"firstResponseTails":16,"secondResponseHeads":1,"secondResponseTails":4,"totalHeads":5,"totalTails":20,"studentIndex":21,"studentTrueHypers":{"a":1,"b":4},"studentGuess":0.2,"delta":0,"bonus":0,"bonusSoFar":1.2,"totalExamples":25},{"rt":8009,"response":{"heads":"5","tails":"5"},"type":"response","condition":"seqNoFeedback","trueTheta":0.5,"classrooms":["A","B"],"studentTrueClassroom":"B","exampleSet":"first","trial_type":"survey-html-form","trial_index":174,"time_elapsed":3217917,"internal_node_id":"0.0-173.0-0.0","params":{"nStudents":24,"maxFlips":25,"completionMinutes":45,"basePay":8,"maxBonus":9,"perTrialBonus":0.5,"perTrialBonusThreshold":0.05,"exampleCost":0.02},"classroomParams":{"A":{"a":1,"b":4},"B":{"a":4,"b":1},"C":{"a":2,"b":8},"D":{"a":8,"b":2}},"conditions":["nonSeqFull","nonSeqPartial","seqNoFeedback","seqFeedback"],"classroomPairings":[["A","B"],["C","D"]],"coinWeights":[0.2,0.5,0.8],"subjectId":"A2R75YFKVALBXE","assignmentId":"3RKNTXVS3NKOESXU9IODQ1R0EV64A4","hitId":"3IH9TRB0FBLK6RLF7MSMKICTGYN1IU","url":"https://gershmanlab.com/experiments/alicia/teaching/experiment/?hitId=3IH9TRB0FBLK6RLF7MSMKICTGYN1IU&workerId=A2R75YFKVALBXE&assignmentId=3RKNTXVS3NKOESXU9IODQ1R0EV64A4&a=STKR3&tp_a=STKR3&b=3RKNTXVS3NKOESXU9IODQ1R0EV64A4&tp_b=3RKNTXVS3NKOESXU9IODQ1R0EV64A4&c=365633&tp_c=365633","heads":5,"tails":5,"studentIndex":22,"studentTrueHypers":{"a":4,"b":1},"studentGuess":0.6,"delta":0.09999999999999998,"totalExamples":10,"bonusSoFar":1.2},{"rt":11403,"response":{"heads":"5","tails":"5"},"type":"response","condition":"seqNoFeedback","trueTheta":0.5,"classrooms":["A","B"],"studentTrueClassroom":"B","exampleSet":"second","trial_type":"survey-html-form","trial_index":177,"time_elapsed":3236324,"internal_node_id":"0.0-176.0-0.0","params":{"nStudents":24,"maxFlips":25,"completionMinutes":45,"basePay":8,"maxBonus":9,"perTrialBonus":0.5,"perTrialBonusThreshold":0.05,"exampleCost":0.02},"classroomParams":{"A":{"a":1,"b":4},"B":{"a":4,"b":1},"C":{"a":2,"b":8},"D":{"a":8,"b":2}},"conditions":["nonSeqFull","nonSeqPartial","seqNoFeedback","seqFeedback"],"classroomPairings":[["A","B"],["C","D"]],"coinWeights":[0.2,0.5,0.8],"subjectId":"A2R75YFKVALBXE","assignmentId":"3RKNTXVS3NKOESXU9IODQ1R0EV64A4","hitId":"3IH9TRB0FBLK6RLF7MSMKICTGYN1IU","url":"https://gershmanlab.com/experiments/alicia/teaching/experiment/?hitId=3IH9TRB0FBLK6RLF7MSMKICTGYN1IU&workerId=A2R75YFKVALBXE&assignmentId=3RKNTXVS3NKOESXU9IODQ1R0EV64A4&a=STKR3&tp_a=STKR3&b=3RKNTXVS3NKOESXU9IODQ1R0EV64A4&tp_b=3RKNTXVS3NKOESXU9IODQ1R0EV64A4&c=365633&tp_c=365633","firstResponseHeads":5,"firstResponseTails":5,"secondResponseHeads":5,"secondResponseTails":5,"totalHeads":10,"totalTails":10,"studentIndex":22,"studentTrueHypers":{"a":4,"b":1},"studentGuess":0.56,"delta":0.06000000000000005,"bonus":0,"bonusSoFar":1.2,"totalExamples":20},{"rt":13137,"response":{"heads":"1","tails":"1"},"type":"response","condition":"seqFeedback","trueTheta":0.5,"classrooms":["A","B"],"studentTrueClassroom":"A","exampleSet":"first","trial_type":"survey-html-form","trial_index":183,"time_elapsed":3268408,"internal_node_id":"0.0-182.0-0.0","params":{"nStudents":24,"maxFlips":25,"completionMinutes":45,"basePay":8,"maxBonus":9,"perTrialBonus":0.5,"perTrialBonusThreshold":0.05,"exampleCost":0.02},"classroomParams":{"A":{"a":1,"b":4},"B":{"a":4,"b":1},"C":{"a":2,"b":8},"D":{"a":8,"b":2}},"conditions":["nonSeqFull","nonSeqPartial","seqNoFeedback","seqFeedback"],"classroomPairings":[["A","B"],["C","D"]],"coinWeights":[0.2,0.5,0.8],"subjectId":"A2R75YFKVALBXE","assignmentId":"3RKNTXVS3NKOESXU9IODQ1R0EV64A4","hitId":"3IH9TRB0FBLK6RLF7MSMKICTGYN1IU","url":"https://gershmanlab.com/experiments/alicia/teaching/experiment/?hitId=3IH9TRB0FBLK6RLF7MSMKICTGYN1IU&workerId=A2R75YFKVALBXE&assignmentId=3RKNTXVS3NKOESXU9IODQ1R0EV64A4&a=STKR3&tp_a=STKR3&b=3RKNTXVS3NKOESXU9IODQ1R0EV64A4&tp_b=3RKNTXVS3NKOESXU9IODQ1R0EV64A4&c=365633&tp_c=365633","heads":1,"tails":1,"studentIndex":23,"studentTrueHypers":{"a":1,"b":4},"studentGuess":0.2857142857142857,"delta":0.2142857142857143,"totalExamples":2,"bonusSoFar":1.2},{"rt":7630,"response":{"heads":"2","tails":"2"},"type":"response","condition":"seqFeedback","trueTheta":0.5,"classrooms":["A","B"],"studentTrueClassroom":"A","exampleSet":"second","trial_type":"survey-html-form","trial_index":187,"time_elapsed":3290174,"internal_node_id":"0.0-186.0-0.0","params":{"nStudents":24,"maxFlips":25,"completionMinutes":45,"basePay":8,"maxBonus":9,"perTrialBonus":0.5,"perTrialBonusThreshold":0.05,"exampleCost":0.02},"classroomParams":{"A":{"a":1,"b":4},"B":{"a":4,"b":1},"C":{"a":2,"b":8},"D":{"a":8,"b":2}},"conditions":["nonSeqFull","nonSeqPartial","seqNoFeedback","seqFeedback"],"classroomPairings":[["A","B"],["C","D"]],"coinWeights":[0.2,0.5,0.8],"subjectId":"A2R75YFKVALBXE","assignmentId":"3RKNTXVS3NKOESXU9IODQ1R0EV64A4","hitId":"3IH9TRB0FBLK6RLF7MSMKICTGYN1IU","url":"https://gershmanlab.com/experiments/alicia/teaching/experiment/?hitId=3IH9TRB0FBLK6RLF7MSMKICTGYN1IU&workerId=A2R75YFKVALBXE&assignmentId=3RKNTXVS3NKOESXU9IODQ1R0EV64A4&a=STKR3&tp_a=STKR3&b=3RKNTXVS3NKOESXU9IODQ1R0EV64A4&tp_b=3RKNTXVS3NKOESXU9IODQ1R0EV64A4&c=365633&tp_c=365633","firstResponseHeads":1,"firstResponseTails":1,"secondResponseHeads":2,"secondResponseTails":2,"totalHeads":3,"totalTails":3,"studentIndex":23,"studentTrueHypers":{"a":1,"b":4},"studentGuess":0.36363636363636365,"delta":0.13636363636363635,"bonus":0,"bonusSoFar":1.2,"totalExamples":6},{"rt":118567,"response":{"gender":"male","age":"72","understood":"yes","comments":"None, thanks!"},"type":"response","trial_type":"survey-html-form","trial_index":191,"time_elapsed":3420279,"internal_node_id":"0.0-191.0","params":{"nStudents":24,"maxFlips":25,"completionMinutes":45,"basePay":8,"maxBonus":9,"perTrialBonus":0.5,"perTrialBonusThreshold":0.05,"exampleCost":0.02},"classroomParams":{"A":{"a":1,"b":4},"B":{"a":4,"b":1},"C":{"a":2,"b":8},"D":{"a":8,"b":2}},"conditions":["nonSeqFull","nonSeqPartial","seqNoFeedback","seqFeedback"],"classroomPairings":[["A","B"],["C","D"]],"coinWeights":[0.2,0.5,0.8],"subjectId":"A2R75YFKVALBXE","assignmentId":"3RKNTXVS3NKOESXU9IODQ1R0EV64A4","hitId":"3IH9TRB0FBLK6RLF7MSMKICTGYN1IU","url":"https://gershmanlab.com/experiments/alicia/teaching/experiment/?hitId=3IH9TRB0FBLK6RLF7MSMKICTGYN1IU&workerId=A2R75YFKVALBXE&assignmentId=3RKNTXVS3NKOESXU9IODQ1R0EV64A4&a=STKR3&tp_a=STKR3&b=3RKNTXVS3NKOESXU9IODQ1R0EV64A4&tp_b=3RKNTXVS3NKOESXU9IODQ1R0EV64A4&c=365633&tp_c=365633","totalBonus":1.2}]