[{"rt":14235,"response":{"heads":"2","tails":"2"},"type":"response","condition":"seqNoFeedback","trueTheta":0.5,"classrooms":["C","D"],"studentTrueClassroom":"D","exampleSet":"first","trial_type":"survey-html-form","trial_index":31,"time_elapsed":1070255,"internal_node_id":"0.0-6.0-0.0","params":{"nStudents":24,"maxFlips":25,"completionMinutes":45,"basePay":8,"maxBonus":9,"perTrialBonus":0.5,"perTrialBonusThreshold":0.05,"exampleCost":0.02},"classroomParams":{"A":{"a":1,"b":4},"B":{"a":4,"b":1},"C":{"a":2,"b":8},"D":{"a":8,"b":2}},"conditions":["nonSeqFull","nonSeqPartial","seqNoFeedback","seqFeedback"],"classroomPairings":[["A","B"],["C","D"]],"coinWeights":[0.2,0.5,0.8],"subjectId":"A2S64AUN7JI7ZS","assignmentId":"3PIWWX1FJKSPI3JJ6VOUP2J2MFQJJQ","hitId":"3QGHA0EA0JM3KKNCY0PQRLYAHLBWBE","url":"https://gershmanlab.com/experiments/alicia/teaching/experiment/?hitId=3QGHA0EA0JM3KKNCY0PQRLYAHLBWBE&workerId=A2S64AUN7JI7ZS&assignmentId=3PIWWX1FJKSPI3JJ6VOUP2J2MFQJJQ&a=FWIP3&tp_a=FWIP3&b=3PIWWX1FJKSPI3JJ6VOUP2J2MFQJJQ&tp_b=3PIWWX1FJKSPI3JJ6VOUP2J2MFQJJQ&c=365633&tp_c=365633","heads":2,"tails":2,"studentIndex":0,"studentTrueHypers":{"a":8,"b":2},"studentGuess":0.7142857142857143,"delta":0.2142857142857143,"totalExamples":4,"bonusSoFar":0},{"rt":11450,"response":{"heads":"3","tails":"3"},"type":"response","condition":"seqNoFeedback","trueTheta":0.5,"classrooms":["C","D"],"studentTrueClassroom":"D","exampleSet":"second","trial_type":"survey-html-form","trial_index":34,"time_elapsed":1089726,"internal_node_id":"0.0-9.0-0.0","params":{"nStudents":24,"maxFlips":25,"completionMinutes":45,"basePay":8,"maxBonus":9,"perTrialBonus":0.5,"perTrialBonusThreshold":0.05,"exampleCost":0.02},"classroomParams":{"A":{"a":1,"b":4},"B":{"a":4,"b":1},"C":{"a":2,"b":8},"D":{"a":8,"b":2}},"conditions":["nonSeqFull","nonSeqPartial","seqNoFeedback","seqFeedback"],"classroomPairings":[["A","B"],["C","D"]],"coinWeights":[0.2,0.5,0.8],"subjectId":"A2S64AUN7JI7ZS","assignmentId":"3PIWWX1FJKSPI3JJ6VOUP2J2MFQJJQ","hitId":"3QGHA0EA0JM3KKNCY0PQRLYAHLBWBE","url":"https://gershmanlab.com/experiments/alicia/teaching/experiment/?hitId=3QGHA0EA0JM3KKNCY0PQRLYAHLBWBE&workerId=A2S64AUN7JI7ZS&assignmentId=3PIWWX1FJKSPI3JJ6VOUP2J2MFQJJQ&a=FWIP3&tp_a=FWIP3&b=3PIWWX1FJKSPI3JJ6VOUP2J2MFQJJQ&tp_b=3PIWWX1FJKSPI3JJ6VOUP2J2MFQJJQ&c=365633&tp_c=365633","firstResponseHeads":2,"firstResponseTails":2,"secondResponseHeads":3,"secondResponseTails":3,"totalHeads":5,"totalTails":5,"studentIndex":0,"studentTrueHypers":{"a":8,"b":2},"studentGuess":0.65,"delta":0.15000000000000002,"bonus":0,"bonusSoFar":0,"totalExamples":10},{"rt":6727,"response":{"heads":"2","tails":"2"},"type":"response","condition":"seqFeedback","trueTheta":0.5,"classrooms":["A","B"],"studentTrueClassroom":"B","exampleSet":"first","trial_type":"survey-html-form","trial_index":40,"time_elapsed":1112076,"internal_node_id":"0.0-15.0-0.0","params":{"nStudents":24,"maxFlips":25,"completionMinutes":45,"basePay":8,"maxBonus":9,"perTrialBonus":0.5,"perTrialBonusThreshold":0.05,"exampleCost":0.02},"classroomParams":{"A":{"a":1,"b":4},"B":{"a":4,"b":1},"C":{"a":2,"b":8},"D":{"a":8,"b":2}},"conditions":["nonSeqFull","nonSeqPartial","seqNoFeedback","seqFeedback"],"classroomPairings":[["A","B"],["C","D"]],"coinWeights":[0.2,0.5,0.8],"subjectId":"A2S64AUN7JI7ZS","assignmentId":"3PIWWX1FJKSPI3JJ6VOUP2J2MFQJJQ","hitId":"3QGHA0EA0JM3KKNCY0PQRLYAHLBWBE","url":"https://gershmanlab.com/experiments/alicia/teaching/experiment/?hitId=3QGHA0EA0JM3KKNCY0PQRLYAHLBWBE&workerId=A2S64AUN7JI7ZS&assignmentId=3PIWWX1FJKSPI3JJ6VOUP2J2MFQJJQ&a=FWIP3&tp_a=FWIP3&b=3PIWWX1FJKSPI3JJ6VOUP2J2MFQJJQ&tp_b=3PIWWX1FJKSPI3JJ6VOUP2J2MFQJJQ&c=365633&tp_c=365633","heads":2,"tails":2,"studentIndex":1,"studentTrueHypers":{"a":4,"b":1},"studentGuess":0.6666666666666666,"delta":0.16666666666666663,"totalExamples":4,"bonusSoFar":0},{"rt":9314,"response":{"heads":"1","tails":"1"},"type":"response","condition":"seqFeedback","trueTheta":0.5,"classrooms":["A","B"],"studentTrueClassroom":"B","exampleSet":"second","trial_type":"survey-html-form","trial_index":44,"time_elapsed":1130721,"internal_node_id":"0.0-19.0-0.0","params":{"nStudents":24,"maxFlips":25,"completionMinutes":45,"basePay":8,"maxBonus":9,"perTrialBonus":0.5,"perTrialBonusThreshold":0.05,"exampleCost":0.02},"classroomParams":{"A":{"a":1,"b":4},"B":{"a":4,"b":1},"C":{"a":2,"b":8},"D":{"a":8,"b":2}},"conditions":["nonSeqFull","nonSeqPartial","seqNoFeedback","seqFeedback"],"classroomPairings":[["A","B"],["C","D"]],"coinWeights":[0.2,0.5,0.8],"subjectId":"A2S64AUN7JI7ZS","assignmentId":"3PIWWX1FJKSPI3JJ6VOUP2J2MFQJJQ","hitId":"3QGHA0EA0JM3KKNCY0PQRLYAHLBWBE","url":"https://gershmanlab.com/experiments/alicia/teaching/experiment/?hitId=3QGHA0EA0JM3KKNCY0PQRLYAHLBWBE&workerId=A2S64AUN7JI7ZS&assignmentId=3PIWWX1FJKSPI3JJ6VOUP2J2MFQJJQ&a=FWIP3&tp_a=FWIP3&b=3PIWWX1FJKSPI3JJ6VOUP2J2MFQJJQ&tp_b=3PIWWX1FJKSPI3JJ6VOUP2J2MFQJJQ&c=365633&tp_c=365633","firstResponseHeads":2,"firstResponseTails":2,"secondResponseHeads":1,"secondResponseTails":1,"totalHeads":3,"totalTails":3,"studentIndex":1,"studentTrueHypers":{"a":4,"b":1},"studentGuess":0.6363636363636364,"delta":0.13636363636363635,"bonus":0,"bonusSoFar":0,"totalExamples":6},{"rt":10634,"response":{"heads":"4","tails":"1"},"type":"response","condition":"nonSeqPartial","trueTheta":0.8,"classrooms":["A","B"],"studentTrueClassroom":"B","exampleSet":"first","trial_type":"survey-html-form","trial_index":50,"time_elapsed":1153431,"internal_node_id":"0.0-25.0-0.0","params":{"nStudents":24,"maxFlips":25,"completionMinutes":45,"basePay":8,"maxBonus":9,"perTrialBonus":0.5,"perTrialBonusThreshold":0.05,"exampleCost":0.02},"classroomParams":{"A":{"a":1,"b":4},"B":{"a":4,"b":1},"C":{"a":2,"b":8},"D":{"a":8,"b":2}},"conditions":["nonSeqFull","nonSeqPartial","seqNoFeedback","seqFeedback"],"classroomPairings":[["A","B"],["C","D"]],"coinWeights":[0.2,0.5,0.8],"subjectId":"A2S64AUN7JI7ZS","assignmentId":"3PIWWX1FJKSPI3JJ6VOUP2J2MFQJJQ","hitId":"3QGHA0EA0JM3KKNCY0PQRLYAHLBWBE","url":"https://gershmanlab.com/experiments/alicia/teaching/experiment/?hitId=3QGHA0EA0JM3KKNCY0PQRLYAHLBWBE&workerId=A2S64AUN7JI7ZS&assignmentId=3PIWWX1FJKSPI3JJ6VOUP2J2MFQJJQ&a=FWIP3&tp_a=FWIP3&b=3PIWWX1FJKSPI3JJ6VOUP2J2MFQJJQ&tp_b=3PIWWX1FJKSPI3JJ6VOUP2J2MFQJJQ&c=365633&tp_c=365633","heads":4,"tails":1,"studentIndex":2,"studentTrueHypers":{"a":4,"b":1},"studentGuess":0.8,"delta":0,"totalExamples":5,"bonus":0.4,"bonusSoFar":0.4},{"rt":3029,"response":{"heads":"4","tails":"1"},"type":"response","condition":"seqFeedback","trueTheta":0.8,"classrooms":["A","B"],"studentTrueClassroom":"B","exampleSet":"first","trial_type":"survey-html-form","trial_index":56,"time_elapsed":1168911,"internal_node_id":"0.0-31.0-0.0","params":{"nStudents":24,"maxFlips":25,"completionMinutes":45,"basePay":8,"maxBonus":9,"perTrialBonus":0.5,"perTrialBonusThreshold":0.05,"exampleCost":0.02},"classroomParams":{"A":{"a":1,"b":4},"B":{"a":4,"b":1},"C":{"a":2,"b":8},"D":{"a":8,"b":2}},"conditions":["nonSeqFull","nonSeqPartial","seqNoFeedback","seqFeedback"],"classroomPairings":[["A","B"],["C","D"]],"coinWeights":[0.2,0.5,0.8],"subjectId":"A2S64AUN7JI7ZS","assignmentId":"3PIWWX1FJKSPI3JJ6VOUP2J2MFQJJQ","hitId":"3QGHA0EA0JM3KKNCY0PQRLYAHLBWBE","url":"https://gershmanlab.com/experiments/alicia/teaching/experiment/?hitId=3QGHA0EA0JM3KKNCY0PQRLYAHLBWBE&workerId=A2S64AUN7JI7ZS&assignmentId=3PIWWX1FJKSPI3JJ6VOUP2J2MFQJJQ&a=FWIP3&tp_a=FWIP3&b=3PIWWX1FJKSPI3JJ6VOUP2J2MFQJJQ&tp_b=3PIWWX1FJKSPI3JJ6VOUP2J2MFQJJQ&c=365633&tp_c=365633","heads":4,"tails":1,"studentIndex":3,"studentTrueHypers":{"a":4,"b":1},"studentGuess":0.8,"delta":0,"totalExamples":5,"bonusSoFar":0.4},{"rt":12614,"response":{"heads":"4","tails":"1"},"type":"response","condition":"seqFeedback","trueTheta":0.8,"classrooms":["A","B"],"studentTrueClassroom":"B","exampleSet":"second","trial_type":"survey-html-form","trial_index":60,"time_elapsed":1189821,"internal_node_id":"0.0-35.0-0.0","params":{"nStudents":24,"maxFlips":25,"completionMinutes":45,"basePay":8,"maxBonus":9,"perTrialBonus":0.5,"perTrialBonusThreshold":0.05,"exampleCost":0.02},"classroomParams":{"A":{"a":1,"b":4},"B":{"a":4,"b":1},"C":{"a":2,"b":8},"D":{"a":8,"b":2}},"conditions":["nonSeqFull","nonSeqPartial","seqNoFeedback","seqFeedback"],"classroomPairings":[["A","B"],["C","D"]],"coinWeights":[0.2,0.5,0.8],"subjectId":"A2S64AUN7JI7ZS","assignmentId":"3PIWWX1FJKSPI3JJ6VOUP2J2MFQJJQ","hitId":"3QGHA0EA0JM3KKNCY0PQRLYAHLBWBE","url":"https://gershmanlab.com/experiments/alicia/teaching/experiment/?hitId=3QGHA0EA0JM3KKNCY0PQRLYAHLBWBE&workerId=A2S64AUN7JI7ZS&assignmentId=3PIWWX1FJKSPI3JJ6VOUP2J2MFQJJQ&a=FWIP3&tp_a=FWIP3&b=3PIWWX1FJKSPI3JJ6VOUP2J2MFQJJQ&tp_b=3PIWWX1FJKSPI3JJ6VOUP2J2MFQJJQ&c=365633&tp_c=365633","firstResponseHeads":4,"firstResponseTails":1,"secondResponseHeads":4,"secondResponseTails":1,"totalHeads":8,"totalTails":2,"studentIndex":3,"studentTrueHypers":{"a":4,"b":1},"studentGuess":0.8,"delta":0,"bonus":0.3,"bonusSoFar":0.7,"totalExamples":10},{"rt":2504,"response":{"heads":"4","tails":"1"},"type":"response","condition":"seqNoFeedback","trueTheta":0.8,"classrooms":["A","B"],"studentTrueClassroom":"B","exampleSet":"first","trial_type":"survey-html-form","trial_index":66,"time_elapsed":1203891,"internal_node_id":"0.0-41.0-0.0","params":{"nStudents":24,"maxFlips":25,"completionMinutes":45,"basePay":8,"maxBonus":9,"perTrialBonus":0.5,"perTrialBonusThreshold":0.05,"exampleCost":0.02},"classroomParams":{"A":{"a":1,"b":4},"B":{"a":4,"b":1},"C":{"a":2,"b":8},"D":{"a":8,"b":2}},"conditions":["nonSeqFull","nonSeqPartial","seqNoFeedback","seqFeedback"],"classroomPairings":[["A","B"],["C","D"]],"coinWeights":[0.2,0.5,0.8],"subjectId":"A2S64AUN7JI7ZS","assignmentId":"3PIWWX1FJKSPI3JJ6VOUP2J2MFQJJQ","hitId":"3QGHA0EA0JM3KKNCY0PQRLYAHLBWBE","url":"https://gershmanlab.com/experiments/alicia/teaching/experiment/?hitId=3QGHA0EA0JM3KKNCY0PQRLYAHLBWBE&workerId=A2S64AUN7JI7ZS&assignmentId=3PIWWX1FJKSPI3JJ6VOUP2J2MFQJJQ&a=FWIP3&tp_a=FWIP3&b=3PIWWX1FJKSPI3JJ6VOUP2J2MFQJJQ&tp_b=3PIWWX1FJKSPI3JJ6VOUP2J2MFQJJQ&c=365633&tp_c=365633","heads":4,"tails":1,"studentIndex":4,"studentTrueHypers":{"a":4,"b":1},"studentGuess":0.8,"delta":0,"totalExamples":5,"bonusSoFar":0.7},{"rt":3081,"response":{"heads":"4","tails":"1"},"type":"response","condition":"seqNoFeedback","trueTheta":0.8,"classrooms":["A","B"],"studentTrueClassroom":"B","exampleSet":"second","trial_type":"survey-html-form","trial_index":69,"time_elapsed":1212231,"internal_node_id":"0.0-44.0-0.0","params":{"nStudents":24,"maxFlips":25,"completionMinutes":45,"basePay":8,"maxBonus":9,"perTrialBonus":0.5,"perTrialBonusThreshold":0.05,"exampleCost":0.02},"classroomParams":{"A":{"a":1,"b":4},"B":{"a":4,"b":1},"C":{"a":2,"b":8},"D":{"a":8,"b":2}},"conditions":["nonSeqFull","nonSeqPartial","seqNoFeedback","seqFeedback"],"classroomPairings":[["A","B"],["C","D"]],"coinWeights":[0.2,0.5,0.8],"subjectId":"A2S64AUN7JI7ZS","assignmentId":"3PIWWX1FJKSPI3JJ6VOUP2J2MFQJJQ","hitId":"3QGHA0EA0JM3KKNCY0PQRLYAHLBWBE","url":"https://gershmanlab.com/experiments/alicia/teaching/experiment/?hitId=3QGHA0EA0JM3KKNCY0PQRLYAHLBWBE&workerId=A2S64AUN7JI7ZS&assignmentId=3PIWWX1FJKSPI3JJ6VOUP2J2MFQJJQ&a=FWIP3&tp_a=FWIP3&b=3PIWWX1FJKSPI3JJ6VOUP2J2MFQJJQ&tp_b=3PIWWX1FJKSPI3JJ6VOUP2J2MFQJJQ&c=365633&tp_c=365633","firstResponseHeads":4,"firstResponseTails":1,"secondResponseHeads":4,"secondResponseTails":1,"totalHeads":8,"totalTails":2,"studentIndex":4,"studentTrueHypers":{"a":4,"b":1},"studentGuess":0.8,"delta":0,"bonus":0.3,"bonusSoFar":1,"totalExamples":10},{"rt":5460,"response":{"heads":"8","tails":"2"},"type":"response","condition":"seqFeedback","trueTheta":0.8,"classrooms":["C","D"],"studentTrueClassroom":"D","exampleSet":"first","trial_type":"survey-html-form","trial_index":75,"time_elapsed":1229692,"internal_node_id":"0.0-50.0-0.0","params":{"nStudents":24,"maxFlips":25,"completionMinutes":45,"basePay":8,"maxBonus":9,"perTrialBonus":0.5,"perTrialBonusThreshold":0.05,"exampleCost":0.02},"classroomParams":{"A":{"a":1,"b":4},"B":{"a":4,"b":1},"C":{"a":2,"b":8},"D":{"a":8,"b":2}},"conditions":["nonSeqFull","nonSeqPartial","seqNoFeedback","seqFeedback"],"classroomPairings":[["A","B"],["C","D"]],"coinWeights":[0.2,0.5,0.8],"subjectId":"A2S64AUN7JI7ZS","assignmentId":"3PIWWX1FJKSPI3JJ6VOUP2J2MFQJJQ","hitId":"3QGHA0EA0JM3KKNCY0PQRLYAHLBWBE","url":"https://gershmanlab.com/experiments/alicia/teaching/experiment/?hitId=3QGHA0EA0JM3KKNCY0PQRLYAHLBWBE&workerId=A2S64AUN7JI7ZS&assignmentId=3PIWWX1FJKSPI3JJ6VOUP2J2MFQJJQ&a=FWIP3&tp_a=FWIP3&b=3PIWWX1FJKSPI3JJ6VOUP2J2MFQJJQ&tp_b=3PIWWX1FJKSPI3JJ6VOUP2J2MFQJJQ&c=365633&tp_c=365633","heads":8,"tails":2,"studentIndex":5,"studentTrueHypers":{"a":8,"b":2},"studentGuess":0.8,"delta":0,"totalExamples":10,"bonusSoFar":1},{"rt":4469,"response":{"heads":"8","tails":"2"},"type":"response","condition":"seqFeedback","trueTheta":0.8,"classrooms":["C","D"],"studentTrueClassroom":"D","exampleSet":"second","trial_type":"survey-html-form","trial_index":79,"time_elapsed":1241962,"internal_node_id":"0.0-54.0-0.0","params":{"nStudents":24,"maxFlips":25,"completionMinutes":45,"basePay":8,"maxBonus":9,"perTrialBonus":0.5,"perTrialBonusThreshold":0.05,"exampleCost":0.02},"classroomParams":{"A":{"a":1,"b":4},"B":{"a":4,"b":1},"C":{"a":2,"b":8},"D":{"a":8,"b":2}},"conditions":["nonSeqFull","nonSeqPartial","seqNoFeedback","seqFeedback"],"classroomPairings":[["A","B"],["C","D"]],"coinWeights":[0.2,0.5,0.8],"subjectId":"A2S64AUN7JI7ZS","assignmentId":"3PIWWX1FJKSPI3JJ6VOUP2J2MFQJJQ","hitId":"3QGHA0EA0JM3KKNCY0PQRLYAHLBWBE","url":"https://gershmanlab.com/experiments/alicia/teaching/experiment/?hitId=3QGHA0EA0JM3KKNCY0PQRLYAHLBWBE&workerId=A2S64AUN7JI7ZS&assignmentId=3PIWWX1FJKSPI3JJ6VOUP2J2MFQJJQ&a=FWIP3&tp_a=FWIP3&b=3PIWWX1FJKSPI3JJ6VOUP2J2MFQJJQ&tp_b=3PIWWX1FJKSPI3JJ6VOUP2J2MFQJJQ&c=365633&tp_c=365633","firstResponseHeads":8,"firstResponseTails":2,"secondResponseHeads":8,"secondResponseTails":2,"totalHeads":16,"totalTails":4,"studentIndex":5,"studentTrueHypers":{"a":8,"b":2},"studentGuess":0.8,"delta":0,"bonus":0.1,"bonusSoFar":1.1,"totalExamples":20},{"rt":8684,"response":{"heads":"1","tails":"4"},"type":"response","condition":"nonSeqFull","trueTheta":0.2,"classrooms":["A","B"],"studentTrueClassroom":"A","exampleSet":"first","trial_type":"survey-html-form","trial_index":85,"time_elapsed":1265347,"internal_node_id":"0.0-60.0-0.0","params":{"nStudents":24,"maxFlips":25,"completionMinutes":45,"basePay":8,"maxBonus":9,"perTrialBonus":0.5,"perTrialBonusThreshold":0.05,"exampleCost":0.02},"classroomParams":{"A":{"a":1,"b":4},"B":{"a":4,"b":1},"C":{"a":2,"b":8},"D":{"a":8,"b":2}},"conditions":["nonSeqFull","nonSeqPartial","seqNoFeedback","seqFeedback"],"classroomPairings":[["A","B"],["C","D"]],"coinWeights":[0.2,0.5,0.8],"subjectId":"A2S64AUN7JI7ZS","assignmentId":"3PIWWX1FJKSPI3JJ6VOUP2J2MFQJJQ","hitId":"3QGHA0EA0JM3KKNCY0PQRLYAHLBWBE","url":"https://gershmanlab.com/experiments/alicia/teaching/experiment/?hitId=3QGHA0EA0JM3KKNCY0PQRLYAHLBWBE&workerId=A2S64AUN7JI7ZS&assignmentId=3PIWWX1FJKSPI3JJ6VOUP2J2MFQJJQ&a=FWIP3&tp_a=FWIP3&b=3PIWWX1FJKSPI3JJ6VOUP2J2MFQJJQ&tp_b=3PIWWX1FJKSPI3JJ6VOUP2J2MFQJJQ&c=365633&tp_c=365633","heads":1,"tails":4,"studentIndex":6,"studentTrueHypers":{"a":1,"b":4},"studentGuess":0.2,"delta":0,"totalExamples":5,"bonus":0.4,"bonusSoFar":1.5},{"rt":4575,"response":{"heads":"4","tails":"4"},"type":"response","condition":"nonSeqFull","trueTheta":0.5,"classrooms":["C","D"],"studentTrueClassroom":"D","exampleSet":"first","trial_type":"survey-html-form","trial_index":91,"time_elapsed":1282687,"internal_node_id":"0.0-66.0-0.0","params":{"nStudents":24,"maxFlips":25,"completionMinutes":45,"basePay":8,"maxBonus":9,"perTrialBonus":0.5,"perTrialBonusThreshold":0.05,"exampleCost":0.02},"classroomParams":{"A":{"a":1,"b":4},"B":{"a":4,"b":1},"C":{"a":2,"b":8},"D":{"a":8,"b":2}},"conditions":["nonSeqFull","nonSeqPartial","seqNoFeedback","seqFeedback"],"classroomPairings":[["A","B"],["C","D"]],"coinWeights":[0.2,0.5,0.8],"subjectId":"A2S64AUN7JI7ZS","assignmentId":"3PIWWX1FJKSPI3JJ6VOUP2J2MFQJJQ","hitId":"3QGHA0EA0JM3KKNCY0PQRLYAHLBWBE","url":"https://gershmanlab.com/experiments/alicia/teaching/experiment/?hitId=3QGHA0EA0JM3KKNCY0PQRLYAHLBWBE&workerId=A2S64AUN7JI7ZS&assignmentId=3PIWWX1FJKSPI3JJ6VOUP2J2MFQJJQ&a=FWIP3&tp_a=FWIP3&b=3PIWWX1FJKSPI3JJ6VOUP2J2MFQJJQ&tp_b=3PIWWX1FJKSPI3JJ6VOUP2J2MFQJJQ&c=365633&tp_c=365633","heads":4,"tails":4,"studentIndex":7,"studentTrueHypers":{"a":8,"b":2},"studentGuess":0.6666666666666666,"delta":0.16666666666666663,"totalExamples":8,"bonus":0,"bonusSoFar":1.5},{"rt":3285,"response":{"heads":"8","tails":"8"},"type":"response","condition":"nonSeqPartial","trueTheta":0.5,"classrooms":["C","D"],"studentTrueClassroom":"D","exampleSet":"first","trial_type":"survey-html-form","trial_index":97,"time_elapsed":1300417,"internal_node_id":"0.0-72.0-0.0","params":{"nStudents":24,"maxFlips":25,"completionMinutes":45,"basePay":8,"maxBonus":9,"perTrialBonus":0.5,"perTrialBonusThreshold":0.05,"exampleCost":0.02},"classroomParams":{"A":{"a":1,"b":4},"B":{"a":4,"b":1},"C":{"a":2,"b":8},"D":{"a":8,"b":2}},"conditions":["nonSeqFull","nonSeqPartial","seqNoFeedback","seqFeedback"],"classroomPairings":[["A","B"],["C","D"]],"coinWeights":[0.2,0.5,0.8],"subjectId":"A2S64AUN7JI7ZS","assignmentId":"3PIWWX1FJKSPI3JJ6VOUP2J2MFQJJQ","hitId":"3QGHA0EA0JM3KKNCY0PQRLYAHLBWBE","url":"https://gershmanlab.com/experiments/alicia/teaching/experiment/?hitId=3QGHA0EA0JM3KKNCY0PQRLYAHLBWBE&workerId=A2S64AUN7JI7ZS&assignmentId=3PIWWX1FJKSPI3JJ6VOUP2J2MFQJJQ&a=FWIP3&tp_a=FWIP3&b=3PIWWX1FJKSPI3JJ6VOUP2J2MFQJJQ&tp_b=3PIWWX1FJKSPI3JJ6VOUP2J2MFQJJQ&c=365633&tp_c=365633","heads":8,"tails":8,"studentIndex":8,"studentTrueHypers":{"a":8,"b":2},"studentGuess":0.6153846153846154,"delta":0.11538461538461542,"totalExamples":16,"bonus":0,"bonusSoFar":1.5},{"rt":2549,"response":{"heads":"1","tails":"4"},"type":"response","condition":"seqFeedback","trueTheta":0.2,"classrooms":["A","B"],"studentTrueClassroom":"A","exampleSet":"first","trial_type":"survey-html-form","trial_index":103,"time_elapsed":1314487,"internal_node_id":"0.0-78.0-0.0","params":{"nStudents":24,"maxFlips":25,"completionMinutes":45,"basePay":8,"maxBonus":9,"perTrialBonus":0.5,"perTrialBonusThreshold":0.05,"exampleCost":0.02},"classroomParams":{"A":{"a":1,"b":4},"B":{"a":4,"b":1},"C":{"a":2,"b":8},"D":{"a":8,"b":2}},"conditions":["nonSeqFull","nonSeqPartial","seqNoFeedback","seqFeedback"],"classroomPairings":[["A","B"],["C","D"]],"coinWeights":[0.2,0.5,0.8],"subjectId":"A2S64AUN7JI7ZS","assignmentId":"3PIWWX1FJKSPI3JJ6VOUP2J2MFQJJQ","hitId":"3QGHA0EA0JM3KKNCY0PQRLYAHLBWBE","url":"https://gershmanlab.com/experiments/alicia/teaching/experiment/?hitId=3QGHA0EA0JM3KKNCY0PQRLYAHLBWBE&workerId=A2S64AUN7JI7ZS&assignmentId=3PIWWX1FJKSPI3JJ6VOUP2J2MFQJJQ&a=FWIP3&tp_a=FWIP3&b=3PIWWX1FJKSPI3JJ6VOUP2J2MFQJJQ&tp_b=3PIWWX1FJKSPI3JJ6VOUP2J2MFQJJQ&c=365633&tp_c=365633","heads":1,"tails":4,"studentIndex":9,"studentTrueHypers":{"a":1,"b":4},"studentGuess":0.2,"delta":0,"totalExamples":5,"bonusSoFar":1.5},{"rt":3269,"response":{"heads":"1","tails":"4"},"type":"response","condition":"seqFeedback","trueTheta":0.2,"classrooms":["A","B"],"studentTrueClassroom":"A","exampleSet":"second","trial_type":"survey-html-form","trial_index":107,"time_elapsed":1326293,"internal_node_id":"0.0-82.0-0.0","params":{"nStudents":24,"maxFlips":25,"completionMinutes":45,"basePay":8,"maxBonus":9,"perTrialBonus":0.5,"perTrialBonusThreshold":0.05,"exampleCost":0.02},"classroomParams":{"A":{"a":1,"b":4},"B":{"a":4,"b":1},"C":{"a":2,"b":8},"D":{"a":8,"b":2}},"conditions":["nonSeqFull","nonSeqPartial","seqNoFeedback","seqFeedback"],"classroomPairings":[["A","B"],["C","D"]],"coinWeights":[0.2,0.5,0.8],"subjectId":"A2S64AUN7JI7ZS","assignmentId":"3PIWWX1FJKSPI3JJ6VOUP2J2MFQJJQ","hitId":"3QGHA0EA0JM3KKNCY0PQRLYAHLBWBE","url":"https://gershmanlab.com/experiments/alicia/teaching/experiment/?hitId=3QGHA0EA0JM3KKNCY0PQRLYAHLBWBE&workerId=A2S64AUN7JI7ZS&assignmentId=3PIWWX1FJKSPI3JJ6VOUP2J2MFQJJQ&a=FWIP3&tp_a=FWIP3&b=3PIWWX1FJKSPI3JJ6VOUP2J2MFQJJQ&tp_b=3PIWWX1FJKSPI3JJ6VOUP2J2MFQJJQ&c=365633&tp_c=365633","firstResponseHeads":1,"firstResponseTails":4,"secondResponseHeads":1,"secondResponseTails":4,"totalHeads":2,"totalTails":8,"studentIndex":9,"studentTrueHypers":{"a":1,"b":4},"studentGuess":0.2,"delta":0,"bonus":0.3,"bonusSoFar":1.8,"totalExamples":10},{"rt":4980,"response":{"heads":"1","tails":"4"},"type":"response","condition":"nonSeqFull","trueTheta":0.2,"classrooms":["C","D"],"studentTrueClassroom":"C","exampleSet":"first","trial_type":"survey-html-form","trial_index":113,"time_elapsed":1343468,"internal_node_id":"0.0-88.0-0.0","params":{"nStudents":24,"maxFlips":25,"completionMinutes":45,"basePay":8,"maxBonus":9,"perTrialBonus":0.5,"perTrialBonusThreshold":0.05,"exampleCost":0.02},"classroomParams":{"A":{"a":1,"b":4},"B":{"a":4,"b":1},"C":{"a":2,"b":8},"D":{"a":8,"b":2}},"conditions":["nonSeqFull","nonSeqPartial","seqNoFeedback","seqFeedback"],"classroomPairings":[["A","B"],["C","D"]],"coinWeights":[0.2,0.5,0.8],"subjectId":"A2S64AUN7JI7ZS","assignmentId":"3PIWWX1FJKSPI3JJ6VOUP2J2MFQJJQ","hitId":"3QGHA0EA0JM3KKNCY0PQRLYAHLBWBE","url":"https://gershmanlab.com/experiments/alicia/teaching/experiment/?hitId=3QGHA0EA0JM3KKNCY0PQRLYAHLBWBE&workerId=A2S64AUN7JI7ZS&assignmentId=3PIWWX1FJKSPI3JJ6VOUP2J2MFQJJQ&a=FWIP3&tp_a=FWIP3&b=3PIWWX1FJKSPI3JJ6VOUP2J2MFQJJQ&tp_b=3PIWWX1FJKSPI3JJ6VOUP2J2MFQJJQ&c=365633&tp_c=365633","heads":1,"tails":4,"studentIndex":10,"studentTrueHypers":{"a":2,"b":8},"studentGuess":0.2,"delta":0,"totalExamples":5,"bonus":0.4,"bonusSoFar":2.2},{"rt":6645,"response":{"heads":"4","tails":"1"},"type":"response","condition":"nonSeqFull","trueTheta":0.8,"classrooms":["A","B"],"studentTrueClassroom":"A","exampleSet":"first","trial_type":"survey-html-form","trial_index":119,"time_elapsed":1362548,"internal_node_id":"0.0-94.0-0.0","params":{"nStudents":24,"maxFlips":25,"completionMinutes":45,"basePay":8,"maxBonus":9,"perTrialBonus":0.5,"perTrialBonusThreshold":0.05,"exampleCost":0.02},"classroomParams":{"A":{"a":1,"b":4},"B":{"a":4,"b":1},"C":{"a":2,"b":8},"D":{"a":8,"b":2}},"conditions":["nonSeqFull","nonSeqPartial","seqNoFeedback","seqFeedback"],"classroomPairings":[["A","B"],["C","D"]],"coinWeights":[0.2,0.5,0.8],"subjectId":"A2S64AUN7JI7ZS","assignmentId":"3PIWWX1FJKSPI3JJ6VOUP2J2MFQJJQ","hitId":"3QGHA0EA0JM3KKNCY0PQRLYAHLBWBE","url":"https://gershmanlab.com/experiments/alicia/teaching/experiment/?hitId=3QGHA0EA0JM3KKNCY0PQRLYAHLBWBE&workerId=A2S64AUN7JI7ZS&assignmentId=3PIWWX1FJKSPI3JJ6VOUP2J2MFQJJQ&a=FWIP3&tp_a=FWIP3&b=3PIWWX1FJKSPI3JJ6VOUP2J2MFQJJQ&tp_b=3PIWWX1FJKSPI3JJ6VOUP2J2MFQJJQ&c=365633&tp_c=365633","heads":4,"tails":1,"studentIndex":11,"studentTrueHypers":{"a":1,"b":4},"studentGuess":0.5,"delta":0.30000000000000004,"totalExamples":5,"bonus":0,"bonusSoFar":2.2},{"rt":2984,"response":{"heads":"4","tails":"4"},"type":"response","condition":"nonSeqPartial","trueTheta":0.5,"classrooms":["A","B"],"studentTrueClassroom":"A","exampleSet":"first","trial_type":"survey-html-form","trial_index":125,"time_elapsed":1378193,"internal_node_id":"0.0-100.0-0.0","params":{"nStudents":24,"maxFlips":25,"completionMinutes":45,"basePay":8,"maxBonus":9,"perTrialBonus":0.5,"perTrialBonusThreshold":0.05,"exampleCost":0.02},"classroomParams":{"A":{"a":1,"b":4},"B":{"a":4,"b":1},"C":{"a":2,"b":8},"D":{"a":8,"b":2}},"conditions":["nonSeqFull","nonSeqPartial","seqNoFeedback","seqFeedback"],"classroomPairings":[["A","B"],["C","D"]],"coinWeights":[0.2,0.5,0.8],"subjectId":"A2S64AUN7JI7ZS","assignmentId":"3PIWWX1FJKSPI3JJ6VOUP2J2MFQJJQ","hitId":"3QGHA0EA0JM3KKNCY0PQRLYAHLBWBE","url":"https://gershmanlab.com/experiments/alicia/teaching/experiment/?hitId=3QGHA0EA0JM3KKNCY0PQRLYAHLBWBE&workerId=A2S64AUN7JI7ZS&assignmentId=3PIWWX1FJKSPI3JJ6VOUP2J2MFQJJQ&a=FWIP3&tp_a=FWIP3&b=3PIWWX1FJKSPI3JJ6VOUP2J2MFQJJQ&tp_b=3PIWWX1FJKSPI3JJ6VOUP2J2MFQJJQ&c=365633&tp_c=365633","heads":4,"tails":4,"studentIndex":12,"studentTrueHypers":{"a":1,"b":4},"studentGuess":0.38461538461538464,"delta":0.11538461538461536,"totalExamples":8,"bonus":0,"bonusSoFar":2.2},{"rt":2264,"response":{"heads":"1","tails":"4"},"type":"response","condition":"nonSeqPartial","trueTheta":0.2,"classrooms":["C","D"],"studentTrueClassroom":"D","exampleSet":"first","trial_type":"survey-html-form","trial_index":131,"time_elapsed":1391753,"internal_node_id":"0.0-106.0-0.0","params":{"nStudents":24,"maxFlips":25,"completionMinutes":45,"basePay":8,"maxBonus":9,"perTrialBonus":0.5,"perTrialBonusThreshold":0.05,"exampleCost":0.02},"classroomParams":{"A":{"a":1,"b":4},"B":{"a":4,"b":1},"C":{"a":2,"b":8},"D":{"a":8,"b":2}},"conditions":["nonSeqFull","nonSeqPartial","seqNoFeedback","seqFeedback"],"classroomPairings":[["A","B"],["C","D"]],"coinWeights":[0.2,0.5,0.8],"subjectId":"A2S64AUN7JI7ZS","assignmentId":"3PIWWX1FJKSPI3JJ6VOUP2J2MFQJJQ","hitId":"3QGHA0EA0JM3KKNCY0PQRLYAHLBWBE","url":"https://gershmanlab.com/experiments/alicia/teaching/experiment/?hitId=3QGHA0EA0JM3KKNCY0PQRLYAHLBWBE&workerId=A2S64AUN7JI7ZS&assignmentId=3PIWWX1FJKSPI3JJ6VOUP2J2MFQJJQ&a=FWIP3&tp_a=FWIP3&b=3PIWWX1FJKSPI3JJ6VOUP2J2MFQJJQ&tp_b=3PIWWX1FJKSPI3JJ6VOUP2J2MFQJJQ&c=365633&tp_c=365633","heads":1,"tails":4,"studentIndex":13,"studentTrueHypers":{"a":8,"b":2},"studentGuess":0.6,"delta":0.39999999999999997,"totalExamples":5,"bonus":0,"bonusSoFar":2.2},{"rt":4019,"response":{"heads":"1","tails":"1"},"type":"response","condition":"nonSeqFull","trueTheta":0.5,"classrooms":["A","B"],"studentTrueClassroom":"A","exampleSet":"first","trial_type":"survey-html-form","trial_index":137,"time_elapsed":1407818,"internal_node_id":"0.0-112.0-0.0","params":{"nStudents":24,"maxFlips":25,"completionMinutes":45,"basePay":8,"maxBonus":9,"perTrialBonus":0.5,"perTrialBonusThreshold":0.05,"exampleCost":0.02},"classroomParams":{"A":{"a":1,"b":4},"B":{"a":4,"b":1},"C":{"a":2,"b":8},"D":{"a":8,"b":2}},"conditions":["nonSeqFull","nonSeqPartial","seqNoFeedback","seqFeedback"],"classroomPairings":[["A","B"],["C","D"]],"coinWeights":[0.2,0.5,0.8],"subjectId":"A2S64AUN7JI7ZS","assignmentId":"3PIWWX1FJKSPI3JJ6VOUP2J2MFQJJQ","hitId":"3QGHA0EA0JM3KKNCY0PQRLYAHLBWBE","url":"https://gershmanlab.com/experiments/alicia/teaching/experiment/?hitId=3QGHA0EA0JM3KKNCY0PQRLYAHLBWBE&workerId=A2S64AUN7JI7ZS&assignmentId=3PIWWX1FJKSPI3JJ6VOUP2J2MFQJJQ&a=FWIP3&tp_a=FWIP3&b=3PIWWX1FJKSPI3JJ6VOUP2J2MFQJJQ&tp_b=3PIWWX1FJKSPI3JJ6VOUP2J2MFQJJQ&c=365633&tp_c=365633","heads":1,"tails":1,"studentIndex":14,"studentTrueHypers":{"a":1,"b":4},"studentGuess":0.2857142857142857,"delta":0.2142857142857143,"totalExamples":2,"bonus":0,"bonusSoFar":2.2},{"rt":3703,"response":{"heads":"8","tails":"2"},"type":"response","condition":"nonSeqPartial","trueTheta":0.8,"classrooms":["C","D"],"studentTrueClassroom":"D","exampleSet":"first","trial_type":"survey-html-form","trial_index":143,"time_elapsed":1422143,"internal_node_id":"0.0-118.0-0.0","params":{"nStudents":24,"maxFlips":25,"completionMinutes":45,"basePay":8,"maxBonus":9,"perTrialBonus":0.5,"perTrialBonusThreshold":0.05,"exampleCost":0.02},"classroomParams":{"A":{"a":1,"b":4},"B":{"a":4,"b":1},"C":{"a":2,"b":8},"D":{"a":8,"b":2}},"conditions":["nonSeqFull","nonSeqPartial","seqNoFeedback","seqFeedback"],"classroomPairings":[["A","B"],["C","D"]],"coinWeights":[0.2,0.5,0.8],"subjectId":"A2S64AUN7JI7ZS","assignmentId":"3PIWWX1FJKSPI3JJ6VOUP2J2MFQJJQ","hitId":"3QGHA0EA0JM3KKNCY0PQRLYAHLBWBE","url":"https://gershmanlab.com/experiments/alicia/teaching/experiment/?hitId=3QGHA0EA0JM3KKNCY0PQRLYAHLBWBE&workerId=A2S64AUN7JI7ZS&assignmentId=3PIWWX1FJKSPI3JJ6VOUP2J2MFQJJQ&a=FWIP3&tp_a=FWIP3&b=3PIWWX1FJKSPI3JJ6VOUP2J2MFQJJQ&tp_b=3PIWWX1FJKSPI3JJ6VOUP2J2MFQJJQ&c=365633&tp_c=365633","heads":8,"tails":2,"studentIndex":15,"studentTrueHypers":{"a":8,"b":2},"studentGuess":0.8,"delta":0,"totalExamples":10,"bonus":0.3,"bonusSoFar":2.5},{"rt":2233,"response":{"heads":"8","tails":"2"},"type":"response","condition":"seqNoFeedback","trueTheta":0.8,"classrooms":["C","D"],"studentTrueClassroom":"D","exampleSet":"first","trial_type":"survey-html-form","trial_index":149,"time_elapsed":1435014,"internal_node_id":"0.0-124.0-0.0","params":{"nStudents":24,"maxFlips":25,"completionMinutes":45,"basePay":8,"maxBonus":9,"perTrialBonus":0.5,"perTrialBonusThreshold":0.05,"exampleCost":0.02},"classroomParams":{"A":{"a":1,"b":4},"B":{"a":4,"b":1},"C":{"a":2,"b":8},"D":{"a":8,"b":2}},"conditions":["nonSeqFull","nonSeqPartial","seqNoFeedback","seqFeedback"],"classroomPairings":[["A","B"],["C","D"]],"coinWeights":[0.2,0.5,0.8],"subjectId":"A2S64AUN7JI7ZS","assignmentId":"3PIWWX1FJKSPI3JJ6VOUP2J2MFQJJQ","hitId":"3QGHA0EA0JM3KKNCY0PQRLYAHLBWBE","url":"https://gershmanlab.com/experiments/alicia/teaching/experiment/?hitId=3QGHA0EA0JM3KKNCY0PQRLYAHLBWBE&workerId=A2S64AUN7JI7ZS&assignmentId=3PIWWX1FJKSPI3JJ6VOUP2J2MFQJJQ&a=FWIP3&tp_a=FWIP3&b=3PIWWX1FJKSPI3JJ6VOUP2J2MFQJJQ&tp_b=3PIWWX1FJKSPI3JJ6VOUP2J2MFQJJQ&c=365633&tp_c=365633","heads":8,"tails":2,"studentIndex":16,"studentTrueHypers":{"a":8,"b":2},"studentGuess":0.8,"delta":0,"totalExamples":10,"bonusSoFar":2.5},{"rt":2133,"response":{"heads":"8","tails":"2"},"type":"response","condition":"seqNoFeedback","trueTheta":0.8,"classrooms":["C","D"],"studentTrueClassroom":"D","exampleSet":"second","trial_type":"survey-html-form","trial_index":152,"time_elapsed":1443654,"internal_node_id":"0.0-127.0-0.0","params":{"nStudents":24,"maxFlips":25,"completionMinutes":45,"basePay":8,"maxBonus":9,"perTrialBonus":0.5,"perTrialBonusThreshold":0.05,"exampleCost":0.02},"classroomParams":{"A":{"a":1,"b":4},"B":{"a":4,"b":1},"C":{"a":2,"b":8},"D":{"a":8,"b":2}},"conditions":["nonSeqFull","nonSeqPartial","seqNoFeedback","seqFeedback"],"classroomPairings":[["A","B"],["C","D"]],"coinWeights":[0.2,0.5,0.8],"subjectId":"A2S64AUN7JI7ZS","assignmentId":"3PIWWX1FJKSPI3JJ6VOUP2J2MFQJJQ","hitId":"3QGHA0EA0JM3KKNCY0PQRLYAHLBWBE","url":"https://gershmanlab.com/experiments/alicia/teaching/experiment/?hitId=3QGHA0EA0JM3KKNCY0PQRLYAHLBWBE&workerId=A2S64AUN7JI7ZS&assignmentId=3PIWWX1FJKSPI3JJ6VOUP2J2MFQJJQ&a=FWIP3&tp_a=FWIP3&b=3PIWWX1FJKSPI3JJ6VOUP2J2MFQJJQ&tp_b=3PIWWX1FJKSPI3JJ6VOUP2J2MFQJJQ&c=365633&tp_c=365633","firstResponseHeads":8,"firstResponseTails":2,"secondResponseHeads":8,"secondResponseTails":2,"totalHeads":16,"totalTails":4,"studentIndex":16,"studentTrueHypers":{"a":8,"b":2},"studentGuess":0.8,"delta":0,"bonus":0.1,"bonusSoFar":2.6,"totalExamples":20},{"rt":2909,"response":{"heads":"1","tails":"4"},"type":"response","condition":"nonSeqPartial","trueTheta":0.2,"classrooms":["A","B"],"studentTrueClassroom":"B","exampleSet":"first","trial_type":"survey-html-form","trial_index":158,"time_elapsed":1459584,"internal_node_id":"0.0-133.0-0.0","params":{"nStudents":24,"maxFlips":25,"completionMinutes":45,"basePay":8,"maxBonus":9,"perTrialBonus":0.5,"perTrialBonusThreshold":0.05,"exampleCost":0.02},"classroomParams":{"A":{"a":1,"b":4},"B":{"a":4,"b":1},"C":{"a":2,"b":8},"D":{"a":8,"b":2}},"conditions":["nonSeqFull","nonSeqPartial","seqNoFeedback","seqFeedback"],"classroomPairings":[["A","B"],["C","D"]],"coinWeights":[0.2,0.5,0.8],"subjectId":"A2S64AUN7JI7ZS","assignmentId":"3PIWWX1FJKSPI3JJ6VOUP2J2MFQJJQ","hitId":"3QGHA0EA0JM3KKNCY0PQRLYAHLBWBE","url":"https://gershmanlab.com/experiments/alicia/teaching/experiment/?hitId=3QGHA0EA0JM3KKNCY0PQRLYAHLBWBE&workerId=A2S64AUN7JI7ZS&assignmentId=3PIWWX1FJKSPI3JJ6VOUP2J2MFQJJQ&a=FWIP3&tp_a=FWIP3&b=3PIWWX1FJKSPI3JJ6VOUP2J2MFQJJQ&tp_b=3PIWWX1FJKSPI3JJ6VOUP2J2MFQJJQ&c=365633&tp_c=365633","heads":1,"tails":4,"studentIndex":17,"studentTrueHypers":{"a":4,"b":1},"studentGuess":0.5,"delta":0.3,"totalExamples":5,"bonus":0,"bonusSoFar":2.6},{"rt":1739,"response":{"heads":"1","tails":"4"},"type":"response","condition":"seqNoFeedback","trueTheta":0.2,"classrooms":["A","B"],"studentTrueClassroom":"B","exampleSet":"first","trial_type":"survey-html-form","trial_index":164,"time_elapsed":1473489,"internal_node_id":"0.0-139.0-0.0","params":{"nStudents":24,"maxFlips":25,"completionMinutes":45,"basePay":8,"maxBonus":9,"perTrialBonus":0.5,"perTrialBonusThreshold":0.05,"exampleCost":0.02},"classroomParams":{"A":{"a":1,"b":4},"B":{"a":4,"b":1},"C":{"a":2,"b":8},"D":{"a":8,"b":2}},"conditions":["nonSeqFull","nonSeqPartial","seqNoFeedback","seqFeedback"],"classroomPairings":[["A","B"],["C","D"]],"coinWeights":[0.2,0.5,0.8],"subjectId":"A2S64AUN7JI7ZS","assignmentId":"3PIWWX1FJKSPI3JJ6VOUP2J2MFQJJQ","hitId":"3QGHA0EA0JM3KKNCY0PQRLYAHLBWBE","url":"https://gershmanlab.com/experiments/alicia/teaching/experiment/?hitId=3QGHA0EA0JM3KKNCY0PQRLYAHLBWBE&workerId=A2S64AUN7JI7ZS&assignmentId=3PIWWX1FJKSPI3JJ6VOUP2J2MFQJJQ&a=FWIP3&tp_a=FWIP3&b=3PIWWX1FJKSPI3JJ6VOUP2J2MFQJJQ&tp_b=3PIWWX1FJKSPI3JJ6VOUP2J2MFQJJQ&c=365633&tp_c=365633","heads":1,"tails":4,"studentIndex":18,"studentTrueHypers":{"a":4,"b":1},"studentGuess":0.5,"delta":0.3,"totalExamples":5,"bonusSoFar":2.6},{"rt":1594,"response":{"heads":"1","tails":"4"},"type":"response","condition":"seqNoFeedback","trueTheta":0.2,"classrooms":["A","B"],"studentTrueClassroom":"B","exampleSet":"second","trial_type":"survey-html-form","trial_index":167,"time_elapsed":1483089,"internal_node_id":"0.0-142.0-0.0","params":{"nStudents":24,"maxFlips":25,"completionMinutes":45,"basePay":8,"maxBonus":9,"perTrialBonus":0.5,"perTrialBonusThreshold":0.05,"exampleCost":0.02},"classroomParams":{"A":{"a":1,"b":4},"B":{"a":4,"b":1},"C":{"a":2,"b":8},"D":{"a":8,"b":2}},"conditions":["nonSeqFull","nonSeqPartial","seqNoFeedback","seqFeedback"],"classroomPairings":[["A","B"],["C","D"]],"coinWeights":[0.2,0.5,0.8],"subjectId":"A2S64AUN7JI7ZS","assignmentId":"3PIWWX1FJKSPI3JJ6VOUP2J2MFQJJQ","hitId":"3QGHA0EA0JM3KKNCY0PQRLYAHLBWBE","url":"https://gershmanlab.com/experiments/alicia/teaching/experiment/?hitId=3QGHA0EA0JM3KKNCY0PQRLYAHLBWBE&workerId=A2S64AUN7JI7ZS&assignmentId=3PIWWX1FJKSPI3JJ6VOUP2J2MFQJJQ&a=FWIP3&tp_a=FWIP3&b=3PIWWX1FJKSPI3JJ6VOUP2J2MFQJJQ&tp_b=3PIWWX1FJKSPI3JJ6VOUP2J2MFQJJQ&c=365633&tp_c=365633","firstResponseHeads":1,"firstResponseTails":4,"secondResponseHeads":1,"secondResponseTails":4,"totalHeads":2,"totalTails":8,"studentIndex":18,"studentTrueHypers":{"a":4,"b":1},"studentGuess":0.4,"delta":0.2,"bonus":0,"bonusSoFar":2.6,"totalExamples":10},{"rt":1799,"response":{"heads":"5","tails":"5"},"type":"response","condition":"seqFeedback","trueTheta":0.5,"classrooms":["C","D"],"studentTrueClassroom":"D","exampleSet":"first","trial_type":"survey-html-form","trial_index":173,"time_elapsed":1497504,"internal_node_id":"0.0-148.0-0.0","params":{"nStudents":24,"maxFlips":25,"completionMinutes":45,"basePay":8,"maxBonus":9,"perTrialBonus":0.5,"perTrialBonusThreshold":0.05,"exampleCost":0.02},"classroomParams":{"A":{"a":1,"b":4},"B":{"a":4,"b":1},"C":{"a":2,"b":8},"D":{"a":8,"b":2}},"conditions":["nonSeqFull","nonSeqPartial","seqNoFeedback","seqFeedback"],"classroomPairings":[["A","B"],["C","D"]],"coinWeights":[0.2,0.5,0.8],"subjectId":"A2S64AUN7JI7ZS","assignmentId":"3PIWWX1FJKSPI3JJ6VOUP2J2MFQJJQ","hitId":"3QGHA0EA0JM3KKNCY0PQRLYAHLBWBE","url":"https://gershmanlab.com/experiments/alicia/teaching/experiment/?hitId=3QGHA0EA0JM3KKNCY0PQRLYAHLBWBE&workerId=A2S64AUN7JI7ZS&assignmentId=3PIWWX1FJKSPI3JJ6VOUP2J2MFQJJQ&a=FWIP3&tp_a=FWIP3&b=3PIWWX1FJKSPI3JJ6VOUP2J2MFQJJQ&tp_b=3PIWWX1FJKSPI3JJ6VOUP2J2MFQJJQ&c=365633&tp_c=365633","heads":5,"tails":5,"studentIndex":19,"studentTrueHypers":{"a":8,"b":2},"studentGuess":0.65,"delta":0.15000000000000002,"totalExamples":10,"bonusSoFar":2.6},{"rt":3599,"response":{"heads":"5","tails":"5"},"type":"response","condition":"seqFeedback","trueTheta":0.5,"classrooms":["C","D"],"studentTrueClassroom":"D","exampleSet":"second","trial_type":"survey-html-form","trial_index":177,"time_elapsed":1509115,"internal_node_id":"0.0-152.0-0.0","params":{"nStudents":24,"maxFlips":25,"completionMinutes":45,"basePay":8,"maxBonus":9,"perTrialBonus":0.5,"perTrialBonusThreshold":0.05,"exampleCost":0.02},"classroomParams":{"A":{"a":1,"b":4},"B":{"a":4,"b":1},"C":{"a":2,"b":8},"D":{"a":8,"b":2}},"conditions":["nonSeqFull","nonSeqPartial","seqNoFeedback","seqFeedback"],"classroomPairings":[["A","B"],["C","D"]],"coinWeights":[0.2,0.5,0.8],"subjectId":"A2S64AUN7JI7ZS","assignmentId":"3PIWWX1FJKSPI3JJ6VOUP2J2MFQJJQ","hitId":"3QGHA0EA0JM3KKNCY0PQRLYAHLBWBE","url":"https://gershmanlab.com/experiments/alicia/teaching/experiment/?hitId=3QGHA0EA0JM3KKNCY0PQRLYAHLBWBE&workerId=A2S64AUN7JI7ZS&assignmentId=3PIWWX1FJKSPI3JJ6VOUP2J2MFQJJQ&a=FWIP3&tp_a=FWIP3&b=3PIWWX1FJKSPI3JJ6VOUP2J2MFQJJQ&tp_b=3PIWWX1FJKSPI3JJ6VOUP2J2MFQJJQ&c=365633&tp_c=365633","firstResponseHeads":5,"firstResponseTails":5,"secondResponseHeads":5,"secondResponseTails":5,"totalHeads":10,"totalTails":10,"studentIndex":19,"studentTrueHypers":{"a":8,"b":2},"studentGuess":0.6,"delta":0.09999999999999998,"bonus":0,"bonusSoFar":2.6,"totalExamples":20},{"rt":2324,"response":{"heads":"2","tails":"8"},"type":"response","condition":"seqFeedback","trueTheta":0.2,"classrooms":["C","D"],"studentTrueClassroom":"D","exampleSet":"first","trial_type":"survey-html-form","trial_index":183,"time_elapsed":1523109,"internal_node_id":"0.0-158.0-0.0","params":{"nStudents":24,"maxFlips":25,"completionMinutes":45,"basePay":8,"maxBonus":9,"perTrialBonus":0.5,"perTrialBonusThreshold":0.05,"exampleCost":0.02},"classroomParams":{"A":{"a":1,"b":4},"B":{"a":4,"b":1},"C":{"a":2,"b":8},"D":{"a":8,"b":2}},"conditions":["nonSeqFull","nonSeqPartial","seqNoFeedback","seqFeedback"],"classroomPairings":[["A","B"],["C","D"]],"coinWeights":[0.2,0.5,0.8],"subjectId":"A2S64AUN7JI7ZS","assignmentId":"3PIWWX1FJKSPI3JJ6VOUP2J2MFQJJQ","hitId":"3QGHA0EA0JM3KKNCY0PQRLYAHLBWBE","url":"https://gershmanlab.com/experiments/alicia/teaching/experiment/?hitId=3QGHA0EA0JM3KKNCY0PQRLYAHLBWBE&workerId=A2S64AUN7JI7ZS&assignmentId=3PIWWX1FJKSPI3JJ6VOUP2J2MFQJJQ&a=FWIP3&tp_a=FWIP3&b=3PIWWX1FJKSPI3JJ6VOUP2J2MFQJJQ&tp_b=3PIWWX1FJKSPI3JJ6VOUP2J2MFQJJQ&c=365633&tp_c=365633","heads":2,"tails":8,"studentIndex":20,"studentTrueHypers":{"a":8,"b":2},"studentGuess":0.5,"delta":0.3,"totalExamples":10,"bonusSoFar":2.6},{"rt":2279,"response":{"heads":"1","tails":"4"},"type":"response","condition":"seqFeedback","trueTheta":0.2,"classrooms":["C","D"],"studentTrueClassroom":"D","exampleSet":"second","trial_type":"survey-html-form","trial_index":187,"time_elapsed":1532545,"internal_node_id":"0.0-162.0-0.0","params":{"nStudents":24,"maxFlips":25,"completionMinutes":45,"basePay":8,"maxBonus":9,"perTrialBonus":0.5,"perTrialBonusThreshold":0.05,"exampleCost":0.02},"classroomParams":{"A":{"a":1,"b":4},"B":{"a":4,"b":1},"C":{"a":2,"b":8},"D":{"a":8,"b":2}},"conditions":["nonSeqFull","nonSeqPartial","seqNoFeedback","seqFeedback"],"classroomPairings":[["A","B"],["C","D"]],"coinWeights":[0.2,0.5,0.8],"subjectId":"A2S64AUN7JI7ZS","assignmentId":"3PIWWX1FJKSPI3JJ6VOUP2J2MFQJJQ","hitId":"3QGHA0EA0JM3KKNCY0PQRLYAHLBWBE","url":"https://gershmanlab.com/experiments/alicia/teaching/experiment/?hitId=3QGHA0EA0JM3KKNCY0PQRLYAHLBWBE&workerId=A2S64AUN7JI7ZS&assignmentId=3PIWWX1FJKSPI3JJ6VOUP2J2MFQJJQ&a=FWIP3&tp_a=FWIP3&b=3PIWWX1FJKSPI3JJ6VOUP2J2MFQJJQ&tp_b=3PIWWX1FJKSPI3JJ6VOUP2J2MFQJJQ&c=365633&tp_c=365633","firstResponseHeads":2,"firstResponseTails":8,"secondResponseHeads":1,"secondResponseTails":4,"totalHeads":3,"totalTails":12,"studentIndex":20,"studentTrueHypers":{"a":8,"b":2},"studentGuess":0.44,"delta":0.24,"bonus":0,"bonusSoFar":2.6,"totalExamples":15},{"rt":4454,"response":{"heads":"8","tails":"2"},"type":"response","condition":"nonSeqFull","trueTheta":0.8,"classrooms":["C","D"],"studentTrueClassroom":"C","exampleSet":"first","trial_type":"survey-html-form","trial_index":193,"time_elapsed":1548879,"internal_node_id":"0.0-168.0-0.0","params":{"nStudents":24,"maxFlips":25,"completionMinutes":45,"basePay":8,"maxBonus":9,"perTrialBonus":0.5,"perTrialBonusThreshold":0.05,"exampleCost":0.02},"classroomParams":{"A":{"a":1,"b":4},"B":{"a":4,"b":1},"C":{"a":2,"b":8},"D":{"a":8,"b":2}},"conditions":["nonSeqFull","nonSeqPartial","seqNoFeedback","seqFeedback"],"classroomPairings":[["A","B"],["C","D"]],"coinWeights":[0.2,0.5,0.8],"subjectId":"A2S64AUN7JI7ZS","assignmentId":"3PIWWX1FJKSPI3JJ6VOUP2J2MFQJJQ","hitId":"3QGHA0EA0JM3KKNCY0PQRLYAHLBWBE","url":"https://gershmanlab.com/experiments/alicia/teaching/experiment/?hitId=3QGHA0EA0JM3KKNCY0PQRLYAHLBWBE&workerId=A2S64AUN7JI7ZS&assignmentId=3PIWWX1FJKSPI3JJ6VOUP2J2MFQJJQ&a=FWIP3&tp_a=FWIP3&b=3PIWWX1FJKSPI3JJ6VOUP2J2MFQJJQ&tp_b=3PIWWX1FJKSPI3JJ6VOUP2J2MFQJJQ&c=365633&tp_c=365633","heads":8,"tails":2,"studentIndex":21,"studentTrueHypers":{"a":2,"b":8},"studentGuess":0.5,"delta":0.30000000000000004,"totalExamples":10,"bonus":0,"bonusSoFar":2.6},{"rt":1845,"response":{"heads":"2","tails":"8"},"type":"response","condition":"seqNoFeedback","trueTheta":0.2,"classrooms":["C","D"],"studentTrueClassroom":"C","exampleSet":"first","trial_type":"survey-html-form","trial_index":199,"time_elapsed":1562590,"internal_node_id":"0.0-174.0-0.0","params":{"nStudents":24,"maxFlips":25,"completionMinutes":45,"basePay":8,"maxBonus":9,"perTrialBonus":0.5,"perTrialBonusThreshold":0.05,"exampleCost":0.02},"classroomParams":{"A":{"a":1,"b":4},"B":{"a":4,"b":1},"C":{"a":2,"b":8},"D":{"a":8,"b":2}},"conditions":["nonSeqFull","nonSeqPartial","seqNoFeedback","seqFeedback"],"classroomPairings":[["A","B"],["C","D"]],"coinWeights":[0.2,0.5,0.8],"subjectId":"A2S64AUN7JI7ZS","assignmentId":"3PIWWX1FJKSPI3JJ6VOUP2J2MFQJJQ","hitId":"3QGHA0EA0JM3KKNCY0PQRLYAHLBWBE","url":"https://gershmanlab.com/experiments/alicia/teaching/experiment/?hitId=3QGHA0EA0JM3KKNCY0PQRLYAHLBWBE&workerId=A2S64AUN7JI7ZS&assignmentId=3PIWWX1FJKSPI3JJ6VOUP2J2MFQJJQ&a=FWIP3&tp_a=FWIP3&b=3PIWWX1FJKSPI3JJ6VOUP2J2MFQJJQ&tp_b=3PIWWX1FJKSPI3JJ6VOUP2J2MFQJJQ&c=365633&tp_c=365633","heads":2,"tails":8,"studentIndex":22,"studentTrueHypers":{"a":2,"b":8},"studentGuess":0.2,"delta":0,"totalExamples":10,"bonusSoFar":2.6},{"rt":2328,"response":{"heads":"2","tails":"8"},"type":"response","condition":"seqNoFeedback","trueTheta":0.2,"classrooms":["C","D"],"studentTrueClassroom":"C","exampleSet":"second","trial_type":"survey-html-form","trial_index":202,"time_elapsed":1572175,"internal_node_id":"0.0-177.0-0.0","params":{"nStudents":24,"maxFlips":25,"completionMinutes":45,"basePay":8,"maxBonus":9,"perTrialBonus":0.5,"perTrialBonusThreshold":0.05,"exampleCost":0.02},"classroomParams":{"A":{"a":1,"b":4},"B":{"a":4,"b":1},"C":{"a":2,"b":8},"D":{"a":8,"b":2}},"conditions":["nonSeqFull","nonSeqPartial","seqNoFeedback","seqFeedback"],"classroomPairings":[["A","B"],["C","D"]],"coinWeights":[0.2,0.5,0.8],"subjectId":"A2S64AUN7JI7ZS","assignmentId":"3PIWWX1FJKSPI3JJ6VOUP2J2MFQJJQ","hitId":"3QGHA0EA0JM3KKNCY0PQRLYAHLBWBE","url":"https://gershmanlab.com/experiments/alicia/teaching/experiment/?hitId=3QGHA0EA0JM3KKNCY0PQRLYAHLBWBE&workerId=A2S64AUN7JI7ZS&assignmentId=3PIWWX1FJKSPI3JJ6VOUP2J2MFQJJQ&a=FWIP3&tp_a=FWIP3&b=3PIWWX1FJKSPI3JJ6VOUP2J2MFQJJQ&tp_b=3PIWWX1FJKSPI3JJ6VOUP2J2MFQJJQ&c=365633&tp_c=365633","firstResponseHeads":2,"firstResponseTails":8,"secondResponseHeads":2,"secondResponseTails":8,"totalHeads":4,"totalTails":16,"studentIndex":22,"studentTrueHypers":{"a":2,"b":8},"studentGuess":0.2,"delta":0,"bonus":0.1,"bonusSoFar":2.7,"totalExamples":20},{"rt":3539,"response":{"heads":"5","tails":"5"},"type":"response","condition":"seqNoFeedback","trueTheta":0.5,"classrooms":["A","B"],"studentTrueClassroom":"A","exampleSet":"first","trial_type":"survey-html-form","trial_index":208,"time_elapsed":1587595,"internal_node_id":"0.0-183.0-0.0","params":{"nStudents":24,"maxFlips":25,"completionMinutes":45,"basePay":8,"maxBonus":9,"perTrialBonus":0.5,"perTrialBonusThreshold":0.05,"exampleCost":0.02},"classroomParams":{"A":{"a":1,"b":4},"B":{"a":4,"b":1},"C":{"a":2,"b":8},"D":{"a":8,"b":2}},"conditions":["nonSeqFull","nonSeqPartial","seqNoFeedback","seqFeedback"],"classroomPairings":[["A","B"],["C","D"]],"coinWeights":[0.2,0.5,0.8],"subjectId":"A2S64AUN7JI7ZS","assignmentId":"3PIWWX1FJKSPI3JJ6VOUP2J2MFQJJQ","hitId":"3QGHA0EA0JM3KKNCY0PQRLYAHLBWBE","url":"https://gershmanlab.com/experiments/alicia/teaching/experiment/?hitId=3QGHA0EA0JM3KKNCY0PQRLYAHLBWBE&workerId=A2S64AUN7JI7ZS&assignmentId=3PIWWX1FJKSPI3JJ6VOUP2J2MFQJJQ&a=FWIP3&tp_a=FWIP3&b=3PIWWX1FJKSPI3JJ6VOUP2J2MFQJJQ&tp_b=3PIWWX1FJKSPI3JJ6VOUP2J2MFQJJQ&c=365633&tp_c=365633","heads":5,"tails":5,"studentIndex":23,"studentTrueHypers":{"a":1,"b":4},"studentGuess":0.4,"delta":0.09999999999999998,"totalExamples":10,"bonusSoFar":2.7},{"rt":4138,"response":{"heads":"5","tails":"5"},"type":"response","condition":"seqNoFeedback","trueTheta":0.5,"classrooms":["A","B"],"studentTrueClassroom":"A","exampleSet":"second","trial_type":"survey-html-form","trial_index":211,"time_elapsed":1599490,"internal_node_id":"0.0-186.0-0.0","params":{"nStudents":24,"maxFlips":25,"completionMinutes":45,"basePay":8,"maxBonus":9,"perTrialBonus":0.5,"perTrialBonusThreshold":0.05,"exampleCost":0.02},"classroomParams":{"A":{"a":1,"b":4},"B":{"a":4,"b":1},"C":{"a":2,"b":8},"D":{"a":8,"b":2}},"conditions":["nonSeqFull","nonSeqPartial","seqNoFeedback","seqFeedback"],"classroomPairings":[["A","B"],["C","D"]],"coinWeights":[0.2,0.5,0.8],"subjectId":"A2S64AUN7JI7ZS","assignmentId":"3PIWWX1FJKSPI3JJ6VOUP2J2MFQJJQ","hitId":"3QGHA0EA0JM3KKNCY0PQRLYAHLBWBE","url":"https://gershmanlab.com/experiments/alicia/teaching/experiment/?hitId=3QGHA0EA0JM3KKNCY0PQRLYAHLBWBE&workerId=A2S64AUN7JI7ZS&assignmentId=3PIWWX1FJKSPI3JJ6VOUP2J2MFQJJQ&a=FWIP3&tp_a=FWIP3&b=3PIWWX1FJKSPI3JJ6VOUP2J2MFQJJQ&tp_b=3PIWWX1FJKSPI3JJ6VOUP2J2MFQJJQ&c=365633&tp_c=365633","firstResponseHeads":5,"firstResponseTails":5,"secondResponseHeads":5,"secondResponseTails":5,"totalHeads":10,"totalTails":10,"studentIndex":23,"studentTrueHypers":{"a":1,"b":4},"studentGuess":0.44,"delta":0.06,"bonus":0,"bonusSoFar":2.7,"totalExamples":20},{"rt":22741,"response":{"gender":"male","age":"44","understood":"yes","comments":"Thank youi"},"type":"response","trial_type":"survey-html-form","trial_index":215,"time_elapsed":1629507,"internal_node_id":"0.0-191.0","params":{"nStudents":24,"maxFlips":25,"completionMinutes":45,"basePay":8,"maxBonus":9,"perTrialBonus":0.5,"perTrialBonusThreshold":0.05,"exampleCost":0.02},"classroomParams":{"A":{"a":1,"b":4},"B":{"a":4,"b":1},"C":{"a":2,"b":8},"D":{"a":8,"b":2}},"conditions":["nonSeqFull","nonSeqPartial","seqNoFeedback","seqFeedback"],"classroomPairings":[["A","B"],["C","D"]],"coinWeights":[0.2,0.5,0.8],"subjectId":"A2S64AUN7JI7ZS","assignmentId":"3PIWWX1FJKSPI3JJ6VOUP2J2MFQJJQ","hitId":"3QGHA0EA0JM3KKNCY0PQRLYAHLBWBE","url":"https://gershmanlab.com/experiments/alicia/teaching/experiment/?hitId=3QGHA0EA0JM3KKNCY0PQRLYAHLBWBE&workerId=A2S64AUN7JI7ZS&assignmentId=3PIWWX1FJKSPI3JJ6VOUP2J2MFQJJQ&a=FWIP3&tp_a=FWIP3&b=3PIWWX1FJKSPI3JJ6VOUP2J2MFQJJQ&tp_b=3PIWWX1FJKSPI3JJ6VOUP2J2MFQJJQ&c=365633&tp_c=365633","totalBonus":2.7}]