[{"rt":21452,"response":{"heads":"10","tails":"15"},"type":"response","condition":"nonSeqFull","trueTheta":0.2,"classrooms":["C","D"],"studentTrueClassroom":"D","exampleSet":"first","trial_type":"survey-html-form","trial_index":7,"time_elapsed":958025,"internal_node_id":"0.0-6.0-0.0","params":{"nStudents":24,"maxFlips":25,"completionMinutes":45,"basePay":8,"maxBonus":9,"perTrialBonus":0.5,"perTrialBonusThreshold":0.05,"exampleCost":0.02},"classroomParams":{"A":{"a":1,"b":4},"B":{"a":4,"b":1},"C":{"a":2,"b":8},"D":{"a":8,"b":2}},"conditions":["nonSeqFull","nonSeqPartial","seqNoFeedback","seqFeedback"],"classroomPairings":[["A","B"],["C","D"]],"coinWeights":[0.2,0.5,0.8],"subjectId":"A2UR8ZKKO51K5N","assignmentId":"3RRCEFRB7NYTX22MFWO9LCB6WDR4BZ","hitId":"3IH9TRB0FBLK6RLF7MSMKICTGYN1IU","url":"https://gershmanlab.com/experiments/alicia/teaching/experiment/?hitId=3IH9TRB0FBLK6RLF7MSMKICTGYN1IU&workerId=A2UR8ZKKO51K5N&assignmentId=3RRCEFRB7NYTX22MFWO9LCB6WDR4BZ&a=BERR3&tp_a=BERR3&b=3RRCEFRB7NYTX22MFWO9LCB6WDR4BZ&tp_b=3RRCEFRB7NYTX22MFWO9LCB6WDR4BZ&c=365633&tp_c=365633","heads":10,"tails":15,"studentIndex":0,"studentTrueHypers":{"a":8,"b":2},"studentGuess":0.5142857142857142,"delta":0.3142857142857142,"totalExamples":25,"bonus":0,"bonusSoFar":0},{"rt":12836,"response":{"heads":"10","tails":"10"},"type":"response","condition":"seqFeedback","trueTheta":0.2,"classrooms":["A","B"],"studentTrueClassroom":"B","exampleSet":"first","trial_type":"survey-html-form","trial_index":13,"time_elapsed":1002595,"internal_node_id":"0.0-12.0-0.0","params":{"nStudents":24,"maxFlips":25,"completionMinutes":45,"basePay":8,"maxBonus":9,"perTrialBonus":0.5,"perTrialBonusThreshold":0.05,"exampleCost":0.02},"classroomParams":{"A":{"a":1,"b":4},"B":{"a":4,"b":1},"C":{"a":2,"b":8},"D":{"a":8,"b":2}},"conditions":["nonSeqFull","nonSeqPartial","seqNoFeedback","seqFeedback"],"classroomPairings":[["A","B"],["C","D"]],"coinWeights":[0.2,0.5,0.8],"subjectId":"A2UR8ZKKO51K5N","assignmentId":"3RRCEFRB7NYTX22MFWO9LCB6WDR4BZ","hitId":"3IH9TRB0FBLK6RLF7MSMKICTGYN1IU","url":"https://gershmanlab.com/experiments/alicia/teaching/experiment/?hitId=3IH9TRB0FBLK6RLF7MSMKICTGYN1IU&workerId=A2UR8ZKKO51K5N&assignmentId=3RRCEFRB7NYTX22MFWO9LCB6WDR4BZ&a=BERR3&tp_a=BERR3&b=3RRCEFRB7NYTX22MFWO9LCB6WDR4BZ&tp_b=3RRCEFRB7NYTX22MFWO9LCB6WDR4BZ&c=365633&tp_c=365633","heads":10,"tails":10,"studentIndex":1,"studentTrueHypers":{"a":4,"b":1},"studentGuess":0.56,"delta":0.36000000000000004,"totalExamples":20,"bonusSoFar":0},{"rt":63838,"response":{"heads":"5","tails":"10"},"type":"response","condition":"seqFeedback","trueTheta":0.2,"classrooms":["A","B"],"studentTrueClassroom":"B","exampleSet":"second","trial_type":"survey-html-form","trial_index":17,"time_elapsed":1104144,"internal_node_id":"0.0-16.0-0.0","params":{"nStudents":24,"maxFlips":25,"completionMinutes":45,"basePay":8,"maxBonus":9,"perTrialBonus":0.5,"perTrialBonusThreshold":0.05,"exampleCost":0.02},"classroomParams":{"A":{"a":1,"b":4},"B":{"a":4,"b":1},"C":{"a":2,"b":8},"D":{"a":8,"b":2}},"conditions":["nonSeqFull","nonSeqPartial","seqNoFeedback","seqFeedback"],"classroomPairings":[["A","B"],["C","D"]],"coinWeights":[0.2,0.5,0.8],"subjectId":"A2UR8ZKKO51K5N","assignmentId":"3RRCEFRB7NYTX22MFWO9LCB6WDR4BZ","hitId":"3IH9TRB0FBLK6RLF7MSMKICTGYN1IU","url":"https://gershmanlab.com/experiments/alicia/teaching/experiment/?hitId=3IH9TRB0FBLK6RLF7MSMKICTGYN1IU&workerId=A2UR8ZKKO51K5N&assignmentId=3RRCEFRB7NYTX22MFWO9LCB6WDR4BZ&a=BERR3&tp_a=BERR3&b=3RRCEFRB7NYTX22MFWO9LCB6WDR4BZ&tp_b=3RRCEFRB7NYTX22MFWO9LCB6WDR4BZ&c=365633&tp_c=365633","firstResponseHeads":10,"firstResponseTails":10,"secondResponseHeads":5,"secondResponseTails":10,"totalHeads":15,"totalTails":20,"studentIndex":1,"studentTrueHypers":{"a":4,"b":1},"studentGuess":0.475,"delta":0.27499999999999997,"bonus":0,"bonusSoFar":0,"totalExamples":35},{"rt":12056,"response":{"heads":"15","tails":"10"},"type":"response","condition":"seqNoFeedback","trueTheta":0.8,"classrooms":["A","B"],"studentTrueClassroom":"B","exampleSet":"first","trial_type":"survey-html-form","trial_index":23,"time_elapsed":1164253,"internal_node_id":"0.0-22.0-0.0","params":{"nStudents":24,"maxFlips":25,"completionMinutes":45,"basePay":8,"maxBonus":9,"perTrialBonus":0.5,"perTrialBonusThreshold":0.05,"exampleCost":0.02},"classroomParams":{"A":{"a":1,"b":4},"B":{"a":4,"b":1},"C":{"a":2,"b":8},"D":{"a":8,"b":2}},"conditions":["nonSeqFull","nonSeqPartial","seqNoFeedback","seqFeedback"],"classroomPairings":[["A","B"],["C","D"]],"coinWeights":[0.2,0.5,0.8],"subjectId":"A2UR8ZKKO51K5N","assignmentId":"3RRCEFRB7NYTX22MFWO9LCB6WDR4BZ","hitId":"3IH9TRB0FBLK6RLF7MSMKICTGYN1IU","url":"https://gershmanlab.com/experiments/alicia/teaching/experiment/?hitId=3IH9TRB0FBLK6RLF7MSMKICTGYN1IU&workerId=A2UR8ZKKO51K5N&assignmentId=3RRCEFRB7NYTX22MFWO9LCB6WDR4BZ&a=BERR3&tp_a=BERR3&b=3RRCEFRB7NYTX22MFWO9LCB6WDR4BZ&tp_b=3RRCEFRB7NYTX22MFWO9LCB6WDR4BZ&c=365633&tp_c=365633","heads":15,"tails":10,"studentIndex":2,"studentTrueHypers":{"a":4,"b":1},"studentGuess":0.6333333333333333,"delta":0.16666666666666674,"totalExamples":25,"bonusSoFar":0},{"rt":10340,"response":{"heads":"25","tails":"0"},"type":"response","condition":"seqNoFeedback","trueTheta":0.8,"classrooms":["A","B"],"studentTrueClassroom":"B","exampleSet":"second","trial_type":"survey-html-form","trial_index":26,"time_elapsed":1181385,"internal_node_id":"0.0-25.0-0.0","params":{"nStudents":24,"maxFlips":25,"completionMinutes":45,"basePay":8,"maxBonus":9,"perTrialBonus":0.5,"perTrialBonusThreshold":0.05,"exampleCost":0.02},"classroomParams":{"A":{"a":1,"b":4},"B":{"a":4,"b":1},"C":{"a":2,"b":8},"D":{"a":8,"b":2}},"conditions":["nonSeqFull","nonSeqPartial","seqNoFeedback","seqFeedback"],"classroomPairings":[["A","B"],["C","D"]],"coinWeights":[0.2,0.5,0.8],"subjectId":"A2UR8ZKKO51K5N","assignmentId":"3RRCEFRB7NYTX22MFWO9LCB6WDR4BZ","hitId":"3IH9TRB0FBLK6RLF7MSMKICTGYN1IU","url":"https://gershmanlab.com/experiments/alicia/teaching/experiment/?hitId=3IH9TRB0FBLK6RLF7MSMKICTGYN1IU&workerId=A2UR8ZKKO51K5N&assignmentId=3RRCEFRB7NYTX22MFWO9LCB6WDR4BZ&a=BERR3&tp_a=BERR3&b=3RRCEFRB7NYTX22MFWO9LCB6WDR4BZ&tp_b=3RRCEFRB7NYTX22MFWO9LCB6WDR4BZ&c=365633&tp_c=365633","firstResponseHeads":15,"firstResponseTails":10,"secondResponseHeads":25,"secondResponseTails":0,"totalHeads":40,"totalTails":10,"studentIndex":2,"studentTrueHypers":{"a":4,"b":1},"studentGuess":0.8,"delta":0,"bonus":0,"bonusSoFar":0,"totalExamples":50},{"rt":100609,"response":{"heads":"2","tails":"2"},"type":"response","condition":"seqNoFeedback","trueTheta":0.5,"classrooms":["A","B"],"studentTrueClassroom":"A","exampleSet":"first","trial_type":"survey-html-form","trial_index":32,"time_elapsed":1321163,"internal_node_id":"0.0-31.0-0.0","params":{"nStudents":24,"maxFlips":25,"completionMinutes":45,"basePay":8,"maxBonus":9,"perTrialBonus":0.5,"perTrialBonusThreshold":0.05,"exampleCost":0.02},"classroomParams":{"A":{"a":1,"b":4},"B":{"a":4,"b":1},"C":{"a":2,"b":8},"D":{"a":8,"b":2}},"conditions":["nonSeqFull","nonSeqPartial","seqNoFeedback","seqFeedback"],"classroomPairings":[["A","B"],["C","D"]],"coinWeights":[0.2,0.5,0.8],"subjectId":"A2UR8ZKKO51K5N","assignmentId":"3RRCEFRB7NYTX22MFWO9LCB6WDR4BZ","hitId":"3IH9TRB0FBLK6RLF7MSMKICTGYN1IU","url":"https://gershmanlab.com/experiments/alicia/teaching/experiment/?hitId=3IH9TRB0FBLK6RLF7MSMKICTGYN1IU&workerId=A2UR8ZKKO51K5N&assignmentId=3RRCEFRB7NYTX22MFWO9LCB6WDR4BZ&a=BERR3&tp_a=BERR3&b=3RRCEFRB7NYTX22MFWO9LCB6WDR4BZ&tp_b=3RRCEFRB7NYTX22MFWO9LCB6WDR4BZ&c=365633&tp_c=365633","heads":2,"tails":2,"studentIndex":3,"studentTrueHypers":{"a":1,"b":4},"studentGuess":0.3333333333333333,"delta":0.16666666666666669,"totalExamples":4,"bonusSoFar":0},{"rt":14930,"response":{"heads":"10","tails":"20"},"type":"response","condition":"seqNoFeedback","trueTheta":0.5,"classrooms":["A","B"],"studentTrueClassroom":"A","exampleSet":"second","trial_type":"survey-html-form","trial_index":35,"time_elapsed":1343366,"internal_node_id":"0.0-34.0-0.0","params":{"nStudents":24,"maxFlips":25,"completionMinutes":45,"basePay":8,"maxBonus":9,"perTrialBonus":0.5,"perTrialBonusThreshold":0.05,"exampleCost":0.02},"classroomParams":{"A":{"a":1,"b":4},"B":{"a":4,"b":1},"C":{"a":2,"b":8},"D":{"a":8,"b":2}},"conditions":["nonSeqFull","nonSeqPartial","seqNoFeedback","seqFeedback"],"classroomPairings":[["A","B"],["C","D"]],"coinWeights":[0.2,0.5,0.8],"subjectId":"A2UR8ZKKO51K5N","assignmentId":"3RRCEFRB7NYTX22MFWO9LCB6WDR4BZ","hitId":"3IH9TRB0FBLK6RLF7MSMKICTGYN1IU","url":"https://gershmanlab.com/experiments/alicia/teaching/experiment/?hitId=3IH9TRB0FBLK6RLF7MSMKICTGYN1IU&workerId=A2UR8ZKKO51K5N&assignmentId=3RRCEFRB7NYTX22MFWO9LCB6WDR4BZ&a=BERR3&tp_a=BERR3&b=3RRCEFRB7NYTX22MFWO9LCB6WDR4BZ&tp_b=3RRCEFRB7NYTX22MFWO9LCB6WDR4BZ&c=365633&tp_c=365633","firstResponseHeads":2,"firstResponseTails":2,"secondResponseHeads":10,"secondResponseTails":20,"totalHeads":12,"totalTails":22,"studentIndex":3,"studentTrueHypers":{"a":1,"b":4},"studentGuess":0.3333333333333333,"delta":0.16666666666666669,"bonus":0,"bonusSoFar":0,"totalExamples":34},{"rt":10544,"response":{"heads":"10","tails":"10"},"type":"response","condition":"seqNoFeedback","trueTheta":0.5,"classrooms":["A","B"],"studentTrueClassroom":"A","exampleSet":"second","trial_type":"survey-html-form","trial_index":36,"time_elapsed":1353930,"internal_node_id":"0.0-34.1-0.1","params":{"nStudents":24,"maxFlips":25,"completionMinutes":45,"basePay":8,"maxBonus":9,"perTrialBonus":0.5,"perTrialBonusThreshold":0.05,"exampleCost":0.02},"classroomParams":{"A":{"a":1,"b":4},"B":{"a":4,"b":1},"C":{"a":2,"b":8},"D":{"a":8,"b":2}},"conditions":["nonSeqFull","nonSeqPartial","seqNoFeedback","seqFeedback"],"classroomPairings":[["A","B"],["C","D"]],"coinWeights":[0.2,0.5,0.8],"subjectId":"A2UR8ZKKO51K5N","assignmentId":"3RRCEFRB7NYTX22MFWO9LCB6WDR4BZ","hitId":"3IH9TRB0FBLK6RLF7MSMKICTGYN1IU","url":"https://gershmanlab.com/experiments/alicia/teaching/experiment/?hitId=3IH9TRB0FBLK6RLF7MSMKICTGYN1IU&workerId=A2UR8ZKKO51K5N&assignmentId=3RRCEFRB7NYTX22MFWO9LCB6WDR4BZ&a=BERR3&tp_a=BERR3&b=3RRCEFRB7NYTX22MFWO9LCB6WDR4BZ&tp_b=3RRCEFRB7NYTX22MFWO9LCB6WDR4BZ&c=365633&tp_c=365633","firstResponseHeads":2,"firstResponseTails":2,"secondResponseHeads":10,"secondResponseTails":10,"totalHeads":12,"totalTails":12,"studentIndex":3,"studentTrueHypers":{"a":1,"b":4},"studentGuess":0.4482758620689655,"delta":0.051724137931034475,"bonus":0,"bonusSoFar":0,"totalExamples":24},{"rt":17295,"response":{"heads":"10","tails":"10"},"type":"response","condition":"nonSeqFull","trueTheta":0.5,"classrooms":["C","D"],"studentTrueClassroom":"C","exampleSet":"first","trial_type":"survey-html-form","trial_index":42,"time_elapsed":1383824,"internal_node_id":"0.0-40.0-0.0","params":{"nStudents":24,"maxFlips":25,"completionMinutes":45,"basePay":8,"maxBonus":9,"perTrialBonus":0.5,"perTrialBonusThreshold":0.05,"exampleCost":0.02},"classroomParams":{"A":{"a":1,"b":4},"B":{"a":4,"b":1},"C":{"a":2,"b":8},"D":{"a":8,"b":2}},"conditions":["nonSeqFull","nonSeqPartial","seqNoFeedback","seqFeedback"],"classroomPairings":[["A","B"],["C","D"]],"coinWeights":[0.2,0.5,0.8],"subjectId":"A2UR8ZKKO51K5N","assignmentId":"3RRCEFRB7NYTX22MFWO9LCB6WDR4BZ","hitId":"3IH9TRB0FBLK6RLF7MSMKICTGYN1IU","url":"https://gershmanlab.com/experiments/alicia/teaching/experiment/?hitId=3IH9TRB0FBLK6RLF7MSMKICTGYN1IU&workerId=A2UR8ZKKO51K5N&assignmentId=3RRCEFRB7NYTX22MFWO9LCB6WDR4BZ&a=BERR3&tp_a=BERR3&b=3RRCEFRB7NYTX22MFWO9LCB6WDR4BZ&tp_b=3RRCEFRB7NYTX22MFWO9LCB6WDR4BZ&c=365633&tp_c=365633","heads":10,"tails":10,"studentIndex":4,"studentTrueHypers":{"a":2,"b":8},"studentGuess":0.4,"delta":0.09999999999999998,"totalExamples":20,"bonus":0,"bonusSoFar":0},{"rt":19040,"response":{"heads":"4","tails":"1"},"type":"response","condition":"nonSeqFull","trueTheta":0.5,"classrooms":["A","B"],"studentTrueClassroom":"B","exampleSet":"first","trial_type":"survey-html-form","trial_index":48,"time_elapsed":1415935,"internal_node_id":"0.0-46.0-0.0","params":{"nStudents":24,"maxFlips":25,"completionMinutes":45,"basePay":8,"maxBonus":9,"perTrialBonus":0.5,"perTrialBonusThreshold":0.05,"exampleCost":0.02},"classroomParams":{"A":{"a":1,"b":4},"B":{"a":4,"b":1},"C":{"a":2,"b":8},"D":{"a":8,"b":2}},"conditions":["nonSeqFull","nonSeqPartial","seqNoFeedback","seqFeedback"],"classroomPairings":[["A","B"],["C","D"]],"coinWeights":[0.2,0.5,0.8],"subjectId":"A2UR8ZKKO51K5N","assignmentId":"3RRCEFRB7NYTX22MFWO9LCB6WDR4BZ","hitId":"3IH9TRB0FBLK6RLF7MSMKICTGYN1IU","url":"https://gershmanlab.com/experiments/alicia/teaching/experiment/?hitId=3IH9TRB0FBLK6RLF7MSMKICTGYN1IU&workerId=A2UR8ZKKO51K5N&assignmentId=3RRCEFRB7NYTX22MFWO9LCB6WDR4BZ&a=BERR3&tp_a=BERR3&b=3RRCEFRB7NYTX22MFWO9LCB6WDR4BZ&tp_b=3RRCEFRB7NYTX22MFWO9LCB6WDR4BZ&c=365633&tp_c=365633","heads":4,"tails":1,"studentIndex":5,"studentTrueHypers":{"a":4,"b":1},"studentGuess":0.8,"delta":0.30000000000000004,"totalExamples":5,"bonus":0,"bonusSoFar":0},{"rt":6705,"response":{"heads":"3","tails":"0"},"type":"response","condition":"nonSeqPartial","trueTheta":0.5,"classrooms":["C","D"],"studentTrueClassroom":"D","exampleSet":"first","trial_type":"survey-html-form","trial_index":54,"time_elapsed":1443692,"internal_node_id":"0.0-52.0-0.0","params":{"nStudents":24,"maxFlips":25,"completionMinutes":45,"basePay":8,"maxBonus":9,"perTrialBonus":0.5,"perTrialBonusThreshold":0.05,"exampleCost":0.02},"classroomParams":{"A":{"a":1,"b":4},"B":{"a":4,"b":1},"C":{"a":2,"b":8},"D":{"a":8,"b":2}},"conditions":["nonSeqFull","nonSeqPartial","seqNoFeedback","seqFeedback"],"classroomPairings":[["A","B"],["C","D"]],"coinWeights":[0.2,0.5,0.8],"subjectId":"A2UR8ZKKO51K5N","assignmentId":"3RRCEFRB7NYTX22MFWO9LCB6WDR4BZ","hitId":"3IH9TRB0FBLK6RLF7MSMKICTGYN1IU","url":"https://gershmanlab.com/experiments/alicia/teaching/experiment/?hitId=3IH9TRB0FBLK6RLF7MSMKICTGYN1IU&workerId=A2UR8ZKKO51K5N&assignmentId=3RRCEFRB7NYTX22MFWO9LCB6WDR4BZ&a=BERR3&tp_a=BERR3&b=3RRCEFRB7NYTX22MFWO9LCB6WDR4BZ&tp_b=3RRCEFRB7NYTX22MFWO9LCB6WDR4BZ&c=365633&tp_c=365633","heads":3,"tails":0,"studentIndex":6,"studentTrueHypers":{"a":8,"b":2},"studentGuess":0.8461538461538461,"delta":0.34615384615384615,"totalExamples":3,"bonus":0,"bonusSoFar":0},{"rt":7069,"response":{"heads":"10","tails":"5"},"type":"response","condition":"nonSeqPartial","trueTheta":0.2,"classrooms":["C","D"],"studentTrueClassroom":"D","exampleSet":"first","trial_type":"survey-html-form","trial_index":60,"time_elapsed":1463628,"internal_node_id":"0.0-58.0-0.0","params":{"nStudents":24,"maxFlips":25,"completionMinutes":45,"basePay":8,"maxBonus":9,"perTrialBonus":0.5,"perTrialBonusThreshold":0.05,"exampleCost":0.02},"classroomParams":{"A":{"a":1,"b":4},"B":{"a":4,"b":1},"C":{"a":2,"b":8},"D":{"a":8,"b":2}},"conditions":["nonSeqFull","nonSeqPartial","seqNoFeedback","seqFeedback"],"classroomPairings":[["A","B"],["C","D"]],"coinWeights":[0.2,0.5,0.8],"subjectId":"A2UR8ZKKO51K5N","assignmentId":"3RRCEFRB7NYTX22MFWO9LCB6WDR4BZ","hitId":"3IH9TRB0FBLK6RLF7MSMKICTGYN1IU","url":"https://gershmanlab.com/experiments/alicia/teaching/experiment/?hitId=3IH9TRB0FBLK6RLF7MSMKICTGYN1IU&workerId=A2UR8ZKKO51K5N&assignmentId=3RRCEFRB7NYTX22MFWO9LCB6WDR4BZ&a=BERR3&tp_a=BERR3&b=3RRCEFRB7NYTX22MFWO9LCB6WDR4BZ&tp_b=3RRCEFRB7NYTX22MFWO9LCB6WDR4BZ&c=365633&tp_c=365633","heads":10,"tails":5,"studentIndex":7,"studentTrueHypers":{"a":8,"b":2},"studentGuess":0.72,"delta":0.52,"totalExamples":15,"bonus":0,"bonusSoFar":0},{"rt":12366,"response":{"heads":"20","tails":"5"},"type":"response","condition":"nonSeqPartial","trueTheta":0.8,"classrooms":["A","B"],"studentTrueClassroom":"A","exampleSet":"first","trial_type":"survey-html-form","trial_index":66,"time_elapsed":1538817,"internal_node_id":"0.0-64.0-0.0","params":{"nStudents":24,"maxFlips":25,"completionMinutes":45,"basePay":8,"maxBonus":9,"perTrialBonus":0.5,"perTrialBonusThreshold":0.05,"exampleCost":0.02},"classroomParams":{"A":{"a":1,"b":4},"B":{"a":4,"b":1},"C":{"a":2,"b":8},"D":{"a":8,"b":2}},"conditions":["nonSeqFull","nonSeqPartial","seqNoFeedback","seqFeedback"],"classroomPairings":[["A","B"],["C","D"]],"coinWeights":[0.2,0.5,0.8],"subjectId":"A2UR8ZKKO51K5N","assignmentId":"3RRCEFRB7NYTX22MFWO9LCB6WDR4BZ","hitId":"3IH9TRB0FBLK6RLF7MSMKICTGYN1IU","url":"https://gershmanlab.com/experiments/alicia/teaching/experiment/?hitId=3IH9TRB0FBLK6RLF7MSMKICTGYN1IU&workerId=A2UR8ZKKO51K5N&assignmentId=3RRCEFRB7NYTX22MFWO9LCB6WDR4BZ&a=BERR3&tp_a=BERR3&b=3RRCEFRB7NYTX22MFWO9LCB6WDR4BZ&tp_b=3RRCEFRB7NYTX22MFWO9LCB6WDR4BZ&c=365633&tp_c=365633","heads":20,"tails":5,"studentIndex":8,"studentTrueHypers":{"a":1,"b":4},"studentGuess":0.7,"delta":0.10000000000000009,"totalExamples":25,"bonus":0,"bonusSoFar":0},{"rt":9638,"response":{"heads":"10","tails":"10"},"type":"response","condition":"seqFeedback","trueTheta":0.5,"classrooms":["C","D"],"studentTrueClassroom":"D","exampleSet":"first","trial_type":"survey-html-form","trial_index":72,"time_elapsed":1572169,"internal_node_id":"0.0-70.0-0.0","params":{"nStudents":24,"maxFlips":25,"completionMinutes":45,"basePay":8,"maxBonus":9,"perTrialBonus":0.5,"perTrialBonusThreshold":0.05,"exampleCost":0.02},"classroomParams":{"A":{"a":1,"b":4},"B":{"a":4,"b":1},"C":{"a":2,"b":8},"D":{"a":8,"b":2}},"conditions":["nonSeqFull","nonSeqPartial","seqNoFeedback","seqFeedback"],"classroomPairings":[["A","B"],["C","D"]],"coinWeights":[0.2,0.5,0.8],"subjectId":"A2UR8ZKKO51K5N","assignmentId":"3RRCEFRB7NYTX22MFWO9LCB6WDR4BZ","hitId":"3IH9TRB0FBLK6RLF7MSMKICTGYN1IU","url":"https://gershmanlab.com/experiments/alicia/teaching/experiment/?hitId=3IH9TRB0FBLK6RLF7MSMKICTGYN1IU&workerId=A2UR8ZKKO51K5N&assignmentId=3RRCEFRB7NYTX22MFWO9LCB6WDR4BZ&a=BERR3&tp_a=BERR3&b=3RRCEFRB7NYTX22MFWO9LCB6WDR4BZ&tp_b=3RRCEFRB7NYTX22MFWO9LCB6WDR4BZ&c=365633&tp_c=365633","heads":10,"tails":10,"studentIndex":9,"studentTrueHypers":{"a":8,"b":2},"studentGuess":0.6,"delta":0.09999999999999998,"totalExamples":20,"bonusSoFar":0},{"rt":15959,"response":{"heads":"8","tails":"0"},"type":"response","condition":"seqFeedback","trueTheta":0.5,"classrooms":["C","D"],"studentTrueClassroom":"D","exampleSet":"second","trial_type":"survey-html-form","trial_index":76,"time_elapsed":1606846,"internal_node_id":"0.0-74.0-0.0","params":{"nStudents":24,"maxFlips":25,"completionMinutes":45,"basePay":8,"maxBonus":9,"perTrialBonus":0.5,"perTrialBonusThreshold":0.05,"exampleCost":0.02},"classroomParams":{"A":{"a":1,"b":4},"B":{"a":4,"b":1},"C":{"a":2,"b":8},"D":{"a":8,"b":2}},"conditions":["nonSeqFull","nonSeqPartial","seqNoFeedback","seqFeedback"],"classroomPairings":[["A","B"],["C","D"]],"coinWeights":[0.2,0.5,0.8],"subjectId":"A2UR8ZKKO51K5N","assignmentId":"3RRCEFRB7NYTX22MFWO9LCB6WDR4BZ","hitId":"3IH9TRB0FBLK6RLF7MSMKICTGYN1IU","url":"https://gershmanlab.com/experiments/alicia/teaching/experiment/?hitId=3IH9TRB0FBLK6RLF7MSMKICTGYN1IU&workerId=A2UR8ZKKO51K5N&assignmentId=3RRCEFRB7NYTX22MFWO9LCB6WDR4BZ&a=BERR3&tp_a=BERR3&b=3RRCEFRB7NYTX22MFWO9LCB6WDR4BZ&tp_b=3RRCEFRB7NYTX22MFWO9LCB6WDR4BZ&c=365633&tp_c=365633","firstResponseHeads":10,"firstResponseTails":10,"secondResponseHeads":8,"secondResponseTails":0,"totalHeads":18,"totalTails":10,"studentIndex":9,"studentTrueHypers":{"a":8,"b":2},"studentGuess":0.6842105263157895,"delta":0.1842105263157895,"bonus":0,"bonusSoFar":0,"totalExamples":28},{"rt":7122,"response":{"heads":"6","tails":"6"},"type":"response","condition":"nonSeqFull","trueTheta":0.8,"classrooms":["A","B"],"studentTrueClassroom":"B","exampleSet":"first","trial_type":"survey-html-form","trial_index":82,"time_elapsed":1626151,"internal_node_id":"0.0-80.0-0.0","params":{"nStudents":24,"maxFlips":25,"completionMinutes":45,"basePay":8,"maxBonus":9,"perTrialBonus":0.5,"perTrialBonusThreshold":0.05,"exampleCost":0.02},"classroomParams":{"A":{"a":1,"b":4},"B":{"a":4,"b":1},"C":{"a":2,"b":8},"D":{"a":8,"b":2}},"conditions":["nonSeqFull","nonSeqPartial","seqNoFeedback","seqFeedback"],"classroomPairings":[["A","B"],["C","D"]],"coinWeights":[0.2,0.5,0.8],"subjectId":"A2UR8ZKKO51K5N","assignmentId":"3RRCEFRB7NYTX22MFWO9LCB6WDR4BZ","hitId":"3IH9TRB0FBLK6RLF7MSMKICTGYN1IU","url":"https://gershmanlab.com/experiments/alicia/teaching/experiment/?hitId=3IH9TRB0FBLK6RLF7MSMKICTGYN1IU&workerId=A2UR8ZKKO51K5N&assignmentId=3RRCEFRB7NYTX22MFWO9LCB6WDR4BZ&a=BERR3&tp_a=BERR3&b=3RRCEFRB7NYTX22MFWO9LCB6WDR4BZ&tp_b=3RRCEFRB7NYTX22MFWO9LCB6WDR4BZ&c=365633&tp_c=365633","heads":6,"tails":6,"studentIndex":10,"studentTrueHypers":{"a":4,"b":1},"studentGuess":0.5882352941176471,"delta":0.21176470588235297,"totalExamples":12,"bonus":0,"bonusSoFar":0},{"rt":6303,"response":{"heads":"20","tails":"0"},"type":"response","condition":"seqFeedback","trueTheta":0.8,"classrooms":["A","B"],"studentTrueClassroom":"B","exampleSet":"first","trial_type":"survey-html-form","trial_index":88,"time_elapsed":1652807,"internal_node_id":"0.0-86.0-0.0","params":{"nStudents":24,"maxFlips":25,"completionMinutes":45,"basePay":8,"maxBonus":9,"perTrialBonus":0.5,"perTrialBonusThreshold":0.05,"exampleCost":0.02},"classroomParams":{"A":{"a":1,"b":4},"B":{"a":4,"b":1},"C":{"a":2,"b":8},"D":{"a":8,"b":2}},"conditions":["nonSeqFull","nonSeqPartial","seqNoFeedback","seqFeedback"],"classroomPairings":[["A","B"],["C","D"]],"coinWeights":[0.2,0.5,0.8],"subjectId":"A2UR8ZKKO51K5N","assignmentId":"3RRCEFRB7NYTX22MFWO9LCB6WDR4BZ","hitId":"3IH9TRB0FBLK6RLF7MSMKICTGYN1IU","url":"https://gershmanlab.com/experiments/alicia/teaching/experiment/?hitId=3IH9TRB0FBLK6RLF7MSMKICTGYN1IU&workerId=A2UR8ZKKO51K5N&assignmentId=3RRCEFRB7NYTX22MFWO9LCB6WDR4BZ&a=BERR3&tp_a=BERR3&b=3RRCEFRB7NYTX22MFWO9LCB6WDR4BZ&tp_b=3RRCEFRB7NYTX22MFWO9LCB6WDR4BZ&c=365633&tp_c=365633","heads":20,"tails":0,"studentIndex":11,"studentTrueHypers":{"a":4,"b":1},"studentGuess":0.96,"delta":0.15999999999999992,"totalExamples":20,"bonusSoFar":0},{"rt":5513,"response":{"heads":"25","tails":"0"},"type":"response","condition":"seqFeedback","trueTheta":0.8,"classrooms":["A","B"],"studentTrueClassroom":"B","exampleSet":"second","trial_type":"survey-html-form","trial_index":92,"time_elapsed":1666501,"internal_node_id":"0.0-90.0-0.0","params":{"nStudents":24,"maxFlips":25,"completionMinutes":45,"basePay":8,"maxBonus":9,"perTrialBonus":0.5,"perTrialBonusThreshold":0.05,"exampleCost":0.02},"classroomParams":{"A":{"a":1,"b":4},"B":{"a":4,"b":1},"C":{"a":2,"b":8},"D":{"a":8,"b":2}},"conditions":["nonSeqFull","nonSeqPartial","seqNoFeedback","seqFeedback"],"classroomPairings":[["A","B"],["C","D"]],"coinWeights":[0.2,0.5,0.8],"subjectId":"A2UR8ZKKO51K5N","assignmentId":"3RRCEFRB7NYTX22MFWO9LCB6WDR4BZ","hitId":"3IH9TRB0FBLK6RLF7MSMKICTGYN1IU","url":"https://gershmanlab.com/experiments/alicia/teaching/experiment/?hitId=3IH9TRB0FBLK6RLF7MSMKICTGYN1IU&workerId=A2UR8ZKKO51K5N&assignmentId=3RRCEFRB7NYTX22MFWO9LCB6WDR4BZ&a=BERR3&tp_a=BERR3&b=3RRCEFRB7NYTX22MFWO9LCB6WDR4BZ&tp_b=3RRCEFRB7NYTX22MFWO9LCB6WDR4BZ&c=365633&tp_c=365633","firstResponseHeads":20,"firstResponseTails":0,"secondResponseHeads":25,"secondResponseTails":0,"totalHeads":45,"totalTails":0,"studentIndex":11,"studentTrueHypers":{"a":4,"b":1},"studentGuess":0.98,"delta":0.17999999999999994,"bonus":0,"bonusSoFar":0,"totalExamples":45},{"rt":13887,"response":{"heads":"20","tails":"6"},"type":"response","condition":"seqFeedback","trueTheta":0.8,"classrooms":["C","D"],"studentTrueClassroom":"D","exampleSet":"first","trial_type":"survey-html-form","trial_index":98,"time_elapsed":1691846,"internal_node_id":"0.0-96.0-0.0","params":{"nStudents":24,"maxFlips":25,"completionMinutes":45,"basePay":8,"maxBonus":9,"perTrialBonus":0.5,"perTrialBonusThreshold":0.05,"exampleCost":0.02},"classroomParams":{"A":{"a":1,"b":4},"B":{"a":4,"b":1},"C":{"a":2,"b":8},"D":{"a":8,"b":2}},"conditions":["nonSeqFull","nonSeqPartial","seqNoFeedback","seqFeedback"],"classroomPairings":[["A","B"],["C","D"]],"coinWeights":[0.2,0.5,0.8],"subjectId":"A2UR8ZKKO51K5N","assignmentId":"3RRCEFRB7NYTX22MFWO9LCB6WDR4BZ","hitId":"3IH9TRB0FBLK6RLF7MSMKICTGYN1IU","url":"https://gershmanlab.com/experiments/alicia/teaching/experiment/?hitId=3IH9TRB0FBLK6RLF7MSMKICTGYN1IU&workerId=A2UR8ZKKO51K5N&assignmentId=3RRCEFRB7NYTX22MFWO9LCB6WDR4BZ&a=BERR3&tp_a=BERR3&b=3RRCEFRB7NYTX22MFWO9LCB6WDR4BZ&tp_b=3RRCEFRB7NYTX22MFWO9LCB6WDR4BZ&c=365633&tp_c=365633","heads":20,"tails":6,"studentIndex":12,"studentTrueHypers":{"a":8,"b":2},"studentGuess":0.7777777777777778,"delta":0.022222222222222254,"totalExamples":26,"bonusSoFar":0},{"rt":9567,"response":{"heads":"20","tails":"5"},"type":"response","condition":"seqFeedback","trueTheta":0.8,"classrooms":["C","D"],"studentTrueClassroom":"D","exampleSet":"first","trial_type":"survey-html-form","trial_index":99,"time_elapsed":1701431,"internal_node_id":"0.0-96.1-0.1","params":{"nStudents":24,"maxFlips":25,"completionMinutes":45,"basePay":8,"maxBonus":9,"perTrialBonus":0.5,"perTrialBonusThreshold":0.05,"exampleCost":0.02},"classroomParams":{"A":{"a":1,"b":4},"B":{"a":4,"b":1},"C":{"a":2,"b":8},"D":{"a":8,"b":2}},"conditions":["nonSeqFull","nonSeqPartial","seqNoFeedback","seqFeedback"],"classroomPairings":[["A","B"],["C","D"]],"coinWeights":[0.2,0.5,0.8],"subjectId":"A2UR8ZKKO51K5N","assignmentId":"3RRCEFRB7NYTX22MFWO9LCB6WDR4BZ","hitId":"3IH9TRB0FBLK6RLF7MSMKICTGYN1IU","url":"https://gershmanlab.com/experiments/alicia/teaching/experiment/?hitId=3IH9TRB0FBLK6RLF7MSMKICTGYN1IU&workerId=A2UR8ZKKO51K5N&assignmentId=3RRCEFRB7NYTX22MFWO9LCB6WDR4BZ&a=BERR3&tp_a=BERR3&b=3RRCEFRB7NYTX22MFWO9LCB6WDR4BZ&tp_b=3RRCEFRB7NYTX22MFWO9LCB6WDR4BZ&c=365633&tp_c=365633","heads":20,"tails":5,"studentIndex":12,"studentTrueHypers":{"a":8,"b":2},"studentGuess":0.8,"delta":0,"totalExamples":25,"bonusSoFar":0},{"rt":7234,"response":{"heads":"20","tails":"5"},"type":"response","condition":"seqFeedback","trueTheta":0.8,"classrooms":["C","D"],"studentTrueClassroom":"D","exampleSet":"second","trial_type":"survey-html-form","trial_index":103,"time_elapsed":1717041,"internal_node_id":"0.0-100.0-0.0","params":{"nStudents":24,"maxFlips":25,"completionMinutes":45,"basePay":8,"maxBonus":9,"perTrialBonus":0.5,"perTrialBonusThreshold":0.05,"exampleCost":0.02},"classroomParams":{"A":{"a":1,"b":4},"B":{"a":4,"b":1},"C":{"a":2,"b":8},"D":{"a":8,"b":2}},"conditions":["nonSeqFull","nonSeqPartial","seqNoFeedback","seqFeedback"],"classroomPairings":[["A","B"],["C","D"]],"coinWeights":[0.2,0.5,0.8],"subjectId":"A2UR8ZKKO51K5N","assignmentId":"3RRCEFRB7NYTX22MFWO9LCB6WDR4BZ","hitId":"3IH9TRB0FBLK6RLF7MSMKICTGYN1IU","url":"https://gershmanlab.com/experiments/alicia/teaching/experiment/?hitId=3IH9TRB0FBLK6RLF7MSMKICTGYN1IU&workerId=A2UR8ZKKO51K5N&assignmentId=3RRCEFRB7NYTX22MFWO9LCB6WDR4BZ&a=BERR3&tp_a=BERR3&b=3RRCEFRB7NYTX22MFWO9LCB6WDR4BZ&tp_b=3RRCEFRB7NYTX22MFWO9LCB6WDR4BZ&c=365633&tp_c=365633","firstResponseHeads":20,"firstResponseTails":6,"secondResponseHeads":20,"secondResponseTails":5,"totalHeads":40,"totalTails":11,"studentIndex":12,"studentTrueHypers":{"a":8,"b":2},"studentGuess":0.7868852459016393,"delta":0.013114754098360715,"bonus":0,"bonusSoFar":0,"totalExamples":51},{"rt":6940,"response":{"heads":"20","tails":"5"},"type":"response","condition":"seqFeedback","trueTheta":0.5,"classrooms":["A","B"],"studentTrueClassroom":"B","exampleSet":"first","trial_type":"survey-html-form","trial_index":109,"time_elapsed":1737663,"internal_node_id":"0.0-106.0-0.0","params":{"nStudents":24,"maxFlips":25,"completionMinutes":45,"basePay":8,"maxBonus":9,"perTrialBonus":0.5,"perTrialBonusThreshold":0.05,"exampleCost":0.02},"classroomParams":{"A":{"a":1,"b":4},"B":{"a":4,"b":1},"C":{"a":2,"b":8},"D":{"a":8,"b":2}},"conditions":["nonSeqFull","nonSeqPartial","seqNoFeedback","seqFeedback"],"classroomPairings":[["A","B"],["C","D"]],"coinWeights":[0.2,0.5,0.8],"subjectId":"A2UR8ZKKO51K5N","assignmentId":"3RRCEFRB7NYTX22MFWO9LCB6WDR4BZ","hitId":"3IH9TRB0FBLK6RLF7MSMKICTGYN1IU","url":"https://gershmanlab.com/experiments/alicia/teaching/experiment/?hitId=3IH9TRB0FBLK6RLF7MSMKICTGYN1IU&workerId=A2UR8ZKKO51K5N&assignmentId=3RRCEFRB7NYTX22MFWO9LCB6WDR4BZ&a=BERR3&tp_a=BERR3&b=3RRCEFRB7NYTX22MFWO9LCB6WDR4BZ&tp_b=3RRCEFRB7NYTX22MFWO9LCB6WDR4BZ&c=365633&tp_c=365633","heads":20,"tails":5,"studentIndex":13,"studentTrueHypers":{"a":4,"b":1},"studentGuess":0.8,"delta":0.30000000000000004,"totalExamples":25,"bonusSoFar":0},{"rt":14966,"response":{"heads":"5","tails":"20"},"type":"response","condition":"seqFeedback","trueTheta":0.5,"classrooms":["A","B"],"studentTrueClassroom":"B","exampleSet":"second","trial_type":"survey-html-form","trial_index":113,"time_elapsed":1772839,"internal_node_id":"0.0-110.0-0.0","params":{"nStudents":24,"maxFlips":25,"completionMinutes":45,"basePay":8,"maxBonus":9,"perTrialBonus":0.5,"perTrialBonusThreshold":0.05,"exampleCost":0.02},"classroomParams":{"A":{"a":1,"b":4},"B":{"a":4,"b":1},"C":{"a":2,"b":8},"D":{"a":8,"b":2}},"conditions":["nonSeqFull","nonSeqPartial","seqNoFeedback","seqFeedback"],"classroomPairings":[["A","B"],["C","D"]],"coinWeights":[0.2,0.5,0.8],"subjectId":"A2UR8ZKKO51K5N","assignmentId":"3RRCEFRB7NYTX22MFWO9LCB6WDR4BZ","hitId":"3IH9TRB0FBLK6RLF7MSMKICTGYN1IU","url":"https://gershmanlab.com/experiments/alicia/teaching/experiment/?hitId=3IH9TRB0FBLK6RLF7MSMKICTGYN1IU&workerId=A2UR8ZKKO51K5N&assignmentId=3RRCEFRB7NYTX22MFWO9LCB6WDR4BZ&a=BERR3&tp_a=BERR3&b=3RRCEFRB7NYTX22MFWO9LCB6WDR4BZ&tp_b=3RRCEFRB7NYTX22MFWO9LCB6WDR4BZ&c=365633&tp_c=365633","firstResponseHeads":20,"firstResponseTails":5,"secondResponseHeads":5,"secondResponseTails":20,"totalHeads":25,"totalTails":25,"studentIndex":13,"studentTrueHypers":{"a":4,"b":1},"studentGuess":0.5272727272727272,"delta":0.027272727272727226,"bonus":0,"bonusSoFar":0,"totalExamples":50},{"rt":6851,"response":{"heads":"10","tails":"15"},"type":"response","condition":"seqNoFeedback","trueTheta":0.2,"classrooms":["C","D"],"studentTrueClassroom":"D","exampleSet":"first","trial_type":"survey-html-form","trial_index":119,"time_elapsed":1803750,"internal_node_id":"0.0-116.0-0.0","params":{"nStudents":24,"maxFlips":25,"completionMinutes":45,"basePay":8,"maxBonus":9,"perTrialBonus":0.5,"perTrialBonusThreshold":0.05,"exampleCost":0.02},"classroomParams":{"A":{"a":1,"b":4},"B":{"a":4,"b":1},"C":{"a":2,"b":8},"D":{"a":8,"b":2}},"conditions":["nonSeqFull","nonSeqPartial","seqNoFeedback","seqFeedback"],"classroomPairings":[["A","B"],["C","D"]],"coinWeights":[0.2,0.5,0.8],"subjectId":"A2UR8ZKKO51K5N","assignmentId":"3RRCEFRB7NYTX22MFWO9LCB6WDR4BZ","hitId":"3IH9TRB0FBLK6RLF7MSMKICTGYN1IU","url":"https://gershmanlab.com/experiments/alicia/teaching/experiment/?hitId=3IH9TRB0FBLK6RLF7MSMKICTGYN1IU&workerId=A2UR8ZKKO51K5N&assignmentId=3RRCEFRB7NYTX22MFWO9LCB6WDR4BZ&a=BERR3&tp_a=BERR3&b=3RRCEFRB7NYTX22MFWO9LCB6WDR4BZ&tp_b=3RRCEFRB7NYTX22MFWO9LCB6WDR4BZ&c=365633&tp_c=365633","heads":10,"tails":15,"studentIndex":14,"studentTrueHypers":{"a":8,"b":2},"studentGuess":0.5142857142857142,"delta":0.3142857142857142,"totalExamples":25,"bonusSoFar":0},{"rt":8500,"response":{"heads":"5","tails":"20"},"type":"response","condition":"seqNoFeedback","trueTheta":0.2,"classrooms":["C","D"],"studentTrueClassroom":"D","exampleSet":"second","trial_type":"survey-html-form","trial_index":122,"time_elapsed":1820286,"internal_node_id":"0.0-119.0-0.0","params":{"nStudents":24,"maxFlips":25,"completionMinutes":45,"basePay":8,"maxBonus":9,"perTrialBonus":0.5,"perTrialBonusThreshold":0.05,"exampleCost":0.02},"classroomParams":{"A":{"a":1,"b":4},"B":{"a":4,"b":1},"C":{"a":2,"b":8},"D":{"a":8,"b":2}},"conditions":["nonSeqFull","nonSeqPartial","seqNoFeedback","seqFeedback"],"classroomPairings":[["A","B"],["C","D"]],"coinWeights":[0.2,0.5,0.8],"subjectId":"A2UR8ZKKO51K5N","assignmentId":"3RRCEFRB7NYTX22MFWO9LCB6WDR4BZ","hitId":"3IH9TRB0FBLK6RLF7MSMKICTGYN1IU","url":"https://gershmanlab.com/experiments/alicia/teaching/experiment/?hitId=3IH9TRB0FBLK6RLF7MSMKICTGYN1IU&workerId=A2UR8ZKKO51K5N&assignmentId=3RRCEFRB7NYTX22MFWO9LCB6WDR4BZ&a=BERR3&tp_a=BERR3&b=3RRCEFRB7NYTX22MFWO9LCB6WDR4BZ&tp_b=3RRCEFRB7NYTX22MFWO9LCB6WDR4BZ&c=365633&tp_c=365633","firstResponseHeads":10,"firstResponseTails":15,"secondResponseHeads":5,"secondResponseTails":20,"totalHeads":15,"totalTails":35,"studentIndex":14,"studentTrueHypers":{"a":8,"b":2},"studentGuess":0.38333333333333336,"delta":0.18333333333333335,"bonus":0,"bonusSoFar":0,"totalExamples":50},{"rt":8086,"response":{"heads":"20","tails":"5"},"type":"response","condition":"nonSeqFull","trueTheta":0.8,"classrooms":["C","D"],"studentTrueClassroom":"C","exampleSet":"first","trial_type":"survey-html-form","trial_index":128,"time_elapsed":1838794,"internal_node_id":"0.0-125.0-0.0","params":{"nStudents":24,"maxFlips":25,"completionMinutes":45,"basePay":8,"maxBonus":9,"perTrialBonus":0.5,"perTrialBonusThreshold":0.05,"exampleCost":0.02},"classroomParams":{"A":{"a":1,"b":4},"B":{"a":4,"b":1},"C":{"a":2,"b":8},"D":{"a":8,"b":2}},"conditions":["nonSeqFull","nonSeqPartial","seqNoFeedback","seqFeedback"],"classroomPairings":[["A","B"],["C","D"]],"coinWeights":[0.2,0.5,0.8],"subjectId":"A2UR8ZKKO51K5N","assignmentId":"3RRCEFRB7NYTX22MFWO9LCB6WDR4BZ","hitId":"3IH9TRB0FBLK6RLF7MSMKICTGYN1IU","url":"https://gershmanlab.com/experiments/alicia/teaching/experiment/?hitId=3IH9TRB0FBLK6RLF7MSMKICTGYN1IU&workerId=A2UR8ZKKO51K5N&assignmentId=3RRCEFRB7NYTX22MFWO9LCB6WDR4BZ&a=BERR3&tp_a=BERR3&b=3RRCEFRB7NYTX22MFWO9LCB6WDR4BZ&tp_b=3RRCEFRB7NYTX22MFWO9LCB6WDR4BZ&c=365633&tp_c=365633","heads":20,"tails":5,"studentIndex":15,"studentTrueHypers":{"a":2,"b":8},"studentGuess":0.6285714285714286,"delta":0.17142857142857149,"totalExamples":25,"bonus":0,"bonusSoFar":0},{"rt":8499,"response":{"heads":"1","tails":"1"},"type":"response","condition":"seqNoFeedback","trueTheta":0.5,"classrooms":["C","D"],"studentTrueClassroom":"D","exampleSet":"first","trial_type":"survey-html-form","trial_index":134,"time_elapsed":1858517,"internal_node_id":"0.0-131.0-0.0","params":{"nStudents":24,"maxFlips":25,"completionMinutes":45,"basePay":8,"maxBonus":9,"perTrialBonus":0.5,"perTrialBonusThreshold":0.05,"exampleCost":0.02},"classroomParams":{"A":{"a":1,"b":4},"B":{"a":4,"b":1},"C":{"a":2,"b":8},"D":{"a":8,"b":2}},"conditions":["nonSeqFull","nonSeqPartial","seqNoFeedback","seqFeedback"],"classroomPairings":[["A","B"],["C","D"]],"coinWeights":[0.2,0.5,0.8],"subjectId":"A2UR8ZKKO51K5N","assignmentId":"3RRCEFRB7NYTX22MFWO9LCB6WDR4BZ","hitId":"3IH9TRB0FBLK6RLF7MSMKICTGYN1IU","url":"https://gershmanlab.com/experiments/alicia/teaching/experiment/?hitId=3IH9TRB0FBLK6RLF7MSMKICTGYN1IU&workerId=A2UR8ZKKO51K5N&assignmentId=3RRCEFRB7NYTX22MFWO9LCB6WDR4BZ&a=BERR3&tp_a=BERR3&b=3RRCEFRB7NYTX22MFWO9LCB6WDR4BZ&tp_b=3RRCEFRB7NYTX22MFWO9LCB6WDR4BZ&c=365633&tp_c=365633","heads":1,"tails":1,"studentIndex":16,"studentTrueHypers":{"a":8,"b":2},"studentGuess":0.75,"delta":0.25,"totalExamples":2,"bonusSoFar":0},{"rt":8035,"response":{"heads":"1","tails":"1"},"type":"response","condition":"seqNoFeedback","trueTheta":0.5,"classrooms":["C","D"],"studentTrueClassroom":"D","exampleSet":"second","trial_type":"survey-html-form","trial_index":137,"time_elapsed":1872850,"internal_node_id":"0.0-134.0-0.0","params":{"nStudents":24,"maxFlips":25,"completionMinutes":45,"basePay":8,"maxBonus":9,"perTrialBonus":0.5,"perTrialBonusThreshold":0.05,"exampleCost":0.02},"classroomParams":{"A":{"a":1,"b":4},"B":{"a":4,"b":1},"C":{"a":2,"b":8},"D":{"a":8,"b":2}},"conditions":["nonSeqFull","nonSeqPartial","seqNoFeedback","seqFeedback"],"classroomPairings":[["A","B"],["C","D"]],"coinWeights":[0.2,0.5,0.8],"subjectId":"A2UR8ZKKO51K5N","assignmentId":"3RRCEFRB7NYTX22MFWO9LCB6WDR4BZ","hitId":"3IH9TRB0FBLK6RLF7MSMKICTGYN1IU","url":"https://gershmanlab.com/experiments/alicia/teaching/experiment/?hitId=3IH9TRB0FBLK6RLF7MSMKICTGYN1IU&workerId=A2UR8ZKKO51K5N&assignmentId=3RRCEFRB7NYTX22MFWO9LCB6WDR4BZ&a=BERR3&tp_a=BERR3&b=3RRCEFRB7NYTX22MFWO9LCB6WDR4BZ&tp_b=3RRCEFRB7NYTX22MFWO9LCB6WDR4BZ&c=365633&tp_c=365633","firstResponseHeads":1,"firstResponseTails":1,"secondResponseHeads":1,"secondResponseTails":1,"totalHeads":2,"totalTails":2,"studentIndex":16,"studentTrueHypers":{"a":8,"b":2},"studentGuess":0.7142857142857143,"delta":0.2142857142857143,"bonus":0,"bonusSoFar":0,"totalExamples":4},{"rt":10070,"response":{"heads":"1","tails":"1"},"type":"response","condition":"seqFeedback","trueTheta":0.2,"classrooms":["C","D"],"studentTrueClassroom":"D","exampleSet":"first","trial_type":"survey-html-form","trial_index":143,"time_elapsed":1897681,"internal_node_id":"0.0-140.0-0.0","params":{"nStudents":24,"maxFlips":25,"completionMinutes":45,"basePay":8,"maxBonus":9,"perTrialBonus":0.5,"perTrialBonusThreshold":0.05,"exampleCost":0.02},"classroomParams":{"A":{"a":1,"b":4},"B":{"a":4,"b":1},"C":{"a":2,"b":8},"D":{"a":8,"b":2}},"conditions":["nonSeqFull","nonSeqPartial","seqNoFeedback","seqFeedback"],"classroomPairings":[["A","B"],["C","D"]],"coinWeights":[0.2,0.5,0.8],"subjectId":"A2UR8ZKKO51K5N","assignmentId":"3RRCEFRB7NYTX22MFWO9LCB6WDR4BZ","hitId":"3IH9TRB0FBLK6RLF7MSMKICTGYN1IU","url":"https://gershmanlab.com/experiments/alicia/teaching/experiment/?hitId=3IH9TRB0FBLK6RLF7MSMKICTGYN1IU&workerId=A2UR8ZKKO51K5N&assignmentId=3RRCEFRB7NYTX22MFWO9LCB6WDR4BZ&a=BERR3&tp_a=BERR3&b=3RRCEFRB7NYTX22MFWO9LCB6WDR4BZ&tp_b=3RRCEFRB7NYTX22MFWO9LCB6WDR4BZ&c=365633&tp_c=365633","heads":1,"tails":1,"studentIndex":17,"studentTrueHypers":{"a":8,"b":2},"studentGuess":0.75,"delta":0.55,"totalExamples":2,"bonusSoFar":0},{"rt":6690,"response":{"heads":"2","tails":"1"},"type":"response","condition":"seqFeedback","trueTheta":0.2,"classrooms":["C","D"],"studentTrueClassroom":"D","exampleSet":"second","trial_type":"survey-html-form","trial_index":147,"time_elapsed":1940878,"internal_node_id":"0.0-144.0-0.0","params":{"nStudents":24,"maxFlips":25,"completionMinutes":45,"basePay":8,"maxBonus":9,"perTrialBonus":0.5,"perTrialBonusThreshold":0.05,"exampleCost":0.02},"classroomParams":{"A":{"a":1,"b":4},"B":{"a":4,"b":1},"C":{"a":2,"b":8},"D":{"a":8,"b":2}},"conditions":["nonSeqFull","nonSeqPartial","seqNoFeedback","seqFeedback"],"classroomPairings":[["A","B"],["C","D"]],"coinWeights":[0.2,0.5,0.8],"subjectId":"A2UR8ZKKO51K5N","assignmentId":"3RRCEFRB7NYTX22MFWO9LCB6WDR4BZ","hitId":"3IH9TRB0FBLK6RLF7MSMKICTGYN1IU","url":"https://gershmanlab.com/experiments/alicia/teaching/experiment/?hitId=3IH9TRB0FBLK6RLF7MSMKICTGYN1IU&workerId=A2UR8ZKKO51K5N&assignmentId=3RRCEFRB7NYTX22MFWO9LCB6WDR4BZ&a=BERR3&tp_a=BERR3&b=3RRCEFRB7NYTX22MFWO9LCB6WDR4BZ&tp_b=3RRCEFRB7NYTX22MFWO9LCB6WDR4BZ&c=365633&tp_c=365633","firstResponseHeads":1,"firstResponseTails":1,"secondResponseHeads":2,"secondResponseTails":1,"totalHeads":3,"totalTails":2,"studentIndex":17,"studentTrueHypers":{"a":8,"b":2},"studentGuess":0.7333333333333333,"delta":0.5333333333333332,"bonus":0,"bonusSoFar":0,"totalExamples":5},{"rt":10725,"response":{"heads":"1","tails":"0"},"type":"response","condition":"nonSeqPartial","trueTheta":0.5,"classrooms":["A","B"],"studentTrueClassroom":"A","exampleSet":"first","trial_type":"survey-html-form","trial_index":153,"time_elapsed":1993030,"internal_node_id":"0.0-150.0-0.0","params":{"nStudents":24,"maxFlips":25,"completionMinutes":45,"basePay":8,"maxBonus":9,"perTrialBonus":0.5,"perTrialBonusThreshold":0.05,"exampleCost":0.02},"classroomParams":{"A":{"a":1,"b":4},"B":{"a":4,"b":1},"C":{"a":2,"b":8},"D":{"a":8,"b":2}},"conditions":["nonSeqFull","nonSeqPartial","seqNoFeedback","seqFeedback"],"classroomPairings":[["A","B"],["C","D"]],"coinWeights":[0.2,0.5,0.8],"subjectId":"A2UR8ZKKO51K5N","assignmentId":"3RRCEFRB7NYTX22MFWO9LCB6WDR4BZ","hitId":"3IH9TRB0FBLK6RLF7MSMKICTGYN1IU","url":"https://gershmanlab.com/experiments/alicia/teaching/experiment/?hitId=3IH9TRB0FBLK6RLF7MSMKICTGYN1IU&workerId=A2UR8ZKKO51K5N&assignmentId=3RRCEFRB7NYTX22MFWO9LCB6WDR4BZ&a=BERR3&tp_a=BERR3&b=3RRCEFRB7NYTX22MFWO9LCB6WDR4BZ&tp_b=3RRCEFRB7NYTX22MFWO9LCB6WDR4BZ&c=365633&tp_c=365633","heads":1,"tails":0,"studentIndex":18,"studentTrueHypers":{"a":1,"b":4},"studentGuess":0.3333333333333333,"delta":0.16666666666666669,"totalExamples":1,"bonus":0,"bonusSoFar":0},{"rt":8134,"response":{"heads":"1","tails":"3"},"type":"response","condition":"nonSeqPartial","trueTheta":0.8,"classrooms":["C","D"],"studentTrueClassroom":"C","exampleSet":"first","trial_type":"survey-html-form","trial_index":159,"time_elapsed":2015204,"internal_node_id":"0.0-156.0-0.0","params":{"nStudents":24,"maxFlips":25,"completionMinutes":45,"basePay":8,"maxBonus":9,"perTrialBonus":0.5,"perTrialBonusThreshold":0.05,"exampleCost":0.02},"classroomParams":{"A":{"a":1,"b":4},"B":{"a":4,"b":1},"C":{"a":2,"b":8},"D":{"a":8,"b":2}},"conditions":["nonSeqFull","nonSeqPartial","seqNoFeedback","seqFeedback"],"classroomPairings":[["A","B"],["C","D"]],"coinWeights":[0.2,0.5,0.8],"subjectId":"A2UR8ZKKO51K5N","assignmentId":"3RRCEFRB7NYTX22MFWO9LCB6WDR4BZ","hitId":"3IH9TRB0FBLK6RLF7MSMKICTGYN1IU","url":"https://gershmanlab.com/experiments/alicia/teaching/experiment/?hitId=3IH9TRB0FBLK6RLF7MSMKICTGYN1IU&workerId=A2UR8ZKKO51K5N&assignmentId=3RRCEFRB7NYTX22MFWO9LCB6WDR4BZ&a=BERR3&tp_a=BERR3&b=3RRCEFRB7NYTX22MFWO9LCB6WDR4BZ&tp_b=3RRCEFRB7NYTX22MFWO9LCB6WDR4BZ&c=365633&tp_c=365633","heads":1,"tails":3,"studentIndex":19,"studentTrueHypers":{"a":2,"b":8},"studentGuess":0.21428571428571427,"delta":0.5857142857142857,"totalExamples":4,"bonus":0,"bonusSoFar":0},{"rt":11930,"response":{"heads":"6","tails":"7"},"type":"response","condition":"seqNoFeedback","trueTheta":0.2,"classrooms":["A","B"],"studentTrueClassroom":"A","exampleSet":"first","trial_type":"survey-html-form","trial_index":165,"time_elapsed":2041345,"internal_node_id":"0.0-162.0-0.0","params":{"nStudents":24,"maxFlips":25,"completionMinutes":45,"basePay":8,"maxBonus":9,"perTrialBonus":0.5,"perTrialBonusThreshold":0.05,"exampleCost":0.02},"classroomParams":{"A":{"a":1,"b":4},"B":{"a":4,"b":1},"C":{"a":2,"b":8},"D":{"a":8,"b":2}},"conditions":["nonSeqFull","nonSeqPartial","seqNoFeedback","seqFeedback"],"classroomPairings":[["A","B"],["C","D"]],"coinWeights":[0.2,0.5,0.8],"subjectId":"A2UR8ZKKO51K5N","assignmentId":"3RRCEFRB7NYTX22MFWO9LCB6WDR4BZ","hitId":"3IH9TRB0FBLK6RLF7MSMKICTGYN1IU","url":"https://gershmanlab.com/experiments/alicia/teaching/experiment/?hitId=3IH9TRB0FBLK6RLF7MSMKICTGYN1IU&workerId=A2UR8ZKKO51K5N&assignmentId=3RRCEFRB7NYTX22MFWO9LCB6WDR4BZ&a=BERR3&tp_a=BERR3&b=3RRCEFRB7NYTX22MFWO9LCB6WDR4BZ&tp_b=3RRCEFRB7NYTX22MFWO9LCB6WDR4BZ&c=365633&tp_c=365633","heads":6,"tails":7,"studentIndex":20,"studentTrueHypers":{"a":1,"b":4},"studentGuess":0.3888888888888889,"delta":0.18888888888888888,"totalExamples":13,"bonusSoFar":0},{"rt":6763,"response":{"heads":"3","tails":"6"},"type":"response","condition":"seqNoFeedback","trueTheta":0.2,"classrooms":["A","B"],"studentTrueClassroom":"A","exampleSet":"second","trial_type":"survey-html-form","trial_index":168,"time_elapsed":2054641,"internal_node_id":"0.0-165.0-0.0","params":{"nStudents":24,"maxFlips":25,"completionMinutes":45,"basePay":8,"maxBonus":9,"perTrialBonus":0.5,"perTrialBonusThreshold":0.05,"exampleCost":0.02},"classroomParams":{"A":{"a":1,"b":4},"B":{"a":4,"b":1},"C":{"a":2,"b":8},"D":{"a":8,"b":2}},"conditions":["nonSeqFull","nonSeqPartial","seqNoFeedback","seqFeedback"],"classroomPairings":[["A","B"],["C","D"]],"coinWeights":[0.2,0.5,0.8],"subjectId":"A2UR8ZKKO51K5N","assignmentId":"3RRCEFRB7NYTX22MFWO9LCB6WDR4BZ","hitId":"3IH9TRB0FBLK6RLF7MSMKICTGYN1IU","url":"https://gershmanlab.com/experiments/alicia/teaching/experiment/?hitId=3IH9TRB0FBLK6RLF7MSMKICTGYN1IU&workerId=A2UR8ZKKO51K5N&assignmentId=3RRCEFRB7NYTX22MFWO9LCB6WDR4BZ&a=BERR3&tp_a=BERR3&b=3RRCEFRB7NYTX22MFWO9LCB6WDR4BZ&tp_b=3RRCEFRB7NYTX22MFWO9LCB6WDR4BZ&c=365633&tp_c=365633","firstResponseHeads":6,"firstResponseTails":7,"secondResponseHeads":3,"secondResponseTails":6,"totalHeads":9,"totalTails":13,"studentIndex":20,"studentTrueHypers":{"a":1,"b":4},"studentGuess":0.37037037037037035,"delta":0.17037037037037034,"bonus":0,"bonusSoFar":0,"totalExamples":22},{"rt":9860,"response":{"heads":"20","tails":"0"},"type":"response","condition":"seqNoFeedback","trueTheta":0.8,"classrooms":["C","D"],"studentTrueClassroom":"D","exampleSet":"first","trial_type":"survey-html-form","trial_index":174,"time_elapsed":2075932,"internal_node_id":"0.0-171.0-0.0","params":{"nStudents":24,"maxFlips":25,"completionMinutes":45,"basePay":8,"maxBonus":9,"perTrialBonus":0.5,"perTrialBonusThreshold":0.05,"exampleCost":0.02},"classroomParams":{"A":{"a":1,"b":4},"B":{"a":4,"b":1},"C":{"a":2,"b":8},"D":{"a":8,"b":2}},"conditions":["nonSeqFull","nonSeqPartial","seqNoFeedback","seqFeedback"],"classroomPairings":[["A","B"],["C","D"]],"coinWeights":[0.2,0.5,0.8],"subjectId":"A2UR8ZKKO51K5N","assignmentId":"3RRCEFRB7NYTX22MFWO9LCB6WDR4BZ","hitId":"3IH9TRB0FBLK6RLF7MSMKICTGYN1IU","url":"https://gershmanlab.com/experiments/alicia/teaching/experiment/?hitId=3IH9TRB0FBLK6RLF7MSMKICTGYN1IU&workerId=A2UR8ZKKO51K5N&assignmentId=3RRCEFRB7NYTX22MFWO9LCB6WDR4BZ&a=BERR3&tp_a=BERR3&b=3RRCEFRB7NYTX22MFWO9LCB6WDR4BZ&tp_b=3RRCEFRB7NYTX22MFWO9LCB6WDR4BZ&c=365633&tp_c=365633","heads":20,"tails":0,"studentIndex":21,"studentTrueHypers":{"a":8,"b":2},"studentGuess":0.9333333333333333,"delta":0.1333333333333333,"totalExamples":20,"bonusSoFar":0},{"rt":82910,"response":{"heads":"3","tails":"10"},"type":"response","condition":"seqNoFeedback","trueTheta":0.8,"classrooms":["C","D"],"studentTrueClassroom":"D","exampleSet":"second","trial_type":"survey-html-form","trial_index":177,"time_elapsed":2166222,"internal_node_id":"0.0-174.0-0.0","params":{"nStudents":24,"maxFlips":25,"completionMinutes":45,"basePay":8,"maxBonus":9,"perTrialBonus":0.5,"perTrialBonusThreshold":0.05,"exampleCost":0.02},"classroomParams":{"A":{"a":1,"b":4},"B":{"a":4,"b":1},"C":{"a":2,"b":8},"D":{"a":8,"b":2}},"conditions":["nonSeqFull","nonSeqPartial","seqNoFeedback","seqFeedback"],"classroomPairings":[["A","B"],["C","D"]],"coinWeights":[0.2,0.5,0.8],"subjectId":"A2UR8ZKKO51K5N","assignmentId":"3RRCEFRB7NYTX22MFWO9LCB6WDR4BZ","hitId":"3IH9TRB0FBLK6RLF7MSMKICTGYN1IU","url":"https://gershmanlab.com/experiments/alicia/teaching/experiment/?hitId=3IH9TRB0FBLK6RLF7MSMKICTGYN1IU&workerId=A2UR8ZKKO51K5N&assignmentId=3RRCEFRB7NYTX22MFWO9LCB6WDR4BZ&a=BERR3&tp_a=BERR3&b=3RRCEFRB7NYTX22MFWO9LCB6WDR4BZ&tp_b=3RRCEFRB7NYTX22MFWO9LCB6WDR4BZ&c=365633&tp_c=365633","firstResponseHeads":20,"firstResponseTails":0,"secondResponseHeads":3,"secondResponseTails":10,"totalHeads":23,"totalTails":10,"studentIndex":21,"studentTrueHypers":{"a":8,"b":2},"studentGuess":0.7209302325581395,"delta":0.07906976744186056,"bonus":0,"bonusSoFar":0,"totalExamples":33},{"rt":7068,"response":{"heads":"10","tails":"6"},"type":"response","condition":"nonSeqPartial","trueTheta":0.2,"classrooms":["A","B"],"studentTrueClassroom":"A","exampleSet":"first","trial_type":"survey-html-form","trial_index":183,"time_elapsed":2185625,"internal_node_id":"0.0-180.0-0.0","params":{"nStudents":24,"maxFlips":25,"completionMinutes":45,"basePay":8,"maxBonus":9,"perTrialBonus":0.5,"perTrialBonusThreshold":0.05,"exampleCost":0.02},"classroomParams":{"A":{"a":1,"b":4},"B":{"a":4,"b":1},"C":{"a":2,"b":8},"D":{"a":8,"b":2}},"conditions":["nonSeqFull","nonSeqPartial","seqNoFeedback","seqFeedback"],"classroomPairings":[["A","B"],["C","D"]],"coinWeights":[0.2,0.5,0.8],"subjectId":"A2UR8ZKKO51K5N","assignmentId":"3RRCEFRB7NYTX22MFWO9LCB6WDR4BZ","hitId":"3IH9TRB0FBLK6RLF7MSMKICTGYN1IU","url":"https://gershmanlab.com/experiments/alicia/teaching/experiment/?hitId=3IH9TRB0FBLK6RLF7MSMKICTGYN1IU&workerId=A2UR8ZKKO51K5N&assignmentId=3RRCEFRB7NYTX22MFWO9LCB6WDR4BZ&a=BERR3&tp_a=BERR3&b=3RRCEFRB7NYTX22MFWO9LCB6WDR4BZ&tp_b=3RRCEFRB7NYTX22MFWO9LCB6WDR4BZ&c=365633&tp_c=365633","heads":10,"tails":6,"studentIndex":22,"studentTrueHypers":{"a":1,"b":4},"studentGuess":0.5238095238095238,"delta":0.3238095238095238,"totalExamples":16,"bonus":0,"bonusSoFar":0},{"rt":3684,"response":{"heads":"1","tails":"0"},"type":"response","condition":"nonSeqFull","trueTheta":0.2,"classrooms":["A","B"],"studentTrueClassroom":"B","exampleSet":"first","trial_type":"survey-html-form","trial_index":189,"time_elapsed":2201403,"internal_node_id":"0.0-186.0-0.0","params":{"nStudents":24,"maxFlips":25,"completionMinutes":45,"basePay":8,"maxBonus":9,"perTrialBonus":0.5,"perTrialBonusThreshold":0.05,"exampleCost":0.02},"classroomParams":{"A":{"a":1,"b":4},"B":{"a":4,"b":1},"C":{"a":2,"b":8},"D":{"a":8,"b":2}},"conditions":["nonSeqFull","nonSeqPartial","seqNoFeedback","seqFeedback"],"classroomPairings":[["A","B"],["C","D"]],"coinWeights":[0.2,0.5,0.8],"subjectId":"A2UR8ZKKO51K5N","assignmentId":"3RRCEFRB7NYTX22MFWO9LCB6WDR4BZ","hitId":"3IH9TRB0FBLK6RLF7MSMKICTGYN1IU","url":"https://gershmanlab.com/experiments/alicia/teaching/experiment/?hitId=3IH9TRB0FBLK6RLF7MSMKICTGYN1IU&workerId=A2UR8ZKKO51K5N&assignmentId=3RRCEFRB7NYTX22MFWO9LCB6WDR4BZ&a=BERR3&tp_a=BERR3&b=3RRCEFRB7NYTX22MFWO9LCB6WDR4BZ&tp_b=3RRCEFRB7NYTX22MFWO9LCB6WDR4BZ&c=365633&tp_c=365633","heads":1,"tails":0,"studentIndex":23,"studentTrueHypers":{"a":4,"b":1},"studentGuess":0.8333333333333334,"delta":0.6333333333333333,"totalExamples":1,"bonus":0,"bonusSoFar":0},{"rt":10332,"response":{"gender":"female","age":"29","understood":"yes","comments":""},"type":"response","trial_type":"survey-html-form","trial_index":193,"time_elapsed":2218333,"internal_node_id":"0.0-191.0","params":{"nStudents":24,"maxFlips":25,"completionMinutes":45,"basePay":8,"maxBonus":9,"perTrialBonus":0.5,"perTrialBonusThreshold":0.05,"exampleCost":0.02},"classroomParams":{"A":{"a":1,"b":4},"B":{"a":4,"b":1},"C":{"a":2,"b":8},"D":{"a":8,"b":2}},"conditions":["nonSeqFull","nonSeqPartial","seqNoFeedback","seqFeedback"],"classroomPairings":[["A","B"],["C","D"]],"coinWeights":[0.2,0.5,0.8],"subjectId":"A2UR8ZKKO51K5N","assignmentId":"3RRCEFRB7NYTX22MFWO9LCB6WDR4BZ","hitId":"3IH9TRB0FBLK6RLF7MSMKICTGYN1IU","url":"https://gershmanlab.com/experiments/alicia/teaching/experiment/?hitId=3IH9TRB0FBLK6RLF7MSMKICTGYN1IU&workerId=A2UR8ZKKO51K5N&assignmentId=3RRCEFRB7NYTX22MFWO9LCB6WDR4BZ&a=BERR3&tp_a=BERR3&b=3RRCEFRB7NYTX22MFWO9LCB6WDR4BZ&tp_b=3RRCEFRB7NYTX22MFWO9LCB6WDR4BZ&c=365633&tp_c=365633","totalBonus":0}]