[{"rt":18307,"response":{"heads":"5","tails":"0"},"type":"response","condition":"nonSeqFull","trueTheta":0.8,"classrooms":["C","D"],"studentTrueClassroom":"C","exampleSet":"first","trial_type":"survey-html-form","trial_index":28,"time_elapsed":973761,"internal_node_id":"0.0-6.0-0.0","params":{"nStudents":24,"maxFlips":25,"completionMinutes":45,"basePay":8,"maxBonus":9,"perTrialBonus":0.5,"perTrialBonusThreshold":0.05,"exampleCost":0.02},"classroomParams":{"A":{"a":1,"b":4},"B":{"a":4,"b":1},"C":{"a":2,"b":8},"D":{"a":8,"b":2}},"conditions":["nonSeqFull","nonSeqPartial","seqNoFeedback","seqFeedback"],"classroomPairings":[["A","B"],["C","D"]],"coinWeights":[0.2,0.5,0.8],"subjectId":"A36470UBRH28GO","assignmentId":"3VBEN272MLL8Q4C8LJC5KQI9Q6MGSZ","hitId":"3XUY87HIVP03YZXVLN9CW37DVI1MM2","url":"https://gershmanlab.com/experiments/alicia/teaching/experiment/?hitId=3XUY87HIVP03YZXVLN9CW37DVI1MM2&workerId=A36470UBRH28GO&assignmentId=3VBEN272MLL8Q4C8LJC5KQI9Q6MGSZ&a=2NBV3&tp_a=2NBV3&b=3VBEN272MLL8Q4C8LJC5KQI9Q6MGSZ&tp_b=3VBEN272MLL8Q4C8LJC5KQI9Q6MGSZ&c=365633&tp_c=365633","heads":5,"tails":0,"studentIndex":0,"studentTrueHypers":{"a":2,"b":8},"studentGuess":0.4666666666666667,"delta":0.33333333333333337,"totalExamples":5,"bonus":0,"bonusSoFar":0},{"rt":19911,"response":{"heads":"5","tails":"0"},"type":"response","condition":"seqFeedback","trueTheta":0.8,"classrooms":["C","D"],"studentTrueClassroom":"C","exampleSet":"first","trial_type":"survey-html-form","trial_index":34,"time_elapsed":1023641,"internal_node_id":"0.0-12.0-0.0","params":{"nStudents":24,"maxFlips":25,"completionMinutes":45,"basePay":8,"maxBonus":9,"perTrialBonus":0.5,"perTrialBonusThreshold":0.05,"exampleCost":0.02},"classroomParams":{"A":{"a":1,"b":4},"B":{"a":4,"b":1},"C":{"a":2,"b":8},"D":{"a":8,"b":2}},"conditions":["nonSeqFull","nonSeqPartial","seqNoFeedback","seqFeedback"],"classroomPairings":[["A","B"],["C","D"]],"coinWeights":[0.2,0.5,0.8],"subjectId":"A36470UBRH28GO","assignmentId":"3VBEN272MLL8Q4C8LJC5KQI9Q6MGSZ","hitId":"3XUY87HIVP03YZXVLN9CW37DVI1MM2","url":"https://gershmanlab.com/experiments/alicia/teaching/experiment/?hitId=3XUY87HIVP03YZXVLN9CW37DVI1MM2&workerId=A36470UBRH28GO&assignmentId=3VBEN272MLL8Q4C8LJC5KQI9Q6MGSZ&a=2NBV3&tp_a=2NBV3&b=3VBEN272MLL8Q4C8LJC5KQI9Q6MGSZ&tp_b=3VBEN272MLL8Q4C8LJC5KQI9Q6MGSZ&c=365633&tp_c=365633","heads":5,"tails":0,"studentIndex":1,"studentTrueHypers":{"a":2,"b":8},"studentGuess":0.4666666666666667,"delta":0.33333333333333337,"totalExamples":5,"bonusSoFar":0},{"rt":21351,"response":{"heads":"3","tails":"2"},"type":"response","condition":"seqFeedback","trueTheta":0.8,"classrooms":["C","D"],"studentTrueClassroom":"C","exampleSet":"second","trial_type":"survey-html-form","trial_index":38,"time_elapsed":1057413,"internal_node_id":"0.0-16.0-0.0","params":{"nStudents":24,"maxFlips":25,"completionMinutes":45,"basePay":8,"maxBonus":9,"perTrialBonus":0.5,"perTrialBonusThreshold":0.05,"exampleCost":0.02},"classroomParams":{"A":{"a":1,"b":4},"B":{"a":4,"b":1},"C":{"a":2,"b":8},"D":{"a":8,"b":2}},"conditions":["nonSeqFull","nonSeqPartial","seqNoFeedback","seqFeedback"],"classroomPairings":[["A","B"],["C","D"]],"coinWeights":[0.2,0.5,0.8],"subjectId":"A36470UBRH28GO","assignmentId":"3VBEN272MLL8Q4C8LJC5KQI9Q6MGSZ","hitId":"3XUY87HIVP03YZXVLN9CW37DVI1MM2","url":"https://gershmanlab.com/experiments/alicia/teaching/experiment/?hitId=3XUY87HIVP03YZXVLN9CW37DVI1MM2&workerId=A36470UBRH28GO&assignmentId=3VBEN272MLL8Q4C8LJC5KQI9Q6MGSZ&a=2NBV3&tp_a=2NBV3&b=3VBEN272MLL8Q4C8LJC5KQI9Q6MGSZ&tp_b=3VBEN272MLL8Q4C8LJC5KQI9Q6MGSZ&c=365633&tp_c=365633","firstResponseHeads":5,"firstResponseTails":0,"secondResponseHeads":3,"secondResponseTails":2,"totalHeads":8,"totalTails":2,"studentIndex":1,"studentTrueHypers":{"a":2,"b":8},"studentGuess":0.5,"delta":0.30000000000000004,"bonus":0,"bonusSoFar":0,"totalExamples":10},{"rt":7481,"response":{"heads":"1","tails":"1"},"type":"response","condition":"nonSeqFull","trueTheta":0.5,"classrooms":["C","D"],"studentTrueClassroom":"C","exampleSet":"first","trial_type":"survey-html-form","trial_index":44,"time_elapsed":1083893,"internal_node_id":"0.0-22.0-0.0","params":{"nStudents":24,"maxFlips":25,"completionMinutes":45,"basePay":8,"maxBonus":9,"perTrialBonus":0.5,"perTrialBonusThreshold":0.05,"exampleCost":0.02},"classroomParams":{"A":{"a":1,"b":4},"B":{"a":4,"b":1},"C":{"a":2,"b":8},"D":{"a":8,"b":2}},"conditions":["nonSeqFull","nonSeqPartial","seqNoFeedback","seqFeedback"],"classroomPairings":[["A","B"],["C","D"]],"coinWeights":[0.2,0.5,0.8],"subjectId":"A36470UBRH28GO","assignmentId":"3VBEN272MLL8Q4C8LJC5KQI9Q6MGSZ","hitId":"3XUY87HIVP03YZXVLN9CW37DVI1MM2","url":"https://gershmanlab.com/experiments/alicia/teaching/experiment/?hitId=3XUY87HIVP03YZXVLN9CW37DVI1MM2&workerId=A36470UBRH28GO&assignmentId=3VBEN272MLL8Q4C8LJC5KQI9Q6MGSZ&a=2NBV3&tp_a=2NBV3&b=3VBEN272MLL8Q4C8LJC5KQI9Q6MGSZ&tp_b=3VBEN272MLL8Q4C8LJC5KQI9Q6MGSZ&c=365633&tp_c=365633","heads":1,"tails":1,"studentIndex":2,"studentTrueHypers":{"a":2,"b":8},"studentGuess":0.25,"delta":0.25,"totalExamples":2,"bonus":0,"bonusSoFar":0},{"rt":10837,"response":{"heads":"2","tails":"2"},"type":"response","condition":"nonSeqPartial","trueTheta":0.8,"classrooms":["A","B"],"studentTrueClassroom":"B","exampleSet":"first","trial_type":"survey-html-form","trial_index":50,"time_elapsed":1106595,"internal_node_id":"0.0-28.0-0.0","params":{"nStudents":24,"maxFlips":25,"completionMinutes":45,"basePay":8,"maxBonus":9,"perTrialBonus":0.5,"perTrialBonusThreshold":0.05,"exampleCost":0.02},"classroomParams":{"A":{"a":1,"b":4},"B":{"a":4,"b":1},"C":{"a":2,"b":8},"D":{"a":8,"b":2}},"conditions":["nonSeqFull","nonSeqPartial","seqNoFeedback","seqFeedback"],"classroomPairings":[["A","B"],["C","D"]],"coinWeights":[0.2,0.5,0.8],"subjectId":"A36470UBRH28GO","assignmentId":"3VBEN272MLL8Q4C8LJC5KQI9Q6MGSZ","hitId":"3XUY87HIVP03YZXVLN9CW37DVI1MM2","url":"https://gershmanlab.com/experiments/alicia/teaching/experiment/?hitId=3XUY87HIVP03YZXVLN9CW37DVI1MM2&workerId=A36470UBRH28GO&assignmentId=3VBEN272MLL8Q4C8LJC5KQI9Q6MGSZ&a=2NBV3&tp_a=2NBV3&b=3VBEN272MLL8Q4C8LJC5KQI9Q6MGSZ&tp_b=3VBEN272MLL8Q4C8LJC5KQI9Q6MGSZ&c=365633&tp_c=365633","heads":2,"tails":2,"studentIndex":3,"studentTrueHypers":{"a":4,"b":1},"studentGuess":0.6666666666666666,"delta":0.13333333333333341,"totalExamples":4,"bonus":0,"bonusSoFar":0},{"rt":6637,"response":{"heads":"5","tails":"5"},"type":"response","condition":"nonSeqFull","trueTheta":0.2,"classrooms":["A","B"],"studentTrueClassroom":"A","exampleSet":"first","trial_type":"survey-html-form","trial_index":56,"time_elapsed":1133073,"internal_node_id":"0.0-34.0-0.0","params":{"nStudents":24,"maxFlips":25,"completionMinutes":45,"basePay":8,"maxBonus":9,"perTrialBonus":0.5,"perTrialBonusThreshold":0.05,"exampleCost":0.02},"classroomParams":{"A":{"a":1,"b":4},"B":{"a":4,"b":1},"C":{"a":2,"b":8},"D":{"a":8,"b":2}},"conditions":["nonSeqFull","nonSeqPartial","seqNoFeedback","seqFeedback"],"classroomPairings":[["A","B"],["C","D"]],"coinWeights":[0.2,0.5,0.8],"subjectId":"A36470UBRH28GO","assignmentId":"3VBEN272MLL8Q4C8LJC5KQI9Q6MGSZ","hitId":"3XUY87HIVP03YZXVLN9CW37DVI1MM2","url":"https://gershmanlab.com/experiments/alicia/teaching/experiment/?hitId=3XUY87HIVP03YZXVLN9CW37DVI1MM2&workerId=A36470UBRH28GO&assignmentId=3VBEN272MLL8Q4C8LJC5KQI9Q6MGSZ&a=2NBV3&tp_a=2NBV3&b=3VBEN272MLL8Q4C8LJC5KQI9Q6MGSZ&tp_b=3VBEN272MLL8Q4C8LJC5KQI9Q6MGSZ&c=365633&tp_c=365633","heads":5,"tails":5,"studentIndex":4,"studentTrueHypers":{"a":1,"b":4},"studentGuess":0.4,"delta":0.2,"totalExamples":10,"bonus":0,"bonusSoFar":0},{"rt":5961,"response":{"heads":"6","tails":"6"},"type":"response","condition":"nonSeqPartial","trueTheta":0.8,"classrooms":["C","D"],"studentTrueClassroom":"D","exampleSet":"first","trial_type":"survey-html-form","trial_index":62,"time_elapsed":1153574,"internal_node_id":"0.0-40.0-0.0","params":{"nStudents":24,"maxFlips":25,"completionMinutes":45,"basePay":8,"maxBonus":9,"perTrialBonus":0.5,"perTrialBonusThreshold":0.05,"exampleCost":0.02},"classroomParams":{"A":{"a":1,"b":4},"B":{"a":4,"b":1},"C":{"a":2,"b":8},"D":{"a":8,"b":2}},"conditions":["nonSeqFull","nonSeqPartial","seqNoFeedback","seqFeedback"],"classroomPairings":[["A","B"],["C","D"]],"coinWeights":[0.2,0.5,0.8],"subjectId":"A36470UBRH28GO","assignmentId":"3VBEN272MLL8Q4C8LJC5KQI9Q6MGSZ","hitId":"3XUY87HIVP03YZXVLN9CW37DVI1MM2","url":"https://gershmanlab.com/experiments/alicia/teaching/experiment/?hitId=3XUY87HIVP03YZXVLN9CW37DVI1MM2&workerId=A36470UBRH28GO&assignmentId=3VBEN272MLL8Q4C8LJC5KQI9Q6MGSZ&a=2NBV3&tp_a=2NBV3&b=3VBEN272MLL8Q4C8LJC5KQI9Q6MGSZ&tp_b=3VBEN272MLL8Q4C8LJC5KQI9Q6MGSZ&c=365633&tp_c=365633","heads":6,"tails":6,"studentIndex":5,"studentTrueHypers":{"a":8,"b":2},"studentGuess":0.6363636363636364,"delta":0.1636363636363637,"totalExamples":12,"bonus":0,"bonusSoFar":0},{"rt":4095,"response":{"heads":"0","tails":"6"},"type":"response","condition":"seqNoFeedback","trueTheta":0.2,"classrooms":["C","D"],"studentTrueClassroom":"C","exampleSet":"first","trial_type":"survey-html-form","trial_index":68,"time_elapsed":1174077,"internal_node_id":"0.0-46.0-0.0","params":{"nStudents":24,"maxFlips":25,"completionMinutes":45,"basePay":8,"maxBonus":9,"perTrialBonus":0.5,"perTrialBonusThreshold":0.05,"exampleCost":0.02},"classroomParams":{"A":{"a":1,"b":4},"B":{"a":4,"b":1},"C":{"a":2,"b":8},"D":{"a":8,"b":2}},"conditions":["nonSeqFull","nonSeqPartial","seqNoFeedback","seqFeedback"],"classroomPairings":[["A","B"],["C","D"]],"coinWeights":[0.2,0.5,0.8],"subjectId":"A36470UBRH28GO","assignmentId":"3VBEN272MLL8Q4C8LJC5KQI9Q6MGSZ","hitId":"3XUY87HIVP03YZXVLN9CW37DVI1MM2","url":"https://gershmanlab.com/experiments/alicia/teaching/experiment/?hitId=3XUY87HIVP03YZXVLN9CW37DVI1MM2&workerId=A36470UBRH28GO&assignmentId=3VBEN272MLL8Q4C8LJC5KQI9Q6MGSZ&a=2NBV3&tp_a=2NBV3&b=3VBEN272MLL8Q4C8LJC5KQI9Q6MGSZ&tp_b=3VBEN272MLL8Q4C8LJC5KQI9Q6MGSZ&c=365633&tp_c=365633","heads":0,"tails":6,"studentIndex":6,"studentTrueHypers":{"a":2,"b":8},"studentGuess":0.125,"delta":0.07500000000000001,"totalExamples":6,"bonusSoFar":0},{"rt":9500,"response":{"heads":"1","tails":"6"},"type":"response","condition":"seqNoFeedback","trueTheta":0.2,"classrooms":["C","D"],"studentTrueClassroom":"C","exampleSet":"second","trial_type":"survey-html-form","trial_index":71,"time_elapsed":1191090,"internal_node_id":"0.0-49.0-0.0","params":{"nStudents":24,"maxFlips":25,"completionMinutes":45,"basePay":8,"maxBonus":9,"perTrialBonus":0.5,"perTrialBonusThreshold":0.05,"exampleCost":0.02},"classroomParams":{"A":{"a":1,"b":4},"B":{"a":4,"b":1},"C":{"a":2,"b":8},"D":{"a":8,"b":2}},"conditions":["nonSeqFull","nonSeqPartial","seqNoFeedback","seqFeedback"],"classroomPairings":[["A","B"],["C","D"]],"coinWeights":[0.2,0.5,0.8],"subjectId":"A36470UBRH28GO","assignmentId":"3VBEN272MLL8Q4C8LJC5KQI9Q6MGSZ","hitId":"3XUY87HIVP03YZXVLN9CW37DVI1MM2","url":"https://gershmanlab.com/experiments/alicia/teaching/experiment/?hitId=3XUY87HIVP03YZXVLN9CW37DVI1MM2&workerId=A36470UBRH28GO&assignmentId=3VBEN272MLL8Q4C8LJC5KQI9Q6MGSZ&a=2NBV3&tp_a=2NBV3&b=3VBEN272MLL8Q4C8LJC5KQI9Q6MGSZ&tp_b=3VBEN272MLL8Q4C8LJC5KQI9Q6MGSZ&c=365633&tp_c=365633","firstResponseHeads":0,"firstResponseTails":6,"secondResponseHeads":1,"secondResponseTails":6,"totalHeads":1,"totalTails":12,"studentIndex":6,"studentTrueHypers":{"a":2,"b":8},"studentGuess":0.13043478260869565,"delta":0.06956521739130436,"bonus":0,"bonusSoFar":0,"totalExamples":13},{"rt":4740,"response":{"heads":"5","tails":"5"},"type":"response","condition":"seqNoFeedback","trueTheta":0.5,"classrooms":["A","B"],"studentTrueClassroom":"A","exampleSet":"first","trial_type":"survey-html-form","trial_index":77,"time_elapsed":1210788,"internal_node_id":"0.0-55.0-0.0","params":{"nStudents":24,"maxFlips":25,"completionMinutes":45,"basePay":8,"maxBonus":9,"perTrialBonus":0.5,"perTrialBonusThreshold":0.05,"exampleCost":0.02},"classroomParams":{"A":{"a":1,"b":4},"B":{"a":4,"b":1},"C":{"a":2,"b":8},"D":{"a":8,"b":2}},"conditions":["nonSeqFull","nonSeqPartial","seqNoFeedback","seqFeedback"],"classroomPairings":[["A","B"],["C","D"]],"coinWeights":[0.2,0.5,0.8],"subjectId":"A36470UBRH28GO","assignmentId":"3VBEN272MLL8Q4C8LJC5KQI9Q6MGSZ","hitId":"3XUY87HIVP03YZXVLN9CW37DVI1MM2","url":"https://gershmanlab.com/experiments/alicia/teaching/experiment/?hitId=3XUY87HIVP03YZXVLN9CW37DVI1MM2&workerId=A36470UBRH28GO&assignmentId=3VBEN272MLL8Q4C8LJC5KQI9Q6MGSZ&a=2NBV3&tp_a=2NBV3&b=3VBEN272MLL8Q4C8LJC5KQI9Q6MGSZ&tp_b=3VBEN272MLL8Q4C8LJC5KQI9Q6MGSZ&c=365633&tp_c=365633","heads":5,"tails":5,"studentIndex":7,"studentTrueHypers":{"a":1,"b":4},"studentGuess":0.4,"delta":0.09999999999999998,"totalExamples":10,"bonusSoFar":0},{"rt":6161,"response":{"heads":"5","tails":"5"},"type":"response","condition":"seqNoFeedback","trueTheta":0.5,"classrooms":["A","B"],"studentTrueClassroom":"A","exampleSet":"second","trial_type":"survey-html-form","trial_index":80,"time_elapsed":1224226,"internal_node_id":"0.0-58.0-0.0","params":{"nStudents":24,"maxFlips":25,"completionMinutes":45,"basePay":8,"maxBonus":9,"perTrialBonus":0.5,"perTrialBonusThreshold":0.05,"exampleCost":0.02},"classroomParams":{"A":{"a":1,"b":4},"B":{"a":4,"b":1},"C":{"a":2,"b":8},"D":{"a":8,"b":2}},"conditions":["nonSeqFull","nonSeqPartial","seqNoFeedback","seqFeedback"],"classroomPairings":[["A","B"],["C","D"]],"coinWeights":[0.2,0.5,0.8],"subjectId":"A36470UBRH28GO","assignmentId":"3VBEN272MLL8Q4C8LJC5KQI9Q6MGSZ","hitId":"3XUY87HIVP03YZXVLN9CW37DVI1MM2","url":"https://gershmanlab.com/experiments/alicia/teaching/experiment/?hitId=3XUY87HIVP03YZXVLN9CW37DVI1MM2&workerId=A36470UBRH28GO&assignmentId=3VBEN272MLL8Q4C8LJC5KQI9Q6MGSZ&a=2NBV3&tp_a=2NBV3&b=3VBEN272MLL8Q4C8LJC5KQI9Q6MGSZ&tp_b=3VBEN272MLL8Q4C8LJC5KQI9Q6MGSZ&c=365633&tp_c=365633","firstResponseHeads":5,"firstResponseTails":5,"secondResponseHeads":5,"secondResponseTails":5,"totalHeads":10,"totalTails":10,"studentIndex":7,"studentTrueHypers":{"a":1,"b":4},"studentGuess":0.44,"delta":0.06,"bonus":0,"bonusSoFar":0,"totalExamples":20},{"rt":7599,"response":{"heads":"10","tails":"10"},"type":"response","condition":"seqNoFeedback","trueTheta":0.5,"classrooms":["C","D"],"studentTrueClassroom":"D","exampleSet":"first","trial_type":"survey-html-form","trial_index":86,"time_elapsed":1246602,"internal_node_id":"0.0-64.0-0.0","params":{"nStudents":24,"maxFlips":25,"completionMinutes":45,"basePay":8,"maxBonus":9,"perTrialBonus":0.5,"perTrialBonusThreshold":0.05,"exampleCost":0.02},"classroomParams":{"A":{"a":1,"b":4},"B":{"a":4,"b":1},"C":{"a":2,"b":8},"D":{"a":8,"b":2}},"conditions":["nonSeqFull","nonSeqPartial","seqNoFeedback","seqFeedback"],"classroomPairings":[["A","B"],["C","D"]],"coinWeights":[0.2,0.5,0.8],"subjectId":"A36470UBRH28GO","assignmentId":"3VBEN272MLL8Q4C8LJC5KQI9Q6MGSZ","hitId":"3XUY87HIVP03YZXVLN9CW37DVI1MM2","url":"https://gershmanlab.com/experiments/alicia/teaching/experiment/?hitId=3XUY87HIVP03YZXVLN9CW37DVI1MM2&workerId=A36470UBRH28GO&assignmentId=3VBEN272MLL8Q4C8LJC5KQI9Q6MGSZ&a=2NBV3&tp_a=2NBV3&b=3VBEN272MLL8Q4C8LJC5KQI9Q6MGSZ&tp_b=3VBEN272MLL8Q4C8LJC5KQI9Q6MGSZ&c=365633&tp_c=365633","heads":10,"tails":10,"studentIndex":8,"studentTrueHypers":{"a":8,"b":2},"studentGuess":0.6,"delta":0.09999999999999998,"totalExamples":20,"bonusSoFar":0},{"rt":5615,"response":{"heads":"10","tails":"10"},"type":"response","condition":"seqNoFeedback","trueTheta":0.5,"classrooms":["C","D"],"studentTrueClassroom":"D","exampleSet":"second","trial_type":"survey-html-form","trial_index":89,"time_elapsed":1259220,"internal_node_id":"0.0-67.0-0.0","params":{"nStudents":24,"maxFlips":25,"completionMinutes":45,"basePay":8,"maxBonus":9,"perTrialBonus":0.5,"perTrialBonusThreshold":0.05,"exampleCost":0.02},"classroomParams":{"A":{"a":1,"b":4},"B":{"a":4,"b":1},"C":{"a":2,"b":8},"D":{"a":8,"b":2}},"conditions":["nonSeqFull","nonSeqPartial","seqNoFeedback","seqFeedback"],"classroomPairings":[["A","B"],["C","D"]],"coinWeights":[0.2,0.5,0.8],"subjectId":"A36470UBRH28GO","assignmentId":"3VBEN272MLL8Q4C8LJC5KQI9Q6MGSZ","hitId":"3XUY87HIVP03YZXVLN9CW37DVI1MM2","url":"https://gershmanlab.com/experiments/alicia/teaching/experiment/?hitId=3XUY87HIVP03YZXVLN9CW37DVI1MM2&workerId=A36470UBRH28GO&assignmentId=3VBEN272MLL8Q4C8LJC5KQI9Q6MGSZ&a=2NBV3&tp_a=2NBV3&b=3VBEN272MLL8Q4C8LJC5KQI9Q6MGSZ&tp_b=3VBEN272MLL8Q4C8LJC5KQI9Q6MGSZ&c=365633&tp_c=365633","firstResponseHeads":10,"firstResponseTails":10,"secondResponseHeads":10,"secondResponseTails":10,"totalHeads":20,"totalTails":20,"studentIndex":8,"studentTrueHypers":{"a":8,"b":2},"studentGuess":0.56,"delta":0.06000000000000005,"bonus":0,"bonusSoFar":0,"totalExamples":40},{"rt":3851,"response":{"heads":"5","tails":"10"},"type":"response","condition":"nonSeqFull","trueTheta":0.2,"classrooms":["C","D"],"studentTrueClassroom":"C","exampleSet":"first","trial_type":"survey-html-form","trial_index":95,"time_elapsed":1280089,"internal_node_id":"0.0-73.0-0.0","params":{"nStudents":24,"maxFlips":25,"completionMinutes":45,"basePay":8,"maxBonus":9,"perTrialBonus":0.5,"perTrialBonusThreshold":0.05,"exampleCost":0.02},"classroomParams":{"A":{"a":1,"b":4},"B":{"a":4,"b":1},"C":{"a":2,"b":8},"D":{"a":8,"b":2}},"conditions":["nonSeqFull","nonSeqPartial","seqNoFeedback","seqFeedback"],"classroomPairings":[["A","B"],["C","D"]],"coinWeights":[0.2,0.5,0.8],"subjectId":"A36470UBRH28GO","assignmentId":"3VBEN272MLL8Q4C8LJC5KQI9Q6MGSZ","hitId":"3XUY87HIVP03YZXVLN9CW37DVI1MM2","url":"https://gershmanlab.com/experiments/alicia/teaching/experiment/?hitId=3XUY87HIVP03YZXVLN9CW37DVI1MM2&workerId=A36470UBRH28GO&assignmentId=3VBEN272MLL8Q4C8LJC5KQI9Q6MGSZ&a=2NBV3&tp_a=2NBV3&b=3VBEN272MLL8Q4C8LJC5KQI9Q6MGSZ&tp_b=3VBEN272MLL8Q4C8LJC5KQI9Q6MGSZ&c=365633&tp_c=365633","heads":5,"tails":10,"studentIndex":9,"studentTrueHypers":{"a":2,"b":8},"studentGuess":0.28,"delta":0.08000000000000002,"totalExamples":15,"bonus":0,"bonusSoFar":0},{"rt":4632,"response":{"heads":"11","tails":"11"},"type":"response","condition":"nonSeqPartial","trueTheta":0.5,"classrooms":["A","B"],"studentTrueClassroom":"A","exampleSet":"first","trial_type":"survey-html-form","trial_index":101,"time_elapsed":1298025,"internal_node_id":"0.0-79.0-0.0","params":{"nStudents":24,"maxFlips":25,"completionMinutes":45,"basePay":8,"maxBonus":9,"perTrialBonus":0.5,"perTrialBonusThreshold":0.05,"exampleCost":0.02},"classroomParams":{"A":{"a":1,"b":4},"B":{"a":4,"b":1},"C":{"a":2,"b":8},"D":{"a":8,"b":2}},"conditions":["nonSeqFull","nonSeqPartial","seqNoFeedback","seqFeedback"],"classroomPairings":[["A","B"],["C","D"]],"coinWeights":[0.2,0.5,0.8],"subjectId":"A36470UBRH28GO","assignmentId":"3VBEN272MLL8Q4C8LJC5KQI9Q6MGSZ","hitId":"3XUY87HIVP03YZXVLN9CW37DVI1MM2","url":"https://gershmanlab.com/experiments/alicia/teaching/experiment/?hitId=3XUY87HIVP03YZXVLN9CW37DVI1MM2&workerId=A36470UBRH28GO&assignmentId=3VBEN272MLL8Q4C8LJC5KQI9Q6MGSZ&a=2NBV3&tp_a=2NBV3&b=3VBEN272MLL8Q4C8LJC5KQI9Q6MGSZ&tp_b=3VBEN272MLL8Q4C8LJC5KQI9Q6MGSZ&c=365633&tp_c=365633","heads":11,"tails":11,"studentIndex":10,"studentTrueHypers":{"a":1,"b":4},"studentGuess":0.4444444444444444,"delta":0.05555555555555558,"totalExamples":22,"bonus":0,"bonusSoFar":0},{"rt":5544,"response":{"heads":"7","tails":"7"},"type":"response","condition":"seqFeedback","trueTheta":0.5,"classrooms":["C","D"],"studentTrueClassroom":"D","exampleSet":"first","trial_type":"survey-html-form","trial_index":107,"time_elapsed":1319536,"internal_node_id":"0.0-85.0-0.0","params":{"nStudents":24,"maxFlips":25,"completionMinutes":45,"basePay":8,"maxBonus":9,"perTrialBonus":0.5,"perTrialBonusThreshold":0.05,"exampleCost":0.02},"classroomParams":{"A":{"a":1,"b":4},"B":{"a":4,"b":1},"C":{"a":2,"b":8},"D":{"a":8,"b":2}},"conditions":["nonSeqFull","nonSeqPartial","seqNoFeedback","seqFeedback"],"classroomPairings":[["A","B"],["C","D"]],"coinWeights":[0.2,0.5,0.8],"subjectId":"A36470UBRH28GO","assignmentId":"3VBEN272MLL8Q4C8LJC5KQI9Q6MGSZ","hitId":"3XUY87HIVP03YZXVLN9CW37DVI1MM2","url":"https://gershmanlab.com/experiments/alicia/teaching/experiment/?hitId=3XUY87HIVP03YZXVLN9CW37DVI1MM2&workerId=A36470UBRH28GO&assignmentId=3VBEN272MLL8Q4C8LJC5KQI9Q6MGSZ&a=2NBV3&tp_a=2NBV3&b=3VBEN272MLL8Q4C8LJC5KQI9Q6MGSZ&tp_b=3VBEN272MLL8Q4C8LJC5KQI9Q6MGSZ&c=365633&tp_c=365633","heads":7,"tails":7,"studentIndex":11,"studentTrueHypers":{"a":8,"b":2},"studentGuess":0.625,"delta":0.125,"totalExamples":14,"bonusSoFar":0},{"rt":9069,"response":{"heads":"5","tails":"6"},"type":"response","condition":"seqFeedback","trueTheta":0.5,"classrooms":["C","D"],"studentTrueClassroom":"D","exampleSet":"second","trial_type":"survey-html-form","trial_index":111,"time_elapsed":1342137,"internal_node_id":"0.0-89.0-0.0","params":{"nStudents":24,"maxFlips":25,"completionMinutes":45,"basePay":8,"maxBonus":9,"perTrialBonus":0.5,"perTrialBonusThreshold":0.05,"exampleCost":0.02},"classroomParams":{"A":{"a":1,"b":4},"B":{"a":4,"b":1},"C":{"a":2,"b":8},"D":{"a":8,"b":2}},"conditions":["nonSeqFull","nonSeqPartial","seqNoFeedback","seqFeedback"],"classroomPairings":[["A","B"],["C","D"]],"coinWeights":[0.2,0.5,0.8],"subjectId":"A36470UBRH28GO","assignmentId":"3VBEN272MLL8Q4C8LJC5KQI9Q6MGSZ","hitId":"3XUY87HIVP03YZXVLN9CW37DVI1MM2","url":"https://gershmanlab.com/experiments/alicia/teaching/experiment/?hitId=3XUY87HIVP03YZXVLN9CW37DVI1MM2&workerId=A36470UBRH28GO&assignmentId=3VBEN272MLL8Q4C8LJC5KQI9Q6MGSZ&a=2NBV3&tp_a=2NBV3&b=3VBEN272MLL8Q4C8LJC5KQI9Q6MGSZ&tp_b=3VBEN272MLL8Q4C8LJC5KQI9Q6MGSZ&c=365633&tp_c=365633","firstResponseHeads":7,"firstResponseTails":7,"secondResponseHeads":5,"secondResponseTails":6,"totalHeads":12,"totalTails":13,"studentIndex":11,"studentTrueHypers":{"a":8,"b":2},"studentGuess":0.5714285714285714,"delta":0.0714285714285714,"bonus":0,"bonusSoFar":0,"totalExamples":25},{"rt":8623,"response":{"heads":"10","tails":"8"},"type":"response","condition":"seqNoFeedback","trueTheta":0.8,"classrooms":["A","B"],"studentTrueClassroom":"A","exampleSet":"first","trial_type":"survey-html-form","trial_index":117,"time_elapsed":1370420,"internal_node_id":"0.0-95.0-0.0","params":{"nStudents":24,"maxFlips":25,"completionMinutes":45,"basePay":8,"maxBonus":9,"perTrialBonus":0.5,"perTrialBonusThreshold":0.05,"exampleCost":0.02},"classroomParams":{"A":{"a":1,"b":4},"B":{"a":4,"b":1},"C":{"a":2,"b":8},"D":{"a":8,"b":2}},"conditions":["nonSeqFull","nonSeqPartial","seqNoFeedback","seqFeedback"],"classroomPairings":[["A","B"],["C","D"]],"coinWeights":[0.2,0.5,0.8],"subjectId":"A36470UBRH28GO","assignmentId":"3VBEN272MLL8Q4C8LJC5KQI9Q6MGSZ","hitId":"3XUY87HIVP03YZXVLN9CW37DVI1MM2","url":"https://gershmanlab.com/experiments/alicia/teaching/experiment/?hitId=3XUY87HIVP03YZXVLN9CW37DVI1MM2&workerId=A36470UBRH28GO&assignmentId=3VBEN272MLL8Q4C8LJC5KQI9Q6MGSZ&a=2NBV3&tp_a=2NBV3&b=3VBEN272MLL8Q4C8LJC5KQI9Q6MGSZ&tp_b=3VBEN272MLL8Q4C8LJC5KQI9Q6MGSZ&c=365633&tp_c=365633","heads":10,"tails":8,"studentIndex":12,"studentTrueHypers":{"a":1,"b":4},"studentGuess":0.4782608695652174,"delta":0.32173913043478264,"totalExamples":18,"bonusSoFar":0},{"rt":6521,"response":{"heads":"10","tails":"8"},"type":"response","condition":"seqNoFeedback","trueTheta":0.8,"classrooms":["A","B"],"studentTrueClassroom":"A","exampleSet":"second","trial_type":"survey-html-form","trial_index":120,"time_elapsed":1384954,"internal_node_id":"0.0-98.0-0.0","params":{"nStudents":24,"maxFlips":25,"completionMinutes":45,"basePay":8,"maxBonus":9,"perTrialBonus":0.5,"perTrialBonusThreshold":0.05,"exampleCost":0.02},"classroomParams":{"A":{"a":1,"b":4},"B":{"a":4,"b":1},"C":{"a":2,"b":8},"D":{"a":8,"b":2}},"conditions":["nonSeqFull","nonSeqPartial","seqNoFeedback","seqFeedback"],"classroomPairings":[["A","B"],["C","D"]],"coinWeights":[0.2,0.5,0.8],"subjectId":"A36470UBRH28GO","assignmentId":"3VBEN272MLL8Q4C8LJC5KQI9Q6MGSZ","hitId":"3XUY87HIVP03YZXVLN9CW37DVI1MM2","url":"https://gershmanlab.com/experiments/alicia/teaching/experiment/?hitId=3XUY87HIVP03YZXVLN9CW37DVI1MM2&workerId=A36470UBRH28GO&assignmentId=3VBEN272MLL8Q4C8LJC5KQI9Q6MGSZ&a=2NBV3&tp_a=2NBV3&b=3VBEN272MLL8Q4C8LJC5KQI9Q6MGSZ&tp_b=3VBEN272MLL8Q4C8LJC5KQI9Q6MGSZ&c=365633&tp_c=365633","firstResponseHeads":10,"firstResponseTails":8,"secondResponseHeads":10,"secondResponseTails":8,"totalHeads":20,"totalTails":16,"studentIndex":12,"studentTrueHypers":{"a":1,"b":4},"studentGuess":0.5121951219512195,"delta":0.2878048780487805,"bonus":0,"bonusSoFar":0,"totalExamples":36},{"rt":10219,"response":{"heads":"10","tails":"15"},"type":"response","condition":"seqFeedback","trueTheta":0.2,"classrooms":["C","D"],"studentTrueClassroom":"C","exampleSet":"first","trial_type":"survey-html-form","trial_index":126,"time_elapsed":1411526,"internal_node_id":"0.0-104.0-0.0","params":{"nStudents":24,"maxFlips":25,"completionMinutes":45,"basePay":8,"maxBonus":9,"perTrialBonus":0.5,"perTrialBonusThreshold":0.05,"exampleCost":0.02},"classroomParams":{"A":{"a":1,"b":4},"B":{"a":4,"b":1},"C":{"a":2,"b":8},"D":{"a":8,"b":2}},"conditions":["nonSeqFull","nonSeqPartial","seqNoFeedback","seqFeedback"],"classroomPairings":[["A","B"],["C","D"]],"coinWeights":[0.2,0.5,0.8],"subjectId":"A36470UBRH28GO","assignmentId":"3VBEN272MLL8Q4C8LJC5KQI9Q6MGSZ","hitId":"3XUY87HIVP03YZXVLN9CW37DVI1MM2","url":"https://gershmanlab.com/experiments/alicia/teaching/experiment/?hitId=3XUY87HIVP03YZXVLN9CW37DVI1MM2&workerId=A36470UBRH28GO&assignmentId=3VBEN272MLL8Q4C8LJC5KQI9Q6MGSZ&a=2NBV3&tp_a=2NBV3&b=3VBEN272MLL8Q4C8LJC5KQI9Q6MGSZ&tp_b=3VBEN272MLL8Q4C8LJC5KQI9Q6MGSZ&c=365633&tp_c=365633","heads":10,"tails":15,"studentIndex":13,"studentTrueHypers":{"a":2,"b":8},"studentGuess":0.34285714285714286,"delta":0.14285714285714285,"totalExamples":25,"bonusSoFar":0},{"rt":10782,"response":{"heads":"5","tails":"10"},"type":"response","condition":"seqFeedback","trueTheta":0.2,"classrooms":["C","D"],"studentTrueClassroom":"C","exampleSet":"second","trial_type":"survey-html-form","trial_index":130,"time_elapsed":1431480,"internal_node_id":"0.0-108.0-0.0","params":{"nStudents":24,"maxFlips":25,"completionMinutes":45,"basePay":8,"maxBonus":9,"perTrialBonus":0.5,"perTrialBonusThreshold":0.05,"exampleCost":0.02},"classroomParams":{"A":{"a":1,"b":4},"B":{"a":4,"b":1},"C":{"a":2,"b":8},"D":{"a":8,"b":2}},"conditions":["nonSeqFull","nonSeqPartial","seqNoFeedback","seqFeedback"],"classroomPairings":[["A","B"],["C","D"]],"coinWeights":[0.2,0.5,0.8],"subjectId":"A36470UBRH28GO","assignmentId":"3VBEN272MLL8Q4C8LJC5KQI9Q6MGSZ","hitId":"3XUY87HIVP03YZXVLN9CW37DVI1MM2","url":"https://gershmanlab.com/experiments/alicia/teaching/experiment/?hitId=3XUY87HIVP03YZXVLN9CW37DVI1MM2&workerId=A36470UBRH28GO&assignmentId=3VBEN272MLL8Q4C8LJC5KQI9Q6MGSZ&a=2NBV3&tp_a=2NBV3&b=3VBEN272MLL8Q4C8LJC5KQI9Q6MGSZ&tp_b=3VBEN272MLL8Q4C8LJC5KQI9Q6MGSZ&c=365633&tp_c=365633","firstResponseHeads":10,"firstResponseTails":15,"secondResponseHeads":5,"secondResponseTails":10,"totalHeads":15,"totalTails":25,"studentIndex":13,"studentTrueHypers":{"a":2,"b":8},"studentGuess":0.34,"delta":0.14,"bonus":0,"bonusSoFar":0,"totalExamples":40},{"rt":3447,"response":{"heads":"0","tails":"25"},"type":"response","condition":"nonSeqPartial","trueTheta":0.2,"classrooms":["A","B"],"studentTrueClassroom":"A","exampleSet":"first","trial_type":"survey-html-form","trial_index":136,"time_elapsed":1450076,"internal_node_id":"0.0-114.0-0.0","params":{"nStudents":24,"maxFlips":25,"completionMinutes":45,"basePay":8,"maxBonus":9,"perTrialBonus":0.5,"perTrialBonusThreshold":0.05,"exampleCost":0.02},"classroomParams":{"A":{"a":1,"b":4},"B":{"a":4,"b":1},"C":{"a":2,"b":8},"D":{"a":8,"b":2}},"conditions":["nonSeqFull","nonSeqPartial","seqNoFeedback","seqFeedback"],"classroomPairings":[["A","B"],["C","D"]],"coinWeights":[0.2,0.5,0.8],"subjectId":"A36470UBRH28GO","assignmentId":"3VBEN272MLL8Q4C8LJC5KQI9Q6MGSZ","hitId":"3XUY87HIVP03YZXVLN9CW37DVI1MM2","url":"https://gershmanlab.com/experiments/alicia/teaching/experiment/?hitId=3XUY87HIVP03YZXVLN9CW37DVI1MM2&workerId=A36470UBRH28GO&assignmentId=3VBEN272MLL8Q4C8LJC5KQI9Q6MGSZ&a=2NBV3&tp_a=2NBV3&b=3VBEN272MLL8Q4C8LJC5KQI9Q6MGSZ&tp_b=3VBEN272MLL8Q4C8LJC5KQI9Q6MGSZ&c=365633&tp_c=365633","heads":0,"tails":25,"studentIndex":14,"studentTrueHypers":{"a":1,"b":4},"studentGuess":0.03333333333333333,"delta":0.16666666666666669,"totalExamples":25,"bonus":0,"bonusSoFar":0},{"rt":5701,"response":{"heads":"24","tails":"1"},"type":"response","condition":"seqFeedback","trueTheta":0.8,"classrooms":["A","B"],"studentTrueClassroom":"A","exampleSet":"first","trial_type":"survey-html-form","trial_index":142,"time_elapsed":1469360,"internal_node_id":"0.0-120.0-0.0","params":{"nStudents":24,"maxFlips":25,"completionMinutes":45,"basePay":8,"maxBonus":9,"perTrialBonus":0.5,"perTrialBonusThreshold":0.05,"exampleCost":0.02},"classroomParams":{"A":{"a":1,"b":4},"B":{"a":4,"b":1},"C":{"a":2,"b":8},"D":{"a":8,"b":2}},"conditions":["nonSeqFull","nonSeqPartial","seqNoFeedback","seqFeedback"],"classroomPairings":[["A","B"],["C","D"]],"coinWeights":[0.2,0.5,0.8],"subjectId":"A36470UBRH28GO","assignmentId":"3VBEN272MLL8Q4C8LJC5KQI9Q6MGSZ","hitId":"3XUY87HIVP03YZXVLN9CW37DVI1MM2","url":"https://gershmanlab.com/experiments/alicia/teaching/experiment/?hitId=3XUY87HIVP03YZXVLN9CW37DVI1MM2&workerId=A36470UBRH28GO&assignmentId=3VBEN272MLL8Q4C8LJC5KQI9Q6MGSZ&a=2NBV3&tp_a=2NBV3&b=3VBEN272MLL8Q4C8LJC5KQI9Q6MGSZ&tp_b=3VBEN272MLL8Q4C8LJC5KQI9Q6MGSZ&c=365633&tp_c=365633","heads":24,"tails":1,"studentIndex":15,"studentTrueHypers":{"a":1,"b":4},"studentGuess":0.8333333333333334,"delta":0.033333333333333326,"totalExamples":25,"bonusSoFar":0},{"rt":5811,"response":{"heads":"10","tails":"1"},"type":"response","condition":"seqFeedback","trueTheta":0.8,"classrooms":["A","B"],"studentTrueClassroom":"A","exampleSet":"second","trial_type":"survey-html-form","trial_index":146,"time_elapsed":1484270,"internal_node_id":"0.0-124.0-0.0","params":{"nStudents":24,"maxFlips":25,"completionMinutes":45,"basePay":8,"maxBonus":9,"perTrialBonus":0.5,"perTrialBonusThreshold":0.05,"exampleCost":0.02},"classroomParams":{"A":{"a":1,"b":4},"B":{"a":4,"b":1},"C":{"a":2,"b":8},"D":{"a":8,"b":2}},"conditions":["nonSeqFull","nonSeqPartial","seqNoFeedback","seqFeedback"],"classroomPairings":[["A","B"],["C","D"]],"coinWeights":[0.2,0.5,0.8],"subjectId":"A36470UBRH28GO","assignmentId":"3VBEN272MLL8Q4C8LJC5KQI9Q6MGSZ","hitId":"3XUY87HIVP03YZXVLN9CW37DVI1MM2","url":"https://gershmanlab.com/experiments/alicia/teaching/experiment/?hitId=3XUY87HIVP03YZXVLN9CW37DVI1MM2&workerId=A36470UBRH28GO&assignmentId=3VBEN272MLL8Q4C8LJC5KQI9Q6MGSZ&a=2NBV3&tp_a=2NBV3&b=3VBEN272MLL8Q4C8LJC5KQI9Q6MGSZ&tp_b=3VBEN272MLL8Q4C8LJC5KQI9Q6MGSZ&c=365633&tp_c=365633","firstResponseHeads":24,"firstResponseTails":1,"secondResponseHeads":10,"secondResponseTails":1,"totalHeads":34,"totalTails":2,"studentIndex":15,"studentTrueHypers":{"a":1,"b":4},"studentGuess":0.8536585365853658,"delta":0.05365853658536579,"bonus":0,"bonusSoFar":0,"totalExamples":36},{"rt":3867,"response":{"heads":"10","tails":"10"},"type":"response","condition":"seqFeedback","trueTheta":0.5,"classrooms":["A","B"],"studentTrueClassroom":"A","exampleSet":"first","trial_type":"survey-html-form","trial_index":152,"time_elapsed":1509896,"internal_node_id":"0.0-130.0-0.0","params":{"nStudents":24,"maxFlips":25,"completionMinutes":45,"basePay":8,"maxBonus":9,"perTrialBonus":0.5,"perTrialBonusThreshold":0.05,"exampleCost":0.02},"classroomParams":{"A":{"a":1,"b":4},"B":{"a":4,"b":1},"C":{"a":2,"b":8},"D":{"a":8,"b":2}},"conditions":["nonSeqFull","nonSeqPartial","seqNoFeedback","seqFeedback"],"classroomPairings":[["A","B"],["C","D"]],"coinWeights":[0.2,0.5,0.8],"subjectId":"A36470UBRH28GO","assignmentId":"3VBEN272MLL8Q4C8LJC5KQI9Q6MGSZ","hitId":"3XUY87HIVP03YZXVLN9CW37DVI1MM2","url":"https://gershmanlab.com/experiments/alicia/teaching/experiment/?hitId=3XUY87HIVP03YZXVLN9CW37DVI1MM2&workerId=A36470UBRH28GO&assignmentId=3VBEN272MLL8Q4C8LJC5KQI9Q6MGSZ&a=2NBV3&tp_a=2NBV3&b=3VBEN272MLL8Q4C8LJC5KQI9Q6MGSZ&tp_b=3VBEN272MLL8Q4C8LJC5KQI9Q6MGSZ&c=365633&tp_c=365633","heads":10,"tails":10,"studentIndex":16,"studentTrueHypers":{"a":1,"b":4},"studentGuess":0.44,"delta":0.06,"totalExamples":20,"bonusSoFar":0},{"rt":4081,"response":{"heads":"5","tails":"5"},"type":"response","condition":"seqFeedback","trueTheta":0.5,"classrooms":["A","B"],"studentTrueClassroom":"A","exampleSet":"second","trial_type":"survey-html-form","trial_index":156,"time_elapsed":1522987,"internal_node_id":"0.0-134.0-0.0","params":{"nStudents":24,"maxFlips":25,"completionMinutes":45,"basePay":8,"maxBonus":9,"perTrialBonus":0.5,"perTrialBonusThreshold":0.05,"exampleCost":0.02},"classroomParams":{"A":{"a":1,"b":4},"B":{"a":4,"b":1},"C":{"a":2,"b":8},"D":{"a":8,"b":2}},"conditions":["nonSeqFull","nonSeqPartial","seqNoFeedback","seqFeedback"],"classroomPairings":[["A","B"],["C","D"]],"coinWeights":[0.2,0.5,0.8],"subjectId":"A36470UBRH28GO","assignmentId":"3VBEN272MLL8Q4C8LJC5KQI9Q6MGSZ","hitId":"3XUY87HIVP03YZXVLN9CW37DVI1MM2","url":"https://gershmanlab.com/experiments/alicia/teaching/experiment/?hitId=3XUY87HIVP03YZXVLN9CW37DVI1MM2&workerId=A36470UBRH28GO&assignmentId=3VBEN272MLL8Q4C8LJC5KQI9Q6MGSZ&a=2NBV3&tp_a=2NBV3&b=3VBEN272MLL8Q4C8LJC5KQI9Q6MGSZ&tp_b=3VBEN272MLL8Q4C8LJC5KQI9Q6MGSZ&c=365633&tp_c=365633","firstResponseHeads":10,"firstResponseTails":10,"secondResponseHeads":5,"secondResponseTails":5,"totalHeads":15,"totalTails":15,"studentIndex":16,"studentTrueHypers":{"a":1,"b":4},"studentGuess":0.45714285714285713,"delta":0.04285714285714287,"bonus":0,"bonusSoFar":0,"totalExamples":30},{"rt":3865,"response":{"heads":"1","tails":"1"},"type":"response","condition":"nonSeqPartial","trueTheta":0.2,"classrooms":["C","D"],"studentTrueClassroom":"C","exampleSet":"first","trial_type":"survey-html-form","trial_index":162,"time_elapsed":1538974,"internal_node_id":"0.0-140.0-0.0","params":{"nStudents":24,"maxFlips":25,"completionMinutes":45,"basePay":8,"maxBonus":9,"perTrialBonus":0.5,"perTrialBonusThreshold":0.05,"exampleCost":0.02},"classroomParams":{"A":{"a":1,"b":4},"B":{"a":4,"b":1},"C":{"a":2,"b":8},"D":{"a":8,"b":2}},"conditions":["nonSeqFull","nonSeqPartial","seqNoFeedback","seqFeedback"],"classroomPairings":[["A","B"],["C","D"]],"coinWeights":[0.2,0.5,0.8],"subjectId":"A36470UBRH28GO","assignmentId":"3VBEN272MLL8Q4C8LJC5KQI9Q6MGSZ","hitId":"3XUY87HIVP03YZXVLN9CW37DVI1MM2","url":"https://gershmanlab.com/experiments/alicia/teaching/experiment/?hitId=3XUY87HIVP03YZXVLN9CW37DVI1MM2&workerId=A36470UBRH28GO&assignmentId=3VBEN272MLL8Q4C8LJC5KQI9Q6MGSZ&a=2NBV3&tp_a=2NBV3&b=3VBEN272MLL8Q4C8LJC5KQI9Q6MGSZ&tp_b=3VBEN272MLL8Q4C8LJC5KQI9Q6MGSZ&c=365633&tp_c=365633","heads":1,"tails":1,"studentIndex":17,"studentTrueHypers":{"a":2,"b":8},"studentGuess":0.25,"delta":0.04999999999999999,"totalExamples":2,"bonus":0.46,"bonusSoFar":0.46},{"rt":4101,"response":{"heads":"1","tails":"1"},"type":"response","condition":"nonSeqFull","trueTheta":0.5,"classrooms":["A","B"],"studentTrueClassroom":"A","exampleSet":"first","trial_type":"survey-html-form","trial_index":168,"time_elapsed":1558002,"internal_node_id":"0.0-146.0-0.0","params":{"nStudents":24,"maxFlips":25,"completionMinutes":45,"basePay":8,"maxBonus":9,"perTrialBonus":0.5,"perTrialBonusThreshold":0.05,"exampleCost":0.02},"classroomParams":{"A":{"a":1,"b":4},"B":{"a":4,"b":1},"C":{"a":2,"b":8},"D":{"a":8,"b":2}},"conditions":["nonSeqFull","nonSeqPartial","seqNoFeedback","seqFeedback"],"classroomPairings":[["A","B"],["C","D"]],"coinWeights":[0.2,0.5,0.8],"subjectId":"A36470UBRH28GO","assignmentId":"3VBEN272MLL8Q4C8LJC5KQI9Q6MGSZ","hitId":"3XUY87HIVP03YZXVLN9CW37DVI1MM2","url":"https://gershmanlab.com/experiments/alicia/teaching/experiment/?hitId=3XUY87HIVP03YZXVLN9CW37DVI1MM2&workerId=A36470UBRH28GO&assignmentId=3VBEN272MLL8Q4C8LJC5KQI9Q6MGSZ&a=2NBV3&tp_a=2NBV3&b=3VBEN272MLL8Q4C8LJC5KQI9Q6MGSZ&tp_b=3VBEN272MLL8Q4C8LJC5KQI9Q6MGSZ&c=365633&tp_c=365633","heads":1,"tails":1,"studentIndex":18,"studentTrueHypers":{"a":1,"b":4},"studentGuess":0.2857142857142857,"delta":0.2142857142857143,"totalExamples":2,"bonus":0,"bonusSoFar":0.46},{"rt":3693,"response":{"heads":"1","tails":"2"},"type":"response","condition":"seqFeedback","trueTheta":0.2,"classrooms":["A","B"],"studentTrueClassroom":"A","exampleSet":"first","trial_type":"survey-html-form","trial_index":174,"time_elapsed":1579156,"internal_node_id":"0.0-152.0-0.0","params":{"nStudents":24,"maxFlips":25,"completionMinutes":45,"basePay":8,"maxBonus":9,"perTrialBonus":0.5,"perTrialBonusThreshold":0.05,"exampleCost":0.02},"classroomParams":{"A":{"a":1,"b":4},"B":{"a":4,"b":1},"C":{"a":2,"b":8},"D":{"a":8,"b":2}},"conditions":["nonSeqFull","nonSeqPartial","seqNoFeedback","seqFeedback"],"classroomPairings":[["A","B"],["C","D"]],"coinWeights":[0.2,0.5,0.8],"subjectId":"A36470UBRH28GO","assignmentId":"3VBEN272MLL8Q4C8LJC5KQI9Q6MGSZ","hitId":"3XUY87HIVP03YZXVLN9CW37DVI1MM2","url":"https://gershmanlab.com/experiments/alicia/teaching/experiment/?hitId=3XUY87HIVP03YZXVLN9CW37DVI1MM2&workerId=A36470UBRH28GO&assignmentId=3VBEN272MLL8Q4C8LJC5KQI9Q6MGSZ&a=2NBV3&tp_a=2NBV3&b=3VBEN272MLL8Q4C8LJC5KQI9Q6MGSZ&tp_b=3VBEN272MLL8Q4C8LJC5KQI9Q6MGSZ&c=365633&tp_c=365633","heads":1,"tails":2,"studentIndex":19,"studentTrueHypers":{"a":1,"b":4},"studentGuess":0.25,"delta":0.04999999999999999,"totalExamples":3,"bonusSoFar":0.46},{"rt":17265,"response":{"heads":"1","tails":"2"},"type":"response","condition":"seqFeedback","trueTheta":0.2,"classrooms":["A","B"],"studentTrueClassroom":"A","exampleSet":"second","trial_type":"survey-html-form","trial_index":178,"time_elapsed":1604816,"internal_node_id":"0.0-156.0-0.0","params":{"nStudents":24,"maxFlips":25,"completionMinutes":45,"basePay":8,"maxBonus":9,"perTrialBonus":0.5,"perTrialBonusThreshold":0.05,"exampleCost":0.02},"classroomParams":{"A":{"a":1,"b":4},"B":{"a":4,"b":1},"C":{"a":2,"b":8},"D":{"a":8,"b":2}},"conditions":["nonSeqFull","nonSeqPartial","seqNoFeedback","seqFeedback"],"classroomPairings":[["A","B"],["C","D"]],"coinWeights":[0.2,0.5,0.8],"subjectId":"A36470UBRH28GO","assignmentId":"3VBEN272MLL8Q4C8LJC5KQI9Q6MGSZ","hitId":"3XUY87HIVP03YZXVLN9CW37DVI1MM2","url":"https://gershmanlab.com/experiments/alicia/teaching/experiment/?hitId=3XUY87HIVP03YZXVLN9CW37DVI1MM2&workerId=A36470UBRH28GO&assignmentId=3VBEN272MLL8Q4C8LJC5KQI9Q6MGSZ&a=2NBV3&tp_a=2NBV3&b=3VBEN272MLL8Q4C8LJC5KQI9Q6MGSZ&tp_b=3VBEN272MLL8Q4C8LJC5KQI9Q6MGSZ&c=365633&tp_c=365633","firstResponseHeads":1,"firstResponseTails":2,"secondResponseHeads":1,"secondResponseTails":2,"totalHeads":2,"totalTails":4,"studentIndex":19,"studentTrueHypers":{"a":1,"b":4},"studentGuess":0.2727272727272727,"delta":0.0727272727272727,"bonus":0,"bonusSoFar":0.46,"totalExamples":6},{"rt":5251,"response":{"heads":"2","tails":"1"},"type":"response","condition":"seqNoFeedback","trueTheta":0.8,"classrooms":["C","D"],"studentTrueClassroom":"D","exampleSet":"first","trial_type":"survey-html-form","trial_index":184,"time_elapsed":1631972,"internal_node_id":"0.0-162.0-0.0","params":{"nStudents":24,"maxFlips":25,"completionMinutes":45,"basePay":8,"maxBonus":9,"perTrialBonus":0.5,"perTrialBonusThreshold":0.05,"exampleCost":0.02},"classroomParams":{"A":{"a":1,"b":4},"B":{"a":4,"b":1},"C":{"a":2,"b":8},"D":{"a":8,"b":2}},"conditions":["nonSeqFull","nonSeqPartial","seqNoFeedback","seqFeedback"],"classroomPairings":[["A","B"],["C","D"]],"coinWeights":[0.2,0.5,0.8],"subjectId":"A36470UBRH28GO","assignmentId":"3VBEN272MLL8Q4C8LJC5KQI9Q6MGSZ","hitId":"3XUY87HIVP03YZXVLN9CW37DVI1MM2","url":"https://gershmanlab.com/experiments/alicia/teaching/experiment/?hitId=3XUY87HIVP03YZXVLN9CW37DVI1MM2&workerId=A36470UBRH28GO&assignmentId=3VBEN272MLL8Q4C8LJC5KQI9Q6MGSZ&a=2NBV3&tp_a=2NBV3&b=3VBEN272MLL8Q4C8LJC5KQI9Q6MGSZ&tp_b=3VBEN272MLL8Q4C8LJC5KQI9Q6MGSZ&c=365633&tp_c=365633","heads":2,"tails":1,"studentIndex":20,"studentTrueHypers":{"a":8,"b":2},"studentGuess":0.7692307692307693,"delta":0.03076923076923077,"totalExamples":3,"bonusSoFar":0.46},{"rt":6629,"response":{"heads":"2","tails":"1"},"type":"response","condition":"seqNoFeedback","trueTheta":0.8,"classrooms":["C","D"],"studentTrueClassroom":"D","exampleSet":"second","trial_type":"survey-html-form","trial_index":187,"time_elapsed":1644370,"internal_node_id":"0.0-165.0-0.0","params":{"nStudents":24,"maxFlips":25,"completionMinutes":45,"basePay":8,"maxBonus":9,"perTrialBonus":0.5,"perTrialBonusThreshold":0.05,"exampleCost":0.02},"classroomParams":{"A":{"a":1,"b":4},"B":{"a":4,"b":1},"C":{"a":2,"b":8},"D":{"a":8,"b":2}},"conditions":["nonSeqFull","nonSeqPartial","seqNoFeedback","seqFeedback"],"classroomPairings":[["A","B"],["C","D"]],"coinWeights":[0.2,0.5,0.8],"subjectId":"A36470UBRH28GO","assignmentId":"3VBEN272MLL8Q4C8LJC5KQI9Q6MGSZ","hitId":"3XUY87HIVP03YZXVLN9CW37DVI1MM2","url":"https://gershmanlab.com/experiments/alicia/teaching/experiment/?hitId=3XUY87HIVP03YZXVLN9CW37DVI1MM2&workerId=A36470UBRH28GO&assignmentId=3VBEN272MLL8Q4C8LJC5KQI9Q6MGSZ&a=2NBV3&tp_a=2NBV3&b=3VBEN272MLL8Q4C8LJC5KQI9Q6MGSZ&tp_b=3VBEN272MLL8Q4C8LJC5KQI9Q6MGSZ&c=365633&tp_c=365633","firstResponseHeads":2,"firstResponseTails":1,"secondResponseHeads":2,"secondResponseTails":1,"totalHeads":4,"totalTails":2,"studentIndex":20,"studentTrueHypers":{"a":8,"b":2},"studentGuess":0.75,"delta":0.050000000000000044,"bonus":0,"bonusSoFar":0.46,"totalExamples":6},{"rt":5385,"response":{"heads":"1","tails":"2"},"type":"response","condition":"seqNoFeedback","trueTheta":0.2,"classrooms":["A","B"],"studentTrueClassroom":"B","exampleSet":"first","trial_type":"survey-html-form","trial_index":193,"time_elapsed":1664068,"internal_node_id":"0.0-171.0-0.0","params":{"nStudents":24,"maxFlips":25,"completionMinutes":45,"basePay":8,"maxBonus":9,"perTrialBonus":0.5,"perTrialBonusThreshold":0.05,"exampleCost":0.02},"classroomParams":{"A":{"a":1,"b":4},"B":{"a":4,"b":1},"C":{"a":2,"b":8},"D":{"a":8,"b":2}},"conditions":["nonSeqFull","nonSeqPartial","seqNoFeedback","seqFeedback"],"classroomPairings":[["A","B"],["C","D"]],"coinWeights":[0.2,0.5,0.8],"subjectId":"A36470UBRH28GO","assignmentId":"3VBEN272MLL8Q4C8LJC5KQI9Q6MGSZ","hitId":"3XUY87HIVP03YZXVLN9CW37DVI1MM2","url":"https://gershmanlab.com/experiments/alicia/teaching/experiment/?hitId=3XUY87HIVP03YZXVLN9CW37DVI1MM2&workerId=A36470UBRH28GO&assignmentId=3VBEN272MLL8Q4C8LJC5KQI9Q6MGSZ&a=2NBV3&tp_a=2NBV3&b=3VBEN272MLL8Q4C8LJC5KQI9Q6MGSZ&tp_b=3VBEN272MLL8Q4C8LJC5KQI9Q6MGSZ&c=365633&tp_c=365633","heads":1,"tails":2,"studentIndex":21,"studentTrueHypers":{"a":4,"b":1},"studentGuess":0.625,"delta":0.425,"totalExamples":3,"bonusSoFar":0.46},{"rt":3627,"response":{"heads":"1","tails":"2"},"type":"response","condition":"seqNoFeedback","trueTheta":0.2,"classrooms":["A","B"],"studentTrueClassroom":"B","exampleSet":"second","trial_type":"survey-html-form","trial_index":196,"time_elapsed":1673212,"internal_node_id":"0.0-174.0-0.0","params":{"nStudents":24,"maxFlips":25,"completionMinutes":45,"basePay":8,"maxBonus":9,"perTrialBonus":0.5,"perTrialBonusThreshold":0.05,"exampleCost":0.02},"classroomParams":{"A":{"a":1,"b":4},"B":{"a":4,"b":1},"C":{"a":2,"b":8},"D":{"a":8,"b":2}},"conditions":["nonSeqFull","nonSeqPartial","seqNoFeedback","seqFeedback"],"classroomPairings":[["A","B"],["C","D"]],"coinWeights":[0.2,0.5,0.8],"subjectId":"A36470UBRH28GO","assignmentId":"3VBEN272MLL8Q4C8LJC5KQI9Q6MGSZ","hitId":"3XUY87HIVP03YZXVLN9CW37DVI1MM2","url":"https://gershmanlab.com/experiments/alicia/teaching/experiment/?hitId=3XUY87HIVP03YZXVLN9CW37DVI1MM2&workerId=A36470UBRH28GO&assignmentId=3VBEN272MLL8Q4C8LJC5KQI9Q6MGSZ&a=2NBV3&tp_a=2NBV3&b=3VBEN272MLL8Q4C8LJC5KQI9Q6MGSZ&tp_b=3VBEN272MLL8Q4C8LJC5KQI9Q6MGSZ&c=365633&tp_c=365633","firstResponseHeads":1,"firstResponseTails":2,"secondResponseHeads":1,"secondResponseTails":2,"totalHeads":2,"totalTails":4,"studentIndex":21,"studentTrueHypers":{"a":4,"b":1},"studentGuess":0.5454545454545454,"delta":0.3454545454545454,"bonus":0,"bonusSoFar":0.46,"totalExamples":6},{"rt":3142,"response":{"heads":"1","tails":"1"},"type":"response","condition":"nonSeqPartial","trueTheta":0.5,"classrooms":["C","D"],"studentTrueClassroom":"D","exampleSet":"first","trial_type":"survey-html-form","trial_index":202,"time_elapsed":1687624,"internal_node_id":"0.0-180.0-0.0","params":{"nStudents":24,"maxFlips":25,"completionMinutes":45,"basePay":8,"maxBonus":9,"perTrialBonus":0.5,"perTrialBonusThreshold":0.05,"exampleCost":0.02},"classroomParams":{"A":{"a":1,"b":4},"B":{"a":4,"b":1},"C":{"a":2,"b":8},"D":{"a":8,"b":2}},"conditions":["nonSeqFull","nonSeqPartial","seqNoFeedback","seqFeedback"],"classroomPairings":[["A","B"],["C","D"]],"coinWeights":[0.2,0.5,0.8],"subjectId":"A36470UBRH28GO","assignmentId":"3VBEN272MLL8Q4C8LJC5KQI9Q6MGSZ","hitId":"3XUY87HIVP03YZXVLN9CW37DVI1MM2","url":"https://gershmanlab.com/experiments/alicia/teaching/experiment/?hitId=3XUY87HIVP03YZXVLN9CW37DVI1MM2&workerId=A36470UBRH28GO&assignmentId=3VBEN272MLL8Q4C8LJC5KQI9Q6MGSZ&a=2NBV3&tp_a=2NBV3&b=3VBEN272MLL8Q4C8LJC5KQI9Q6MGSZ&tp_b=3VBEN272MLL8Q4C8LJC5KQI9Q6MGSZ&c=365633&tp_c=365633","heads":1,"tails":1,"studentIndex":22,"studentTrueHypers":{"a":8,"b":2},"studentGuess":0.75,"delta":0.25,"totalExamples":2,"bonus":0,"bonusSoFar":0.46},{"rt":3493,"response":{"heads":"2","tails":"1"},"type":"response","condition":"nonSeqFull","trueTheta":0.8,"classrooms":["A","B"],"studentTrueClassroom":"A","exampleSet":"first","trial_type":"survey-html-form","trial_index":208,"time_elapsed":1701548,"internal_node_id":"0.0-186.0-0.0","params":{"nStudents":24,"maxFlips":25,"completionMinutes":45,"basePay":8,"maxBonus":9,"perTrialBonus":0.5,"perTrialBonusThreshold":0.05,"exampleCost":0.02},"classroomParams":{"A":{"a":1,"b":4},"B":{"a":4,"b":1},"C":{"a":2,"b":8},"D":{"a":8,"b":2}},"conditions":["nonSeqFull","nonSeqPartial","seqNoFeedback","seqFeedback"],"classroomPairings":[["A","B"],["C","D"]],"coinWeights":[0.2,0.5,0.8],"subjectId":"A36470UBRH28GO","assignmentId":"3VBEN272MLL8Q4C8LJC5KQI9Q6MGSZ","hitId":"3XUY87HIVP03YZXVLN9CW37DVI1MM2","url":"https://gershmanlab.com/experiments/alicia/teaching/experiment/?hitId=3XUY87HIVP03YZXVLN9CW37DVI1MM2&workerId=A36470UBRH28GO&assignmentId=3VBEN272MLL8Q4C8LJC5KQI9Q6MGSZ&a=2NBV3&tp_a=2NBV3&b=3VBEN272MLL8Q4C8LJC5KQI9Q6MGSZ&tp_b=3VBEN272MLL8Q4C8LJC5KQI9Q6MGSZ&c=365633&tp_c=365633","heads":2,"tails":1,"studentIndex":23,"studentTrueHypers":{"a":1,"b":4},"studentGuess":0.375,"delta":0.42500000000000004,"totalExamples":3,"bonus":0,"bonusSoFar":0.46},{"rt":6978,"response":{"gender":"female","age":"41","understood":"yes","comments":""},"type":"response","trial_type":"survey-html-form","trial_index":212,"time_elapsed":1715094,"internal_node_id":"0.0-191.0","params":{"nStudents":24,"maxFlips":25,"completionMinutes":45,"basePay":8,"maxBonus":9,"perTrialBonus":0.5,"perTrialBonusThreshold":0.05,"exampleCost":0.02},"classroomParams":{"A":{"a":1,"b":4},"B":{"a":4,"b":1},"C":{"a":2,"b":8},"D":{"a":8,"b":2}},"conditions":["nonSeqFull","nonSeqPartial","seqNoFeedback","seqFeedback"],"classroomPairings":[["A","B"],["C","D"]],"coinWeights":[0.2,0.5,0.8],"subjectId":"A36470UBRH28GO","assignmentId":"3VBEN272MLL8Q4C8LJC5KQI9Q6MGSZ","hitId":"3XUY87HIVP03YZXVLN9CW37DVI1MM2","url":"https://gershmanlab.com/experiments/alicia/teaching/experiment/?hitId=3XUY87HIVP03YZXVLN9CW37DVI1MM2&workerId=A36470UBRH28GO&assignmentId=3VBEN272MLL8Q4C8LJC5KQI9Q6MGSZ&a=2NBV3&tp_a=2NBV3&b=3VBEN272MLL8Q4C8LJC5KQI9Q6MGSZ&tp_b=3VBEN272MLL8Q4C8LJC5KQI9Q6MGSZ&c=365633&tp_c=365633","totalBonus":0.46}]