[{"rt":40962,"response":{"heads":"0","tails":"3"},"type":"response","condition":"nonSeqFull","trueTheta":0.5,"classrooms":["A","B"],"studentTrueClassroom":"B","exampleSet":"first","trial_type":"survey-html-form","trial_index":7,"time_elapsed":273462,"internal_node_id":"0.0-6.0-0.0","params":{"nStudents":24,"maxFlips":25,"completionMinutes":45,"basePay":8,"maxBonus":9,"perTrialBonus":0.5,"perTrialBonusThreshold":0.05,"exampleCost":0.02},"classroomParams":{"A":{"a":1,"b":4},"B":{"a":4,"b":1},"C":{"a":2,"b":8},"D":{"a":8,"b":2}},"conditions":["nonSeqFull","nonSeqPartial","seqNoFeedback","seqFeedback"],"classroomPairings":[["A","B"],["C","D"]],"coinWeights":[0.2,0.5,0.8],"subjectId":"A3BU8UL4W258UU","assignmentId":"337RC3OW06O44O7DQ5EQ857OLR2LVF","hitId":"3IH9TRB0FBLK6RLF7MSMKICTGYN1IU","url":"https://gershmanlab.com/experiments/alicia/teaching/experiment/?hitId=3IH9TRB0FBLK6RLF7MSMKICTGYN1IU&workerId=A3BU8UL4W258UU&assignmentId=337RC3OW06O44O7DQ5EQ857OLR2LVF&a=WC733&tp_a=WC733&b=337RC3OW06O44O7DQ5EQ857OLR2LVF&tp_b=337RC3OW06O44O7DQ5EQ857OLR2LVF&c=365633&tp_c=365633","heads":0,"tails":3,"studentIndex":0,"studentTrueHypers":{"a":4,"b":1},"studentGuess":0.5,"delta":0,"totalExamples":3,"bonus":0.44,"bonusSoFar":0.44},{"rt":69103,"response":{"heads":"0","tails":"8"},"type":"response","condition":"seqFeedback","trueTheta":0.2,"classrooms":["C","D"],"studentTrueClassroom":"C","exampleSet":"first","trial_type":"survey-html-form","trial_index":13,"time_elapsed":373072,"internal_node_id":"0.0-12.0-0.0","params":{"nStudents":24,"maxFlips":25,"completionMinutes":45,"basePay":8,"maxBonus":9,"perTrialBonus":0.5,"perTrialBonusThreshold":0.05,"exampleCost":0.02},"classroomParams":{"A":{"a":1,"b":4},"B":{"a":4,"b":1},"C":{"a":2,"b":8},"D":{"a":8,"b":2}},"conditions":["nonSeqFull","nonSeqPartial","seqNoFeedback","seqFeedback"],"classroomPairings":[["A","B"],["C","D"]],"coinWeights":[0.2,0.5,0.8],"subjectId":"A3BU8UL4W258UU","assignmentId":"337RC3OW06O44O7DQ5EQ857OLR2LVF","hitId":"3IH9TRB0FBLK6RLF7MSMKICTGYN1IU","url":"https://gershmanlab.com/experiments/alicia/teaching/experiment/?hitId=3IH9TRB0FBLK6RLF7MSMKICTGYN1IU&workerId=A3BU8UL4W258UU&assignmentId=337RC3OW06O44O7DQ5EQ857OLR2LVF&a=WC733&tp_a=WC733&b=337RC3OW06O44O7DQ5EQ857OLR2LVF&tp_b=337RC3OW06O44O7DQ5EQ857OLR2LVF&c=365633&tp_c=365633","heads":0,"tails":8,"studentIndex":1,"studentTrueHypers":{"a":2,"b":8},"studentGuess":0.1111111111111111,"delta":0.0888888888888889,"totalExamples":8,"bonusSoFar":0.44},{"rt":32408,"response":{"heads":"2","tails":"8"},"type":"response","condition":"seqFeedback","trueTheta":0.2,"classrooms":["C","D"],"studentTrueClassroom":"C","exampleSet":"second","trial_type":"survey-html-form","trial_index":17,"time_elapsed":418932,"internal_node_id":"0.0-16.0-0.0","params":{"nStudents":24,"maxFlips":25,"completionMinutes":45,"basePay":8,"maxBonus":9,"perTrialBonus":0.5,"perTrialBonusThreshold":0.05,"exampleCost":0.02},"classroomParams":{"A":{"a":1,"b":4},"B":{"a":4,"b":1},"C":{"a":2,"b":8},"D":{"a":8,"b":2}},"conditions":["nonSeqFull","nonSeqPartial","seqNoFeedback","seqFeedback"],"classroomPairings":[["A","B"],["C","D"]],"coinWeights":[0.2,0.5,0.8],"subjectId":"A3BU8UL4W258UU","assignmentId":"337RC3OW06O44O7DQ5EQ857OLR2LVF","hitId":"3IH9TRB0FBLK6RLF7MSMKICTGYN1IU","url":"https://gershmanlab.com/experiments/alicia/teaching/experiment/?hitId=3IH9TRB0FBLK6RLF7MSMKICTGYN1IU&workerId=A3BU8UL4W258UU&assignmentId=337RC3OW06O44O7DQ5EQ857OLR2LVF&a=WC733&tp_a=WC733&b=337RC3OW06O44O7DQ5EQ857OLR2LVF&tp_b=337RC3OW06O44O7DQ5EQ857OLR2LVF&c=365633&tp_c=365633","firstResponseHeads":0,"firstResponseTails":8,"secondResponseHeads":2,"secondResponseTails":8,"totalHeads":2,"totalTails":16,"studentIndex":1,"studentTrueHypers":{"a":2,"b":8},"studentGuess":0.14285714285714285,"delta":0.05714285714285716,"bonus":0,"bonusSoFar":0.44,"totalExamples":18},{"rt":28050,"response":{"heads":"2","tails":"10"},"type":"response","condition":"seqNoFeedback","trueTheta":0.2,"classrooms":["A","B"],"studentTrueClassroom":"B","exampleSet":"first","trial_type":"survey-html-form","trial_index":23,"time_elapsed":465783,"internal_node_id":"0.0-22.0-0.0","params":{"nStudents":24,"maxFlips":25,"completionMinutes":45,"basePay":8,"maxBonus":9,"perTrialBonus":0.5,"perTrialBonusThreshold":0.05,"exampleCost":0.02},"classroomParams":{"A":{"a":1,"b":4},"B":{"a":4,"b":1},"C":{"a":2,"b":8},"D":{"a":8,"b":2}},"conditions":["nonSeqFull","nonSeqPartial","seqNoFeedback","seqFeedback"],"classroomPairings":[["A","B"],["C","D"]],"coinWeights":[0.2,0.5,0.8],"subjectId":"A3BU8UL4W258UU","assignmentId":"337RC3OW06O44O7DQ5EQ857OLR2LVF","hitId":"3IH9TRB0FBLK6RLF7MSMKICTGYN1IU","url":"https://gershmanlab.com/experiments/alicia/teaching/experiment/?hitId=3IH9TRB0FBLK6RLF7MSMKICTGYN1IU&workerId=A3BU8UL4W258UU&assignmentId=337RC3OW06O44O7DQ5EQ857OLR2LVF&a=WC733&tp_a=WC733&b=337RC3OW06O44O7DQ5EQ857OLR2LVF&tp_b=337RC3OW06O44O7DQ5EQ857OLR2LVF&c=365633&tp_c=365633","heads":2,"tails":10,"studentIndex":2,"studentTrueHypers":{"a":4,"b":1},"studentGuess":0.35294117647058826,"delta":0.15294117647058825,"totalExamples":12,"bonusSoFar":0.44},{"rt":25126,"response":{"heads":"1","tails":"3"},"type":"response","condition":"seqNoFeedback","trueTheta":0.2,"classrooms":["A","B"],"studentTrueClassroom":"B","exampleSet":"second","trial_type":"survey-html-form","trial_index":26,"time_elapsed":497439,"internal_node_id":"0.0-25.0-0.0","params":{"nStudents":24,"maxFlips":25,"completionMinutes":45,"basePay":8,"maxBonus":9,"perTrialBonus":0.5,"perTrialBonusThreshold":0.05,"exampleCost":0.02},"classroomParams":{"A":{"a":1,"b":4},"B":{"a":4,"b":1},"C":{"a":2,"b":8},"D":{"a":8,"b":2}},"conditions":["nonSeqFull","nonSeqPartial","seqNoFeedback","seqFeedback"],"classroomPairings":[["A","B"],["C","D"]],"coinWeights":[0.2,0.5,0.8],"subjectId":"A3BU8UL4W258UU","assignmentId":"337RC3OW06O44O7DQ5EQ857OLR2LVF","hitId":"3IH9TRB0FBLK6RLF7MSMKICTGYN1IU","url":"https://gershmanlab.com/experiments/alicia/teaching/experiment/?hitId=3IH9TRB0FBLK6RLF7MSMKICTGYN1IU&workerId=A3BU8UL4W258UU&assignmentId=337RC3OW06O44O7DQ5EQ857OLR2LVF&a=WC733&tp_a=WC733&b=337RC3OW06O44O7DQ5EQ857OLR2LVF&tp_b=337RC3OW06O44O7DQ5EQ857OLR2LVF&c=365633&tp_c=365633","firstResponseHeads":2,"firstResponseTails":10,"secondResponseHeads":1,"secondResponseTails":3,"totalHeads":3,"totalTails":13,"studentIndex":2,"studentTrueHypers":{"a":4,"b":1},"studentGuess":0.3333333333333333,"delta":0.1333333333333333,"bonus":0,"bonusSoFar":0.44,"totalExamples":16},{"rt":10906,"response":{"heads":"8","tails":"2"},"type":"response","condition":"seqNoFeedback","trueTheta":0.8,"classrooms":["A","B"],"studentTrueClassroom":"B","exampleSet":"first","trial_type":"survey-html-form","trial_index":32,"time_elapsed":528353,"internal_node_id":"0.0-31.0-0.0","params":{"nStudents":24,"maxFlips":25,"completionMinutes":45,"basePay":8,"maxBonus":9,"perTrialBonus":0.5,"perTrialBonusThreshold":0.05,"exampleCost":0.02},"classroomParams":{"A":{"a":1,"b":4},"B":{"a":4,"b":1},"C":{"a":2,"b":8},"D":{"a":8,"b":2}},"conditions":["nonSeqFull","nonSeqPartial","seqNoFeedback","seqFeedback"],"classroomPairings":[["A","B"],["C","D"]],"coinWeights":[0.2,0.5,0.8],"subjectId":"A3BU8UL4W258UU","assignmentId":"337RC3OW06O44O7DQ5EQ857OLR2LVF","hitId":"3IH9TRB0FBLK6RLF7MSMKICTGYN1IU","url":"https://gershmanlab.com/experiments/alicia/teaching/experiment/?hitId=3IH9TRB0FBLK6RLF7MSMKICTGYN1IU&workerId=A3BU8UL4W258UU&assignmentId=337RC3OW06O44O7DQ5EQ857OLR2LVF&a=WC733&tp_a=WC733&b=337RC3OW06O44O7DQ5EQ857OLR2LVF&tp_b=337RC3OW06O44O7DQ5EQ857OLR2LVF&c=365633&tp_c=365633","heads":8,"tails":2,"studentIndex":3,"studentTrueHypers":{"a":4,"b":1},"studentGuess":0.8,"delta":0,"totalExamples":10,"bonusSoFar":0.44},{"rt":7425,"response":{"heads":"0","tails":"2"},"type":"response","condition":"seqNoFeedback","trueTheta":0.8,"classrooms":["A","B"],"studentTrueClassroom":"B","exampleSet":"second","trial_type":"survey-html-form","trial_index":35,"time_elapsed":542535,"internal_node_id":"0.0-34.0-0.0","params":{"nStudents":24,"maxFlips":25,"completionMinutes":45,"basePay":8,"maxBonus":9,"perTrialBonus":0.5,"perTrialBonusThreshold":0.05,"exampleCost":0.02},"classroomParams":{"A":{"a":1,"b":4},"B":{"a":4,"b":1},"C":{"a":2,"b":8},"D":{"a":8,"b":2}},"conditions":["nonSeqFull","nonSeqPartial","seqNoFeedback","seqFeedback"],"classroomPairings":[["A","B"],["C","D"]],"coinWeights":[0.2,0.5,0.8],"subjectId":"A3BU8UL4W258UU","assignmentId":"337RC3OW06O44O7DQ5EQ857OLR2LVF","hitId":"3IH9TRB0FBLK6RLF7MSMKICTGYN1IU","url":"https://gershmanlab.com/experiments/alicia/teaching/experiment/?hitId=3IH9TRB0FBLK6RLF7MSMKICTGYN1IU&workerId=A3BU8UL4W258UU&assignmentId=337RC3OW06O44O7DQ5EQ857OLR2LVF&a=WC733&tp_a=WC733&b=337RC3OW06O44O7DQ5EQ857OLR2LVF&tp_b=337RC3OW06O44O7DQ5EQ857OLR2LVF&c=365633&tp_c=365633","firstResponseHeads":8,"firstResponseTails":2,"secondResponseHeads":0,"secondResponseTails":2,"totalHeads":8,"totalTails":4,"studentIndex":3,"studentTrueHypers":{"a":4,"b":1},"studentGuess":0.7058823529411765,"delta":0.09411764705882353,"bonus":0,"bonusSoFar":0.44,"totalExamples":12},{"rt":7364,"response":{"heads":"5","tails":"5"},"type":"response","condition":"seqNoFeedback","trueTheta":0.5,"classrooms":["A","B"],"studentTrueClassroom":"A","exampleSet":"first","trial_type":"survey-html-form","trial_index":41,"time_elapsed":567305,"internal_node_id":"0.0-40.0-0.0","params":{"nStudents":24,"maxFlips":25,"completionMinutes":45,"basePay":8,"maxBonus":9,"perTrialBonus":0.5,"perTrialBonusThreshold":0.05,"exampleCost":0.02},"classroomParams":{"A":{"a":1,"b":4},"B":{"a":4,"b":1},"C":{"a":2,"b":8},"D":{"a":8,"b":2}},"conditions":["nonSeqFull","nonSeqPartial","seqNoFeedback","seqFeedback"],"classroomPairings":[["A","B"],["C","D"]],"coinWeights":[0.2,0.5,0.8],"subjectId":"A3BU8UL4W258UU","assignmentId":"337RC3OW06O44O7DQ5EQ857OLR2LVF","hitId":"3IH9TRB0FBLK6RLF7MSMKICTGYN1IU","url":"https://gershmanlab.com/experiments/alicia/teaching/experiment/?hitId=3IH9TRB0FBLK6RLF7MSMKICTGYN1IU&workerId=A3BU8UL4W258UU&assignmentId=337RC3OW06O44O7DQ5EQ857OLR2LVF&a=WC733&tp_a=WC733&b=337RC3OW06O44O7DQ5EQ857OLR2LVF&tp_b=337RC3OW06O44O7DQ5EQ857OLR2LVF&c=365633&tp_c=365633","heads":5,"tails":5,"studentIndex":4,"studentTrueHypers":{"a":1,"b":4},"studentGuess":0.4,"delta":0.09999999999999998,"totalExamples":10,"bonusSoFar":0.44},{"rt":6795,"response":{"heads":"3","tails":"3"},"type":"response","condition":"seqNoFeedback","trueTheta":0.5,"classrooms":["A","B"],"studentTrueClassroom":"A","exampleSet":"second","trial_type":"survey-html-form","trial_index":44,"time_elapsed":580604,"internal_node_id":"0.0-43.0-0.0","params":{"nStudents":24,"maxFlips":25,"completionMinutes":45,"basePay":8,"maxBonus":9,"perTrialBonus":0.5,"perTrialBonusThreshold":0.05,"exampleCost":0.02},"classroomParams":{"A":{"a":1,"b":4},"B":{"a":4,"b":1},"C":{"a":2,"b":8},"D":{"a":8,"b":2}},"conditions":["nonSeqFull","nonSeqPartial","seqNoFeedback","seqFeedback"],"classroomPairings":[["A","B"],["C","D"]],"coinWeights":[0.2,0.5,0.8],"subjectId":"A3BU8UL4W258UU","assignmentId":"337RC3OW06O44O7DQ5EQ857OLR2LVF","hitId":"3IH9TRB0FBLK6RLF7MSMKICTGYN1IU","url":"https://gershmanlab.com/experiments/alicia/teaching/experiment/?hitId=3IH9TRB0FBLK6RLF7MSMKICTGYN1IU&workerId=A3BU8UL4W258UU&assignmentId=337RC3OW06O44O7DQ5EQ857OLR2LVF&a=WC733&tp_a=WC733&b=337RC3OW06O44O7DQ5EQ857OLR2LVF&tp_b=337RC3OW06O44O7DQ5EQ857OLR2LVF&c=365633&tp_c=365633","firstResponseHeads":5,"firstResponseTails":5,"secondResponseHeads":3,"secondResponseTails":3,"totalHeads":8,"totalTails":8,"studentIndex":4,"studentTrueHypers":{"a":1,"b":4},"studentGuess":0.42857142857142855,"delta":0.07142857142857145,"bonus":0,"bonusSoFar":0.44,"totalExamples":16},{"rt":21572,"response":{"heads":"2","tails":"8"},"type":"response","condition":"seqFeedback","trueTheta":0.2,"classrooms":["A","B"],"studentTrueClassroom":"A","exampleSet":"first","trial_type":"survey-html-form","trial_index":50,"time_elapsed":617118,"internal_node_id":"0.0-49.0-0.0","params":{"nStudents":24,"maxFlips":25,"completionMinutes":45,"basePay":8,"maxBonus":9,"perTrialBonus":0.5,"perTrialBonusThreshold":0.05,"exampleCost":0.02},"classroomParams":{"A":{"a":1,"b":4},"B":{"a":4,"b":1},"C":{"a":2,"b":8},"D":{"a":8,"b":2}},"conditions":["nonSeqFull","nonSeqPartial","seqNoFeedback","seqFeedback"],"classroomPairings":[["A","B"],["C","D"]],"coinWeights":[0.2,0.5,0.8],"subjectId":"A3BU8UL4W258UU","assignmentId":"337RC3OW06O44O7DQ5EQ857OLR2LVF","hitId":"3IH9TRB0FBLK6RLF7MSMKICTGYN1IU","url":"https://gershmanlab.com/experiments/alicia/teaching/experiment/?hitId=3IH9TRB0FBLK6RLF7MSMKICTGYN1IU&workerId=A3BU8UL4W258UU&assignmentId=337RC3OW06O44O7DQ5EQ857OLR2LVF&a=WC733&tp_a=WC733&b=337RC3OW06O44O7DQ5EQ857OLR2LVF&tp_b=337RC3OW06O44O7DQ5EQ857OLR2LVF&c=365633&tp_c=365633","heads":2,"tails":8,"studentIndex":5,"studentTrueHypers":{"a":1,"b":4},"studentGuess":0.2,"delta":0,"totalExamples":10,"bonusSoFar":0.44},{"rt":21331,"response":{"heads":"4","tails":"7"},"type":"response","condition":"seqFeedback","trueTheta":0.2,"classrooms":["A","B"],"studentTrueClassroom":"A","exampleSet":"second","trial_type":"survey-html-form","trial_index":54,"time_elapsed":650027,"internal_node_id":"0.0-53.0-0.0","params":{"nStudents":24,"maxFlips":25,"completionMinutes":45,"basePay":8,"maxBonus":9,"perTrialBonus":0.5,"perTrialBonusThreshold":0.05,"exampleCost":0.02},"classroomParams":{"A":{"a":1,"b":4},"B":{"a":4,"b":1},"C":{"a":2,"b":8},"D":{"a":8,"b":2}},"conditions":["nonSeqFull","nonSeqPartial","seqNoFeedback","seqFeedback"],"classroomPairings":[["A","B"],["C","D"]],"coinWeights":[0.2,0.5,0.8],"subjectId":"A3BU8UL4W258UU","assignmentId":"337RC3OW06O44O7DQ5EQ857OLR2LVF","hitId":"3IH9TRB0FBLK6RLF7MSMKICTGYN1IU","url":"https://gershmanlab.com/experiments/alicia/teaching/experiment/?hitId=3IH9TRB0FBLK6RLF7MSMKICTGYN1IU&workerId=A3BU8UL4W258UU&assignmentId=337RC3OW06O44O7DQ5EQ857OLR2LVF&a=WC733&tp_a=WC733&b=337RC3OW06O44O7DQ5EQ857OLR2LVF&tp_b=337RC3OW06O44O7DQ5EQ857OLR2LVF&c=365633&tp_c=365633","firstResponseHeads":2,"firstResponseTails":8,"secondResponseHeads":4,"secondResponseTails":7,"totalHeads":6,"totalTails":15,"studentIndex":5,"studentTrueHypers":{"a":1,"b":4},"studentGuess":0.2692307692307692,"delta":0.0692307692307692,"bonus":0,"bonusSoFar":0.44,"totalExamples":21},{"rt":7375,"response":{"heads":"8","tails":"0"},"type":"response","condition":"nonSeqPartial","trueTheta":0.8,"classrooms":["A","B"],"studentTrueClassroom":"B","exampleSet":"first","trial_type":"survey-html-form","trial_index":60,"time_elapsed":668139,"internal_node_id":"0.0-59.0-0.0","params":{"nStudents":24,"maxFlips":25,"completionMinutes":45,"basePay":8,"maxBonus":9,"perTrialBonus":0.5,"perTrialBonusThreshold":0.05,"exampleCost":0.02},"classroomParams":{"A":{"a":1,"b":4},"B":{"a":4,"b":1},"C":{"a":2,"b":8},"D":{"a":8,"b":2}},"conditions":["nonSeqFull","nonSeqPartial","seqNoFeedback","seqFeedback"],"classroomPairings":[["A","B"],["C","D"]],"coinWeights":[0.2,0.5,0.8],"subjectId":"A3BU8UL4W258UU","assignmentId":"337RC3OW06O44O7DQ5EQ857OLR2LVF","hitId":"3IH9TRB0FBLK6RLF7MSMKICTGYN1IU","url":"https://gershmanlab.com/experiments/alicia/teaching/experiment/?hitId=3IH9TRB0FBLK6RLF7MSMKICTGYN1IU&workerId=A3BU8UL4W258UU&assignmentId=337RC3OW06O44O7DQ5EQ857OLR2LVF&a=WC733&tp_a=WC733&b=337RC3OW06O44O7DQ5EQ857OLR2LVF&tp_b=337RC3OW06O44O7DQ5EQ857OLR2LVF&c=365633&tp_c=365633","heads":8,"tails":0,"studentIndex":6,"studentTrueHypers":{"a":4,"b":1},"studentGuess":0.9230769230769231,"delta":0.12307692307692308,"totalExamples":8,"bonus":0,"bonusSoFar":0.44},{"rt":7850,"response":{"heads":"8","tails":"0"},"type":"response","condition":"nonSeqFull","trueTheta":0.5,"classrooms":["C","D"],"studentTrueClassroom":"C","exampleSet":"first","trial_type":"survey-html-form","trial_index":66,"time_elapsed":689447,"internal_node_id":"0.0-65.0-0.0","params":{"nStudents":24,"maxFlips":25,"completionMinutes":45,"basePay":8,"maxBonus":9,"perTrialBonus":0.5,"perTrialBonusThreshold":0.05,"exampleCost":0.02},"classroomParams":{"A":{"a":1,"b":4},"B":{"a":4,"b":1},"C":{"a":2,"b":8},"D":{"a":8,"b":2}},"conditions":["nonSeqFull","nonSeqPartial","seqNoFeedback","seqFeedback"],"classroomPairings":[["A","B"],["C","D"]],"coinWeights":[0.2,0.5,0.8],"subjectId":"A3BU8UL4W258UU","assignmentId":"337RC3OW06O44O7DQ5EQ857OLR2LVF","hitId":"3IH9TRB0FBLK6RLF7MSMKICTGYN1IU","url":"https://gershmanlab.com/experiments/alicia/teaching/experiment/?hitId=3IH9TRB0FBLK6RLF7MSMKICTGYN1IU&workerId=A3BU8UL4W258UU&assignmentId=337RC3OW06O44O7DQ5EQ857OLR2LVF&a=WC733&tp_a=WC733&b=337RC3OW06O44O7DQ5EQ857OLR2LVF&tp_b=337RC3OW06O44O7DQ5EQ857OLR2LVF&c=365633&tp_c=365633","heads":8,"tails":0,"studentIndex":7,"studentTrueHypers":{"a":2,"b":8},"studentGuess":0.5555555555555556,"delta":0.05555555555555558,"totalExamples":8,"bonus":0,"bonusSoFar":0.44},{"rt":20759,"response":{"heads":"2","tails":"0"},"type":"response","condition":"nonSeqPartial","trueTheta":0.5,"classrooms":["A","B"],"studentTrueClassroom":"A","exampleSet":"first","trial_type":"survey-html-form","trial_index":72,"time_elapsed":721112,"internal_node_id":"0.0-71.0-0.0","params":{"nStudents":24,"maxFlips":25,"completionMinutes":45,"basePay":8,"maxBonus":9,"perTrialBonus":0.5,"perTrialBonusThreshold":0.05,"exampleCost":0.02},"classroomParams":{"A":{"a":1,"b":4},"B":{"a":4,"b":1},"C":{"a":2,"b":8},"D":{"a":8,"b":2}},"conditions":["nonSeqFull","nonSeqPartial","seqNoFeedback","seqFeedback"],"classroomPairings":[["A","B"],["C","D"]],"coinWeights":[0.2,0.5,0.8],"subjectId":"A3BU8UL4W258UU","assignmentId":"337RC3OW06O44O7DQ5EQ857OLR2LVF","hitId":"3IH9TRB0FBLK6RLF7MSMKICTGYN1IU","url":"https://gershmanlab.com/experiments/alicia/teaching/experiment/?hitId=3IH9TRB0FBLK6RLF7MSMKICTGYN1IU&workerId=A3BU8UL4W258UU&assignmentId=337RC3OW06O44O7DQ5EQ857OLR2LVF&a=WC733&tp_a=WC733&b=337RC3OW06O44O7DQ5EQ857OLR2LVF&tp_b=337RC3OW06O44O7DQ5EQ857OLR2LVF&c=365633&tp_c=365633","heads":2,"tails":0,"studentIndex":8,"studentTrueHypers":{"a":1,"b":4},"studentGuess":0.42857142857142855,"delta":0.07142857142857145,"totalExamples":2,"bonus":0,"bonusSoFar":0.44},{"rt":19328,"response":{"heads":"5","tails":"0"},"type":"response","condition":"nonSeqPartial","trueTheta":0.5,"classrooms":["C","D"],"studentTrueClassroom":"C","exampleSet":"first","trial_type":"survey-html-form","trial_index":78,"time_elapsed":754708,"internal_node_id":"0.0-77.0-0.0","params":{"nStudents":24,"maxFlips":25,"completionMinutes":45,"basePay":8,"maxBonus":9,"perTrialBonus":0.5,"perTrialBonusThreshold":0.05,"exampleCost":0.02},"classroomParams":{"A":{"a":1,"b":4},"B":{"a":4,"b":1},"C":{"a":2,"b":8},"D":{"a":8,"b":2}},"conditions":["nonSeqFull","nonSeqPartial","seqNoFeedback","seqFeedback"],"classroomPairings":[["A","B"],["C","D"]],"coinWeights":[0.2,0.5,0.8],"subjectId":"A3BU8UL4W258UU","assignmentId":"337RC3OW06O44O7DQ5EQ857OLR2LVF","hitId":"3IH9TRB0FBLK6RLF7MSMKICTGYN1IU","url":"https://gershmanlab.com/experiments/alicia/teaching/experiment/?hitId=3IH9TRB0FBLK6RLF7MSMKICTGYN1IU&workerId=A3BU8UL4W258UU&assignmentId=337RC3OW06O44O7DQ5EQ857OLR2LVF&a=WC733&tp_a=WC733&b=337RC3OW06O44O7DQ5EQ857OLR2LVF&tp_b=337RC3OW06O44O7DQ5EQ857OLR2LVF&c=365633&tp_c=365633","heads":5,"tails":0,"studentIndex":9,"studentTrueHypers":{"a":2,"b":8},"studentGuess":0.4666666666666667,"delta":0.033333333333333326,"totalExamples":5,"bonus":0.4,"bonusSoFar":0.84},{"rt":8330,"response":{"heads":"5","tails":"0"},"type":"response","condition":"seqNoFeedback","trueTheta":0.5,"classrooms":["C","D"],"studentTrueClassroom":"D","exampleSet":"first","trial_type":"survey-html-form","trial_index":84,"time_elapsed":776549,"internal_node_id":"0.0-83.0-0.0","params":{"nStudents":24,"maxFlips":25,"completionMinutes":45,"basePay":8,"maxBonus":9,"perTrialBonus":0.5,"perTrialBonusThreshold":0.05,"exampleCost":0.02},"classroomParams":{"A":{"a":1,"b":4},"B":{"a":4,"b":1},"C":{"a":2,"b":8},"D":{"a":8,"b":2}},"conditions":["nonSeqFull","nonSeqPartial","seqNoFeedback","seqFeedback"],"classroomPairings":[["A","B"],["C","D"]],"coinWeights":[0.2,0.5,0.8],"subjectId":"A3BU8UL4W258UU","assignmentId":"337RC3OW06O44O7DQ5EQ857OLR2LVF","hitId":"3IH9TRB0FBLK6RLF7MSMKICTGYN1IU","url":"https://gershmanlab.com/experiments/alicia/teaching/experiment/?hitId=3IH9TRB0FBLK6RLF7MSMKICTGYN1IU&workerId=A3BU8UL4W258UU&assignmentId=337RC3OW06O44O7DQ5EQ857OLR2LVF&a=WC733&tp_a=WC733&b=337RC3OW06O44O7DQ5EQ857OLR2LVF&tp_b=337RC3OW06O44O7DQ5EQ857OLR2LVF&c=365633&tp_c=365633","heads":5,"tails":0,"studentIndex":10,"studentTrueHypers":{"a":8,"b":2},"studentGuess":0.8666666666666667,"delta":0.3666666666666667,"totalExamples":5,"bonusSoFar":0.84},{"rt":3072,"response":{"heads":"0","tails":"5"},"type":"response","condition":"seqNoFeedback","trueTheta":0.5,"classrooms":["C","D"],"studentTrueClassroom":"D","exampleSet":"second","trial_type":"survey-html-form","trial_index":87,"time_elapsed":785886,"internal_node_id":"0.0-86.0-0.0","params":{"nStudents":24,"maxFlips":25,"completionMinutes":45,"basePay":8,"maxBonus":9,"perTrialBonus":0.5,"perTrialBonusThreshold":0.05,"exampleCost":0.02},"classroomParams":{"A":{"a":1,"b":4},"B":{"a":4,"b":1},"C":{"a":2,"b":8},"D":{"a":8,"b":2}},"conditions":["nonSeqFull","nonSeqPartial","seqNoFeedback","seqFeedback"],"classroomPairings":[["A","B"],["C","D"]],"coinWeights":[0.2,0.5,0.8],"subjectId":"A3BU8UL4W258UU","assignmentId":"337RC3OW06O44O7DQ5EQ857OLR2LVF","hitId":"3IH9TRB0FBLK6RLF7MSMKICTGYN1IU","url":"https://gershmanlab.com/experiments/alicia/teaching/experiment/?hitId=3IH9TRB0FBLK6RLF7MSMKICTGYN1IU&workerId=A3BU8UL4W258UU&assignmentId=337RC3OW06O44O7DQ5EQ857OLR2LVF&a=WC733&tp_a=WC733&b=337RC3OW06O44O7DQ5EQ857OLR2LVF&tp_b=337RC3OW06O44O7DQ5EQ857OLR2LVF&c=365633&tp_c=365633","firstResponseHeads":5,"firstResponseTails":0,"secondResponseHeads":0,"secondResponseTails":5,"totalHeads":5,"totalTails":5,"studentIndex":10,"studentTrueHypers":{"a":8,"b":2},"studentGuess":0.65,"delta":0.15000000000000002,"bonus":0,"bonusSoFar":0.84,"totalExamples":10},{"rt":18205,"response":{"heads":"0","tails":"0"},"type":"response","condition":"seqNoFeedback","trueTheta":0.8,"classrooms":["C","D"],"studentTrueClassroom":"C","exampleSet":"first","trial_type":"survey-html-form","trial_index":93,"time_elapsed":820491,"internal_node_id":"0.0-92.0-0.0","params":{"nStudents":24,"maxFlips":25,"completionMinutes":45,"basePay":8,"maxBonus":9,"perTrialBonus":0.5,"perTrialBonusThreshold":0.05,"exampleCost":0.02},"classroomParams":{"A":{"a":1,"b":4},"B":{"a":4,"b":1},"C":{"a":2,"b":8},"D":{"a":8,"b":2}},"conditions":["nonSeqFull","nonSeqPartial","seqNoFeedback","seqFeedback"],"classroomPairings":[["A","B"],["C","D"]],"coinWeights":[0.2,0.5,0.8],"subjectId":"A3BU8UL4W258UU","assignmentId":"337RC3OW06O44O7DQ5EQ857OLR2LVF","hitId":"3IH9TRB0FBLK6RLF7MSMKICTGYN1IU","url":"https://gershmanlab.com/experiments/alicia/teaching/experiment/?hitId=3IH9TRB0FBLK6RLF7MSMKICTGYN1IU&workerId=A3BU8UL4W258UU&assignmentId=337RC3OW06O44O7DQ5EQ857OLR2LVF&a=WC733&tp_a=WC733&b=337RC3OW06O44O7DQ5EQ857OLR2LVF&tp_b=337RC3OW06O44O7DQ5EQ857OLR2LVF&c=365633&tp_c=365633","heads":0,"tails":0,"studentIndex":11,"studentTrueHypers":{"a":2,"b":8},"studentGuess":0.2,"delta":0.6000000000000001,"totalExamples":0,"bonusSoFar":0.84},{"rt":1903,"response":{"heads":"0","tails":"0"},"type":"response","condition":"seqNoFeedback","trueTheta":0.8,"classrooms":["C","D"],"studentTrueClassroom":"C","exampleSet":"first","trial_type":"survey-html-form","trial_index":94,"time_elapsed":822395,"internal_node_id":"0.0-92.1-0.1","params":{"nStudents":24,"maxFlips":25,"completionMinutes":45,"basePay":8,"maxBonus":9,"perTrialBonus":0.5,"perTrialBonusThreshold":0.05,"exampleCost":0.02},"classroomParams":{"A":{"a":1,"b":4},"B":{"a":4,"b":1},"C":{"a":2,"b":8},"D":{"a":8,"b":2}},"conditions":["nonSeqFull","nonSeqPartial","seqNoFeedback","seqFeedback"],"classroomPairings":[["A","B"],["C","D"]],"coinWeights":[0.2,0.5,0.8],"subjectId":"A3BU8UL4W258UU","assignmentId":"337RC3OW06O44O7DQ5EQ857OLR2LVF","hitId":"3IH9TRB0FBLK6RLF7MSMKICTGYN1IU","url":"https://gershmanlab.com/experiments/alicia/teaching/experiment/?hitId=3IH9TRB0FBLK6RLF7MSMKICTGYN1IU&workerId=A3BU8UL4W258UU&assignmentId=337RC3OW06O44O7DQ5EQ857OLR2LVF&a=WC733&tp_a=WC733&b=337RC3OW06O44O7DQ5EQ857OLR2LVF&tp_b=337RC3OW06O44O7DQ5EQ857OLR2LVF&c=365633&tp_c=365633","heads":0,"tails":0,"studentIndex":11,"studentTrueHypers":{"a":2,"b":8},"studentGuess":0.2,"delta":0.6000000000000001,"totalExamples":0,"bonusSoFar":0.84},{"rt":7613,"response":{"heads":"1","tails":"1"},"type":"response","condition":"seqNoFeedback","trueTheta":0.8,"classrooms":["C","D"],"studentTrueClassroom":"C","exampleSet":"first","trial_type":"survey-html-form","trial_index":95,"time_elapsed":830009,"internal_node_id":"0.0-92.2-0.2","params":{"nStudents":24,"maxFlips":25,"completionMinutes":45,"basePay":8,"maxBonus":9,"perTrialBonus":0.5,"perTrialBonusThreshold":0.05,"exampleCost":0.02},"classroomParams":{"A":{"a":1,"b":4},"B":{"a":4,"b":1},"C":{"a":2,"b":8},"D":{"a":8,"b":2}},"conditions":["nonSeqFull","nonSeqPartial","seqNoFeedback","seqFeedback"],"classroomPairings":[["A","B"],["C","D"]],"coinWeights":[0.2,0.5,0.8],"subjectId":"A3BU8UL4W258UU","assignmentId":"337RC3OW06O44O7DQ5EQ857OLR2LVF","hitId":"3IH9TRB0FBLK6RLF7MSMKICTGYN1IU","url":"https://gershmanlab.com/experiments/alicia/teaching/experiment/?hitId=3IH9TRB0FBLK6RLF7MSMKICTGYN1IU&workerId=A3BU8UL4W258UU&assignmentId=337RC3OW06O44O7DQ5EQ857OLR2LVF&a=WC733&tp_a=WC733&b=337RC3OW06O44O7DQ5EQ857OLR2LVF&tp_b=337RC3OW06O44O7DQ5EQ857OLR2LVF&c=365633&tp_c=365633","heads":1,"tails":1,"studentIndex":11,"studentTrueHypers":{"a":2,"b":8},"studentGuess":0.25,"delta":0.55,"totalExamples":2,"bonusSoFar":0.84},{"rt":4740,"response":{"heads":"1","tails":"1"},"type":"response","condition":"seqNoFeedback","trueTheta":0.8,"classrooms":["C","D"],"studentTrueClassroom":"C","exampleSet":"second","trial_type":"survey-html-form","trial_index":98,"time_elapsed":840006,"internal_node_id":"0.0-95.0-0.0","params":{"nStudents":24,"maxFlips":25,"completionMinutes":45,"basePay":8,"maxBonus":9,"perTrialBonus":0.5,"perTrialBonusThreshold":0.05,"exampleCost":0.02},"classroomParams":{"A":{"a":1,"b":4},"B":{"a":4,"b":1},"C":{"a":2,"b":8},"D":{"a":8,"b":2}},"conditions":["nonSeqFull","nonSeqPartial","seqNoFeedback","seqFeedback"],"classroomPairings":[["A","B"],["C","D"]],"coinWeights":[0.2,0.5,0.8],"subjectId":"A3BU8UL4W258UU","assignmentId":"337RC3OW06O44O7DQ5EQ857OLR2LVF","hitId":"3IH9TRB0FBLK6RLF7MSMKICTGYN1IU","url":"https://gershmanlab.com/experiments/alicia/teaching/experiment/?hitId=3IH9TRB0FBLK6RLF7MSMKICTGYN1IU&workerId=A3BU8UL4W258UU&assignmentId=337RC3OW06O44O7DQ5EQ857OLR2LVF&a=WC733&tp_a=WC733&b=337RC3OW06O44O7DQ5EQ857OLR2LVF&tp_b=337RC3OW06O44O7DQ5EQ857OLR2LVF&c=365633&tp_c=365633","firstResponseHeads":0,"firstResponseTails":0,"secondResponseHeads":1,"secondResponseTails":1,"totalHeads":1,"totalTails":1,"studentIndex":11,"studentTrueHypers":{"a":2,"b":8},"studentGuess":0.25,"delta":0.55,"bonus":0,"bonusSoFar":0.84,"totalExamples":2},{"rt":8463,"response":{"heads":"2","tails":"8"},"type":"response","condition":"nonSeqPartial","trueTheta":0.2,"classrooms":["C","D"],"studentTrueClassroom":"C","exampleSet":"first","trial_type":"survey-html-form","trial_index":104,"time_elapsed":864653,"internal_node_id":"0.0-101.0-0.0","params":{"nStudents":24,"maxFlips":25,"completionMinutes":45,"basePay":8,"maxBonus":9,"perTrialBonus":0.5,"perTrialBonusThreshold":0.05,"exampleCost":0.02},"classroomParams":{"A":{"a":1,"b":4},"B":{"a":4,"b":1},"C":{"a":2,"b":8},"D":{"a":8,"b":2}},"conditions":["nonSeqFull","nonSeqPartial","seqNoFeedback","seqFeedback"],"classroomPairings":[["A","B"],["C","D"]],"coinWeights":[0.2,0.5,0.8],"subjectId":"A3BU8UL4W258UU","assignmentId":"337RC3OW06O44O7DQ5EQ857OLR2LVF","hitId":"3IH9TRB0FBLK6RLF7MSMKICTGYN1IU","url":"https://gershmanlab.com/experiments/alicia/teaching/experiment/?hitId=3IH9TRB0FBLK6RLF7MSMKICTGYN1IU&workerId=A3BU8UL4W258UU&assignmentId=337RC3OW06O44O7DQ5EQ857OLR2LVF&a=WC733&tp_a=WC733&b=337RC3OW06O44O7DQ5EQ857OLR2LVF&tp_b=337RC3OW06O44O7DQ5EQ857OLR2LVF&c=365633&tp_c=365633","heads":2,"tails":8,"studentIndex":12,"studentTrueHypers":{"a":2,"b":8},"studentGuess":0.2,"delta":0,"totalExamples":10,"bonus":0.3,"bonusSoFar":1.14},{"rt":13874,"response":{"heads":"4","tails":"4"},"type":"response","condition":"seqFeedback","trueTheta":0.5,"classrooms":["A","B"],"studentTrueClassroom":"A","exampleSet":"first","trial_type":"survey-html-form","trial_index":110,"time_elapsed":895449,"internal_node_id":"0.0-107.0-0.0","params":{"nStudents":24,"maxFlips":25,"completionMinutes":45,"basePay":8,"maxBonus":9,"perTrialBonus":0.5,"perTrialBonusThreshold":0.05,"exampleCost":0.02},"classroomParams":{"A":{"a":1,"b":4},"B":{"a":4,"b":1},"C":{"a":2,"b":8},"D":{"a":8,"b":2}},"conditions":["nonSeqFull","nonSeqPartial","seqNoFeedback","seqFeedback"],"classroomPairings":[["A","B"],["C","D"]],"coinWeights":[0.2,0.5,0.8],"subjectId":"A3BU8UL4W258UU","assignmentId":"337RC3OW06O44O7DQ5EQ857OLR2LVF","hitId":"3IH9TRB0FBLK6RLF7MSMKICTGYN1IU","url":"https://gershmanlab.com/experiments/alicia/teaching/experiment/?hitId=3IH9TRB0FBLK6RLF7MSMKICTGYN1IU&workerId=A3BU8UL4W258UU&assignmentId=337RC3OW06O44O7DQ5EQ857OLR2LVF&a=WC733&tp_a=WC733&b=337RC3OW06O44O7DQ5EQ857OLR2LVF&tp_b=337RC3OW06O44O7DQ5EQ857OLR2LVF&c=365633&tp_c=365633","heads":4,"tails":4,"studentIndex":13,"studentTrueHypers":{"a":1,"b":4},"studentGuess":0.38461538461538464,"delta":0.11538461538461536,"totalExamples":8,"bonusSoFar":1.14},{"rt":14585,"response":{"heads":"4","tails":"3"},"type":"response","condition":"seqFeedback","trueTheta":0.5,"classrooms":["A","B"],"studentTrueClassroom":"A","exampleSet":"second","trial_type":"survey-html-form","trial_index":114,"time_elapsed":919273,"internal_node_id":"0.0-111.0-0.0","params":{"nStudents":24,"maxFlips":25,"completionMinutes":45,"basePay":8,"maxBonus":9,"perTrialBonus":0.5,"perTrialBonusThreshold":0.05,"exampleCost":0.02},"classroomParams":{"A":{"a":1,"b":4},"B":{"a":4,"b":1},"C":{"a":2,"b":8},"D":{"a":8,"b":2}},"conditions":["nonSeqFull","nonSeqPartial","seqNoFeedback","seqFeedback"],"classroomPairings":[["A","B"],["C","D"]],"coinWeights":[0.2,0.5,0.8],"subjectId":"A3BU8UL4W258UU","assignmentId":"337RC3OW06O44O7DQ5EQ857OLR2LVF","hitId":"3IH9TRB0FBLK6RLF7MSMKICTGYN1IU","url":"https://gershmanlab.com/experiments/alicia/teaching/experiment/?hitId=3IH9TRB0FBLK6RLF7MSMKICTGYN1IU&workerId=A3BU8UL4W258UU&assignmentId=337RC3OW06O44O7DQ5EQ857OLR2LVF&a=WC733&tp_a=WC733&b=337RC3OW06O44O7DQ5EQ857OLR2LVF&tp_b=337RC3OW06O44O7DQ5EQ857OLR2LVF&c=365633&tp_c=365633","firstResponseHeads":4,"firstResponseTails":4,"secondResponseHeads":4,"secondResponseTails":3,"totalHeads":8,"totalTails":7,"studentIndex":13,"studentTrueHypers":{"a":1,"b":4},"studentGuess":0.45,"delta":0.04999999999999999,"bonus":0.2,"bonusSoFar":1.34,"totalExamples":15},{"rt":10139,"response":{"heads":"8","tails":"1"},"type":"response","condition":"nonSeqPartial","trueTheta":0.8,"classrooms":["C","D"],"studentTrueClassroom":"D","exampleSet":"first","trial_type":"survey-html-form","trial_index":120,"time_elapsed":945522,"internal_node_id":"0.0-117.0-0.0","params":{"nStudents":24,"maxFlips":25,"completionMinutes":45,"basePay":8,"maxBonus":9,"perTrialBonus":0.5,"perTrialBonusThreshold":0.05,"exampleCost":0.02},"classroomParams":{"A":{"a":1,"b":4},"B":{"a":4,"b":1},"C":{"a":2,"b":8},"D":{"a":8,"b":2}},"conditions":["nonSeqFull","nonSeqPartial","seqNoFeedback","seqFeedback"],"classroomPairings":[["A","B"],["C","D"]],"coinWeights":[0.2,0.5,0.8],"subjectId":"A3BU8UL4W258UU","assignmentId":"337RC3OW06O44O7DQ5EQ857OLR2LVF","hitId":"3IH9TRB0FBLK6RLF7MSMKICTGYN1IU","url":"https://gershmanlab.com/experiments/alicia/teaching/experiment/?hitId=3IH9TRB0FBLK6RLF7MSMKICTGYN1IU&workerId=A3BU8UL4W258UU&assignmentId=337RC3OW06O44O7DQ5EQ857OLR2LVF&a=WC733&tp_a=WC733&b=337RC3OW06O44O7DQ5EQ857OLR2LVF&tp_b=337RC3OW06O44O7DQ5EQ857OLR2LVF&c=365633&tp_c=365633","heads":8,"tails":1,"studentIndex":14,"studentTrueHypers":{"a":8,"b":2},"studentGuess":0.8421052631578947,"delta":0.042105263157894646,"totalExamples":9,"bonus":0.32,"bonusSoFar":1.66},{"rt":40176,"response":{"heads":"0","tails":"7"},"type":"response","condition":"nonSeqFull","trueTheta":0.2,"classrooms":["A","B"],"studentTrueClassroom":"B","exampleSet":"first","trial_type":"survey-html-form","trial_index":126,"time_elapsed":998426,"internal_node_id":"0.0-123.0-0.0","params":{"nStudents":24,"maxFlips":25,"completionMinutes":45,"basePay":8,"maxBonus":9,"perTrialBonus":0.5,"perTrialBonusThreshold":0.05,"exampleCost":0.02},"classroomParams":{"A":{"a":1,"b":4},"B":{"a":4,"b":1},"C":{"a":2,"b":8},"D":{"a":8,"b":2}},"conditions":["nonSeqFull","nonSeqPartial","seqNoFeedback","seqFeedback"],"classroomPairings":[["A","B"],["C","D"]],"coinWeights":[0.2,0.5,0.8],"subjectId":"A3BU8UL4W258UU","assignmentId":"337RC3OW06O44O7DQ5EQ857OLR2LVF","hitId":"3IH9TRB0FBLK6RLF7MSMKICTGYN1IU","url":"https://gershmanlab.com/experiments/alicia/teaching/experiment/?hitId=3IH9TRB0FBLK6RLF7MSMKICTGYN1IU&workerId=A3BU8UL4W258UU&assignmentId=337RC3OW06O44O7DQ5EQ857OLR2LVF&a=WC733&tp_a=WC733&b=337RC3OW06O44O7DQ5EQ857OLR2LVF&tp_b=337RC3OW06O44O7DQ5EQ857OLR2LVF&c=365633&tp_c=365633","heads":0,"tails":7,"studentIndex":15,"studentTrueHypers":{"a":4,"b":1},"studentGuess":0.3333333333333333,"delta":0.1333333333333333,"totalExamples":7,"bonus":0,"bonusSoFar":1.66},{"rt":12736,"response":{"heads":"9","tails":"0"},"type":"response","condition":"nonSeqFull","trueTheta":0.8,"classrooms":["C","D"],"studentTrueClassroom":"D","exampleSet":"first","trial_type":"survey-html-form","trial_index":132,"time_elapsed":1024137,"internal_node_id":"0.0-129.0-0.0","params":{"nStudents":24,"maxFlips":25,"completionMinutes":45,"basePay":8,"maxBonus":9,"perTrialBonus":0.5,"perTrialBonusThreshold":0.05,"exampleCost":0.02},"classroomParams":{"A":{"a":1,"b":4},"B":{"a":4,"b":1},"C":{"a":2,"b":8},"D":{"a":8,"b":2}},"conditions":["nonSeqFull","nonSeqPartial","seqNoFeedback","seqFeedback"],"classroomPairings":[["A","B"],["C","D"]],"coinWeights":[0.2,0.5,0.8],"subjectId":"A3BU8UL4W258UU","assignmentId":"337RC3OW06O44O7DQ5EQ857OLR2LVF","hitId":"3IH9TRB0FBLK6RLF7MSMKICTGYN1IU","url":"https://gershmanlab.com/experiments/alicia/teaching/experiment/?hitId=3IH9TRB0FBLK6RLF7MSMKICTGYN1IU&workerId=A3BU8UL4W258UU&assignmentId=337RC3OW06O44O7DQ5EQ857OLR2LVF&a=WC733&tp_a=WC733&b=337RC3OW06O44O7DQ5EQ857OLR2LVF&tp_b=337RC3OW06O44O7DQ5EQ857OLR2LVF&c=365633&tp_c=365633","heads":9,"tails":0,"studentIndex":16,"studentTrueHypers":{"a":8,"b":2},"studentGuess":0.8947368421052632,"delta":0.09473684210526312,"totalExamples":9,"bonus":0,"bonusSoFar":1.66},{"rt":9833,"response":{"heads":"10","tails":"0"},"type":"response","condition":"nonSeqFull","trueTheta":0.8,"classrooms":["A","B"],"studentTrueClassroom":"A","exampleSet":"first","trial_type":"survey-html-form","trial_index":138,"time_elapsed":1046824,"internal_node_id":"0.0-135.0-0.0","params":{"nStudents":24,"maxFlips":25,"completionMinutes":45,"basePay":8,"maxBonus":9,"perTrialBonus":0.5,"perTrialBonusThreshold":0.05,"exampleCost":0.02},"classroomParams":{"A":{"a":1,"b":4},"B":{"a":4,"b":1},"C":{"a":2,"b":8},"D":{"a":8,"b":2}},"conditions":["nonSeqFull","nonSeqPartial","seqNoFeedback","seqFeedback"],"classroomPairings":[["A","B"],["C","D"]],"coinWeights":[0.2,0.5,0.8],"subjectId":"A3BU8UL4W258UU","assignmentId":"337RC3OW06O44O7DQ5EQ857OLR2LVF","hitId":"3IH9TRB0FBLK6RLF7MSMKICTGYN1IU","url":"https://gershmanlab.com/experiments/alicia/teaching/experiment/?hitId=3IH9TRB0FBLK6RLF7MSMKICTGYN1IU&workerId=A3BU8UL4W258UU&assignmentId=337RC3OW06O44O7DQ5EQ857OLR2LVF&a=WC733&tp_a=WC733&b=337RC3OW06O44O7DQ5EQ857OLR2LVF&tp_b=337RC3OW06O44O7DQ5EQ857OLR2LVF&c=365633&tp_c=365633","heads":10,"tails":0,"studentIndex":17,"studentTrueHypers":{"a":1,"b":4},"studentGuess":0.7333333333333333,"delta":0.06666666666666676,"totalExamples":10,"bonus":0,"bonusSoFar":1.66},{"rt":10342,"response":{"heads":"10","tails":"0"},"type":"response","condition":"nonSeqPartial","trueTheta":0.2,"classrooms":["A","B"],"studentTrueClassroom":"B","exampleSet":"first","trial_type":"survey-html-form","trial_index":144,"time_elapsed":1068902,"internal_node_id":"0.0-141.0-0.0","params":{"nStudents":24,"maxFlips":25,"completionMinutes":45,"basePay":8,"maxBonus":9,"perTrialBonus":0.5,"perTrialBonusThreshold":0.05,"exampleCost":0.02},"classroomParams":{"A":{"a":1,"b":4},"B":{"a":4,"b":1},"C":{"a":2,"b":8},"D":{"a":8,"b":2}},"conditions":["nonSeqFull","nonSeqPartial","seqNoFeedback","seqFeedback"],"classroomPairings":[["A","B"],["C","D"]],"coinWeights":[0.2,0.5,0.8],"subjectId":"A3BU8UL4W258UU","assignmentId":"337RC3OW06O44O7DQ5EQ857OLR2LVF","hitId":"3IH9TRB0FBLK6RLF7MSMKICTGYN1IU","url":"https://gershmanlab.com/experiments/alicia/teaching/experiment/?hitId=3IH9TRB0FBLK6RLF7MSMKICTGYN1IU&workerId=A3BU8UL4W258UU&assignmentId=337RC3OW06O44O7DQ5EQ857OLR2LVF&a=WC733&tp_a=WC733&b=337RC3OW06O44O7DQ5EQ857OLR2LVF&tp_b=337RC3OW06O44O7DQ5EQ857OLR2LVF&c=365633&tp_c=365633","heads":10,"tails":0,"studentIndex":18,"studentTrueHypers":{"a":4,"b":1},"studentGuess":0.9333333333333333,"delta":0.7333333333333334,"totalExamples":10,"bonus":0,"bonusSoFar":1.66},{"rt":10861,"response":{"heads":"8","tails":"8"},"type":"response","condition":"seqFeedback","trueTheta":0.5,"classrooms":["C","D"],"studentTrueClassroom":"C","exampleSet":"first","trial_type":"survey-html-form","trial_index":150,"time_elapsed":1090817,"internal_node_id":"0.0-147.0-0.0","params":{"nStudents":24,"maxFlips":25,"completionMinutes":45,"basePay":8,"maxBonus":9,"perTrialBonus":0.5,"perTrialBonusThreshold":0.05,"exampleCost":0.02},"classroomParams":{"A":{"a":1,"b":4},"B":{"a":4,"b":1},"C":{"a":2,"b":8},"D":{"a":8,"b":2}},"conditions":["nonSeqFull","nonSeqPartial","seqNoFeedback","seqFeedback"],"classroomPairings":[["A","B"],["C","D"]],"coinWeights":[0.2,0.5,0.8],"subjectId":"A3BU8UL4W258UU","assignmentId":"337RC3OW06O44O7DQ5EQ857OLR2LVF","hitId":"3IH9TRB0FBLK6RLF7MSMKICTGYN1IU","url":"https://gershmanlab.com/experiments/alicia/teaching/experiment/?hitId=3IH9TRB0FBLK6RLF7MSMKICTGYN1IU&workerId=A3BU8UL4W258UU&assignmentId=337RC3OW06O44O7DQ5EQ857OLR2LVF&a=WC733&tp_a=WC733&b=337RC3OW06O44O7DQ5EQ857OLR2LVF&tp_b=337RC3OW06O44O7DQ5EQ857OLR2LVF&c=365633&tp_c=365633","heads":8,"tails":8,"studentIndex":19,"studentTrueHypers":{"a":2,"b":8},"studentGuess":0.38461538461538464,"delta":0.11538461538461536,"totalExamples":16,"bonusSoFar":1.66},{"rt":11422,"response":{"heads":"8","tails":"5"},"type":"response","condition":"seqFeedback","trueTheta":0.5,"classrooms":["C","D"],"studentTrueClassroom":"C","exampleSet":"second","trial_type":"survey-html-form","trial_index":154,"time_elapsed":1112382,"internal_node_id":"0.0-151.0-0.0","params":{"nStudents":24,"maxFlips":25,"completionMinutes":45,"basePay":8,"maxBonus":9,"perTrialBonus":0.5,"perTrialBonusThreshold":0.05,"exampleCost":0.02},"classroomParams":{"A":{"a":1,"b":4},"B":{"a":4,"b":1},"C":{"a":2,"b":8},"D":{"a":8,"b":2}},"conditions":["nonSeqFull","nonSeqPartial","seqNoFeedback","seqFeedback"],"classroomPairings":[["A","B"],["C","D"]],"coinWeights":[0.2,0.5,0.8],"subjectId":"A3BU8UL4W258UU","assignmentId":"337RC3OW06O44O7DQ5EQ857OLR2LVF","hitId":"3IH9TRB0FBLK6RLF7MSMKICTGYN1IU","url":"https://gershmanlab.com/experiments/alicia/teaching/experiment/?hitId=3IH9TRB0FBLK6RLF7MSMKICTGYN1IU&workerId=A3BU8UL4W258UU&assignmentId=337RC3OW06O44O7DQ5EQ857OLR2LVF&a=WC733&tp_a=WC733&b=337RC3OW06O44O7DQ5EQ857OLR2LVF&tp_b=337RC3OW06O44O7DQ5EQ857OLR2LVF&c=365633&tp_c=365633","firstResponseHeads":8,"firstResponseTails":8,"secondResponseHeads":8,"secondResponseTails":5,"totalHeads":16,"totalTails":13,"studentIndex":19,"studentTrueHypers":{"a":2,"b":8},"studentGuess":0.46153846153846156,"delta":0.038461538461538436,"bonus":0,"bonusSoFar":1.66,"totalExamples":29},{"rt":25833,"response":{"heads":"25","tails":"10"},"type":"response","condition":"seqFeedback","trueTheta":0.8,"classrooms":["A","B"],"studentTrueClassroom":"A","exampleSet":"first","trial_type":"survey-html-form","trial_index":160,"time_elapsed":1152846,"internal_node_id":"0.0-157.0-0.0","params":{"nStudents":24,"maxFlips":25,"completionMinutes":45,"basePay":8,"maxBonus":9,"perTrialBonus":0.5,"perTrialBonusThreshold":0.05,"exampleCost":0.02},"classroomParams":{"A":{"a":1,"b":4},"B":{"a":4,"b":1},"C":{"a":2,"b":8},"D":{"a":8,"b":2}},"conditions":["nonSeqFull","nonSeqPartial","seqNoFeedback","seqFeedback"],"classroomPairings":[["A","B"],["C","D"]],"coinWeights":[0.2,0.5,0.8],"subjectId":"A3BU8UL4W258UU","assignmentId":"337RC3OW06O44O7DQ5EQ857OLR2LVF","hitId":"3IH9TRB0FBLK6RLF7MSMKICTGYN1IU","url":"https://gershmanlab.com/experiments/alicia/teaching/experiment/?hitId=3IH9TRB0FBLK6RLF7MSMKICTGYN1IU&workerId=A3BU8UL4W258UU&assignmentId=337RC3OW06O44O7DQ5EQ857OLR2LVF&a=WC733&tp_a=WC733&b=337RC3OW06O44O7DQ5EQ857OLR2LVF&tp_b=337RC3OW06O44O7DQ5EQ857OLR2LVF&c=365633&tp_c=365633","heads":25,"tails":10,"studentIndex":20,"studentTrueHypers":{"a":1,"b":4},"studentGuess":0.65,"delta":0.15000000000000002,"totalExamples":35,"bonusSoFar":1.66},{"rt":38192,"response":{"heads":"16","tails":"2"},"type":"response","condition":"seqFeedback","trueTheta":0.8,"classrooms":["A","B"],"studentTrueClassroom":"A","exampleSet":"first","trial_type":"survey-html-form","trial_index":161,"time_elapsed":1191039,"internal_node_id":"0.0-157.1-0.1","params":{"nStudents":24,"maxFlips":25,"completionMinutes":45,"basePay":8,"maxBonus":9,"perTrialBonus":0.5,"perTrialBonusThreshold":0.05,"exampleCost":0.02},"classroomParams":{"A":{"a":1,"b":4},"B":{"a":4,"b":1},"C":{"a":2,"b":8},"D":{"a":8,"b":2}},"conditions":["nonSeqFull","nonSeqPartial","seqNoFeedback","seqFeedback"],"classroomPairings":[["A","B"],["C","D"]],"coinWeights":[0.2,0.5,0.8],"subjectId":"A3BU8UL4W258UU","assignmentId":"337RC3OW06O44O7DQ5EQ857OLR2LVF","hitId":"3IH9TRB0FBLK6RLF7MSMKICTGYN1IU","url":"https://gershmanlab.com/experiments/alicia/teaching/experiment/?hitId=3IH9TRB0FBLK6RLF7MSMKICTGYN1IU&workerId=A3BU8UL4W258UU&assignmentId=337RC3OW06O44O7DQ5EQ857OLR2LVF&a=WC733&tp_a=WC733&b=337RC3OW06O44O7DQ5EQ857OLR2LVF&tp_b=337RC3OW06O44O7DQ5EQ857OLR2LVF&c=365633&tp_c=365633","heads":16,"tails":2,"studentIndex":20,"studentTrueHypers":{"a":1,"b":4},"studentGuess":0.7391304347826086,"delta":0.0608695652173914,"totalExamples":18,"bonusSoFar":1.66},{"rt":6924,"response":{"heads":"9","tails":"0"},"type":"response","condition":"seqFeedback","trueTheta":0.8,"classrooms":["A","B"],"studentTrueClassroom":"A","exampleSet":"second","trial_type":"survey-html-form","trial_index":165,"time_elapsed":1209603,"internal_node_id":"0.0-161.0-0.0","params":{"nStudents":24,"maxFlips":25,"completionMinutes":45,"basePay":8,"maxBonus":9,"perTrialBonus":0.5,"perTrialBonusThreshold":0.05,"exampleCost":0.02},"classroomParams":{"A":{"a":1,"b":4},"B":{"a":4,"b":1},"C":{"a":2,"b":8},"D":{"a":8,"b":2}},"conditions":["nonSeqFull","nonSeqPartial","seqNoFeedback","seqFeedback"],"classroomPairings":[["A","B"],["C","D"]],"coinWeights":[0.2,0.5,0.8],"subjectId":"A3BU8UL4W258UU","assignmentId":"337RC3OW06O44O7DQ5EQ857OLR2LVF","hitId":"3IH9TRB0FBLK6RLF7MSMKICTGYN1IU","url":"https://gershmanlab.com/experiments/alicia/teaching/experiment/?hitId=3IH9TRB0FBLK6RLF7MSMKICTGYN1IU&workerId=A3BU8UL4W258UU&assignmentId=337RC3OW06O44O7DQ5EQ857OLR2LVF&a=WC733&tp_a=WC733&b=337RC3OW06O44O7DQ5EQ857OLR2LVF&tp_b=337RC3OW06O44O7DQ5EQ857OLR2LVF&c=365633&tp_c=365633","firstResponseHeads":25,"firstResponseTails":10,"secondResponseHeads":9,"secondResponseTails":0,"totalHeads":34,"totalTails":10,"studentIndex":20,"studentTrueHypers":{"a":1,"b":4},"studentGuess":0.7142857142857143,"delta":0.08571428571428574,"bonus":0,"bonusSoFar":1.66,"totalExamples":44},{"rt":21166,"response":{"heads":"2","tails":"8"},"type":"response","condition":"nonSeqFull","trueTheta":0.2,"classrooms":["C","D"],"studentTrueClassroom":"C","exampleSet":"first","trial_type":"survey-html-form","trial_index":171,"time_elapsed":1242316,"internal_node_id":"0.0-167.0-0.0","params":{"nStudents":24,"maxFlips":25,"completionMinutes":45,"basePay":8,"maxBonus":9,"perTrialBonus":0.5,"perTrialBonusThreshold":0.05,"exampleCost":0.02},"classroomParams":{"A":{"a":1,"b":4},"B":{"a":4,"b":1},"C":{"a":2,"b":8},"D":{"a":8,"b":2}},"conditions":["nonSeqFull","nonSeqPartial","seqNoFeedback","seqFeedback"],"classroomPairings":[["A","B"],["C","D"]],"coinWeights":[0.2,0.5,0.8],"subjectId":"A3BU8UL4W258UU","assignmentId":"337RC3OW06O44O7DQ5EQ857OLR2LVF","hitId":"3IH9TRB0FBLK6RLF7MSMKICTGYN1IU","url":"https://gershmanlab.com/experiments/alicia/teaching/experiment/?hitId=3IH9TRB0FBLK6RLF7MSMKICTGYN1IU&workerId=A3BU8UL4W258UU&assignmentId=337RC3OW06O44O7DQ5EQ857OLR2LVF&a=WC733&tp_a=WC733&b=337RC3OW06O44O7DQ5EQ857OLR2LVF&tp_b=337RC3OW06O44O7DQ5EQ857OLR2LVF&c=365633&tp_c=365633","heads":2,"tails":8,"studentIndex":21,"studentTrueHypers":{"a":2,"b":8},"studentGuess":0.2,"delta":0,"totalExamples":10,"bonus":0.3,"bonusSoFar":1.96},{"rt":11722,"response":{"heads":"2","tails":"6"},"type":"response","condition":"seqNoFeedback","trueTheta":0.2,"classrooms":["C","D"],"studentTrueClassroom":"D","exampleSet":"first","trial_type":"survey-html-form","trial_index":177,"time_elapsed":1267657,"internal_node_id":"0.0-173.0-0.0","params":{"nStudents":24,"maxFlips":25,"completionMinutes":45,"basePay":8,"maxBonus":9,"perTrialBonus":0.5,"perTrialBonusThreshold":0.05,"exampleCost":0.02},"classroomParams":{"A":{"a":1,"b":4},"B":{"a":4,"b":1},"C":{"a":2,"b":8},"D":{"a":8,"b":2}},"conditions":["nonSeqFull","nonSeqPartial","seqNoFeedback","seqFeedback"],"classroomPairings":[["A","B"],["C","D"]],"coinWeights":[0.2,0.5,0.8],"subjectId":"A3BU8UL4W258UU","assignmentId":"337RC3OW06O44O7DQ5EQ857OLR2LVF","hitId":"3IH9TRB0FBLK6RLF7MSMKICTGYN1IU","url":"https://gershmanlab.com/experiments/alicia/teaching/experiment/?hitId=3IH9TRB0FBLK6RLF7MSMKICTGYN1IU&workerId=A3BU8UL4W258UU&assignmentId=337RC3OW06O44O7DQ5EQ857OLR2LVF&a=WC733&tp_a=WC733&b=337RC3OW06O44O7DQ5EQ857OLR2LVF&tp_b=337RC3OW06O44O7DQ5EQ857OLR2LVF&c=365633&tp_c=365633","heads":2,"tails":6,"studentIndex":22,"studentTrueHypers":{"a":8,"b":2},"studentGuess":0.5555555555555556,"delta":0.35555555555555557,"totalExamples":8,"bonusSoFar":1.96},{"rt":11558,"response":{"heads":"2","tails":"10"},"type":"response","condition":"seqNoFeedback","trueTheta":0.2,"classrooms":["C","D"],"studentTrueClassroom":"D","exampleSet":"second","trial_type":"survey-html-form","trial_index":180,"time_elapsed":1286242,"internal_node_id":"0.0-176.0-0.0","params":{"nStudents":24,"maxFlips":25,"completionMinutes":45,"basePay":8,"maxBonus":9,"perTrialBonus":0.5,"perTrialBonusThreshold":0.05,"exampleCost":0.02},"classroomParams":{"A":{"a":1,"b":4},"B":{"a":4,"b":1},"C":{"a":2,"b":8},"D":{"a":8,"b":2}},"conditions":["nonSeqFull","nonSeqPartial","seqNoFeedback","seqFeedback"],"classroomPairings":[["A","B"],["C","D"]],"coinWeights":[0.2,0.5,0.8],"subjectId":"A3BU8UL4W258UU","assignmentId":"337RC3OW06O44O7DQ5EQ857OLR2LVF","hitId":"3IH9TRB0FBLK6RLF7MSMKICTGYN1IU","url":"https://gershmanlab.com/experiments/alicia/teaching/experiment/?hitId=3IH9TRB0FBLK6RLF7MSMKICTGYN1IU&workerId=A3BU8UL4W258UU&assignmentId=337RC3OW06O44O7DQ5EQ857OLR2LVF&a=WC733&tp_a=WC733&b=337RC3OW06O44O7DQ5EQ857OLR2LVF&tp_b=337RC3OW06O44O7DQ5EQ857OLR2LVF&c=365633&tp_c=365633","firstResponseHeads":2,"firstResponseTails":6,"secondResponseHeads":2,"secondResponseTails":10,"totalHeads":4,"totalTails":16,"studentIndex":22,"studentTrueHypers":{"a":8,"b":2},"studentGuess":0.4,"delta":0.2,"bonus":0,"bonusSoFar":1.96,"totalExamples":20},{"rt":7800,"response":{"heads":"8","tails":"2"},"type":"response","condition":"seqFeedback","trueTheta":0.8,"classrooms":["C","D"],"studentTrueClassroom":"C","exampleSet":"first","trial_type":"survey-html-form","trial_index":186,"time_elapsed":1307499,"internal_node_id":"0.0-182.0-0.0","params":{"nStudents":24,"maxFlips":25,"completionMinutes":45,"basePay":8,"maxBonus":9,"perTrialBonus":0.5,"perTrialBonusThreshold":0.05,"exampleCost":0.02},"classroomParams":{"A":{"a":1,"b":4},"B":{"a":4,"b":1},"C":{"a":2,"b":8},"D":{"a":8,"b":2}},"conditions":["nonSeqFull","nonSeqPartial","seqNoFeedback","seqFeedback"],"classroomPairings":[["A","B"],["C","D"]],"coinWeights":[0.2,0.5,0.8],"subjectId":"A3BU8UL4W258UU","assignmentId":"337RC3OW06O44O7DQ5EQ857OLR2LVF","hitId":"3IH9TRB0FBLK6RLF7MSMKICTGYN1IU","url":"https://gershmanlab.com/experiments/alicia/teaching/experiment/?hitId=3IH9TRB0FBLK6RLF7MSMKICTGYN1IU&workerId=A3BU8UL4W258UU&assignmentId=337RC3OW06O44O7DQ5EQ857OLR2LVF&a=WC733&tp_a=WC733&b=337RC3OW06O44O7DQ5EQ857OLR2LVF&tp_b=337RC3OW06O44O7DQ5EQ857OLR2LVF&c=365633&tp_c=365633","heads":8,"tails":2,"studentIndex":23,"studentTrueHypers":{"a":2,"b":8},"studentGuess":0.5,"delta":0.30000000000000004,"totalExamples":10,"bonusSoFar":1.96},{"rt":18170,"response":{"heads":"16","tails":"0"},"type":"response","condition":"seqFeedback","trueTheta":0.8,"classrooms":["C","D"],"studentTrueClassroom":"C","exampleSet":"second","trial_type":"survey-html-form","trial_index":190,"time_elapsed":1336388,"internal_node_id":"0.0-186.0-0.0","params":{"nStudents":24,"maxFlips":25,"completionMinutes":45,"basePay":8,"maxBonus":9,"perTrialBonus":0.5,"perTrialBonusThreshold":0.05,"exampleCost":0.02},"classroomParams":{"A":{"a":1,"b":4},"B":{"a":4,"b":1},"C":{"a":2,"b":8},"D":{"a":8,"b":2}},"conditions":["nonSeqFull","nonSeqPartial","seqNoFeedback","seqFeedback"],"classroomPairings":[["A","B"],["C","D"]],"coinWeights":[0.2,0.5,0.8],"subjectId":"A3BU8UL4W258UU","assignmentId":"337RC3OW06O44O7DQ5EQ857OLR2LVF","hitId":"3IH9TRB0FBLK6RLF7MSMKICTGYN1IU","url":"https://gershmanlab.com/experiments/alicia/teaching/experiment/?hitId=3IH9TRB0FBLK6RLF7MSMKICTGYN1IU&workerId=A3BU8UL4W258UU&assignmentId=337RC3OW06O44O7DQ5EQ857OLR2LVF&a=WC733&tp_a=WC733&b=337RC3OW06O44O7DQ5EQ857OLR2LVF&tp_b=337RC3OW06O44O7DQ5EQ857OLR2LVF&c=365633&tp_c=365633","firstResponseHeads":8,"firstResponseTails":2,"secondResponseHeads":16,"secondResponseTails":0,"totalHeads":24,"totalTails":2,"studentIndex":23,"studentTrueHypers":{"a":2,"b":8},"studentGuess":0.7222222222222222,"delta":0.07777777777777783,"bonus":0,"bonusSoFar":1.96,"totalExamples":26},{"rt":50390,"response":{"gender":"male","age":"37","understood":"yes","comments":"Understood the instructions but can not think of a strategy."},"type":"response","trial_type":"survey-html-form","trial_index":194,"time_elapsed":1396346,"internal_node_id":"0.0-191.0","params":{"nStudents":24,"maxFlips":25,"completionMinutes":45,"basePay":8,"maxBonus":9,"perTrialBonus":0.5,"perTrialBonusThreshold":0.05,"exampleCost":0.02},"classroomParams":{"A":{"a":1,"b":4},"B":{"a":4,"b":1},"C":{"a":2,"b":8},"D":{"a":8,"b":2}},"conditions":["nonSeqFull","nonSeqPartial","seqNoFeedback","seqFeedback"],"classroomPairings":[["A","B"],["C","D"]],"coinWeights":[0.2,0.5,0.8],"subjectId":"A3BU8UL4W258UU","assignmentId":"337RC3OW06O44O7DQ5EQ857OLR2LVF","hitId":"3IH9TRB0FBLK6RLF7MSMKICTGYN1IU","url":"https://gershmanlab.com/experiments/alicia/teaching/experiment/?hitId=3IH9TRB0FBLK6RLF7MSMKICTGYN1IU&workerId=A3BU8UL4W258UU&assignmentId=337RC3OW06O44O7DQ5EQ857OLR2LVF&a=WC733&tp_a=WC733&b=337RC3OW06O44O7DQ5EQ857OLR2LVF&tp_b=337RC3OW06O44O7DQ5EQ857OLR2LVF&c=365633&tp_c=365633","totalBonus":1.96}]