[{"rt":43696,"response":{"heads":"2","tails":"4"},"type":"response","condition":"nonSeqPartial","trueTheta":0.2,"classrooms":["C","D"],"studentTrueClassroom":"D","exampleSet":"first","trial_type":"survey-html-form","trial_index":22,"time_elapsed":581235,"internal_node_id":"0.0-6.0-0.0","params":{"nStudents":24,"maxFlips":25,"completionMinutes":45,"basePay":8,"maxBonus":9,"perTrialBonus":0.5,"perTrialBonusThreshold":0.05,"exampleCost":0.02},"classroomParams":{"A":{"a":1,"b":4},"B":{"a":4,"b":1},"C":{"a":2,"b":8},"D":{"a":8,"b":2}},"conditions":["nonSeqFull","nonSeqPartial","seqNoFeedback","seqFeedback"],"classroomPairings":[["A","B"],["C","D"]],"coinWeights":[0.2,0.5,0.8],"subjectId":"A3FKXJVH0K2E3E","assignmentId":"33NF62TLXKOKTNP1OGO6QHJF14QJKP","hitId":"3QGHA0EA0JM3KKNCY0PQRLYAHLBWBE","url":"https://gershmanlab.com/experiments/alicia/teaching/experiment/?hitId=3QGHA0EA0JM3KKNCY0PQRLYAHLBWBE&workerId=A3FKXJVH0K2E3E&assignmentId=33NF62TLXKOKTNP1OGO6QHJF14QJKP&a=L6N33&tp_a=L6N33&b=33NF62TLXKOKTNP1OGO6QHJF14QJKP&tp_b=33NF62TLXKOKTNP1OGO6QHJF14QJKP&c=365633&tp_c=365633","heads":2,"tails":4,"studentIndex":0,"studentTrueHypers":{"a":8,"b":2},"studentGuess":0.625,"delta":0.425,"totalExamples":6,"bonus":0,"bonusSoFar":0},{"rt":18471,"response":{"heads":"2","tails":"8"},"type":"response","condition":"seqNoFeedback","trueTheta":0.2,"classrooms":["A","B"],"studentTrueClassroom":"B","exampleSet":"first","trial_type":"survey-html-form","trial_index":28,"time_elapsed":626241,"internal_node_id":"0.0-12.0-0.0","params":{"nStudents":24,"maxFlips":25,"completionMinutes":45,"basePay":8,"maxBonus":9,"perTrialBonus":0.5,"perTrialBonusThreshold":0.05,"exampleCost":0.02},"classroomParams":{"A":{"a":1,"b":4},"B":{"a":4,"b":1},"C":{"a":2,"b":8},"D":{"a":8,"b":2}},"conditions":["nonSeqFull","nonSeqPartial","seqNoFeedback","seqFeedback"],"classroomPairings":[["A","B"],["C","D"]],"coinWeights":[0.2,0.5,0.8],"subjectId":"A3FKXJVH0K2E3E","assignmentId":"33NF62TLXKOKTNP1OGO6QHJF14QJKP","hitId":"3QGHA0EA0JM3KKNCY0PQRLYAHLBWBE","url":"https://gershmanlab.com/experiments/alicia/teaching/experiment/?hitId=3QGHA0EA0JM3KKNCY0PQRLYAHLBWBE&workerId=A3FKXJVH0K2E3E&assignmentId=33NF62TLXKOKTNP1OGO6QHJF14QJKP&a=L6N33&tp_a=L6N33&b=33NF62TLXKOKTNP1OGO6QHJF14QJKP&tp_b=33NF62TLXKOKTNP1OGO6QHJF14QJKP&c=365633&tp_c=365633","heads":2,"tails":8,"studentIndex":1,"studentTrueHypers":{"a":4,"b":1},"studentGuess":0.4,"delta":0.2,"totalExamples":10,"bonusSoFar":0},{"rt":8771,"response":{"heads":"2","tails":"8"},"type":"response","condition":"seqNoFeedback","trueTheta":0.2,"classrooms":["A","B"],"studentTrueClassroom":"B","exampleSet":"second","trial_type":"survey-html-form","trial_index":31,"time_elapsed":640786,"internal_node_id":"0.0-15.0-0.0","params":{"nStudents":24,"maxFlips":25,"completionMinutes":45,"basePay":8,"maxBonus":9,"perTrialBonus":0.5,"perTrialBonusThreshold":0.05,"exampleCost":0.02},"classroomParams":{"A":{"a":1,"b":4},"B":{"a":4,"b":1},"C":{"a":2,"b":8},"D":{"a":8,"b":2}},"conditions":["nonSeqFull","nonSeqPartial","seqNoFeedback","seqFeedback"],"classroomPairings":[["A","B"],["C","D"]],"coinWeights":[0.2,0.5,0.8],"subjectId":"A3FKXJVH0K2E3E","assignmentId":"33NF62TLXKOKTNP1OGO6QHJF14QJKP","hitId":"3QGHA0EA0JM3KKNCY0PQRLYAHLBWBE","url":"https://gershmanlab.com/experiments/alicia/teaching/experiment/?hitId=3QGHA0EA0JM3KKNCY0PQRLYAHLBWBE&workerId=A3FKXJVH0K2E3E&assignmentId=33NF62TLXKOKTNP1OGO6QHJF14QJKP&a=L6N33&tp_a=L6N33&b=33NF62TLXKOKTNP1OGO6QHJF14QJKP&tp_b=33NF62TLXKOKTNP1OGO6QHJF14QJKP&c=365633&tp_c=365633","firstResponseHeads":2,"firstResponseTails":8,"secondResponseHeads":2,"secondResponseTails":8,"totalHeads":4,"totalTails":16,"studentIndex":1,"studentTrueHypers":{"a":4,"b":1},"studentGuess":0.32,"delta":0.12,"bonus":0,"bonusSoFar":0,"totalExamples":20},{"rt":12355,"response":{"heads":"8","tails":"0"},"type":"response","condition":"seqFeedback","trueTheta":0.8,"classrooms":["A","B"],"studentTrueClassroom":"A","exampleSet":"first","trial_type":"survey-html-form","trial_index":37,"time_elapsed":675451,"internal_node_id":"0.0-21.0-0.0","params":{"nStudents":24,"maxFlips":25,"completionMinutes":45,"basePay":8,"maxBonus":9,"perTrialBonus":0.5,"perTrialBonusThreshold":0.05,"exampleCost":0.02},"classroomParams":{"A":{"a":1,"b":4},"B":{"a":4,"b":1},"C":{"a":2,"b":8},"D":{"a":8,"b":2}},"conditions":["nonSeqFull","nonSeqPartial","seqNoFeedback","seqFeedback"],"classroomPairings":[["A","B"],["C","D"]],"coinWeights":[0.2,0.5,0.8],"subjectId":"A3FKXJVH0K2E3E","assignmentId":"33NF62TLXKOKTNP1OGO6QHJF14QJKP","hitId":"3QGHA0EA0JM3KKNCY0PQRLYAHLBWBE","url":"https://gershmanlab.com/experiments/alicia/teaching/experiment/?hitId=3QGHA0EA0JM3KKNCY0PQRLYAHLBWBE&workerId=A3FKXJVH0K2E3E&assignmentId=33NF62TLXKOKTNP1OGO6QHJF14QJKP&a=L6N33&tp_a=L6N33&b=33NF62TLXKOKTNP1OGO6QHJF14QJKP&tp_b=33NF62TLXKOKTNP1OGO6QHJF14QJKP&c=365633&tp_c=365633","heads":8,"tails":0,"studentIndex":2,"studentTrueHypers":{"a":1,"b":4},"studentGuess":0.6923076923076923,"delta":0.10769230769230775,"totalExamples":8,"bonusSoFar":0},{"rt":5568,"response":{"heads":"8","tails":"0"},"type":"response","condition":"seqFeedback","trueTheta":0.8,"classrooms":["A","B"],"studentTrueClassroom":"A","exampleSet":"second","trial_type":"survey-html-form","trial_index":41,"time_elapsed":690569,"internal_node_id":"0.0-25.0-0.0","params":{"nStudents":24,"maxFlips":25,"completionMinutes":45,"basePay":8,"maxBonus":9,"perTrialBonus":0.5,"perTrialBonusThreshold":0.05,"exampleCost":0.02},"classroomParams":{"A":{"a":1,"b":4},"B":{"a":4,"b":1},"C":{"a":2,"b":8},"D":{"a":8,"b":2}},"conditions":["nonSeqFull","nonSeqPartial","seqNoFeedback","seqFeedback"],"classroomPairings":[["A","B"],["C","D"]],"coinWeights":[0.2,0.5,0.8],"subjectId":"A3FKXJVH0K2E3E","assignmentId":"33NF62TLXKOKTNP1OGO6QHJF14QJKP","hitId":"3QGHA0EA0JM3KKNCY0PQRLYAHLBWBE","url":"https://gershmanlab.com/experiments/alicia/teaching/experiment/?hitId=3QGHA0EA0JM3KKNCY0PQRLYAHLBWBE&workerId=A3FKXJVH0K2E3E&assignmentId=33NF62TLXKOKTNP1OGO6QHJF14QJKP&a=L6N33&tp_a=L6N33&b=33NF62TLXKOKTNP1OGO6QHJF14QJKP&tp_b=33NF62TLXKOKTNP1OGO6QHJF14QJKP&c=365633&tp_c=365633","firstResponseHeads":8,"firstResponseTails":0,"secondResponseHeads":8,"secondResponseTails":0,"totalHeads":16,"totalTails":0,"studentIndex":2,"studentTrueHypers":{"a":1,"b":4},"studentGuess":0.8095238095238095,"delta":0.00952380952380949,"bonus":0.18,"bonusSoFar":0.18,"totalExamples":16},{"rt":12260,"response":{"heads":"0","tails":"12"},"type":"response","condition":"seqNoFeedback","trueTheta":0.2,"classrooms":["C","D"],"studentTrueClassroom":"C","exampleSet":"first","trial_type":"survey-html-form","trial_index":47,"time_elapsed":726176,"internal_node_id":"0.0-31.0-0.0","params":{"nStudents":24,"maxFlips":25,"completionMinutes":45,"basePay":8,"maxBonus":9,"perTrialBonus":0.5,"perTrialBonusThreshold":0.05,"exampleCost":0.02},"classroomParams":{"A":{"a":1,"b":4},"B":{"a":4,"b":1},"C":{"a":2,"b":8},"D":{"a":8,"b":2}},"conditions":["nonSeqFull","nonSeqPartial","seqNoFeedback","seqFeedback"],"classroomPairings":[["A","B"],["C","D"]],"coinWeights":[0.2,0.5,0.8],"subjectId":"A3FKXJVH0K2E3E","assignmentId":"33NF62TLXKOKTNP1OGO6QHJF14QJKP","hitId":"3QGHA0EA0JM3KKNCY0PQRLYAHLBWBE","url":"https://gershmanlab.com/experiments/alicia/teaching/experiment/?hitId=3QGHA0EA0JM3KKNCY0PQRLYAHLBWBE&workerId=A3FKXJVH0K2E3E&assignmentId=33NF62TLXKOKTNP1OGO6QHJF14QJKP&a=L6N33&tp_a=L6N33&b=33NF62TLXKOKTNP1OGO6QHJF14QJKP&tp_b=33NF62TLXKOKTNP1OGO6QHJF14QJKP&c=365633&tp_c=365633","heads":0,"tails":12,"studentIndex":3,"studentTrueHypers":{"a":2,"b":8},"studentGuess":0.09090909090909091,"delta":0.1090909090909091,"totalExamples":12,"bonusSoFar":0.18},{"rt":7397,"response":{"heads":"0","tails":"12"},"type":"response","condition":"seqNoFeedback","trueTheta":0.2,"classrooms":["C","D"],"studentTrueClassroom":"C","exampleSet":"second","trial_type":"survey-html-form","trial_index":50,"time_elapsed":740837,"internal_node_id":"0.0-34.0-0.0","params":{"nStudents":24,"maxFlips":25,"completionMinutes":45,"basePay":8,"maxBonus":9,"perTrialBonus":0.5,"perTrialBonusThreshold":0.05,"exampleCost":0.02},"classroomParams":{"A":{"a":1,"b":4},"B":{"a":4,"b":1},"C":{"a":2,"b":8},"D":{"a":8,"b":2}},"conditions":["nonSeqFull","nonSeqPartial","seqNoFeedback","seqFeedback"],"classroomPairings":[["A","B"],["C","D"]],"coinWeights":[0.2,0.5,0.8],"subjectId":"A3FKXJVH0K2E3E","assignmentId":"33NF62TLXKOKTNP1OGO6QHJF14QJKP","hitId":"3QGHA0EA0JM3KKNCY0PQRLYAHLBWBE","url":"https://gershmanlab.com/experiments/alicia/teaching/experiment/?hitId=3QGHA0EA0JM3KKNCY0PQRLYAHLBWBE&workerId=A3FKXJVH0K2E3E&assignmentId=33NF62TLXKOKTNP1OGO6QHJF14QJKP&a=L6N33&tp_a=L6N33&b=33NF62TLXKOKTNP1OGO6QHJF14QJKP&tp_b=33NF62TLXKOKTNP1OGO6QHJF14QJKP&c=365633&tp_c=365633","firstResponseHeads":0,"firstResponseTails":12,"secondResponseHeads":0,"secondResponseTails":12,"totalHeads":0,"totalTails":24,"studentIndex":3,"studentTrueHypers":{"a":2,"b":8},"studentGuess":0.058823529411764705,"delta":0.1411764705882353,"bonus":0,"bonusSoFar":0.18,"totalExamples":24},{"rt":8094,"response":{"heads":"4","tails":"4"},"type":"response","condition":"seqNoFeedback","trueTheta":0.5,"classrooms":["A","B"],"studentTrueClassroom":"A","exampleSet":"first","trial_type":"survey-html-form","trial_index":56,"time_elapsed":781726,"internal_node_id":"0.0-40.0-0.0","params":{"nStudents":24,"maxFlips":25,"completionMinutes":45,"basePay":8,"maxBonus":9,"perTrialBonus":0.5,"perTrialBonusThreshold":0.05,"exampleCost":0.02},"classroomParams":{"A":{"a":1,"b":4},"B":{"a":4,"b":1},"C":{"a":2,"b":8},"D":{"a":8,"b":2}},"conditions":["nonSeqFull","nonSeqPartial","seqNoFeedback","seqFeedback"],"classroomPairings":[["A","B"],["C","D"]],"coinWeights":[0.2,0.5,0.8],"subjectId":"A3FKXJVH0K2E3E","assignmentId":"33NF62TLXKOKTNP1OGO6QHJF14QJKP","hitId":"3QGHA0EA0JM3KKNCY0PQRLYAHLBWBE","url":"https://gershmanlab.com/experiments/alicia/teaching/experiment/?hitId=3QGHA0EA0JM3KKNCY0PQRLYAHLBWBE&workerId=A3FKXJVH0K2E3E&assignmentId=33NF62TLXKOKTNP1OGO6QHJF14QJKP&a=L6N33&tp_a=L6N33&b=33NF62TLXKOKTNP1OGO6QHJF14QJKP&tp_b=33NF62TLXKOKTNP1OGO6QHJF14QJKP&c=365633&tp_c=365633","heads":4,"tails":4,"studentIndex":4,"studentTrueHypers":{"a":1,"b":4},"studentGuess":0.38461538461538464,"delta":0.11538461538461536,"totalExamples":8,"bonusSoFar":0.18},{"rt":8916,"response":{"heads":"4","tails":"4"},"type":"response","condition":"seqNoFeedback","trueTheta":0.5,"classrooms":["A","B"],"studentTrueClassroom":"A","exampleSet":"second","trial_type":"survey-html-form","trial_index":59,"time_elapsed":796660,"internal_node_id":"0.0-43.0-0.0","params":{"nStudents":24,"maxFlips":25,"completionMinutes":45,"basePay":8,"maxBonus":9,"perTrialBonus":0.5,"perTrialBonusThreshold":0.05,"exampleCost":0.02},"classroomParams":{"A":{"a":1,"b":4},"B":{"a":4,"b":1},"C":{"a":2,"b":8},"D":{"a":8,"b":2}},"conditions":["nonSeqFull","nonSeqPartial","seqNoFeedback","seqFeedback"],"classroomPairings":[["A","B"],["C","D"]],"coinWeights":[0.2,0.5,0.8],"subjectId":"A3FKXJVH0K2E3E","assignmentId":"33NF62TLXKOKTNP1OGO6QHJF14QJKP","hitId":"3QGHA0EA0JM3KKNCY0PQRLYAHLBWBE","url":"https://gershmanlab.com/experiments/alicia/teaching/experiment/?hitId=3QGHA0EA0JM3KKNCY0PQRLYAHLBWBE&workerId=A3FKXJVH0K2E3E&assignmentId=33NF62TLXKOKTNP1OGO6QHJF14QJKP&a=L6N33&tp_a=L6N33&b=33NF62TLXKOKTNP1OGO6QHJF14QJKP&tp_b=33NF62TLXKOKTNP1OGO6QHJF14QJKP&c=365633&tp_c=365633","firstResponseHeads":4,"firstResponseTails":4,"secondResponseHeads":4,"secondResponseTails":4,"totalHeads":8,"totalTails":8,"studentIndex":4,"studentTrueHypers":{"a":1,"b":4},"studentGuess":0.42857142857142855,"delta":0.07142857142857145,"bonus":0,"bonusSoFar":0.18,"totalExamples":16},{"rt":8644,"response":{"heads":"0","tails":"8"},"type":"response","condition":"seqFeedback","trueTheta":0.2,"classrooms":["A","B"],"studentTrueClassroom":"A","exampleSet":"first","trial_type":"survey-html-form","trial_index":65,"time_elapsed":834463,"internal_node_id":"0.0-49.0-0.0","params":{"nStudents":24,"maxFlips":25,"completionMinutes":45,"basePay":8,"maxBonus":9,"perTrialBonus":0.5,"perTrialBonusThreshold":0.05,"exampleCost":0.02},"classroomParams":{"A":{"a":1,"b":4},"B":{"a":4,"b":1},"C":{"a":2,"b":8},"D":{"a":8,"b":2}},"conditions":["nonSeqFull","nonSeqPartial","seqNoFeedback","seqFeedback"],"classroomPairings":[["A","B"],["C","D"]],"coinWeights":[0.2,0.5,0.8],"subjectId":"A3FKXJVH0K2E3E","assignmentId":"33NF62TLXKOKTNP1OGO6QHJF14QJKP","hitId":"3QGHA0EA0JM3KKNCY0PQRLYAHLBWBE","url":"https://gershmanlab.com/experiments/alicia/teaching/experiment/?hitId=3QGHA0EA0JM3KKNCY0PQRLYAHLBWBE&workerId=A3FKXJVH0K2E3E&assignmentId=33NF62TLXKOKTNP1OGO6QHJF14QJKP&a=L6N33&tp_a=L6N33&b=33NF62TLXKOKTNP1OGO6QHJF14QJKP&tp_b=33NF62TLXKOKTNP1OGO6QHJF14QJKP&c=365633&tp_c=365633","heads":0,"tails":8,"studentIndex":5,"studentTrueHypers":{"a":1,"b":4},"studentGuess":0.07692307692307693,"delta":0.12307692307692308,"totalExamples":8,"bonusSoFar":0.18},{"rt":10801,"response":{"heads":"0","tails":"8"},"type":"response","condition":"seqFeedback","trueTheta":0.2,"classrooms":["A","B"],"studentTrueClassroom":"A","exampleSet":"second","trial_type":"survey-html-form","trial_index":69,"time_elapsed":860715,"internal_node_id":"0.0-53.0-0.0","params":{"nStudents":24,"maxFlips":25,"completionMinutes":45,"basePay":8,"maxBonus":9,"perTrialBonus":0.5,"perTrialBonusThreshold":0.05,"exampleCost":0.02},"classroomParams":{"A":{"a":1,"b":4},"B":{"a":4,"b":1},"C":{"a":2,"b":8},"D":{"a":8,"b":2}},"conditions":["nonSeqFull","nonSeqPartial","seqNoFeedback","seqFeedback"],"classroomPairings":[["A","B"],["C","D"]],"coinWeights":[0.2,0.5,0.8],"subjectId":"A3FKXJVH0K2E3E","assignmentId":"33NF62TLXKOKTNP1OGO6QHJF14QJKP","hitId":"3QGHA0EA0JM3KKNCY0PQRLYAHLBWBE","url":"https://gershmanlab.com/experiments/alicia/teaching/experiment/?hitId=3QGHA0EA0JM3KKNCY0PQRLYAHLBWBE&workerId=A3FKXJVH0K2E3E&assignmentId=33NF62TLXKOKTNP1OGO6QHJF14QJKP&a=L6N33&tp_a=L6N33&b=33NF62TLXKOKTNP1OGO6QHJF14QJKP&tp_b=33NF62TLXKOKTNP1OGO6QHJF14QJKP&c=365633&tp_c=365633","firstResponseHeads":0,"firstResponseTails":8,"secondResponseHeads":0,"secondResponseTails":8,"totalHeads":0,"totalTails":16,"studentIndex":5,"studentTrueHypers":{"a":1,"b":4},"studentGuess":0.047619047619047616,"delta":0.1523809523809524,"bonus":0,"bonusSoFar":0.18,"totalExamples":16},{"rt":10949,"response":{"heads":"13","tails":"0"},"type":"response","condition":"nonSeqFull","trueTheta":0.8,"classrooms":["A","B"],"studentTrueClassroom":"B","exampleSet":"first","trial_type":"survey-html-form","trial_index":75,"time_elapsed":891632,"internal_node_id":"0.0-59.0-0.0","params":{"nStudents":24,"maxFlips":25,"completionMinutes":45,"basePay":8,"maxBonus":9,"perTrialBonus":0.5,"perTrialBonusThreshold":0.05,"exampleCost":0.02},"classroomParams":{"A":{"a":1,"b":4},"B":{"a":4,"b":1},"C":{"a":2,"b":8},"D":{"a":8,"b":2}},"conditions":["nonSeqFull","nonSeqPartial","seqNoFeedback","seqFeedback"],"classroomPairings":[["A","B"],["C","D"]],"coinWeights":[0.2,0.5,0.8],"subjectId":"A3FKXJVH0K2E3E","assignmentId":"33NF62TLXKOKTNP1OGO6QHJF14QJKP","hitId":"3QGHA0EA0JM3KKNCY0PQRLYAHLBWBE","url":"https://gershmanlab.com/experiments/alicia/teaching/experiment/?hitId=3QGHA0EA0JM3KKNCY0PQRLYAHLBWBE&workerId=A3FKXJVH0K2E3E&assignmentId=33NF62TLXKOKTNP1OGO6QHJF14QJKP&a=L6N33&tp_a=L6N33&b=33NF62TLXKOKTNP1OGO6QHJF14QJKP&tp_b=33NF62TLXKOKTNP1OGO6QHJF14QJKP&c=365633&tp_c=365633","heads":13,"tails":0,"studentIndex":6,"studentTrueHypers":{"a":4,"b":1},"studentGuess":0.9444444444444444,"delta":0.14444444444444438,"totalExamples":13,"bonus":0,"bonusSoFar":0.18},{"rt":7476,"response":{"heads":"9","tails":"0"},"type":"response","condition":"nonSeqPartial","trueTheta":0.8,"classrooms":["A","B"],"studentTrueClassroom":"A","exampleSet":"first","trial_type":"survey-html-form","trial_index":81,"time_elapsed":914909,"internal_node_id":"0.0-65.0-0.0","params":{"nStudents":24,"maxFlips":25,"completionMinutes":45,"basePay":8,"maxBonus":9,"perTrialBonus":0.5,"perTrialBonusThreshold":0.05,"exampleCost":0.02},"classroomParams":{"A":{"a":1,"b":4},"B":{"a":4,"b":1},"C":{"a":2,"b":8},"D":{"a":8,"b":2}},"conditions":["nonSeqFull","nonSeqPartial","seqNoFeedback","seqFeedback"],"classroomPairings":[["A","B"],["C","D"]],"coinWeights":[0.2,0.5,0.8],"subjectId":"A3FKXJVH0K2E3E","assignmentId":"33NF62TLXKOKTNP1OGO6QHJF14QJKP","hitId":"3QGHA0EA0JM3KKNCY0PQRLYAHLBWBE","url":"https://gershmanlab.com/experiments/alicia/teaching/experiment/?hitId=3QGHA0EA0JM3KKNCY0PQRLYAHLBWBE&workerId=A3FKXJVH0K2E3E&assignmentId=33NF62TLXKOKTNP1OGO6QHJF14QJKP&a=L6N33&tp_a=L6N33&b=33NF62TLXKOKTNP1OGO6QHJF14QJKP&tp_b=33NF62TLXKOKTNP1OGO6QHJF14QJKP&c=365633&tp_c=365633","heads":9,"tails":0,"studentIndex":7,"studentTrueHypers":{"a":1,"b":4},"studentGuess":0.7142857142857143,"delta":0.08571428571428574,"totalExamples":9,"bonus":0,"bonusSoFar":0.18},{"rt":4006,"response":{"heads":"5","tails":"5"},"type":"response","condition":"seqNoFeedback","trueTheta":0.5,"classrooms":["C","D"],"studentTrueClassroom":"C","exampleSet":"first","trial_type":"survey-html-form","trial_index":87,"time_elapsed":934054,"internal_node_id":"0.0-71.0-0.0","params":{"nStudents":24,"maxFlips":25,"completionMinutes":45,"basePay":8,"maxBonus":9,"perTrialBonus":0.5,"perTrialBonusThreshold":0.05,"exampleCost":0.02},"classroomParams":{"A":{"a":1,"b":4},"B":{"a":4,"b":1},"C":{"a":2,"b":8},"D":{"a":8,"b":2}},"conditions":["nonSeqFull","nonSeqPartial","seqNoFeedback","seqFeedback"],"classroomPairings":[["A","B"],["C","D"]],"coinWeights":[0.2,0.5,0.8],"subjectId":"A3FKXJVH0K2E3E","assignmentId":"33NF62TLXKOKTNP1OGO6QHJF14QJKP","hitId":"3QGHA0EA0JM3KKNCY0PQRLYAHLBWBE","url":"https://gershmanlab.com/experiments/alicia/teaching/experiment/?hitId=3QGHA0EA0JM3KKNCY0PQRLYAHLBWBE&workerId=A3FKXJVH0K2E3E&assignmentId=33NF62TLXKOKTNP1OGO6QHJF14QJKP&a=L6N33&tp_a=L6N33&b=33NF62TLXKOKTNP1OGO6QHJF14QJKP&tp_b=33NF62TLXKOKTNP1OGO6QHJF14QJKP&c=365633&tp_c=365633","heads":5,"tails":5,"studentIndex":8,"studentTrueHypers":{"a":2,"b":8},"studentGuess":0.35,"delta":0.15000000000000002,"totalExamples":10,"bonusSoFar":0.18},{"rt":7897,"response":{"heads":"5","tails":"5"},"type":"response","condition":"seqNoFeedback","trueTheta":0.5,"classrooms":["C","D"],"studentTrueClassroom":"C","exampleSet":"second","trial_type":"survey-html-form","trial_index":90,"time_elapsed":947971,"internal_node_id":"0.0-74.0-0.0","params":{"nStudents":24,"maxFlips":25,"completionMinutes":45,"basePay":8,"maxBonus":9,"perTrialBonus":0.5,"perTrialBonusThreshold":0.05,"exampleCost":0.02},"classroomParams":{"A":{"a":1,"b":4},"B":{"a":4,"b":1},"C":{"a":2,"b":8},"D":{"a":8,"b":2}},"conditions":["nonSeqFull","nonSeqPartial","seqNoFeedback","seqFeedback"],"classroomPairings":[["A","B"],["C","D"]],"coinWeights":[0.2,0.5,0.8],"subjectId":"A3FKXJVH0K2E3E","assignmentId":"33NF62TLXKOKTNP1OGO6QHJF14QJKP","hitId":"3QGHA0EA0JM3KKNCY0PQRLYAHLBWBE","url":"https://gershmanlab.com/experiments/alicia/teaching/experiment/?hitId=3QGHA0EA0JM3KKNCY0PQRLYAHLBWBE&workerId=A3FKXJVH0K2E3E&assignmentId=33NF62TLXKOKTNP1OGO6QHJF14QJKP&a=L6N33&tp_a=L6N33&b=33NF62TLXKOKTNP1OGO6QHJF14QJKP&tp_b=33NF62TLXKOKTNP1OGO6QHJF14QJKP&c=365633&tp_c=365633","firstResponseHeads":5,"firstResponseTails":5,"secondResponseHeads":5,"secondResponseTails":5,"totalHeads":10,"totalTails":10,"studentIndex":8,"studentTrueHypers":{"a":2,"b":8},"studentGuess":0.4,"delta":0.09999999999999998,"bonus":0,"bonusSoFar":0.18,"totalExamples":20},{"rt":5707,"response":{"heads":"10","tails":"0"},"type":"response","condition":"seqNoFeedback","trueTheta":0.8,"classrooms":["A","B"],"studentTrueClassroom":"B","exampleSet":"first","trial_type":"survey-html-form","trial_index":96,"time_elapsed":969998,"internal_node_id":"0.0-80.0-0.0","params":{"nStudents":24,"maxFlips":25,"completionMinutes":45,"basePay":8,"maxBonus":9,"perTrialBonus":0.5,"perTrialBonusThreshold":0.05,"exampleCost":0.02},"classroomParams":{"A":{"a":1,"b":4},"B":{"a":4,"b":1},"C":{"a":2,"b":8},"D":{"a":8,"b":2}},"conditions":["nonSeqFull","nonSeqPartial","seqNoFeedback","seqFeedback"],"classroomPairings":[["A","B"],["C","D"]],"coinWeights":[0.2,0.5,0.8],"subjectId":"A3FKXJVH0K2E3E","assignmentId":"33NF62TLXKOKTNP1OGO6QHJF14QJKP","hitId":"3QGHA0EA0JM3KKNCY0PQRLYAHLBWBE","url":"https://gershmanlab.com/experiments/alicia/teaching/experiment/?hitId=3QGHA0EA0JM3KKNCY0PQRLYAHLBWBE&workerId=A3FKXJVH0K2E3E&assignmentId=33NF62TLXKOKTNP1OGO6QHJF14QJKP&a=L6N33&tp_a=L6N33&b=33NF62TLXKOKTNP1OGO6QHJF14QJKP&tp_b=33NF62TLXKOKTNP1OGO6QHJF14QJKP&c=365633&tp_c=365633","heads":10,"tails":0,"studentIndex":9,"studentTrueHypers":{"a":4,"b":1},"studentGuess":0.9333333333333333,"delta":0.1333333333333333,"totalExamples":10,"bonusSoFar":0.18},{"rt":7111,"response":{"heads":"10","tails":"2"},"type":"response","condition":"seqNoFeedback","trueTheta":0.8,"classrooms":["A","B"],"studentTrueClassroom":"B","exampleSet":"second","trial_type":"survey-html-form","trial_index":99,"time_elapsed":982896,"internal_node_id":"0.0-83.0-0.0","params":{"nStudents":24,"maxFlips":25,"completionMinutes":45,"basePay":8,"maxBonus":9,"perTrialBonus":0.5,"perTrialBonusThreshold":0.05,"exampleCost":0.02},"classroomParams":{"A":{"a":1,"b":4},"B":{"a":4,"b":1},"C":{"a":2,"b":8},"D":{"a":8,"b":2}},"conditions":["nonSeqFull","nonSeqPartial","seqNoFeedback","seqFeedback"],"classroomPairings":[["A","B"],["C","D"]],"coinWeights":[0.2,0.5,0.8],"subjectId":"A3FKXJVH0K2E3E","assignmentId":"33NF62TLXKOKTNP1OGO6QHJF14QJKP","hitId":"3QGHA0EA0JM3KKNCY0PQRLYAHLBWBE","url":"https://gershmanlab.com/experiments/alicia/teaching/experiment/?hitId=3QGHA0EA0JM3KKNCY0PQRLYAHLBWBE&workerId=A3FKXJVH0K2E3E&assignmentId=33NF62TLXKOKTNP1OGO6QHJF14QJKP&a=L6N33&tp_a=L6N33&b=33NF62TLXKOKTNP1OGO6QHJF14QJKP&tp_b=33NF62TLXKOKTNP1OGO6QHJF14QJKP&c=365633&tp_c=365633","firstResponseHeads":10,"firstResponseTails":0,"secondResponseHeads":10,"secondResponseTails":2,"totalHeads":20,"totalTails":2,"studentIndex":9,"studentTrueHypers":{"a":4,"b":1},"studentGuess":0.8888888888888888,"delta":0.0888888888888888,"bonus":0,"bonusSoFar":0.18,"totalExamples":22},{"rt":8796,"response":{"heads":"0","tails":"8"},"type":"response","condition":"nonSeqPartial","trueTheta":0.2,"classrooms":["A","B"],"studentTrueClassroom":"B","exampleSet":"first","trial_type":"survey-html-form","trial_index":105,"time_elapsed":1010385,"internal_node_id":"0.0-89.0-0.0","params":{"nStudents":24,"maxFlips":25,"completionMinutes":45,"basePay":8,"maxBonus":9,"perTrialBonus":0.5,"perTrialBonusThreshold":0.05,"exampleCost":0.02},"classroomParams":{"A":{"a":1,"b":4},"B":{"a":4,"b":1},"C":{"a":2,"b":8},"D":{"a":8,"b":2}},"conditions":["nonSeqFull","nonSeqPartial","seqNoFeedback","seqFeedback"],"classroomPairings":[["A","B"],["C","D"]],"coinWeights":[0.2,0.5,0.8],"subjectId":"A3FKXJVH0K2E3E","assignmentId":"33NF62TLXKOKTNP1OGO6QHJF14QJKP","hitId":"3QGHA0EA0JM3KKNCY0PQRLYAHLBWBE","url":"https://gershmanlab.com/experiments/alicia/teaching/experiment/?hitId=3QGHA0EA0JM3KKNCY0PQRLYAHLBWBE&workerId=A3FKXJVH0K2E3E&assignmentId=33NF62TLXKOKTNP1OGO6QHJF14QJKP&a=L6N33&tp_a=L6N33&b=33NF62TLXKOKTNP1OGO6QHJF14QJKP&tp_b=33NF62TLXKOKTNP1OGO6QHJF14QJKP&c=365633&tp_c=365633","heads":0,"tails":8,"studentIndex":10,"studentTrueHypers":{"a":4,"b":1},"studentGuess":0.3076923076923077,"delta":0.1076923076923077,"totalExamples":8,"bonus":0,"bonusSoFar":0.18},{"rt":7568,"response":{"heads":"10","tails":"1"},"type":"response","condition":"seqFeedback","trueTheta":0.8,"classrooms":["C","D"],"studentTrueClassroom":"C","exampleSet":"first","trial_type":"survey-html-form","trial_index":111,"time_elapsed":1031581,"internal_node_id":"0.0-95.0-0.0","params":{"nStudents":24,"maxFlips":25,"completionMinutes":45,"basePay":8,"maxBonus":9,"perTrialBonus":0.5,"perTrialBonusThreshold":0.05,"exampleCost":0.02},"classroomParams":{"A":{"a":1,"b":4},"B":{"a":4,"b":1},"C":{"a":2,"b":8},"D":{"a":8,"b":2}},"conditions":["nonSeqFull","nonSeqPartial","seqNoFeedback","seqFeedback"],"classroomPairings":[["A","B"],["C","D"]],"coinWeights":[0.2,0.5,0.8],"subjectId":"A3FKXJVH0K2E3E","assignmentId":"33NF62TLXKOKTNP1OGO6QHJF14QJKP","hitId":"3QGHA0EA0JM3KKNCY0PQRLYAHLBWBE","url":"https://gershmanlab.com/experiments/alicia/teaching/experiment/?hitId=3QGHA0EA0JM3KKNCY0PQRLYAHLBWBE&workerId=A3FKXJVH0K2E3E&assignmentId=33NF62TLXKOKTNP1OGO6QHJF14QJKP&a=L6N33&tp_a=L6N33&b=33NF62TLXKOKTNP1OGO6QHJF14QJKP&tp_b=33NF62TLXKOKTNP1OGO6QHJF14QJKP&c=365633&tp_c=365633","heads":10,"tails":1,"studentIndex":11,"studentTrueHypers":{"a":2,"b":8},"studentGuess":0.5714285714285714,"delta":0.22857142857142865,"totalExamples":11,"bonusSoFar":0.18},{"rt":4513,"response":{"heads":"10","tails":"0"},"type":"response","condition":"seqFeedback","trueTheta":0.8,"classrooms":["C","D"],"studentTrueClassroom":"C","exampleSet":"second","trial_type":"survey-html-form","trial_index":115,"time_elapsed":1048091,"internal_node_id":"0.0-99.0-0.0","params":{"nStudents":24,"maxFlips":25,"completionMinutes":45,"basePay":8,"maxBonus":9,"perTrialBonus":0.5,"perTrialBonusThreshold":0.05,"exampleCost":0.02},"classroomParams":{"A":{"a":1,"b":4},"B":{"a":4,"b":1},"C":{"a":2,"b":8},"D":{"a":8,"b":2}},"conditions":["nonSeqFull","nonSeqPartial","seqNoFeedback","seqFeedback"],"classroomPairings":[["A","B"],["C","D"]],"coinWeights":[0.2,0.5,0.8],"subjectId":"A3FKXJVH0K2E3E","assignmentId":"33NF62TLXKOKTNP1OGO6QHJF14QJKP","hitId":"3QGHA0EA0JM3KKNCY0PQRLYAHLBWBE","url":"https://gershmanlab.com/experiments/alicia/teaching/experiment/?hitId=3QGHA0EA0JM3KKNCY0PQRLYAHLBWBE&workerId=A3FKXJVH0K2E3E&assignmentId=33NF62TLXKOKTNP1OGO6QHJF14QJKP&a=L6N33&tp_a=L6N33&b=33NF62TLXKOKTNP1OGO6QHJF14QJKP&tp_b=33NF62TLXKOKTNP1OGO6QHJF14QJKP&c=365633&tp_c=365633","firstResponseHeads":10,"firstResponseTails":1,"secondResponseHeads":10,"secondResponseTails":0,"totalHeads":20,"totalTails":1,"studentIndex":11,"studentTrueHypers":{"a":2,"b":8},"studentGuess":0.7096774193548387,"delta":0.0903225806451613,"bonus":0,"bonusSoFar":0.18,"totalExamples":21},{"rt":5773,"response":{"heads":"6","tails":"6"},"type":"response","condition":"nonSeqFull","trueTheta":0.5,"classrooms":["A","B"],"studentTrueClassroom":"B","exampleSet":"first","trial_type":"survey-html-form","trial_index":121,"time_elapsed":1067581,"internal_node_id":"0.0-105.0-0.0","params":{"nStudents":24,"maxFlips":25,"completionMinutes":45,"basePay":8,"maxBonus":9,"perTrialBonus":0.5,"perTrialBonusThreshold":0.05,"exampleCost":0.02},"classroomParams":{"A":{"a":1,"b":4},"B":{"a":4,"b":1},"C":{"a":2,"b":8},"D":{"a":8,"b":2}},"conditions":["nonSeqFull","nonSeqPartial","seqNoFeedback","seqFeedback"],"classroomPairings":[["A","B"],["C","D"]],"coinWeights":[0.2,0.5,0.8],"subjectId":"A3FKXJVH0K2E3E","assignmentId":"33NF62TLXKOKTNP1OGO6QHJF14QJKP","hitId":"3QGHA0EA0JM3KKNCY0PQRLYAHLBWBE","url":"https://gershmanlab.com/experiments/alicia/teaching/experiment/?hitId=3QGHA0EA0JM3KKNCY0PQRLYAHLBWBE&workerId=A3FKXJVH0K2E3E&assignmentId=33NF62TLXKOKTNP1OGO6QHJF14QJKP&a=L6N33&tp_a=L6N33&b=33NF62TLXKOKTNP1OGO6QHJF14QJKP&tp_b=33NF62TLXKOKTNP1OGO6QHJF14QJKP&c=365633&tp_c=365633","heads":6,"tails":6,"studentIndex":12,"studentTrueHypers":{"a":4,"b":1},"studentGuess":0.5882352941176471,"delta":0.08823529411764708,"totalExamples":12,"bonus":0,"bonusSoFar":0.18},{"rt":5794,"response":{"heads":"0","tails":"9"},"type":"response","condition":"nonSeqFull","trueTheta":0.2,"classrooms":["C","D"],"studentTrueClassroom":"D","exampleSet":"first","trial_type":"survey-html-form","trial_index":127,"time_elapsed":1090924,"internal_node_id":"0.0-111.0-0.0","params":{"nStudents":24,"maxFlips":25,"completionMinutes":45,"basePay":8,"maxBonus":9,"perTrialBonus":0.5,"perTrialBonusThreshold":0.05,"exampleCost":0.02},"classroomParams":{"A":{"a":1,"b":4},"B":{"a":4,"b":1},"C":{"a":2,"b":8},"D":{"a":8,"b":2}},"conditions":["nonSeqFull","nonSeqPartial","seqNoFeedback","seqFeedback"],"classroomPairings":[["A","B"],["C","D"]],"coinWeights":[0.2,0.5,0.8],"subjectId":"A3FKXJVH0K2E3E","assignmentId":"33NF62TLXKOKTNP1OGO6QHJF14QJKP","hitId":"3QGHA0EA0JM3KKNCY0PQRLYAHLBWBE","url":"https://gershmanlab.com/experiments/alicia/teaching/experiment/?hitId=3QGHA0EA0JM3KKNCY0PQRLYAHLBWBE&workerId=A3FKXJVH0K2E3E&assignmentId=33NF62TLXKOKTNP1OGO6QHJF14QJKP&a=L6N33&tp_a=L6N33&b=33NF62TLXKOKTNP1OGO6QHJF14QJKP&tp_b=33NF62TLXKOKTNP1OGO6QHJF14QJKP&c=365633&tp_c=365633","heads":0,"tails":9,"studentIndex":13,"studentTrueHypers":{"a":8,"b":2},"studentGuess":0.42105263157894735,"delta":0.22105263157894733,"totalExamples":9,"bonus":0,"bonusSoFar":0.18},{"rt":3898,"response":{"heads":"9","tails":"9"},"type":"response","condition":"seqFeedback","trueTheta":0.5,"classrooms":["A","B"],"studentTrueClassroom":"B","exampleSet":"first","trial_type":"survey-html-form","trial_index":133,"time_elapsed":1109191,"internal_node_id":"0.0-117.0-0.0","params":{"nStudents":24,"maxFlips":25,"completionMinutes":45,"basePay":8,"maxBonus":9,"perTrialBonus":0.5,"perTrialBonusThreshold":0.05,"exampleCost":0.02},"classroomParams":{"A":{"a":1,"b":4},"B":{"a":4,"b":1},"C":{"a":2,"b":8},"D":{"a":8,"b":2}},"conditions":["nonSeqFull","nonSeqPartial","seqNoFeedback","seqFeedback"],"classroomPairings":[["A","B"],["C","D"]],"coinWeights":[0.2,0.5,0.8],"subjectId":"A3FKXJVH0K2E3E","assignmentId":"33NF62TLXKOKTNP1OGO6QHJF14QJKP","hitId":"3QGHA0EA0JM3KKNCY0PQRLYAHLBWBE","url":"https://gershmanlab.com/experiments/alicia/teaching/experiment/?hitId=3QGHA0EA0JM3KKNCY0PQRLYAHLBWBE&workerId=A3FKXJVH0K2E3E&assignmentId=33NF62TLXKOKTNP1OGO6QHJF14QJKP&a=L6N33&tp_a=L6N33&b=33NF62TLXKOKTNP1OGO6QHJF14QJKP&tp_b=33NF62TLXKOKTNP1OGO6QHJF14QJKP&c=365633&tp_c=365633","heads":9,"tails":9,"studentIndex":14,"studentTrueHypers":{"a":4,"b":1},"studentGuess":0.5652173913043478,"delta":0.06521739130434778,"totalExamples":18,"bonusSoFar":0.18},{"rt":5006,"response":{"heads":"9","tails":"9"},"type":"response","condition":"seqFeedback","trueTheta":0.5,"classrooms":["A","B"],"studentTrueClassroom":"B","exampleSet":"second","trial_type":"survey-html-form","trial_index":137,"time_elapsed":1125136,"internal_node_id":"0.0-121.0-0.0","params":{"nStudents":24,"maxFlips":25,"completionMinutes":45,"basePay":8,"maxBonus":9,"perTrialBonus":0.5,"perTrialBonusThreshold":0.05,"exampleCost":0.02},"classroomParams":{"A":{"a":1,"b":4},"B":{"a":4,"b":1},"C":{"a":2,"b":8},"D":{"a":8,"b":2}},"conditions":["nonSeqFull","nonSeqPartial","seqNoFeedback","seqFeedback"],"classroomPairings":[["A","B"],["C","D"]],"coinWeights":[0.2,0.5,0.8],"subjectId":"A3FKXJVH0K2E3E","assignmentId":"33NF62TLXKOKTNP1OGO6QHJF14QJKP","hitId":"3QGHA0EA0JM3KKNCY0PQRLYAHLBWBE","url":"https://gershmanlab.com/experiments/alicia/teaching/experiment/?hitId=3QGHA0EA0JM3KKNCY0PQRLYAHLBWBE&workerId=A3FKXJVH0K2E3E&assignmentId=33NF62TLXKOKTNP1OGO6QHJF14QJKP&a=L6N33&tp_a=L6N33&b=33NF62TLXKOKTNP1OGO6QHJF14QJKP&tp_b=33NF62TLXKOKTNP1OGO6QHJF14QJKP&c=365633&tp_c=365633","firstResponseHeads":9,"firstResponseTails":9,"secondResponseHeads":9,"secondResponseTails":9,"totalHeads":18,"totalTails":18,"studentIndex":14,"studentTrueHypers":{"a":4,"b":1},"studentGuess":0.5365853658536586,"delta":0.03658536585365857,"bonus":0,"bonusSoFar":0.18,"totalExamples":36},{"rt":4163,"response":{"heads":"10","tails":"10"},"type":"response","condition":"nonSeqPartial","trueTheta":0.5,"classrooms":["C","D"],"studentTrueClassroom":"D","exampleSet":"first","trial_type":"survey-html-form","trial_index":143,"time_elapsed":1146205,"internal_node_id":"0.0-127.0-0.0","params":{"nStudents":24,"maxFlips":25,"completionMinutes":45,"basePay":8,"maxBonus":9,"perTrialBonus":0.5,"perTrialBonusThreshold":0.05,"exampleCost":0.02},"classroomParams":{"A":{"a":1,"b":4},"B":{"a":4,"b":1},"C":{"a":2,"b":8},"D":{"a":8,"b":2}},"conditions":["nonSeqFull","nonSeqPartial","seqNoFeedback","seqFeedback"],"classroomPairings":[["A","B"],["C","D"]],"coinWeights":[0.2,0.5,0.8],"subjectId":"A3FKXJVH0K2E3E","assignmentId":"33NF62TLXKOKTNP1OGO6QHJF14QJKP","hitId":"3QGHA0EA0JM3KKNCY0PQRLYAHLBWBE","url":"https://gershmanlab.com/experiments/alicia/teaching/experiment/?hitId=3QGHA0EA0JM3KKNCY0PQRLYAHLBWBE&workerId=A3FKXJVH0K2E3E&assignmentId=33NF62TLXKOKTNP1OGO6QHJF14QJKP&a=L6N33&tp_a=L6N33&b=33NF62TLXKOKTNP1OGO6QHJF14QJKP&tp_b=33NF62TLXKOKTNP1OGO6QHJF14QJKP&c=365633&tp_c=365633","heads":10,"tails":10,"studentIndex":15,"studentTrueHypers":{"a":8,"b":2},"studentGuess":0.6,"delta":0.09999999999999998,"totalExamples":20,"bonus":0,"bonusSoFar":0.18},{"rt":13922,"response":{"heads":"8","tails":"2"},"type":"response","condition":"nonSeqPartial","trueTheta":0.8,"classrooms":["C","D"],"studentTrueClassroom":"C","exampleSet":"first","trial_type":"survey-html-form","trial_index":149,"time_elapsed":1176571,"internal_node_id":"0.0-133.0-0.0","params":{"nStudents":24,"maxFlips":25,"completionMinutes":45,"basePay":8,"maxBonus":9,"perTrialBonus":0.5,"perTrialBonusThreshold":0.05,"exampleCost":0.02},"classroomParams":{"A":{"a":1,"b":4},"B":{"a":4,"b":1},"C":{"a":2,"b":8},"D":{"a":8,"b":2}},"conditions":["nonSeqFull","nonSeqPartial","seqNoFeedback","seqFeedback"],"classroomPairings":[["A","B"],["C","D"]],"coinWeights":[0.2,0.5,0.8],"subjectId":"A3FKXJVH0K2E3E","assignmentId":"33NF62TLXKOKTNP1OGO6QHJF14QJKP","hitId":"3QGHA0EA0JM3KKNCY0PQRLYAHLBWBE","url":"https://gershmanlab.com/experiments/alicia/teaching/experiment/?hitId=3QGHA0EA0JM3KKNCY0PQRLYAHLBWBE&workerId=A3FKXJVH0K2E3E&assignmentId=33NF62TLXKOKTNP1OGO6QHJF14QJKP&a=L6N33&tp_a=L6N33&b=33NF62TLXKOKTNP1OGO6QHJF14QJKP&tp_b=33NF62TLXKOKTNP1OGO6QHJF14QJKP&c=365633&tp_c=365633","heads":8,"tails":2,"studentIndex":16,"studentTrueHypers":{"a":2,"b":8},"studentGuess":0.5,"delta":0.30000000000000004,"totalExamples":10,"bonus":0,"bonusSoFar":0.18},{"rt":7178,"response":{"heads":"8","tails":"2"},"type":"response","condition":"seqFeedback","trueTheta":0.2,"classrooms":["C","D"],"studentTrueClassroom":"D","exampleSet":"first","trial_type":"survey-html-form","trial_index":155,"time_elapsed":1200076,"internal_node_id":"0.0-139.0-0.0","params":{"nStudents":24,"maxFlips":25,"completionMinutes":45,"basePay":8,"maxBonus":9,"perTrialBonus":0.5,"perTrialBonusThreshold":0.05,"exampleCost":0.02},"classroomParams":{"A":{"a":1,"b":4},"B":{"a":4,"b":1},"C":{"a":2,"b":8},"D":{"a":8,"b":2}},"conditions":["nonSeqFull","nonSeqPartial","seqNoFeedback","seqFeedback"],"classroomPairings":[["A","B"],["C","D"]],"coinWeights":[0.2,0.5,0.8],"subjectId":"A3FKXJVH0K2E3E","assignmentId":"33NF62TLXKOKTNP1OGO6QHJF14QJKP","hitId":"3QGHA0EA0JM3KKNCY0PQRLYAHLBWBE","url":"https://gershmanlab.com/experiments/alicia/teaching/experiment/?hitId=3QGHA0EA0JM3KKNCY0PQRLYAHLBWBE&workerId=A3FKXJVH0K2E3E&assignmentId=33NF62TLXKOKTNP1OGO6QHJF14QJKP&a=L6N33&tp_a=L6N33&b=33NF62TLXKOKTNP1OGO6QHJF14QJKP&tp_b=33NF62TLXKOKTNP1OGO6QHJF14QJKP&c=365633&tp_c=365633","heads":8,"tails":2,"studentIndex":17,"studentTrueHypers":{"a":8,"b":2},"studentGuess":0.8,"delta":0.6000000000000001,"totalExamples":10,"bonusSoFar":0.18},{"rt":11411,"response":{"heads":"2","tails":"8"},"type":"response","condition":"seqFeedback","trueTheta":0.2,"classrooms":["C","D"],"studentTrueClassroom":"D","exampleSet":"second","trial_type":"survey-html-form","trial_index":159,"time_elapsed":1222341,"internal_node_id":"0.0-143.0-0.0","params":{"nStudents":24,"maxFlips":25,"completionMinutes":45,"basePay":8,"maxBonus":9,"perTrialBonus":0.5,"perTrialBonusThreshold":0.05,"exampleCost":0.02},"classroomParams":{"A":{"a":1,"b":4},"B":{"a":4,"b":1},"C":{"a":2,"b":8},"D":{"a":8,"b":2}},"conditions":["nonSeqFull","nonSeqPartial","seqNoFeedback","seqFeedback"],"classroomPairings":[["A","B"],["C","D"]],"coinWeights":[0.2,0.5,0.8],"subjectId":"A3FKXJVH0K2E3E","assignmentId":"33NF62TLXKOKTNP1OGO6QHJF14QJKP","hitId":"3QGHA0EA0JM3KKNCY0PQRLYAHLBWBE","url":"https://gershmanlab.com/experiments/alicia/teaching/experiment/?hitId=3QGHA0EA0JM3KKNCY0PQRLYAHLBWBE&workerId=A3FKXJVH0K2E3E&assignmentId=33NF62TLXKOKTNP1OGO6QHJF14QJKP&a=L6N33&tp_a=L6N33&b=33NF62TLXKOKTNP1OGO6QHJF14QJKP&tp_b=33NF62TLXKOKTNP1OGO6QHJF14QJKP&c=365633&tp_c=365633","firstResponseHeads":8,"firstResponseTails":2,"secondResponseHeads":2,"secondResponseTails":8,"totalHeads":10,"totalTails":10,"studentIndex":17,"studentTrueHypers":{"a":8,"b":2},"studentGuess":0.6,"delta":0.39999999999999997,"bonus":0,"bonusSoFar":0.18,"totalExamples":20},{"rt":6892,"response":{"heads":"5","tails":"5"},"type":"response","condition":"seqFeedback","trueTheta":0.5,"classrooms":["C","D"],"studentTrueClassroom":"D","exampleSet":"first","trial_type":"survey-html-form","trial_index":165,"time_elapsed":1242629,"internal_node_id":"0.0-149.0-0.0","params":{"nStudents":24,"maxFlips":25,"completionMinutes":45,"basePay":8,"maxBonus":9,"perTrialBonus":0.5,"perTrialBonusThreshold":0.05,"exampleCost":0.02},"classroomParams":{"A":{"a":1,"b":4},"B":{"a":4,"b":1},"C":{"a":2,"b":8},"D":{"a":8,"b":2}},"conditions":["nonSeqFull","nonSeqPartial","seqNoFeedback","seqFeedback"],"classroomPairings":[["A","B"],["C","D"]],"coinWeights":[0.2,0.5,0.8],"subjectId":"A3FKXJVH0K2E3E","assignmentId":"33NF62TLXKOKTNP1OGO6QHJF14QJKP","hitId":"3QGHA0EA0JM3KKNCY0PQRLYAHLBWBE","url":"https://gershmanlab.com/experiments/alicia/teaching/experiment/?hitId=3QGHA0EA0JM3KKNCY0PQRLYAHLBWBE&workerId=A3FKXJVH0K2E3E&assignmentId=33NF62TLXKOKTNP1OGO6QHJF14QJKP&a=L6N33&tp_a=L6N33&b=33NF62TLXKOKTNP1OGO6QHJF14QJKP&tp_b=33NF62TLXKOKTNP1OGO6QHJF14QJKP&c=365633&tp_c=365633","heads":5,"tails":5,"studentIndex":18,"studentTrueHypers":{"a":8,"b":2},"studentGuess":0.65,"delta":0.15000000000000002,"totalExamples":10,"bonusSoFar":0.18},{"rt":4172,"response":{"heads":"4","tails":"4"},"type":"response","condition":"seqFeedback","trueTheta":0.5,"classrooms":["C","D"],"studentTrueClassroom":"D","exampleSet":"second","trial_type":"survey-html-form","trial_index":169,"time_elapsed":1256701,"internal_node_id":"0.0-153.0-0.0","params":{"nStudents":24,"maxFlips":25,"completionMinutes":45,"basePay":8,"maxBonus":9,"perTrialBonus":0.5,"perTrialBonusThreshold":0.05,"exampleCost":0.02},"classroomParams":{"A":{"a":1,"b":4},"B":{"a":4,"b":1},"C":{"a":2,"b":8},"D":{"a":8,"b":2}},"conditions":["nonSeqFull","nonSeqPartial","seqNoFeedback","seqFeedback"],"classroomPairings":[["A","B"],["C","D"]],"coinWeights":[0.2,0.5,0.8],"subjectId":"A3FKXJVH0K2E3E","assignmentId":"33NF62TLXKOKTNP1OGO6QHJF14QJKP","hitId":"3QGHA0EA0JM3KKNCY0PQRLYAHLBWBE","url":"https://gershmanlab.com/experiments/alicia/teaching/experiment/?hitId=3QGHA0EA0JM3KKNCY0PQRLYAHLBWBE&workerId=A3FKXJVH0K2E3E&assignmentId=33NF62TLXKOKTNP1OGO6QHJF14QJKP&a=L6N33&tp_a=L6N33&b=33NF62TLXKOKTNP1OGO6QHJF14QJKP&tp_b=33NF62TLXKOKTNP1OGO6QHJF14QJKP&c=365633&tp_c=365633","firstResponseHeads":5,"firstResponseTails":5,"secondResponseHeads":4,"secondResponseTails":4,"totalHeads":9,"totalTails":9,"studentIndex":18,"studentTrueHypers":{"a":8,"b":2},"studentGuess":0.6071428571428571,"delta":0.1071428571428571,"bonus":0,"bonusSoFar":0.18,"totalExamples":18},{"rt":9027,"response":{"heads":"2","tails":"8"},"type":"response","condition":"nonSeqFull","trueTheta":0.5,"classrooms":["C","D"],"studentTrueClassroom":"C","exampleSet":"first","trial_type":"survey-html-form","trial_index":175,"time_elapsed":1280130,"internal_node_id":"0.0-159.0-0.0","params":{"nStudents":24,"maxFlips":25,"completionMinutes":45,"basePay":8,"maxBonus":9,"perTrialBonus":0.5,"perTrialBonusThreshold":0.05,"exampleCost":0.02},"classroomParams":{"A":{"a":1,"b":4},"B":{"a":4,"b":1},"C":{"a":2,"b":8},"D":{"a":8,"b":2}},"conditions":["nonSeqFull","nonSeqPartial","seqNoFeedback","seqFeedback"],"classroomPairings":[["A","B"],["C","D"]],"coinWeights":[0.2,0.5,0.8],"subjectId":"A3FKXJVH0K2E3E","assignmentId":"33NF62TLXKOKTNP1OGO6QHJF14QJKP","hitId":"3QGHA0EA0JM3KKNCY0PQRLYAHLBWBE","url":"https://gershmanlab.com/experiments/alicia/teaching/experiment/?hitId=3QGHA0EA0JM3KKNCY0PQRLYAHLBWBE&workerId=A3FKXJVH0K2E3E&assignmentId=33NF62TLXKOKTNP1OGO6QHJF14QJKP&a=L6N33&tp_a=L6N33&b=33NF62TLXKOKTNP1OGO6QHJF14QJKP&tp_b=33NF62TLXKOKTNP1OGO6QHJF14QJKP&c=365633&tp_c=365633","heads":2,"tails":8,"studentIndex":19,"studentTrueHypers":{"a":2,"b":8},"studentGuess":0.2,"delta":0.3,"totalExamples":10,"bonus":0,"bonusSoFar":0.18},{"rt":4599,"response":{"heads":"8","tails":"2"},"type":"response","condition":"seqNoFeedback","trueTheta":0.8,"classrooms":["C","D"],"studentTrueClassroom":"C","exampleSet":"first","trial_type":"survey-html-form","trial_index":181,"time_elapsed":1299754,"internal_node_id":"0.0-165.0-0.0","params":{"nStudents":24,"maxFlips":25,"completionMinutes":45,"basePay":8,"maxBonus":9,"perTrialBonus":0.5,"perTrialBonusThreshold":0.05,"exampleCost":0.02},"classroomParams":{"A":{"a":1,"b":4},"B":{"a":4,"b":1},"C":{"a":2,"b":8},"D":{"a":8,"b":2}},"conditions":["nonSeqFull","nonSeqPartial","seqNoFeedback","seqFeedback"],"classroomPairings":[["A","B"],["C","D"]],"coinWeights":[0.2,0.5,0.8],"subjectId":"A3FKXJVH0K2E3E","assignmentId":"33NF62TLXKOKTNP1OGO6QHJF14QJKP","hitId":"3QGHA0EA0JM3KKNCY0PQRLYAHLBWBE","url":"https://gershmanlab.com/experiments/alicia/teaching/experiment/?hitId=3QGHA0EA0JM3KKNCY0PQRLYAHLBWBE&workerId=A3FKXJVH0K2E3E&assignmentId=33NF62TLXKOKTNP1OGO6QHJF14QJKP&a=L6N33&tp_a=L6N33&b=33NF62TLXKOKTNP1OGO6QHJF14QJKP&tp_b=33NF62TLXKOKTNP1OGO6QHJF14QJKP&c=365633&tp_c=365633","heads":8,"tails":2,"studentIndex":20,"studentTrueHypers":{"a":2,"b":8},"studentGuess":0.5,"delta":0.30000000000000004,"totalExamples":10,"bonusSoFar":0.18},{"rt":7627,"response":{"heads":"8","tails":"2"},"type":"response","condition":"seqNoFeedback","trueTheta":0.8,"classrooms":["C","D"],"studentTrueClassroom":"C","exampleSet":"second","trial_type":"survey-html-form","trial_index":184,"time_elapsed":1314155,"internal_node_id":"0.0-168.0-0.0","params":{"nStudents":24,"maxFlips":25,"completionMinutes":45,"basePay":8,"maxBonus":9,"perTrialBonus":0.5,"perTrialBonusThreshold":0.05,"exampleCost":0.02},"classroomParams":{"A":{"a":1,"b":4},"B":{"a":4,"b":1},"C":{"a":2,"b":8},"D":{"a":8,"b":2}},"conditions":["nonSeqFull","nonSeqPartial","seqNoFeedback","seqFeedback"],"classroomPairings":[["A","B"],["C","D"]],"coinWeights":[0.2,0.5,0.8],"subjectId":"A3FKXJVH0K2E3E","assignmentId":"33NF62TLXKOKTNP1OGO6QHJF14QJKP","hitId":"3QGHA0EA0JM3KKNCY0PQRLYAHLBWBE","url":"https://gershmanlab.com/experiments/alicia/teaching/experiment/?hitId=3QGHA0EA0JM3KKNCY0PQRLYAHLBWBE&workerId=A3FKXJVH0K2E3E&assignmentId=33NF62TLXKOKTNP1OGO6QHJF14QJKP&a=L6N33&tp_a=L6N33&b=33NF62TLXKOKTNP1OGO6QHJF14QJKP&tp_b=33NF62TLXKOKTNP1OGO6QHJF14QJKP&c=365633&tp_c=365633","firstResponseHeads":8,"firstResponseTails":2,"secondResponseHeads":8,"secondResponseTails":2,"totalHeads":16,"totalTails":4,"studentIndex":20,"studentTrueHypers":{"a":2,"b":8},"studentGuess":0.6,"delta":0.20000000000000007,"bonus":0,"bonusSoFar":0.18,"totalExamples":20},{"rt":9669,"response":{"heads":"7","tails":"3"},"type":"response","condition":"nonSeqFull","trueTheta":0.2,"classrooms":["A","B"],"studentTrueClassroom":"B","exampleSet":"first","trial_type":"survey-html-form","trial_index":190,"time_elapsed":1336826,"internal_node_id":"0.0-174.0-0.0","params":{"nStudents":24,"maxFlips":25,"completionMinutes":45,"basePay":8,"maxBonus":9,"perTrialBonus":0.5,"perTrialBonusThreshold":0.05,"exampleCost":0.02},"classroomParams":{"A":{"a":1,"b":4},"B":{"a":4,"b":1},"C":{"a":2,"b":8},"D":{"a":8,"b":2}},"conditions":["nonSeqFull","nonSeqPartial","seqNoFeedback","seqFeedback"],"classroomPairings":[["A","B"],["C","D"]],"coinWeights":[0.2,0.5,0.8],"subjectId":"A3FKXJVH0K2E3E","assignmentId":"33NF62TLXKOKTNP1OGO6QHJF14QJKP","hitId":"3QGHA0EA0JM3KKNCY0PQRLYAHLBWBE","url":"https://gershmanlab.com/experiments/alicia/teaching/experiment/?hitId=3QGHA0EA0JM3KKNCY0PQRLYAHLBWBE&workerId=A3FKXJVH0K2E3E&assignmentId=33NF62TLXKOKTNP1OGO6QHJF14QJKP&a=L6N33&tp_a=L6N33&b=33NF62TLXKOKTNP1OGO6QHJF14QJKP&tp_b=33NF62TLXKOKTNP1OGO6QHJF14QJKP&c=365633&tp_c=365633","heads":7,"tails":3,"studentIndex":21,"studentTrueHypers":{"a":4,"b":1},"studentGuess":0.7333333333333333,"delta":0.5333333333333332,"totalExamples":10,"bonus":0,"bonusSoFar":0.18},{"rt":8097,"response":{"heads":"10","tails":"2"},"type":"response","condition":"nonSeqFull","trueTheta":0.8,"classrooms":["C","D"],"studentTrueClassroom":"C","exampleSet":"first","trial_type":"survey-html-form","trial_index":196,"time_elapsed":1357892,"internal_node_id":"0.0-180.0-0.0","params":{"nStudents":24,"maxFlips":25,"completionMinutes":45,"basePay":8,"maxBonus":9,"perTrialBonus":0.5,"perTrialBonusThreshold":0.05,"exampleCost":0.02},"classroomParams":{"A":{"a":1,"b":4},"B":{"a":4,"b":1},"C":{"a":2,"b":8},"D":{"a":8,"b":2}},"conditions":["nonSeqFull","nonSeqPartial","seqNoFeedback","seqFeedback"],"classroomPairings":[["A","B"],["C","D"]],"coinWeights":[0.2,0.5,0.8],"subjectId":"A3FKXJVH0K2E3E","assignmentId":"33NF62TLXKOKTNP1OGO6QHJF14QJKP","hitId":"3QGHA0EA0JM3KKNCY0PQRLYAHLBWBE","url":"https://gershmanlab.com/experiments/alicia/teaching/experiment/?hitId=3QGHA0EA0JM3KKNCY0PQRLYAHLBWBE&workerId=A3FKXJVH0K2E3E&assignmentId=33NF62TLXKOKTNP1OGO6QHJF14QJKP&a=L6N33&tp_a=L6N33&b=33NF62TLXKOKTNP1OGO6QHJF14QJKP&tp_b=33NF62TLXKOKTNP1OGO6QHJF14QJKP&c=365633&tp_c=365633","heads":10,"tails":2,"studentIndex":22,"studentTrueHypers":{"a":2,"b":8},"studentGuess":0.5454545454545454,"delta":0.25454545454545463,"totalExamples":12,"bonus":0,"bonusSoFar":0.18},{"rt":8942,"response":{"heads":"2","tails":"2"},"type":"response","condition":"nonSeqPartial","trueTheta":0.5,"classrooms":["A","B"],"studentTrueClassroom":"B","exampleSet":"first","trial_type":"survey-html-form","trial_index":202,"time_elapsed":1378704,"internal_node_id":"0.0-186.0-0.0","params":{"nStudents":24,"maxFlips":25,"completionMinutes":45,"basePay":8,"maxBonus":9,"perTrialBonus":0.5,"perTrialBonusThreshold":0.05,"exampleCost":0.02},"classroomParams":{"A":{"a":1,"b":4},"B":{"a":4,"b":1},"C":{"a":2,"b":8},"D":{"a":8,"b":2}},"conditions":["nonSeqFull","nonSeqPartial","seqNoFeedback","seqFeedback"],"classroomPairings":[["A","B"],["C","D"]],"coinWeights":[0.2,0.5,0.8],"subjectId":"A3FKXJVH0K2E3E","assignmentId":"33NF62TLXKOKTNP1OGO6QHJF14QJKP","hitId":"3QGHA0EA0JM3KKNCY0PQRLYAHLBWBE","url":"https://gershmanlab.com/experiments/alicia/teaching/experiment/?hitId=3QGHA0EA0JM3KKNCY0PQRLYAHLBWBE&workerId=A3FKXJVH0K2E3E&assignmentId=33NF62TLXKOKTNP1OGO6QHJF14QJKP&a=L6N33&tp_a=L6N33&b=33NF62TLXKOKTNP1OGO6QHJF14QJKP&tp_b=33NF62TLXKOKTNP1OGO6QHJF14QJKP&c=365633&tp_c=365633","heads":2,"tails":2,"studentIndex":23,"studentTrueHypers":{"a":4,"b":1},"studentGuess":0.6666666666666666,"delta":0.16666666666666663,"totalExamples":4,"bonus":0,"bonusSoFar":0.18},{"rt":15518,"response":{"gender":"male","age":"58","understood":"yes","comments":"Very hard to determine"},"type":"response","trial_type":"survey-html-form","trial_index":206,"time_elapsed":1402031,"internal_node_id":"0.0-191.0","params":{"nStudents":24,"maxFlips":25,"completionMinutes":45,"basePay":8,"maxBonus":9,"perTrialBonus":0.5,"perTrialBonusThreshold":0.05,"exampleCost":0.02},"classroomParams":{"A":{"a":1,"b":4},"B":{"a":4,"b":1},"C":{"a":2,"b":8},"D":{"a":8,"b":2}},"conditions":["nonSeqFull","nonSeqPartial","seqNoFeedback","seqFeedback"],"classroomPairings":[["A","B"],["C","D"]],"coinWeights":[0.2,0.5,0.8],"subjectId":"A3FKXJVH0K2E3E","assignmentId":"33NF62TLXKOKTNP1OGO6QHJF14QJKP","hitId":"3QGHA0EA0JM3KKNCY0PQRLYAHLBWBE","url":"https://gershmanlab.com/experiments/alicia/teaching/experiment/?hitId=3QGHA0EA0JM3KKNCY0PQRLYAHLBWBE&workerId=A3FKXJVH0K2E3E&assignmentId=33NF62TLXKOKTNP1OGO6QHJF14QJKP&a=L6N33&tp_a=L6N33&b=33NF62TLXKOKTNP1OGO6QHJF14QJKP&tp_b=33NF62TLXKOKTNP1OGO6QHJF14QJKP&c=365633&tp_c=365633","totalBonus":0.18}]