[{"rt":40170,"response":{"heads":"4","tails":"1"},"type":"response","condition":"seqFeedback","trueTheta":0.8,"classrooms":["A","B"],"studentTrueClassroom":"B","exampleSet":"first","trial_type":"survey-html-form","trial_index":7,"time_elapsed":397141,"internal_node_id":"0.0-6.0-0.0","params":{"nStudents":24,"maxFlips":25,"completionMinutes":45,"basePay":8,"maxBonus":9,"perTrialBonus":0.5,"perTrialBonusThreshold":0.05,"exampleCost":0.02},"classroomParams":{"A":{"a":1,"b":4},"B":{"a":4,"b":1},"C":{"a":2,"b":8},"D":{"a":8,"b":2}},"conditions":["nonSeqFull","nonSeqPartial","seqNoFeedback","seqFeedback"],"classroomPairings":[["A","B"],["C","D"]],"coinWeights":[0.2,0.5,0.8],"subjectId":"A3L0DCUXI7X3A9","assignmentId":"3GD6L00D3TJ8OU90J3VG1UFXWSLM1T","hitId":"3XUY87HIVP03YZXVLN9CW37DVI1MM2","url":"https://gershmanlab.com/experiments/alicia/teaching/experiment/?hitId=3XUY87HIVP03YZXVLN9CW37DVI1MM2&workerId=A3L0DCUXI7X3A9&assignmentId=3GD6L00D3TJ8OU90J3VG1UFXWSLM1T&a=DLDG3&tp_a=DLDG3&b=3GD6L00D3TJ8OU90J3VG1UFXWSLM1T&tp_b=3GD6L00D3TJ8OU90J3VG1UFXWSLM1T&c=365633&tp_c=365633","heads":4,"tails":1,"studentIndex":0,"studentTrueHypers":{"a":4,"b":1},"studentGuess":0.8,"delta":0,"totalExamples":5,"bonusSoFar":0},{"rt":13624,"response":{"heads":"4","tails":"1"},"type":"response","condition":"seqFeedback","trueTheta":0.8,"classrooms":["A","B"],"studentTrueClassroom":"B","exampleSet":"second","trial_type":"survey-html-form","trial_index":11,"time_elapsed":424249,"internal_node_id":"0.0-10.0-0.0","params":{"nStudents":24,"maxFlips":25,"completionMinutes":45,"basePay":8,"maxBonus":9,"perTrialBonus":0.5,"perTrialBonusThreshold":0.05,"exampleCost":0.02},"classroomParams":{"A":{"a":1,"b":4},"B":{"a":4,"b":1},"C":{"a":2,"b":8},"D":{"a":8,"b":2}},"conditions":["nonSeqFull","nonSeqPartial","seqNoFeedback","seqFeedback"],"classroomPairings":[["A","B"],["C","D"]],"coinWeights":[0.2,0.5,0.8],"subjectId":"A3L0DCUXI7X3A9","assignmentId":"3GD6L00D3TJ8OU90J3VG1UFXWSLM1T","hitId":"3XUY87HIVP03YZXVLN9CW37DVI1MM2","url":"https://gershmanlab.com/experiments/alicia/teaching/experiment/?hitId=3XUY87HIVP03YZXVLN9CW37DVI1MM2&workerId=A3L0DCUXI7X3A9&assignmentId=3GD6L00D3TJ8OU90J3VG1UFXWSLM1T&a=DLDG3&tp_a=DLDG3&b=3GD6L00D3TJ8OU90J3VG1UFXWSLM1T&tp_b=3GD6L00D3TJ8OU90J3VG1UFXWSLM1T&c=365633&tp_c=365633","firstResponseHeads":4,"firstResponseTails":1,"secondResponseHeads":4,"secondResponseTails":1,"totalHeads":8,"totalTails":2,"studentIndex":0,"studentTrueHypers":{"a":4,"b":1},"studentGuess":0.8,"delta":0,"bonus":0.3,"bonusSoFar":0.3,"totalExamples":10},{"rt":9511,"response":{"heads":"2","tails":"2"},"type":"response","condition":"nonSeqPartial","trueTheta":0.5,"classrooms":["A","B"],"studentTrueClassroom":"B","exampleSet":"first","trial_type":"survey-html-form","trial_index":17,"time_elapsed":453540,"internal_node_id":"0.0-16.0-0.0","params":{"nStudents":24,"maxFlips":25,"completionMinutes":45,"basePay":8,"maxBonus":9,"perTrialBonus":0.5,"perTrialBonusThreshold":0.05,"exampleCost":0.02},"classroomParams":{"A":{"a":1,"b":4},"B":{"a":4,"b":1},"C":{"a":2,"b":8},"D":{"a":8,"b":2}},"conditions":["nonSeqFull","nonSeqPartial","seqNoFeedback","seqFeedback"],"classroomPairings":[["A","B"],["C","D"]],"coinWeights":[0.2,0.5,0.8],"subjectId":"A3L0DCUXI7X3A9","assignmentId":"3GD6L00D3TJ8OU90J3VG1UFXWSLM1T","hitId":"3XUY87HIVP03YZXVLN9CW37DVI1MM2","url":"https://gershmanlab.com/experiments/alicia/teaching/experiment/?hitId=3XUY87HIVP03YZXVLN9CW37DVI1MM2&workerId=A3L0DCUXI7X3A9&assignmentId=3GD6L00D3TJ8OU90J3VG1UFXWSLM1T&a=DLDG3&tp_a=DLDG3&b=3GD6L00D3TJ8OU90J3VG1UFXWSLM1T&tp_b=3GD6L00D3TJ8OU90J3VG1UFXWSLM1T&c=365633&tp_c=365633","heads":2,"tails":2,"studentIndex":1,"studentTrueHypers":{"a":4,"b":1},"studentGuess":0.6666666666666666,"delta":0.16666666666666663,"totalExamples":4,"bonus":0,"bonusSoFar":0.3},{"rt":8948,"response":{"heads":"3","tails":"3"},"type":"response","condition":"seqNoFeedback","trueTheta":0.5,"classrooms":["C","D"],"studentTrueClassroom":"D","exampleSet":"first","trial_type":"survey-html-form","trial_index":23,"time_elapsed":479594,"internal_node_id":"0.0-22.0-0.0","params":{"nStudents":24,"maxFlips":25,"completionMinutes":45,"basePay":8,"maxBonus":9,"perTrialBonus":0.5,"perTrialBonusThreshold":0.05,"exampleCost":0.02},"classroomParams":{"A":{"a":1,"b":4},"B":{"a":4,"b":1},"C":{"a":2,"b":8},"D":{"a":8,"b":2}},"conditions":["nonSeqFull","nonSeqPartial","seqNoFeedback","seqFeedback"],"classroomPairings":[["A","B"],["C","D"]],"coinWeights":[0.2,0.5,0.8],"subjectId":"A3L0DCUXI7X3A9","assignmentId":"3GD6L00D3TJ8OU90J3VG1UFXWSLM1T","hitId":"3XUY87HIVP03YZXVLN9CW37DVI1MM2","url":"https://gershmanlab.com/experiments/alicia/teaching/experiment/?hitId=3XUY87HIVP03YZXVLN9CW37DVI1MM2&workerId=A3L0DCUXI7X3A9&assignmentId=3GD6L00D3TJ8OU90J3VG1UFXWSLM1T&a=DLDG3&tp_a=DLDG3&b=3GD6L00D3TJ8OU90J3VG1UFXWSLM1T&tp_b=3GD6L00D3TJ8OU90J3VG1UFXWSLM1T&c=365633&tp_c=365633","heads":3,"tails":3,"studentIndex":2,"studentTrueHypers":{"a":8,"b":2},"studentGuess":0.6875,"delta":0.1875,"totalExamples":6,"bonusSoFar":0.3},{"rt":11886,"response":{"heads":"3","tails":"3"},"type":"response","condition":"seqNoFeedback","trueTheta":0.5,"classrooms":["C","D"],"studentTrueClassroom":"D","exampleSet":"second","trial_type":"survey-html-form","trial_index":26,"time_elapsed":499245,"internal_node_id":"0.0-25.0-0.0","params":{"nStudents":24,"maxFlips":25,"completionMinutes":45,"basePay":8,"maxBonus":9,"perTrialBonus":0.5,"perTrialBonusThreshold":0.05,"exampleCost":0.02},"classroomParams":{"A":{"a":1,"b":4},"B":{"a":4,"b":1},"C":{"a":2,"b":8},"D":{"a":8,"b":2}},"conditions":["nonSeqFull","nonSeqPartial","seqNoFeedback","seqFeedback"],"classroomPairings":[["A","B"],["C","D"]],"coinWeights":[0.2,0.5,0.8],"subjectId":"A3L0DCUXI7X3A9","assignmentId":"3GD6L00D3TJ8OU90J3VG1UFXWSLM1T","hitId":"3XUY87HIVP03YZXVLN9CW37DVI1MM2","url":"https://gershmanlab.com/experiments/alicia/teaching/experiment/?hitId=3XUY87HIVP03YZXVLN9CW37DVI1MM2&workerId=A3L0DCUXI7X3A9&assignmentId=3GD6L00D3TJ8OU90J3VG1UFXWSLM1T&a=DLDG3&tp_a=DLDG3&b=3GD6L00D3TJ8OU90J3VG1UFXWSLM1T&tp_b=3GD6L00D3TJ8OU90J3VG1UFXWSLM1T&c=365633&tp_c=365633","firstResponseHeads":3,"firstResponseTails":3,"secondResponseHeads":3,"secondResponseTails":3,"totalHeads":6,"totalTails":6,"studentIndex":2,"studentTrueHypers":{"a":8,"b":2},"studentGuess":0.6363636363636364,"delta":0.13636363636363635,"bonus":0,"bonusSoFar":0.3,"totalExamples":12},{"rt":9331,"response":{"heads":"5","tails":"5"},"type":"response","condition":"nonSeqFull","trueTheta":0.5,"classrooms":["C","D"],"studentTrueClassroom":"D","exampleSet":"first","trial_type":"survey-html-form","trial_index":32,"time_elapsed":524790,"internal_node_id":"0.0-31.0-0.0","params":{"nStudents":24,"maxFlips":25,"completionMinutes":45,"basePay":8,"maxBonus":9,"perTrialBonus":0.5,"perTrialBonusThreshold":0.05,"exampleCost":0.02},"classroomParams":{"A":{"a":1,"b":4},"B":{"a":4,"b":1},"C":{"a":2,"b":8},"D":{"a":8,"b":2}},"conditions":["nonSeqFull","nonSeqPartial","seqNoFeedback","seqFeedback"],"classroomPairings":[["A","B"],["C","D"]],"coinWeights":[0.2,0.5,0.8],"subjectId":"A3L0DCUXI7X3A9","assignmentId":"3GD6L00D3TJ8OU90J3VG1UFXWSLM1T","hitId":"3XUY87HIVP03YZXVLN9CW37DVI1MM2","url":"https://gershmanlab.com/experiments/alicia/teaching/experiment/?hitId=3XUY87HIVP03YZXVLN9CW37DVI1MM2&workerId=A3L0DCUXI7X3A9&assignmentId=3GD6L00D3TJ8OU90J3VG1UFXWSLM1T&a=DLDG3&tp_a=DLDG3&b=3GD6L00D3TJ8OU90J3VG1UFXWSLM1T&tp_b=3GD6L00D3TJ8OU90J3VG1UFXWSLM1T&c=365633&tp_c=365633","heads":5,"tails":5,"studentIndex":3,"studentTrueHypers":{"a":8,"b":2},"studentGuess":0.65,"delta":0.15000000000000002,"totalExamples":10,"bonus":0,"bonusSoFar":0.3},{"rt":7214,"response":{"heads":"1","tails":"4"},"type":"response","condition":"nonSeqFull","trueTheta":0.2,"classrooms":["A","B"],"studentTrueClassroom":"B","exampleSet":"first","trial_type":"survey-html-form","trial_index":38,"time_elapsed":546894,"internal_node_id":"0.0-37.0-0.0","params":{"nStudents":24,"maxFlips":25,"completionMinutes":45,"basePay":8,"maxBonus":9,"perTrialBonus":0.5,"perTrialBonusThreshold":0.05,"exampleCost":0.02},"classroomParams":{"A":{"a":1,"b":4},"B":{"a":4,"b":1},"C":{"a":2,"b":8},"D":{"a":8,"b":2}},"conditions":["nonSeqFull","nonSeqPartial","seqNoFeedback","seqFeedback"],"classroomPairings":[["A","B"],["C","D"]],"coinWeights":[0.2,0.5,0.8],"subjectId":"A3L0DCUXI7X3A9","assignmentId":"3GD6L00D3TJ8OU90J3VG1UFXWSLM1T","hitId":"3XUY87HIVP03YZXVLN9CW37DVI1MM2","url":"https://gershmanlab.com/experiments/alicia/teaching/experiment/?hitId=3XUY87HIVP03YZXVLN9CW37DVI1MM2&workerId=A3L0DCUXI7X3A9&assignmentId=3GD6L00D3TJ8OU90J3VG1UFXWSLM1T&a=DLDG3&tp_a=DLDG3&b=3GD6L00D3TJ8OU90J3VG1UFXWSLM1T&tp_b=3GD6L00D3TJ8OU90J3VG1UFXWSLM1T&c=365633&tp_c=365633","heads":1,"tails":4,"studentIndex":4,"studentTrueHypers":{"a":4,"b":1},"studentGuess":0.5,"delta":0.3,"totalExamples":5,"bonus":0,"bonusSoFar":0.3},{"rt":4748,"response":{"heads":"4","tails":"1"},"type":"response","condition":"seqNoFeedback","trueTheta":0.8,"classrooms":["C","D"],"studentTrueClassroom":"D","exampleSet":"first","trial_type":"survey-html-form","trial_index":44,"time_elapsed":566338,"internal_node_id":"0.0-43.0-0.0","params":{"nStudents":24,"maxFlips":25,"completionMinutes":45,"basePay":8,"maxBonus":9,"perTrialBonus":0.5,"perTrialBonusThreshold":0.05,"exampleCost":0.02},"classroomParams":{"A":{"a":1,"b":4},"B":{"a":4,"b":1},"C":{"a":2,"b":8},"D":{"a":8,"b":2}},"conditions":["nonSeqFull","nonSeqPartial","seqNoFeedback","seqFeedback"],"classroomPairings":[["A","B"],["C","D"]],"coinWeights":[0.2,0.5,0.8],"subjectId":"A3L0DCUXI7X3A9","assignmentId":"3GD6L00D3TJ8OU90J3VG1UFXWSLM1T","hitId":"3XUY87HIVP03YZXVLN9CW37DVI1MM2","url":"https://gershmanlab.com/experiments/alicia/teaching/experiment/?hitId=3XUY87HIVP03YZXVLN9CW37DVI1MM2&workerId=A3L0DCUXI7X3A9&assignmentId=3GD6L00D3TJ8OU90J3VG1UFXWSLM1T&a=DLDG3&tp_a=DLDG3&b=3GD6L00D3TJ8OU90J3VG1UFXWSLM1T&tp_b=3GD6L00D3TJ8OU90J3VG1UFXWSLM1T&c=365633&tp_c=365633","heads":4,"tails":1,"studentIndex":5,"studentTrueHypers":{"a":8,"b":2},"studentGuess":0.8,"delta":0,"totalExamples":5,"bonusSoFar":0.3},{"rt":13253,"response":{"heads":"8","tails":"2"},"type":"response","condition":"seqNoFeedback","trueTheta":0.8,"classrooms":["C","D"],"studentTrueClassroom":"D","exampleSet":"second","trial_type":"survey-html-form","trial_index":47,"time_elapsed":584846,"internal_node_id":"0.0-46.0-0.0","params":{"nStudents":24,"maxFlips":25,"completionMinutes":45,"basePay":8,"maxBonus":9,"perTrialBonus":0.5,"perTrialBonusThreshold":0.05,"exampleCost":0.02},"classroomParams":{"A":{"a":1,"b":4},"B":{"a":4,"b":1},"C":{"a":2,"b":8},"D":{"a":8,"b":2}},"conditions":["nonSeqFull","nonSeqPartial","seqNoFeedback","seqFeedback"],"classroomPairings":[["A","B"],["C","D"]],"coinWeights":[0.2,0.5,0.8],"subjectId":"A3L0DCUXI7X3A9","assignmentId":"3GD6L00D3TJ8OU90J3VG1UFXWSLM1T","hitId":"3XUY87HIVP03YZXVLN9CW37DVI1MM2","url":"https://gershmanlab.com/experiments/alicia/teaching/experiment/?hitId=3XUY87HIVP03YZXVLN9CW37DVI1MM2&workerId=A3L0DCUXI7X3A9&assignmentId=3GD6L00D3TJ8OU90J3VG1UFXWSLM1T&a=DLDG3&tp_a=DLDG3&b=3GD6L00D3TJ8OU90J3VG1UFXWSLM1T&tp_b=3GD6L00D3TJ8OU90J3VG1UFXWSLM1T&c=365633&tp_c=365633","firstResponseHeads":4,"firstResponseTails":1,"secondResponseHeads":8,"secondResponseTails":2,"totalHeads":12,"totalTails":3,"studentIndex":5,"studentTrueHypers":{"a":8,"b":2},"studentGuess":0.8,"delta":0,"bonus":0.2,"bonusSoFar":0.5,"totalExamples":15},{"rt":14760,"response":{"heads":"1","tails":"4"},"type":"response","condition":"nonSeqFull","trueTheta":0.2,"classrooms":["C","D"],"studentTrueClassroom":"C","exampleSet":"first","trial_type":"survey-html-form","trial_index":53,"time_elapsed":616758,"internal_node_id":"0.0-52.0-0.0","params":{"nStudents":24,"maxFlips":25,"completionMinutes":45,"basePay":8,"maxBonus":9,"perTrialBonus":0.5,"perTrialBonusThreshold":0.05,"exampleCost":0.02},"classroomParams":{"A":{"a":1,"b":4},"B":{"a":4,"b":1},"C":{"a":2,"b":8},"D":{"a":8,"b":2}},"conditions":["nonSeqFull","nonSeqPartial","seqNoFeedback","seqFeedback"],"classroomPairings":[["A","B"],["C","D"]],"coinWeights":[0.2,0.5,0.8],"subjectId":"A3L0DCUXI7X3A9","assignmentId":"3GD6L00D3TJ8OU90J3VG1UFXWSLM1T","hitId":"3XUY87HIVP03YZXVLN9CW37DVI1MM2","url":"https://gershmanlab.com/experiments/alicia/teaching/experiment/?hitId=3XUY87HIVP03YZXVLN9CW37DVI1MM2&workerId=A3L0DCUXI7X3A9&assignmentId=3GD6L00D3TJ8OU90J3VG1UFXWSLM1T&a=DLDG3&tp_a=DLDG3&b=3GD6L00D3TJ8OU90J3VG1UFXWSLM1T&tp_b=3GD6L00D3TJ8OU90J3VG1UFXWSLM1T&c=365633&tp_c=365633","heads":1,"tails":4,"studentIndex":6,"studentTrueHypers":{"a":2,"b":8},"studentGuess":0.2,"delta":0,"totalExamples":5,"bonus":0.4,"bonusSoFar":0.9},{"rt":9693,"response":{"heads":"5","tails":"5"},"type":"response","condition":"seqNoFeedback","trueTheta":0.5,"classrooms":["A","B"],"studentTrueClassroom":"B","exampleSet":"first","trial_type":"survey-html-form","trial_index":59,"time_elapsed":639748,"internal_node_id":"0.0-58.0-0.0","params":{"nStudents":24,"maxFlips":25,"completionMinutes":45,"basePay":8,"maxBonus":9,"perTrialBonus":0.5,"perTrialBonusThreshold":0.05,"exampleCost":0.02},"classroomParams":{"A":{"a":1,"b":4},"B":{"a":4,"b":1},"C":{"a":2,"b":8},"D":{"a":8,"b":2}},"conditions":["nonSeqFull","nonSeqPartial","seqNoFeedback","seqFeedback"],"classroomPairings":[["A","B"],["C","D"]],"coinWeights":[0.2,0.5,0.8],"subjectId":"A3L0DCUXI7X3A9","assignmentId":"3GD6L00D3TJ8OU90J3VG1UFXWSLM1T","hitId":"3XUY87HIVP03YZXVLN9CW37DVI1MM2","url":"https://gershmanlab.com/experiments/alicia/teaching/experiment/?hitId=3XUY87HIVP03YZXVLN9CW37DVI1MM2&workerId=A3L0DCUXI7X3A9&assignmentId=3GD6L00D3TJ8OU90J3VG1UFXWSLM1T&a=DLDG3&tp_a=DLDG3&b=3GD6L00D3TJ8OU90J3VG1UFXWSLM1T&tp_b=3GD6L00D3TJ8OU90J3VG1UFXWSLM1T&c=365633&tp_c=365633","heads":5,"tails":5,"studentIndex":7,"studentTrueHypers":{"a":4,"b":1},"studentGuess":0.6,"delta":0.09999999999999998,"totalExamples":10,"bonusSoFar":0.9},{"rt":6808,"response":{"heads":"5","tails":"5"},"type":"response","condition":"seqNoFeedback","trueTheta":0.5,"classrooms":["A","B"],"studentTrueClassroom":"B","exampleSet":"second","trial_type":"survey-html-form","trial_index":62,"time_elapsed":653574,"internal_node_id":"0.0-61.0-0.0","params":{"nStudents":24,"maxFlips":25,"completionMinutes":45,"basePay":8,"maxBonus":9,"perTrialBonus":0.5,"perTrialBonusThreshold":0.05,"exampleCost":0.02},"classroomParams":{"A":{"a":1,"b":4},"B":{"a":4,"b":1},"C":{"a":2,"b":8},"D":{"a":8,"b":2}},"conditions":["nonSeqFull","nonSeqPartial","seqNoFeedback","seqFeedback"],"classroomPairings":[["A","B"],["C","D"]],"coinWeights":[0.2,0.5,0.8],"subjectId":"A3L0DCUXI7X3A9","assignmentId":"3GD6L00D3TJ8OU90J3VG1UFXWSLM1T","hitId":"3XUY87HIVP03YZXVLN9CW37DVI1MM2","url":"https://gershmanlab.com/experiments/alicia/teaching/experiment/?hitId=3XUY87HIVP03YZXVLN9CW37DVI1MM2&workerId=A3L0DCUXI7X3A9&assignmentId=3GD6L00D3TJ8OU90J3VG1UFXWSLM1T&a=DLDG3&tp_a=DLDG3&b=3GD6L00D3TJ8OU90J3VG1UFXWSLM1T&tp_b=3GD6L00D3TJ8OU90J3VG1UFXWSLM1T&c=365633&tp_c=365633","firstResponseHeads":5,"firstResponseTails":5,"secondResponseHeads":5,"secondResponseTails":5,"totalHeads":10,"totalTails":10,"studentIndex":7,"studentTrueHypers":{"a":4,"b":1},"studentGuess":0.56,"delta":0.06000000000000005,"bonus":0,"bonusSoFar":0.9,"totalExamples":20},{"rt":6528,"response":{"heads":"4","tails":"4"},"type":"response","condition":"seqFeedback","trueTheta":0.5,"classrooms":["A","B"],"studentTrueClassroom":"B","exampleSet":"first","trial_type":"survey-html-form","trial_index":68,"time_elapsed":686372,"internal_node_id":"0.0-67.0-0.0","params":{"nStudents":24,"maxFlips":25,"completionMinutes":45,"basePay":8,"maxBonus":9,"perTrialBonus":0.5,"perTrialBonusThreshold":0.05,"exampleCost":0.02},"classroomParams":{"A":{"a":1,"b":4},"B":{"a":4,"b":1},"C":{"a":2,"b":8},"D":{"a":8,"b":2}},"conditions":["nonSeqFull","nonSeqPartial","seqNoFeedback","seqFeedback"],"classroomPairings":[["A","B"],["C","D"]],"coinWeights":[0.2,0.5,0.8],"subjectId":"A3L0DCUXI7X3A9","assignmentId":"3GD6L00D3TJ8OU90J3VG1UFXWSLM1T","hitId":"3XUY87HIVP03YZXVLN9CW37DVI1MM2","url":"https://gershmanlab.com/experiments/alicia/teaching/experiment/?hitId=3XUY87HIVP03YZXVLN9CW37DVI1MM2&workerId=A3L0DCUXI7X3A9&assignmentId=3GD6L00D3TJ8OU90J3VG1UFXWSLM1T&a=DLDG3&tp_a=DLDG3&b=3GD6L00D3TJ8OU90J3VG1UFXWSLM1T&tp_b=3GD6L00D3TJ8OU90J3VG1UFXWSLM1T&c=365633&tp_c=365633","heads":4,"tails":4,"studentIndex":8,"studentTrueHypers":{"a":4,"b":1},"studentGuess":0.6153846153846154,"delta":0.11538461538461542,"totalExamples":8,"bonusSoFar":0.9},{"rt":11876,"response":{"heads":"2","tails":"4"},"type":"response","condition":"seqFeedback","trueTheta":0.5,"classrooms":["A","B"],"studentTrueClassroom":"B","exampleSet":"second","trial_type":"survey-html-form","trial_index":72,"time_elapsed":711364,"internal_node_id":"0.0-71.0-0.0","params":{"nStudents":24,"maxFlips":25,"completionMinutes":45,"basePay":8,"maxBonus":9,"perTrialBonus":0.5,"perTrialBonusThreshold":0.05,"exampleCost":0.02},"classroomParams":{"A":{"a":1,"b":4},"B":{"a":4,"b":1},"C":{"a":2,"b":8},"D":{"a":8,"b":2}},"conditions":["nonSeqFull","nonSeqPartial","seqNoFeedback","seqFeedback"],"classroomPairings":[["A","B"],["C","D"]],"coinWeights":[0.2,0.5,0.8],"subjectId":"A3L0DCUXI7X3A9","assignmentId":"3GD6L00D3TJ8OU90J3VG1UFXWSLM1T","hitId":"3XUY87HIVP03YZXVLN9CW37DVI1MM2","url":"https://gershmanlab.com/experiments/alicia/teaching/experiment/?hitId=3XUY87HIVP03YZXVLN9CW37DVI1MM2&workerId=A3L0DCUXI7X3A9&assignmentId=3GD6L00D3TJ8OU90J3VG1UFXWSLM1T&a=DLDG3&tp_a=DLDG3&b=3GD6L00D3TJ8OU90J3VG1UFXWSLM1T&tp_b=3GD6L00D3TJ8OU90J3VG1UFXWSLM1T&c=365633&tp_c=365633","firstResponseHeads":4,"firstResponseTails":4,"secondResponseHeads":2,"secondResponseTails":4,"totalHeads":6,"totalTails":8,"studentIndex":8,"studentTrueHypers":{"a":4,"b":1},"studentGuess":0.5263157894736842,"delta":0.02631578947368418,"bonus":0.22,"bonusSoFar":1.12,"totalExamples":14},{"rt":7020,"response":{"heads":"1","tails":"4"},"type":"response","condition":"nonSeqPartial","trueTheta":0.2,"classrooms":["A","B"],"studentTrueClassroom":"B","exampleSet":"first","trial_type":"survey-html-form","trial_index":78,"time_elapsed":732400,"internal_node_id":"0.0-77.0-0.0","params":{"nStudents":24,"maxFlips":25,"completionMinutes":45,"basePay":8,"maxBonus":9,"perTrialBonus":0.5,"perTrialBonusThreshold":0.05,"exampleCost":0.02},"classroomParams":{"A":{"a":1,"b":4},"B":{"a":4,"b":1},"C":{"a":2,"b":8},"D":{"a":8,"b":2}},"conditions":["nonSeqFull","nonSeqPartial","seqNoFeedback","seqFeedback"],"classroomPairings":[["A","B"],["C","D"]],"coinWeights":[0.2,0.5,0.8],"subjectId":"A3L0DCUXI7X3A9","assignmentId":"3GD6L00D3TJ8OU90J3VG1UFXWSLM1T","hitId":"3XUY87HIVP03YZXVLN9CW37DVI1MM2","url":"https://gershmanlab.com/experiments/alicia/teaching/experiment/?hitId=3XUY87HIVP03YZXVLN9CW37DVI1MM2&workerId=A3L0DCUXI7X3A9&assignmentId=3GD6L00D3TJ8OU90J3VG1UFXWSLM1T&a=DLDG3&tp_a=DLDG3&b=3GD6L00D3TJ8OU90J3VG1UFXWSLM1T&tp_b=3GD6L00D3TJ8OU90J3VG1UFXWSLM1T&c=365633&tp_c=365633","heads":1,"tails":4,"studentIndex":9,"studentTrueHypers":{"a":4,"b":1},"studentGuess":0.5,"delta":0.3,"totalExamples":5,"bonus":0,"bonusSoFar":1.12},{"rt":11300,"response":{"heads":"1","tails":"9"},"type":"response","condition":"seqFeedback","trueTheta":0.2,"classrooms":["C","D"],"studentTrueClassroom":"C","exampleSet":"first","trial_type":"survey-html-form","trial_index":84,"time_elapsed":761091,"internal_node_id":"0.0-83.0-0.0","params":{"nStudents":24,"maxFlips":25,"completionMinutes":45,"basePay":8,"maxBonus":9,"perTrialBonus":0.5,"perTrialBonusThreshold":0.05,"exampleCost":0.02},"classroomParams":{"A":{"a":1,"b":4},"B":{"a":4,"b":1},"C":{"a":2,"b":8},"D":{"a":8,"b":2}},"conditions":["nonSeqFull","nonSeqPartial","seqNoFeedback","seqFeedback"],"classroomPairings":[["A","B"],["C","D"]],"coinWeights":[0.2,0.5,0.8],"subjectId":"A3L0DCUXI7X3A9","assignmentId":"3GD6L00D3TJ8OU90J3VG1UFXWSLM1T","hitId":"3XUY87HIVP03YZXVLN9CW37DVI1MM2","url":"https://gershmanlab.com/experiments/alicia/teaching/experiment/?hitId=3XUY87HIVP03YZXVLN9CW37DVI1MM2&workerId=A3L0DCUXI7X3A9&assignmentId=3GD6L00D3TJ8OU90J3VG1UFXWSLM1T&a=DLDG3&tp_a=DLDG3&b=3GD6L00D3TJ8OU90J3VG1UFXWSLM1T&tp_b=3GD6L00D3TJ8OU90J3VG1UFXWSLM1T&c=365633&tp_c=365633","heads":1,"tails":9,"studentIndex":10,"studentTrueHypers":{"a":2,"b":8},"studentGuess":0.15,"delta":0.05000000000000002,"totalExamples":10,"bonusSoFar":1.12},{"rt":7105,"response":{"heads":"2","tails":"8"},"type":"response","condition":"seqFeedback","trueTheta":0.2,"classrooms":["C","D"],"studentTrueClassroom":"C","exampleSet":"second","trial_type":"survey-html-form","trial_index":88,"time_elapsed":777426,"internal_node_id":"0.0-87.0-0.0","params":{"nStudents":24,"maxFlips":25,"completionMinutes":45,"basePay":8,"maxBonus":9,"perTrialBonus":0.5,"perTrialBonusThreshold":0.05,"exampleCost":0.02},"classroomParams":{"A":{"a":1,"b":4},"B":{"a":4,"b":1},"C":{"a":2,"b":8},"D":{"a":8,"b":2}},"conditions":["nonSeqFull","nonSeqPartial","seqNoFeedback","seqFeedback"],"classroomPairings":[["A","B"],["C","D"]],"coinWeights":[0.2,0.5,0.8],"subjectId":"A3L0DCUXI7X3A9","assignmentId":"3GD6L00D3TJ8OU90J3VG1UFXWSLM1T","hitId":"3XUY87HIVP03YZXVLN9CW37DVI1MM2","url":"https://gershmanlab.com/experiments/alicia/teaching/experiment/?hitId=3XUY87HIVP03YZXVLN9CW37DVI1MM2&workerId=A3L0DCUXI7X3A9&assignmentId=3GD6L00D3TJ8OU90J3VG1UFXWSLM1T&a=DLDG3&tp_a=DLDG3&b=3GD6L00D3TJ8OU90J3VG1UFXWSLM1T&tp_b=3GD6L00D3TJ8OU90J3VG1UFXWSLM1T&c=365633&tp_c=365633","firstResponseHeads":1,"firstResponseTails":9,"secondResponseHeads":2,"secondResponseTails":8,"totalHeads":3,"totalTails":17,"studentIndex":10,"studentTrueHypers":{"a":2,"b":8},"studentGuess":0.16666666666666666,"delta":0.033333333333333354,"bonus":0.1,"bonusSoFar":1.22,"totalExamples":20},{"rt":7363,"response":{"heads":"8","tails":"2"},"type":"response","condition":"nonSeqFull","trueTheta":0.8,"classrooms":["C","D"],"studentTrueClassroom":"C","exampleSet":"first","trial_type":"survey-html-form","trial_index":94,"time_elapsed":800488,"internal_node_id":"0.0-93.0-0.0","params":{"nStudents":24,"maxFlips":25,"completionMinutes":45,"basePay":8,"maxBonus":9,"perTrialBonus":0.5,"perTrialBonusThreshold":0.05,"exampleCost":0.02},"classroomParams":{"A":{"a":1,"b":4},"B":{"a":4,"b":1},"C":{"a":2,"b":8},"D":{"a":8,"b":2}},"conditions":["nonSeqFull","nonSeqPartial","seqNoFeedback","seqFeedback"],"classroomPairings":[["A","B"],["C","D"]],"coinWeights":[0.2,0.5,0.8],"subjectId":"A3L0DCUXI7X3A9","assignmentId":"3GD6L00D3TJ8OU90J3VG1UFXWSLM1T","hitId":"3XUY87HIVP03YZXVLN9CW37DVI1MM2","url":"https://gershmanlab.com/experiments/alicia/teaching/experiment/?hitId=3XUY87HIVP03YZXVLN9CW37DVI1MM2&workerId=A3L0DCUXI7X3A9&assignmentId=3GD6L00D3TJ8OU90J3VG1UFXWSLM1T&a=DLDG3&tp_a=DLDG3&b=3GD6L00D3TJ8OU90J3VG1UFXWSLM1T&tp_b=3GD6L00D3TJ8OU90J3VG1UFXWSLM1T&c=365633&tp_c=365633","heads":8,"tails":2,"studentIndex":11,"studentTrueHypers":{"a":2,"b":8},"studentGuess":0.5,"delta":0.30000000000000004,"totalExamples":10,"bonus":0,"bonusSoFar":1.22},{"rt":11150,"response":{"heads":"1","tails":"9"},"type":"response","condition":"seqNoFeedback","trueTheta":0.2,"classrooms":["A","B"],"studentTrueClassroom":"B","exampleSet":"first","trial_type":"survey-html-form","trial_index":100,"time_elapsed":826225,"internal_node_id":"0.0-99.0-0.0","params":{"nStudents":24,"maxFlips":25,"completionMinutes":45,"basePay":8,"maxBonus":9,"perTrialBonus":0.5,"perTrialBonusThreshold":0.05,"exampleCost":0.02},"classroomParams":{"A":{"a":1,"b":4},"B":{"a":4,"b":1},"C":{"a":2,"b":8},"D":{"a":8,"b":2}},"conditions":["nonSeqFull","nonSeqPartial","seqNoFeedback","seqFeedback"],"classroomPairings":[["A","B"],["C","D"]],"coinWeights":[0.2,0.5,0.8],"subjectId":"A3L0DCUXI7X3A9","assignmentId":"3GD6L00D3TJ8OU90J3VG1UFXWSLM1T","hitId":"3XUY87HIVP03YZXVLN9CW37DVI1MM2","url":"https://gershmanlab.com/experiments/alicia/teaching/experiment/?hitId=3XUY87HIVP03YZXVLN9CW37DVI1MM2&workerId=A3L0DCUXI7X3A9&assignmentId=3GD6L00D3TJ8OU90J3VG1UFXWSLM1T&a=DLDG3&tp_a=DLDG3&b=3GD6L00D3TJ8OU90J3VG1UFXWSLM1T&tp_b=3GD6L00D3TJ8OU90J3VG1UFXWSLM1T&c=365633&tp_c=365633","heads":1,"tails":9,"studentIndex":12,"studentTrueHypers":{"a":4,"b":1},"studentGuess":0.3333333333333333,"delta":0.1333333333333333,"totalExamples":10,"bonusSoFar":1.22},{"rt":9593,"response":{"heads":"2","tails":"8"},"type":"response","condition":"seqNoFeedback","trueTheta":0.2,"classrooms":["A","B"],"studentTrueClassroom":"B","exampleSet":"second","trial_type":"survey-html-form","trial_index":103,"time_elapsed":842582,"internal_node_id":"0.0-102.0-0.0","params":{"nStudents":24,"maxFlips":25,"completionMinutes":45,"basePay":8,"maxBonus":9,"perTrialBonus":0.5,"perTrialBonusThreshold":0.05,"exampleCost":0.02},"classroomParams":{"A":{"a":1,"b":4},"B":{"a":4,"b":1},"C":{"a":2,"b":8},"D":{"a":8,"b":2}},"conditions":["nonSeqFull","nonSeqPartial","seqNoFeedback","seqFeedback"],"classroomPairings":[["A","B"],["C","D"]],"coinWeights":[0.2,0.5,0.8],"subjectId":"A3L0DCUXI7X3A9","assignmentId":"3GD6L00D3TJ8OU90J3VG1UFXWSLM1T","hitId":"3XUY87HIVP03YZXVLN9CW37DVI1MM2","url":"https://gershmanlab.com/experiments/alicia/teaching/experiment/?hitId=3XUY87HIVP03YZXVLN9CW37DVI1MM2&workerId=A3L0DCUXI7X3A9&assignmentId=3GD6L00D3TJ8OU90J3VG1UFXWSLM1T&a=DLDG3&tp_a=DLDG3&b=3GD6L00D3TJ8OU90J3VG1UFXWSLM1T&tp_b=3GD6L00D3TJ8OU90J3VG1UFXWSLM1T&c=365633&tp_c=365633","firstResponseHeads":1,"firstResponseTails":9,"secondResponseHeads":2,"secondResponseTails":8,"totalHeads":3,"totalTails":17,"studentIndex":12,"studentTrueHypers":{"a":4,"b":1},"studentGuess":0.28,"delta":0.08000000000000002,"bonus":0,"bonusSoFar":1.22,"totalExamples":20},{"rt":6148,"response":{"heads":"4","tails":"1"},"type":"response","condition":"seqNoFeedback","trueTheta":0.8,"classrooms":["A","B"],"studentTrueClassroom":"B","exampleSet":"first","trial_type":"survey-html-form","trial_index":109,"time_elapsed":866165,"internal_node_id":"0.0-108.0-0.0","params":{"nStudents":24,"maxFlips":25,"completionMinutes":45,"basePay":8,"maxBonus":9,"perTrialBonus":0.5,"perTrialBonusThreshold":0.05,"exampleCost":0.02},"classroomParams":{"A":{"a":1,"b":4},"B":{"a":4,"b":1},"C":{"a":2,"b":8},"D":{"a":8,"b":2}},"conditions":["nonSeqFull","nonSeqPartial","seqNoFeedback","seqFeedback"],"classroomPairings":[["A","B"],["C","D"]],"coinWeights":[0.2,0.5,0.8],"subjectId":"A3L0DCUXI7X3A9","assignmentId":"3GD6L00D3TJ8OU90J3VG1UFXWSLM1T","hitId":"3XUY87HIVP03YZXVLN9CW37DVI1MM2","url":"https://gershmanlab.com/experiments/alicia/teaching/experiment/?hitId=3XUY87HIVP03YZXVLN9CW37DVI1MM2&workerId=A3L0DCUXI7X3A9&assignmentId=3GD6L00D3TJ8OU90J3VG1UFXWSLM1T&a=DLDG3&tp_a=DLDG3&b=3GD6L00D3TJ8OU90J3VG1UFXWSLM1T&tp_b=3GD6L00D3TJ8OU90J3VG1UFXWSLM1T&c=365633&tp_c=365633","heads":4,"tails":1,"studentIndex":13,"studentTrueHypers":{"a":4,"b":1},"studentGuess":0.8,"delta":0,"totalExamples":5,"bonusSoFar":1.22},{"rt":8699,"response":{"heads":"4","tails":"1"},"type":"response","condition":"seqNoFeedback","trueTheta":0.8,"classrooms":["A","B"],"studentTrueClassroom":"B","exampleSet":"second","trial_type":"survey-html-form","trial_index":112,"time_elapsed":881124,"internal_node_id":"0.0-111.0-0.0","params":{"nStudents":24,"maxFlips":25,"completionMinutes":45,"basePay":8,"maxBonus":9,"perTrialBonus":0.5,"perTrialBonusThreshold":0.05,"exampleCost":0.02},"classroomParams":{"A":{"a":1,"b":4},"B":{"a":4,"b":1},"C":{"a":2,"b":8},"D":{"a":8,"b":2}},"conditions":["nonSeqFull","nonSeqPartial","seqNoFeedback","seqFeedback"],"classroomPairings":[["A","B"],["C","D"]],"coinWeights":[0.2,0.5,0.8],"subjectId":"A3L0DCUXI7X3A9","assignmentId":"3GD6L00D3TJ8OU90J3VG1UFXWSLM1T","hitId":"3XUY87HIVP03YZXVLN9CW37DVI1MM2","url":"https://gershmanlab.com/experiments/alicia/teaching/experiment/?hitId=3XUY87HIVP03YZXVLN9CW37DVI1MM2&workerId=A3L0DCUXI7X3A9&assignmentId=3GD6L00D3TJ8OU90J3VG1UFXWSLM1T&a=DLDG3&tp_a=DLDG3&b=3GD6L00D3TJ8OU90J3VG1UFXWSLM1T&tp_b=3GD6L00D3TJ8OU90J3VG1UFXWSLM1T&c=365633&tp_c=365633","firstResponseHeads":4,"firstResponseTails":1,"secondResponseHeads":4,"secondResponseTails":1,"totalHeads":8,"totalTails":2,"studentIndex":13,"studentTrueHypers":{"a":4,"b":1},"studentGuess":0.8,"delta":0,"bonus":0.3,"bonusSoFar":1.52,"totalExamples":10},{"rt":19673,"response":{"heads":"6","tails":"2"},"type":"response","condition":"nonSeqFull","trueTheta":0.5,"classrooms":["A","B"],"studentTrueClassroom":"A","exampleSet":"first","trial_type":"survey-html-form","trial_index":118,"time_elapsed":916306,"internal_node_id":"0.0-117.0-0.0","params":{"nStudents":24,"maxFlips":25,"completionMinutes":45,"basePay":8,"maxBonus":9,"perTrialBonus":0.5,"perTrialBonusThreshold":0.05,"exampleCost":0.02},"classroomParams":{"A":{"a":1,"b":4},"B":{"a":4,"b":1},"C":{"a":2,"b":8},"D":{"a":8,"b":2}},"conditions":["nonSeqFull","nonSeqPartial","seqNoFeedback","seqFeedback"],"classroomPairings":[["A","B"],["C","D"]],"coinWeights":[0.2,0.5,0.8],"subjectId":"A3L0DCUXI7X3A9","assignmentId":"3GD6L00D3TJ8OU90J3VG1UFXWSLM1T","hitId":"3XUY87HIVP03YZXVLN9CW37DVI1MM2","url":"https://gershmanlab.com/experiments/alicia/teaching/experiment/?hitId=3XUY87HIVP03YZXVLN9CW37DVI1MM2&workerId=A3L0DCUXI7X3A9&assignmentId=3GD6L00D3TJ8OU90J3VG1UFXWSLM1T&a=DLDG3&tp_a=DLDG3&b=3GD6L00D3TJ8OU90J3VG1UFXWSLM1T&tp_b=3GD6L00D3TJ8OU90J3VG1UFXWSLM1T&c=365633&tp_c=365633","heads":6,"tails":2,"studentIndex":14,"studentTrueHypers":{"a":1,"b":4},"studentGuess":0.5384615384615384,"delta":0.038461538461538436,"totalExamples":8,"bonus":0.34,"bonusSoFar":1.86},{"rt":9402,"response":{"heads":"1","tails":"9"},"type":"response","condition":"nonSeqPartial","trueTheta":0.2,"classrooms":["C","D"],"studentTrueClassroom":"C","exampleSet":"first","trial_type":"survey-html-form","trial_index":124,"time_elapsed":957289,"internal_node_id":"0.0-123.0-0.0","params":{"nStudents":24,"maxFlips":25,"completionMinutes":45,"basePay":8,"maxBonus":9,"perTrialBonus":0.5,"perTrialBonusThreshold":0.05,"exampleCost":0.02},"classroomParams":{"A":{"a":1,"b":4},"B":{"a":4,"b":1},"C":{"a":2,"b":8},"D":{"a":8,"b":2}},"conditions":["nonSeqFull","nonSeqPartial","seqNoFeedback","seqFeedback"],"classroomPairings":[["A","B"],["C","D"]],"coinWeights":[0.2,0.5,0.8],"subjectId":"A3L0DCUXI7X3A9","assignmentId":"3GD6L00D3TJ8OU90J3VG1UFXWSLM1T","hitId":"3XUY87HIVP03YZXVLN9CW37DVI1MM2","url":"https://gershmanlab.com/experiments/alicia/teaching/experiment/?hitId=3XUY87HIVP03YZXVLN9CW37DVI1MM2&workerId=A3L0DCUXI7X3A9&assignmentId=3GD6L00D3TJ8OU90J3VG1UFXWSLM1T&a=DLDG3&tp_a=DLDG3&b=3GD6L00D3TJ8OU90J3VG1UFXWSLM1T&tp_b=3GD6L00D3TJ8OU90J3VG1UFXWSLM1T&c=365633&tp_c=365633","heads":1,"tails":9,"studentIndex":15,"studentTrueHypers":{"a":2,"b":8},"studentGuess":0.15,"delta":0.05000000000000002,"totalExamples":10,"bonus":0,"bonusSoFar":1.86},{"rt":5605,"response":{"heads":"8","tails":"2"},"type":"response","condition":"nonSeqPartial","trueTheta":0.8,"classrooms":["C","D"],"studentTrueClassroom":"C","exampleSet":"first","trial_type":"survey-html-form","trial_index":130,"time_elapsed":978504,"internal_node_id":"0.0-129.0-0.0","params":{"nStudents":24,"maxFlips":25,"completionMinutes":45,"basePay":8,"maxBonus":9,"perTrialBonus":0.5,"perTrialBonusThreshold":0.05,"exampleCost":0.02},"classroomParams":{"A":{"a":1,"b":4},"B":{"a":4,"b":1},"C":{"a":2,"b":8},"D":{"a":8,"b":2}},"conditions":["nonSeqFull","nonSeqPartial","seqNoFeedback","seqFeedback"],"classroomPairings":[["A","B"],["C","D"]],"coinWeights":[0.2,0.5,0.8],"subjectId":"A3L0DCUXI7X3A9","assignmentId":"3GD6L00D3TJ8OU90J3VG1UFXWSLM1T","hitId":"3XUY87HIVP03YZXVLN9CW37DVI1MM2","url":"https://gershmanlab.com/experiments/alicia/teaching/experiment/?hitId=3XUY87HIVP03YZXVLN9CW37DVI1MM2&workerId=A3L0DCUXI7X3A9&assignmentId=3GD6L00D3TJ8OU90J3VG1UFXWSLM1T&a=DLDG3&tp_a=DLDG3&b=3GD6L00D3TJ8OU90J3VG1UFXWSLM1T&tp_b=3GD6L00D3TJ8OU90J3VG1UFXWSLM1T&c=365633&tp_c=365633","heads":8,"tails":2,"studentIndex":16,"studentTrueHypers":{"a":2,"b":8},"studentGuess":0.5,"delta":0.30000000000000004,"totalExamples":10,"bonus":0,"bonusSoFar":1.86},{"rt":12082,"response":{"heads":"1","tails":"5"},"type":"response","condition":"seqFeedback","trueTheta":0.2,"classrooms":["A","B"],"studentTrueClassroom":"A","exampleSet":"first","trial_type":"survey-html-form","trial_index":136,"time_elapsed":1005150,"internal_node_id":"0.0-135.0-0.0","params":{"nStudents":24,"maxFlips":25,"completionMinutes":45,"basePay":8,"maxBonus":9,"perTrialBonus":0.5,"perTrialBonusThreshold":0.05,"exampleCost":0.02},"classroomParams":{"A":{"a":1,"b":4},"B":{"a":4,"b":1},"C":{"a":2,"b":8},"D":{"a":8,"b":2}},"conditions":["nonSeqFull","nonSeqPartial","seqNoFeedback","seqFeedback"],"classroomPairings":[["A","B"],["C","D"]],"coinWeights":[0.2,0.5,0.8],"subjectId":"A3L0DCUXI7X3A9","assignmentId":"3GD6L00D3TJ8OU90J3VG1UFXWSLM1T","hitId":"3XUY87HIVP03YZXVLN9CW37DVI1MM2","url":"https://gershmanlab.com/experiments/alicia/teaching/experiment/?hitId=3XUY87HIVP03YZXVLN9CW37DVI1MM2&workerId=A3L0DCUXI7X3A9&assignmentId=3GD6L00D3TJ8OU90J3VG1UFXWSLM1T&a=DLDG3&tp_a=DLDG3&b=3GD6L00D3TJ8OU90J3VG1UFXWSLM1T&tp_b=3GD6L00D3TJ8OU90J3VG1UFXWSLM1T&c=365633&tp_c=365633","heads":1,"tails":5,"studentIndex":17,"studentTrueHypers":{"a":1,"b":4},"studentGuess":0.18181818181818182,"delta":0.018181818181818188,"totalExamples":6,"bonusSoFar":1.86},{"rt":6229,"response":{"heads":"1","tails":"4"},"type":"response","condition":"seqFeedback","trueTheta":0.2,"classrooms":["A","B"],"studentTrueClassroom":"A","exampleSet":"second","trial_type":"survey-html-form","trial_index":140,"time_elapsed":1024997,"internal_node_id":"0.0-139.0-0.0","params":{"nStudents":24,"maxFlips":25,"completionMinutes":45,"basePay":8,"maxBonus":9,"perTrialBonus":0.5,"perTrialBonusThreshold":0.05,"exampleCost":0.02},"classroomParams":{"A":{"a":1,"b":4},"B":{"a":4,"b":1},"C":{"a":2,"b":8},"D":{"a":8,"b":2}},"conditions":["nonSeqFull","nonSeqPartial","seqNoFeedback","seqFeedback"],"classroomPairings":[["A","B"],["C","D"]],"coinWeights":[0.2,0.5,0.8],"subjectId":"A3L0DCUXI7X3A9","assignmentId":"3GD6L00D3TJ8OU90J3VG1UFXWSLM1T","hitId":"3XUY87HIVP03YZXVLN9CW37DVI1MM2","url":"https://gershmanlab.com/experiments/alicia/teaching/experiment/?hitId=3XUY87HIVP03YZXVLN9CW37DVI1MM2&workerId=A3L0DCUXI7X3A9&assignmentId=3GD6L00D3TJ8OU90J3VG1UFXWSLM1T&a=DLDG3&tp_a=DLDG3&b=3GD6L00D3TJ8OU90J3VG1UFXWSLM1T&tp_b=3GD6L00D3TJ8OU90J3VG1UFXWSLM1T&c=365633&tp_c=365633","firstResponseHeads":1,"firstResponseTails":5,"secondResponseHeads":1,"secondResponseTails":4,"totalHeads":2,"totalTails":9,"studentIndex":17,"studentTrueHypers":{"a":1,"b":4},"studentGuess":0.1875,"delta":0.012500000000000011,"bonus":0.28,"bonusSoFar":2.14,"totalExamples":11},{"rt":7433,"response":{"heads":"5","tails":"5"},"type":"response","condition":"nonSeqPartial","trueTheta":0.5,"classrooms":["C","D"],"studentTrueClassroom":"C","exampleSet":"first","trial_type":"survey-html-form","trial_index":146,"time_elapsed":1045940,"internal_node_id":"0.0-145.0-0.0","params":{"nStudents":24,"maxFlips":25,"completionMinutes":45,"basePay":8,"maxBonus":9,"perTrialBonus":0.5,"perTrialBonusThreshold":0.05,"exampleCost":0.02},"classroomParams":{"A":{"a":1,"b":4},"B":{"a":4,"b":1},"C":{"a":2,"b":8},"D":{"a":8,"b":2}},"conditions":["nonSeqFull","nonSeqPartial","seqNoFeedback","seqFeedback"],"classroomPairings":[["A","B"],["C","D"]],"coinWeights":[0.2,0.5,0.8],"subjectId":"A3L0DCUXI7X3A9","assignmentId":"3GD6L00D3TJ8OU90J3VG1UFXWSLM1T","hitId":"3XUY87HIVP03YZXVLN9CW37DVI1MM2","url":"https://gershmanlab.com/experiments/alicia/teaching/experiment/?hitId=3XUY87HIVP03YZXVLN9CW37DVI1MM2&workerId=A3L0DCUXI7X3A9&assignmentId=3GD6L00D3TJ8OU90J3VG1UFXWSLM1T&a=DLDG3&tp_a=DLDG3&b=3GD6L00D3TJ8OU90J3VG1UFXWSLM1T&tp_b=3GD6L00D3TJ8OU90J3VG1UFXWSLM1T&c=365633&tp_c=365633","heads":5,"tails":5,"studentIndex":18,"studentTrueHypers":{"a":2,"b":8},"studentGuess":0.35,"delta":0.15000000000000002,"totalExamples":10,"bonus":0,"bonusSoFar":2.14},{"rt":11488,"response":{"heads":"4","tails":"1"},"type":"response","condition":"seqFeedback","trueTheta":0.8,"classrooms":["C","D"],"studentTrueClassroom":"C","exampleSet":"first","trial_type":"survey-html-form","trial_index":152,"time_elapsed":1070430,"internal_node_id":"0.0-151.0-0.0","params":{"nStudents":24,"maxFlips":25,"completionMinutes":45,"basePay":8,"maxBonus":9,"perTrialBonus":0.5,"perTrialBonusThreshold":0.05,"exampleCost":0.02},"classroomParams":{"A":{"a":1,"b":4},"B":{"a":4,"b":1},"C":{"a":2,"b":8},"D":{"a":8,"b":2}},"conditions":["nonSeqFull","nonSeqPartial","seqNoFeedback","seqFeedback"],"classroomPairings":[["A","B"],["C","D"]],"coinWeights":[0.2,0.5,0.8],"subjectId":"A3L0DCUXI7X3A9","assignmentId":"3GD6L00D3TJ8OU90J3VG1UFXWSLM1T","hitId":"3XUY87HIVP03YZXVLN9CW37DVI1MM2","url":"https://gershmanlab.com/experiments/alicia/teaching/experiment/?hitId=3XUY87HIVP03YZXVLN9CW37DVI1MM2&workerId=A3L0DCUXI7X3A9&assignmentId=3GD6L00D3TJ8OU90J3VG1UFXWSLM1T&a=DLDG3&tp_a=DLDG3&b=3GD6L00D3TJ8OU90J3VG1UFXWSLM1T&tp_b=3GD6L00D3TJ8OU90J3VG1UFXWSLM1T&c=365633&tp_c=365633","heads":4,"tails":1,"studentIndex":19,"studentTrueHypers":{"a":2,"b":8},"studentGuess":0.4,"delta":0.4,"totalExamples":5,"bonusSoFar":2.14},{"rt":26391,"response":{"heads":"8","tails":"2"},"type":"response","condition":"seqFeedback","trueTheta":0.8,"classrooms":["C","D"],"studentTrueClassroom":"C","exampleSet":"second","trial_type":"survey-html-form","trial_index":156,"time_elapsed":1108936,"internal_node_id":"0.0-155.0-0.0","params":{"nStudents":24,"maxFlips":25,"completionMinutes":45,"basePay":8,"maxBonus":9,"perTrialBonus":0.5,"perTrialBonusThreshold":0.05,"exampleCost":0.02},"classroomParams":{"A":{"a":1,"b":4},"B":{"a":4,"b":1},"C":{"a":2,"b":8},"D":{"a":8,"b":2}},"conditions":["nonSeqFull","nonSeqPartial","seqNoFeedback","seqFeedback"],"classroomPairings":[["A","B"],["C","D"]],"coinWeights":[0.2,0.5,0.8],"subjectId":"A3L0DCUXI7X3A9","assignmentId":"3GD6L00D3TJ8OU90J3VG1UFXWSLM1T","hitId":"3XUY87HIVP03YZXVLN9CW37DVI1MM2","url":"https://gershmanlab.com/experiments/alicia/teaching/experiment/?hitId=3XUY87HIVP03YZXVLN9CW37DVI1MM2&workerId=A3L0DCUXI7X3A9&assignmentId=3GD6L00D3TJ8OU90J3VG1UFXWSLM1T&a=DLDG3&tp_a=DLDG3&b=3GD6L00D3TJ8OU90J3VG1UFXWSLM1T&tp_b=3GD6L00D3TJ8OU90J3VG1UFXWSLM1T&c=365633&tp_c=365633","firstResponseHeads":4,"firstResponseTails":1,"secondResponseHeads":8,"secondResponseTails":2,"totalHeads":12,"totalTails":3,"studentIndex":19,"studentTrueHypers":{"a":2,"b":8},"studentGuess":0.56,"delta":0.24,"bonus":0,"bonusSoFar":2.14,"totalExamples":15},{"rt":11420,"response":{"heads":"1","tails":"8"},"type":"response","condition":"seqNoFeedback","trueTheta":0.2,"classrooms":["C","D"],"studentTrueClassroom":"D","exampleSet":"first","trial_type":"survey-html-form","trial_index":162,"time_elapsed":1134385,"internal_node_id":"0.0-161.0-0.0","params":{"nStudents":24,"maxFlips":25,"completionMinutes":45,"basePay":8,"maxBonus":9,"perTrialBonus":0.5,"perTrialBonusThreshold":0.05,"exampleCost":0.02},"classroomParams":{"A":{"a":1,"b":4},"B":{"a":4,"b":1},"C":{"a":2,"b":8},"D":{"a":8,"b":2}},"conditions":["nonSeqFull","nonSeqPartial","seqNoFeedback","seqFeedback"],"classroomPairings":[["A","B"],["C","D"]],"coinWeights":[0.2,0.5,0.8],"subjectId":"A3L0DCUXI7X3A9","assignmentId":"3GD6L00D3TJ8OU90J3VG1UFXWSLM1T","hitId":"3XUY87HIVP03YZXVLN9CW37DVI1MM2","url":"https://gershmanlab.com/experiments/alicia/teaching/experiment/?hitId=3XUY87HIVP03YZXVLN9CW37DVI1MM2&workerId=A3L0DCUXI7X3A9&assignmentId=3GD6L00D3TJ8OU90J3VG1UFXWSLM1T&a=DLDG3&tp_a=DLDG3&b=3GD6L00D3TJ8OU90J3VG1UFXWSLM1T&tp_b=3GD6L00D3TJ8OU90J3VG1UFXWSLM1T&c=365633&tp_c=365633","heads":1,"tails":8,"studentIndex":20,"studentTrueHypers":{"a":8,"b":2},"studentGuess":0.47368421052631576,"delta":0.27368421052631575,"totalExamples":9,"bonusSoFar":2.14},{"rt":12276,"response":{"heads":"1","tails":"7"},"type":"response","condition":"seqNoFeedback","trueTheta":0.2,"classrooms":["C","D"],"studentTrueClassroom":"D","exampleSet":"second","trial_type":"survey-html-form","trial_index":165,"time_elapsed":1151918,"internal_node_id":"0.0-164.0-0.0","params":{"nStudents":24,"maxFlips":25,"completionMinutes":45,"basePay":8,"maxBonus":9,"perTrialBonus":0.5,"perTrialBonusThreshold":0.05,"exampleCost":0.02},"classroomParams":{"A":{"a":1,"b":4},"B":{"a":4,"b":1},"C":{"a":2,"b":8},"D":{"a":8,"b":2}},"conditions":["nonSeqFull","nonSeqPartial","seqNoFeedback","seqFeedback"],"classroomPairings":[["A","B"],["C","D"]],"coinWeights":[0.2,0.5,0.8],"subjectId":"A3L0DCUXI7X3A9","assignmentId":"3GD6L00D3TJ8OU90J3VG1UFXWSLM1T","hitId":"3XUY87HIVP03YZXVLN9CW37DVI1MM2","url":"https://gershmanlab.com/experiments/alicia/teaching/experiment/?hitId=3XUY87HIVP03YZXVLN9CW37DVI1MM2&workerId=A3L0DCUXI7X3A9&assignmentId=3GD6L00D3TJ8OU90J3VG1UFXWSLM1T&a=DLDG3&tp_a=DLDG3&b=3GD6L00D3TJ8OU90J3VG1UFXWSLM1T&tp_b=3GD6L00D3TJ8OU90J3VG1UFXWSLM1T&c=365633&tp_c=365633","firstResponseHeads":1,"firstResponseTails":8,"secondResponseHeads":1,"secondResponseTails":7,"totalHeads":2,"totalTails":15,"studentIndex":20,"studentTrueHypers":{"a":8,"b":2},"studentGuess":0.37037037037037035,"delta":0.17037037037037034,"bonus":0,"bonusSoFar":2.14,"totalExamples":17},{"rt":9976,"response":{"heads":"9","tails":"1"},"type":"response","condition":"nonSeqPartial","trueTheta":0.8,"classrooms":["A","B"],"studentTrueClassroom":"B","exampleSet":"first","trial_type":"survey-html-form","trial_index":171,"time_elapsed":1177867,"internal_node_id":"0.0-170.0-0.0","params":{"nStudents":24,"maxFlips":25,"completionMinutes":45,"basePay":8,"maxBonus":9,"perTrialBonus":0.5,"perTrialBonusThreshold":0.05,"exampleCost":0.02},"classroomParams":{"A":{"a":1,"b":4},"B":{"a":4,"b":1},"C":{"a":2,"b":8},"D":{"a":8,"b":2}},"conditions":["nonSeqFull","nonSeqPartial","seqNoFeedback","seqFeedback"],"classroomPairings":[["A","B"],["C","D"]],"coinWeights":[0.2,0.5,0.8],"subjectId":"A3L0DCUXI7X3A9","assignmentId":"3GD6L00D3TJ8OU90J3VG1UFXWSLM1T","hitId":"3XUY87HIVP03YZXVLN9CW37DVI1MM2","url":"https://gershmanlab.com/experiments/alicia/teaching/experiment/?hitId=3XUY87HIVP03YZXVLN9CW37DVI1MM2&workerId=A3L0DCUXI7X3A9&assignmentId=3GD6L00D3TJ8OU90J3VG1UFXWSLM1T&a=DLDG3&tp_a=DLDG3&b=3GD6L00D3TJ8OU90J3VG1UFXWSLM1T&tp_b=3GD6L00D3TJ8OU90J3VG1UFXWSLM1T&c=365633&tp_c=365633","heads":9,"tails":1,"studentIndex":21,"studentTrueHypers":{"a":4,"b":1},"studentGuess":0.8666666666666667,"delta":0.06666666666666665,"totalExamples":10,"bonus":0,"bonusSoFar":2.14},{"rt":10485,"response":{"heads":"8","tails":"2"},"type":"response","condition":"nonSeqFull","trueTheta":0.8,"classrooms":["A","B"],"studentTrueClassroom":"B","exampleSet":"first","trial_type":"survey-html-form","trial_index":177,"time_elapsed":1206482,"internal_node_id":"0.0-176.0-0.0","params":{"nStudents":24,"maxFlips":25,"completionMinutes":45,"basePay":8,"maxBonus":9,"perTrialBonus":0.5,"perTrialBonusThreshold":0.05,"exampleCost":0.02},"classroomParams":{"A":{"a":1,"b":4},"B":{"a":4,"b":1},"C":{"a":2,"b":8},"D":{"a":8,"b":2}},"conditions":["nonSeqFull","nonSeqPartial","seqNoFeedback","seqFeedback"],"classroomPairings":[["A","B"],["C","D"]],"coinWeights":[0.2,0.5,0.8],"subjectId":"A3L0DCUXI7X3A9","assignmentId":"3GD6L00D3TJ8OU90J3VG1UFXWSLM1T","hitId":"3XUY87HIVP03YZXVLN9CW37DVI1MM2","url":"https://gershmanlab.com/experiments/alicia/teaching/experiment/?hitId=3XUY87HIVP03YZXVLN9CW37DVI1MM2&workerId=A3L0DCUXI7X3A9&assignmentId=3GD6L00D3TJ8OU90J3VG1UFXWSLM1T&a=DLDG3&tp_a=DLDG3&b=3GD6L00D3TJ8OU90J3VG1UFXWSLM1T&tp_b=3GD6L00D3TJ8OU90J3VG1UFXWSLM1T&c=365633&tp_c=365633","heads":8,"tails":2,"studentIndex":22,"studentTrueHypers":{"a":4,"b":1},"studentGuess":0.8,"delta":0,"totalExamples":10,"bonus":0.3,"bonusSoFar":2.44},{"rt":6428,"response":{"heads":"5","tails":"5"},"type":"response","condition":"seqFeedback","trueTheta":0.5,"classrooms":["C","D"],"studentTrueClassroom":"C","exampleSet":"first","trial_type":"survey-html-form","trial_index":183,"time_elapsed":1226901,"internal_node_id":"0.0-182.0-0.0","params":{"nStudents":24,"maxFlips":25,"completionMinutes":45,"basePay":8,"maxBonus":9,"perTrialBonus":0.5,"perTrialBonusThreshold":0.05,"exampleCost":0.02},"classroomParams":{"A":{"a":1,"b":4},"B":{"a":4,"b":1},"C":{"a":2,"b":8},"D":{"a":8,"b":2}},"conditions":["nonSeqFull","nonSeqPartial","seqNoFeedback","seqFeedback"],"classroomPairings":[["A","B"],["C","D"]],"coinWeights":[0.2,0.5,0.8],"subjectId":"A3L0DCUXI7X3A9","assignmentId":"3GD6L00D3TJ8OU90J3VG1UFXWSLM1T","hitId":"3XUY87HIVP03YZXVLN9CW37DVI1MM2","url":"https://gershmanlab.com/experiments/alicia/teaching/experiment/?hitId=3XUY87HIVP03YZXVLN9CW37DVI1MM2&workerId=A3L0DCUXI7X3A9&assignmentId=3GD6L00D3TJ8OU90J3VG1UFXWSLM1T&a=DLDG3&tp_a=DLDG3&b=3GD6L00D3TJ8OU90J3VG1UFXWSLM1T&tp_b=3GD6L00D3TJ8OU90J3VG1UFXWSLM1T&c=365633&tp_c=365633","heads":5,"tails":5,"studentIndex":23,"studentTrueHypers":{"a":2,"b":8},"studentGuess":0.35,"delta":0.15000000000000002,"totalExamples":10,"bonusSoFar":2.44},{"rt":8158,"response":{"heads":"7","tails":"3"},"type":"response","condition":"seqFeedback","trueTheta":0.5,"classrooms":["C","D"],"studentTrueClassroom":"C","exampleSet":"second","trial_type":"survey-html-form","trial_index":187,"time_elapsed":1245212,"internal_node_id":"0.0-186.0-0.0","params":{"nStudents":24,"maxFlips":25,"completionMinutes":45,"basePay":8,"maxBonus":9,"perTrialBonus":0.5,"perTrialBonusThreshold":0.05,"exampleCost":0.02},"classroomParams":{"A":{"a":1,"b":4},"B":{"a":4,"b":1},"C":{"a":2,"b":8},"D":{"a":8,"b":2}},"conditions":["nonSeqFull","nonSeqPartial","seqNoFeedback","seqFeedback"],"classroomPairings":[["A","B"],["C","D"]],"coinWeights":[0.2,0.5,0.8],"subjectId":"A3L0DCUXI7X3A9","assignmentId":"3GD6L00D3TJ8OU90J3VG1UFXWSLM1T","hitId":"3XUY87HIVP03YZXVLN9CW37DVI1MM2","url":"https://gershmanlab.com/experiments/alicia/teaching/experiment/?hitId=3XUY87HIVP03YZXVLN9CW37DVI1MM2&workerId=A3L0DCUXI7X3A9&assignmentId=3GD6L00D3TJ8OU90J3VG1UFXWSLM1T&a=DLDG3&tp_a=DLDG3&b=3GD6L00D3TJ8OU90J3VG1UFXWSLM1T&tp_b=3GD6L00D3TJ8OU90J3VG1UFXWSLM1T&c=365633&tp_c=365633","firstResponseHeads":5,"firstResponseTails":5,"secondResponseHeads":7,"secondResponseTails":3,"totalHeads":12,"totalTails":8,"studentIndex":23,"studentTrueHypers":{"a":2,"b":8},"studentGuess":0.4666666666666667,"delta":0.033333333333333326,"bonus":0.1,"bonusSoFar":2.54,"totalExamples":20},{"rt":15537,"response":{"gender":"male","age":"45","understood":"yes","comments":"no problems"},"type":"response","trial_type":"survey-html-form","trial_index":191,"time_elapsed":1271266,"internal_node_id":"0.0-191.0","params":{"nStudents":24,"maxFlips":25,"completionMinutes":45,"basePay":8,"maxBonus":9,"perTrialBonus":0.5,"perTrialBonusThreshold":0.05,"exampleCost":0.02},"classroomParams":{"A":{"a":1,"b":4},"B":{"a":4,"b":1},"C":{"a":2,"b":8},"D":{"a":8,"b":2}},"conditions":["nonSeqFull","nonSeqPartial","seqNoFeedback","seqFeedback"],"classroomPairings":[["A","B"],["C","D"]],"coinWeights":[0.2,0.5,0.8],"subjectId":"A3L0DCUXI7X3A9","assignmentId":"3GD6L00D3TJ8OU90J3VG1UFXWSLM1T","hitId":"3XUY87HIVP03YZXVLN9CW37DVI1MM2","url":"https://gershmanlab.com/experiments/alicia/teaching/experiment/?hitId=3XUY87HIVP03YZXVLN9CW37DVI1MM2&workerId=A3L0DCUXI7X3A9&assignmentId=3GD6L00D3TJ8OU90J3VG1UFXWSLM1T&a=DLDG3&tp_a=DLDG3&b=3GD6L00D3TJ8OU90J3VG1UFXWSLM1T&tp_b=3GD6L00D3TJ8OU90J3VG1UFXWSLM1T&c=365633&tp_c=365633","totalBonus":2.54}]