[{"rt":15398,"response":{"heads":"1","tails":"1"},"type":"response","condition":"nonSeqPartial","trueTheta":0.5,"classrooms":["C","D"],"studentTrueClassroom":"D","exampleSet":"first","trial_type":"survey-html-form","trial_index":7,"time_elapsed":238892,"internal_node_id":"0.0-6.0-0.0","params":{"nStudents":24,"maxFlips":25,"completionMinutes":45,"basePay":8,"maxBonus":9,"perTrialBonus":0.5,"perTrialBonusThreshold":0.05,"exampleCost":0.02},"classroomParams":{"A":{"a":1,"b":4},"B":{"a":4,"b":1},"C":{"a":2,"b":8},"D":{"a":8,"b":2}},"conditions":["nonSeqFull","nonSeqPartial","seqNoFeedback","seqFeedback"],"classroomPairings":[["A","B"],["C","D"]],"coinWeights":[0.2,0.5,0.8],"subjectId":"A3LFVI65XV1T46","assignmentId":"3VSOLARPKCVPRD4LHY5UK1OAUDS939","hitId":"39WICJI5ATE2BKO4UUUR86UGAV2Z3G","url":"https://gershmanlab.com/experiments/alicia/teaching/experiment/?hitId=39WICJI5ATE2BKO4UUUR86UGAV2Z3G&workerId=A3LFVI65XV1T46&assignmentId=3VSOLARPKCVPRD4LHY5UK1OAUDS939&a=PLSV3&tp_a=PLSV3&b=3VSOLARPKCVPRD4LHY5UK1OAUDS939&tp_b=3VSOLARPKCVPRD4LHY5UK1OAUDS939&c=365633&tp_c=365633","heads":1,"tails":1,"studentIndex":0,"studentTrueHypers":{"a":8,"b":2},"studentGuess":0.75,"delta":0.25,"totalExamples":2,"bonus":0,"bonusSoFar":0},{"rt":12895,"response":{"heads":"2","tails":"8"},"type":"response","condition":"seqFeedback","trueTheta":0.2,"classrooms":["A","B"],"studentTrueClassroom":"B","exampleSet":"first","trial_type":"survey-html-form","trial_index":13,"time_elapsed":273780,"internal_node_id":"0.0-12.0-0.0","params":{"nStudents":24,"maxFlips":25,"completionMinutes":45,"basePay":8,"maxBonus":9,"perTrialBonus":0.5,"perTrialBonusThreshold":0.05,"exampleCost":0.02},"classroomParams":{"A":{"a":1,"b":4},"B":{"a":4,"b":1},"C":{"a":2,"b":8},"D":{"a":8,"b":2}},"conditions":["nonSeqFull","nonSeqPartial","seqNoFeedback","seqFeedback"],"classroomPairings":[["A","B"],["C","D"]],"coinWeights":[0.2,0.5,0.8],"subjectId":"A3LFVI65XV1T46","assignmentId":"3VSOLARPKCVPRD4LHY5UK1OAUDS939","hitId":"39WICJI5ATE2BKO4UUUR86UGAV2Z3G","url":"https://gershmanlab.com/experiments/alicia/teaching/experiment/?hitId=39WICJI5ATE2BKO4UUUR86UGAV2Z3G&workerId=A3LFVI65XV1T46&assignmentId=3VSOLARPKCVPRD4LHY5UK1OAUDS939&a=PLSV3&tp_a=PLSV3&b=3VSOLARPKCVPRD4LHY5UK1OAUDS939&tp_b=3VSOLARPKCVPRD4LHY5UK1OAUDS939&c=365633&tp_c=365633","heads":2,"tails":8,"studentIndex":1,"studentTrueHypers":{"a":4,"b":1},"studentGuess":0.4,"delta":0.2,"totalExamples":10,"bonusSoFar":0},{"rt":16288,"response":{"heads":"2","tails":"8"},"type":"response","condition":"seqFeedback","trueTheta":0.2,"classrooms":["A","B"],"studentTrueClassroom":"B","exampleSet":"second","trial_type":"survey-html-form","trial_index":17,"time_elapsed":301301,"internal_node_id":"0.0-16.0-0.0","params":{"nStudents":24,"maxFlips":25,"completionMinutes":45,"basePay":8,"maxBonus":9,"perTrialBonus":0.5,"perTrialBonusThreshold":0.05,"exampleCost":0.02},"classroomParams":{"A":{"a":1,"b":4},"B":{"a":4,"b":1},"C":{"a":2,"b":8},"D":{"a":8,"b":2}},"conditions":["nonSeqFull","nonSeqPartial","seqNoFeedback","seqFeedback"],"classroomPairings":[["A","B"],["C","D"]],"coinWeights":[0.2,0.5,0.8],"subjectId":"A3LFVI65XV1T46","assignmentId":"3VSOLARPKCVPRD4LHY5UK1OAUDS939","hitId":"39WICJI5ATE2BKO4UUUR86UGAV2Z3G","url":"https://gershmanlab.com/experiments/alicia/teaching/experiment/?hitId=39WICJI5ATE2BKO4UUUR86UGAV2Z3G&workerId=A3LFVI65XV1T46&assignmentId=3VSOLARPKCVPRD4LHY5UK1OAUDS939&a=PLSV3&tp_a=PLSV3&b=3VSOLARPKCVPRD4LHY5UK1OAUDS939&tp_b=3VSOLARPKCVPRD4LHY5UK1OAUDS939&c=365633&tp_c=365633","firstResponseHeads":2,"firstResponseTails":8,"secondResponseHeads":2,"secondResponseTails":8,"totalHeads":4,"totalTails":16,"studentIndex":1,"studentTrueHypers":{"a":4,"b":1},"studentGuess":0.32,"delta":0.12,"bonus":0,"bonusSoFar":0,"totalExamples":20},{"rt":12342,"response":{"heads":"2","tails":"5"},"type":"response","condition":"nonSeqFull","trueTheta":0.2,"classrooms":["A","B"],"studentTrueClassroom":"A","exampleSet":"first","trial_type":"survey-html-form","trial_index":23,"time_elapsed":331309,"internal_node_id":"0.0-22.0-0.0","params":{"nStudents":24,"maxFlips":25,"completionMinutes":45,"basePay":8,"maxBonus":9,"perTrialBonus":0.5,"perTrialBonusThreshold":0.05,"exampleCost":0.02},"classroomParams":{"A":{"a":1,"b":4},"B":{"a":4,"b":1},"C":{"a":2,"b":8},"D":{"a":8,"b":2}},"conditions":["nonSeqFull","nonSeqPartial","seqNoFeedback","seqFeedback"],"classroomPairings":[["A","B"],["C","D"]],"coinWeights":[0.2,0.5,0.8],"subjectId":"A3LFVI65XV1T46","assignmentId":"3VSOLARPKCVPRD4LHY5UK1OAUDS939","hitId":"39WICJI5ATE2BKO4UUUR86UGAV2Z3G","url":"https://gershmanlab.com/experiments/alicia/teaching/experiment/?hitId=39WICJI5ATE2BKO4UUUR86UGAV2Z3G&workerId=A3LFVI65XV1T46&assignmentId=3VSOLARPKCVPRD4LHY5UK1OAUDS939&a=PLSV3&tp_a=PLSV3&b=3VSOLARPKCVPRD4LHY5UK1OAUDS939&tp_b=3VSOLARPKCVPRD4LHY5UK1OAUDS939&c=365633&tp_c=365633","heads":2,"tails":5,"studentIndex":2,"studentTrueHypers":{"a":1,"b":4},"studentGuess":0.25,"delta":0.04999999999999999,"totalExamples":7,"bonus":0.36,"bonusSoFar":0.36},{"rt":5809,"response":{"heads":"2","tails":"5"},"type":"response","condition":"nonSeqPartial","trueTheta":0.2,"classrooms":["A","B"],"studentTrueClassroom":"A","exampleSet":"first","trial_type":"survey-html-form","trial_index":29,"time_elapsed":352464,"internal_node_id":"0.0-28.0-0.0","params":{"nStudents":24,"maxFlips":25,"completionMinutes":45,"basePay":8,"maxBonus":9,"perTrialBonus":0.5,"perTrialBonusThreshold":0.05,"exampleCost":0.02},"classroomParams":{"A":{"a":1,"b":4},"B":{"a":4,"b":1},"C":{"a":2,"b":8},"D":{"a":8,"b":2}},"conditions":["nonSeqFull","nonSeqPartial","seqNoFeedback","seqFeedback"],"classroomPairings":[["A","B"],["C","D"]],"coinWeights":[0.2,0.5,0.8],"subjectId":"A3LFVI65XV1T46","assignmentId":"3VSOLARPKCVPRD4LHY5UK1OAUDS939","hitId":"39WICJI5ATE2BKO4UUUR86UGAV2Z3G","url":"https://gershmanlab.com/experiments/alicia/teaching/experiment/?hitId=39WICJI5ATE2BKO4UUUR86UGAV2Z3G&workerId=A3LFVI65XV1T46&assignmentId=3VSOLARPKCVPRD4LHY5UK1OAUDS939&a=PLSV3&tp_a=PLSV3&b=3VSOLARPKCVPRD4LHY5UK1OAUDS939&tp_b=3VSOLARPKCVPRD4LHY5UK1OAUDS939&c=365633&tp_c=365633","heads":2,"tails":5,"studentIndex":3,"studentTrueHypers":{"a":1,"b":4},"studentGuess":0.25,"delta":0.04999999999999999,"totalExamples":7,"bonus":0.36,"bonusSoFar":0.72},{"rt":9016,"response":{"heads":"2","tails":"2"},"type":"response","condition":"nonSeqFull","trueTheta":0.5,"classrooms":["A","B"],"studentTrueClassroom":"B","exampleSet":"first","trial_type":"survey-html-form","trial_index":35,"time_elapsed":375670,"internal_node_id":"0.0-34.0-0.0","params":{"nStudents":24,"maxFlips":25,"completionMinutes":45,"basePay":8,"maxBonus":9,"perTrialBonus":0.5,"perTrialBonusThreshold":0.05,"exampleCost":0.02},"classroomParams":{"A":{"a":1,"b":4},"B":{"a":4,"b":1},"C":{"a":2,"b":8},"D":{"a":8,"b":2}},"conditions":["nonSeqFull","nonSeqPartial","seqNoFeedback","seqFeedback"],"classroomPairings":[["A","B"],["C","D"]],"coinWeights":[0.2,0.5,0.8],"subjectId":"A3LFVI65XV1T46","assignmentId":"3VSOLARPKCVPRD4LHY5UK1OAUDS939","hitId":"39WICJI5ATE2BKO4UUUR86UGAV2Z3G","url":"https://gershmanlab.com/experiments/alicia/teaching/experiment/?hitId=39WICJI5ATE2BKO4UUUR86UGAV2Z3G&workerId=A3LFVI65XV1T46&assignmentId=3VSOLARPKCVPRD4LHY5UK1OAUDS939&a=PLSV3&tp_a=PLSV3&b=3VSOLARPKCVPRD4LHY5UK1OAUDS939&tp_b=3VSOLARPKCVPRD4LHY5UK1OAUDS939&c=365633&tp_c=365633","heads":2,"tails":2,"studentIndex":4,"studentTrueHypers":{"a":4,"b":1},"studentGuess":0.6666666666666666,"delta":0.16666666666666663,"totalExamples":4,"bonus":0,"bonusSoFar":0.72},{"rt":12488,"response":{"heads":"1","tails":"1"},"type":"response","condition":"nonSeqPartial","trueTheta":0.5,"classrooms":["A","B"],"studentTrueClassroom":"B","exampleSet":"first","trial_type":"survey-html-form","trial_index":41,"time_elapsed":402796,"internal_node_id":"0.0-40.0-0.0","params":{"nStudents":24,"maxFlips":25,"completionMinutes":45,"basePay":8,"maxBonus":9,"perTrialBonus":0.5,"perTrialBonusThreshold":0.05,"exampleCost":0.02},"classroomParams":{"A":{"a":1,"b":4},"B":{"a":4,"b":1},"C":{"a":2,"b":8},"D":{"a":8,"b":2}},"conditions":["nonSeqFull","nonSeqPartial","seqNoFeedback","seqFeedback"],"classroomPairings":[["A","B"],["C","D"]],"coinWeights":[0.2,0.5,0.8],"subjectId":"A3LFVI65XV1T46","assignmentId":"3VSOLARPKCVPRD4LHY5UK1OAUDS939","hitId":"39WICJI5ATE2BKO4UUUR86UGAV2Z3G","url":"https://gershmanlab.com/experiments/alicia/teaching/experiment/?hitId=39WICJI5ATE2BKO4UUUR86UGAV2Z3G&workerId=A3LFVI65XV1T46&assignmentId=3VSOLARPKCVPRD4LHY5UK1OAUDS939&a=PLSV3&tp_a=PLSV3&b=3VSOLARPKCVPRD4LHY5UK1OAUDS939&tp_b=3VSOLARPKCVPRD4LHY5UK1OAUDS939&c=365633&tp_c=365633","heads":1,"tails":1,"studentIndex":5,"studentTrueHypers":{"a":4,"b":1},"studentGuess":0.7142857142857143,"delta":0.2142857142857143,"totalExamples":2,"bonus":0,"bonusSoFar":0.72},{"rt":11200,"response":{"heads":"3","tails":"2"},"type":"response","condition":"seqFeedback","trueTheta":0.5,"classrooms":["C","D"],"studentTrueClassroom":"C","exampleSet":"first","trial_type":"survey-html-form","trial_index":47,"time_elapsed":431548,"internal_node_id":"0.0-46.0-0.0","params":{"nStudents":24,"maxFlips":25,"completionMinutes":45,"basePay":8,"maxBonus":9,"perTrialBonus":0.5,"perTrialBonusThreshold":0.05,"exampleCost":0.02},"classroomParams":{"A":{"a":1,"b":4},"B":{"a":4,"b":1},"C":{"a":2,"b":8},"D":{"a":8,"b":2}},"conditions":["nonSeqFull","nonSeqPartial","seqNoFeedback","seqFeedback"],"classroomPairings":[["A","B"],["C","D"]],"coinWeights":[0.2,0.5,0.8],"subjectId":"A3LFVI65XV1T46","assignmentId":"3VSOLARPKCVPRD4LHY5UK1OAUDS939","hitId":"39WICJI5ATE2BKO4UUUR86UGAV2Z3G","url":"https://gershmanlab.com/experiments/alicia/teaching/experiment/?hitId=39WICJI5ATE2BKO4UUUR86UGAV2Z3G&workerId=A3LFVI65XV1T46&assignmentId=3VSOLARPKCVPRD4LHY5UK1OAUDS939&a=PLSV3&tp_a=PLSV3&b=3VSOLARPKCVPRD4LHY5UK1OAUDS939&tp_b=3VSOLARPKCVPRD4LHY5UK1OAUDS939&c=365633&tp_c=365633","heads":3,"tails":2,"studentIndex":6,"studentTrueHypers":{"a":2,"b":8},"studentGuess":0.3333333333333333,"delta":0.16666666666666669,"totalExamples":5,"bonusSoFar":0.72},{"rt":5114,"response":{"heads":"2","tails":"3"},"type":"response","condition":"seqFeedback","trueTheta":0.5,"classrooms":["C","D"],"studentTrueClassroom":"C","exampleSet":"second","trial_type":"survey-html-form","trial_index":51,"time_elapsed":447581,"internal_node_id":"0.0-50.0-0.0","params":{"nStudents":24,"maxFlips":25,"completionMinutes":45,"basePay":8,"maxBonus":9,"perTrialBonus":0.5,"perTrialBonusThreshold":0.05,"exampleCost":0.02},"classroomParams":{"A":{"a":1,"b":4},"B":{"a":4,"b":1},"C":{"a":2,"b":8},"D":{"a":8,"b":2}},"conditions":["nonSeqFull","nonSeqPartial","seqNoFeedback","seqFeedback"],"classroomPairings":[["A","B"],["C","D"]],"coinWeights":[0.2,0.5,0.8],"subjectId":"A3LFVI65XV1T46","assignmentId":"3VSOLARPKCVPRD4LHY5UK1OAUDS939","hitId":"39WICJI5ATE2BKO4UUUR86UGAV2Z3G","url":"https://gershmanlab.com/experiments/alicia/teaching/experiment/?hitId=39WICJI5ATE2BKO4UUUR86UGAV2Z3G&workerId=A3LFVI65XV1T46&assignmentId=3VSOLARPKCVPRD4LHY5UK1OAUDS939&a=PLSV3&tp_a=PLSV3&b=3VSOLARPKCVPRD4LHY5UK1OAUDS939&tp_b=3VSOLARPKCVPRD4LHY5UK1OAUDS939&c=365633&tp_c=365633","firstResponseHeads":3,"firstResponseTails":2,"secondResponseHeads":2,"secondResponseTails":3,"totalHeads":5,"totalTails":5,"studentIndex":6,"studentTrueHypers":{"a":2,"b":8},"studentGuess":0.35,"delta":0.15000000000000002,"bonus":0,"bonusSoFar":0.72,"totalExamples":10},{"rt":5794,"response":{"heads":"4","tails":"1"},"type":"response","condition":"nonSeqPartial","trueTheta":0.8,"classrooms":["A","B"],"studentTrueClassroom":"A","exampleSet":"first","trial_type":"survey-html-form","trial_index":57,"time_elapsed":468006,"internal_node_id":"0.0-56.0-0.0","params":{"nStudents":24,"maxFlips":25,"completionMinutes":45,"basePay":8,"maxBonus":9,"perTrialBonus":0.5,"perTrialBonusThreshold":0.05,"exampleCost":0.02},"classroomParams":{"A":{"a":1,"b":4},"B":{"a":4,"b":1},"C":{"a":2,"b":8},"D":{"a":8,"b":2}},"conditions":["nonSeqFull","nonSeqPartial","seqNoFeedback","seqFeedback"],"classroomPairings":[["A","B"],["C","D"]],"coinWeights":[0.2,0.5,0.8],"subjectId":"A3LFVI65XV1T46","assignmentId":"3VSOLARPKCVPRD4LHY5UK1OAUDS939","hitId":"39WICJI5ATE2BKO4UUUR86UGAV2Z3G","url":"https://gershmanlab.com/experiments/alicia/teaching/experiment/?hitId=39WICJI5ATE2BKO4UUUR86UGAV2Z3G&workerId=A3LFVI65XV1T46&assignmentId=3VSOLARPKCVPRD4LHY5UK1OAUDS939&a=PLSV3&tp_a=PLSV3&b=3VSOLARPKCVPRD4LHY5UK1OAUDS939&tp_b=3VSOLARPKCVPRD4LHY5UK1OAUDS939&c=365633&tp_c=365633","heads":4,"tails":1,"studentIndex":7,"studentTrueHypers":{"a":1,"b":4},"studentGuess":0.5,"delta":0.30000000000000004,"totalExamples":5,"bonus":0,"bonusSoFar":0.72},{"rt":6706,"response":{"heads":"5","tails":"1"},"type":"response","condition":"seqFeedback","trueTheta":0.8,"classrooms":["A","B"],"studentTrueClassroom":"B","exampleSet":"first","trial_type":"survey-html-form","trial_index":63,"time_elapsed":488808,"internal_node_id":"0.0-62.0-0.0","params":{"nStudents":24,"maxFlips":25,"completionMinutes":45,"basePay":8,"maxBonus":9,"perTrialBonus":0.5,"perTrialBonusThreshold":0.05,"exampleCost":0.02},"classroomParams":{"A":{"a":1,"b":4},"B":{"a":4,"b":1},"C":{"a":2,"b":8},"D":{"a":8,"b":2}},"conditions":["nonSeqFull","nonSeqPartial","seqNoFeedback","seqFeedback"],"classroomPairings":[["A","B"],["C","D"]],"coinWeights":[0.2,0.5,0.8],"subjectId":"A3LFVI65XV1T46","assignmentId":"3VSOLARPKCVPRD4LHY5UK1OAUDS939","hitId":"39WICJI5ATE2BKO4UUUR86UGAV2Z3G","url":"https://gershmanlab.com/experiments/alicia/teaching/experiment/?hitId=39WICJI5ATE2BKO4UUUR86UGAV2Z3G&workerId=A3LFVI65XV1T46&assignmentId=3VSOLARPKCVPRD4LHY5UK1OAUDS939&a=PLSV3&tp_a=PLSV3&b=3VSOLARPKCVPRD4LHY5UK1OAUDS939&tp_b=3VSOLARPKCVPRD4LHY5UK1OAUDS939&c=365633&tp_c=365633","heads":5,"tails":1,"studentIndex":8,"studentTrueHypers":{"a":4,"b":1},"studentGuess":0.8181818181818182,"delta":0.018181818181818188,"totalExamples":6,"bonusSoFar":0.72},{"rt":5553,"response":{"heads":"5","tails":"1"},"type":"response","condition":"seqFeedback","trueTheta":0.8,"classrooms":["A","B"],"studentTrueClassroom":"B","exampleSet":"second","trial_type":"survey-html-form","trial_index":67,"time_elapsed":504268,"internal_node_id":"0.0-66.0-0.0","params":{"nStudents":24,"maxFlips":25,"completionMinutes":45,"basePay":8,"maxBonus":9,"perTrialBonus":0.5,"perTrialBonusThreshold":0.05,"exampleCost":0.02},"classroomParams":{"A":{"a":1,"b":4},"B":{"a":4,"b":1},"C":{"a":2,"b":8},"D":{"a":8,"b":2}},"conditions":["nonSeqFull","nonSeqPartial","seqNoFeedback","seqFeedback"],"classroomPairings":[["A","B"],["C","D"]],"coinWeights":[0.2,0.5,0.8],"subjectId":"A3LFVI65XV1T46","assignmentId":"3VSOLARPKCVPRD4LHY5UK1OAUDS939","hitId":"39WICJI5ATE2BKO4UUUR86UGAV2Z3G","url":"https://gershmanlab.com/experiments/alicia/teaching/experiment/?hitId=39WICJI5ATE2BKO4UUUR86UGAV2Z3G&workerId=A3LFVI65XV1T46&assignmentId=3VSOLARPKCVPRD4LHY5UK1OAUDS939&a=PLSV3&tp_a=PLSV3&b=3VSOLARPKCVPRD4LHY5UK1OAUDS939&tp_b=3VSOLARPKCVPRD4LHY5UK1OAUDS939&c=365633&tp_c=365633","firstResponseHeads":5,"firstResponseTails":1,"secondResponseHeads":5,"secondResponseTails":1,"totalHeads":10,"totalTails":2,"studentIndex":8,"studentTrueHypers":{"a":4,"b":1},"studentGuess":0.8235294117647058,"delta":0.0235294117647058,"bonus":0.26,"bonusSoFar":0.98,"totalExamples":12},{"rt":11336,"response":{"heads":"6","tails":"1"},"type":"response","condition":"seqNoFeedback","trueTheta":0.8,"classrooms":["C","D"],"studentTrueClassroom":"D","exampleSet":"first","trial_type":"survey-html-form","trial_index":73,"time_elapsed":528845,"internal_node_id":"0.0-72.0-0.0","params":{"nStudents":24,"maxFlips":25,"completionMinutes":45,"basePay":8,"maxBonus":9,"perTrialBonus":0.5,"perTrialBonusThreshold":0.05,"exampleCost":0.02},"classroomParams":{"A":{"a":1,"b":4},"B":{"a":4,"b":1},"C":{"a":2,"b":8},"D":{"a":8,"b":2}},"conditions":["nonSeqFull","nonSeqPartial","seqNoFeedback","seqFeedback"],"classroomPairings":[["A","B"],["C","D"]],"coinWeights":[0.2,0.5,0.8],"subjectId":"A3LFVI65XV1T46","assignmentId":"3VSOLARPKCVPRD4LHY5UK1OAUDS939","hitId":"39WICJI5ATE2BKO4UUUR86UGAV2Z3G","url":"https://gershmanlab.com/experiments/alicia/teaching/experiment/?hitId=39WICJI5ATE2BKO4UUUR86UGAV2Z3G&workerId=A3LFVI65XV1T46&assignmentId=3VSOLARPKCVPRD4LHY5UK1OAUDS939&a=PLSV3&tp_a=PLSV3&b=3VSOLARPKCVPRD4LHY5UK1OAUDS939&tp_b=3VSOLARPKCVPRD4LHY5UK1OAUDS939&c=365633&tp_c=365633","heads":6,"tails":1,"studentIndex":9,"studentTrueHypers":{"a":8,"b":2},"studentGuess":0.8235294117647058,"delta":0.0235294117647058,"totalExamples":7,"bonusSoFar":0.98},{"rt":10884,"response":{"heads":"5","tails":"2"},"type":"response","condition":"seqNoFeedback","trueTheta":0.8,"classrooms":["C","D"],"studentTrueClassroom":"D","exampleSet":"second","trial_type":"survey-html-form","trial_index":76,"time_elapsed":545765,"internal_node_id":"0.0-75.0-0.0","params":{"nStudents":24,"maxFlips":25,"completionMinutes":45,"basePay":8,"maxBonus":9,"perTrialBonus":0.5,"perTrialBonusThreshold":0.05,"exampleCost":0.02},"classroomParams":{"A":{"a":1,"b":4},"B":{"a":4,"b":1},"C":{"a":2,"b":8},"D":{"a":8,"b":2}},"conditions":["nonSeqFull","nonSeqPartial","seqNoFeedback","seqFeedback"],"classroomPairings":[["A","B"],["C","D"]],"coinWeights":[0.2,0.5,0.8],"subjectId":"A3LFVI65XV1T46","assignmentId":"3VSOLARPKCVPRD4LHY5UK1OAUDS939","hitId":"39WICJI5ATE2BKO4UUUR86UGAV2Z3G","url":"https://gershmanlab.com/experiments/alicia/teaching/experiment/?hitId=39WICJI5ATE2BKO4UUUR86UGAV2Z3G&workerId=A3LFVI65XV1T46&assignmentId=3VSOLARPKCVPRD4LHY5UK1OAUDS939&a=PLSV3&tp_a=PLSV3&b=3VSOLARPKCVPRD4LHY5UK1OAUDS939&tp_b=3VSOLARPKCVPRD4LHY5UK1OAUDS939&c=365633&tp_c=365633","firstResponseHeads":6,"firstResponseTails":1,"secondResponseHeads":5,"secondResponseTails":2,"totalHeads":11,"totalTails":3,"studentIndex":9,"studentTrueHypers":{"a":8,"b":2},"studentGuess":0.7916666666666666,"delta":0.008333333333333415,"bonus":0.22,"bonusSoFar":1.2,"totalExamples":14},{"rt":4424,"response":{"heads":"5","tails":"2"},"type":"response","condition":"nonSeqFull","trueTheta":0.8,"classrooms":["C","D"],"studentTrueClassroom":"D","exampleSet":"first","trial_type":"survey-html-form","trial_index":82,"time_elapsed":566372,"internal_node_id":"0.0-81.0-0.0","params":{"nStudents":24,"maxFlips":25,"completionMinutes":45,"basePay":8,"maxBonus":9,"perTrialBonus":0.5,"perTrialBonusThreshold":0.05,"exampleCost":0.02},"classroomParams":{"A":{"a":1,"b":4},"B":{"a":4,"b":1},"C":{"a":2,"b":8},"D":{"a":8,"b":2}},"conditions":["nonSeqFull","nonSeqPartial","seqNoFeedback","seqFeedback"],"classroomPairings":[["A","B"],["C","D"]],"coinWeights":[0.2,0.5,0.8],"subjectId":"A3LFVI65XV1T46","assignmentId":"3VSOLARPKCVPRD4LHY5UK1OAUDS939","hitId":"39WICJI5ATE2BKO4UUUR86UGAV2Z3G","url":"https://gershmanlab.com/experiments/alicia/teaching/experiment/?hitId=39WICJI5ATE2BKO4UUUR86UGAV2Z3G&workerId=A3LFVI65XV1T46&assignmentId=3VSOLARPKCVPRD4LHY5UK1OAUDS939&a=PLSV3&tp_a=PLSV3&b=3VSOLARPKCVPRD4LHY5UK1OAUDS939&tp_b=3VSOLARPKCVPRD4LHY5UK1OAUDS939&c=365633&tp_c=365633","heads":5,"tails":2,"studentIndex":10,"studentTrueHypers":{"a":8,"b":2},"studentGuess":0.7647058823529411,"delta":0.03529411764705892,"totalExamples":7,"bonus":0.36,"bonusSoFar":1.56},{"rt":10728,"response":{"heads":"6","tails":"2"},"type":"response","condition":"seqNoFeedback","trueTheta":0.8,"classrooms":["A","B"],"studentTrueClassroom":"A","exampleSet":"first","trial_type":"survey-html-form","trial_index":88,"time_elapsed":590236,"internal_node_id":"0.0-87.0-0.0","params":{"nStudents":24,"maxFlips":25,"completionMinutes":45,"basePay":8,"maxBonus":9,"perTrialBonus":0.5,"perTrialBonusThreshold":0.05,"exampleCost":0.02},"classroomParams":{"A":{"a":1,"b":4},"B":{"a":4,"b":1},"C":{"a":2,"b":8},"D":{"a":8,"b":2}},"conditions":["nonSeqFull","nonSeqPartial","seqNoFeedback","seqFeedback"],"classroomPairings":[["A","B"],["C","D"]],"coinWeights":[0.2,0.5,0.8],"subjectId":"A3LFVI65XV1T46","assignmentId":"3VSOLARPKCVPRD4LHY5UK1OAUDS939","hitId":"39WICJI5ATE2BKO4UUUR86UGAV2Z3G","url":"https://gershmanlab.com/experiments/alicia/teaching/experiment/?hitId=39WICJI5ATE2BKO4UUUR86UGAV2Z3G&workerId=A3LFVI65XV1T46&assignmentId=3VSOLARPKCVPRD4LHY5UK1OAUDS939&a=PLSV3&tp_a=PLSV3&b=3VSOLARPKCVPRD4LHY5UK1OAUDS939&tp_b=3VSOLARPKCVPRD4LHY5UK1OAUDS939&c=365633&tp_c=365633","heads":6,"tails":2,"studentIndex":11,"studentTrueHypers":{"a":1,"b":4},"studentGuess":0.5384615384615384,"delta":0.2615384615384616,"totalExamples":8,"bonusSoFar":1.56},{"rt":6596,"response":{"heads":"5","tails":"2"},"type":"response","condition":"seqNoFeedback","trueTheta":0.8,"classrooms":["A","B"],"studentTrueClassroom":"A","exampleSet":"second","trial_type":"survey-html-form","trial_index":91,"time_elapsed":603349,"internal_node_id":"0.0-90.0-0.0","params":{"nStudents":24,"maxFlips":25,"completionMinutes":45,"basePay":8,"maxBonus":9,"perTrialBonus":0.5,"perTrialBonusThreshold":0.05,"exampleCost":0.02},"classroomParams":{"A":{"a":1,"b":4},"B":{"a":4,"b":1},"C":{"a":2,"b":8},"D":{"a":8,"b":2}},"conditions":["nonSeqFull","nonSeqPartial","seqNoFeedback","seqFeedback"],"classroomPairings":[["A","B"],["C","D"]],"coinWeights":[0.2,0.5,0.8],"subjectId":"A3LFVI65XV1T46","assignmentId":"3VSOLARPKCVPRD4LHY5UK1OAUDS939","hitId":"39WICJI5ATE2BKO4UUUR86UGAV2Z3G","url":"https://gershmanlab.com/experiments/alicia/teaching/experiment/?hitId=39WICJI5ATE2BKO4UUUR86UGAV2Z3G&workerId=A3LFVI65XV1T46&assignmentId=3VSOLARPKCVPRD4LHY5UK1OAUDS939&a=PLSV3&tp_a=PLSV3&b=3VSOLARPKCVPRD4LHY5UK1OAUDS939&tp_b=3VSOLARPKCVPRD4LHY5UK1OAUDS939&c=365633&tp_c=365633","firstResponseHeads":6,"firstResponseTails":2,"secondResponseHeads":5,"secondResponseTails":2,"totalHeads":11,"totalTails":4,"studentIndex":11,"studentTrueHypers":{"a":1,"b":4},"studentGuess":0.6,"delta":0.20000000000000007,"bonus":0,"bonusSoFar":1.56,"totalExamples":15},{"rt":5080,"response":{"heads":"6","tails":"1"},"type":"response","condition":"nonSeqFull","trueTheta":0.8,"classrooms":["A","B"],"studentTrueClassroom":"A","exampleSet":"first","trial_type":"survey-html-form","trial_index":97,"time_elapsed":622572,"internal_node_id":"0.0-96.0-0.0","params":{"nStudents":24,"maxFlips":25,"completionMinutes":45,"basePay":8,"maxBonus":9,"perTrialBonus":0.5,"perTrialBonusThreshold":0.05,"exampleCost":0.02},"classroomParams":{"A":{"a":1,"b":4},"B":{"a":4,"b":1},"C":{"a":2,"b":8},"D":{"a":8,"b":2}},"conditions":["nonSeqFull","nonSeqPartial","seqNoFeedback","seqFeedback"],"classroomPairings":[["A","B"],["C","D"]],"coinWeights":[0.2,0.5,0.8],"subjectId":"A3LFVI65XV1T46","assignmentId":"3VSOLARPKCVPRD4LHY5UK1OAUDS939","hitId":"39WICJI5ATE2BKO4UUUR86UGAV2Z3G","url":"https://gershmanlab.com/experiments/alicia/teaching/experiment/?hitId=39WICJI5ATE2BKO4UUUR86UGAV2Z3G&workerId=A3LFVI65XV1T46&assignmentId=3VSOLARPKCVPRD4LHY5UK1OAUDS939&a=PLSV3&tp_a=PLSV3&b=3VSOLARPKCVPRD4LHY5UK1OAUDS939&tp_b=3VSOLARPKCVPRD4LHY5UK1OAUDS939&c=365633&tp_c=365633","heads":6,"tails":1,"studentIndex":12,"studentTrueHypers":{"a":1,"b":4},"studentGuess":0.5833333333333334,"delta":0.21666666666666667,"totalExamples":7,"bonus":0,"bonusSoFar":1.56},{"rt":7832,"response":{"heads":"4","tails":"2"},"type":"response","condition":"nonSeqFull","trueTheta":0.2,"classrooms":["C","D"],"studentTrueClassroom":"C","exampleSet":"first","trial_type":"survey-html-form","trial_index":103,"time_elapsed":645796,"internal_node_id":"0.0-102.0-0.0","params":{"nStudents":24,"maxFlips":25,"completionMinutes":45,"basePay":8,"maxBonus":9,"perTrialBonus":0.5,"perTrialBonusThreshold":0.05,"exampleCost":0.02},"classroomParams":{"A":{"a":1,"b":4},"B":{"a":4,"b":1},"C":{"a":2,"b":8},"D":{"a":8,"b":2}},"conditions":["nonSeqFull","nonSeqPartial","seqNoFeedback","seqFeedback"],"classroomPairings":[["A","B"],["C","D"]],"coinWeights":[0.2,0.5,0.8],"subjectId":"A3LFVI65XV1T46","assignmentId":"3VSOLARPKCVPRD4LHY5UK1OAUDS939","hitId":"39WICJI5ATE2BKO4UUUR86UGAV2Z3G","url":"https://gershmanlab.com/experiments/alicia/teaching/experiment/?hitId=39WICJI5ATE2BKO4UUUR86UGAV2Z3G&workerId=A3LFVI65XV1T46&assignmentId=3VSOLARPKCVPRD4LHY5UK1OAUDS939&a=PLSV3&tp_a=PLSV3&b=3VSOLARPKCVPRD4LHY5UK1OAUDS939&tp_b=3VSOLARPKCVPRD4LHY5UK1OAUDS939&c=365633&tp_c=365633","heads":4,"tails":2,"studentIndex":13,"studentTrueHypers":{"a":2,"b":8},"studentGuess":0.375,"delta":0.175,"totalExamples":6,"bonus":0,"bonusSoFar":1.56},{"rt":5977,"response":{"heads":"4","tails":"4"},"type":"response","condition":"seqNoFeedback","trueTheta":0.5,"classrooms":["A","B"],"studentTrueClassroom":"B","exampleSet":"first","trial_type":"survey-html-form","trial_index":109,"time_elapsed":664621,"internal_node_id":"0.0-108.0-0.0","params":{"nStudents":24,"maxFlips":25,"completionMinutes":45,"basePay":8,"maxBonus":9,"perTrialBonus":0.5,"perTrialBonusThreshold":0.05,"exampleCost":0.02},"classroomParams":{"A":{"a":1,"b":4},"B":{"a":4,"b":1},"C":{"a":2,"b":8},"D":{"a":8,"b":2}},"conditions":["nonSeqFull","nonSeqPartial","seqNoFeedback","seqFeedback"],"classroomPairings":[["A","B"],["C","D"]],"coinWeights":[0.2,0.5,0.8],"subjectId":"A3LFVI65XV1T46","assignmentId":"3VSOLARPKCVPRD4LHY5UK1OAUDS939","hitId":"39WICJI5ATE2BKO4UUUR86UGAV2Z3G","url":"https://gershmanlab.com/experiments/alicia/teaching/experiment/?hitId=39WICJI5ATE2BKO4UUUR86UGAV2Z3G&workerId=A3LFVI65XV1T46&assignmentId=3VSOLARPKCVPRD4LHY5UK1OAUDS939&a=PLSV3&tp_a=PLSV3&b=3VSOLARPKCVPRD4LHY5UK1OAUDS939&tp_b=3VSOLARPKCVPRD4LHY5UK1OAUDS939&c=365633&tp_c=365633","heads":4,"tails":4,"studentIndex":14,"studentTrueHypers":{"a":4,"b":1},"studentGuess":0.6153846153846154,"delta":0.11538461538461542,"totalExamples":8,"bonusSoFar":1.56},{"rt":8424,"response":{"heads":"5","tails":"5"},"type":"response","condition":"seqNoFeedback","trueTheta":0.5,"classrooms":["A","B"],"studentTrueClassroom":"B","exampleSet":"second","trial_type":"survey-html-form","trial_index":112,"time_elapsed":680811,"internal_node_id":"0.0-111.0-0.0","params":{"nStudents":24,"maxFlips":25,"completionMinutes":45,"basePay":8,"maxBonus":9,"perTrialBonus":0.5,"perTrialBonusThreshold":0.05,"exampleCost":0.02},"classroomParams":{"A":{"a":1,"b":4},"B":{"a":4,"b":1},"C":{"a":2,"b":8},"D":{"a":8,"b":2}},"conditions":["nonSeqFull","nonSeqPartial","seqNoFeedback","seqFeedback"],"classroomPairings":[["A","B"],["C","D"]],"coinWeights":[0.2,0.5,0.8],"subjectId":"A3LFVI65XV1T46","assignmentId":"3VSOLARPKCVPRD4LHY5UK1OAUDS939","hitId":"39WICJI5ATE2BKO4UUUR86UGAV2Z3G","url":"https://gershmanlab.com/experiments/alicia/teaching/experiment/?hitId=39WICJI5ATE2BKO4UUUR86UGAV2Z3G&workerId=A3LFVI65XV1T46&assignmentId=3VSOLARPKCVPRD4LHY5UK1OAUDS939&a=PLSV3&tp_a=PLSV3&b=3VSOLARPKCVPRD4LHY5UK1OAUDS939&tp_b=3VSOLARPKCVPRD4LHY5UK1OAUDS939&c=365633&tp_c=365633","firstResponseHeads":4,"firstResponseTails":4,"secondResponseHeads":5,"secondResponseTails":5,"totalHeads":9,"totalTails":9,"studentIndex":14,"studentTrueHypers":{"a":4,"b":1},"studentGuess":0.5652173913043478,"delta":0.06521739130434778,"bonus":0,"bonusSoFar":1.56,"totalExamples":18},{"rt":5697,"response":{"heads":"4","tails":"3"},"type":"response","condition":"seqFeedback","trueTheta":0.5,"classrooms":["A","B"],"studentTrueClassroom":"A","exampleSet":"first","trial_type":"survey-html-form","trial_index":118,"time_elapsed":699204,"internal_node_id":"0.0-117.0-0.0","params":{"nStudents":24,"maxFlips":25,"completionMinutes":45,"basePay":8,"maxBonus":9,"perTrialBonus":0.5,"perTrialBonusThreshold":0.05,"exampleCost":0.02},"classroomParams":{"A":{"a":1,"b":4},"B":{"a":4,"b":1},"C":{"a":2,"b":8},"D":{"a":8,"b":2}},"conditions":["nonSeqFull","nonSeqPartial","seqNoFeedback","seqFeedback"],"classroomPairings":[["A","B"],["C","D"]],"coinWeights":[0.2,0.5,0.8],"subjectId":"A3LFVI65XV1T46","assignmentId":"3VSOLARPKCVPRD4LHY5UK1OAUDS939","hitId":"39WICJI5ATE2BKO4UUUR86UGAV2Z3G","url":"https://gershmanlab.com/experiments/alicia/teaching/experiment/?hitId=39WICJI5ATE2BKO4UUUR86UGAV2Z3G&workerId=A3LFVI65XV1T46&assignmentId=3VSOLARPKCVPRD4LHY5UK1OAUDS939&a=PLSV3&tp_a=PLSV3&b=3VSOLARPKCVPRD4LHY5UK1OAUDS939&tp_b=3VSOLARPKCVPRD4LHY5UK1OAUDS939&c=365633&tp_c=365633","heads":4,"tails":3,"studentIndex":15,"studentTrueHypers":{"a":1,"b":4},"studentGuess":0.4166666666666667,"delta":0.08333333333333331,"totalExamples":7,"bonusSoFar":1.56},{"rt":5569,"response":{"heads":"3","tails":"4"},"type":"response","condition":"seqFeedback","trueTheta":0.5,"classrooms":["A","B"],"studentTrueClassroom":"A","exampleSet":"second","trial_type":"survey-html-form","trial_index":122,"time_elapsed":714011,"internal_node_id":"0.0-121.0-0.0","params":{"nStudents":24,"maxFlips":25,"completionMinutes":45,"basePay":8,"maxBonus":9,"perTrialBonus":0.5,"perTrialBonusThreshold":0.05,"exampleCost":0.02},"classroomParams":{"A":{"a":1,"b":4},"B":{"a":4,"b":1},"C":{"a":2,"b":8},"D":{"a":8,"b":2}},"conditions":["nonSeqFull","nonSeqPartial","seqNoFeedback","seqFeedback"],"classroomPairings":[["A","B"],["C","D"]],"coinWeights":[0.2,0.5,0.8],"subjectId":"A3LFVI65XV1T46","assignmentId":"3VSOLARPKCVPRD4LHY5UK1OAUDS939","hitId":"39WICJI5ATE2BKO4UUUR86UGAV2Z3G","url":"https://gershmanlab.com/experiments/alicia/teaching/experiment/?hitId=39WICJI5ATE2BKO4UUUR86UGAV2Z3G&workerId=A3LFVI65XV1T46&assignmentId=3VSOLARPKCVPRD4LHY5UK1OAUDS939&a=PLSV3&tp_a=PLSV3&b=3VSOLARPKCVPRD4LHY5UK1OAUDS939&tp_b=3VSOLARPKCVPRD4LHY5UK1OAUDS939&c=365633&tp_c=365633","firstResponseHeads":4,"firstResponseTails":3,"secondResponseHeads":3,"secondResponseTails":4,"totalHeads":7,"totalTails":7,"studentIndex":15,"studentTrueHypers":{"a":1,"b":4},"studentGuess":0.42105263157894735,"delta":0.07894736842105265,"bonus":0,"bonusSoFar":1.56,"totalExamples":14},{"rt":4967,"response":{"heads":"6","tails":"2"},"type":"response","condition":"nonSeqPartial","trueTheta":0.8,"classrooms":["C","D"],"studentTrueClassroom":"C","exampleSet":"first","trial_type":"survey-html-form","trial_index":128,"time_elapsed":734004,"internal_node_id":"0.0-127.0-0.0","params":{"nStudents":24,"maxFlips":25,"completionMinutes":45,"basePay":8,"maxBonus":9,"perTrialBonus":0.5,"perTrialBonusThreshold":0.05,"exampleCost":0.02},"classroomParams":{"A":{"a":1,"b":4},"B":{"a":4,"b":1},"C":{"a":2,"b":8},"D":{"a":8,"b":2}},"conditions":["nonSeqFull","nonSeqPartial","seqNoFeedback","seqFeedback"],"classroomPairings":[["A","B"],["C","D"]],"coinWeights":[0.2,0.5,0.8],"subjectId":"A3LFVI65XV1T46","assignmentId":"3VSOLARPKCVPRD4LHY5UK1OAUDS939","hitId":"39WICJI5ATE2BKO4UUUR86UGAV2Z3G","url":"https://gershmanlab.com/experiments/alicia/teaching/experiment/?hitId=39WICJI5ATE2BKO4UUUR86UGAV2Z3G&workerId=A3LFVI65XV1T46&assignmentId=3VSOLARPKCVPRD4LHY5UK1OAUDS939&a=PLSV3&tp_a=PLSV3&b=3VSOLARPKCVPRD4LHY5UK1OAUDS939&tp_b=3VSOLARPKCVPRD4LHY5UK1OAUDS939&c=365633&tp_c=365633","heads":6,"tails":2,"studentIndex":16,"studentTrueHypers":{"a":2,"b":8},"studentGuess":0.4444444444444444,"delta":0.3555555555555556,"totalExamples":8,"bonus":0,"bonusSoFar":1.56},{"rt":13400,"response":{"heads":"8","tails":"4"},"type":"response","condition":"seqNoFeedback","trueTheta":0.2,"classrooms":["A","B"],"studentTrueClassroom":"B","exampleSet":"first","trial_type":"survey-html-form","trial_index":134,"time_elapsed":761028,"internal_node_id":"0.0-133.0-0.0","params":{"nStudents":24,"maxFlips":25,"completionMinutes":45,"basePay":8,"maxBonus":9,"perTrialBonus":0.5,"perTrialBonusThreshold":0.05,"exampleCost":0.02},"classroomParams":{"A":{"a":1,"b":4},"B":{"a":4,"b":1},"C":{"a":2,"b":8},"D":{"a":8,"b":2}},"conditions":["nonSeqFull","nonSeqPartial","seqNoFeedback","seqFeedback"],"classroomPairings":[["A","B"],["C","D"]],"coinWeights":[0.2,0.5,0.8],"subjectId":"A3LFVI65XV1T46","assignmentId":"3VSOLARPKCVPRD4LHY5UK1OAUDS939","hitId":"39WICJI5ATE2BKO4UUUR86UGAV2Z3G","url":"https://gershmanlab.com/experiments/alicia/teaching/experiment/?hitId=39WICJI5ATE2BKO4UUUR86UGAV2Z3G&workerId=A3LFVI65XV1T46&assignmentId=3VSOLARPKCVPRD4LHY5UK1OAUDS939&a=PLSV3&tp_a=PLSV3&b=3VSOLARPKCVPRD4LHY5UK1OAUDS939&tp_b=3VSOLARPKCVPRD4LHY5UK1OAUDS939&c=365633&tp_c=365633","heads":8,"tails":4,"studentIndex":17,"studentTrueHypers":{"a":4,"b":1},"studentGuess":0.7058823529411765,"delta":0.5058823529411764,"totalExamples":12,"bonusSoFar":1.56},{"rt":6042,"response":{"heads":"7","tails":"3"},"type":"response","condition":"seqNoFeedback","trueTheta":0.2,"classrooms":["A","B"],"studentTrueClassroom":"B","exampleSet":"second","trial_type":"survey-html-form","trial_index":137,"time_elapsed":774091,"internal_node_id":"0.0-136.0-0.0","params":{"nStudents":24,"maxFlips":25,"completionMinutes":45,"basePay":8,"maxBonus":9,"perTrialBonus":0.5,"perTrialBonusThreshold":0.05,"exampleCost":0.02},"classroomParams":{"A":{"a":1,"b":4},"B":{"a":4,"b":1},"C":{"a":2,"b":8},"D":{"a":8,"b":2}},"conditions":["nonSeqFull","nonSeqPartial","seqNoFeedback","seqFeedback"],"classroomPairings":[["A","B"],["C","D"]],"coinWeights":[0.2,0.5,0.8],"subjectId":"A3LFVI65XV1T46","assignmentId":"3VSOLARPKCVPRD4LHY5UK1OAUDS939","hitId":"39WICJI5ATE2BKO4UUUR86UGAV2Z3G","url":"https://gershmanlab.com/experiments/alicia/teaching/experiment/?hitId=39WICJI5ATE2BKO4UUUR86UGAV2Z3G&workerId=A3LFVI65XV1T46&assignmentId=3VSOLARPKCVPRD4LHY5UK1OAUDS939&a=PLSV3&tp_a=PLSV3&b=3VSOLARPKCVPRD4LHY5UK1OAUDS939&tp_b=3VSOLARPKCVPRD4LHY5UK1OAUDS939&c=365633&tp_c=365633","firstResponseHeads":8,"firstResponseTails":4,"secondResponseHeads":7,"secondResponseTails":3,"totalHeads":15,"totalTails":7,"studentIndex":17,"studentTrueHypers":{"a":4,"b":1},"studentGuess":0.7037037037037037,"delta":0.5037037037037038,"bonus":0,"bonusSoFar":1.56,"totalExamples":22},{"rt":8048,"response":{"heads":"10","tails":"2"},"type":"response","condition":"seqFeedback","trueTheta":0.8,"classrooms":["C","D"],"studentTrueClassroom":"D","exampleSet":"first","trial_type":"survey-html-form","trial_index":143,"time_elapsed":797324,"internal_node_id":"0.0-142.0-0.0","params":{"nStudents":24,"maxFlips":25,"completionMinutes":45,"basePay":8,"maxBonus":9,"perTrialBonus":0.5,"perTrialBonusThreshold":0.05,"exampleCost":0.02},"classroomParams":{"A":{"a":1,"b":4},"B":{"a":4,"b":1},"C":{"a":2,"b":8},"D":{"a":8,"b":2}},"conditions":["nonSeqFull","nonSeqPartial","seqNoFeedback","seqFeedback"],"classroomPairings":[["A","B"],["C","D"]],"coinWeights":[0.2,0.5,0.8],"subjectId":"A3LFVI65XV1T46","assignmentId":"3VSOLARPKCVPRD4LHY5UK1OAUDS939","hitId":"39WICJI5ATE2BKO4UUUR86UGAV2Z3G","url":"https://gershmanlab.com/experiments/alicia/teaching/experiment/?hitId=39WICJI5ATE2BKO4UUUR86UGAV2Z3G&workerId=A3LFVI65XV1T46&assignmentId=3VSOLARPKCVPRD4LHY5UK1OAUDS939&a=PLSV3&tp_a=PLSV3&b=3VSOLARPKCVPRD4LHY5UK1OAUDS939&tp_b=3VSOLARPKCVPRD4LHY5UK1OAUDS939&c=365633&tp_c=365633","heads":10,"tails":2,"studentIndex":18,"studentTrueHypers":{"a":8,"b":2},"studentGuess":0.8181818181818182,"delta":0.018181818181818188,"totalExamples":12,"bonusSoFar":1.56},{"rt":18997,"response":{"heads":"9","tails":"3"},"type":"response","condition":"seqFeedback","trueTheta":0.8,"classrooms":["C","D"],"studentTrueClassroom":"D","exampleSet":"second","trial_type":"survey-html-form","trial_index":147,"time_elapsed":853611,"internal_node_id":"0.0-146.0-0.0","params":{"nStudents":24,"maxFlips":25,"completionMinutes":45,"basePay":8,"maxBonus":9,"perTrialBonus":0.5,"perTrialBonusThreshold":0.05,"exampleCost":0.02},"classroomParams":{"A":{"a":1,"b":4},"B":{"a":4,"b":1},"C":{"a":2,"b":8},"D":{"a":8,"b":2}},"conditions":["nonSeqFull","nonSeqPartial","seqNoFeedback","seqFeedback"],"classroomPairings":[["A","B"],["C","D"]],"coinWeights":[0.2,0.5,0.8],"subjectId":"A3LFVI65XV1T46","assignmentId":"3VSOLARPKCVPRD4LHY5UK1OAUDS939","hitId":"39WICJI5ATE2BKO4UUUR86UGAV2Z3G","url":"https://gershmanlab.com/experiments/alicia/teaching/experiment/?hitId=39WICJI5ATE2BKO4UUUR86UGAV2Z3G&workerId=A3LFVI65XV1T46&assignmentId=3VSOLARPKCVPRD4LHY5UK1OAUDS939&a=PLSV3&tp_a=PLSV3&b=3VSOLARPKCVPRD4LHY5UK1OAUDS939&tp_b=3VSOLARPKCVPRD4LHY5UK1OAUDS939&c=365633&tp_c=365633","firstResponseHeads":10,"firstResponseTails":2,"secondResponseHeads":9,"secondResponseTails":3,"totalHeads":19,"totalTails":5,"studentIndex":18,"studentTrueHypers":{"a":8,"b":2},"studentGuess":0.7941176470588235,"delta":0.005882352941176561,"bonus":0.02,"bonusSoFar":1.58,"totalExamples":24},{"rt":5535,"response":{"heads":"6","tails":"3"},"type":"response","condition":"nonSeqFull","trueTheta":0.5,"classrooms":["C","D"],"studentTrueClassroom":"C","exampleSet":"first","trial_type":"survey-html-form","trial_index":153,"time_elapsed":874284,"internal_node_id":"0.0-152.0-0.0","params":{"nStudents":24,"maxFlips":25,"completionMinutes":45,"basePay":8,"maxBonus":9,"perTrialBonus":0.5,"perTrialBonusThreshold":0.05,"exampleCost":0.02},"classroomParams":{"A":{"a":1,"b":4},"B":{"a":4,"b":1},"C":{"a":2,"b":8},"D":{"a":8,"b":2}},"conditions":["nonSeqFull","nonSeqPartial","seqNoFeedback","seqFeedback"],"classroomPairings":[["A","B"],["C","D"]],"coinWeights":[0.2,0.5,0.8],"subjectId":"A3LFVI65XV1T46","assignmentId":"3VSOLARPKCVPRD4LHY5UK1OAUDS939","hitId":"39WICJI5ATE2BKO4UUUR86UGAV2Z3G","url":"https://gershmanlab.com/experiments/alicia/teaching/experiment/?hitId=39WICJI5ATE2BKO4UUUR86UGAV2Z3G&workerId=A3LFVI65XV1T46&assignmentId=3VSOLARPKCVPRD4LHY5UK1OAUDS939&a=PLSV3&tp_a=PLSV3&b=3VSOLARPKCVPRD4LHY5UK1OAUDS939&tp_b=3VSOLARPKCVPRD4LHY5UK1OAUDS939&c=365633&tp_c=365633","heads":6,"tails":3,"studentIndex":19,"studentTrueHypers":{"a":2,"b":8},"studentGuess":0.42105263157894735,"delta":0.07894736842105265,"totalExamples":9,"bonus":0,"bonusSoFar":1.58},{"rt":6167,"response":{"heads":"7","tails":"2"},"type":"response","condition":"seqFeedback","trueTheta":0.2,"classrooms":["C","D"],"studentTrueClassroom":"D","exampleSet":"first","trial_type":"survey-html-form","trial_index":159,"time_elapsed":896163,"internal_node_id":"0.0-158.0-0.0","params":{"nStudents":24,"maxFlips":25,"completionMinutes":45,"basePay":8,"maxBonus":9,"perTrialBonus":0.5,"perTrialBonusThreshold":0.05,"exampleCost":0.02},"classroomParams":{"A":{"a":1,"b":4},"B":{"a":4,"b":1},"C":{"a":2,"b":8},"D":{"a":8,"b":2}},"conditions":["nonSeqFull","nonSeqPartial","seqNoFeedback","seqFeedback"],"classroomPairings":[["A","B"],["C","D"]],"coinWeights":[0.2,0.5,0.8],"subjectId":"A3LFVI65XV1T46","assignmentId":"3VSOLARPKCVPRD4LHY5UK1OAUDS939","hitId":"39WICJI5ATE2BKO4UUUR86UGAV2Z3G","url":"https://gershmanlab.com/experiments/alicia/teaching/experiment/?hitId=39WICJI5ATE2BKO4UUUR86UGAV2Z3G&workerId=A3LFVI65XV1T46&assignmentId=3VSOLARPKCVPRD4LHY5UK1OAUDS939&a=PLSV3&tp_a=PLSV3&b=3VSOLARPKCVPRD4LHY5UK1OAUDS939&tp_b=3VSOLARPKCVPRD4LHY5UK1OAUDS939&c=365633&tp_c=365633","heads":7,"tails":2,"studentIndex":20,"studentTrueHypers":{"a":8,"b":2},"studentGuess":0.7894736842105263,"delta":0.5894736842105264,"totalExamples":9,"bonusSoFar":1.58},{"rt":7873,"response":{"heads":"6","tails":"2"},"type":"response","condition":"seqFeedback","trueTheta":0.2,"classrooms":["C","D"],"studentTrueClassroom":"D","exampleSet":"second","trial_type":"survey-html-form","trial_index":163,"time_elapsed":914552,"internal_node_id":"0.0-162.0-0.0","params":{"nStudents":24,"maxFlips":25,"completionMinutes":45,"basePay":8,"maxBonus":9,"perTrialBonus":0.5,"perTrialBonusThreshold":0.05,"exampleCost":0.02},"classroomParams":{"A":{"a":1,"b":4},"B":{"a":4,"b":1},"C":{"a":2,"b":8},"D":{"a":8,"b":2}},"conditions":["nonSeqFull","nonSeqPartial","seqNoFeedback","seqFeedback"],"classroomPairings":[["A","B"],["C","D"]],"coinWeights":[0.2,0.5,0.8],"subjectId":"A3LFVI65XV1T46","assignmentId":"3VSOLARPKCVPRD4LHY5UK1OAUDS939","hitId":"39WICJI5ATE2BKO4UUUR86UGAV2Z3G","url":"https://gershmanlab.com/experiments/alicia/teaching/experiment/?hitId=39WICJI5ATE2BKO4UUUR86UGAV2Z3G&workerId=A3LFVI65XV1T46&assignmentId=3VSOLARPKCVPRD4LHY5UK1OAUDS939&a=PLSV3&tp_a=PLSV3&b=3VSOLARPKCVPRD4LHY5UK1OAUDS939&tp_b=3VSOLARPKCVPRD4LHY5UK1OAUDS939&c=365633&tp_c=365633","firstResponseHeads":7,"firstResponseTails":2,"secondResponseHeads":6,"secondResponseTails":2,"totalHeads":13,"totalTails":4,"studentIndex":20,"studentTrueHypers":{"a":8,"b":2},"studentGuess":0.7777777777777778,"delta":0.5777777777777777,"bonus":0,"bonusSoFar":1.58,"totalExamples":17},{"rt":3837,"response":{"heads":"5","tails":"2"},"type":"response","condition":"nonSeqPartial","trueTheta":0.2,"classrooms":["C","D"],"studentTrueClassroom":"C","exampleSet":"first","trial_type":"survey-html-form","trial_index":169,"time_elapsed":932552,"internal_node_id":"0.0-168.0-0.0","params":{"nStudents":24,"maxFlips":25,"completionMinutes":45,"basePay":8,"maxBonus":9,"perTrialBonus":0.5,"perTrialBonusThreshold":0.05,"exampleCost":0.02},"classroomParams":{"A":{"a":1,"b":4},"B":{"a":4,"b":1},"C":{"a":2,"b":8},"D":{"a":8,"b":2}},"conditions":["nonSeqFull","nonSeqPartial","seqNoFeedback","seqFeedback"],"classroomPairings":[["A","B"],["C","D"]],"coinWeights":[0.2,0.5,0.8],"subjectId":"A3LFVI65XV1T46","assignmentId":"3VSOLARPKCVPRD4LHY5UK1OAUDS939","hitId":"39WICJI5ATE2BKO4UUUR86UGAV2Z3G","url":"https://gershmanlab.com/experiments/alicia/teaching/experiment/?hitId=39WICJI5ATE2BKO4UUUR86UGAV2Z3G&workerId=A3LFVI65XV1T46&assignmentId=3VSOLARPKCVPRD4LHY5UK1OAUDS939&a=PLSV3&tp_a=PLSV3&b=3VSOLARPKCVPRD4LHY5UK1OAUDS939&tp_b=3VSOLARPKCVPRD4LHY5UK1OAUDS939&c=365633&tp_c=365633","heads":5,"tails":2,"studentIndex":21,"studentTrueHypers":{"a":2,"b":8},"studentGuess":0.4117647058823529,"delta":0.2117647058823529,"totalExamples":7,"bonus":0,"bonusSoFar":1.58},{"rt":5768,"response":{"heads":"8","tails":"3"},"type":"response","condition":"seqNoFeedback","trueTheta":0.5,"classrooms":["C","D"],"studentTrueClassroom":"C","exampleSet":"first","trial_type":"survey-html-form","trial_index":175,"time_elapsed":952183,"internal_node_id":"0.0-174.0-0.0","params":{"nStudents":24,"maxFlips":25,"completionMinutes":45,"basePay":8,"maxBonus":9,"perTrialBonus":0.5,"perTrialBonusThreshold":0.05,"exampleCost":0.02},"classroomParams":{"A":{"a":1,"b":4},"B":{"a":4,"b":1},"C":{"a":2,"b":8},"D":{"a":8,"b":2}},"conditions":["nonSeqFull","nonSeqPartial","seqNoFeedback","seqFeedback"],"classroomPairings":[["A","B"],["C","D"]],"coinWeights":[0.2,0.5,0.8],"subjectId":"A3LFVI65XV1T46","assignmentId":"3VSOLARPKCVPRD4LHY5UK1OAUDS939","hitId":"39WICJI5ATE2BKO4UUUR86UGAV2Z3G","url":"https://gershmanlab.com/experiments/alicia/teaching/experiment/?hitId=39WICJI5ATE2BKO4UUUR86UGAV2Z3G&workerId=A3LFVI65XV1T46&assignmentId=3VSOLARPKCVPRD4LHY5UK1OAUDS939&a=PLSV3&tp_a=PLSV3&b=3VSOLARPKCVPRD4LHY5UK1OAUDS939&tp_b=3VSOLARPKCVPRD4LHY5UK1OAUDS939&c=365633&tp_c=365633","heads":8,"tails":3,"studentIndex":22,"studentTrueHypers":{"a":2,"b":8},"studentGuess":0.47619047619047616,"delta":0.023809523809523836,"totalExamples":11,"bonusSoFar":1.58},{"rt":5808,"response":{"heads":"7","tails":"2"},"type":"response","condition":"seqNoFeedback","trueTheta":0.5,"classrooms":["C","D"],"studentTrueClassroom":"C","exampleSet":"second","trial_type":"survey-html-form","trial_index":178,"time_elapsed":965259,"internal_node_id":"0.0-177.0-0.0","params":{"nStudents":24,"maxFlips":25,"completionMinutes":45,"basePay":8,"maxBonus":9,"perTrialBonus":0.5,"perTrialBonusThreshold":0.05,"exampleCost":0.02},"classroomParams":{"A":{"a":1,"b":4},"B":{"a":4,"b":1},"C":{"a":2,"b":8},"D":{"a":8,"b":2}},"conditions":["nonSeqFull","nonSeqPartial","seqNoFeedback","seqFeedback"],"classroomPairings":[["A","B"],["C","D"]],"coinWeights":[0.2,0.5,0.8],"subjectId":"A3LFVI65XV1T46","assignmentId":"3VSOLARPKCVPRD4LHY5UK1OAUDS939","hitId":"39WICJI5ATE2BKO4UUUR86UGAV2Z3G","url":"https://gershmanlab.com/experiments/alicia/teaching/experiment/?hitId=39WICJI5ATE2BKO4UUUR86UGAV2Z3G&workerId=A3LFVI65XV1T46&assignmentId=3VSOLARPKCVPRD4LHY5UK1OAUDS939&a=PLSV3&tp_a=PLSV3&b=3VSOLARPKCVPRD4LHY5UK1OAUDS939&tp_b=3VSOLARPKCVPRD4LHY5UK1OAUDS939&c=365633&tp_c=365633","firstResponseHeads":8,"firstResponseTails":3,"secondResponseHeads":7,"secondResponseTails":2,"totalHeads":15,"totalTails":5,"studentIndex":22,"studentTrueHypers":{"a":2,"b":8},"studentGuess":0.5666666666666667,"delta":0.06666666666666665,"bonus":0,"bonusSoFar":1.58,"totalExamples":20},{"rt":5287,"response":{"heads":"6","tails":"2"},"type":"response","condition":"seqNoFeedback","trueTheta":0.2,"classrooms":["C","D"],"studentTrueClassroom":"D","exampleSet":"first","trial_type":"survey-html-form","trial_index":184,"time_elapsed":983563,"internal_node_id":"0.0-183.0-0.0","params":{"nStudents":24,"maxFlips":25,"completionMinutes":45,"basePay":8,"maxBonus":9,"perTrialBonus":0.5,"perTrialBonusThreshold":0.05,"exampleCost":0.02},"classroomParams":{"A":{"a":1,"b":4},"B":{"a":4,"b":1},"C":{"a":2,"b":8},"D":{"a":8,"b":2}},"conditions":["nonSeqFull","nonSeqPartial","seqNoFeedback","seqFeedback"],"classroomPairings":[["A","B"],["C","D"]],"coinWeights":[0.2,0.5,0.8],"subjectId":"A3LFVI65XV1T46","assignmentId":"3VSOLARPKCVPRD4LHY5UK1OAUDS939","hitId":"39WICJI5ATE2BKO4UUUR86UGAV2Z3G","url":"https://gershmanlab.com/experiments/alicia/teaching/experiment/?hitId=39WICJI5ATE2BKO4UUUR86UGAV2Z3G&workerId=A3LFVI65XV1T46&assignmentId=3VSOLARPKCVPRD4LHY5UK1OAUDS939&a=PLSV3&tp_a=PLSV3&b=3VSOLARPKCVPRD4LHY5UK1OAUDS939&tp_b=3VSOLARPKCVPRD4LHY5UK1OAUDS939&c=365633&tp_c=365633","heads":6,"tails":2,"studentIndex":23,"studentTrueHypers":{"a":8,"b":2},"studentGuess":0.7777777777777778,"delta":0.5777777777777777,"totalExamples":8,"bonusSoFar":1.58},{"rt":5430,"response":{"heads":"7","tails":"3"},"type":"response","condition":"seqNoFeedback","trueTheta":0.2,"classrooms":["C","D"],"studentTrueClassroom":"D","exampleSet":"second","trial_type":"survey-html-form","trial_index":187,"time_elapsed":995259,"internal_node_id":"0.0-186.0-0.0","params":{"nStudents":24,"maxFlips":25,"completionMinutes":45,"basePay":8,"maxBonus":9,"perTrialBonus":0.5,"perTrialBonusThreshold":0.05,"exampleCost":0.02},"classroomParams":{"A":{"a":1,"b":4},"B":{"a":4,"b":1},"C":{"a":2,"b":8},"D":{"a":8,"b":2}},"conditions":["nonSeqFull","nonSeqPartial","seqNoFeedback","seqFeedback"],"classroomPairings":[["A","B"],["C","D"]],"coinWeights":[0.2,0.5,0.8],"subjectId":"A3LFVI65XV1T46","assignmentId":"3VSOLARPKCVPRD4LHY5UK1OAUDS939","hitId":"39WICJI5ATE2BKO4UUUR86UGAV2Z3G","url":"https://gershmanlab.com/experiments/alicia/teaching/experiment/?hitId=39WICJI5ATE2BKO4UUUR86UGAV2Z3G&workerId=A3LFVI65XV1T46&assignmentId=3VSOLARPKCVPRD4LHY5UK1OAUDS939&a=PLSV3&tp_a=PLSV3&b=3VSOLARPKCVPRD4LHY5UK1OAUDS939&tp_b=3VSOLARPKCVPRD4LHY5UK1OAUDS939&c=365633&tp_c=365633","firstResponseHeads":6,"firstResponseTails":2,"secondResponseHeads":7,"secondResponseTails":3,"totalHeads":13,"totalTails":5,"studentIndex":23,"studentTrueHypers":{"a":8,"b":2},"studentGuess":0.75,"delta":0.55,"bonus":0,"bonusSoFar":1.58,"totalExamples":18},{"rt":7913,"response":{"gender":"female","age":"43","understood":"yes","comments":""},"type":"response","trial_type":"survey-html-form","trial_index":191,"time_elapsed":1013402,"internal_node_id":"0.0-191.0","params":{"nStudents":24,"maxFlips":25,"completionMinutes":45,"basePay":8,"maxBonus":9,"perTrialBonus":0.5,"perTrialBonusThreshold":0.05,"exampleCost":0.02},"classroomParams":{"A":{"a":1,"b":4},"B":{"a":4,"b":1},"C":{"a":2,"b":8},"D":{"a":8,"b":2}},"conditions":["nonSeqFull","nonSeqPartial","seqNoFeedback","seqFeedback"],"classroomPairings":[["A","B"],["C","D"]],"coinWeights":[0.2,0.5,0.8],"subjectId":"A3LFVI65XV1T46","assignmentId":"3VSOLARPKCVPRD4LHY5UK1OAUDS939","hitId":"39WICJI5ATE2BKO4UUUR86UGAV2Z3G","url":"https://gershmanlab.com/experiments/alicia/teaching/experiment/?hitId=39WICJI5ATE2BKO4UUUR86UGAV2Z3G&workerId=A3LFVI65XV1T46&assignmentId=3VSOLARPKCVPRD4LHY5UK1OAUDS939&a=PLSV3&tp_a=PLSV3&b=3VSOLARPKCVPRD4LHY5UK1OAUDS939&tp_b=3VSOLARPKCVPRD4LHY5UK1OAUDS939&c=365633&tp_c=365633","totalBonus":1.58}]