[{"rt":17797,"response":{"heads":"1","tails":"9"},"type":"response","condition":"nonSeqFull","trueTheta":0.2,"classrooms":["A","B"],"studentTrueClassroom":"B","exampleSet":"first","trial_type":"survey-html-form","trial_index":31,"time_elapsed":604244,"internal_node_id":"0.0-6.0-0.0","params":{"nStudents":24,"maxFlips":25,"completionMinutes":45,"basePay":8,"maxBonus":9,"perTrialBonus":0.5,"perTrialBonusThreshold":0.05,"exampleCost":0.02},"classroomParams":{"A":{"a":1,"b":4},"B":{"a":4,"b":1},"C":{"a":2,"b":8},"D":{"a":8,"b":2}},"conditions":["nonSeqFull","nonSeqPartial","seqNoFeedback","seqFeedback"],"classroomPairings":[["A","B"],["C","D"]],"coinWeights":[0.2,0.5,0.8],"subjectId":"A3M8O363B3IAKE","assignmentId":"3YDGXNSEO0GAV44FCK4ZUAL5O76480","hitId":"39WICJI5ATE2BKO4UUUR86UGAV2Z3G","url":"https://gershmanlab.com/experiments/alicia/teaching/experiment/?hitId=39WICJI5ATE2BKO4UUUR86UGAV2Z3G&workerId=A3M8O363B3IAKE&assignmentId=3YDGXNSEO0GAV44FCK4ZUAL5O76480&a=EXDY3&tp_a=EXDY3&b=3YDGXNSEO0GAV44FCK4ZUAL5O76480&tp_b=3YDGXNSEO0GAV44FCK4ZUAL5O76480&c=365633&tp_c=365633","heads":1,"tails":9,"studentIndex":0,"studentTrueHypers":{"a":4,"b":1},"studentGuess":0.3333333333333333,"delta":0.1333333333333333,"totalExamples":10,"bonus":0,"bonusSoFar":0},{"rt":12086,"response":{"heads":"2","tails":"8"},"type":"response","condition":"nonSeqFull","trueTheta":0.2,"classrooms":["C","D"],"studentTrueClassroom":"D","exampleSet":"first","trial_type":"survey-html-form","trial_index":37,"time_elapsed":632166,"internal_node_id":"0.0-12.0-0.0","params":{"nStudents":24,"maxFlips":25,"completionMinutes":45,"basePay":8,"maxBonus":9,"perTrialBonus":0.5,"perTrialBonusThreshold":0.05,"exampleCost":0.02},"classroomParams":{"A":{"a":1,"b":4},"B":{"a":4,"b":1},"C":{"a":2,"b":8},"D":{"a":8,"b":2}},"conditions":["nonSeqFull","nonSeqPartial","seqNoFeedback","seqFeedback"],"classroomPairings":[["A","B"],["C","D"]],"coinWeights":[0.2,0.5,0.8],"subjectId":"A3M8O363B3IAKE","assignmentId":"3YDGXNSEO0GAV44FCK4ZUAL5O76480","hitId":"39WICJI5ATE2BKO4UUUR86UGAV2Z3G","url":"https://gershmanlab.com/experiments/alicia/teaching/experiment/?hitId=39WICJI5ATE2BKO4UUUR86UGAV2Z3G&workerId=A3M8O363B3IAKE&assignmentId=3YDGXNSEO0GAV44FCK4ZUAL5O76480&a=EXDY3&tp_a=EXDY3&b=3YDGXNSEO0GAV44FCK4ZUAL5O76480&tp_b=3YDGXNSEO0GAV44FCK4ZUAL5O76480&c=365633&tp_c=365633","heads":2,"tails":8,"studentIndex":1,"studentTrueHypers":{"a":8,"b":2},"studentGuess":0.5,"delta":0.3,"totalExamples":10,"bonus":0,"bonusSoFar":0},{"rt":9350,"response":{"heads":"5","tails":"5"},"type":"response","condition":"seqFeedback","trueTheta":0.5,"classrooms":["A","B"],"studentTrueClassroom":"B","exampleSet":"first","trial_type":"survey-html-form","trial_index":43,"time_elapsed":660162,"internal_node_id":"0.0-18.0-0.0","params":{"nStudents":24,"maxFlips":25,"completionMinutes":45,"basePay":8,"maxBonus":9,"perTrialBonus":0.5,"perTrialBonusThreshold":0.05,"exampleCost":0.02},"classroomParams":{"A":{"a":1,"b":4},"B":{"a":4,"b":1},"C":{"a":2,"b":8},"D":{"a":8,"b":2}},"conditions":["nonSeqFull","nonSeqPartial","seqNoFeedback","seqFeedback"],"classroomPairings":[["A","B"],["C","D"]],"coinWeights":[0.2,0.5,0.8],"subjectId":"A3M8O363B3IAKE","assignmentId":"3YDGXNSEO0GAV44FCK4ZUAL5O76480","hitId":"39WICJI5ATE2BKO4UUUR86UGAV2Z3G","url":"https://gershmanlab.com/experiments/alicia/teaching/experiment/?hitId=39WICJI5ATE2BKO4UUUR86UGAV2Z3G&workerId=A3M8O363B3IAKE&assignmentId=3YDGXNSEO0GAV44FCK4ZUAL5O76480&a=EXDY3&tp_a=EXDY3&b=3YDGXNSEO0GAV44FCK4ZUAL5O76480&tp_b=3YDGXNSEO0GAV44FCK4ZUAL5O76480&c=365633&tp_c=365633","heads":5,"tails":5,"studentIndex":2,"studentTrueHypers":{"a":4,"b":1},"studentGuess":0.6,"delta":0.09999999999999998,"totalExamples":10,"bonusSoFar":0},{"rt":3595,"response":{"heads":"4","tails":"6"},"type":"response","condition":"seqFeedback","trueTheta":0.5,"classrooms":["A","B"],"studentTrueClassroom":"B","exampleSet":"second","trial_type":"survey-html-form","trial_index":47,"time_elapsed":674183,"internal_node_id":"0.0-22.0-0.0","params":{"nStudents":24,"maxFlips":25,"completionMinutes":45,"basePay":8,"maxBonus":9,"perTrialBonus":0.5,"perTrialBonusThreshold":0.05,"exampleCost":0.02},"classroomParams":{"A":{"a":1,"b":4},"B":{"a":4,"b":1},"C":{"a":2,"b":8},"D":{"a":8,"b":2}},"conditions":["nonSeqFull","nonSeqPartial","seqNoFeedback","seqFeedback"],"classroomPairings":[["A","B"],["C","D"]],"coinWeights":[0.2,0.5,0.8],"subjectId":"A3M8O363B3IAKE","assignmentId":"3YDGXNSEO0GAV44FCK4ZUAL5O76480","hitId":"39WICJI5ATE2BKO4UUUR86UGAV2Z3G","url":"https://gershmanlab.com/experiments/alicia/teaching/experiment/?hitId=39WICJI5ATE2BKO4UUUR86UGAV2Z3G&workerId=A3M8O363B3IAKE&assignmentId=3YDGXNSEO0GAV44FCK4ZUAL5O76480&a=EXDY3&tp_a=EXDY3&b=3YDGXNSEO0GAV44FCK4ZUAL5O76480&tp_b=3YDGXNSEO0GAV44FCK4ZUAL5O76480&c=365633&tp_c=365633","firstResponseHeads":5,"firstResponseTails":5,"secondResponseHeads":4,"secondResponseTails":6,"totalHeads":9,"totalTails":11,"studentIndex":2,"studentTrueHypers":{"a":4,"b":1},"studentGuess":0.52,"delta":0.020000000000000018,"bonus":0.1,"bonusSoFar":0.1,"totalExamples":20},{"rt":6301,"response":{"heads":"8","tails":"2"},"type":"response","condition":"nonSeqFull","trueTheta":0.8,"classrooms":["C","D"],"studentTrueClassroom":"D","exampleSet":"first","trial_type":"survey-html-form","trial_index":53,"time_elapsed":697516,"internal_node_id":"0.0-28.0-0.0","params":{"nStudents":24,"maxFlips":25,"completionMinutes":45,"basePay":8,"maxBonus":9,"perTrialBonus":0.5,"perTrialBonusThreshold":0.05,"exampleCost":0.02},"classroomParams":{"A":{"a":1,"b":4},"B":{"a":4,"b":1},"C":{"a":2,"b":8},"D":{"a":8,"b":2}},"conditions":["nonSeqFull","nonSeqPartial","seqNoFeedback","seqFeedback"],"classroomPairings":[["A","B"],["C","D"]],"coinWeights":[0.2,0.5,0.8],"subjectId":"A3M8O363B3IAKE","assignmentId":"3YDGXNSEO0GAV44FCK4ZUAL5O76480","hitId":"39WICJI5ATE2BKO4UUUR86UGAV2Z3G","url":"https://gershmanlab.com/experiments/alicia/teaching/experiment/?hitId=39WICJI5ATE2BKO4UUUR86UGAV2Z3G&workerId=A3M8O363B3IAKE&assignmentId=3YDGXNSEO0GAV44FCK4ZUAL5O76480&a=EXDY3&tp_a=EXDY3&b=3YDGXNSEO0GAV44FCK4ZUAL5O76480&tp_b=3YDGXNSEO0GAV44FCK4ZUAL5O76480&c=365633&tp_c=365633","heads":8,"tails":2,"studentIndex":3,"studentTrueHypers":{"a":8,"b":2},"studentGuess":0.8,"delta":0,"totalExamples":10,"bonus":0.3,"bonusSoFar":0.4},{"rt":4880,"response":{"heads":"5","tails":"5"},"type":"response","condition":"seqNoFeedback","trueTheta":0.5,"classrooms":["A","B"],"studentTrueClassroom":"A","exampleSet":"first","trial_type":"survey-html-form","trial_index":59,"time_elapsed":716948,"internal_node_id":"0.0-34.0-0.0","params":{"nStudents":24,"maxFlips":25,"completionMinutes":45,"basePay":8,"maxBonus":9,"perTrialBonus":0.5,"perTrialBonusThreshold":0.05,"exampleCost":0.02},"classroomParams":{"A":{"a":1,"b":4},"B":{"a":4,"b":1},"C":{"a":2,"b":8},"D":{"a":8,"b":2}},"conditions":["nonSeqFull","nonSeqPartial","seqNoFeedback","seqFeedback"],"classroomPairings":[["A","B"],["C","D"]],"coinWeights":[0.2,0.5,0.8],"subjectId":"A3M8O363B3IAKE","assignmentId":"3YDGXNSEO0GAV44FCK4ZUAL5O76480","hitId":"39WICJI5ATE2BKO4UUUR86UGAV2Z3G","url":"https://gershmanlab.com/experiments/alicia/teaching/experiment/?hitId=39WICJI5ATE2BKO4UUUR86UGAV2Z3G&workerId=A3M8O363B3IAKE&assignmentId=3YDGXNSEO0GAV44FCK4ZUAL5O76480&a=EXDY3&tp_a=EXDY3&b=3YDGXNSEO0GAV44FCK4ZUAL5O76480&tp_b=3YDGXNSEO0GAV44FCK4ZUAL5O76480&c=365633&tp_c=365633","heads":5,"tails":5,"studentIndex":4,"studentTrueHypers":{"a":1,"b":4},"studentGuess":0.4,"delta":0.09999999999999998,"totalExamples":10,"bonusSoFar":0.4},{"rt":8864,"response":{"heads":"5","tails":"5"},"type":"response","condition":"seqNoFeedback","trueTheta":0.5,"classrooms":["A","B"],"studentTrueClassroom":"A","exampleSet":"second","trial_type":"survey-html-form","trial_index":62,"time_elapsed":732318,"internal_node_id":"0.0-37.0-0.0","params":{"nStudents":24,"maxFlips":25,"completionMinutes":45,"basePay":8,"maxBonus":9,"perTrialBonus":0.5,"perTrialBonusThreshold":0.05,"exampleCost":0.02},"classroomParams":{"A":{"a":1,"b":4},"B":{"a":4,"b":1},"C":{"a":2,"b":8},"D":{"a":8,"b":2}},"conditions":["nonSeqFull","nonSeqPartial","seqNoFeedback","seqFeedback"],"classroomPairings":[["A","B"],["C","D"]],"coinWeights":[0.2,0.5,0.8],"subjectId":"A3M8O363B3IAKE","assignmentId":"3YDGXNSEO0GAV44FCK4ZUAL5O76480","hitId":"39WICJI5ATE2BKO4UUUR86UGAV2Z3G","url":"https://gershmanlab.com/experiments/alicia/teaching/experiment/?hitId=39WICJI5ATE2BKO4UUUR86UGAV2Z3G&workerId=A3M8O363B3IAKE&assignmentId=3YDGXNSEO0GAV44FCK4ZUAL5O76480&a=EXDY3&tp_a=EXDY3&b=3YDGXNSEO0GAV44FCK4ZUAL5O76480&tp_b=3YDGXNSEO0GAV44FCK4ZUAL5O76480&c=365633&tp_c=365633","firstResponseHeads":5,"firstResponseTails":5,"secondResponseHeads":5,"secondResponseTails":5,"totalHeads":10,"totalTails":10,"studentIndex":4,"studentTrueHypers":{"a":1,"b":4},"studentGuess":0.44,"delta":0.06,"bonus":0,"bonusSoFar":0.4,"totalExamples":20},{"rt":6442,"response":{"heads":"2","tails":"8"},"type":"response","condition":"seqFeedback","trueTheta":0.2,"classrooms":["A","B"],"studentTrueClassroom":"B","exampleSet":"first","trial_type":"survey-html-form","trial_index":68,"time_elapsed":755864,"internal_node_id":"0.0-43.0-0.0","params":{"nStudents":24,"maxFlips":25,"completionMinutes":45,"basePay":8,"maxBonus":9,"perTrialBonus":0.5,"perTrialBonusThreshold":0.05,"exampleCost":0.02},"classroomParams":{"A":{"a":1,"b":4},"B":{"a":4,"b":1},"C":{"a":2,"b":8},"D":{"a":8,"b":2}},"conditions":["nonSeqFull","nonSeqPartial","seqNoFeedback","seqFeedback"],"classroomPairings":[["A","B"],["C","D"]],"coinWeights":[0.2,0.5,0.8],"subjectId":"A3M8O363B3IAKE","assignmentId":"3YDGXNSEO0GAV44FCK4ZUAL5O76480","hitId":"39WICJI5ATE2BKO4UUUR86UGAV2Z3G","url":"https://gershmanlab.com/experiments/alicia/teaching/experiment/?hitId=39WICJI5ATE2BKO4UUUR86UGAV2Z3G&workerId=A3M8O363B3IAKE&assignmentId=3YDGXNSEO0GAV44FCK4ZUAL5O76480&a=EXDY3&tp_a=EXDY3&b=3YDGXNSEO0GAV44FCK4ZUAL5O76480&tp_b=3YDGXNSEO0GAV44FCK4ZUAL5O76480&c=365633&tp_c=365633","heads":2,"tails":8,"studentIndex":5,"studentTrueHypers":{"a":4,"b":1},"studentGuess":0.4,"delta":0.2,"totalExamples":10,"bonusSoFar":0.4},{"rt":3676,"response":{"heads":"6","tails":"4"},"type":"response","condition":"seqFeedback","trueTheta":0.2,"classrooms":["A","B"],"studentTrueClassroom":"B","exampleSet":"second","trial_type":"survey-html-form","trial_index":72,"time_elapsed":769163,"internal_node_id":"0.0-47.0-0.0","params":{"nStudents":24,"maxFlips":25,"completionMinutes":45,"basePay":8,"maxBonus":9,"perTrialBonus":0.5,"perTrialBonusThreshold":0.05,"exampleCost":0.02},"classroomParams":{"A":{"a":1,"b":4},"B":{"a":4,"b":1},"C":{"a":2,"b":8},"D":{"a":8,"b":2}},"conditions":["nonSeqFull","nonSeqPartial","seqNoFeedback","seqFeedback"],"classroomPairings":[["A","B"],["C","D"]],"coinWeights":[0.2,0.5,0.8],"subjectId":"A3M8O363B3IAKE","assignmentId":"3YDGXNSEO0GAV44FCK4ZUAL5O76480","hitId":"39WICJI5ATE2BKO4UUUR86UGAV2Z3G","url":"https://gershmanlab.com/experiments/alicia/teaching/experiment/?hitId=39WICJI5ATE2BKO4UUUR86UGAV2Z3G&workerId=A3M8O363B3IAKE&assignmentId=3YDGXNSEO0GAV44FCK4ZUAL5O76480&a=EXDY3&tp_a=EXDY3&b=3YDGXNSEO0GAV44FCK4ZUAL5O76480&tp_b=3YDGXNSEO0GAV44FCK4ZUAL5O76480&c=365633&tp_c=365633","firstResponseHeads":2,"firstResponseTails":8,"secondResponseHeads":6,"secondResponseTails":4,"totalHeads":8,"totalTails":12,"studentIndex":5,"studentTrueHypers":{"a":4,"b":1},"studentGuess":0.48,"delta":0.27999999999999997,"bonus":0,"bonusSoFar":0.4,"totalExamples":20},{"rt":4249,"response":{"heads":"8","tails":"2"},"type":"response","condition":"seqFeedback","trueTheta":0.8,"classrooms":["A","B"],"studentTrueClassroom":"A","exampleSet":"first","trial_type":"survey-html-form","trial_index":78,"time_elapsed":788347,"internal_node_id":"0.0-53.0-0.0","params":{"nStudents":24,"maxFlips":25,"completionMinutes":45,"basePay":8,"maxBonus":9,"perTrialBonus":0.5,"perTrialBonusThreshold":0.05,"exampleCost":0.02},"classroomParams":{"A":{"a":1,"b":4},"B":{"a":4,"b":1},"C":{"a":2,"b":8},"D":{"a":8,"b":2}},"conditions":["nonSeqFull","nonSeqPartial","seqNoFeedback","seqFeedback"],"classroomPairings":[["A","B"],["C","D"]],"coinWeights":[0.2,0.5,0.8],"subjectId":"A3M8O363B3IAKE","assignmentId":"3YDGXNSEO0GAV44FCK4ZUAL5O76480","hitId":"39WICJI5ATE2BKO4UUUR86UGAV2Z3G","url":"https://gershmanlab.com/experiments/alicia/teaching/experiment/?hitId=39WICJI5ATE2BKO4UUUR86UGAV2Z3G&workerId=A3M8O363B3IAKE&assignmentId=3YDGXNSEO0GAV44FCK4ZUAL5O76480&a=EXDY3&tp_a=EXDY3&b=3YDGXNSEO0GAV44FCK4ZUAL5O76480&tp_b=3YDGXNSEO0GAV44FCK4ZUAL5O76480&c=365633&tp_c=365633","heads":8,"tails":2,"studentIndex":6,"studentTrueHypers":{"a":1,"b":4},"studentGuess":0.6,"delta":0.20000000000000007,"totalExamples":10,"bonusSoFar":0.4},{"rt":7328,"response":{"heads":"9","tails":"1"},"type":"response","condition":"seqFeedback","trueTheta":0.8,"classrooms":["A","B"],"studentTrueClassroom":"A","exampleSet":"second","trial_type":"survey-html-form","trial_index":82,"time_elapsed":804976,"internal_node_id":"0.0-57.0-0.0","params":{"nStudents":24,"maxFlips":25,"completionMinutes":45,"basePay":8,"maxBonus":9,"perTrialBonus":0.5,"perTrialBonusThreshold":0.05,"exampleCost":0.02},"classroomParams":{"A":{"a":1,"b":4},"B":{"a":4,"b":1},"C":{"a":2,"b":8},"D":{"a":8,"b":2}},"conditions":["nonSeqFull","nonSeqPartial","seqNoFeedback","seqFeedback"],"classroomPairings":[["A","B"],["C","D"]],"coinWeights":[0.2,0.5,0.8],"subjectId":"A3M8O363B3IAKE","assignmentId":"3YDGXNSEO0GAV44FCK4ZUAL5O76480","hitId":"39WICJI5ATE2BKO4UUUR86UGAV2Z3G","url":"https://gershmanlab.com/experiments/alicia/teaching/experiment/?hitId=39WICJI5ATE2BKO4UUUR86UGAV2Z3G&workerId=A3M8O363B3IAKE&assignmentId=3YDGXNSEO0GAV44FCK4ZUAL5O76480&a=EXDY3&tp_a=EXDY3&b=3YDGXNSEO0GAV44FCK4ZUAL5O76480&tp_b=3YDGXNSEO0GAV44FCK4ZUAL5O76480&c=365633&tp_c=365633","firstResponseHeads":8,"firstResponseTails":2,"secondResponseHeads":9,"secondResponseTails":1,"totalHeads":17,"totalTails":3,"studentIndex":6,"studentTrueHypers":{"a":1,"b":4},"studentGuess":0.72,"delta":0.08000000000000007,"bonus":0,"bonusSoFar":0.4,"totalExamples":20},{"rt":3994,"response":{"heads":"10","tails":"0"},"type":"response","condition":"seqNoFeedback","trueTheta":0.8,"classrooms":["C","D"],"studentTrueClassroom":"D","exampleSet":"first","trial_type":"survey-html-form","trial_index":88,"time_elapsed":823234,"internal_node_id":"0.0-63.0-0.0","params":{"nStudents":24,"maxFlips":25,"completionMinutes":45,"basePay":8,"maxBonus":9,"perTrialBonus":0.5,"perTrialBonusThreshold":0.05,"exampleCost":0.02},"classroomParams":{"A":{"a":1,"b":4},"B":{"a":4,"b":1},"C":{"a":2,"b":8},"D":{"a":8,"b":2}},"conditions":["nonSeqFull","nonSeqPartial","seqNoFeedback","seqFeedback"],"classroomPairings":[["A","B"],["C","D"]],"coinWeights":[0.2,0.5,0.8],"subjectId":"A3M8O363B3IAKE","assignmentId":"3YDGXNSEO0GAV44FCK4ZUAL5O76480","hitId":"39WICJI5ATE2BKO4UUUR86UGAV2Z3G","url":"https://gershmanlab.com/experiments/alicia/teaching/experiment/?hitId=39WICJI5ATE2BKO4UUUR86UGAV2Z3G&workerId=A3M8O363B3IAKE&assignmentId=3YDGXNSEO0GAV44FCK4ZUAL5O76480&a=EXDY3&tp_a=EXDY3&b=3YDGXNSEO0GAV44FCK4ZUAL5O76480&tp_b=3YDGXNSEO0GAV44FCK4ZUAL5O76480&c=365633&tp_c=365633","heads":10,"tails":0,"studentIndex":7,"studentTrueHypers":{"a":8,"b":2},"studentGuess":0.9,"delta":0.09999999999999998,"totalExamples":10,"bonusSoFar":0.4},{"rt":5318,"response":{"heads":"9","tails":"1"},"type":"response","condition":"seqNoFeedback","trueTheta":0.8,"classrooms":["C","D"],"studentTrueClassroom":"D","exampleSet":"second","trial_type":"survey-html-form","trial_index":91,"time_elapsed":836058,"internal_node_id":"0.0-66.0-0.0","params":{"nStudents":24,"maxFlips":25,"completionMinutes":45,"basePay":8,"maxBonus":9,"perTrialBonus":0.5,"perTrialBonusThreshold":0.05,"exampleCost":0.02},"classroomParams":{"A":{"a":1,"b":4},"B":{"a":4,"b":1},"C":{"a":2,"b":8},"D":{"a":8,"b":2}},"conditions":["nonSeqFull","nonSeqPartial","seqNoFeedback","seqFeedback"],"classroomPairings":[["A","B"],["C","D"]],"coinWeights":[0.2,0.5,0.8],"subjectId":"A3M8O363B3IAKE","assignmentId":"3YDGXNSEO0GAV44FCK4ZUAL5O76480","hitId":"39WICJI5ATE2BKO4UUUR86UGAV2Z3G","url":"https://gershmanlab.com/experiments/alicia/teaching/experiment/?hitId=39WICJI5ATE2BKO4UUUR86UGAV2Z3G&workerId=A3M8O363B3IAKE&assignmentId=3YDGXNSEO0GAV44FCK4ZUAL5O76480&a=EXDY3&tp_a=EXDY3&b=3YDGXNSEO0GAV44FCK4ZUAL5O76480&tp_b=3YDGXNSEO0GAV44FCK4ZUAL5O76480&c=365633&tp_c=365633","firstResponseHeads":10,"firstResponseTails":0,"secondResponseHeads":9,"secondResponseTails":1,"totalHeads":19,"totalTails":1,"studentIndex":7,"studentTrueHypers":{"a":8,"b":2},"studentGuess":0.9,"delta":0.09999999999999998,"bonus":0,"bonusSoFar":0.4,"totalExamples":20},{"rt":3193,"response":{"heads":"9","tails":"1"},"type":"response","condition":"seqFeedback","trueTheta":0.8,"classrooms":["C","D"],"studentTrueClassroom":"C","exampleSet":"first","trial_type":"survey-html-form","trial_index":97,"time_elapsed":853410,"internal_node_id":"0.0-72.0-0.0","params":{"nStudents":24,"maxFlips":25,"completionMinutes":45,"basePay":8,"maxBonus":9,"perTrialBonus":0.5,"perTrialBonusThreshold":0.05,"exampleCost":0.02},"classroomParams":{"A":{"a":1,"b":4},"B":{"a":4,"b":1},"C":{"a":2,"b":8},"D":{"a":8,"b":2}},"conditions":["nonSeqFull","nonSeqPartial","seqNoFeedback","seqFeedback"],"classroomPairings":[["A","B"],["C","D"]],"coinWeights":[0.2,0.5,0.8],"subjectId":"A3M8O363B3IAKE","assignmentId":"3YDGXNSEO0GAV44FCK4ZUAL5O76480","hitId":"39WICJI5ATE2BKO4UUUR86UGAV2Z3G","url":"https://gershmanlab.com/experiments/alicia/teaching/experiment/?hitId=39WICJI5ATE2BKO4UUUR86UGAV2Z3G&workerId=A3M8O363B3IAKE&assignmentId=3YDGXNSEO0GAV44FCK4ZUAL5O76480&a=EXDY3&tp_a=EXDY3&b=3YDGXNSEO0GAV44FCK4ZUAL5O76480&tp_b=3YDGXNSEO0GAV44FCK4ZUAL5O76480&c=365633&tp_c=365633","heads":9,"tails":1,"studentIndex":8,"studentTrueHypers":{"a":2,"b":8},"studentGuess":0.55,"delta":0.25,"totalExamples":10,"bonusSoFar":0.4},{"rt":2983,"response":{"heads":"10","tails":"0"},"type":"response","condition":"seqFeedback","trueTheta":0.8,"classrooms":["C","D"],"studentTrueClassroom":"C","exampleSet":"second","trial_type":"survey-html-form","trial_index":101,"time_elapsed":864865,"internal_node_id":"0.0-76.0-0.0","params":{"nStudents":24,"maxFlips":25,"completionMinutes":45,"basePay":8,"maxBonus":9,"perTrialBonus":0.5,"perTrialBonusThreshold":0.05,"exampleCost":0.02},"classroomParams":{"A":{"a":1,"b":4},"B":{"a":4,"b":1},"C":{"a":2,"b":8},"D":{"a":8,"b":2}},"conditions":["nonSeqFull","nonSeqPartial","seqNoFeedback","seqFeedback"],"classroomPairings":[["A","B"],["C","D"]],"coinWeights":[0.2,0.5,0.8],"subjectId":"A3M8O363B3IAKE","assignmentId":"3YDGXNSEO0GAV44FCK4ZUAL5O76480","hitId":"39WICJI5ATE2BKO4UUUR86UGAV2Z3G","url":"https://gershmanlab.com/experiments/alicia/teaching/experiment/?hitId=39WICJI5ATE2BKO4UUUR86UGAV2Z3G&workerId=A3M8O363B3IAKE&assignmentId=3YDGXNSEO0GAV44FCK4ZUAL5O76480&a=EXDY3&tp_a=EXDY3&b=3YDGXNSEO0GAV44FCK4ZUAL5O76480&tp_b=3YDGXNSEO0GAV44FCK4ZUAL5O76480&c=365633&tp_c=365633","firstResponseHeads":9,"firstResponseTails":1,"secondResponseHeads":10,"secondResponseTails":0,"totalHeads":19,"totalTails":1,"studentIndex":8,"studentTrueHypers":{"a":2,"b":8},"studentGuess":0.7,"delta":0.10000000000000009,"bonus":0,"bonusSoFar":0.4,"totalExamples":20},{"rt":8458,"response":{"heads":"8","tails":"2"},"type":"response","condition":"nonSeqFull","trueTheta":0.5,"classrooms":["C","D"],"studentTrueClassroom":"C","exampleSet":"first","trial_type":"survey-html-form","trial_index":107,"time_elapsed":885588,"internal_node_id":"0.0-82.0-0.0","params":{"nStudents":24,"maxFlips":25,"completionMinutes":45,"basePay":8,"maxBonus":9,"perTrialBonus":0.5,"perTrialBonusThreshold":0.05,"exampleCost":0.02},"classroomParams":{"A":{"a":1,"b":4},"B":{"a":4,"b":1},"C":{"a":2,"b":8},"D":{"a":8,"b":2}},"conditions":["nonSeqFull","nonSeqPartial","seqNoFeedback","seqFeedback"],"classroomPairings":[["A","B"],["C","D"]],"coinWeights":[0.2,0.5,0.8],"subjectId":"A3M8O363B3IAKE","assignmentId":"3YDGXNSEO0GAV44FCK4ZUAL5O76480","hitId":"39WICJI5ATE2BKO4UUUR86UGAV2Z3G","url":"https://gershmanlab.com/experiments/alicia/teaching/experiment/?hitId=39WICJI5ATE2BKO4UUUR86UGAV2Z3G&workerId=A3M8O363B3IAKE&assignmentId=3YDGXNSEO0GAV44FCK4ZUAL5O76480&a=EXDY3&tp_a=EXDY3&b=3YDGXNSEO0GAV44FCK4ZUAL5O76480&tp_b=3YDGXNSEO0GAV44FCK4ZUAL5O76480&c=365633&tp_c=365633","heads":8,"tails":2,"studentIndex":9,"studentTrueHypers":{"a":2,"b":8},"studentGuess":0.5,"delta":0,"totalExamples":10,"bonus":0.3,"bonusSoFar":0.7},{"rt":4044,"response":{"heads":"9","tails":"1"},"type":"response","condition":"seqNoFeedback","trueTheta":0.8,"classrooms":["A","B"],"studentTrueClassroom":"B","exampleSet":"first","trial_type":"survey-html-form","trial_index":113,"time_elapsed":903708,"internal_node_id":"0.0-88.0-0.0","params":{"nStudents":24,"maxFlips":25,"completionMinutes":45,"basePay":8,"maxBonus":9,"perTrialBonus":0.5,"perTrialBonusThreshold":0.05,"exampleCost":0.02},"classroomParams":{"A":{"a":1,"b":4},"B":{"a":4,"b":1},"C":{"a":2,"b":8},"D":{"a":8,"b":2}},"conditions":["nonSeqFull","nonSeqPartial","seqNoFeedback","seqFeedback"],"classroomPairings":[["A","B"],["C","D"]],"coinWeights":[0.2,0.5,0.8],"subjectId":"A3M8O363B3IAKE","assignmentId":"3YDGXNSEO0GAV44FCK4ZUAL5O76480","hitId":"39WICJI5ATE2BKO4UUUR86UGAV2Z3G","url":"https://gershmanlab.com/experiments/alicia/teaching/experiment/?hitId=39WICJI5ATE2BKO4UUUR86UGAV2Z3G&workerId=A3M8O363B3IAKE&assignmentId=3YDGXNSEO0GAV44FCK4ZUAL5O76480&a=EXDY3&tp_a=EXDY3&b=3YDGXNSEO0GAV44FCK4ZUAL5O76480&tp_b=3YDGXNSEO0GAV44FCK4ZUAL5O76480&c=365633&tp_c=365633","heads":9,"tails":1,"studentIndex":10,"studentTrueHypers":{"a":4,"b":1},"studentGuess":0.8666666666666667,"delta":0.06666666666666665,"totalExamples":10,"bonusSoFar":0.7},{"rt":4280,"response":{"heads":"9","tails":"1"},"type":"response","condition":"seqNoFeedback","trueTheta":0.8,"classrooms":["A","B"],"studentTrueClassroom":"B","exampleSet":"second","trial_type":"survey-html-form","trial_index":116,"time_elapsed":915494,"internal_node_id":"0.0-91.0-0.0","params":{"nStudents":24,"maxFlips":25,"completionMinutes":45,"basePay":8,"maxBonus":9,"perTrialBonus":0.5,"perTrialBonusThreshold":0.05,"exampleCost":0.02},"classroomParams":{"A":{"a":1,"b":4},"B":{"a":4,"b":1},"C":{"a":2,"b":8},"D":{"a":8,"b":2}},"conditions":["nonSeqFull","nonSeqPartial","seqNoFeedback","seqFeedback"],"classroomPairings":[["A","B"],["C","D"]],"coinWeights":[0.2,0.5,0.8],"subjectId":"A3M8O363B3IAKE","assignmentId":"3YDGXNSEO0GAV44FCK4ZUAL5O76480","hitId":"39WICJI5ATE2BKO4UUUR86UGAV2Z3G","url":"https://gershmanlab.com/experiments/alicia/teaching/experiment/?hitId=39WICJI5ATE2BKO4UUUR86UGAV2Z3G&workerId=A3M8O363B3IAKE&assignmentId=3YDGXNSEO0GAV44FCK4ZUAL5O76480&a=EXDY3&tp_a=EXDY3&b=3YDGXNSEO0GAV44FCK4ZUAL5O76480&tp_b=3YDGXNSEO0GAV44FCK4ZUAL5O76480&c=365633&tp_c=365633","firstResponseHeads":9,"firstResponseTails":1,"secondResponseHeads":9,"secondResponseTails":1,"totalHeads":18,"totalTails":2,"studentIndex":10,"studentTrueHypers":{"a":4,"b":1},"studentGuess":0.88,"delta":0.07999999999999996,"bonus":0,"bonusSoFar":0.7,"totalExamples":20},{"rt":4485,"response":{"heads":"5","tails":"5"},"type":"response","condition":"nonSeqPartial","trueTheta":0.5,"classrooms":["C","D"],"studentTrueClassroom":"C","exampleSet":"first","trial_type":"survey-html-form","trial_index":122,"time_elapsed":933590,"internal_node_id":"0.0-97.0-0.0","params":{"nStudents":24,"maxFlips":25,"completionMinutes":45,"basePay":8,"maxBonus":9,"perTrialBonus":0.5,"perTrialBonusThreshold":0.05,"exampleCost":0.02},"classroomParams":{"A":{"a":1,"b":4},"B":{"a":4,"b":1},"C":{"a":2,"b":8},"D":{"a":8,"b":2}},"conditions":["nonSeqFull","nonSeqPartial","seqNoFeedback","seqFeedback"],"classroomPairings":[["A","B"],["C","D"]],"coinWeights":[0.2,0.5,0.8],"subjectId":"A3M8O363B3IAKE","assignmentId":"3YDGXNSEO0GAV44FCK4ZUAL5O76480","hitId":"39WICJI5ATE2BKO4UUUR86UGAV2Z3G","url":"https://gershmanlab.com/experiments/alicia/teaching/experiment/?hitId=39WICJI5ATE2BKO4UUUR86UGAV2Z3G&workerId=A3M8O363B3IAKE&assignmentId=3YDGXNSEO0GAV44FCK4ZUAL5O76480&a=EXDY3&tp_a=EXDY3&b=3YDGXNSEO0GAV44FCK4ZUAL5O76480&tp_b=3YDGXNSEO0GAV44FCK4ZUAL5O76480&c=365633&tp_c=365633","heads":5,"tails":5,"studentIndex":11,"studentTrueHypers":{"a":2,"b":8},"studentGuess":0.35,"delta":0.15000000000000002,"totalExamples":10,"bonus":0,"bonusSoFar":0.7},{"rt":4244,"response":{"heads":"2","tails":"8"},"type":"response","condition":"nonSeqPartial","trueTheta":0.2,"classrooms":["A","B"],"studentTrueClassroom":"B","exampleSet":"first","trial_type":"survey-html-form","trial_index":128,"time_elapsed":952895,"internal_node_id":"0.0-103.0-0.0","params":{"nStudents":24,"maxFlips":25,"completionMinutes":45,"basePay":8,"maxBonus":9,"perTrialBonus":0.5,"perTrialBonusThreshold":0.05,"exampleCost":0.02},"classroomParams":{"A":{"a":1,"b":4},"B":{"a":4,"b":1},"C":{"a":2,"b":8},"D":{"a":8,"b":2}},"conditions":["nonSeqFull","nonSeqPartial","seqNoFeedback","seqFeedback"],"classroomPairings":[["A","B"],["C","D"]],"coinWeights":[0.2,0.5,0.8],"subjectId":"A3M8O363B3IAKE","assignmentId":"3YDGXNSEO0GAV44FCK4ZUAL5O76480","hitId":"39WICJI5ATE2BKO4UUUR86UGAV2Z3G","url":"https://gershmanlab.com/experiments/alicia/teaching/experiment/?hitId=39WICJI5ATE2BKO4UUUR86UGAV2Z3G&workerId=A3M8O363B3IAKE&assignmentId=3YDGXNSEO0GAV44FCK4ZUAL5O76480&a=EXDY3&tp_a=EXDY3&b=3YDGXNSEO0GAV44FCK4ZUAL5O76480&tp_b=3YDGXNSEO0GAV44FCK4ZUAL5O76480&c=365633&tp_c=365633","heads":2,"tails":8,"studentIndex":12,"studentTrueHypers":{"a":4,"b":1},"studentGuess":0.4,"delta":0.2,"totalExamples":10,"bonus":0,"bonusSoFar":0.7},{"rt":3899,"response":{"heads":"8","tails":"2"},"type":"response","condition":"nonSeqPartial","trueTheta":0.8,"classrooms":["C","D"],"studentTrueClassroom":"D","exampleSet":"first","trial_type":"survey-html-form","trial_index":134,"time_elapsed":969551,"internal_node_id":"0.0-109.0-0.0","params":{"nStudents":24,"maxFlips":25,"completionMinutes":45,"basePay":8,"maxBonus":9,"perTrialBonus":0.5,"perTrialBonusThreshold":0.05,"exampleCost":0.02},"classroomParams":{"A":{"a":1,"b":4},"B":{"a":4,"b":1},"C":{"a":2,"b":8},"D":{"a":8,"b":2}},"conditions":["nonSeqFull","nonSeqPartial","seqNoFeedback","seqFeedback"],"classroomPairings":[["A","B"],["C","D"]],"coinWeights":[0.2,0.5,0.8],"subjectId":"A3M8O363B3IAKE","assignmentId":"3YDGXNSEO0GAV44FCK4ZUAL5O76480","hitId":"39WICJI5ATE2BKO4UUUR86UGAV2Z3G","url":"https://gershmanlab.com/experiments/alicia/teaching/experiment/?hitId=39WICJI5ATE2BKO4UUUR86UGAV2Z3G&workerId=A3M8O363B3IAKE&assignmentId=3YDGXNSEO0GAV44FCK4ZUAL5O76480&a=EXDY3&tp_a=EXDY3&b=3YDGXNSEO0GAV44FCK4ZUAL5O76480&tp_b=3YDGXNSEO0GAV44FCK4ZUAL5O76480&c=365633&tp_c=365633","heads":8,"tails":2,"studentIndex":13,"studentTrueHypers":{"a":8,"b":2},"studentGuess":0.8,"delta":0,"totalExamples":10,"bonus":0.3,"bonusSoFar":1},{"rt":4789,"response":{"heads":"2","tails":"8"},"type":"response","condition":"seqNoFeedback","trueTheta":0.2,"classrooms":["C","D"],"studentTrueClassroom":"D","exampleSet":"first","trial_type":"survey-html-form","trial_index":140,"time_elapsed":988406,"internal_node_id":"0.0-115.0-0.0","params":{"nStudents":24,"maxFlips":25,"completionMinutes":45,"basePay":8,"maxBonus":9,"perTrialBonus":0.5,"perTrialBonusThreshold":0.05,"exampleCost":0.02},"classroomParams":{"A":{"a":1,"b":4},"B":{"a":4,"b":1},"C":{"a":2,"b":8},"D":{"a":8,"b":2}},"conditions":["nonSeqFull","nonSeqPartial","seqNoFeedback","seqFeedback"],"classroomPairings":[["A","B"],["C","D"]],"coinWeights":[0.2,0.5,0.8],"subjectId":"A3M8O363B3IAKE","assignmentId":"3YDGXNSEO0GAV44FCK4ZUAL5O76480","hitId":"39WICJI5ATE2BKO4UUUR86UGAV2Z3G","url":"https://gershmanlab.com/experiments/alicia/teaching/experiment/?hitId=39WICJI5ATE2BKO4UUUR86UGAV2Z3G&workerId=A3M8O363B3IAKE&assignmentId=3YDGXNSEO0GAV44FCK4ZUAL5O76480&a=EXDY3&tp_a=EXDY3&b=3YDGXNSEO0GAV44FCK4ZUAL5O76480&tp_b=3YDGXNSEO0GAV44FCK4ZUAL5O76480&c=365633&tp_c=365633","heads":2,"tails":8,"studentIndex":14,"studentTrueHypers":{"a":8,"b":2},"studentGuess":0.5,"delta":0.3,"totalExamples":10,"bonusSoFar":1},{"rt":3987,"response":{"heads":"2","tails":"8"},"type":"response","condition":"seqNoFeedback","trueTheta":0.2,"classrooms":["C","D"],"studentTrueClassroom":"D","exampleSet":"second","trial_type":"survey-html-form","trial_index":143,"time_elapsed":1000401,"internal_node_id":"0.0-118.0-0.0","params":{"nStudents":24,"maxFlips":25,"completionMinutes":45,"basePay":8,"maxBonus":9,"perTrialBonus":0.5,"perTrialBonusThreshold":0.05,"exampleCost":0.02},"classroomParams":{"A":{"a":1,"b":4},"B":{"a":4,"b":1},"C":{"a":2,"b":8},"D":{"a":8,"b":2}},"conditions":["nonSeqFull","nonSeqPartial","seqNoFeedback","seqFeedback"],"classroomPairings":[["A","B"],["C","D"]],"coinWeights":[0.2,0.5,0.8],"subjectId":"A3M8O363B3IAKE","assignmentId":"3YDGXNSEO0GAV44FCK4ZUAL5O76480","hitId":"39WICJI5ATE2BKO4UUUR86UGAV2Z3G","url":"https://gershmanlab.com/experiments/alicia/teaching/experiment/?hitId=39WICJI5ATE2BKO4UUUR86UGAV2Z3G&workerId=A3M8O363B3IAKE&assignmentId=3YDGXNSEO0GAV44FCK4ZUAL5O76480&a=EXDY3&tp_a=EXDY3&b=3YDGXNSEO0GAV44FCK4ZUAL5O76480&tp_b=3YDGXNSEO0GAV44FCK4ZUAL5O76480&c=365633&tp_c=365633","firstResponseHeads":2,"firstResponseTails":8,"secondResponseHeads":2,"secondResponseTails":8,"totalHeads":4,"totalTails":16,"studentIndex":14,"studentTrueHypers":{"a":8,"b":2},"studentGuess":0.4,"delta":0.2,"bonus":0,"bonusSoFar":1,"totalExamples":20},{"rt":10261,"response":{"heads":"4","tails":"1"},"type":"response","condition":"nonSeqFull","trueTheta":0.8,"classrooms":["A","B"],"studentTrueClassroom":"B","exampleSet":"first","trial_type":"survey-html-form","trial_index":149,"time_elapsed":1026224,"internal_node_id":"0.0-124.0-0.0","params":{"nStudents":24,"maxFlips":25,"completionMinutes":45,"basePay":8,"maxBonus":9,"perTrialBonus":0.5,"perTrialBonusThreshold":0.05,"exampleCost":0.02},"classroomParams":{"A":{"a":1,"b":4},"B":{"a":4,"b":1},"C":{"a":2,"b":8},"D":{"a":8,"b":2}},"conditions":["nonSeqFull","nonSeqPartial","seqNoFeedback","seqFeedback"],"classroomPairings":[["A","B"],["C","D"]],"coinWeights":[0.2,0.5,0.8],"subjectId":"A3M8O363B3IAKE","assignmentId":"3YDGXNSEO0GAV44FCK4ZUAL5O76480","hitId":"39WICJI5ATE2BKO4UUUR86UGAV2Z3G","url":"https://gershmanlab.com/experiments/alicia/teaching/experiment/?hitId=39WICJI5ATE2BKO4UUUR86UGAV2Z3G&workerId=A3M8O363B3IAKE&assignmentId=3YDGXNSEO0GAV44FCK4ZUAL5O76480&a=EXDY3&tp_a=EXDY3&b=3YDGXNSEO0GAV44FCK4ZUAL5O76480&tp_b=3YDGXNSEO0GAV44FCK4ZUAL5O76480&c=365633&tp_c=365633","heads":4,"tails":1,"studentIndex":15,"studentTrueHypers":{"a":4,"b":1},"studentGuess":0.8,"delta":0,"totalExamples":5,"bonus":0.4,"bonusSoFar":1.4},{"rt":21238,"response":{"heads":"20","tails":"5"},"type":"response","condition":"nonSeqPartial","trueTheta":0.8,"classrooms":["A","B"],"studentTrueClassroom":"B","exampleSet":"first","trial_type":"survey-html-form","trial_index":155,"time_elapsed":1063008,"internal_node_id":"0.0-130.0-0.0","params":{"nStudents":24,"maxFlips":25,"completionMinutes":45,"basePay":8,"maxBonus":9,"perTrialBonus":0.5,"perTrialBonusThreshold":0.05,"exampleCost":0.02},"classroomParams":{"A":{"a":1,"b":4},"B":{"a":4,"b":1},"C":{"a":2,"b":8},"D":{"a":8,"b":2}},"conditions":["nonSeqFull","nonSeqPartial","seqNoFeedback","seqFeedback"],"classroomPairings":[["A","B"],["C","D"]],"coinWeights":[0.2,0.5,0.8],"subjectId":"A3M8O363B3IAKE","assignmentId":"3YDGXNSEO0GAV44FCK4ZUAL5O76480","hitId":"39WICJI5ATE2BKO4UUUR86UGAV2Z3G","url":"https://gershmanlab.com/experiments/alicia/teaching/experiment/?hitId=39WICJI5ATE2BKO4UUUR86UGAV2Z3G&workerId=A3M8O363B3IAKE&assignmentId=3YDGXNSEO0GAV44FCK4ZUAL5O76480&a=EXDY3&tp_a=EXDY3&b=3YDGXNSEO0GAV44FCK4ZUAL5O76480&tp_b=3YDGXNSEO0GAV44FCK4ZUAL5O76480&c=365633&tp_c=365633","heads":20,"tails":5,"studentIndex":16,"studentTrueHypers":{"a":4,"b":1},"studentGuess":0.8,"delta":0,"totalExamples":25,"bonus":0,"bonusSoFar":1.4},{"rt":6196,"response":{"heads":"2","tails":"8"},"type":"response","condition":"seqNoFeedback","trueTheta":0.2,"classrooms":["A","B"],"studentTrueClassroom":"B","exampleSet":"first","trial_type":"survey-html-form","trial_index":161,"time_elapsed":1090858,"internal_node_id":"0.0-136.0-0.0","params":{"nStudents":24,"maxFlips":25,"completionMinutes":45,"basePay":8,"maxBonus":9,"perTrialBonus":0.5,"perTrialBonusThreshold":0.05,"exampleCost":0.02},"classroomParams":{"A":{"a":1,"b":4},"B":{"a":4,"b":1},"C":{"a":2,"b":8},"D":{"a":8,"b":2}},"conditions":["nonSeqFull","nonSeqPartial","seqNoFeedback","seqFeedback"],"classroomPairings":[["A","B"],["C","D"]],"coinWeights":[0.2,0.5,0.8],"subjectId":"A3M8O363B3IAKE","assignmentId":"3YDGXNSEO0GAV44FCK4ZUAL5O76480","hitId":"39WICJI5ATE2BKO4UUUR86UGAV2Z3G","url":"https://gershmanlab.com/experiments/alicia/teaching/experiment/?hitId=39WICJI5ATE2BKO4UUUR86UGAV2Z3G&workerId=A3M8O363B3IAKE&assignmentId=3YDGXNSEO0GAV44FCK4ZUAL5O76480&a=EXDY3&tp_a=EXDY3&b=3YDGXNSEO0GAV44FCK4ZUAL5O76480&tp_b=3YDGXNSEO0GAV44FCK4ZUAL5O76480&c=365633&tp_c=365633","heads":2,"tails":8,"studentIndex":17,"studentTrueHypers":{"a":4,"b":1},"studentGuess":0.4,"delta":0.2,"totalExamples":10,"bonusSoFar":1.4},{"rt":5522,"response":{"heads":"2","tails":"8"},"type":"response","condition":"seqNoFeedback","trueTheta":0.2,"classrooms":["A","B"],"studentTrueClassroom":"B","exampleSet":"second","trial_type":"survey-html-form","trial_index":164,"time_elapsed":1103136,"internal_node_id":"0.0-139.0-0.0","params":{"nStudents":24,"maxFlips":25,"completionMinutes":45,"basePay":8,"maxBonus":9,"perTrialBonus":0.5,"perTrialBonusThreshold":0.05,"exampleCost":0.02},"classroomParams":{"A":{"a":1,"b":4},"B":{"a":4,"b":1},"C":{"a":2,"b":8},"D":{"a":8,"b":2}},"conditions":["nonSeqFull","nonSeqPartial","seqNoFeedback","seqFeedback"],"classroomPairings":[["A","B"],["C","D"]],"coinWeights":[0.2,0.5,0.8],"subjectId":"A3M8O363B3IAKE","assignmentId":"3YDGXNSEO0GAV44FCK4ZUAL5O76480","hitId":"39WICJI5ATE2BKO4UUUR86UGAV2Z3G","url":"https://gershmanlab.com/experiments/alicia/teaching/experiment/?hitId=39WICJI5ATE2BKO4UUUR86UGAV2Z3G&workerId=A3M8O363B3IAKE&assignmentId=3YDGXNSEO0GAV44FCK4ZUAL5O76480&a=EXDY3&tp_a=EXDY3&b=3YDGXNSEO0GAV44FCK4ZUAL5O76480&tp_b=3YDGXNSEO0GAV44FCK4ZUAL5O76480&c=365633&tp_c=365633","firstResponseHeads":2,"firstResponseTails":8,"secondResponseHeads":2,"secondResponseTails":8,"totalHeads":4,"totalTails":16,"studentIndex":17,"studentTrueHypers":{"a":4,"b":1},"studentGuess":0.32,"delta":0.12,"bonus":0,"bonusSoFar":1.4,"totalExamples":20},{"rt":3135,"response":{"heads":"2","tails":"8"},"type":"response","condition":"seqFeedback","trueTheta":0.2,"classrooms":["C","D"],"studentTrueClassroom":"D","exampleSet":"first","trial_type":"survey-html-form","trial_index":170,"time_elapsed":1120823,"internal_node_id":"0.0-145.0-0.0","params":{"nStudents":24,"maxFlips":25,"completionMinutes":45,"basePay":8,"maxBonus":9,"perTrialBonus":0.5,"perTrialBonusThreshold":0.05,"exampleCost":0.02},"classroomParams":{"A":{"a":1,"b":4},"B":{"a":4,"b":1},"C":{"a":2,"b":8},"D":{"a":8,"b":2}},"conditions":["nonSeqFull","nonSeqPartial","seqNoFeedback","seqFeedback"],"classroomPairings":[["A","B"],["C","D"]],"coinWeights":[0.2,0.5,0.8],"subjectId":"A3M8O363B3IAKE","assignmentId":"3YDGXNSEO0GAV44FCK4ZUAL5O76480","hitId":"39WICJI5ATE2BKO4UUUR86UGAV2Z3G","url":"https://gershmanlab.com/experiments/alicia/teaching/experiment/?hitId=39WICJI5ATE2BKO4UUUR86UGAV2Z3G&workerId=A3M8O363B3IAKE&assignmentId=3YDGXNSEO0GAV44FCK4ZUAL5O76480&a=EXDY3&tp_a=EXDY3&b=3YDGXNSEO0GAV44FCK4ZUAL5O76480&tp_b=3YDGXNSEO0GAV44FCK4ZUAL5O76480&c=365633&tp_c=365633","heads":2,"tails":8,"studentIndex":18,"studentTrueHypers":{"a":8,"b":2},"studentGuess":0.5,"delta":0.3,"totalExamples":10,"bonusSoFar":1.4},{"rt":8099,"response":{"heads":"1","tails":"9"},"type":"response","condition":"seqFeedback","trueTheta":0.2,"classrooms":["C","D"],"studentTrueClassroom":"D","exampleSet":"second","trial_type":"survey-html-form","trial_index":174,"time_elapsed":1138311,"internal_node_id":"0.0-149.0-0.0","params":{"nStudents":24,"maxFlips":25,"completionMinutes":45,"basePay":8,"maxBonus":9,"perTrialBonus":0.5,"perTrialBonusThreshold":0.05,"exampleCost":0.02},"classroomParams":{"A":{"a":1,"b":4},"B":{"a":4,"b":1},"C":{"a":2,"b":8},"D":{"a":8,"b":2}},"conditions":["nonSeqFull","nonSeqPartial","seqNoFeedback","seqFeedback"],"classroomPairings":[["A","B"],["C","D"]],"coinWeights":[0.2,0.5,0.8],"subjectId":"A3M8O363B3IAKE","assignmentId":"3YDGXNSEO0GAV44FCK4ZUAL5O76480","hitId":"39WICJI5ATE2BKO4UUUR86UGAV2Z3G","url":"https://gershmanlab.com/experiments/alicia/teaching/experiment/?hitId=39WICJI5ATE2BKO4UUUR86UGAV2Z3G&workerId=A3M8O363B3IAKE&assignmentId=3YDGXNSEO0GAV44FCK4ZUAL5O76480&a=EXDY3&tp_a=EXDY3&b=3YDGXNSEO0GAV44FCK4ZUAL5O76480&tp_b=3YDGXNSEO0GAV44FCK4ZUAL5O76480&c=365633&tp_c=365633","firstResponseHeads":2,"firstResponseTails":8,"secondResponseHeads":1,"secondResponseTails":9,"totalHeads":3,"totalTails":17,"studentIndex":18,"studentTrueHypers":{"a":8,"b":2},"studentGuess":0.36666666666666664,"delta":0.16666666666666663,"bonus":0,"bonusSoFar":1.4,"totalExamples":20},{"rt":3652,"response":{"heads":"2","tails":"8"},"type":"response","condition":"nonSeqPartial","trueTheta":0.2,"classrooms":["C","D"],"studentTrueClassroom":"D","exampleSet":"first","trial_type":"survey-html-form","trial_index":180,"time_elapsed":1159004,"internal_node_id":"0.0-155.0-0.0","params":{"nStudents":24,"maxFlips":25,"completionMinutes":45,"basePay":8,"maxBonus":9,"perTrialBonus":0.5,"perTrialBonusThreshold":0.05,"exampleCost":0.02},"classroomParams":{"A":{"a":1,"b":4},"B":{"a":4,"b":1},"C":{"a":2,"b":8},"D":{"a":8,"b":2}},"conditions":["nonSeqFull","nonSeqPartial","seqNoFeedback","seqFeedback"],"classroomPairings":[["A","B"],["C","D"]],"coinWeights":[0.2,0.5,0.8],"subjectId":"A3M8O363B3IAKE","assignmentId":"3YDGXNSEO0GAV44FCK4ZUAL5O76480","hitId":"39WICJI5ATE2BKO4UUUR86UGAV2Z3G","url":"https://gershmanlab.com/experiments/alicia/teaching/experiment/?hitId=39WICJI5ATE2BKO4UUUR86UGAV2Z3G&workerId=A3M8O363B3IAKE&assignmentId=3YDGXNSEO0GAV44FCK4ZUAL5O76480&a=EXDY3&tp_a=EXDY3&b=3YDGXNSEO0GAV44FCK4ZUAL5O76480&tp_b=3YDGXNSEO0GAV44FCK4ZUAL5O76480&c=365633&tp_c=365633","heads":2,"tails":8,"studentIndex":19,"studentTrueHypers":{"a":8,"b":2},"studentGuess":0.5,"delta":0.3,"totalExamples":10,"bonus":0,"bonusSoFar":1.4},{"rt":4894,"response":{"heads":"5","tails":"5"},"type":"response","condition":"nonSeqPartial","trueTheta":0.5,"classrooms":["A","B"],"studentTrueClassroom":"A","exampleSet":"first","trial_type":"survey-html-form","trial_index":186,"time_elapsed":1176251,"internal_node_id":"0.0-161.0-0.0","params":{"nStudents":24,"maxFlips":25,"completionMinutes":45,"basePay":8,"maxBonus":9,"perTrialBonus":0.5,"perTrialBonusThreshold":0.05,"exampleCost":0.02},"classroomParams":{"A":{"a":1,"b":4},"B":{"a":4,"b":1},"C":{"a":2,"b":8},"D":{"a":8,"b":2}},"conditions":["nonSeqFull","nonSeqPartial","seqNoFeedback","seqFeedback"],"classroomPairings":[["A","B"],["C","D"]],"coinWeights":[0.2,0.5,0.8],"subjectId":"A3M8O363B3IAKE","assignmentId":"3YDGXNSEO0GAV44FCK4ZUAL5O76480","hitId":"39WICJI5ATE2BKO4UUUR86UGAV2Z3G","url":"https://gershmanlab.com/experiments/alicia/teaching/experiment/?hitId=39WICJI5ATE2BKO4UUUR86UGAV2Z3G&workerId=A3M8O363B3IAKE&assignmentId=3YDGXNSEO0GAV44FCK4ZUAL5O76480&a=EXDY3&tp_a=EXDY3&b=3YDGXNSEO0GAV44FCK4ZUAL5O76480&tp_b=3YDGXNSEO0GAV44FCK4ZUAL5O76480&c=365633&tp_c=365633","heads":5,"tails":5,"studentIndex":20,"studentTrueHypers":{"a":1,"b":4},"studentGuess":0.4,"delta":0.09999999999999998,"totalExamples":10,"bonus":0,"bonusSoFar":1.4},{"rt":6395,"response":{"heads":"5","tails":"5"},"type":"response","condition":"seqFeedback","trueTheta":0.5,"classrooms":["C","D"],"studentTrueClassroom":"C","exampleSet":"first","trial_type":"survey-html-form","trial_index":192,"time_elapsed":1194913,"internal_node_id":"0.0-167.0-0.0","params":{"nStudents":24,"maxFlips":25,"completionMinutes":45,"basePay":8,"maxBonus":9,"perTrialBonus":0.5,"perTrialBonusThreshold":0.05,"exampleCost":0.02},"classroomParams":{"A":{"a":1,"b":4},"B":{"a":4,"b":1},"C":{"a":2,"b":8},"D":{"a":8,"b":2}},"conditions":["nonSeqFull","nonSeqPartial","seqNoFeedback","seqFeedback"],"classroomPairings":[["A","B"],["C","D"]],"coinWeights":[0.2,0.5,0.8],"subjectId":"A3M8O363B3IAKE","assignmentId":"3YDGXNSEO0GAV44FCK4ZUAL5O76480","hitId":"39WICJI5ATE2BKO4UUUR86UGAV2Z3G","url":"https://gershmanlab.com/experiments/alicia/teaching/experiment/?hitId=39WICJI5ATE2BKO4UUUR86UGAV2Z3G&workerId=A3M8O363B3IAKE&assignmentId=3YDGXNSEO0GAV44FCK4ZUAL5O76480&a=EXDY3&tp_a=EXDY3&b=3YDGXNSEO0GAV44FCK4ZUAL5O76480&tp_b=3YDGXNSEO0GAV44FCK4ZUAL5O76480&c=365633&tp_c=365633","heads":5,"tails":5,"studentIndex":21,"studentTrueHypers":{"a":2,"b":8},"studentGuess":0.35,"delta":0.15000000000000002,"totalExamples":10,"bonusSoFar":1.4},{"rt":10432,"response":{"heads":"7","tails":"3"},"type":"response","condition":"seqFeedback","trueTheta":0.5,"classrooms":["C","D"],"studentTrueClassroom":"C","exampleSet":"second","trial_type":"survey-html-form","trial_index":196,"time_elapsed":1214847,"internal_node_id":"0.0-171.0-0.0","params":{"nStudents":24,"maxFlips":25,"completionMinutes":45,"basePay":8,"maxBonus":9,"perTrialBonus":0.5,"perTrialBonusThreshold":0.05,"exampleCost":0.02},"classroomParams":{"A":{"a":1,"b":4},"B":{"a":4,"b":1},"C":{"a":2,"b":8},"D":{"a":8,"b":2}},"conditions":["nonSeqFull","nonSeqPartial","seqNoFeedback","seqFeedback"],"classroomPairings":[["A","B"],["C","D"]],"coinWeights":[0.2,0.5,0.8],"subjectId":"A3M8O363B3IAKE","assignmentId":"3YDGXNSEO0GAV44FCK4ZUAL5O76480","hitId":"39WICJI5ATE2BKO4UUUR86UGAV2Z3G","url":"https://gershmanlab.com/experiments/alicia/teaching/experiment/?hitId=39WICJI5ATE2BKO4UUUR86UGAV2Z3G&workerId=A3M8O363B3IAKE&assignmentId=3YDGXNSEO0GAV44FCK4ZUAL5O76480&a=EXDY3&tp_a=EXDY3&b=3YDGXNSEO0GAV44FCK4ZUAL5O76480&tp_b=3YDGXNSEO0GAV44FCK4ZUAL5O76480&c=365633&tp_c=365633","firstResponseHeads":5,"firstResponseTails":5,"secondResponseHeads":7,"secondResponseTails":3,"totalHeads":12,"totalTails":8,"studentIndex":21,"studentTrueHypers":{"a":2,"b":8},"studentGuess":0.4666666666666667,"delta":0.033333333333333326,"bonus":0.1,"bonusSoFar":1.5,"totalExamples":20},{"rt":5851,"response":{"heads":"1","tails":"4"},"type":"response","condition":"nonSeqFull","trueTheta":0.5,"classrooms":["A","B"],"studentTrueClassroom":"B","exampleSet":"first","trial_type":"survey-html-form","trial_index":202,"time_elapsed":1235121,"internal_node_id":"0.0-177.0-0.0","params":{"nStudents":24,"maxFlips":25,"completionMinutes":45,"basePay":8,"maxBonus":9,"perTrialBonus":0.5,"perTrialBonusThreshold":0.05,"exampleCost":0.02},"classroomParams":{"A":{"a":1,"b":4},"B":{"a":4,"b":1},"C":{"a":2,"b":8},"D":{"a":8,"b":2}},"conditions":["nonSeqFull","nonSeqPartial","seqNoFeedback","seqFeedback"],"classroomPairings":[["A","B"],["C","D"]],"coinWeights":[0.2,0.5,0.8],"subjectId":"A3M8O363B3IAKE","assignmentId":"3YDGXNSEO0GAV44FCK4ZUAL5O76480","hitId":"39WICJI5ATE2BKO4UUUR86UGAV2Z3G","url":"https://gershmanlab.com/experiments/alicia/teaching/experiment/?hitId=39WICJI5ATE2BKO4UUUR86UGAV2Z3G&workerId=A3M8O363B3IAKE&assignmentId=3YDGXNSEO0GAV44FCK4ZUAL5O76480&a=EXDY3&tp_a=EXDY3&b=3YDGXNSEO0GAV44FCK4ZUAL5O76480&tp_b=3YDGXNSEO0GAV44FCK4ZUAL5O76480&c=365633&tp_c=365633","heads":1,"tails":4,"studentIndex":22,"studentTrueHypers":{"a":4,"b":1},"studentGuess":0.5,"delta":0,"totalExamples":5,"bonus":0.4,"bonusSoFar":1.9},{"rt":4098,"response":{"heads":"5","tails":"5"},"type":"response","condition":"seqNoFeedback","trueTheta":0.5,"classrooms":["C","D"],"studentTrueClassroom":"D","exampleSet":"first","trial_type":"survey-html-form","trial_index":208,"time_elapsed":1253834,"internal_node_id":"0.0-183.0-0.0","params":{"nStudents":24,"maxFlips":25,"completionMinutes":45,"basePay":8,"maxBonus":9,"perTrialBonus":0.5,"perTrialBonusThreshold":0.05,"exampleCost":0.02},"classroomParams":{"A":{"a":1,"b":4},"B":{"a":4,"b":1},"C":{"a":2,"b":8},"D":{"a":8,"b":2}},"conditions":["nonSeqFull","nonSeqPartial","seqNoFeedback","seqFeedback"],"classroomPairings":[["A","B"],["C","D"]],"coinWeights":[0.2,0.5,0.8],"subjectId":"A3M8O363B3IAKE","assignmentId":"3YDGXNSEO0GAV44FCK4ZUAL5O76480","hitId":"39WICJI5ATE2BKO4UUUR86UGAV2Z3G","url":"https://gershmanlab.com/experiments/alicia/teaching/experiment/?hitId=39WICJI5ATE2BKO4UUUR86UGAV2Z3G&workerId=A3M8O363B3IAKE&assignmentId=3YDGXNSEO0GAV44FCK4ZUAL5O76480&a=EXDY3&tp_a=EXDY3&b=3YDGXNSEO0GAV44FCK4ZUAL5O76480&tp_b=3YDGXNSEO0GAV44FCK4ZUAL5O76480&c=365633&tp_c=365633","heads":5,"tails":5,"studentIndex":23,"studentTrueHypers":{"a":8,"b":2},"studentGuess":0.65,"delta":0.15000000000000002,"totalExamples":10,"bonusSoFar":1.9},{"rt":6774,"response":{"heads":"7","tails":"3"},"type":"response","condition":"seqNoFeedback","trueTheta":0.5,"classrooms":["C","D"],"studentTrueClassroom":"D","exampleSet":"second","trial_type":"survey-html-form","trial_index":211,"time_elapsed":1267365,"internal_node_id":"0.0-186.0-0.0","params":{"nStudents":24,"maxFlips":25,"completionMinutes":45,"basePay":8,"maxBonus":9,"perTrialBonus":0.5,"perTrialBonusThreshold":0.05,"exampleCost":0.02},"classroomParams":{"A":{"a":1,"b":4},"B":{"a":4,"b":1},"C":{"a":2,"b":8},"D":{"a":8,"b":2}},"conditions":["nonSeqFull","nonSeqPartial","seqNoFeedback","seqFeedback"],"classroomPairings":[["A","B"],["C","D"]],"coinWeights":[0.2,0.5,0.8],"subjectId":"A3M8O363B3IAKE","assignmentId":"3YDGXNSEO0GAV44FCK4ZUAL5O76480","hitId":"39WICJI5ATE2BKO4UUUR86UGAV2Z3G","url":"https://gershmanlab.com/experiments/alicia/teaching/experiment/?hitId=39WICJI5ATE2BKO4UUUR86UGAV2Z3G&workerId=A3M8O363B3IAKE&assignmentId=3YDGXNSEO0GAV44FCK4ZUAL5O76480&a=EXDY3&tp_a=EXDY3&b=3YDGXNSEO0GAV44FCK4ZUAL5O76480&tp_b=3YDGXNSEO0GAV44FCK4ZUAL5O76480&c=365633&tp_c=365633","firstResponseHeads":5,"firstResponseTails":5,"secondResponseHeads":7,"secondResponseTails":3,"totalHeads":12,"totalTails":8,"studentIndex":23,"studentTrueHypers":{"a":8,"b":2},"studentGuess":0.6666666666666666,"delta":0.16666666666666663,"bonus":0,"bonusSoFar":1.9,"totalExamples":20},{"rt":15675,"response":{"gender":"male","age":"47","understood":"yes","comments":""},"type":"response","trial_type":"survey-html-form","trial_index":215,"time_elapsed":1293262,"internal_node_id":"0.0-191.0","params":{"nStudents":24,"maxFlips":25,"completionMinutes":45,"basePay":8,"maxBonus":9,"perTrialBonus":0.5,"perTrialBonusThreshold":0.05,"exampleCost":0.02},"classroomParams":{"A":{"a":1,"b":4},"B":{"a":4,"b":1},"C":{"a":2,"b":8},"D":{"a":8,"b":2}},"conditions":["nonSeqFull","nonSeqPartial","seqNoFeedback","seqFeedback"],"classroomPairings":[["A","B"],["C","D"]],"coinWeights":[0.2,0.5,0.8],"subjectId":"A3M8O363B3IAKE","assignmentId":"3YDGXNSEO0GAV44FCK4ZUAL5O76480","hitId":"39WICJI5ATE2BKO4UUUR86UGAV2Z3G","url":"https://gershmanlab.com/experiments/alicia/teaching/experiment/?hitId=39WICJI5ATE2BKO4UUUR86UGAV2Z3G&workerId=A3M8O363B3IAKE&assignmentId=3YDGXNSEO0GAV44FCK4ZUAL5O76480&a=EXDY3&tp_a=EXDY3&b=3YDGXNSEO0GAV44FCK4ZUAL5O76480&tp_b=3YDGXNSEO0GAV44FCK4ZUAL5O76480&c=365633&tp_c=365633","totalBonus":1.9}]