[{"rt":33831,"response":{"heads":"5","tails":"5"},"type":"response","condition":"seqFeedback","trueTheta":0.5,"classrooms":["A","B"],"studentTrueClassroom":"A","exampleSet":"first","trial_type":"survey-html-form","trial_index":7,"time_elapsed":363136,"internal_node_id":"0.0-6.0-0.0","params":{"nStudents":24,"maxFlips":25,"completionMinutes":45,"basePay":8,"maxBonus":9,"perTrialBonus":0.5,"perTrialBonusThreshold":0.05,"exampleCost":0.02},"classroomParams":{"A":{"a":1,"b":4},"B":{"a":4,"b":1},"C":{"a":2,"b":8},"D":{"a":8,"b":2}},"conditions":["nonSeqFull","nonSeqPartial","seqNoFeedback","seqFeedback"],"classroomPairings":[["A","B"],["C","D"]],"coinWeights":[0.2,0.5,0.8],"subjectId":"A3R5OJR60C6004","assignmentId":"3M0BCWMB8WI564L6P2USG4UXG6QBWS","hitId":"39WICJI5ATE2BKO4UUUR86UGAV2Z3G","url":"https://gershmanlab.com/experiments/alicia/teaching/experiment/?hitId=39WICJI5ATE2BKO4UUUR86UGAV2Z3G&workerId=A3R5OJR60C6004&assignmentId=3M0BCWMB8WI564L6P2USG4UXG6QBWS&a=BC0M3&tp_a=BC0M3&b=3M0BCWMB8WI564L6P2USG4UXG6QBWS&tp_b=3M0BCWMB8WI564L6P2USG4UXG6QBWS&c=365633&tp_c=365633","heads":5,"tails":5,"studentIndex":0,"studentTrueHypers":{"a":1,"b":4},"studentGuess":0.4,"delta":0.09999999999999998,"totalExamples":10,"bonusSoFar":0},{"rt":17943,"response":{"heads":"6","tails":"6"},"type":"response","condition":"seqFeedback","trueTheta":0.5,"classrooms":["A","B"],"studentTrueClassroom":"A","exampleSet":"second","trial_type":"survey-html-form","trial_index":11,"time_elapsed":393096,"internal_node_id":"0.0-10.0-0.0","params":{"nStudents":24,"maxFlips":25,"completionMinutes":45,"basePay":8,"maxBonus":9,"perTrialBonus":0.5,"perTrialBonusThreshold":0.05,"exampleCost":0.02},"classroomParams":{"A":{"a":1,"b":4},"B":{"a":4,"b":1},"C":{"a":2,"b":8},"D":{"a":8,"b":2}},"conditions":["nonSeqFull","nonSeqPartial","seqNoFeedback","seqFeedback"],"classroomPairings":[["A","B"],["C","D"]],"coinWeights":[0.2,0.5,0.8],"subjectId":"A3R5OJR60C6004","assignmentId":"3M0BCWMB8WI564L6P2USG4UXG6QBWS","hitId":"39WICJI5ATE2BKO4UUUR86UGAV2Z3G","url":"https://gershmanlab.com/experiments/alicia/teaching/experiment/?hitId=39WICJI5ATE2BKO4UUUR86UGAV2Z3G&workerId=A3R5OJR60C6004&assignmentId=3M0BCWMB8WI564L6P2USG4UXG6QBWS&a=BC0M3&tp_a=BC0M3&b=3M0BCWMB8WI564L6P2USG4UXG6QBWS&tp_b=3M0BCWMB8WI564L6P2USG4UXG6QBWS&c=365633&tp_c=365633","firstResponseHeads":5,"firstResponseTails":5,"secondResponseHeads":6,"secondResponseTails":6,"totalHeads":11,"totalTails":11,"studentIndex":0,"studentTrueHypers":{"a":1,"b":4},"studentGuess":0.4444444444444444,"delta":0.05555555555555558,"bonus":0,"bonusSoFar":0,"totalExamples":22},{"rt":7201,"response":{"heads":"1","tails":"6"},"type":"response","condition":"nonSeqFull","trueTheta":0.2,"classrooms":["A","B"],"studentTrueClassroom":"B","exampleSet":"first","trial_type":"survey-html-form","trial_index":17,"time_elapsed":420918,"internal_node_id":"0.0-16.0-0.0","params":{"nStudents":24,"maxFlips":25,"completionMinutes":45,"basePay":8,"maxBonus":9,"perTrialBonus":0.5,"perTrialBonusThreshold":0.05,"exampleCost":0.02},"classroomParams":{"A":{"a":1,"b":4},"B":{"a":4,"b":1},"C":{"a":2,"b":8},"D":{"a":8,"b":2}},"conditions":["nonSeqFull","nonSeqPartial","seqNoFeedback","seqFeedback"],"classroomPairings":[["A","B"],["C","D"]],"coinWeights":[0.2,0.5,0.8],"subjectId":"A3R5OJR60C6004","assignmentId":"3M0BCWMB8WI564L6P2USG4UXG6QBWS","hitId":"39WICJI5ATE2BKO4UUUR86UGAV2Z3G","url":"https://gershmanlab.com/experiments/alicia/teaching/experiment/?hitId=39WICJI5ATE2BKO4UUUR86UGAV2Z3G&workerId=A3R5OJR60C6004&assignmentId=3M0BCWMB8WI564L6P2USG4UXG6QBWS&a=BC0M3&tp_a=BC0M3&b=3M0BCWMB8WI564L6P2USG4UXG6QBWS&tp_b=3M0BCWMB8WI564L6P2USG4UXG6QBWS&c=365633&tp_c=365633","heads":1,"tails":6,"studentIndex":1,"studentTrueHypers":{"a":4,"b":1},"studentGuess":0.4166666666666667,"delta":0.21666666666666667,"totalExamples":7,"bonus":0,"bonusSoFar":0},{"rt":19442,"response":{"heads":"1","tails":"11"},"type":"response","condition":"nonSeqPartial","trueTheta":0.2,"classrooms":["C","D"],"studentTrueClassroom":"D","exampleSet":"first","trial_type":"survey-html-form","trial_index":23,"time_elapsed":461702,"internal_node_id":"0.0-22.0-0.0","params":{"nStudents":24,"maxFlips":25,"completionMinutes":45,"basePay":8,"maxBonus":9,"perTrialBonus":0.5,"perTrialBonusThreshold":0.05,"exampleCost":0.02},"classroomParams":{"A":{"a":1,"b":4},"B":{"a":4,"b":1},"C":{"a":2,"b":8},"D":{"a":8,"b":2}},"conditions":["nonSeqFull","nonSeqPartial","seqNoFeedback","seqFeedback"],"classroomPairings":[["A","B"],["C","D"]],"coinWeights":[0.2,0.5,0.8],"subjectId":"A3R5OJR60C6004","assignmentId":"3M0BCWMB8WI564L6P2USG4UXG6QBWS","hitId":"39WICJI5ATE2BKO4UUUR86UGAV2Z3G","url":"https://gershmanlab.com/experiments/alicia/teaching/experiment/?hitId=39WICJI5ATE2BKO4UUUR86UGAV2Z3G&workerId=A3R5OJR60C6004&assignmentId=3M0BCWMB8WI564L6P2USG4UXG6QBWS&a=BC0M3&tp_a=BC0M3&b=3M0BCWMB8WI564L6P2USG4UXG6QBWS&tp_b=3M0BCWMB8WI564L6P2USG4UXG6QBWS&c=365633&tp_c=365633","heads":1,"tails":11,"studentIndex":2,"studentTrueHypers":{"a":8,"b":2},"studentGuess":0.4090909090909091,"delta":0.2090909090909091,"totalExamples":12,"bonus":0,"bonusSoFar":0},{"rt":22248,"response":{"heads":"10","tails":"10"},"type":"response","condition":"nonSeqFull","trueTheta":0.5,"classrooms":["C","D"],"studentTrueClassroom":"D","exampleSet":"first","trial_type":"survey-html-form","trial_index":29,"time_elapsed":497572,"internal_node_id":"0.0-28.0-0.0","params":{"nStudents":24,"maxFlips":25,"completionMinutes":45,"basePay":8,"maxBonus":9,"perTrialBonus":0.5,"perTrialBonusThreshold":0.05,"exampleCost":0.02},"classroomParams":{"A":{"a":1,"b":4},"B":{"a":4,"b":1},"C":{"a":2,"b":8},"D":{"a":8,"b":2}},"conditions":["nonSeqFull","nonSeqPartial","seqNoFeedback","seqFeedback"],"classroomPairings":[["A","B"],["C","D"]],"coinWeights":[0.2,0.5,0.8],"subjectId":"A3R5OJR60C6004","assignmentId":"3M0BCWMB8WI564L6P2USG4UXG6QBWS","hitId":"39WICJI5ATE2BKO4UUUR86UGAV2Z3G","url":"https://gershmanlab.com/experiments/alicia/teaching/experiment/?hitId=39WICJI5ATE2BKO4UUUR86UGAV2Z3G&workerId=A3R5OJR60C6004&assignmentId=3M0BCWMB8WI564L6P2USG4UXG6QBWS&a=BC0M3&tp_a=BC0M3&b=3M0BCWMB8WI564L6P2USG4UXG6QBWS&tp_b=3M0BCWMB8WI564L6P2USG4UXG6QBWS&c=365633&tp_c=365633","heads":10,"tails":10,"studentIndex":3,"studentTrueHypers":{"a":8,"b":2},"studentGuess":0.6,"delta":0.09999999999999998,"totalExamples":20,"bonus":0,"bonusSoFar":0},{"rt":12955,"response":{"heads":"14","tails":"1"},"type":"response","condition":"seqNoFeedback","trueTheta":0.8,"classrooms":["A","B"],"studentTrueClassroom":"B","exampleSet":"first","trial_type":"survey-html-form","trial_index":35,"time_elapsed":529787,"internal_node_id":"0.0-34.0-0.0","params":{"nStudents":24,"maxFlips":25,"completionMinutes":45,"basePay":8,"maxBonus":9,"perTrialBonus":0.5,"perTrialBonusThreshold":0.05,"exampleCost":0.02},"classroomParams":{"A":{"a":1,"b":4},"B":{"a":4,"b":1},"C":{"a":2,"b":8},"D":{"a":8,"b":2}},"conditions":["nonSeqFull","nonSeqPartial","seqNoFeedback","seqFeedback"],"classroomPairings":[["A","B"],["C","D"]],"coinWeights":[0.2,0.5,0.8],"subjectId":"A3R5OJR60C6004","assignmentId":"3M0BCWMB8WI564L6P2USG4UXG6QBWS","hitId":"39WICJI5ATE2BKO4UUUR86UGAV2Z3G","url":"https://gershmanlab.com/experiments/alicia/teaching/experiment/?hitId=39WICJI5ATE2BKO4UUUR86UGAV2Z3G&workerId=A3R5OJR60C6004&assignmentId=3M0BCWMB8WI564L6P2USG4UXG6QBWS&a=BC0M3&tp_a=BC0M3&b=3M0BCWMB8WI564L6P2USG4UXG6QBWS&tp_b=3M0BCWMB8WI564L6P2USG4UXG6QBWS&c=365633&tp_c=365633","heads":14,"tails":1,"studentIndex":4,"studentTrueHypers":{"a":4,"b":1},"studentGuess":0.9,"delta":0.09999999999999998,"totalExamples":15,"bonusSoFar":0},{"rt":11933,"response":{"heads":"13","tails":"1"},"type":"response","condition":"seqNoFeedback","trueTheta":0.8,"classrooms":["A","B"],"studentTrueClassroom":"B","exampleSet":"second","trial_type":"survey-html-form","trial_index":38,"time_elapsed":547993,"internal_node_id":"0.0-37.0-0.0","params":{"nStudents":24,"maxFlips":25,"completionMinutes":45,"basePay":8,"maxBonus":9,"perTrialBonus":0.5,"perTrialBonusThreshold":0.05,"exampleCost":0.02},"classroomParams":{"A":{"a":1,"b":4},"B":{"a":4,"b":1},"C":{"a":2,"b":8},"D":{"a":8,"b":2}},"conditions":["nonSeqFull","nonSeqPartial","seqNoFeedback","seqFeedback"],"classroomPairings":[["A","B"],["C","D"]],"coinWeights":[0.2,0.5,0.8],"subjectId":"A3R5OJR60C6004","assignmentId":"3M0BCWMB8WI564L6P2USG4UXG6QBWS","hitId":"39WICJI5ATE2BKO4UUUR86UGAV2Z3G","url":"https://gershmanlab.com/experiments/alicia/teaching/experiment/?hitId=39WICJI5ATE2BKO4UUUR86UGAV2Z3G&workerId=A3R5OJR60C6004&assignmentId=3M0BCWMB8WI564L6P2USG4UXG6QBWS&a=BC0M3&tp_a=BC0M3&b=3M0BCWMB8WI564L6P2USG4UXG6QBWS&tp_b=3M0BCWMB8WI564L6P2USG4UXG6QBWS&c=365633&tp_c=365633","firstResponseHeads":14,"firstResponseTails":1,"secondResponseHeads":13,"secondResponseTails":1,"totalHeads":27,"totalTails":2,"studentIndex":4,"studentTrueHypers":{"a":4,"b":1},"studentGuess":0.9117647058823529,"delta":0.11176470588235288,"bonus":0,"bonusSoFar":0,"totalExamples":29},{"rt":13719,"response":{"heads":"12","tails":"1"},"type":"response","condition":"seqFeedback","trueTheta":0.8,"classrooms":["A","B"],"studentTrueClassroom":"A","exampleSet":"first","trial_type":"survey-html-form","trial_index":44,"time_elapsed":582905,"internal_node_id":"0.0-43.0-0.0","params":{"nStudents":24,"maxFlips":25,"completionMinutes":45,"basePay":8,"maxBonus":9,"perTrialBonus":0.5,"perTrialBonusThreshold":0.05,"exampleCost":0.02},"classroomParams":{"A":{"a":1,"b":4},"B":{"a":4,"b":1},"C":{"a":2,"b":8},"D":{"a":8,"b":2}},"conditions":["nonSeqFull","nonSeqPartial","seqNoFeedback","seqFeedback"],"classroomPairings":[["A","B"],["C","D"]],"coinWeights":[0.2,0.5,0.8],"subjectId":"A3R5OJR60C6004","assignmentId":"3M0BCWMB8WI564L6P2USG4UXG6QBWS","hitId":"39WICJI5ATE2BKO4UUUR86UGAV2Z3G","url":"https://gershmanlab.com/experiments/alicia/teaching/experiment/?hitId=39WICJI5ATE2BKO4UUUR86UGAV2Z3G&workerId=A3R5OJR60C6004&assignmentId=3M0BCWMB8WI564L6P2USG4UXG6QBWS&a=BC0M3&tp_a=BC0M3&b=3M0BCWMB8WI564L6P2USG4UXG6QBWS&tp_b=3M0BCWMB8WI564L6P2USG4UXG6QBWS&c=365633&tp_c=365633","heads":12,"tails":1,"studentIndex":5,"studentTrueHypers":{"a":1,"b":4},"studentGuess":0.7222222222222222,"delta":0.07777777777777783,"totalExamples":13,"bonusSoFar":0},{"rt":7731,"response":{"heads":"14","tails":"1"},"type":"response","condition":"seqFeedback","trueTheta":0.8,"classrooms":["A","B"],"studentTrueClassroom":"A","exampleSet":"second","trial_type":"survey-html-form","trial_index":48,"time_elapsed":604740,"internal_node_id":"0.0-47.0-0.0","params":{"nStudents":24,"maxFlips":25,"completionMinutes":45,"basePay":8,"maxBonus":9,"perTrialBonus":0.5,"perTrialBonusThreshold":0.05,"exampleCost":0.02},"classroomParams":{"A":{"a":1,"b":4},"B":{"a":4,"b":1},"C":{"a":2,"b":8},"D":{"a":8,"b":2}},"conditions":["nonSeqFull","nonSeqPartial","seqNoFeedback","seqFeedback"],"classroomPairings":[["A","B"],["C","D"]],"coinWeights":[0.2,0.5,0.8],"subjectId":"A3R5OJR60C6004","assignmentId":"3M0BCWMB8WI564L6P2USG4UXG6QBWS","hitId":"39WICJI5ATE2BKO4UUUR86UGAV2Z3G","url":"https://gershmanlab.com/experiments/alicia/teaching/experiment/?hitId=39WICJI5ATE2BKO4UUUR86UGAV2Z3G&workerId=A3R5OJR60C6004&assignmentId=3M0BCWMB8WI564L6P2USG4UXG6QBWS&a=BC0M3&tp_a=BC0M3&b=3M0BCWMB8WI564L6P2USG4UXG6QBWS&tp_b=3M0BCWMB8WI564L6P2USG4UXG6QBWS&c=365633&tp_c=365633","firstResponseHeads":12,"firstResponseTails":1,"secondResponseHeads":14,"secondResponseTails":1,"totalHeads":26,"totalTails":2,"studentIndex":5,"studentTrueHypers":{"a":1,"b":4},"studentGuess":0.8181818181818182,"delta":0.018181818181818188,"bonus":0,"bonusSoFar":0,"totalExamples":28},{"rt":16590,"response":{"heads":"12","tails":"1"},"type":"response","condition":"nonSeqPartial","trueTheta":0.8,"classrooms":["C","D"],"studentTrueClassroom":"D","exampleSet":"first","trial_type":"survey-html-form","trial_index":54,"time_elapsed":645202,"internal_node_id":"0.0-53.0-0.0","params":{"nStudents":24,"maxFlips":25,"completionMinutes":45,"basePay":8,"maxBonus":9,"perTrialBonus":0.5,"perTrialBonusThreshold":0.05,"exampleCost":0.02},"classroomParams":{"A":{"a":1,"b":4},"B":{"a":4,"b":1},"C":{"a":2,"b":8},"D":{"a":8,"b":2}},"conditions":["nonSeqFull","nonSeqPartial","seqNoFeedback","seqFeedback"],"classroomPairings":[["A","B"],["C","D"]],"coinWeights":[0.2,0.5,0.8],"subjectId":"A3R5OJR60C6004","assignmentId":"3M0BCWMB8WI564L6P2USG4UXG6QBWS","hitId":"39WICJI5ATE2BKO4UUUR86UGAV2Z3G","url":"https://gershmanlab.com/experiments/alicia/teaching/experiment/?hitId=39WICJI5ATE2BKO4UUUR86UGAV2Z3G&workerId=A3R5OJR60C6004&assignmentId=3M0BCWMB8WI564L6P2USG4UXG6QBWS&a=BC0M3&tp_a=BC0M3&b=3M0BCWMB8WI564L6P2USG4UXG6QBWS&tp_b=3M0BCWMB8WI564L6P2USG4UXG6QBWS&c=365633&tp_c=365633","heads":12,"tails":1,"studentIndex":6,"studentTrueHypers":{"a":8,"b":2},"studentGuess":0.8695652173913043,"delta":0.06956521739130428,"totalExamples":13,"bonus":0,"bonusSoFar":0},{"rt":5361,"response":{"heads":"1","tails":"11"},"type":"response","condition":"seqFeedback","trueTheta":0.2,"classrooms":["A","B"],"studentTrueClassroom":"A","exampleSet":"first","trial_type":"survey-html-form","trial_index":60,"time_elapsed":676513,"internal_node_id":"0.0-59.0-0.0","params":{"nStudents":24,"maxFlips":25,"completionMinutes":45,"basePay":8,"maxBonus":9,"perTrialBonus":0.5,"perTrialBonusThreshold":0.05,"exampleCost":0.02},"classroomParams":{"A":{"a":1,"b":4},"B":{"a":4,"b":1},"C":{"a":2,"b":8},"D":{"a":8,"b":2}},"conditions":["nonSeqFull","nonSeqPartial","seqNoFeedback","seqFeedback"],"classroomPairings":[["A","B"],["C","D"]],"coinWeights":[0.2,0.5,0.8],"subjectId":"A3R5OJR60C6004","assignmentId":"3M0BCWMB8WI564L6P2USG4UXG6QBWS","hitId":"39WICJI5ATE2BKO4UUUR86UGAV2Z3G","url":"https://gershmanlab.com/experiments/alicia/teaching/experiment/?hitId=39WICJI5ATE2BKO4UUUR86UGAV2Z3G&workerId=A3R5OJR60C6004&assignmentId=3M0BCWMB8WI564L6P2USG4UXG6QBWS&a=BC0M3&tp_a=BC0M3&b=3M0BCWMB8WI564L6P2USG4UXG6QBWS&tp_b=3M0BCWMB8WI564L6P2USG4UXG6QBWS&c=365633&tp_c=365633","heads":1,"tails":11,"studentIndex":7,"studentTrueHypers":{"a":1,"b":4},"studentGuess":0.11764705882352941,"delta":0.0823529411764706,"totalExamples":12,"bonusSoFar":0},{"rt":8427,"response":{"heads":"1","tails":"14"},"type":"response","condition":"seqFeedback","trueTheta":0.2,"classrooms":["A","B"],"studentTrueClassroom":"A","exampleSet":"second","trial_type":"survey-html-form","trial_index":64,"time_elapsed":698686,"internal_node_id":"0.0-63.0-0.0","params":{"nStudents":24,"maxFlips":25,"completionMinutes":45,"basePay":8,"maxBonus":9,"perTrialBonus":0.5,"perTrialBonusThreshold":0.05,"exampleCost":0.02},"classroomParams":{"A":{"a":1,"b":4},"B":{"a":4,"b":1},"C":{"a":2,"b":8},"D":{"a":8,"b":2}},"conditions":["nonSeqFull","nonSeqPartial","seqNoFeedback","seqFeedback"],"classroomPairings":[["A","B"],["C","D"]],"coinWeights":[0.2,0.5,0.8],"subjectId":"A3R5OJR60C6004","assignmentId":"3M0BCWMB8WI564L6P2USG4UXG6QBWS","hitId":"39WICJI5ATE2BKO4UUUR86UGAV2Z3G","url":"https://gershmanlab.com/experiments/alicia/teaching/experiment/?hitId=39WICJI5ATE2BKO4UUUR86UGAV2Z3G&workerId=A3R5OJR60C6004&assignmentId=3M0BCWMB8WI564L6P2USG4UXG6QBWS&a=BC0M3&tp_a=BC0M3&b=3M0BCWMB8WI564L6P2USG4UXG6QBWS&tp_b=3M0BCWMB8WI564L6P2USG4UXG6QBWS&c=365633&tp_c=365633","firstResponseHeads":1,"firstResponseTails":11,"secondResponseHeads":1,"secondResponseTails":14,"totalHeads":2,"totalTails":25,"studentIndex":7,"studentTrueHypers":{"a":1,"b":4},"studentGuess":0.09375,"delta":0.10625000000000001,"bonus":0,"bonusSoFar":0,"totalExamples":27},{"rt":7158,"response":{"heads":"1","tails":"6"},"type":"response","condition":"seqNoFeedback","trueTheta":0.2,"classrooms":["C","D"],"studentTrueClassroom":"D","exampleSet":"first","trial_type":"survey-html-form","trial_index":70,"time_elapsed":722480,"internal_node_id":"0.0-69.0-0.0","params":{"nStudents":24,"maxFlips":25,"completionMinutes":45,"basePay":8,"maxBonus":9,"perTrialBonus":0.5,"perTrialBonusThreshold":0.05,"exampleCost":0.02},"classroomParams":{"A":{"a":1,"b":4},"B":{"a":4,"b":1},"C":{"a":2,"b":8},"D":{"a":8,"b":2}},"conditions":["nonSeqFull","nonSeqPartial","seqNoFeedback","seqFeedback"],"classroomPairings":[["A","B"],["C","D"]],"coinWeights":[0.2,0.5,0.8],"subjectId":"A3R5OJR60C6004","assignmentId":"3M0BCWMB8WI564L6P2USG4UXG6QBWS","hitId":"39WICJI5ATE2BKO4UUUR86UGAV2Z3G","url":"https://gershmanlab.com/experiments/alicia/teaching/experiment/?hitId=39WICJI5ATE2BKO4UUUR86UGAV2Z3G&workerId=A3R5OJR60C6004&assignmentId=3M0BCWMB8WI564L6P2USG4UXG6QBWS&a=BC0M3&tp_a=BC0M3&b=3M0BCWMB8WI564L6P2USG4UXG6QBWS&tp_b=3M0BCWMB8WI564L6P2USG4UXG6QBWS&c=365633&tp_c=365633","heads":1,"tails":6,"studentIndex":8,"studentTrueHypers":{"a":8,"b":2},"studentGuess":0.5294117647058824,"delta":0.32941176470588235,"totalExamples":7,"bonusSoFar":0},{"rt":11713,"response":{"heads":"1","tails":"7"},"type":"response","condition":"seqNoFeedback","trueTheta":0.2,"classrooms":["C","D"],"studentTrueClassroom":"D","exampleSet":"second","trial_type":"survey-html-form","trial_index":73,"time_elapsed":739960,"internal_node_id":"0.0-72.0-0.0","params":{"nStudents":24,"maxFlips":25,"completionMinutes":45,"basePay":8,"maxBonus":9,"perTrialBonus":0.5,"perTrialBonusThreshold":0.05,"exampleCost":0.02},"classroomParams":{"A":{"a":1,"b":4},"B":{"a":4,"b":1},"C":{"a":2,"b":8},"D":{"a":8,"b":2}},"conditions":["nonSeqFull","nonSeqPartial","seqNoFeedback","seqFeedback"],"classroomPairings":[["A","B"],["C","D"]],"coinWeights":[0.2,0.5,0.8],"subjectId":"A3R5OJR60C6004","assignmentId":"3M0BCWMB8WI564L6P2USG4UXG6QBWS","hitId":"39WICJI5ATE2BKO4UUUR86UGAV2Z3G","url":"https://gershmanlab.com/experiments/alicia/teaching/experiment/?hitId=39WICJI5ATE2BKO4UUUR86UGAV2Z3G&workerId=A3R5OJR60C6004&assignmentId=3M0BCWMB8WI564L6P2USG4UXG6QBWS&a=BC0M3&tp_a=BC0M3&b=3M0BCWMB8WI564L6P2USG4UXG6QBWS&tp_b=3M0BCWMB8WI564L6P2USG4UXG6QBWS&c=365633&tp_c=365633","firstResponseHeads":1,"firstResponseTails":6,"secondResponseHeads":1,"secondResponseTails":7,"totalHeads":2,"totalTails":13,"studentIndex":8,"studentTrueHypers":{"a":8,"b":2},"studentGuess":0.4,"delta":0.2,"bonus":0,"bonusSoFar":0,"totalExamples":15},{"rt":9526,"response":{"heads":"8","tails":"2"},"type":"response","condition":"seqNoFeedback","trueTheta":0.8,"classrooms":["C","D"],"studentTrueClassroom":"D","exampleSet":"first","trial_type":"survey-html-form","trial_index":79,"time_elapsed":769286,"internal_node_id":"0.0-78.0-0.0","params":{"nStudents":24,"maxFlips":25,"completionMinutes":45,"basePay":8,"maxBonus":9,"perTrialBonus":0.5,"perTrialBonusThreshold":0.05,"exampleCost":0.02},"classroomParams":{"A":{"a":1,"b":4},"B":{"a":4,"b":1},"C":{"a":2,"b":8},"D":{"a":8,"b":2}},"conditions":["nonSeqFull","nonSeqPartial","seqNoFeedback","seqFeedback"],"classroomPairings":[["A","B"],["C","D"]],"coinWeights":[0.2,0.5,0.8],"subjectId":"A3R5OJR60C6004","assignmentId":"3M0BCWMB8WI564L6P2USG4UXG6QBWS","hitId":"39WICJI5ATE2BKO4UUUR86UGAV2Z3G","url":"https://gershmanlab.com/experiments/alicia/teaching/experiment/?hitId=39WICJI5ATE2BKO4UUUR86UGAV2Z3G&workerId=A3R5OJR60C6004&assignmentId=3M0BCWMB8WI564L6P2USG4UXG6QBWS&a=BC0M3&tp_a=BC0M3&b=3M0BCWMB8WI564L6P2USG4UXG6QBWS&tp_b=3M0BCWMB8WI564L6P2USG4UXG6QBWS&c=365633&tp_c=365633","heads":8,"tails":2,"studentIndex":9,"studentTrueHypers":{"a":8,"b":2},"studentGuess":0.8,"delta":0,"totalExamples":10,"bonusSoFar":0},{"rt":12679,"response":{"heads":"8","tails":"2"},"type":"response","condition":"seqNoFeedback","trueTheta":0.8,"classrooms":["C","D"],"studentTrueClassroom":"D","exampleSet":"second","trial_type":"survey-html-form","trial_index":82,"time_elapsed":788730,"internal_node_id":"0.0-81.0-0.0","params":{"nStudents":24,"maxFlips":25,"completionMinutes":45,"basePay":8,"maxBonus":9,"perTrialBonus":0.5,"perTrialBonusThreshold":0.05,"exampleCost":0.02},"classroomParams":{"A":{"a":1,"b":4},"B":{"a":4,"b":1},"C":{"a":2,"b":8},"D":{"a":8,"b":2}},"conditions":["nonSeqFull","nonSeqPartial","seqNoFeedback","seqFeedback"],"classroomPairings":[["A","B"],["C","D"]],"coinWeights":[0.2,0.5,0.8],"subjectId":"A3R5OJR60C6004","assignmentId":"3M0BCWMB8WI564L6P2USG4UXG6QBWS","hitId":"39WICJI5ATE2BKO4UUUR86UGAV2Z3G","url":"https://gershmanlab.com/experiments/alicia/teaching/experiment/?hitId=39WICJI5ATE2BKO4UUUR86UGAV2Z3G&workerId=A3R5OJR60C6004&assignmentId=3M0BCWMB8WI564L6P2USG4UXG6QBWS&a=BC0M3&tp_a=BC0M3&b=3M0BCWMB8WI564L6P2USG4UXG6QBWS&tp_b=3M0BCWMB8WI564L6P2USG4UXG6QBWS&c=365633&tp_c=365633","firstResponseHeads":8,"firstResponseTails":2,"secondResponseHeads":8,"secondResponseTails":2,"totalHeads":16,"totalTails":4,"studentIndex":9,"studentTrueHypers":{"a":8,"b":2},"studentGuess":0.8,"delta":0,"bonus":0.1,"bonusSoFar":0.1,"totalExamples":20},{"rt":4164,"response":{"heads":"5","tails":"5"},"type":"response","condition":"seqNoFeedback","trueTheta":0.5,"classrooms":["A","B"],"studentTrueClassroom":"A","exampleSet":"first","trial_type":"survey-html-form","trial_index":88,"time_elapsed":808658,"internal_node_id":"0.0-87.0-0.0","params":{"nStudents":24,"maxFlips":25,"completionMinutes":45,"basePay":8,"maxBonus":9,"perTrialBonus":0.5,"perTrialBonusThreshold":0.05,"exampleCost":0.02},"classroomParams":{"A":{"a":1,"b":4},"B":{"a":4,"b":1},"C":{"a":2,"b":8},"D":{"a":8,"b":2}},"conditions":["nonSeqFull","nonSeqPartial","seqNoFeedback","seqFeedback"],"classroomPairings":[["A","B"],["C","D"]],"coinWeights":[0.2,0.5,0.8],"subjectId":"A3R5OJR60C6004","assignmentId":"3M0BCWMB8WI564L6P2USG4UXG6QBWS","hitId":"39WICJI5ATE2BKO4UUUR86UGAV2Z3G","url":"https://gershmanlab.com/experiments/alicia/teaching/experiment/?hitId=39WICJI5ATE2BKO4UUUR86UGAV2Z3G&workerId=A3R5OJR60C6004&assignmentId=3M0BCWMB8WI564L6P2USG4UXG6QBWS&a=BC0M3&tp_a=BC0M3&b=3M0BCWMB8WI564L6P2USG4UXG6QBWS&tp_b=3M0BCWMB8WI564L6P2USG4UXG6QBWS&c=365633&tp_c=365633","heads":5,"tails":5,"studentIndex":10,"studentTrueHypers":{"a":1,"b":4},"studentGuess":0.4,"delta":0.09999999999999998,"totalExamples":10,"bonusSoFar":0.1},{"rt":5507,"response":{"heads":"5","tails":"5"},"type":"response","condition":"seqNoFeedback","trueTheta":0.5,"classrooms":["A","B"],"studentTrueClassroom":"A","exampleSet":"second","trial_type":"survey-html-form","trial_index":91,"time_elapsed":819935,"internal_node_id":"0.0-90.0-0.0","params":{"nStudents":24,"maxFlips":25,"completionMinutes":45,"basePay":8,"maxBonus":9,"perTrialBonus":0.5,"perTrialBonusThreshold":0.05,"exampleCost":0.02},"classroomParams":{"A":{"a":1,"b":4},"B":{"a":4,"b":1},"C":{"a":2,"b":8},"D":{"a":8,"b":2}},"conditions":["nonSeqFull","nonSeqPartial","seqNoFeedback","seqFeedback"],"classroomPairings":[["A","B"],["C","D"]],"coinWeights":[0.2,0.5,0.8],"subjectId":"A3R5OJR60C6004","assignmentId":"3M0BCWMB8WI564L6P2USG4UXG6QBWS","hitId":"39WICJI5ATE2BKO4UUUR86UGAV2Z3G","url":"https://gershmanlab.com/experiments/alicia/teaching/experiment/?hitId=39WICJI5ATE2BKO4UUUR86UGAV2Z3G&workerId=A3R5OJR60C6004&assignmentId=3M0BCWMB8WI564L6P2USG4UXG6QBWS&a=BC0M3&tp_a=BC0M3&b=3M0BCWMB8WI564L6P2USG4UXG6QBWS&tp_b=3M0BCWMB8WI564L6P2USG4UXG6QBWS&c=365633&tp_c=365633","firstResponseHeads":5,"firstResponseTails":5,"secondResponseHeads":5,"secondResponseTails":5,"totalHeads":10,"totalTails":10,"studentIndex":10,"studentTrueHypers":{"a":1,"b":4},"studentGuess":0.44,"delta":0.06,"bonus":0,"bonusSoFar":0.1,"totalExamples":20},{"rt":7087,"response":{"heads":"6","tails":"6"},"type":"response","condition":"seqFeedback","trueTheta":0.5,"classrooms":["C","D"],"studentTrueClassroom":"D","exampleSet":"first","trial_type":"survey-html-form","trial_index":97,"time_elapsed":845700,"internal_node_id":"0.0-96.0-0.0","params":{"nStudents":24,"maxFlips":25,"completionMinutes":45,"basePay":8,"maxBonus":9,"perTrialBonus":0.5,"perTrialBonusThreshold":0.05,"exampleCost":0.02},"classroomParams":{"A":{"a":1,"b":4},"B":{"a":4,"b":1},"C":{"a":2,"b":8},"D":{"a":8,"b":2}},"conditions":["nonSeqFull","nonSeqPartial","seqNoFeedback","seqFeedback"],"classroomPairings":[["A","B"],["C","D"]],"coinWeights":[0.2,0.5,0.8],"subjectId":"A3R5OJR60C6004","assignmentId":"3M0BCWMB8WI564L6P2USG4UXG6QBWS","hitId":"39WICJI5ATE2BKO4UUUR86UGAV2Z3G","url":"https://gershmanlab.com/experiments/alicia/teaching/experiment/?hitId=39WICJI5ATE2BKO4UUUR86UGAV2Z3G&workerId=A3R5OJR60C6004&assignmentId=3M0BCWMB8WI564L6P2USG4UXG6QBWS&a=BC0M3&tp_a=BC0M3&b=3M0BCWMB8WI564L6P2USG4UXG6QBWS&tp_b=3M0BCWMB8WI564L6P2USG4UXG6QBWS&c=365633&tp_c=365633","heads":6,"tails":6,"studentIndex":11,"studentTrueHypers":{"a":8,"b":2},"studentGuess":0.6363636363636364,"delta":0.13636363636363635,"totalExamples":12,"bonusSoFar":0.1},{"rt":6595,"response":{"heads":"7","tails":"7"},"type":"response","condition":"seqFeedback","trueTheta":0.5,"classrooms":["C","D"],"studentTrueClassroom":"D","exampleSet":"second","trial_type":"survey-html-form","trial_index":101,"time_elapsed":866380,"internal_node_id":"0.0-100.0-0.0","params":{"nStudents":24,"maxFlips":25,"completionMinutes":45,"basePay":8,"maxBonus":9,"perTrialBonus":0.5,"perTrialBonusThreshold":0.05,"exampleCost":0.02},"classroomParams":{"A":{"a":1,"b":4},"B":{"a":4,"b":1},"C":{"a":2,"b":8},"D":{"a":8,"b":2}},"conditions":["nonSeqFull","nonSeqPartial","seqNoFeedback","seqFeedback"],"classroomPairings":[["A","B"],["C","D"]],"coinWeights":[0.2,0.5,0.8],"subjectId":"A3R5OJR60C6004","assignmentId":"3M0BCWMB8WI564L6P2USG4UXG6QBWS","hitId":"39WICJI5ATE2BKO4UUUR86UGAV2Z3G","url":"https://gershmanlab.com/experiments/alicia/teaching/experiment/?hitId=39WICJI5ATE2BKO4UUUR86UGAV2Z3G&workerId=A3R5OJR60C6004&assignmentId=3M0BCWMB8WI564L6P2USG4UXG6QBWS&a=BC0M3&tp_a=BC0M3&b=3M0BCWMB8WI564L6P2USG4UXG6QBWS&tp_b=3M0BCWMB8WI564L6P2USG4UXG6QBWS&c=365633&tp_c=365633","firstResponseHeads":6,"firstResponseTails":6,"secondResponseHeads":7,"secondResponseTails":7,"totalHeads":13,"totalTails":13,"studentIndex":11,"studentTrueHypers":{"a":8,"b":2},"studentGuess":0.5833333333333334,"delta":0.08333333333333337,"bonus":0,"bonusSoFar":0.1,"totalExamples":26},{"rt":8878,"response":{"heads":"8","tails":"8"},"type":"response","condition":"nonSeqPartial","trueTheta":0.5,"classrooms":["C","D"],"studentTrueClassroom":"D","exampleSet":"first","trial_type":"survey-html-form","trial_index":107,"time_elapsed":888405,"internal_node_id":"0.0-106.0-0.0","params":{"nStudents":24,"maxFlips":25,"completionMinutes":45,"basePay":8,"maxBonus":9,"perTrialBonus":0.5,"perTrialBonusThreshold":0.05,"exampleCost":0.02},"classroomParams":{"A":{"a":1,"b":4},"B":{"a":4,"b":1},"C":{"a":2,"b":8},"D":{"a":8,"b":2}},"conditions":["nonSeqFull","nonSeqPartial","seqNoFeedback","seqFeedback"],"classroomPairings":[["A","B"],["C","D"]],"coinWeights":[0.2,0.5,0.8],"subjectId":"A3R5OJR60C6004","assignmentId":"3M0BCWMB8WI564L6P2USG4UXG6QBWS","hitId":"39WICJI5ATE2BKO4UUUR86UGAV2Z3G","url":"https://gershmanlab.com/experiments/alicia/teaching/experiment/?hitId=39WICJI5ATE2BKO4UUUR86UGAV2Z3G&workerId=A3R5OJR60C6004&assignmentId=3M0BCWMB8WI564L6P2USG4UXG6QBWS&a=BC0M3&tp_a=BC0M3&b=3M0BCWMB8WI564L6P2USG4UXG6QBWS&tp_b=3M0BCWMB8WI564L6P2USG4UXG6QBWS&c=365633&tp_c=365633","heads":8,"tails":8,"studentIndex":12,"studentTrueHypers":{"a":8,"b":2},"studentGuess":0.6153846153846154,"delta":0.11538461538461542,"totalExamples":16,"bonus":0,"bonusSoFar":0.1},{"rt":7485,"response":{"heads":"2","tails":"8"},"type":"response","condition":"nonSeqPartial","trueTheta":0.2,"classrooms":["A","B"],"studentTrueClassroom":"B","exampleSet":"first","trial_type":"survey-html-form","trial_index":113,"time_elapsed":912562,"internal_node_id":"0.0-112.0-0.0","params":{"nStudents":24,"maxFlips":25,"completionMinutes":45,"basePay":8,"maxBonus":9,"perTrialBonus":0.5,"perTrialBonusThreshold":0.05,"exampleCost":0.02},"classroomParams":{"A":{"a":1,"b":4},"B":{"a":4,"b":1},"C":{"a":2,"b":8},"D":{"a":8,"b":2}},"conditions":["nonSeqFull","nonSeqPartial","seqNoFeedback","seqFeedback"],"classroomPairings":[["A","B"],["C","D"]],"coinWeights":[0.2,0.5,0.8],"subjectId":"A3R5OJR60C6004","assignmentId":"3M0BCWMB8WI564L6P2USG4UXG6QBWS","hitId":"39WICJI5ATE2BKO4UUUR86UGAV2Z3G","url":"https://gershmanlab.com/experiments/alicia/teaching/experiment/?hitId=39WICJI5ATE2BKO4UUUR86UGAV2Z3G&workerId=A3R5OJR60C6004&assignmentId=3M0BCWMB8WI564L6P2USG4UXG6QBWS&a=BC0M3&tp_a=BC0M3&b=3M0BCWMB8WI564L6P2USG4UXG6QBWS&tp_b=3M0BCWMB8WI564L6P2USG4UXG6QBWS&c=365633&tp_c=365633","heads":2,"tails":8,"studentIndex":13,"studentTrueHypers":{"a":4,"b":1},"studentGuess":0.4,"delta":0.2,"totalExamples":10,"bonus":0,"bonusSoFar":0.1},{"rt":13147,"response":{"heads":"18","tails":"2"},"type":"response","condition":"nonSeqFull","trueTheta":0.8,"classrooms":["C","D"],"studentTrueClassroom":"C","exampleSet":"first","trial_type":"survey-html-form","trial_index":119,"time_elapsed":939026,"internal_node_id":"0.0-118.0-0.0","params":{"nStudents":24,"maxFlips":25,"completionMinutes":45,"basePay":8,"maxBonus":9,"perTrialBonus":0.5,"perTrialBonusThreshold":0.05,"exampleCost":0.02},"classroomParams":{"A":{"a":1,"b":4},"B":{"a":4,"b":1},"C":{"a":2,"b":8},"D":{"a":8,"b":2}},"conditions":["nonSeqFull","nonSeqPartial","seqNoFeedback","seqFeedback"],"classroomPairings":[["A","B"],["C","D"]],"coinWeights":[0.2,0.5,0.8],"subjectId":"A3R5OJR60C6004","assignmentId":"3M0BCWMB8WI564L6P2USG4UXG6QBWS","hitId":"39WICJI5ATE2BKO4UUUR86UGAV2Z3G","url":"https://gershmanlab.com/experiments/alicia/teaching/experiment/?hitId=39WICJI5ATE2BKO4UUUR86UGAV2Z3G&workerId=A3R5OJR60C6004&assignmentId=3M0BCWMB8WI564L6P2USG4UXG6QBWS&a=BC0M3&tp_a=BC0M3&b=3M0BCWMB8WI564L6P2USG4UXG6QBWS&tp_b=3M0BCWMB8WI564L6P2USG4UXG6QBWS&c=365633&tp_c=365633","heads":18,"tails":2,"studentIndex":14,"studentTrueHypers":{"a":2,"b":8},"studentGuess":0.6666666666666666,"delta":0.13333333333333341,"totalExamples":20,"bonus":0,"bonusSoFar":0.1},{"rt":5384,"response":{"heads":"8","tails":"2"},"type":"response","condition":"seqNoFeedback","trueTheta":0.2,"classrooms":["A","B"],"studentTrueClassroom":"B","exampleSet":"first","trial_type":"survey-html-form","trial_index":125,"time_elapsed":959850,"internal_node_id":"0.0-124.0-0.0","params":{"nStudents":24,"maxFlips":25,"completionMinutes":45,"basePay":8,"maxBonus":9,"perTrialBonus":0.5,"perTrialBonusThreshold":0.05,"exampleCost":0.02},"classroomParams":{"A":{"a":1,"b":4},"B":{"a":4,"b":1},"C":{"a":2,"b":8},"D":{"a":8,"b":2}},"conditions":["nonSeqFull","nonSeqPartial","seqNoFeedback","seqFeedback"],"classroomPairings":[["A","B"],["C","D"]],"coinWeights":[0.2,0.5,0.8],"subjectId":"A3R5OJR60C6004","assignmentId":"3M0BCWMB8WI564L6P2USG4UXG6QBWS","hitId":"39WICJI5ATE2BKO4UUUR86UGAV2Z3G","url":"https://gershmanlab.com/experiments/alicia/teaching/experiment/?hitId=39WICJI5ATE2BKO4UUUR86UGAV2Z3G&workerId=A3R5OJR60C6004&assignmentId=3M0BCWMB8WI564L6P2USG4UXG6QBWS&a=BC0M3&tp_a=BC0M3&b=3M0BCWMB8WI564L6P2USG4UXG6QBWS&tp_b=3M0BCWMB8WI564L6P2USG4UXG6QBWS&c=365633&tp_c=365633","heads":8,"tails":2,"studentIndex":15,"studentTrueHypers":{"a":4,"b":1},"studentGuess":0.8,"delta":0.6000000000000001,"totalExamples":10,"bonusSoFar":0.1},{"rt":9421,"response":{"heads":"8","tails":"2"},"type":"response","condition":"seqNoFeedback","trueTheta":0.2,"classrooms":["A","B"],"studentTrueClassroom":"B","exampleSet":"second","trial_type":"survey-html-form","trial_index":128,"time_elapsed":975799,"internal_node_id":"0.0-127.0-0.0","params":{"nStudents":24,"maxFlips":25,"completionMinutes":45,"basePay":8,"maxBonus":9,"perTrialBonus":0.5,"perTrialBonusThreshold":0.05,"exampleCost":0.02},"classroomParams":{"A":{"a":1,"b":4},"B":{"a":4,"b":1},"C":{"a":2,"b":8},"D":{"a":8,"b":2}},"conditions":["nonSeqFull","nonSeqPartial","seqNoFeedback","seqFeedback"],"classroomPairings":[["A","B"],["C","D"]],"coinWeights":[0.2,0.5,0.8],"subjectId":"A3R5OJR60C6004","assignmentId":"3M0BCWMB8WI564L6P2USG4UXG6QBWS","hitId":"39WICJI5ATE2BKO4UUUR86UGAV2Z3G","url":"https://gershmanlab.com/experiments/alicia/teaching/experiment/?hitId=39WICJI5ATE2BKO4UUUR86UGAV2Z3G&workerId=A3R5OJR60C6004&assignmentId=3M0BCWMB8WI564L6P2USG4UXG6QBWS&a=BC0M3&tp_a=BC0M3&b=3M0BCWMB8WI564L6P2USG4UXG6QBWS&tp_b=3M0BCWMB8WI564L6P2USG4UXG6QBWS&c=365633&tp_c=365633","firstResponseHeads":8,"firstResponseTails":2,"secondResponseHeads":8,"secondResponseTails":2,"totalHeads":16,"totalTails":4,"studentIndex":15,"studentTrueHypers":{"a":4,"b":1},"studentGuess":0.8,"delta":0.6000000000000001,"bonus":0,"bonusSoFar":0.1,"totalExamples":20},{"rt":10333,"response":{"heads":"11","tails":"11"},"type":"response","condition":"nonSeqFull","trueTheta":0.5,"classrooms":["A","B"],"studentTrueClassroom":"B","exampleSet":"first","trial_type":"survey-html-form","trial_index":134,"time_elapsed":1034494,"internal_node_id":"0.0-133.0-0.0","params":{"nStudents":24,"maxFlips":25,"completionMinutes":45,"basePay":8,"maxBonus":9,"perTrialBonus":0.5,"perTrialBonusThreshold":0.05,"exampleCost":0.02},"classroomParams":{"A":{"a":1,"b":4},"B":{"a":4,"b":1},"C":{"a":2,"b":8},"D":{"a":8,"b":2}},"conditions":["nonSeqFull","nonSeqPartial","seqNoFeedback","seqFeedback"],"classroomPairings":[["A","B"],["C","D"]],"coinWeights":[0.2,0.5,0.8],"subjectId":"A3R5OJR60C6004","assignmentId":"3M0BCWMB8WI564L6P2USG4UXG6QBWS","hitId":"39WICJI5ATE2BKO4UUUR86UGAV2Z3G","url":"https://gershmanlab.com/experiments/alicia/teaching/experiment/?hitId=39WICJI5ATE2BKO4UUUR86UGAV2Z3G&workerId=A3R5OJR60C6004&assignmentId=3M0BCWMB8WI564L6P2USG4UXG6QBWS&a=BC0M3&tp_a=BC0M3&b=3M0BCWMB8WI564L6P2USG4UXG6QBWS&tp_b=3M0BCWMB8WI564L6P2USG4UXG6QBWS&c=365633&tp_c=365633","heads":11,"tails":11,"studentIndex":16,"studentTrueHypers":{"a":4,"b":1},"studentGuess":0.5555555555555556,"delta":0.05555555555555558,"totalExamples":22,"bonus":0,"bonusSoFar":0.1},{"rt":9808,"response":{"heads":"18","tails":"2"},"type":"response","condition":"nonSeqPartial","trueTheta":0.8,"classrooms":["A","B"],"studentTrueClassroom":"A","exampleSet":"first","trial_type":"survey-html-form","trial_index":140,"time_elapsed":1059244,"internal_node_id":"0.0-139.0-0.0","params":{"nStudents":24,"maxFlips":25,"completionMinutes":45,"basePay":8,"maxBonus":9,"perTrialBonus":0.5,"perTrialBonusThreshold":0.05,"exampleCost":0.02},"classroomParams":{"A":{"a":1,"b":4},"B":{"a":4,"b":1},"C":{"a":2,"b":8},"D":{"a":8,"b":2}},"conditions":["nonSeqFull","nonSeqPartial","seqNoFeedback","seqFeedback"],"classroomPairings":[["A","B"],["C","D"]],"coinWeights":[0.2,0.5,0.8],"subjectId":"A3R5OJR60C6004","assignmentId":"3M0BCWMB8WI564L6P2USG4UXG6QBWS","hitId":"39WICJI5ATE2BKO4UUUR86UGAV2Z3G","url":"https://gershmanlab.com/experiments/alicia/teaching/experiment/?hitId=39WICJI5ATE2BKO4UUUR86UGAV2Z3G&workerId=A3R5OJR60C6004&assignmentId=3M0BCWMB8WI564L6P2USG4UXG6QBWS&a=BC0M3&tp_a=BC0M3&b=3M0BCWMB8WI564L6P2USG4UXG6QBWS&tp_b=3M0BCWMB8WI564L6P2USG4UXG6QBWS&c=365633&tp_c=365633","heads":18,"tails":2,"studentIndex":17,"studentTrueHypers":{"a":1,"b":4},"studentGuess":0.76,"delta":0.040000000000000036,"totalExamples":20,"bonus":0.1,"bonusSoFar":0.2},{"rt":6736,"response":{"heads":"8","tails":"2"},"type":"response","condition":"seqFeedback","trueTheta":0.8,"classrooms":["C","D"],"studentTrueClassroom":"D","exampleSet":"first","trial_type":"survey-html-form","trial_index":146,"time_elapsed":1088864,"internal_node_id":"0.0-145.0-0.0","params":{"nStudents":24,"maxFlips":25,"completionMinutes":45,"basePay":8,"maxBonus":9,"perTrialBonus":0.5,"perTrialBonusThreshold":0.05,"exampleCost":0.02},"classroomParams":{"A":{"a":1,"b":4},"B":{"a":4,"b":1},"C":{"a":2,"b":8},"D":{"a":8,"b":2}},"conditions":["nonSeqFull","nonSeqPartial","seqNoFeedback","seqFeedback"],"classroomPairings":[["A","B"],["C","D"]],"coinWeights":[0.2,0.5,0.8],"subjectId":"A3R5OJR60C6004","assignmentId":"3M0BCWMB8WI564L6P2USG4UXG6QBWS","hitId":"39WICJI5ATE2BKO4UUUR86UGAV2Z3G","url":"https://gershmanlab.com/experiments/alicia/teaching/experiment/?hitId=39WICJI5ATE2BKO4UUUR86UGAV2Z3G&workerId=A3R5OJR60C6004&assignmentId=3M0BCWMB8WI564L6P2USG4UXG6QBWS&a=BC0M3&tp_a=BC0M3&b=3M0BCWMB8WI564L6P2USG4UXG6QBWS&tp_b=3M0BCWMB8WI564L6P2USG4UXG6QBWS&c=365633&tp_c=365633","heads":8,"tails":2,"studentIndex":18,"studentTrueHypers":{"a":8,"b":2},"studentGuess":0.8,"delta":0,"totalExamples":10,"bonusSoFar":0.2},{"rt":6863,"response":{"heads":"8","tails":"2"},"type":"response","condition":"seqFeedback","trueTheta":0.8,"classrooms":["C","D"],"studentTrueClassroom":"D","exampleSet":"second","trial_type":"survey-html-form","trial_index":150,"time_elapsed":1106624,"internal_node_id":"0.0-149.0-0.0","params":{"nStudents":24,"maxFlips":25,"completionMinutes":45,"basePay":8,"maxBonus":9,"perTrialBonus":0.5,"perTrialBonusThreshold":0.05,"exampleCost":0.02},"classroomParams":{"A":{"a":1,"b":4},"B":{"a":4,"b":1},"C":{"a":2,"b":8},"D":{"a":8,"b":2}},"conditions":["nonSeqFull","nonSeqPartial","seqNoFeedback","seqFeedback"],"classroomPairings":[["A","B"],["C","D"]],"coinWeights":[0.2,0.5,0.8],"subjectId":"A3R5OJR60C6004","assignmentId":"3M0BCWMB8WI564L6P2USG4UXG6QBWS","hitId":"39WICJI5ATE2BKO4UUUR86UGAV2Z3G","url":"https://gershmanlab.com/experiments/alicia/teaching/experiment/?hitId=39WICJI5ATE2BKO4UUUR86UGAV2Z3G&workerId=A3R5OJR60C6004&assignmentId=3M0BCWMB8WI564L6P2USG4UXG6QBWS&a=BC0M3&tp_a=BC0M3&b=3M0BCWMB8WI564L6P2USG4UXG6QBWS&tp_b=3M0BCWMB8WI564L6P2USG4UXG6QBWS&c=365633&tp_c=365633","firstResponseHeads":8,"firstResponseTails":2,"secondResponseHeads":8,"secondResponseTails":2,"totalHeads":16,"totalTails":4,"studentIndex":18,"studentTrueHypers":{"a":8,"b":2},"studentGuess":0.8,"delta":0,"bonus":0.1,"bonusSoFar":0.3,"totalExamples":20},{"rt":12654,"response":{"heads":"4","tails":"1"},"type":"response","condition":"nonSeqFull","trueTheta":0.8,"classrooms":["A","B"],"studentTrueClassroom":"B","exampleSet":"first","trial_type":"survey-html-form","trial_index":156,"time_elapsed":1134009,"internal_node_id":"0.0-155.0-0.0","params":{"nStudents":24,"maxFlips":25,"completionMinutes":45,"basePay":8,"maxBonus":9,"perTrialBonus":0.5,"perTrialBonusThreshold":0.05,"exampleCost":0.02},"classroomParams":{"A":{"a":1,"b":4},"B":{"a":4,"b":1},"C":{"a":2,"b":8},"D":{"a":8,"b":2}},"conditions":["nonSeqFull","nonSeqPartial","seqNoFeedback","seqFeedback"],"classroomPairings":[["A","B"],["C","D"]],"coinWeights":[0.2,0.5,0.8],"subjectId":"A3R5OJR60C6004","assignmentId":"3M0BCWMB8WI564L6P2USG4UXG6QBWS","hitId":"39WICJI5ATE2BKO4UUUR86UGAV2Z3G","url":"https://gershmanlab.com/experiments/alicia/teaching/experiment/?hitId=39WICJI5ATE2BKO4UUUR86UGAV2Z3G&workerId=A3R5OJR60C6004&assignmentId=3M0BCWMB8WI564L6P2USG4UXG6QBWS&a=BC0M3&tp_a=BC0M3&b=3M0BCWMB8WI564L6P2USG4UXG6QBWS&tp_b=3M0BCWMB8WI564L6P2USG4UXG6QBWS&c=365633&tp_c=365633","heads":4,"tails":1,"studentIndex":19,"studentTrueHypers":{"a":4,"b":1},"studentGuess":0.8,"delta":0,"totalExamples":5,"bonus":0.4,"bonusSoFar":0.7},{"rt":14896,"response":{"heads":"1","tails":"4"},"type":"response","condition":"nonSeqFull","trueTheta":0.2,"classrooms":["C","D"],"studentTrueClassroom":"C","exampleSet":"first","trial_type":"survey-html-form","trial_index":162,"time_elapsed":1162265,"internal_node_id":"0.0-161.0-0.0","params":{"nStudents":24,"maxFlips":25,"completionMinutes":45,"basePay":8,"maxBonus":9,"perTrialBonus":0.5,"perTrialBonusThreshold":0.05,"exampleCost":0.02},"classroomParams":{"A":{"a":1,"b":4},"B":{"a":4,"b":1},"C":{"a":2,"b":8},"D":{"a":8,"b":2}},"conditions":["nonSeqFull","nonSeqPartial","seqNoFeedback","seqFeedback"],"classroomPairings":[["A","B"],["C","D"]],"coinWeights":[0.2,0.5,0.8],"subjectId":"A3R5OJR60C6004","assignmentId":"3M0BCWMB8WI564L6P2USG4UXG6QBWS","hitId":"39WICJI5ATE2BKO4UUUR86UGAV2Z3G","url":"https://gershmanlab.com/experiments/alicia/teaching/experiment/?hitId=39WICJI5ATE2BKO4UUUR86UGAV2Z3G&workerId=A3R5OJR60C6004&assignmentId=3M0BCWMB8WI564L6P2USG4UXG6QBWS&a=BC0M3&tp_a=BC0M3&b=3M0BCWMB8WI564L6P2USG4UXG6QBWS&tp_b=3M0BCWMB8WI564L6P2USG4UXG6QBWS&c=365633&tp_c=365633","heads":1,"tails":4,"studentIndex":20,"studentTrueHypers":{"a":2,"b":8},"studentGuess":0.2,"delta":0,"totalExamples":5,"bonus":0.4,"bonusSoFar":1.1},{"rt":16711,"response":{"heads":"2","tails":"8"},"type":"response","condition":"seqFeedback","trueTheta":0.2,"classrooms":["C","D"],"studentTrueClassroom":"D","exampleSet":"first","trial_type":"survey-html-form","trial_index":168,"time_elapsed":1197398,"internal_node_id":"0.0-167.0-0.0","params":{"nStudents":24,"maxFlips":25,"completionMinutes":45,"basePay":8,"maxBonus":9,"perTrialBonus":0.5,"perTrialBonusThreshold":0.05,"exampleCost":0.02},"classroomParams":{"A":{"a":1,"b":4},"B":{"a":4,"b":1},"C":{"a":2,"b":8},"D":{"a":8,"b":2}},"conditions":["nonSeqFull","nonSeqPartial","seqNoFeedback","seqFeedback"],"classroomPairings":[["A","B"],["C","D"]],"coinWeights":[0.2,0.5,0.8],"subjectId":"A3R5OJR60C6004","assignmentId":"3M0BCWMB8WI564L6P2USG4UXG6QBWS","hitId":"39WICJI5ATE2BKO4UUUR86UGAV2Z3G","url":"https://gershmanlab.com/experiments/alicia/teaching/experiment/?hitId=39WICJI5ATE2BKO4UUUR86UGAV2Z3G&workerId=A3R5OJR60C6004&assignmentId=3M0BCWMB8WI564L6P2USG4UXG6QBWS&a=BC0M3&tp_a=BC0M3&b=3M0BCWMB8WI564L6P2USG4UXG6QBWS&tp_b=3M0BCWMB8WI564L6P2USG4UXG6QBWS&c=365633&tp_c=365633","heads":2,"tails":8,"studentIndex":21,"studentTrueHypers":{"a":8,"b":2},"studentGuess":0.5,"delta":0.3,"totalExamples":10,"bonusSoFar":1.1},{"rt":12701,"response":{"heads":"1","tails":"9"},"type":"response","condition":"seqFeedback","trueTheta":0.2,"classrooms":["C","D"],"studentTrueClassroom":"D","exampleSet":"second","trial_type":"survey-html-form","trial_index":172,"time_elapsed":1222272,"internal_node_id":"0.0-171.0-0.0","params":{"nStudents":24,"maxFlips":25,"completionMinutes":45,"basePay":8,"maxBonus":9,"perTrialBonus":0.5,"perTrialBonusThreshold":0.05,"exampleCost":0.02},"classroomParams":{"A":{"a":1,"b":4},"B":{"a":4,"b":1},"C":{"a":2,"b":8},"D":{"a":8,"b":2}},"conditions":["nonSeqFull","nonSeqPartial","seqNoFeedback","seqFeedback"],"classroomPairings":[["A","B"],["C","D"]],"coinWeights":[0.2,0.5,0.8],"subjectId":"A3R5OJR60C6004","assignmentId":"3M0BCWMB8WI564L6P2USG4UXG6QBWS","hitId":"39WICJI5ATE2BKO4UUUR86UGAV2Z3G","url":"https://gershmanlab.com/experiments/alicia/teaching/experiment/?hitId=39WICJI5ATE2BKO4UUUR86UGAV2Z3G&workerId=A3R5OJR60C6004&assignmentId=3M0BCWMB8WI564L6P2USG4UXG6QBWS&a=BC0M3&tp_a=BC0M3&b=3M0BCWMB8WI564L6P2USG4UXG6QBWS&tp_b=3M0BCWMB8WI564L6P2USG4UXG6QBWS&c=365633&tp_c=365633","firstResponseHeads":2,"firstResponseTails":8,"secondResponseHeads":1,"secondResponseTails":9,"totalHeads":3,"totalTails":17,"studentIndex":21,"studentTrueHypers":{"a":8,"b":2},"studentGuess":0.36666666666666664,"delta":0.16666666666666663,"bonus":0,"bonusSoFar":1.1,"totalExamples":20},{"rt":10394,"response":{"heads":"3","tails":"3"},"type":"response","condition":"nonSeqPartial","trueTheta":0.5,"classrooms":["A","B"],"studentTrueClassroom":"A","exampleSet":"first","trial_type":"survey-html-form","trial_index":178,"time_elapsed":1244939,"internal_node_id":"0.0-177.0-0.0","params":{"nStudents":24,"maxFlips":25,"completionMinutes":45,"basePay":8,"maxBonus":9,"perTrialBonus":0.5,"perTrialBonusThreshold":0.05,"exampleCost":0.02},"classroomParams":{"A":{"a":1,"b":4},"B":{"a":4,"b":1},"C":{"a":2,"b":8},"D":{"a":8,"b":2}},"conditions":["nonSeqFull","nonSeqPartial","seqNoFeedback","seqFeedback"],"classroomPairings":[["A","B"],["C","D"]],"coinWeights":[0.2,0.5,0.8],"subjectId":"A3R5OJR60C6004","assignmentId":"3M0BCWMB8WI564L6P2USG4UXG6QBWS","hitId":"39WICJI5ATE2BKO4UUUR86UGAV2Z3G","url":"https://gershmanlab.com/experiments/alicia/teaching/experiment/?hitId=39WICJI5ATE2BKO4UUUR86UGAV2Z3G&workerId=A3R5OJR60C6004&assignmentId=3M0BCWMB8WI564L6P2USG4UXG6QBWS&a=BC0M3&tp_a=BC0M3&b=3M0BCWMB8WI564L6P2USG4UXG6QBWS&tp_b=3M0BCWMB8WI564L6P2USG4UXG6QBWS&c=365633&tp_c=365633","heads":3,"tails":3,"studentIndex":22,"studentTrueHypers":{"a":1,"b":4},"studentGuess":0.36363636363636365,"delta":0.13636363636363635,"totalExamples":6,"bonus":0,"bonusSoFar":1.1},{"rt":10123,"response":{"heads":"3","tails":"4"},"type":"response","condition":"seqNoFeedback","trueTheta":0.5,"classrooms":["C","D"],"studentTrueClassroom":"D","exampleSet":"first","trial_type":"survey-html-form","trial_index":184,"time_elapsed":1269564,"internal_node_id":"0.0-183.0-0.0","params":{"nStudents":24,"maxFlips":25,"completionMinutes":45,"basePay":8,"maxBonus":9,"perTrialBonus":0.5,"perTrialBonusThreshold":0.05,"exampleCost":0.02},"classroomParams":{"A":{"a":1,"b":4},"B":{"a":4,"b":1},"C":{"a":2,"b":8},"D":{"a":8,"b":2}},"conditions":["nonSeqFull","nonSeqPartial","seqNoFeedback","seqFeedback"],"classroomPairings":[["A","B"],["C","D"]],"coinWeights":[0.2,0.5,0.8],"subjectId":"A3R5OJR60C6004","assignmentId":"3M0BCWMB8WI564L6P2USG4UXG6QBWS","hitId":"39WICJI5ATE2BKO4UUUR86UGAV2Z3G","url":"https://gershmanlab.com/experiments/alicia/teaching/experiment/?hitId=39WICJI5ATE2BKO4UUUR86UGAV2Z3G&workerId=A3R5OJR60C6004&assignmentId=3M0BCWMB8WI564L6P2USG4UXG6QBWS&a=BC0M3&tp_a=BC0M3&b=3M0BCWMB8WI564L6P2USG4UXG6QBWS&tp_b=3M0BCWMB8WI564L6P2USG4UXG6QBWS&c=365633&tp_c=365633","heads":3,"tails":4,"studentIndex":23,"studentTrueHypers":{"a":8,"b":2},"studentGuess":0.6470588235294118,"delta":0.1470588235294118,"totalExamples":7,"bonusSoFar":1.1},{"rt":9574,"response":{"heads":"5","tails":"5"},"type":"response","condition":"seqNoFeedback","trueTheta":0.5,"classrooms":["C","D"],"studentTrueClassroom":"D","exampleSet":"second","trial_type":"survey-html-form","trial_index":187,"time_elapsed":1287152,"internal_node_id":"0.0-186.0-0.0","params":{"nStudents":24,"maxFlips":25,"completionMinutes":45,"basePay":8,"maxBonus":9,"perTrialBonus":0.5,"perTrialBonusThreshold":0.05,"exampleCost":0.02},"classroomParams":{"A":{"a":1,"b":4},"B":{"a":4,"b":1},"C":{"a":2,"b":8},"D":{"a":8,"b":2}},"conditions":["nonSeqFull","nonSeqPartial","seqNoFeedback","seqFeedback"],"classroomPairings":[["A","B"],["C","D"]],"coinWeights":[0.2,0.5,0.8],"subjectId":"A3R5OJR60C6004","assignmentId":"3M0BCWMB8WI564L6P2USG4UXG6QBWS","hitId":"39WICJI5ATE2BKO4UUUR86UGAV2Z3G","url":"https://gershmanlab.com/experiments/alicia/teaching/experiment/?hitId=39WICJI5ATE2BKO4UUUR86UGAV2Z3G&workerId=A3R5OJR60C6004&assignmentId=3M0BCWMB8WI564L6P2USG4UXG6QBWS&a=BC0M3&tp_a=BC0M3&b=3M0BCWMB8WI564L6P2USG4UXG6QBWS&tp_b=3M0BCWMB8WI564L6P2USG4UXG6QBWS&c=365633&tp_c=365633","firstResponseHeads":3,"firstResponseTails":4,"secondResponseHeads":5,"secondResponseTails":5,"totalHeads":8,"totalTails":9,"studentIndex":23,"studentTrueHypers":{"a":8,"b":2},"studentGuess":0.5925925925925926,"delta":0.09259259259259256,"bonus":0,"bonusSoFar":1.1,"totalExamples":17},{"rt":8872,"response":{"gender":"male","age":"46","understood":"yes","comments":""},"type":"response","trial_type":"survey-html-form","trial_index":191,"time_elapsed":1305186,"internal_node_id":"0.0-191.0","params":{"nStudents":24,"maxFlips":25,"completionMinutes":45,"basePay":8,"maxBonus":9,"perTrialBonus":0.5,"perTrialBonusThreshold":0.05,"exampleCost":0.02},"classroomParams":{"A":{"a":1,"b":4},"B":{"a":4,"b":1},"C":{"a":2,"b":8},"D":{"a":8,"b":2}},"conditions":["nonSeqFull","nonSeqPartial","seqNoFeedback","seqFeedback"],"classroomPairings":[["A","B"],["C","D"]],"coinWeights":[0.2,0.5,0.8],"subjectId":"A3R5OJR60C6004","assignmentId":"3M0BCWMB8WI564L6P2USG4UXG6QBWS","hitId":"39WICJI5ATE2BKO4UUUR86UGAV2Z3G","url":"https://gershmanlab.com/experiments/alicia/teaching/experiment/?hitId=39WICJI5ATE2BKO4UUUR86UGAV2Z3G&workerId=A3R5OJR60C6004&assignmentId=3M0BCWMB8WI564L6P2USG4UXG6QBWS&a=BC0M3&tp_a=BC0M3&b=3M0BCWMB8WI564L6P2USG4UXG6QBWS&tp_b=3M0BCWMB8WI564L6P2USG4UXG6QBWS&c=365633&tp_c=365633","totalBonus":1.1}]