[{"rt":18224,"response":{"heads":"2","tails":"8"},"type":"response","condition":"seqFeedback","trueTheta":0.2,"classrooms":["C","D"],"studentTrueClassroom":"D","exampleSet":"first","trial_type":"survey-html-form","trial_index":13,"time_elapsed":372132,"internal_node_id":"0.0-6.0-0.0","params":{"nStudents":24,"maxFlips":25,"completionMinutes":45,"basePay":8,"maxBonus":9,"perTrialBonus":0.5,"perTrialBonusThreshold":0.05,"exampleCost":0.02},"classroomParams":{"A":{"a":1,"b":4},"B":{"a":4,"b":1},"C":{"a":2,"b":8},"D":{"a":8,"b":2}},"conditions":["nonSeqFull","nonSeqPartial","seqNoFeedback","seqFeedback"],"classroomPairings":[["A","B"],["C","D"]],"coinWeights":[0.2,0.5,0.8],"subjectId":"A48WNR6C4CI3J","assignmentId":"3JNQLM5FT58V7X9B2VUF60ADOTOL2M","hitId":"39WICJI5ATE2BKO4UUUR86UGAV2Z3G","url":"https://gershmanlab.com/experiments/alicia/teaching/experiment/?hitId=39WICJI5ATE2BKO4UUUR86UGAV2Z3G&workerId=A48WNR6C4CI3J&assignmentId=3JNQLM5FT58V7X9B2VUF60ADOTOL2M&a=FLNJ3&tp_a=FLNJ3&b=3JNQLM5FT58V7X9B2VUF60ADOTOL2M&tp_b=3JNQLM5FT58V7X9B2VUF60ADOTOL2M&c=365633&tp_c=365633","heads":2,"tails":8,"studentIndex":0,"studentTrueHypers":{"a":8,"b":2},"studentGuess":0.5,"delta":0.3,"totalExamples":10,"bonusSoFar":0},{"rt":8122,"response":{"heads":"4","tails":"20"},"type":"response","condition":"seqFeedback","trueTheta":0.2,"classrooms":["C","D"],"studentTrueClassroom":"D","exampleSet":"second","trial_type":"survey-html-form","trial_index":17,"time_elapsed":397983,"internal_node_id":"0.0-10.0-0.0","params":{"nStudents":24,"maxFlips":25,"completionMinutes":45,"basePay":8,"maxBonus":9,"perTrialBonus":0.5,"perTrialBonusThreshold":0.05,"exampleCost":0.02},"classroomParams":{"A":{"a":1,"b":4},"B":{"a":4,"b":1},"C":{"a":2,"b":8},"D":{"a":8,"b":2}},"conditions":["nonSeqFull","nonSeqPartial","seqNoFeedback","seqFeedback"],"classroomPairings":[["A","B"],["C","D"]],"coinWeights":[0.2,0.5,0.8],"subjectId":"A48WNR6C4CI3J","assignmentId":"3JNQLM5FT58V7X9B2VUF60ADOTOL2M","hitId":"39WICJI5ATE2BKO4UUUR86UGAV2Z3G","url":"https://gershmanlab.com/experiments/alicia/teaching/experiment/?hitId=39WICJI5ATE2BKO4UUUR86UGAV2Z3G&workerId=A48WNR6C4CI3J&assignmentId=3JNQLM5FT58V7X9B2VUF60ADOTOL2M&a=FLNJ3&tp_a=FLNJ3&b=3JNQLM5FT58V7X9B2VUF60ADOTOL2M&tp_b=3JNQLM5FT58V7X9B2VUF60ADOTOL2M&c=365633&tp_c=365633","firstResponseHeads":2,"firstResponseTails":8,"secondResponseHeads":4,"secondResponseTails":20,"totalHeads":6,"totalTails":28,"studentIndex":0,"studentTrueHypers":{"a":8,"b":2},"studentGuess":0.3181818181818182,"delta":0.11818181818181817,"bonus":0,"bonusSoFar":0,"totalExamples":34},{"rt":13682,"response":{"heads":"10","tails":"10"},"type":"response","condition":"seqNoFeedback","trueTheta":0.5,"classrooms":["C","D"],"studentTrueClassroom":"D","exampleSet":"first","trial_type":"survey-html-form","trial_index":23,"time_elapsed":428595,"internal_node_id":"0.0-16.0-0.0","params":{"nStudents":24,"maxFlips":25,"completionMinutes":45,"basePay":8,"maxBonus":9,"perTrialBonus":0.5,"perTrialBonusThreshold":0.05,"exampleCost":0.02},"classroomParams":{"A":{"a":1,"b":4},"B":{"a":4,"b":1},"C":{"a":2,"b":8},"D":{"a":8,"b":2}},"conditions":["nonSeqFull","nonSeqPartial","seqNoFeedback","seqFeedback"],"classroomPairings":[["A","B"],["C","D"]],"coinWeights":[0.2,0.5,0.8],"subjectId":"A48WNR6C4CI3J","assignmentId":"3JNQLM5FT58V7X9B2VUF60ADOTOL2M","hitId":"39WICJI5ATE2BKO4UUUR86UGAV2Z3G","url":"https://gershmanlab.com/experiments/alicia/teaching/experiment/?hitId=39WICJI5ATE2BKO4UUUR86UGAV2Z3G&workerId=A48WNR6C4CI3J&assignmentId=3JNQLM5FT58V7X9B2VUF60ADOTOL2M&a=FLNJ3&tp_a=FLNJ3&b=3JNQLM5FT58V7X9B2VUF60ADOTOL2M&tp_b=3JNQLM5FT58V7X9B2VUF60ADOTOL2M&c=365633&tp_c=365633","heads":10,"tails":10,"studentIndex":1,"studentTrueHypers":{"a":8,"b":2},"studentGuess":0.6,"delta":0.09999999999999998,"totalExamples":20,"bonusSoFar":0},{"rt":17341,"response":{"heads":"10","tails":"10"},"type":"response","condition":"seqNoFeedback","trueTheta":0.5,"classrooms":["C","D"],"studentTrueClassroom":"D","exampleSet":"second","trial_type":"survey-html-form","trial_index":26,"time_elapsed":451194,"internal_node_id":"0.0-19.0-0.0","params":{"nStudents":24,"maxFlips":25,"completionMinutes":45,"basePay":8,"maxBonus":9,"perTrialBonus":0.5,"perTrialBonusThreshold":0.05,"exampleCost":0.02},"classroomParams":{"A":{"a":1,"b":4},"B":{"a":4,"b":1},"C":{"a":2,"b":8},"D":{"a":8,"b":2}},"conditions":["nonSeqFull","nonSeqPartial","seqNoFeedback","seqFeedback"],"classroomPairings":[["A","B"],["C","D"]],"coinWeights":[0.2,0.5,0.8],"subjectId":"A48WNR6C4CI3J","assignmentId":"3JNQLM5FT58V7X9B2VUF60ADOTOL2M","hitId":"39WICJI5ATE2BKO4UUUR86UGAV2Z3G","url":"https://gershmanlab.com/experiments/alicia/teaching/experiment/?hitId=39WICJI5ATE2BKO4UUUR86UGAV2Z3G&workerId=A48WNR6C4CI3J&assignmentId=3JNQLM5FT58V7X9B2VUF60ADOTOL2M&a=FLNJ3&tp_a=FLNJ3&b=3JNQLM5FT58V7X9B2VUF60ADOTOL2M&tp_b=3JNQLM5FT58V7X9B2VUF60ADOTOL2M&c=365633&tp_c=365633","firstResponseHeads":10,"firstResponseTails":10,"secondResponseHeads":10,"secondResponseTails":10,"totalHeads":20,"totalTails":20,"studentIndex":1,"studentTrueHypers":{"a":8,"b":2},"studentGuess":0.56,"delta":0.06000000000000005,"bonus":0,"bonusSoFar":0,"totalExamples":40},{"rt":21456,"response":{"heads":"18","tails":"3"},"type":"response","condition":"nonSeqFull","trueTheta":0.8,"classrooms":["C","D"],"studentTrueClassroom":"C","exampleSet":"first","trial_type":"survey-html-form","trial_index":32,"time_elapsed":497054,"internal_node_id":"0.0-25.0-0.0","params":{"nStudents":24,"maxFlips":25,"completionMinutes":45,"basePay":8,"maxBonus":9,"perTrialBonus":0.5,"perTrialBonusThreshold":0.05,"exampleCost":0.02},"classroomParams":{"A":{"a":1,"b":4},"B":{"a":4,"b":1},"C":{"a":2,"b":8},"D":{"a":8,"b":2}},"conditions":["nonSeqFull","nonSeqPartial","seqNoFeedback","seqFeedback"],"classroomPairings":[["A","B"],["C","D"]],"coinWeights":[0.2,0.5,0.8],"subjectId":"A48WNR6C4CI3J","assignmentId":"3JNQLM5FT58V7X9B2VUF60ADOTOL2M","hitId":"39WICJI5ATE2BKO4UUUR86UGAV2Z3G","url":"https://gershmanlab.com/experiments/alicia/teaching/experiment/?hitId=39WICJI5ATE2BKO4UUUR86UGAV2Z3G&workerId=A48WNR6C4CI3J&assignmentId=3JNQLM5FT58V7X9B2VUF60ADOTOL2M&a=FLNJ3&tp_a=FLNJ3&b=3JNQLM5FT58V7X9B2VUF60ADOTOL2M&tp_b=3JNQLM5FT58V7X9B2VUF60ADOTOL2M&c=365633&tp_c=365633","heads":18,"tails":3,"studentIndex":2,"studentTrueHypers":{"a":2,"b":8},"studentGuess":0.6451612903225806,"delta":0.15483870967741942,"totalExamples":21,"bonus":0,"bonusSoFar":0},{"rt":23777,"response":{"heads":"4","tails":"1"},"type":"response","condition":"seqFeedback","trueTheta":0.8,"classrooms":["A","B"],"studentTrueClassroom":"A","exampleSet":"first","trial_type":"survey-html-form","trial_index":38,"time_elapsed":537594,"internal_node_id":"0.0-31.0-0.0","params":{"nStudents":24,"maxFlips":25,"completionMinutes":45,"basePay":8,"maxBonus":9,"perTrialBonus":0.5,"perTrialBonusThreshold":0.05,"exampleCost":0.02},"classroomParams":{"A":{"a":1,"b":4},"B":{"a":4,"b":1},"C":{"a":2,"b":8},"D":{"a":8,"b":2}},"conditions":["nonSeqFull","nonSeqPartial","seqNoFeedback","seqFeedback"],"classroomPairings":[["A","B"],["C","D"]],"coinWeights":[0.2,0.5,0.8],"subjectId":"A48WNR6C4CI3J","assignmentId":"3JNQLM5FT58V7X9B2VUF60ADOTOL2M","hitId":"39WICJI5ATE2BKO4UUUR86UGAV2Z3G","url":"https://gershmanlab.com/experiments/alicia/teaching/experiment/?hitId=39WICJI5ATE2BKO4UUUR86UGAV2Z3G&workerId=A48WNR6C4CI3J&assignmentId=3JNQLM5FT58V7X9B2VUF60ADOTOL2M&a=FLNJ3&tp_a=FLNJ3&b=3JNQLM5FT58V7X9B2VUF60ADOTOL2M&tp_b=3JNQLM5FT58V7X9B2VUF60ADOTOL2M&c=365633&tp_c=365633","heads":4,"tails":1,"studentIndex":3,"studentTrueHypers":{"a":1,"b":4},"studentGuess":0.5,"delta":0.30000000000000004,"totalExamples":5,"bonusSoFar":0},{"rt":13824,"response":{"heads":"8","tails":"2"},"type":"response","condition":"seqFeedback","trueTheta":0.8,"classrooms":["A","B"],"studentTrueClassroom":"A","exampleSet":"second","trial_type":"survey-html-form","trial_index":42,"time_elapsed":564141,"internal_node_id":"0.0-35.0-0.0","params":{"nStudents":24,"maxFlips":25,"completionMinutes":45,"basePay":8,"maxBonus":9,"perTrialBonus":0.5,"perTrialBonusThreshold":0.05,"exampleCost":0.02},"classroomParams":{"A":{"a":1,"b":4},"B":{"a":4,"b":1},"C":{"a":2,"b":8},"D":{"a":8,"b":2}},"conditions":["nonSeqFull","nonSeqPartial","seqNoFeedback","seqFeedback"],"classroomPairings":[["A","B"],["C","D"]],"coinWeights":[0.2,0.5,0.8],"subjectId":"A48WNR6C4CI3J","assignmentId":"3JNQLM5FT58V7X9B2VUF60ADOTOL2M","hitId":"39WICJI5ATE2BKO4UUUR86UGAV2Z3G","url":"https://gershmanlab.com/experiments/alicia/teaching/experiment/?hitId=39WICJI5ATE2BKO4UUUR86UGAV2Z3G&workerId=A48WNR6C4CI3J&assignmentId=3JNQLM5FT58V7X9B2VUF60ADOTOL2M&a=FLNJ3&tp_a=FLNJ3&b=3JNQLM5FT58V7X9B2VUF60ADOTOL2M&tp_b=3JNQLM5FT58V7X9B2VUF60ADOTOL2M&c=365633&tp_c=365633","firstResponseHeads":4,"firstResponseTails":1,"secondResponseHeads":8,"secondResponseTails":2,"totalHeads":12,"totalTails":3,"studentIndex":3,"studentTrueHypers":{"a":1,"b":4},"studentGuess":0.65,"delta":0.15000000000000002,"bonus":0,"bonusSoFar":0,"totalExamples":15},{"rt":13474,"response":{"heads":"10","tails":"0"},"type":"response","condition":"nonSeqFull","trueTheta":0.5,"classrooms":["C","D"],"studentTrueClassroom":"D","exampleSet":"first","trial_type":"survey-html-form","trial_index":48,"time_elapsed":594598,"internal_node_id":"0.0-41.0-0.0","params":{"nStudents":24,"maxFlips":25,"completionMinutes":45,"basePay":8,"maxBonus":9,"perTrialBonus":0.5,"perTrialBonusThreshold":0.05,"exampleCost":0.02},"classroomParams":{"A":{"a":1,"b":4},"B":{"a":4,"b":1},"C":{"a":2,"b":8},"D":{"a":8,"b":2}},"conditions":["nonSeqFull","nonSeqPartial","seqNoFeedback","seqFeedback"],"classroomPairings":[["A","B"],["C","D"]],"coinWeights":[0.2,0.5,0.8],"subjectId":"A48WNR6C4CI3J","assignmentId":"3JNQLM5FT58V7X9B2VUF60ADOTOL2M","hitId":"39WICJI5ATE2BKO4UUUR86UGAV2Z3G","url":"https://gershmanlab.com/experiments/alicia/teaching/experiment/?hitId=39WICJI5ATE2BKO4UUUR86UGAV2Z3G&workerId=A48WNR6C4CI3J&assignmentId=3JNQLM5FT58V7X9B2VUF60ADOTOL2M&a=FLNJ3&tp_a=FLNJ3&b=3JNQLM5FT58V7X9B2VUF60ADOTOL2M&tp_b=3JNQLM5FT58V7X9B2VUF60ADOTOL2M&c=365633&tp_c=365633","heads":10,"tails":0,"studentIndex":4,"studentTrueHypers":{"a":8,"b":2},"studentGuess":0.9,"delta":0.4,"totalExamples":10,"bonus":0,"bonusSoFar":0},{"rt":12294,"response":{"heads":"8","tails":"2"},"type":"response","condition":"nonSeqFull","trueTheta":0.5,"classrooms":["A","B"],"studentTrueClassroom":"A","exampleSet":"first","trial_type":"survey-html-form","trial_index":54,"time_elapsed":624167,"internal_node_id":"0.0-47.0-0.0","params":{"nStudents":24,"maxFlips":25,"completionMinutes":45,"basePay":8,"maxBonus":9,"perTrialBonus":0.5,"perTrialBonusThreshold":0.05,"exampleCost":0.02},"classroomParams":{"A":{"a":1,"b":4},"B":{"a":4,"b":1},"C":{"a":2,"b":8},"D":{"a":8,"b":2}},"conditions":["nonSeqFull","nonSeqPartial","seqNoFeedback","seqFeedback"],"classroomPairings":[["A","B"],["C","D"]],"coinWeights":[0.2,0.5,0.8],"subjectId":"A48WNR6C4CI3J","assignmentId":"3JNQLM5FT58V7X9B2VUF60ADOTOL2M","hitId":"39WICJI5ATE2BKO4UUUR86UGAV2Z3G","url":"https://gershmanlab.com/experiments/alicia/teaching/experiment/?hitId=39WICJI5ATE2BKO4UUUR86UGAV2Z3G&workerId=A48WNR6C4CI3J&assignmentId=3JNQLM5FT58V7X9B2VUF60ADOTOL2M&a=FLNJ3&tp_a=FLNJ3&b=3JNQLM5FT58V7X9B2VUF60ADOTOL2M&tp_b=3JNQLM5FT58V7X9B2VUF60ADOTOL2M&c=365633&tp_c=365633","heads":8,"tails":2,"studentIndex":5,"studentTrueHypers":{"a":1,"b":4},"studentGuess":0.6,"delta":0.09999999999999998,"totalExamples":10,"bonus":0,"bonusSoFar":0},{"rt":11117,"response":{"heads":"8","tails":"2"},"type":"response","condition":"nonSeqPartial","trueTheta":0.8,"classrooms":["A","B"],"studentTrueClassroom":"A","exampleSet":"first","trial_type":"survey-html-form","trial_index":60,"time_elapsed":650121,"internal_node_id":"0.0-53.0-0.0","params":{"nStudents":24,"maxFlips":25,"completionMinutes":45,"basePay":8,"maxBonus":9,"perTrialBonus":0.5,"perTrialBonusThreshold":0.05,"exampleCost":0.02},"classroomParams":{"A":{"a":1,"b":4},"B":{"a":4,"b":1},"C":{"a":2,"b":8},"D":{"a":8,"b":2}},"conditions":["nonSeqFull","nonSeqPartial","seqNoFeedback","seqFeedback"],"classroomPairings":[["A","B"],["C","D"]],"coinWeights":[0.2,0.5,0.8],"subjectId":"A48WNR6C4CI3J","assignmentId":"3JNQLM5FT58V7X9B2VUF60ADOTOL2M","hitId":"39WICJI5ATE2BKO4UUUR86UGAV2Z3G","url":"https://gershmanlab.com/experiments/alicia/teaching/experiment/?hitId=39WICJI5ATE2BKO4UUUR86UGAV2Z3G&workerId=A48WNR6C4CI3J&assignmentId=3JNQLM5FT58V7X9B2VUF60ADOTOL2M&a=FLNJ3&tp_a=FLNJ3&b=3JNQLM5FT58V7X9B2VUF60ADOTOL2M&tp_b=3JNQLM5FT58V7X9B2VUF60ADOTOL2M&c=365633&tp_c=365633","heads":8,"tails":2,"studentIndex":6,"studentTrueHypers":{"a":1,"b":4},"studentGuess":0.6,"delta":0.20000000000000007,"totalExamples":10,"bonus":0,"bonusSoFar":0},{"rt":4275,"response":{"heads":"8","tails":"2"},"type":"response","condition":"nonSeqPartial","trueTheta":0.8,"classrooms":["C","D"],"studentTrueClassroom":"D","exampleSet":"first","trial_type":"survey-html-form","trial_index":66,"time_elapsed":665773,"internal_node_id":"0.0-59.0-0.0","params":{"nStudents":24,"maxFlips":25,"completionMinutes":45,"basePay":8,"maxBonus":9,"perTrialBonus":0.5,"perTrialBonusThreshold":0.05,"exampleCost":0.02},"classroomParams":{"A":{"a":1,"b":4},"B":{"a":4,"b":1},"C":{"a":2,"b":8},"D":{"a":8,"b":2}},"conditions":["nonSeqFull","nonSeqPartial","seqNoFeedback","seqFeedback"],"classroomPairings":[["A","B"],["C","D"]],"coinWeights":[0.2,0.5,0.8],"subjectId":"A48WNR6C4CI3J","assignmentId":"3JNQLM5FT58V7X9B2VUF60ADOTOL2M","hitId":"39WICJI5ATE2BKO4UUUR86UGAV2Z3G","url":"https://gershmanlab.com/experiments/alicia/teaching/experiment/?hitId=39WICJI5ATE2BKO4UUUR86UGAV2Z3G&workerId=A48WNR6C4CI3J&assignmentId=3JNQLM5FT58V7X9B2VUF60ADOTOL2M&a=FLNJ3&tp_a=FLNJ3&b=3JNQLM5FT58V7X9B2VUF60ADOTOL2M&tp_b=3JNQLM5FT58V7X9B2VUF60ADOTOL2M&c=365633&tp_c=365633","heads":8,"tails":2,"studentIndex":7,"studentTrueHypers":{"a":8,"b":2},"studentGuess":0.8,"delta":0,"totalExamples":10,"bonus":0.3,"bonusSoFar":0.3},{"rt":3166,"response":{"heads":"5","tails":"5"},"type":"response","condition":"seqNoFeedback","trueTheta":0.5,"classrooms":["A","B"],"studentTrueClassroom":"A","exampleSet":"first","trial_type":"survey-html-form","trial_index":72,"time_elapsed":681972,"internal_node_id":"0.0-65.0-0.0","params":{"nStudents":24,"maxFlips":25,"completionMinutes":45,"basePay":8,"maxBonus":9,"perTrialBonus":0.5,"perTrialBonusThreshold":0.05,"exampleCost":0.02},"classroomParams":{"A":{"a":1,"b":4},"B":{"a":4,"b":1},"C":{"a":2,"b":8},"D":{"a":8,"b":2}},"conditions":["nonSeqFull","nonSeqPartial","seqNoFeedback","seqFeedback"],"classroomPairings":[["A","B"],["C","D"]],"coinWeights":[0.2,0.5,0.8],"subjectId":"A48WNR6C4CI3J","assignmentId":"3JNQLM5FT58V7X9B2VUF60ADOTOL2M","hitId":"39WICJI5ATE2BKO4UUUR86UGAV2Z3G","url":"https://gershmanlab.com/experiments/alicia/teaching/experiment/?hitId=39WICJI5ATE2BKO4UUUR86UGAV2Z3G&workerId=A48WNR6C4CI3J&assignmentId=3JNQLM5FT58V7X9B2VUF60ADOTOL2M&a=FLNJ3&tp_a=FLNJ3&b=3JNQLM5FT58V7X9B2VUF60ADOTOL2M&tp_b=3JNQLM5FT58V7X9B2VUF60ADOTOL2M&c=365633&tp_c=365633","heads":5,"tails":5,"studentIndex":8,"studentTrueHypers":{"a":1,"b":4},"studentGuess":0.4,"delta":0.09999999999999998,"totalExamples":10,"bonusSoFar":0.3},{"rt":1882,"response":{"heads":"5","tails":"5"},"type":"response","condition":"seqNoFeedback","trueTheta":0.5,"classrooms":["A","B"],"studentTrueClassroom":"A","exampleSet":"second","trial_type":"survey-html-form","trial_index":75,"time_elapsed":689860,"internal_node_id":"0.0-68.0-0.0","params":{"nStudents":24,"maxFlips":25,"completionMinutes":45,"basePay":8,"maxBonus":9,"perTrialBonus":0.5,"perTrialBonusThreshold":0.05,"exampleCost":0.02},"classroomParams":{"A":{"a":1,"b":4},"B":{"a":4,"b":1},"C":{"a":2,"b":8},"D":{"a":8,"b":2}},"conditions":["nonSeqFull","nonSeqPartial","seqNoFeedback","seqFeedback"],"classroomPairings":[["A","B"],["C","D"]],"coinWeights":[0.2,0.5,0.8],"subjectId":"A48WNR6C4CI3J","assignmentId":"3JNQLM5FT58V7X9B2VUF60ADOTOL2M","hitId":"39WICJI5ATE2BKO4UUUR86UGAV2Z3G","url":"https://gershmanlab.com/experiments/alicia/teaching/experiment/?hitId=39WICJI5ATE2BKO4UUUR86UGAV2Z3G&workerId=A48WNR6C4CI3J&assignmentId=3JNQLM5FT58V7X9B2VUF60ADOTOL2M&a=FLNJ3&tp_a=FLNJ3&b=3JNQLM5FT58V7X9B2VUF60ADOTOL2M&tp_b=3JNQLM5FT58V7X9B2VUF60ADOTOL2M&c=365633&tp_c=365633","firstResponseHeads":5,"firstResponseTails":5,"secondResponseHeads":5,"secondResponseTails":5,"totalHeads":10,"totalTails":10,"studentIndex":8,"studentTrueHypers":{"a":1,"b":4},"studentGuess":0.44,"delta":0.06,"bonus":0,"bonusSoFar":0.3,"totalExamples":20},{"rt":4831,"response":{"heads":"15","tails":"5"},"type":"response","condition":"seqFeedback","trueTheta":0.5,"classrooms":["C","D"],"studentTrueClassroom":"D","exampleSet":"first","trial_type":"survey-html-form","trial_index":81,"time_elapsed":707237,"internal_node_id":"0.0-74.0-0.0","params":{"nStudents":24,"maxFlips":25,"completionMinutes":45,"basePay":8,"maxBonus":9,"perTrialBonus":0.5,"perTrialBonusThreshold":0.05,"exampleCost":0.02},"classroomParams":{"A":{"a":1,"b":4},"B":{"a":4,"b":1},"C":{"a":2,"b":8},"D":{"a":8,"b":2}},"conditions":["nonSeqFull","nonSeqPartial","seqNoFeedback","seqFeedback"],"classroomPairings":[["A","B"],["C","D"]],"coinWeights":[0.2,0.5,0.8],"subjectId":"A48WNR6C4CI3J","assignmentId":"3JNQLM5FT58V7X9B2VUF60ADOTOL2M","hitId":"39WICJI5ATE2BKO4UUUR86UGAV2Z3G","url":"https://gershmanlab.com/experiments/alicia/teaching/experiment/?hitId=39WICJI5ATE2BKO4UUUR86UGAV2Z3G&workerId=A48WNR6C4CI3J&assignmentId=3JNQLM5FT58V7X9B2VUF60ADOTOL2M&a=FLNJ3&tp_a=FLNJ3&b=3JNQLM5FT58V7X9B2VUF60ADOTOL2M&tp_b=3JNQLM5FT58V7X9B2VUF60ADOTOL2M&c=365633&tp_c=365633","heads":15,"tails":5,"studentIndex":9,"studentTrueHypers":{"a":8,"b":2},"studentGuess":0.7666666666666667,"delta":0.2666666666666667,"totalExamples":20,"bonusSoFar":0.3},{"rt":9989,"response":{"heads":"5","tails":"5"},"type":"response","condition":"seqFeedback","trueTheta":0.5,"classrooms":["C","D"],"studentTrueClassroom":"D","exampleSet":"second","trial_type":"survey-html-form","trial_index":85,"time_elapsed":727924,"internal_node_id":"0.0-78.0-0.0","params":{"nStudents":24,"maxFlips":25,"completionMinutes":45,"basePay":8,"maxBonus":9,"perTrialBonus":0.5,"perTrialBonusThreshold":0.05,"exampleCost":0.02},"classroomParams":{"A":{"a":1,"b":4},"B":{"a":4,"b":1},"C":{"a":2,"b":8},"D":{"a":8,"b":2}},"conditions":["nonSeqFull","nonSeqPartial","seqNoFeedback","seqFeedback"],"classroomPairings":[["A","B"],["C","D"]],"coinWeights":[0.2,0.5,0.8],"subjectId":"A48WNR6C4CI3J","assignmentId":"3JNQLM5FT58V7X9B2VUF60ADOTOL2M","hitId":"39WICJI5ATE2BKO4UUUR86UGAV2Z3G","url":"https://gershmanlab.com/experiments/alicia/teaching/experiment/?hitId=39WICJI5ATE2BKO4UUUR86UGAV2Z3G&workerId=A48WNR6C4CI3J&assignmentId=3JNQLM5FT58V7X9B2VUF60ADOTOL2M&a=FLNJ3&tp_a=FLNJ3&b=3JNQLM5FT58V7X9B2VUF60ADOTOL2M&tp_b=3JNQLM5FT58V7X9B2VUF60ADOTOL2M&c=365633&tp_c=365633","firstResponseHeads":15,"firstResponseTails":5,"secondResponseHeads":5,"secondResponseTails":5,"totalHeads":20,"totalTails":10,"studentIndex":9,"studentTrueHypers":{"a":8,"b":2},"studentGuess":0.7,"delta":0.19999999999999996,"bonus":0,"bonusSoFar":0.3,"totalExamples":30},{"rt":5121,"response":{"heads":"2","tails":"12"},"type":"response","condition":"seqNoFeedback","trueTheta":0.2,"classrooms":["A","B"],"studentTrueClassroom":"A","exampleSet":"first","trial_type":"survey-html-form","trial_index":91,"time_elapsed":754003,"internal_node_id":"0.0-84.0-0.0","params":{"nStudents":24,"maxFlips":25,"completionMinutes":45,"basePay":8,"maxBonus":9,"perTrialBonus":0.5,"perTrialBonusThreshold":0.05,"exampleCost":0.02},"classroomParams":{"A":{"a":1,"b":4},"B":{"a":4,"b":1},"C":{"a":2,"b":8},"D":{"a":8,"b":2}},"conditions":["nonSeqFull","nonSeqPartial","seqNoFeedback","seqFeedback"],"classroomPairings":[["A","B"],["C","D"]],"coinWeights":[0.2,0.5,0.8],"subjectId":"A48WNR6C4CI3J","assignmentId":"3JNQLM5FT58V7X9B2VUF60ADOTOL2M","hitId":"39WICJI5ATE2BKO4UUUR86UGAV2Z3G","url":"https://gershmanlab.com/experiments/alicia/teaching/experiment/?hitId=39WICJI5ATE2BKO4UUUR86UGAV2Z3G&workerId=A48WNR6C4CI3J&assignmentId=3JNQLM5FT58V7X9B2VUF60ADOTOL2M&a=FLNJ3&tp_a=FLNJ3&b=3JNQLM5FT58V7X9B2VUF60ADOTOL2M&tp_b=3JNQLM5FT58V7X9B2VUF60ADOTOL2M&c=365633&tp_c=365633","heads":2,"tails":12,"studentIndex":10,"studentTrueHypers":{"a":1,"b":4},"studentGuess":0.15789473684210525,"delta":0.04210526315789476,"totalExamples":14,"bonusSoFar":0.3},{"rt":3808,"response":{"heads":"2","tails":"10"},"type":"response","condition":"seqNoFeedback","trueTheta":0.2,"classrooms":["A","B"],"studentTrueClassroom":"A","exampleSet":"second","trial_type":"survey-html-form","trial_index":94,"time_elapsed":765818,"internal_node_id":"0.0-87.0-0.0","params":{"nStudents":24,"maxFlips":25,"completionMinutes":45,"basePay":8,"maxBonus":9,"perTrialBonus":0.5,"perTrialBonusThreshold":0.05,"exampleCost":0.02},"classroomParams":{"A":{"a":1,"b":4},"B":{"a":4,"b":1},"C":{"a":2,"b":8},"D":{"a":8,"b":2}},"conditions":["nonSeqFull","nonSeqPartial","seqNoFeedback","seqFeedback"],"classroomPairings":[["A","B"],["C","D"]],"coinWeights":[0.2,0.5,0.8],"subjectId":"A48WNR6C4CI3J","assignmentId":"3JNQLM5FT58V7X9B2VUF60ADOTOL2M","hitId":"39WICJI5ATE2BKO4UUUR86UGAV2Z3G","url":"https://gershmanlab.com/experiments/alicia/teaching/experiment/?hitId=39WICJI5ATE2BKO4UUUR86UGAV2Z3G&workerId=A48WNR6C4CI3J&assignmentId=3JNQLM5FT58V7X9B2VUF60ADOTOL2M&a=FLNJ3&tp_a=FLNJ3&b=3JNQLM5FT58V7X9B2VUF60ADOTOL2M&tp_b=3JNQLM5FT58V7X9B2VUF60ADOTOL2M&c=365633&tp_c=365633","firstResponseHeads":2,"firstResponseTails":12,"secondResponseHeads":2,"secondResponseTails":10,"totalHeads":4,"totalTails":22,"studentIndex":10,"studentTrueHypers":{"a":1,"b":4},"studentGuess":0.16129032258064516,"delta":0.038709677419354854,"bonus":0,"bonusSoFar":0.3,"totalExamples":26},{"rt":5522,"response":{"heads":"12","tails":"12"},"type":"response","condition":"nonSeqPartial","trueTheta":0.5,"classrooms":["A","B"],"studentTrueClassroom":"B","exampleSet":"first","trial_type":"survey-html-form","trial_index":100,"time_elapsed":783607,"internal_node_id":"0.0-93.0-0.0","params":{"nStudents":24,"maxFlips":25,"completionMinutes":45,"basePay":8,"maxBonus":9,"perTrialBonus":0.5,"perTrialBonusThreshold":0.05,"exampleCost":0.02},"classroomParams":{"A":{"a":1,"b":4},"B":{"a":4,"b":1},"C":{"a":2,"b":8},"D":{"a":8,"b":2}},"conditions":["nonSeqFull","nonSeqPartial","seqNoFeedback","seqFeedback"],"classroomPairings":[["A","B"],["C","D"]],"coinWeights":[0.2,0.5,0.8],"subjectId":"A48WNR6C4CI3J","assignmentId":"3JNQLM5FT58V7X9B2VUF60ADOTOL2M","hitId":"39WICJI5ATE2BKO4UUUR86UGAV2Z3G","url":"https://gershmanlab.com/experiments/alicia/teaching/experiment/?hitId=39WICJI5ATE2BKO4UUUR86UGAV2Z3G&workerId=A48WNR6C4CI3J&assignmentId=3JNQLM5FT58V7X9B2VUF60ADOTOL2M&a=FLNJ3&tp_a=FLNJ3&b=3JNQLM5FT58V7X9B2VUF60ADOTOL2M&tp_b=3JNQLM5FT58V7X9B2VUF60ADOTOL2M&c=365633&tp_c=365633","heads":12,"tails":12,"studentIndex":11,"studentTrueHypers":{"a":4,"b":1},"studentGuess":0.5517241379310345,"delta":0.051724137931034475,"totalExamples":24,"bonus":0,"bonusSoFar":0.3},{"rt":3292,"response":{"heads":"12","tails":"12"},"type":"response","condition":"seqFeedback","trueTheta":0.5,"classrooms":["A","B"],"studentTrueClassroom":"B","exampleSet":"first","trial_type":"survey-html-form","trial_index":106,"time_elapsed":799565,"internal_node_id":"0.0-99.0-0.0","params":{"nStudents":24,"maxFlips":25,"completionMinutes":45,"basePay":8,"maxBonus":9,"perTrialBonus":0.5,"perTrialBonusThreshold":0.05,"exampleCost":0.02},"classroomParams":{"A":{"a":1,"b":4},"B":{"a":4,"b":1},"C":{"a":2,"b":8},"D":{"a":8,"b":2}},"conditions":["nonSeqFull","nonSeqPartial","seqNoFeedback","seqFeedback"],"classroomPairings":[["A","B"],["C","D"]],"coinWeights":[0.2,0.5,0.8],"subjectId":"A48WNR6C4CI3J","assignmentId":"3JNQLM5FT58V7X9B2VUF60ADOTOL2M","hitId":"39WICJI5ATE2BKO4UUUR86UGAV2Z3G","url":"https://gershmanlab.com/experiments/alicia/teaching/experiment/?hitId=39WICJI5ATE2BKO4UUUR86UGAV2Z3G&workerId=A48WNR6C4CI3J&assignmentId=3JNQLM5FT58V7X9B2VUF60ADOTOL2M&a=FLNJ3&tp_a=FLNJ3&b=3JNQLM5FT58V7X9B2VUF60ADOTOL2M&tp_b=3JNQLM5FT58V7X9B2VUF60ADOTOL2M&c=365633&tp_c=365633","heads":12,"tails":12,"studentIndex":12,"studentTrueHypers":{"a":4,"b":1},"studentGuess":0.5517241379310345,"delta":0.051724137931034475,"totalExamples":24,"bonusSoFar":0.3},{"rt":5290,"response":{"heads":"10","tails":"10"},"type":"response","condition":"seqFeedback","trueTheta":0.5,"classrooms":["A","B"],"studentTrueClassroom":"B","exampleSet":"second","trial_type":"survey-html-form","trial_index":110,"time_elapsed":811920,"internal_node_id":"0.0-103.0-0.0","params":{"nStudents":24,"maxFlips":25,"completionMinutes":45,"basePay":8,"maxBonus":9,"perTrialBonus":0.5,"perTrialBonusThreshold":0.05,"exampleCost":0.02},"classroomParams":{"A":{"a":1,"b":4},"B":{"a":4,"b":1},"C":{"a":2,"b":8},"D":{"a":8,"b":2}},"conditions":["nonSeqFull","nonSeqPartial","seqNoFeedback","seqFeedback"],"classroomPairings":[["A","B"],["C","D"]],"coinWeights":[0.2,0.5,0.8],"subjectId":"A48WNR6C4CI3J","assignmentId":"3JNQLM5FT58V7X9B2VUF60ADOTOL2M","hitId":"39WICJI5ATE2BKO4UUUR86UGAV2Z3G","url":"https://gershmanlab.com/experiments/alicia/teaching/experiment/?hitId=39WICJI5ATE2BKO4UUUR86UGAV2Z3G&workerId=A48WNR6C4CI3J&assignmentId=3JNQLM5FT58V7X9B2VUF60ADOTOL2M&a=FLNJ3&tp_a=FLNJ3&b=3JNQLM5FT58V7X9B2VUF60ADOTOL2M&tp_b=3JNQLM5FT58V7X9B2VUF60ADOTOL2M&c=365633&tp_c=365633","firstResponseHeads":12,"firstResponseTails":12,"secondResponseHeads":10,"secondResponseTails":10,"totalHeads":22,"totalTails":22,"studentIndex":12,"studentTrueHypers":{"a":4,"b":1},"studentGuess":0.5306122448979592,"delta":0.030612244897959218,"bonus":0,"bonusSoFar":0.3,"totalExamples":44},{"rt":5317,"response":{"heads":"2","tails":"10"},"type":"response","condition":"seqFeedback","trueTheta":0.2,"classrooms":["A","B"],"studentTrueClassroom":"B","exampleSet":"first","trial_type":"survey-html-form","trial_index":116,"time_elapsed":830615,"internal_node_id":"0.0-109.0-0.0","params":{"nStudents":24,"maxFlips":25,"completionMinutes":45,"basePay":8,"maxBonus":9,"perTrialBonus":0.5,"perTrialBonusThreshold":0.05,"exampleCost":0.02},"classroomParams":{"A":{"a":1,"b":4},"B":{"a":4,"b":1},"C":{"a":2,"b":8},"D":{"a":8,"b":2}},"conditions":["nonSeqFull","nonSeqPartial","seqNoFeedback","seqFeedback"],"classroomPairings":[["A","B"],["C","D"]],"coinWeights":[0.2,0.5,0.8],"subjectId":"A48WNR6C4CI3J","assignmentId":"3JNQLM5FT58V7X9B2VUF60ADOTOL2M","hitId":"39WICJI5ATE2BKO4UUUR86UGAV2Z3G","url":"https://gershmanlab.com/experiments/alicia/teaching/experiment/?hitId=39WICJI5ATE2BKO4UUUR86UGAV2Z3G&workerId=A48WNR6C4CI3J&assignmentId=3JNQLM5FT58V7X9B2VUF60ADOTOL2M&a=FLNJ3&tp_a=FLNJ3&b=3JNQLM5FT58V7X9B2VUF60ADOTOL2M&tp_b=3JNQLM5FT58V7X9B2VUF60ADOTOL2M&c=365633&tp_c=365633","heads":2,"tails":10,"studentIndex":13,"studentTrueHypers":{"a":4,"b":1},"studentGuess":0.35294117647058826,"delta":0.15294117647058825,"totalExamples":12,"bonusSoFar":0.3},{"rt":4159,"response":{"heads":"1","tails":"10"},"type":"response","condition":"seqFeedback","trueTheta":0.2,"classrooms":["A","B"],"studentTrueClassroom":"B","exampleSet":"second","trial_type":"survey-html-form","trial_index":120,"time_elapsed":843974,"internal_node_id":"0.0-113.0-0.0","params":{"nStudents":24,"maxFlips":25,"completionMinutes":45,"basePay":8,"maxBonus":9,"perTrialBonus":0.5,"perTrialBonusThreshold":0.05,"exampleCost":0.02},"classroomParams":{"A":{"a":1,"b":4},"B":{"a":4,"b":1},"C":{"a":2,"b":8},"D":{"a":8,"b":2}},"conditions":["nonSeqFull","nonSeqPartial","seqNoFeedback","seqFeedback"],"classroomPairings":[["A","B"],["C","D"]],"coinWeights":[0.2,0.5,0.8],"subjectId":"A48WNR6C4CI3J","assignmentId":"3JNQLM5FT58V7X9B2VUF60ADOTOL2M","hitId":"39WICJI5ATE2BKO4UUUR86UGAV2Z3G","url":"https://gershmanlab.com/experiments/alicia/teaching/experiment/?hitId=39WICJI5ATE2BKO4UUUR86UGAV2Z3G&workerId=A48WNR6C4CI3J&assignmentId=3JNQLM5FT58V7X9B2VUF60ADOTOL2M&a=FLNJ3&tp_a=FLNJ3&b=3JNQLM5FT58V7X9B2VUF60ADOTOL2M&tp_b=3JNQLM5FT58V7X9B2VUF60ADOTOL2M&c=365633&tp_c=365633","firstResponseHeads":2,"firstResponseTails":10,"secondResponseHeads":1,"secondResponseTails":10,"totalHeads":3,"totalTails":20,"studentIndex":13,"studentTrueHypers":{"a":4,"b":1},"studentGuess":0.25,"delta":0.04999999999999999,"bonus":0.04,"bonusSoFar":0.34,"totalExamples":23},{"rt":3457,"response":{"heads":"2","tails":"10"},"type":"response","condition":"nonSeqPartial","trueTheta":0.2,"classrooms":["C","D"],"studentTrueClassroom":"D","exampleSet":"first","trial_type":"survey-html-form","trial_index":126,"time_elapsed":861921,"internal_node_id":"0.0-119.0-0.0","params":{"nStudents":24,"maxFlips":25,"completionMinutes":45,"basePay":8,"maxBonus":9,"perTrialBonus":0.5,"perTrialBonusThreshold":0.05,"exampleCost":0.02},"classroomParams":{"A":{"a":1,"b":4},"B":{"a":4,"b":1},"C":{"a":2,"b":8},"D":{"a":8,"b":2}},"conditions":["nonSeqFull","nonSeqPartial","seqNoFeedback","seqFeedback"],"classroomPairings":[["A","B"],["C","D"]],"coinWeights":[0.2,0.5,0.8],"subjectId":"A48WNR6C4CI3J","assignmentId":"3JNQLM5FT58V7X9B2VUF60ADOTOL2M","hitId":"39WICJI5ATE2BKO4UUUR86UGAV2Z3G","url":"https://gershmanlab.com/experiments/alicia/teaching/experiment/?hitId=39WICJI5ATE2BKO4UUUR86UGAV2Z3G&workerId=A48WNR6C4CI3J&assignmentId=3JNQLM5FT58V7X9B2VUF60ADOTOL2M&a=FLNJ3&tp_a=FLNJ3&b=3JNQLM5FT58V7X9B2VUF60ADOTOL2M&tp_b=3JNQLM5FT58V7X9B2VUF60ADOTOL2M&c=365633&tp_c=365633","heads":2,"tails":10,"studentIndex":14,"studentTrueHypers":{"a":8,"b":2},"studentGuess":0.45454545454545453,"delta":0.2545454545454545,"totalExamples":12,"bonus":0,"bonusSoFar":0.34},{"rt":2779,"response":{"heads":"2","tails":"10"},"type":"response","condition":"nonSeqFull","trueTheta":0.2,"classrooms":["A","B"],"studentTrueClassroom":"B","exampleSet":"first","trial_type":"survey-html-form","trial_index":132,"time_elapsed":877387,"internal_node_id":"0.0-125.0-0.0","params":{"nStudents":24,"maxFlips":25,"completionMinutes":45,"basePay":8,"maxBonus":9,"perTrialBonus":0.5,"perTrialBonusThreshold":0.05,"exampleCost":0.02},"classroomParams":{"A":{"a":1,"b":4},"B":{"a":4,"b":1},"C":{"a":2,"b":8},"D":{"a":8,"b":2}},"conditions":["nonSeqFull","nonSeqPartial","seqNoFeedback","seqFeedback"],"classroomPairings":[["A","B"],["C","D"]],"coinWeights":[0.2,0.5,0.8],"subjectId":"A48WNR6C4CI3J","assignmentId":"3JNQLM5FT58V7X9B2VUF60ADOTOL2M","hitId":"39WICJI5ATE2BKO4UUUR86UGAV2Z3G","url":"https://gershmanlab.com/experiments/alicia/teaching/experiment/?hitId=39WICJI5ATE2BKO4UUUR86UGAV2Z3G&workerId=A48WNR6C4CI3J&assignmentId=3JNQLM5FT58V7X9B2VUF60ADOTOL2M&a=FLNJ3&tp_a=FLNJ3&b=3JNQLM5FT58V7X9B2VUF60ADOTOL2M&tp_b=3JNQLM5FT58V7X9B2VUF60ADOTOL2M&c=365633&tp_c=365633","heads":2,"tails":10,"studentIndex":15,"studentTrueHypers":{"a":4,"b":1},"studentGuess":0.35294117647058826,"delta":0.15294117647058825,"totalExamples":12,"bonus":0,"bonusSoFar":0.34},{"rt":4290,"response":{"heads":"2","tails":"20"},"type":"response","condition":"nonSeqFull","trueTheta":0.2,"classrooms":["C","D"],"studentTrueClassroom":"C","exampleSet":"first","trial_type":"survey-html-form","trial_index":138,"time_elapsed":893209,"internal_node_id":"0.0-131.0-0.0","params":{"nStudents":24,"maxFlips":25,"completionMinutes":45,"basePay":8,"maxBonus":9,"perTrialBonus":0.5,"perTrialBonusThreshold":0.05,"exampleCost":0.02},"classroomParams":{"A":{"a":1,"b":4},"B":{"a":4,"b":1},"C":{"a":2,"b":8},"D":{"a":8,"b":2}},"conditions":["nonSeqFull","nonSeqPartial","seqNoFeedback","seqFeedback"],"classroomPairings":[["A","B"],["C","D"]],"coinWeights":[0.2,0.5,0.8],"subjectId":"A48WNR6C4CI3J","assignmentId":"3JNQLM5FT58V7X9B2VUF60ADOTOL2M","hitId":"39WICJI5ATE2BKO4UUUR86UGAV2Z3G","url":"https://gershmanlab.com/experiments/alicia/teaching/experiment/?hitId=39WICJI5ATE2BKO4UUUR86UGAV2Z3G&workerId=A48WNR6C4CI3J&assignmentId=3JNQLM5FT58V7X9B2VUF60ADOTOL2M&a=FLNJ3&tp_a=FLNJ3&b=3JNQLM5FT58V7X9B2VUF60ADOTOL2M&tp_b=3JNQLM5FT58V7X9B2VUF60ADOTOL2M&c=365633&tp_c=365633","heads":2,"tails":20,"studentIndex":16,"studentTrueHypers":{"a":2,"b":8},"studentGuess":0.125,"delta":0.07500000000000001,"totalExamples":22,"bonus":0,"bonusSoFar":0.34},{"rt":8642,"response":{"heads":"8","tails":"10"},"type":"response","condition":"nonSeqFull","trueTheta":0.8,"classrooms":["A","B"],"studentTrueClassroom":"B","exampleSet":"first","trial_type":"survey-html-form","trial_index":144,"time_elapsed":914263,"internal_node_id":"0.0-137.0-0.0","params":{"nStudents":24,"maxFlips":25,"completionMinutes":45,"basePay":8,"maxBonus":9,"perTrialBonus":0.5,"perTrialBonusThreshold":0.05,"exampleCost":0.02},"classroomParams":{"A":{"a":1,"b":4},"B":{"a":4,"b":1},"C":{"a":2,"b":8},"D":{"a":8,"b":2}},"conditions":["nonSeqFull","nonSeqPartial","seqNoFeedback","seqFeedback"],"classroomPairings":[["A","B"],["C","D"]],"coinWeights":[0.2,0.5,0.8],"subjectId":"A48WNR6C4CI3J","assignmentId":"3JNQLM5FT58V7X9B2VUF60ADOTOL2M","hitId":"39WICJI5ATE2BKO4UUUR86UGAV2Z3G","url":"https://gershmanlab.com/experiments/alicia/teaching/experiment/?hitId=39WICJI5ATE2BKO4UUUR86UGAV2Z3G&workerId=A48WNR6C4CI3J&assignmentId=3JNQLM5FT58V7X9B2VUF60ADOTOL2M&a=FLNJ3&tp_a=FLNJ3&b=3JNQLM5FT58V7X9B2VUF60ADOTOL2M&tp_b=3JNQLM5FT58V7X9B2VUF60ADOTOL2M&c=365633&tp_c=365633","heads":8,"tails":10,"studentIndex":17,"studentTrueHypers":{"a":4,"b":1},"studentGuess":0.5217391304347826,"delta":0.27826086956521745,"totalExamples":18,"bonus":0,"bonusSoFar":0.34},{"rt":5422,"response":{"heads":"15","tails":"2"},"type":"response","condition":"seqNoFeedback","trueTheta":0.8,"classrooms":["A","B"],"studentTrueClassroom":"A","exampleSet":"first","trial_type":"survey-html-form","trial_index":150,"time_elapsed":935716,"internal_node_id":"0.0-143.0-0.0","params":{"nStudents":24,"maxFlips":25,"completionMinutes":45,"basePay":8,"maxBonus":9,"perTrialBonus":0.5,"perTrialBonusThreshold":0.05,"exampleCost":0.02},"classroomParams":{"A":{"a":1,"b":4},"B":{"a":4,"b":1},"C":{"a":2,"b":8},"D":{"a":8,"b":2}},"conditions":["nonSeqFull","nonSeqPartial","seqNoFeedback","seqFeedback"],"classroomPairings":[["A","B"],["C","D"]],"coinWeights":[0.2,0.5,0.8],"subjectId":"A48WNR6C4CI3J","assignmentId":"3JNQLM5FT58V7X9B2VUF60ADOTOL2M","hitId":"39WICJI5ATE2BKO4UUUR86UGAV2Z3G","url":"https://gershmanlab.com/experiments/alicia/teaching/experiment/?hitId=39WICJI5ATE2BKO4UUUR86UGAV2Z3G&workerId=A48WNR6C4CI3J&assignmentId=3JNQLM5FT58V7X9B2VUF60ADOTOL2M&a=FLNJ3&tp_a=FLNJ3&b=3JNQLM5FT58V7X9B2VUF60ADOTOL2M&tp_b=3JNQLM5FT58V7X9B2VUF60ADOTOL2M&c=365633&tp_c=365633","heads":15,"tails":2,"studentIndex":18,"studentTrueHypers":{"a":1,"b":4},"studentGuess":0.7272727272727273,"delta":0.07272727272727275,"totalExamples":17,"bonusSoFar":0.34},{"rt":129445,"response":{"heads":"14","tails":"2"},"type":"response","condition":"seqNoFeedback","trueTheta":0.8,"classrooms":["A","B"],"studentTrueClassroom":"A","exampleSet":"second","trial_type":"survey-html-form","trial_index":153,"time_elapsed":1071918,"internal_node_id":"0.0-146.0-0.0","params":{"nStudents":24,"maxFlips":25,"completionMinutes":45,"basePay":8,"maxBonus":9,"perTrialBonus":0.5,"perTrialBonusThreshold":0.05,"exampleCost":0.02},"classroomParams":{"A":{"a":1,"b":4},"B":{"a":4,"b":1},"C":{"a":2,"b":8},"D":{"a":8,"b":2}},"conditions":["nonSeqFull","nonSeqPartial","seqNoFeedback","seqFeedback"],"classroomPairings":[["A","B"],["C","D"]],"coinWeights":[0.2,0.5,0.8],"subjectId":"A48WNR6C4CI3J","assignmentId":"3JNQLM5FT58V7X9B2VUF60ADOTOL2M","hitId":"39WICJI5ATE2BKO4UUUR86UGAV2Z3G","url":"https://gershmanlab.com/experiments/alicia/teaching/experiment/?hitId=39WICJI5ATE2BKO4UUUR86UGAV2Z3G&workerId=A48WNR6C4CI3J&assignmentId=3JNQLM5FT58V7X9B2VUF60ADOTOL2M&a=FLNJ3&tp_a=FLNJ3&b=3JNQLM5FT58V7X9B2VUF60ADOTOL2M&tp_b=3JNQLM5FT58V7X9B2VUF60ADOTOL2M&c=365633&tp_c=365633","firstResponseHeads":15,"firstResponseTails":2,"secondResponseHeads":14,"secondResponseTails":2,"totalHeads":29,"totalTails":4,"studentIndex":18,"studentTrueHypers":{"a":1,"b":4},"studentGuess":0.7894736842105263,"delta":0.010526315789473717,"bonus":0,"bonusSoFar":0.34,"totalExamples":33},{"rt":6813,"response":{"heads":"2","tails":"15"},"type":"response","condition":"nonSeqPartial","trueTheta":0.2,"classrooms":["A","B"],"studentTrueClassroom":"A","exampleSet":"first","trial_type":"survey-html-form","trial_index":159,"time_elapsed":1091162,"internal_node_id":"0.0-152.0-0.0","params":{"nStudents":24,"maxFlips":25,"completionMinutes":45,"basePay":8,"maxBonus":9,"perTrialBonus":0.5,"perTrialBonusThreshold":0.05,"exampleCost":0.02},"classroomParams":{"A":{"a":1,"b":4},"B":{"a":4,"b":1},"C":{"a":2,"b":8},"D":{"a":8,"b":2}},"conditions":["nonSeqFull","nonSeqPartial","seqNoFeedback","seqFeedback"],"classroomPairings":[["A","B"],["C","D"]],"coinWeights":[0.2,0.5,0.8],"subjectId":"A48WNR6C4CI3J","assignmentId":"3JNQLM5FT58V7X9B2VUF60ADOTOL2M","hitId":"39WICJI5ATE2BKO4UUUR86UGAV2Z3G","url":"https://gershmanlab.com/experiments/alicia/teaching/experiment/?hitId=39WICJI5ATE2BKO4UUUR86UGAV2Z3G&workerId=A48WNR6C4CI3J&assignmentId=3JNQLM5FT58V7X9B2VUF60ADOTOL2M&a=FLNJ3&tp_a=FLNJ3&b=3JNQLM5FT58V7X9B2VUF60ADOTOL2M&tp_b=3JNQLM5FT58V7X9B2VUF60ADOTOL2M&c=365633&tp_c=365633","heads":2,"tails":15,"studentIndex":19,"studentTrueHypers":{"a":1,"b":4},"studentGuess":0.13636363636363635,"delta":0.06363636363636366,"totalExamples":17,"bonus":0,"bonusSoFar":0.34},{"rt":7713,"response":{"heads":"8","tails":"2"},"type":"response","condition":"seqFeedback","trueTheta":0.8,"classrooms":["C","D"],"studentTrueClassroom":"D","exampleSet":"first","trial_type":"survey-html-form","trial_index":165,"time_elapsed":1116599,"internal_node_id":"0.0-158.0-0.0","params":{"nStudents":24,"maxFlips":25,"completionMinutes":45,"basePay":8,"maxBonus":9,"perTrialBonus":0.5,"perTrialBonusThreshold":0.05,"exampleCost":0.02},"classroomParams":{"A":{"a":1,"b":4},"B":{"a":4,"b":1},"C":{"a":2,"b":8},"D":{"a":8,"b":2}},"conditions":["nonSeqFull","nonSeqPartial","seqNoFeedback","seqFeedback"],"classroomPairings":[["A","B"],["C","D"]],"coinWeights":[0.2,0.5,0.8],"subjectId":"A48WNR6C4CI3J","assignmentId":"3JNQLM5FT58V7X9B2VUF60ADOTOL2M","hitId":"39WICJI5ATE2BKO4UUUR86UGAV2Z3G","url":"https://gershmanlab.com/experiments/alicia/teaching/experiment/?hitId=39WICJI5ATE2BKO4UUUR86UGAV2Z3G&workerId=A48WNR6C4CI3J&assignmentId=3JNQLM5FT58V7X9B2VUF60ADOTOL2M&a=FLNJ3&tp_a=FLNJ3&b=3JNQLM5FT58V7X9B2VUF60ADOTOL2M&tp_b=3JNQLM5FT58V7X9B2VUF60ADOTOL2M&c=365633&tp_c=365633","heads":8,"tails":2,"studentIndex":20,"studentTrueHypers":{"a":8,"b":2},"studentGuess":0.8,"delta":0,"totalExamples":10,"bonusSoFar":0.34},{"rt":3347,"response":{"heads":"8","tails":"2"},"type":"response","condition":"seqFeedback","trueTheta":0.8,"classrooms":["C","D"],"studentTrueClassroom":"D","exampleSet":"second","trial_type":"survey-html-form","trial_index":169,"time_elapsed":1133720,"internal_node_id":"0.0-162.0-0.0","params":{"nStudents":24,"maxFlips":25,"completionMinutes":45,"basePay":8,"maxBonus":9,"perTrialBonus":0.5,"perTrialBonusThreshold":0.05,"exampleCost":0.02},"classroomParams":{"A":{"a":1,"b":4},"B":{"a":4,"b":1},"C":{"a":2,"b":8},"D":{"a":8,"b":2}},"conditions":["nonSeqFull","nonSeqPartial","seqNoFeedback","seqFeedback"],"classroomPairings":[["A","B"],["C","D"]],"coinWeights":[0.2,0.5,0.8],"subjectId":"A48WNR6C4CI3J","assignmentId":"3JNQLM5FT58V7X9B2VUF60ADOTOL2M","hitId":"39WICJI5ATE2BKO4UUUR86UGAV2Z3G","url":"https://gershmanlab.com/experiments/alicia/teaching/experiment/?hitId=39WICJI5ATE2BKO4UUUR86UGAV2Z3G&workerId=A48WNR6C4CI3J&assignmentId=3JNQLM5FT58V7X9B2VUF60ADOTOL2M&a=FLNJ3&tp_a=FLNJ3&b=3JNQLM5FT58V7X9B2VUF60ADOTOL2M&tp_b=3JNQLM5FT58V7X9B2VUF60ADOTOL2M&c=365633&tp_c=365633","firstResponseHeads":8,"firstResponseTails":2,"secondResponseHeads":8,"secondResponseTails":2,"totalHeads":16,"totalTails":4,"studentIndex":20,"studentTrueHypers":{"a":8,"b":2},"studentGuess":0.8,"delta":0,"bonus":0.1,"bonusSoFar":0.44,"totalExamples":20},{"rt":8166,"response":{"heads":"1","tails":"1"},"type":"response","condition":"nonSeqPartial","trueTheta":0.5,"classrooms":["C","D"],"studentTrueClassroom":"D","exampleSet":"first","trial_type":"survey-html-form","trial_index":175,"time_elapsed":1160641,"internal_node_id":"0.0-168.0-0.0","params":{"nStudents":24,"maxFlips":25,"completionMinutes":45,"basePay":8,"maxBonus":9,"perTrialBonus":0.5,"perTrialBonusThreshold":0.05,"exampleCost":0.02},"classroomParams":{"A":{"a":1,"b":4},"B":{"a":4,"b":1},"C":{"a":2,"b":8},"D":{"a":8,"b":2}},"conditions":["nonSeqFull","nonSeqPartial","seqNoFeedback","seqFeedback"],"classroomPairings":[["A","B"],["C","D"]],"coinWeights":[0.2,0.5,0.8],"subjectId":"A48WNR6C4CI3J","assignmentId":"3JNQLM5FT58V7X9B2VUF60ADOTOL2M","hitId":"39WICJI5ATE2BKO4UUUR86UGAV2Z3G","url":"https://gershmanlab.com/experiments/alicia/teaching/experiment/?hitId=39WICJI5ATE2BKO4UUUR86UGAV2Z3G&workerId=A48WNR6C4CI3J&assignmentId=3JNQLM5FT58V7X9B2VUF60ADOTOL2M&a=FLNJ3&tp_a=FLNJ3&b=3JNQLM5FT58V7X9B2VUF60ADOTOL2M&tp_b=3JNQLM5FT58V7X9B2VUF60ADOTOL2M&c=365633&tp_c=365633","heads":1,"tails":1,"studentIndex":21,"studentTrueHypers":{"a":8,"b":2},"studentGuess":0.75,"delta":0.25,"totalExamples":2,"bonus":0,"bonusSoFar":0.44},{"rt":4882,"response":{"heads":"8","tails":"2"},"type":"response","condition":"seqNoFeedback","trueTheta":0.8,"classrooms":["C","D"],"studentTrueClassroom":"C","exampleSet":"first","trial_type":"survey-html-form","trial_index":181,"time_elapsed":1180348,"internal_node_id":"0.0-174.0-0.0","params":{"nStudents":24,"maxFlips":25,"completionMinutes":45,"basePay":8,"maxBonus":9,"perTrialBonus":0.5,"perTrialBonusThreshold":0.05,"exampleCost":0.02},"classroomParams":{"A":{"a":1,"b":4},"B":{"a":4,"b":1},"C":{"a":2,"b":8},"D":{"a":8,"b":2}},"conditions":["nonSeqFull","nonSeqPartial","seqNoFeedback","seqFeedback"],"classroomPairings":[["A","B"],["C","D"]],"coinWeights":[0.2,0.5,0.8],"subjectId":"A48WNR6C4CI3J","assignmentId":"3JNQLM5FT58V7X9B2VUF60ADOTOL2M","hitId":"39WICJI5ATE2BKO4UUUR86UGAV2Z3G","url":"https://gershmanlab.com/experiments/alicia/teaching/experiment/?hitId=39WICJI5ATE2BKO4UUUR86UGAV2Z3G&workerId=A48WNR6C4CI3J&assignmentId=3JNQLM5FT58V7X9B2VUF60ADOTOL2M&a=FLNJ3&tp_a=FLNJ3&b=3JNQLM5FT58V7X9B2VUF60ADOTOL2M&tp_b=3JNQLM5FT58V7X9B2VUF60ADOTOL2M&c=365633&tp_c=365633","heads":8,"tails":2,"studentIndex":22,"studentTrueHypers":{"a":2,"b":8},"studentGuess":0.5,"delta":0.30000000000000004,"totalExamples":10,"bonusSoFar":0.44},{"rt":7239,"response":{"heads":"8","tails":"2"},"type":"response","condition":"seqNoFeedback","trueTheta":0.8,"classrooms":["C","D"],"studentTrueClassroom":"C","exampleSet":"second","trial_type":"survey-html-form","trial_index":184,"time_elapsed":1195594,"internal_node_id":"0.0-177.0-0.0","params":{"nStudents":24,"maxFlips":25,"completionMinutes":45,"basePay":8,"maxBonus":9,"perTrialBonus":0.5,"perTrialBonusThreshold":0.05,"exampleCost":0.02},"classroomParams":{"A":{"a":1,"b":4},"B":{"a":4,"b":1},"C":{"a":2,"b":8},"D":{"a":8,"b":2}},"conditions":["nonSeqFull","nonSeqPartial","seqNoFeedback","seqFeedback"],"classroomPairings":[["A","B"],["C","D"]],"coinWeights":[0.2,0.5,0.8],"subjectId":"A48WNR6C4CI3J","assignmentId":"3JNQLM5FT58V7X9B2VUF60ADOTOL2M","hitId":"39WICJI5ATE2BKO4UUUR86UGAV2Z3G","url":"https://gershmanlab.com/experiments/alicia/teaching/experiment/?hitId=39WICJI5ATE2BKO4UUUR86UGAV2Z3G&workerId=A48WNR6C4CI3J&assignmentId=3JNQLM5FT58V7X9B2VUF60ADOTOL2M&a=FLNJ3&tp_a=FLNJ3&b=3JNQLM5FT58V7X9B2VUF60ADOTOL2M&tp_b=3JNQLM5FT58V7X9B2VUF60ADOTOL2M&c=365633&tp_c=365633","firstResponseHeads":8,"firstResponseTails":2,"secondResponseHeads":8,"secondResponseTails":2,"totalHeads":16,"totalTails":4,"studentIndex":22,"studentTrueHypers":{"a":2,"b":8},"studentGuess":0.6,"delta":0.20000000000000007,"bonus":0,"bonusSoFar":0.44,"totalExamples":20},{"rt":5458,"response":{"heads":"2","tails":"8"},"type":"response","condition":"seqNoFeedback","trueTheta":0.2,"classrooms":["C","D"],"studentTrueClassroom":"C","exampleSet":"first","trial_type":"survey-html-form","trial_index":190,"time_elapsed":1220934,"internal_node_id":"0.0-183.0-0.0","params":{"nStudents":24,"maxFlips":25,"completionMinutes":45,"basePay":8,"maxBonus":9,"perTrialBonus":0.5,"perTrialBonusThreshold":0.05,"exampleCost":0.02},"classroomParams":{"A":{"a":1,"b":4},"B":{"a":4,"b":1},"C":{"a":2,"b":8},"D":{"a":8,"b":2}},"conditions":["nonSeqFull","nonSeqPartial","seqNoFeedback","seqFeedback"],"classroomPairings":[["A","B"],["C","D"]],"coinWeights":[0.2,0.5,0.8],"subjectId":"A48WNR6C4CI3J","assignmentId":"3JNQLM5FT58V7X9B2VUF60ADOTOL2M","hitId":"39WICJI5ATE2BKO4UUUR86UGAV2Z3G","url":"https://gershmanlab.com/experiments/alicia/teaching/experiment/?hitId=39WICJI5ATE2BKO4UUUR86UGAV2Z3G&workerId=A48WNR6C4CI3J&assignmentId=3JNQLM5FT58V7X9B2VUF60ADOTOL2M&a=FLNJ3&tp_a=FLNJ3&b=3JNQLM5FT58V7X9B2VUF60ADOTOL2M&tp_b=3JNQLM5FT58V7X9B2VUF60ADOTOL2M&c=365633&tp_c=365633","heads":2,"tails":8,"studentIndex":23,"studentTrueHypers":{"a":2,"b":8},"studentGuess":0.2,"delta":0,"totalExamples":10,"bonusSoFar":0.44},{"rt":7470,"response":{"heads":"2","tails":"8"},"type":"response","condition":"seqNoFeedback","trueTheta":0.2,"classrooms":["C","D"],"studentTrueClassroom":"C","exampleSet":"second","trial_type":"survey-html-form","trial_index":193,"time_elapsed":1233660,"internal_node_id":"0.0-186.0-0.0","params":{"nStudents":24,"maxFlips":25,"completionMinutes":45,"basePay":8,"maxBonus":9,"perTrialBonus":0.5,"perTrialBonusThreshold":0.05,"exampleCost":0.02},"classroomParams":{"A":{"a":1,"b":4},"B":{"a":4,"b":1},"C":{"a":2,"b":8},"D":{"a":8,"b":2}},"conditions":["nonSeqFull","nonSeqPartial","seqNoFeedback","seqFeedback"],"classroomPairings":[["A","B"],["C","D"]],"coinWeights":[0.2,0.5,0.8],"subjectId":"A48WNR6C4CI3J","assignmentId":"3JNQLM5FT58V7X9B2VUF60ADOTOL2M","hitId":"39WICJI5ATE2BKO4UUUR86UGAV2Z3G","url":"https://gershmanlab.com/experiments/alicia/teaching/experiment/?hitId=39WICJI5ATE2BKO4UUUR86UGAV2Z3G&workerId=A48WNR6C4CI3J&assignmentId=3JNQLM5FT58V7X9B2VUF60ADOTOL2M&a=FLNJ3&tp_a=FLNJ3&b=3JNQLM5FT58V7X9B2VUF60ADOTOL2M&tp_b=3JNQLM5FT58V7X9B2VUF60ADOTOL2M&c=365633&tp_c=365633","firstResponseHeads":2,"firstResponseTails":8,"secondResponseHeads":2,"secondResponseTails":8,"totalHeads":4,"totalTails":16,"studentIndex":23,"studentTrueHypers":{"a":2,"b":8},"studentGuess":0.2,"delta":0,"bonus":0.1,"bonusSoFar":0.54,"totalExamples":20},{"rt":11556,"response":{"gender":"male","age":"38","understood":"yes","comments":""},"type":"response","trial_type":"survey-html-form","trial_index":197,"time_elapsed":1255655,"internal_node_id":"0.0-191.0","params":{"nStudents":24,"maxFlips":25,"completionMinutes":45,"basePay":8,"maxBonus":9,"perTrialBonus":0.5,"perTrialBonusThreshold":0.05,"exampleCost":0.02},"classroomParams":{"A":{"a":1,"b":4},"B":{"a":4,"b":1},"C":{"a":2,"b":8},"D":{"a":8,"b":2}},"conditions":["nonSeqFull","nonSeqPartial","seqNoFeedback","seqFeedback"],"classroomPairings":[["A","B"],["C","D"]],"coinWeights":[0.2,0.5,0.8],"subjectId":"A48WNR6C4CI3J","assignmentId":"3JNQLM5FT58V7X9B2VUF60ADOTOL2M","hitId":"39WICJI5ATE2BKO4UUUR86UGAV2Z3G","url":"https://gershmanlab.com/experiments/alicia/teaching/experiment/?hitId=39WICJI5ATE2BKO4UUUR86UGAV2Z3G&workerId=A48WNR6C4CI3J&assignmentId=3JNQLM5FT58V7X9B2VUF60ADOTOL2M&a=FLNJ3&tp_a=FLNJ3&b=3JNQLM5FT58V7X9B2VUF60ADOTOL2M&tp_b=3JNQLM5FT58V7X9B2VUF60ADOTOL2M&c=365633&tp_c=365633","totalBonus":0.54}]