[{"rt":50159,"response":{"heads":"1","tails":"4"},"type":"response","condition":"seqFeedback","trueTheta":0.2,"classrooms":["C","D"],"studentTrueClassroom":"C","exampleSet":"first","trial_type":"survey-html-form","trial_index":7,"time_elapsed":209608,"internal_node_id":"0.0-6.0-0.0","params":{"nStudents":24,"maxFlips":25,"completionMinutes":45,"basePay":8,"maxBonus":9,"perTrialBonus":0.5,"perTrialBonusThreshold":0.05,"exampleCost":0.02},"classroomParams":{"A":{"a":1,"b":4},"B":{"a":4,"b":1},"C":{"a":2,"b":8},"D":{"a":8,"b":2}},"conditions":["nonSeqFull","nonSeqPartial","seqNoFeedback","seqFeedback"],"classroomPairings":[["A","B"],["C","D"]],"coinWeights":[0.2,0.5,0.8],"subjectId":"A5P12YJP805RG","assignmentId":"3SNLUL3WO594R9IDLF4LCJ557KTLUQ","hitId":"3XUY87HIVP03YZXVLN9CW37DVI1MM2","url":"https://gershmanlab.com/experiments/alicia/teaching/experiment/?hitId=3XUY87HIVP03YZXVLN9CW37DVI1MM2&workerId=A5P12YJP805RG&assignmentId=3SNLUL3WO594R9IDLF4LCJ557KTLUQ&a=WUNS3&tp_a=WUNS3&b=3SNLUL3WO594R9IDLF4LCJ557KTLUQ&tp_b=3SNLUL3WO594R9IDLF4LCJ557KTLUQ&c=365633&tp_c=365633","heads":1,"tails":4,"studentIndex":0,"studentTrueHypers":{"a":2,"b":8},"studentGuess":0.2,"delta":0,"totalExamples":5,"bonusSoFar":0},{"rt":12760,"response":{"heads":"1","tails":"4"},"type":"response","condition":"seqFeedback","trueTheta":0.2,"classrooms":["C","D"],"studentTrueClassroom":"C","exampleSet":"second","trial_type":"survey-html-form","trial_index":11,"time_elapsed":234738,"internal_node_id":"0.0-10.0-0.0","params":{"nStudents":24,"maxFlips":25,"completionMinutes":45,"basePay":8,"maxBonus":9,"perTrialBonus":0.5,"perTrialBonusThreshold":0.05,"exampleCost":0.02},"classroomParams":{"A":{"a":1,"b":4},"B":{"a":4,"b":1},"C":{"a":2,"b":8},"D":{"a":8,"b":2}},"conditions":["nonSeqFull","nonSeqPartial","seqNoFeedback","seqFeedback"],"classroomPairings":[["A","B"],["C","D"]],"coinWeights":[0.2,0.5,0.8],"subjectId":"A5P12YJP805RG","assignmentId":"3SNLUL3WO594R9IDLF4LCJ557KTLUQ","hitId":"3XUY87HIVP03YZXVLN9CW37DVI1MM2","url":"https://gershmanlab.com/experiments/alicia/teaching/experiment/?hitId=3XUY87HIVP03YZXVLN9CW37DVI1MM2&workerId=A5P12YJP805RG&assignmentId=3SNLUL3WO594R9IDLF4LCJ557KTLUQ&a=WUNS3&tp_a=WUNS3&b=3SNLUL3WO594R9IDLF4LCJ557KTLUQ&tp_b=3SNLUL3WO594R9IDLF4LCJ557KTLUQ&c=365633&tp_c=365633","firstResponseHeads":1,"firstResponseTails":4,"secondResponseHeads":1,"secondResponseTails":4,"totalHeads":2,"totalTails":8,"studentIndex":0,"studentTrueHypers":{"a":2,"b":8},"studentGuess":0.2,"delta":0,"bonus":0.3,"bonusSoFar":0.3,"totalExamples":10},{"rt":12033,"response":{"heads":"1","tails":"1"},"type":"response","condition":"nonSeqFull","trueTheta":0.5,"classrooms":["C","D"],"studentTrueClassroom":"D","exampleSet":"first","trial_type":"survey-html-form","trial_index":17,"time_elapsed":266280,"internal_node_id":"0.0-16.0-0.0","params":{"nStudents":24,"maxFlips":25,"completionMinutes":45,"basePay":8,"maxBonus":9,"perTrialBonus":0.5,"perTrialBonusThreshold":0.05,"exampleCost":0.02},"classroomParams":{"A":{"a":1,"b":4},"B":{"a":4,"b":1},"C":{"a":2,"b":8},"D":{"a":8,"b":2}},"conditions":["nonSeqFull","nonSeqPartial","seqNoFeedback","seqFeedback"],"classroomPairings":[["A","B"],["C","D"]],"coinWeights":[0.2,0.5,0.8],"subjectId":"A5P12YJP805RG","assignmentId":"3SNLUL3WO594R9IDLF4LCJ557KTLUQ","hitId":"3XUY87HIVP03YZXVLN9CW37DVI1MM2","url":"https://gershmanlab.com/experiments/alicia/teaching/experiment/?hitId=3XUY87HIVP03YZXVLN9CW37DVI1MM2&workerId=A5P12YJP805RG&assignmentId=3SNLUL3WO594R9IDLF4LCJ557KTLUQ&a=WUNS3&tp_a=WUNS3&b=3SNLUL3WO594R9IDLF4LCJ557KTLUQ&tp_b=3SNLUL3WO594R9IDLF4LCJ557KTLUQ&c=365633&tp_c=365633","heads":1,"tails":1,"studentIndex":1,"studentTrueHypers":{"a":8,"b":2},"studentGuess":0.75,"delta":0.25,"totalExamples":2,"bonus":0,"bonusSoFar":0.3},{"rt":10113,"response":{"heads":"4","tails":"1"},"type":"response","condition":"seqFeedback","trueTheta":0.8,"classrooms":["C","D"],"studentTrueClassroom":"C","exampleSet":"first","trial_type":"survey-html-form","trial_index":23,"time_elapsed":299037,"internal_node_id":"0.0-22.0-0.0","params":{"nStudents":24,"maxFlips":25,"completionMinutes":45,"basePay":8,"maxBonus":9,"perTrialBonus":0.5,"perTrialBonusThreshold":0.05,"exampleCost":0.02},"classroomParams":{"A":{"a":1,"b":4},"B":{"a":4,"b":1},"C":{"a":2,"b":8},"D":{"a":8,"b":2}},"conditions":["nonSeqFull","nonSeqPartial","seqNoFeedback","seqFeedback"],"classroomPairings":[["A","B"],["C","D"]],"coinWeights":[0.2,0.5,0.8],"subjectId":"A5P12YJP805RG","assignmentId":"3SNLUL3WO594R9IDLF4LCJ557KTLUQ","hitId":"3XUY87HIVP03YZXVLN9CW37DVI1MM2","url":"https://gershmanlab.com/experiments/alicia/teaching/experiment/?hitId=3XUY87HIVP03YZXVLN9CW37DVI1MM2&workerId=A5P12YJP805RG&assignmentId=3SNLUL3WO594R9IDLF4LCJ557KTLUQ&a=WUNS3&tp_a=WUNS3&b=3SNLUL3WO594R9IDLF4LCJ557KTLUQ&tp_b=3SNLUL3WO594R9IDLF4LCJ557KTLUQ&c=365633&tp_c=365633","heads":4,"tails":1,"studentIndex":2,"studentTrueHypers":{"a":2,"b":8},"studentGuess":0.4,"delta":0.4,"totalExamples":5,"bonusSoFar":0.3},{"rt":9962,"response":{"heads":"8","tails":"2"},"type":"response","condition":"seqFeedback","trueTheta":0.8,"classrooms":["C","D"],"studentTrueClassroom":"C","exampleSet":"second","trial_type":"survey-html-form","trial_index":27,"time_elapsed":320880,"internal_node_id":"0.0-26.0-0.0","params":{"nStudents":24,"maxFlips":25,"completionMinutes":45,"basePay":8,"maxBonus":9,"perTrialBonus":0.5,"perTrialBonusThreshold":0.05,"exampleCost":0.02},"classroomParams":{"A":{"a":1,"b":4},"B":{"a":4,"b":1},"C":{"a":2,"b":8},"D":{"a":8,"b":2}},"conditions":["nonSeqFull","nonSeqPartial","seqNoFeedback","seqFeedback"],"classroomPairings":[["A","B"],["C","D"]],"coinWeights":[0.2,0.5,0.8],"subjectId":"A5P12YJP805RG","assignmentId":"3SNLUL3WO594R9IDLF4LCJ557KTLUQ","hitId":"3XUY87HIVP03YZXVLN9CW37DVI1MM2","url":"https://gershmanlab.com/experiments/alicia/teaching/experiment/?hitId=3XUY87HIVP03YZXVLN9CW37DVI1MM2&workerId=A5P12YJP805RG&assignmentId=3SNLUL3WO594R9IDLF4LCJ557KTLUQ&a=WUNS3&tp_a=WUNS3&b=3SNLUL3WO594R9IDLF4LCJ557KTLUQ&tp_b=3SNLUL3WO594R9IDLF4LCJ557KTLUQ&c=365633&tp_c=365633","firstResponseHeads":4,"firstResponseTails":1,"secondResponseHeads":8,"secondResponseTails":2,"totalHeads":12,"totalTails":3,"studentIndex":2,"studentTrueHypers":{"a":2,"b":8},"studentGuess":0.56,"delta":0.24,"bonus":0,"bonusSoFar":0.3,"totalExamples":15},{"rt":6032,"response":{"heads":"8","tails":"2"},"type":"response","condition":"seqNoFeedback","trueTheta":0.8,"classrooms":["C","D"],"studentTrueClassroom":"C","exampleSet":"first","trial_type":"survey-html-form","trial_index":33,"time_elapsed":342507,"internal_node_id":"0.0-32.0-0.0","params":{"nStudents":24,"maxFlips":25,"completionMinutes":45,"basePay":8,"maxBonus":9,"perTrialBonus":0.5,"perTrialBonusThreshold":0.05,"exampleCost":0.02},"classroomParams":{"A":{"a":1,"b":4},"B":{"a":4,"b":1},"C":{"a":2,"b":8},"D":{"a":8,"b":2}},"conditions":["nonSeqFull","nonSeqPartial","seqNoFeedback","seqFeedback"],"classroomPairings":[["A","B"],["C","D"]],"coinWeights":[0.2,0.5,0.8],"subjectId":"A5P12YJP805RG","assignmentId":"3SNLUL3WO594R9IDLF4LCJ557KTLUQ","hitId":"3XUY87HIVP03YZXVLN9CW37DVI1MM2","url":"https://gershmanlab.com/experiments/alicia/teaching/experiment/?hitId=3XUY87HIVP03YZXVLN9CW37DVI1MM2&workerId=A5P12YJP805RG&assignmentId=3SNLUL3WO594R9IDLF4LCJ557KTLUQ&a=WUNS3&tp_a=WUNS3&b=3SNLUL3WO594R9IDLF4LCJ557KTLUQ&tp_b=3SNLUL3WO594R9IDLF4LCJ557KTLUQ&c=365633&tp_c=365633","heads":8,"tails":2,"studentIndex":3,"studentTrueHypers":{"a":2,"b":8},"studentGuess":0.5,"delta":0.30000000000000004,"totalExamples":10,"bonusSoFar":0.3},{"rt":5057,"response":{"heads":"8","tails":"2"},"type":"response","condition":"seqNoFeedback","trueTheta":0.8,"classrooms":["C","D"],"studentTrueClassroom":"C","exampleSet":"second","trial_type":"survey-html-form","trial_index":36,"time_elapsed":353333,"internal_node_id":"0.0-35.0-0.0","params":{"nStudents":24,"maxFlips":25,"completionMinutes":45,"basePay":8,"maxBonus":9,"perTrialBonus":0.5,"perTrialBonusThreshold":0.05,"exampleCost":0.02},"classroomParams":{"A":{"a":1,"b":4},"B":{"a":4,"b":1},"C":{"a":2,"b":8},"D":{"a":8,"b":2}},"conditions":["nonSeqFull","nonSeqPartial","seqNoFeedback","seqFeedback"],"classroomPairings":[["A","B"],["C","D"]],"coinWeights":[0.2,0.5,0.8],"subjectId":"A5P12YJP805RG","assignmentId":"3SNLUL3WO594R9IDLF4LCJ557KTLUQ","hitId":"3XUY87HIVP03YZXVLN9CW37DVI1MM2","url":"https://gershmanlab.com/experiments/alicia/teaching/experiment/?hitId=3XUY87HIVP03YZXVLN9CW37DVI1MM2&workerId=A5P12YJP805RG&assignmentId=3SNLUL3WO594R9IDLF4LCJ557KTLUQ&a=WUNS3&tp_a=WUNS3&b=3SNLUL3WO594R9IDLF4LCJ557KTLUQ&tp_b=3SNLUL3WO594R9IDLF4LCJ557KTLUQ&c=365633&tp_c=365633","firstResponseHeads":8,"firstResponseTails":2,"secondResponseHeads":8,"secondResponseTails":2,"totalHeads":16,"totalTails":4,"studentIndex":3,"studentTrueHypers":{"a":2,"b":8},"studentGuess":0.6,"delta":0.20000000000000007,"bonus":0,"bonusSoFar":0.3,"totalExamples":20},{"rt":8384,"response":{"heads":"4","tails":"4"},"type":"response","condition":"nonSeqPartial","trueTheta":0.5,"classrooms":["A","B"],"studentTrueClassroom":"A","exampleSet":"first","trial_type":"survey-html-form","trial_index":42,"time_elapsed":374998,"internal_node_id":"0.0-41.0-0.0","params":{"nStudents":24,"maxFlips":25,"completionMinutes":45,"basePay":8,"maxBonus":9,"perTrialBonus":0.5,"perTrialBonusThreshold":0.05,"exampleCost":0.02},"classroomParams":{"A":{"a":1,"b":4},"B":{"a":4,"b":1},"C":{"a":2,"b":8},"D":{"a":8,"b":2}},"conditions":["nonSeqFull","nonSeqPartial","seqNoFeedback","seqFeedback"],"classroomPairings":[["A","B"],["C","D"]],"coinWeights":[0.2,0.5,0.8],"subjectId":"A5P12YJP805RG","assignmentId":"3SNLUL3WO594R9IDLF4LCJ557KTLUQ","hitId":"3XUY87HIVP03YZXVLN9CW37DVI1MM2","url":"https://gershmanlab.com/experiments/alicia/teaching/experiment/?hitId=3XUY87HIVP03YZXVLN9CW37DVI1MM2&workerId=A5P12YJP805RG&assignmentId=3SNLUL3WO594R9IDLF4LCJ557KTLUQ&a=WUNS3&tp_a=WUNS3&b=3SNLUL3WO594R9IDLF4LCJ557KTLUQ&tp_b=3SNLUL3WO594R9IDLF4LCJ557KTLUQ&c=365633&tp_c=365633","heads":4,"tails":4,"studentIndex":4,"studentTrueHypers":{"a":1,"b":4},"studentGuess":0.38461538461538464,"delta":0.11538461538461536,"totalExamples":8,"bonus":0,"bonusSoFar":0.3},{"rt":21026,"response":{"heads":"8","tails":"2"},"type":"response","condition":"nonSeqPartial","trueTheta":0.8,"classrooms":["C","D"],"studentTrueClassroom":"C","exampleSet":"first","trial_type":"survey-html-form","trial_index":48,"time_elapsed":410205,"internal_node_id":"0.0-47.0-0.0","params":{"nStudents":24,"maxFlips":25,"completionMinutes":45,"basePay":8,"maxBonus":9,"perTrialBonus":0.5,"perTrialBonusThreshold":0.05,"exampleCost":0.02},"classroomParams":{"A":{"a":1,"b":4},"B":{"a":4,"b":1},"C":{"a":2,"b":8},"D":{"a":8,"b":2}},"conditions":["nonSeqFull","nonSeqPartial","seqNoFeedback","seqFeedback"],"classroomPairings":[["A","B"],["C","D"]],"coinWeights":[0.2,0.5,0.8],"subjectId":"A5P12YJP805RG","assignmentId":"3SNLUL3WO594R9IDLF4LCJ557KTLUQ","hitId":"3XUY87HIVP03YZXVLN9CW37DVI1MM2","url":"https://gershmanlab.com/experiments/alicia/teaching/experiment/?hitId=3XUY87HIVP03YZXVLN9CW37DVI1MM2&workerId=A5P12YJP805RG&assignmentId=3SNLUL3WO594R9IDLF4LCJ557KTLUQ&a=WUNS3&tp_a=WUNS3&b=3SNLUL3WO594R9IDLF4LCJ557KTLUQ&tp_b=3SNLUL3WO594R9IDLF4LCJ557KTLUQ&c=365633&tp_c=365633","heads":8,"tails":2,"studentIndex":5,"studentTrueHypers":{"a":2,"b":8},"studentGuess":0.5,"delta":0.30000000000000004,"totalExamples":10,"bonus":0,"bonusSoFar":0.3},{"rt":30493,"response":{"heads":"1","tails":"4"},"type":"response","condition":"nonSeqPartial","trueTheta":0.2,"classrooms":["A","B"],"studentTrueClassroom":"A","exampleSet":"first","trial_type":"survey-html-form","trial_index":54,"time_elapsed":456779,"internal_node_id":"0.0-53.0-0.0","params":{"nStudents":24,"maxFlips":25,"completionMinutes":45,"basePay":8,"maxBonus":9,"perTrialBonus":0.5,"perTrialBonusThreshold":0.05,"exampleCost":0.02},"classroomParams":{"A":{"a":1,"b":4},"B":{"a":4,"b":1},"C":{"a":2,"b":8},"D":{"a":8,"b":2}},"conditions":["nonSeqFull","nonSeqPartial","seqNoFeedback","seqFeedback"],"classroomPairings":[["A","B"],["C","D"]],"coinWeights":[0.2,0.5,0.8],"subjectId":"A5P12YJP805RG","assignmentId":"3SNLUL3WO594R9IDLF4LCJ557KTLUQ","hitId":"3XUY87HIVP03YZXVLN9CW37DVI1MM2","url":"https://gershmanlab.com/experiments/alicia/teaching/experiment/?hitId=3XUY87HIVP03YZXVLN9CW37DVI1MM2&workerId=A5P12YJP805RG&assignmentId=3SNLUL3WO594R9IDLF4LCJ557KTLUQ&a=WUNS3&tp_a=WUNS3&b=3SNLUL3WO594R9IDLF4LCJ557KTLUQ&tp_b=3SNLUL3WO594R9IDLF4LCJ557KTLUQ&c=365633&tp_c=365633","heads":1,"tails":4,"studentIndex":6,"studentTrueHypers":{"a":1,"b":4},"studentGuess":0.2,"delta":0,"totalExamples":5,"bonus":0.4,"bonusSoFar":0.7},{"rt":14705,"response":{"heads":"4","tails":"1"},"type":"response","condition":"nonSeqPartial","trueTheta":0.8,"classrooms":["A","B"],"studentTrueClassroom":"B","exampleSet":"first","trial_type":"survey-html-form","trial_index":60,"time_elapsed":487216,"internal_node_id":"0.0-59.0-0.0","params":{"nStudents":24,"maxFlips":25,"completionMinutes":45,"basePay":8,"maxBonus":9,"perTrialBonus":0.5,"perTrialBonusThreshold":0.05,"exampleCost":0.02},"classroomParams":{"A":{"a":1,"b":4},"B":{"a":4,"b":1},"C":{"a":2,"b":8},"D":{"a":8,"b":2}},"conditions":["nonSeqFull","nonSeqPartial","seqNoFeedback","seqFeedback"],"classroomPairings":[["A","B"],["C","D"]],"coinWeights":[0.2,0.5,0.8],"subjectId":"A5P12YJP805RG","assignmentId":"3SNLUL3WO594R9IDLF4LCJ557KTLUQ","hitId":"3XUY87HIVP03YZXVLN9CW37DVI1MM2","url":"https://gershmanlab.com/experiments/alicia/teaching/experiment/?hitId=3XUY87HIVP03YZXVLN9CW37DVI1MM2&workerId=A5P12YJP805RG&assignmentId=3SNLUL3WO594R9IDLF4LCJ557KTLUQ&a=WUNS3&tp_a=WUNS3&b=3SNLUL3WO594R9IDLF4LCJ557KTLUQ&tp_b=3SNLUL3WO594R9IDLF4LCJ557KTLUQ&c=365633&tp_c=365633","heads":4,"tails":1,"studentIndex":7,"studentTrueHypers":{"a":4,"b":1},"studentGuess":0.8,"delta":0,"totalExamples":5,"bonus":0.4,"bonusSoFar":1.1},{"rt":7129,"response":{"heads":"4","tails":"1"},"type":"response","condition":"seqFeedback","trueTheta":0.8,"classrooms":["A","B"],"studentTrueClassroom":"B","exampleSet":"first","trial_type":"survey-html-form","trial_index":66,"time_elapsed":515116,"internal_node_id":"0.0-65.0-0.0","params":{"nStudents":24,"maxFlips":25,"completionMinutes":45,"basePay":8,"maxBonus":9,"perTrialBonus":0.5,"perTrialBonusThreshold":0.05,"exampleCost":0.02},"classroomParams":{"A":{"a":1,"b":4},"B":{"a":4,"b":1},"C":{"a":2,"b":8},"D":{"a":8,"b":2}},"conditions":["nonSeqFull","nonSeqPartial","seqNoFeedback","seqFeedback"],"classroomPairings":[["A","B"],["C","D"]],"coinWeights":[0.2,0.5,0.8],"subjectId":"A5P12YJP805RG","assignmentId":"3SNLUL3WO594R9IDLF4LCJ557KTLUQ","hitId":"3XUY87HIVP03YZXVLN9CW37DVI1MM2","url":"https://gershmanlab.com/experiments/alicia/teaching/experiment/?hitId=3XUY87HIVP03YZXVLN9CW37DVI1MM2&workerId=A5P12YJP805RG&assignmentId=3SNLUL3WO594R9IDLF4LCJ557KTLUQ&a=WUNS3&tp_a=WUNS3&b=3SNLUL3WO594R9IDLF4LCJ557KTLUQ&tp_b=3SNLUL3WO594R9IDLF4LCJ557KTLUQ&c=365633&tp_c=365633","heads":4,"tails":1,"studentIndex":8,"studentTrueHypers":{"a":4,"b":1},"studentGuess":0.8,"delta":0,"totalExamples":5,"bonusSoFar":1.1},{"rt":4103,"response":{"heads":"4","tails":"1"},"type":"response","condition":"seqFeedback","trueTheta":0.8,"classrooms":["A","B"],"studentTrueClassroom":"B","exampleSet":"second","trial_type":"survey-html-form","trial_index":70,"time_elapsed":530742,"internal_node_id":"0.0-69.0-0.0","params":{"nStudents":24,"maxFlips":25,"completionMinutes":45,"basePay":8,"maxBonus":9,"perTrialBonus":0.5,"perTrialBonusThreshold":0.05,"exampleCost":0.02},"classroomParams":{"A":{"a":1,"b":4},"B":{"a":4,"b":1},"C":{"a":2,"b":8},"D":{"a":8,"b":2}},"conditions":["nonSeqFull","nonSeqPartial","seqNoFeedback","seqFeedback"],"classroomPairings":[["A","B"],["C","D"]],"coinWeights":[0.2,0.5,0.8],"subjectId":"A5P12YJP805RG","assignmentId":"3SNLUL3WO594R9IDLF4LCJ557KTLUQ","hitId":"3XUY87HIVP03YZXVLN9CW37DVI1MM2","url":"https://gershmanlab.com/experiments/alicia/teaching/experiment/?hitId=3XUY87HIVP03YZXVLN9CW37DVI1MM2&workerId=A5P12YJP805RG&assignmentId=3SNLUL3WO594R9IDLF4LCJ557KTLUQ&a=WUNS3&tp_a=WUNS3&b=3SNLUL3WO594R9IDLF4LCJ557KTLUQ&tp_b=3SNLUL3WO594R9IDLF4LCJ557KTLUQ&c=365633&tp_c=365633","firstResponseHeads":4,"firstResponseTails":1,"secondResponseHeads":4,"secondResponseTails":1,"totalHeads":8,"totalTails":2,"studentIndex":8,"studentTrueHypers":{"a":4,"b":1},"studentGuess":0.8,"delta":0,"bonus":0.3,"bonusSoFar":1.4,"totalExamples":10},{"rt":12066,"response":{"heads":"0","tails":"0"},"type":"response","condition":"seqNoFeedback","trueTheta":0.2,"classrooms":["C","D"],"studentTrueClassroom":"D","exampleSet":"first","trial_type":"survey-html-form","trial_index":76,"time_elapsed":561228,"internal_node_id":"0.0-75.0-0.0","params":{"nStudents":24,"maxFlips":25,"completionMinutes":45,"basePay":8,"maxBonus":9,"perTrialBonus":0.5,"perTrialBonusThreshold":0.05,"exampleCost":0.02},"classroomParams":{"A":{"a":1,"b":4},"B":{"a":4,"b":1},"C":{"a":2,"b":8},"D":{"a":8,"b":2}},"conditions":["nonSeqFull","nonSeqPartial","seqNoFeedback","seqFeedback"],"classroomPairings":[["A","B"],["C","D"]],"coinWeights":[0.2,0.5,0.8],"subjectId":"A5P12YJP805RG","assignmentId":"3SNLUL3WO594R9IDLF4LCJ557KTLUQ","hitId":"3XUY87HIVP03YZXVLN9CW37DVI1MM2","url":"https://gershmanlab.com/experiments/alicia/teaching/experiment/?hitId=3XUY87HIVP03YZXVLN9CW37DVI1MM2&workerId=A5P12YJP805RG&assignmentId=3SNLUL3WO594R9IDLF4LCJ557KTLUQ&a=WUNS3&tp_a=WUNS3&b=3SNLUL3WO594R9IDLF4LCJ557KTLUQ&tp_b=3SNLUL3WO594R9IDLF4LCJ557KTLUQ&c=365633&tp_c=365633","heads":0,"tails":0,"studentIndex":9,"studentTrueHypers":{"a":8,"b":2},"studentGuess":0.8,"delta":0.6000000000000001,"totalExamples":0,"bonusSoFar":1.4},{"rt":16289,"response":{"heads":"1","tails":"4"},"type":"response","condition":"seqNoFeedback","trueTheta":0.2,"classrooms":["C","D"],"studentTrueClassroom":"D","exampleSet":"first","trial_type":"survey-html-form","trial_index":77,"time_elapsed":577518,"internal_node_id":"0.0-75.1-0.1","params":{"nStudents":24,"maxFlips":25,"completionMinutes":45,"basePay":8,"maxBonus":9,"perTrialBonus":0.5,"perTrialBonusThreshold":0.05,"exampleCost":0.02},"classroomParams":{"A":{"a":1,"b":4},"B":{"a":4,"b":1},"C":{"a":2,"b":8},"D":{"a":8,"b":2}},"conditions":["nonSeqFull","nonSeqPartial","seqNoFeedback","seqFeedback"],"classroomPairings":[["A","B"],["C","D"]],"coinWeights":[0.2,0.5,0.8],"subjectId":"A5P12YJP805RG","assignmentId":"3SNLUL3WO594R9IDLF4LCJ557KTLUQ","hitId":"3XUY87HIVP03YZXVLN9CW37DVI1MM2","url":"https://gershmanlab.com/experiments/alicia/teaching/experiment/?hitId=3XUY87HIVP03YZXVLN9CW37DVI1MM2&workerId=A5P12YJP805RG&assignmentId=3SNLUL3WO594R9IDLF4LCJ557KTLUQ&a=WUNS3&tp_a=WUNS3&b=3SNLUL3WO594R9IDLF4LCJ557KTLUQ&tp_b=3SNLUL3WO594R9IDLF4LCJ557KTLUQ&c=365633&tp_c=365633","heads":1,"tails":4,"studentIndex":9,"studentTrueHypers":{"a":8,"b":2},"studentGuess":0.6,"delta":0.39999999999999997,"totalExamples":5,"bonusSoFar":1.4},{"rt":8903,"response":{"heads":"1","tails":"4"},"type":"response","condition":"seqNoFeedback","trueTheta":0.2,"classrooms":["C","D"],"studentTrueClassroom":"D","exampleSet":"second","trial_type":"survey-html-form","trial_index":80,"time_elapsed":593937,"internal_node_id":"0.0-78.0-0.0","params":{"nStudents":24,"maxFlips":25,"completionMinutes":45,"basePay":8,"maxBonus":9,"perTrialBonus":0.5,"perTrialBonusThreshold":0.05,"exampleCost":0.02},"classroomParams":{"A":{"a":1,"b":4},"B":{"a":4,"b":1},"C":{"a":2,"b":8},"D":{"a":8,"b":2}},"conditions":["nonSeqFull","nonSeqPartial","seqNoFeedback","seqFeedback"],"classroomPairings":[["A","B"],["C","D"]],"coinWeights":[0.2,0.5,0.8],"subjectId":"A5P12YJP805RG","assignmentId":"3SNLUL3WO594R9IDLF4LCJ557KTLUQ","hitId":"3XUY87HIVP03YZXVLN9CW37DVI1MM2","url":"https://gershmanlab.com/experiments/alicia/teaching/experiment/?hitId=3XUY87HIVP03YZXVLN9CW37DVI1MM2&workerId=A5P12YJP805RG&assignmentId=3SNLUL3WO594R9IDLF4LCJ557KTLUQ&a=WUNS3&tp_a=WUNS3&b=3SNLUL3WO594R9IDLF4LCJ557KTLUQ&tp_b=3SNLUL3WO594R9IDLF4LCJ557KTLUQ&c=365633&tp_c=365633","firstResponseHeads":0,"firstResponseTails":0,"secondResponseHeads":1,"secondResponseTails":4,"totalHeads":1,"totalTails":4,"studentIndex":9,"studentTrueHypers":{"a":8,"b":2},"studentGuess":0.6,"delta":0.39999999999999997,"bonus":0,"bonusSoFar":1.4,"totalExamples":5},{"rt":18794,"response":{"heads":"2","tails":"8"},"type":"response","condition":"nonSeqFull","trueTheta":0.2,"classrooms":["A","B"],"studentTrueClassroom":"B","exampleSet":"first","trial_type":"survey-html-form","trial_index":86,"time_elapsed":629334,"internal_node_id":"0.0-84.0-0.0","params":{"nStudents":24,"maxFlips":25,"completionMinutes":45,"basePay":8,"maxBonus":9,"perTrialBonus":0.5,"perTrialBonusThreshold":0.05,"exampleCost":0.02},"classroomParams":{"A":{"a":1,"b":4},"B":{"a":4,"b":1},"C":{"a":2,"b":8},"D":{"a":8,"b":2}},"conditions":["nonSeqFull","nonSeqPartial","seqNoFeedback","seqFeedback"],"classroomPairings":[["A","B"],["C","D"]],"coinWeights":[0.2,0.5,0.8],"subjectId":"A5P12YJP805RG","assignmentId":"3SNLUL3WO594R9IDLF4LCJ557KTLUQ","hitId":"3XUY87HIVP03YZXVLN9CW37DVI1MM2","url":"https://gershmanlab.com/experiments/alicia/teaching/experiment/?hitId=3XUY87HIVP03YZXVLN9CW37DVI1MM2&workerId=A5P12YJP805RG&assignmentId=3SNLUL3WO594R9IDLF4LCJ557KTLUQ&a=WUNS3&tp_a=WUNS3&b=3SNLUL3WO594R9IDLF4LCJ557KTLUQ&tp_b=3SNLUL3WO594R9IDLF4LCJ557KTLUQ&c=365633&tp_c=365633","heads":2,"tails":8,"studentIndex":10,"studentTrueHypers":{"a":4,"b":1},"studentGuess":0.4,"delta":0.2,"totalExamples":10,"bonus":0,"bonusSoFar":1.4},{"rt":7818,"response":{"heads":"5","tails":"5"},"type":"response","condition":"seqNoFeedback","trueTheta":0.5,"classrooms":["C","D"],"studentTrueClassroom":"C","exampleSet":"first","trial_type":"survey-html-form","trial_index":92,"time_elapsed":650889,"internal_node_id":"0.0-90.0-0.0","params":{"nStudents":24,"maxFlips":25,"completionMinutes":45,"basePay":8,"maxBonus":9,"perTrialBonus":0.5,"perTrialBonusThreshold":0.05,"exampleCost":0.02},"classroomParams":{"A":{"a":1,"b":4},"B":{"a":4,"b":1},"C":{"a":2,"b":8},"D":{"a":8,"b":2}},"conditions":["nonSeqFull","nonSeqPartial","seqNoFeedback","seqFeedback"],"classroomPairings":[["A","B"],["C","D"]],"coinWeights":[0.2,0.5,0.8],"subjectId":"A5P12YJP805RG","assignmentId":"3SNLUL3WO594R9IDLF4LCJ557KTLUQ","hitId":"3XUY87HIVP03YZXVLN9CW37DVI1MM2","url":"https://gershmanlab.com/experiments/alicia/teaching/experiment/?hitId=3XUY87HIVP03YZXVLN9CW37DVI1MM2&workerId=A5P12YJP805RG&assignmentId=3SNLUL3WO594R9IDLF4LCJ557KTLUQ&a=WUNS3&tp_a=WUNS3&b=3SNLUL3WO594R9IDLF4LCJ557KTLUQ&tp_b=3SNLUL3WO594R9IDLF4LCJ557KTLUQ&c=365633&tp_c=365633","heads":5,"tails":5,"studentIndex":11,"studentTrueHypers":{"a":2,"b":8},"studentGuess":0.35,"delta":0.15000000000000002,"totalExamples":10,"bonusSoFar":1.4},{"rt":8399,"response":{"heads":"8","tails":"8"},"type":"response","condition":"seqNoFeedback","trueTheta":0.5,"classrooms":["C","D"],"studentTrueClassroom":"C","exampleSet":"second","trial_type":"survey-html-form","trial_index":95,"time_elapsed":665555,"internal_node_id":"0.0-93.0-0.0","params":{"nStudents":24,"maxFlips":25,"completionMinutes":45,"basePay":8,"maxBonus":9,"perTrialBonus":0.5,"perTrialBonusThreshold":0.05,"exampleCost":0.02},"classroomParams":{"A":{"a":1,"b":4},"B":{"a":4,"b":1},"C":{"a":2,"b":8},"D":{"a":8,"b":2}},"conditions":["nonSeqFull","nonSeqPartial","seqNoFeedback","seqFeedback"],"classroomPairings":[["A","B"],["C","D"]],"coinWeights":[0.2,0.5,0.8],"subjectId":"A5P12YJP805RG","assignmentId":"3SNLUL3WO594R9IDLF4LCJ557KTLUQ","hitId":"3XUY87HIVP03YZXVLN9CW37DVI1MM2","url":"https://gershmanlab.com/experiments/alicia/teaching/experiment/?hitId=3XUY87HIVP03YZXVLN9CW37DVI1MM2&workerId=A5P12YJP805RG&assignmentId=3SNLUL3WO594R9IDLF4LCJ557KTLUQ&a=WUNS3&tp_a=WUNS3&b=3SNLUL3WO594R9IDLF4LCJ557KTLUQ&tp_b=3SNLUL3WO594R9IDLF4LCJ557KTLUQ&c=365633&tp_c=365633","firstResponseHeads":5,"firstResponseTails":5,"secondResponseHeads":8,"secondResponseTails":8,"totalHeads":13,"totalTails":13,"studentIndex":11,"studentTrueHypers":{"a":2,"b":8},"studentGuess":0.4166666666666667,"delta":0.08333333333333331,"bonus":0,"bonusSoFar":1.4,"totalExamples":26},{"rt":4192,"response":{"heads":"10","tails":"10"},"type":"response","condition":"nonSeqPartial","trueTheta":0.5,"classrooms":["C","D"],"studentTrueClassroom":"D","exampleSet":"first","trial_type":"survey-html-form","trial_index":101,"time_elapsed":684213,"internal_node_id":"0.0-99.0-0.0","params":{"nStudents":24,"maxFlips":25,"completionMinutes":45,"basePay":8,"maxBonus":9,"perTrialBonus":0.5,"perTrialBonusThreshold":0.05,"exampleCost":0.02},"classroomParams":{"A":{"a":1,"b":4},"B":{"a":4,"b":1},"C":{"a":2,"b":8},"D":{"a":8,"b":2}},"conditions":["nonSeqFull","nonSeqPartial","seqNoFeedback","seqFeedback"],"classroomPairings":[["A","B"],["C","D"]],"coinWeights":[0.2,0.5,0.8],"subjectId":"A5P12YJP805RG","assignmentId":"3SNLUL3WO594R9IDLF4LCJ557KTLUQ","hitId":"3XUY87HIVP03YZXVLN9CW37DVI1MM2","url":"https://gershmanlab.com/experiments/alicia/teaching/experiment/?hitId=3XUY87HIVP03YZXVLN9CW37DVI1MM2&workerId=A5P12YJP805RG&assignmentId=3SNLUL3WO594R9IDLF4LCJ557KTLUQ&a=WUNS3&tp_a=WUNS3&b=3SNLUL3WO594R9IDLF4LCJ557KTLUQ&tp_b=3SNLUL3WO594R9IDLF4LCJ557KTLUQ&c=365633&tp_c=365633","heads":10,"tails":10,"studentIndex":12,"studentTrueHypers":{"a":8,"b":2},"studentGuess":0.6,"delta":0.09999999999999998,"totalExamples":20,"bonus":0,"bonusSoFar":1.4},{"rt":25099,"response":{"heads":"2","tails":"8"},"type":"response","condition":"nonSeqPartial","trueTheta":0.2,"classrooms":["C","D"],"studentTrueClassroom":"D","exampleSet":"first","trial_type":"survey-html-form","trial_index":107,"time_elapsed":726691,"internal_node_id":"0.0-105.0-0.0","params":{"nStudents":24,"maxFlips":25,"completionMinutes":45,"basePay":8,"maxBonus":9,"perTrialBonus":0.5,"perTrialBonusThreshold":0.05,"exampleCost":0.02},"classroomParams":{"A":{"a":1,"b":4},"B":{"a":4,"b":1},"C":{"a":2,"b":8},"D":{"a":8,"b":2}},"conditions":["nonSeqFull","nonSeqPartial","seqNoFeedback","seqFeedback"],"classroomPairings":[["A","B"],["C","D"]],"coinWeights":[0.2,0.5,0.8],"subjectId":"A5P12YJP805RG","assignmentId":"3SNLUL3WO594R9IDLF4LCJ557KTLUQ","hitId":"3XUY87HIVP03YZXVLN9CW37DVI1MM2","url":"https://gershmanlab.com/experiments/alicia/teaching/experiment/?hitId=3XUY87HIVP03YZXVLN9CW37DVI1MM2&workerId=A5P12YJP805RG&assignmentId=3SNLUL3WO594R9IDLF4LCJ557KTLUQ&a=WUNS3&tp_a=WUNS3&b=3SNLUL3WO594R9IDLF4LCJ557KTLUQ&tp_b=3SNLUL3WO594R9IDLF4LCJ557KTLUQ&c=365633&tp_c=365633","heads":2,"tails":8,"studentIndex":13,"studentTrueHypers":{"a":8,"b":2},"studentGuess":0.5,"delta":0.3,"totalExamples":10,"bonus":0,"bonusSoFar":1.4},{"rt":8713,"response":{"heads":"8","tails":"8"},"type":"response","condition":"nonSeqFull","trueTheta":0.5,"classrooms":["A","B"],"studentTrueClassroom":"A","exampleSet":"first","trial_type":"survey-html-form","trial_index":113,"time_elapsed":748423,"internal_node_id":"0.0-111.0-0.0","params":{"nStudents":24,"maxFlips":25,"completionMinutes":45,"basePay":8,"maxBonus":9,"perTrialBonus":0.5,"perTrialBonusThreshold":0.05,"exampleCost":0.02},"classroomParams":{"A":{"a":1,"b":4},"B":{"a":4,"b":1},"C":{"a":2,"b":8},"D":{"a":8,"b":2}},"conditions":["nonSeqFull","nonSeqPartial","seqNoFeedback","seqFeedback"],"classroomPairings":[["A","B"],["C","D"]],"coinWeights":[0.2,0.5,0.8],"subjectId":"A5P12YJP805RG","assignmentId":"3SNLUL3WO594R9IDLF4LCJ557KTLUQ","hitId":"3XUY87HIVP03YZXVLN9CW37DVI1MM2","url":"https://gershmanlab.com/experiments/alicia/teaching/experiment/?hitId=3XUY87HIVP03YZXVLN9CW37DVI1MM2&workerId=A5P12YJP805RG&assignmentId=3SNLUL3WO594R9IDLF4LCJ557KTLUQ&a=WUNS3&tp_a=WUNS3&b=3SNLUL3WO594R9IDLF4LCJ557KTLUQ&tp_b=3SNLUL3WO594R9IDLF4LCJ557KTLUQ&c=365633&tp_c=365633","heads":8,"tails":8,"studentIndex":14,"studentTrueHypers":{"a":1,"b":4},"studentGuess":0.42857142857142855,"delta":0.07142857142857145,"totalExamples":16,"bonus":0,"bonusSoFar":1.4},{"rt":16002,"response":{"heads":"4","tails":"1"},"type":"response","condition":"nonSeqFull","trueTheta":0.8,"classrooms":["A","B"],"studentTrueClassroom":"B","exampleSet":"first","trial_type":"survey-html-form","trial_index":119,"time_elapsed":779435,"internal_node_id":"0.0-117.0-0.0","params":{"nStudents":24,"maxFlips":25,"completionMinutes":45,"basePay":8,"maxBonus":9,"perTrialBonus":0.5,"perTrialBonusThreshold":0.05,"exampleCost":0.02},"classroomParams":{"A":{"a":1,"b":4},"B":{"a":4,"b":1},"C":{"a":2,"b":8},"D":{"a":8,"b":2}},"conditions":["nonSeqFull","nonSeqPartial","seqNoFeedback","seqFeedback"],"classroomPairings":[["A","B"],["C","D"]],"coinWeights":[0.2,0.5,0.8],"subjectId":"A5P12YJP805RG","assignmentId":"3SNLUL3WO594R9IDLF4LCJ557KTLUQ","hitId":"3XUY87HIVP03YZXVLN9CW37DVI1MM2","url":"https://gershmanlab.com/experiments/alicia/teaching/experiment/?hitId=3XUY87HIVP03YZXVLN9CW37DVI1MM2&workerId=A5P12YJP805RG&assignmentId=3SNLUL3WO594R9IDLF4LCJ557KTLUQ&a=WUNS3&tp_a=WUNS3&b=3SNLUL3WO594R9IDLF4LCJ557KTLUQ&tp_b=3SNLUL3WO594R9IDLF4LCJ557KTLUQ&c=365633&tp_c=365633","heads":4,"tails":1,"studentIndex":15,"studentTrueHypers":{"a":4,"b":1},"studentGuess":0.8,"delta":0,"totalExamples":5,"bonus":0.4,"bonusSoFar":1.8},{"rt":11281,"response":{"heads":"1","tails":"4"},"type":"response","condition":"seqFeedback","trueTheta":0.2,"classrooms":["A","B"],"studentTrueClassroom":"B","exampleSet":"first","trial_type":"survey-html-form","trial_index":125,"time_elapsed":808928,"internal_node_id":"0.0-123.0-0.0","params":{"nStudents":24,"maxFlips":25,"completionMinutes":45,"basePay":8,"maxBonus":9,"perTrialBonus":0.5,"perTrialBonusThreshold":0.05,"exampleCost":0.02},"classroomParams":{"A":{"a":1,"b":4},"B":{"a":4,"b":1},"C":{"a":2,"b":8},"D":{"a":8,"b":2}},"conditions":["nonSeqFull","nonSeqPartial","seqNoFeedback","seqFeedback"],"classroomPairings":[["A","B"],["C","D"]],"coinWeights":[0.2,0.5,0.8],"subjectId":"A5P12YJP805RG","assignmentId":"3SNLUL3WO594R9IDLF4LCJ557KTLUQ","hitId":"3XUY87HIVP03YZXVLN9CW37DVI1MM2","url":"https://gershmanlab.com/experiments/alicia/teaching/experiment/?hitId=3XUY87HIVP03YZXVLN9CW37DVI1MM2&workerId=A5P12YJP805RG&assignmentId=3SNLUL3WO594R9IDLF4LCJ557KTLUQ&a=WUNS3&tp_a=WUNS3&b=3SNLUL3WO594R9IDLF4LCJ557KTLUQ&tp_b=3SNLUL3WO594R9IDLF4LCJ557KTLUQ&c=365633&tp_c=365633","heads":1,"tails":4,"studentIndex":16,"studentTrueHypers":{"a":4,"b":1},"studentGuess":0.5,"delta":0.3,"totalExamples":5,"bonusSoFar":1.8},{"rt":20099,"response":{"heads":"3","tails":"12"},"type":"response","condition":"seqFeedback","trueTheta":0.2,"classrooms":["A","B"],"studentTrueClassroom":"B","exampleSet":"second","trial_type":"survey-html-form","trial_index":129,"time_elapsed":840364,"internal_node_id":"0.0-127.0-0.0","params":{"nStudents":24,"maxFlips":25,"completionMinutes":45,"basePay":8,"maxBonus":9,"perTrialBonus":0.5,"perTrialBonusThreshold":0.05,"exampleCost":0.02},"classroomParams":{"A":{"a":1,"b":4},"B":{"a":4,"b":1},"C":{"a":2,"b":8},"D":{"a":8,"b":2}},"conditions":["nonSeqFull","nonSeqPartial","seqNoFeedback","seqFeedback"],"classroomPairings":[["A","B"],["C","D"]],"coinWeights":[0.2,0.5,0.8],"subjectId":"A5P12YJP805RG","assignmentId":"3SNLUL3WO594R9IDLF4LCJ557KTLUQ","hitId":"3XUY87HIVP03YZXVLN9CW37DVI1MM2","url":"https://gershmanlab.com/experiments/alicia/teaching/experiment/?hitId=3XUY87HIVP03YZXVLN9CW37DVI1MM2&workerId=A5P12YJP805RG&assignmentId=3SNLUL3WO594R9IDLF4LCJ557KTLUQ&a=WUNS3&tp_a=WUNS3&b=3SNLUL3WO594R9IDLF4LCJ557KTLUQ&tp_b=3SNLUL3WO594R9IDLF4LCJ557KTLUQ&c=365633&tp_c=365633","firstResponseHeads":1,"firstResponseTails":4,"secondResponseHeads":3,"secondResponseTails":12,"totalHeads":4,"totalTails":16,"studentIndex":16,"studentTrueHypers":{"a":4,"b":1},"studentGuess":0.32,"delta":0.12,"bonus":0,"bonusSoFar":1.8,"totalExamples":20},{"rt":4601,"response":{"heads":"1","tails":"4"},"type":"response","condition":"seqNoFeedback","trueTheta":0.2,"classrooms":["A","B"],"studentTrueClassroom":"B","exampleSet":"first","trial_type":"survey-html-form","trial_index":135,"time_elapsed":860983,"internal_node_id":"0.0-133.0-0.0","params":{"nStudents":24,"maxFlips":25,"completionMinutes":45,"basePay":8,"maxBonus":9,"perTrialBonus":0.5,"perTrialBonusThreshold":0.05,"exampleCost":0.02},"classroomParams":{"A":{"a":1,"b":4},"B":{"a":4,"b":1},"C":{"a":2,"b":8},"D":{"a":8,"b":2}},"conditions":["nonSeqFull","nonSeqPartial","seqNoFeedback","seqFeedback"],"classroomPairings":[["A","B"],["C","D"]],"coinWeights":[0.2,0.5,0.8],"subjectId":"A5P12YJP805RG","assignmentId":"3SNLUL3WO594R9IDLF4LCJ557KTLUQ","hitId":"3XUY87HIVP03YZXVLN9CW37DVI1MM2","url":"https://gershmanlab.com/experiments/alicia/teaching/experiment/?hitId=3XUY87HIVP03YZXVLN9CW37DVI1MM2&workerId=A5P12YJP805RG&assignmentId=3SNLUL3WO594R9IDLF4LCJ557KTLUQ&a=WUNS3&tp_a=WUNS3&b=3SNLUL3WO594R9IDLF4LCJ557KTLUQ&tp_b=3SNLUL3WO594R9IDLF4LCJ557KTLUQ&c=365633&tp_c=365633","heads":1,"tails":4,"studentIndex":17,"studentTrueHypers":{"a":4,"b":1},"studentGuess":0.5,"delta":0.3,"totalExamples":5,"bonusSoFar":1.8},{"rt":8865,"response":{"heads":"1","tails":"4"},"type":"response","condition":"seqNoFeedback","trueTheta":0.2,"classrooms":["A","B"],"studentTrueClassroom":"B","exampleSet":"second","trial_type":"survey-html-form","trial_index":138,"time_elapsed":877370,"internal_node_id":"0.0-136.0-0.0","params":{"nStudents":24,"maxFlips":25,"completionMinutes":45,"basePay":8,"maxBonus":9,"perTrialBonus":0.5,"perTrialBonusThreshold":0.05,"exampleCost":0.02},"classroomParams":{"A":{"a":1,"b":4},"B":{"a":4,"b":1},"C":{"a":2,"b":8},"D":{"a":8,"b":2}},"conditions":["nonSeqFull","nonSeqPartial","seqNoFeedback","seqFeedback"],"classroomPairings":[["A","B"],["C","D"]],"coinWeights":[0.2,0.5,0.8],"subjectId":"A5P12YJP805RG","assignmentId":"3SNLUL3WO594R9IDLF4LCJ557KTLUQ","hitId":"3XUY87HIVP03YZXVLN9CW37DVI1MM2","url":"https://gershmanlab.com/experiments/alicia/teaching/experiment/?hitId=3XUY87HIVP03YZXVLN9CW37DVI1MM2&workerId=A5P12YJP805RG&assignmentId=3SNLUL3WO594R9IDLF4LCJ557KTLUQ&a=WUNS3&tp_a=WUNS3&b=3SNLUL3WO594R9IDLF4LCJ557KTLUQ&tp_b=3SNLUL3WO594R9IDLF4LCJ557KTLUQ&c=365633&tp_c=365633","firstResponseHeads":1,"firstResponseTails":4,"secondResponseHeads":1,"secondResponseTails":4,"totalHeads":2,"totalTails":8,"studentIndex":17,"studentTrueHypers":{"a":4,"b":1},"studentGuess":0.4,"delta":0.2,"bonus":0,"bonusSoFar":1.8,"totalExamples":10},{"rt":13049,"response":{"heads":"5","tails":"5"},"type":"response","condition":"seqFeedback","trueTheta":0.5,"classrooms":["A","B"],"studentTrueClassroom":"B","exampleSet":"first","trial_type":"survey-html-form","trial_index":144,"time_elapsed":905429,"internal_node_id":"0.0-142.0-0.0","params":{"nStudents":24,"maxFlips":25,"completionMinutes":45,"basePay":8,"maxBonus":9,"perTrialBonus":0.5,"perTrialBonusThreshold":0.05,"exampleCost":0.02},"classroomParams":{"A":{"a":1,"b":4},"B":{"a":4,"b":1},"C":{"a":2,"b":8},"D":{"a":8,"b":2}},"conditions":["nonSeqFull","nonSeqPartial","seqNoFeedback","seqFeedback"],"classroomPairings":[["A","B"],["C","D"]],"coinWeights":[0.2,0.5,0.8],"subjectId":"A5P12YJP805RG","assignmentId":"3SNLUL3WO594R9IDLF4LCJ557KTLUQ","hitId":"3XUY87HIVP03YZXVLN9CW37DVI1MM2","url":"https://gershmanlab.com/experiments/alicia/teaching/experiment/?hitId=3XUY87HIVP03YZXVLN9CW37DVI1MM2&workerId=A5P12YJP805RG&assignmentId=3SNLUL3WO594R9IDLF4LCJ557KTLUQ&a=WUNS3&tp_a=WUNS3&b=3SNLUL3WO594R9IDLF4LCJ557KTLUQ&tp_b=3SNLUL3WO594R9IDLF4LCJ557KTLUQ&c=365633&tp_c=365633","heads":5,"tails":5,"studentIndex":18,"studentTrueHypers":{"a":4,"b":1},"studentGuess":0.6,"delta":0.09999999999999998,"totalExamples":10,"bonusSoFar":1.8},{"rt":6240,"response":{"heads":"5","tails":"5"},"type":"response","condition":"seqFeedback","trueTheta":0.5,"classrooms":["A","B"],"studentTrueClassroom":"B","exampleSet":"second","trial_type":"survey-html-form","trial_index":148,"time_elapsed":921488,"internal_node_id":"0.0-146.0-0.0","params":{"nStudents":24,"maxFlips":25,"completionMinutes":45,"basePay":8,"maxBonus":9,"perTrialBonus":0.5,"perTrialBonusThreshold":0.05,"exampleCost":0.02},"classroomParams":{"A":{"a":1,"b":4},"B":{"a":4,"b":1},"C":{"a":2,"b":8},"D":{"a":8,"b":2}},"conditions":["nonSeqFull","nonSeqPartial","seqNoFeedback","seqFeedback"],"classroomPairings":[["A","B"],["C","D"]],"coinWeights":[0.2,0.5,0.8],"subjectId":"A5P12YJP805RG","assignmentId":"3SNLUL3WO594R9IDLF4LCJ557KTLUQ","hitId":"3XUY87HIVP03YZXVLN9CW37DVI1MM2","url":"https://gershmanlab.com/experiments/alicia/teaching/experiment/?hitId=3XUY87HIVP03YZXVLN9CW37DVI1MM2&workerId=A5P12YJP805RG&assignmentId=3SNLUL3WO594R9IDLF4LCJ557KTLUQ&a=WUNS3&tp_a=WUNS3&b=3SNLUL3WO594R9IDLF4LCJ557KTLUQ&tp_b=3SNLUL3WO594R9IDLF4LCJ557KTLUQ&c=365633&tp_c=365633","firstResponseHeads":5,"firstResponseTails":5,"secondResponseHeads":5,"secondResponseTails":5,"totalHeads":10,"totalTails":10,"studentIndex":18,"studentTrueHypers":{"a":4,"b":1},"studentGuess":0.56,"delta":0.06000000000000005,"bonus":0,"bonusSoFar":1.8,"totalExamples":20},{"rt":14665,"response":{"heads":"10","tails":"10"},"type":"response","condition":"seqFeedback","trueTheta":0.5,"classrooms":["C","D"],"studentTrueClassroom":"D","exampleSet":"first","trial_type":"survey-html-form","trial_index":154,"time_elapsed":960646,"internal_node_id":"0.0-152.0-0.0","params":{"nStudents":24,"maxFlips":25,"completionMinutes":45,"basePay":8,"maxBonus":9,"perTrialBonus":0.5,"perTrialBonusThreshold":0.05,"exampleCost":0.02},"classroomParams":{"A":{"a":1,"b":4},"B":{"a":4,"b":1},"C":{"a":2,"b":8},"D":{"a":8,"b":2}},"conditions":["nonSeqFull","nonSeqPartial","seqNoFeedback","seqFeedback"],"classroomPairings":[["A","B"],["C","D"]],"coinWeights":[0.2,0.5,0.8],"subjectId":"A5P12YJP805RG","assignmentId":"3SNLUL3WO594R9IDLF4LCJ557KTLUQ","hitId":"3XUY87HIVP03YZXVLN9CW37DVI1MM2","url":"https://gershmanlab.com/experiments/alicia/teaching/experiment/?hitId=3XUY87HIVP03YZXVLN9CW37DVI1MM2&workerId=A5P12YJP805RG&assignmentId=3SNLUL3WO594R9IDLF4LCJ557KTLUQ&a=WUNS3&tp_a=WUNS3&b=3SNLUL3WO594R9IDLF4LCJ557KTLUQ&tp_b=3SNLUL3WO594R9IDLF4LCJ557KTLUQ&c=365633&tp_c=365633","heads":10,"tails":10,"studentIndex":19,"studentTrueHypers":{"a":8,"b":2},"studentGuess":0.6,"delta":0.09999999999999998,"totalExamples":20,"bonusSoFar":1.8},{"rt":3648,"response":{"heads":"10","tails":"10"},"type":"response","condition":"seqFeedback","trueTheta":0.5,"classrooms":["C","D"],"studentTrueClassroom":"D","exampleSet":"second","trial_type":"survey-html-form","trial_index":158,"time_elapsed":972839,"internal_node_id":"0.0-156.0-0.0","params":{"nStudents":24,"maxFlips":25,"completionMinutes":45,"basePay":8,"maxBonus":9,"perTrialBonus":0.5,"perTrialBonusThreshold":0.05,"exampleCost":0.02},"classroomParams":{"A":{"a":1,"b":4},"B":{"a":4,"b":1},"C":{"a":2,"b":8},"D":{"a":8,"b":2}},"conditions":["nonSeqFull","nonSeqPartial","seqNoFeedback","seqFeedback"],"classroomPairings":[["A","B"],["C","D"]],"coinWeights":[0.2,0.5,0.8],"subjectId":"A5P12YJP805RG","assignmentId":"3SNLUL3WO594R9IDLF4LCJ557KTLUQ","hitId":"3XUY87HIVP03YZXVLN9CW37DVI1MM2","url":"https://gershmanlab.com/experiments/alicia/teaching/experiment/?hitId=3XUY87HIVP03YZXVLN9CW37DVI1MM2&workerId=A5P12YJP805RG&assignmentId=3SNLUL3WO594R9IDLF4LCJ557KTLUQ&a=WUNS3&tp_a=WUNS3&b=3SNLUL3WO594R9IDLF4LCJ557KTLUQ&tp_b=3SNLUL3WO594R9IDLF4LCJ557KTLUQ&c=365633&tp_c=365633","firstResponseHeads":10,"firstResponseTails":10,"secondResponseHeads":10,"secondResponseTails":10,"totalHeads":20,"totalTails":20,"studentIndex":19,"studentTrueHypers":{"a":8,"b":2},"studentGuess":0.56,"delta":0.06000000000000005,"bonus":0,"bonusSoFar":1.8,"totalExamples":40},{"rt":5400,"response":{"heads":"10","tails":"10"},"type":"response","condition":"seqNoFeedback","trueTheta":0.5,"classrooms":["A","B"],"studentTrueClassroom":"A","exampleSet":"first","trial_type":"survey-html-form","trial_index":164,"time_elapsed":995924,"internal_node_id":"0.0-162.0-0.0","params":{"nStudents":24,"maxFlips":25,"completionMinutes":45,"basePay":8,"maxBonus":9,"perTrialBonus":0.5,"perTrialBonusThreshold":0.05,"exampleCost":0.02},"classroomParams":{"A":{"a":1,"b":4},"B":{"a":4,"b":1},"C":{"a":2,"b":8},"D":{"a":8,"b":2}},"conditions":["nonSeqFull","nonSeqPartial","seqNoFeedback","seqFeedback"],"classroomPairings":[["A","B"],["C","D"]],"coinWeights":[0.2,0.5,0.8],"subjectId":"A5P12YJP805RG","assignmentId":"3SNLUL3WO594R9IDLF4LCJ557KTLUQ","hitId":"3XUY87HIVP03YZXVLN9CW37DVI1MM2","url":"https://gershmanlab.com/experiments/alicia/teaching/experiment/?hitId=3XUY87HIVP03YZXVLN9CW37DVI1MM2&workerId=A5P12YJP805RG&assignmentId=3SNLUL3WO594R9IDLF4LCJ557KTLUQ&a=WUNS3&tp_a=WUNS3&b=3SNLUL3WO594R9IDLF4LCJ557KTLUQ&tp_b=3SNLUL3WO594R9IDLF4LCJ557KTLUQ&c=365633&tp_c=365633","heads":10,"tails":10,"studentIndex":20,"studentTrueHypers":{"a":1,"b":4},"studentGuess":0.44,"delta":0.06,"totalExamples":20,"bonusSoFar":1.8},{"rt":6808,"response":{"heads":"10","tails":"10"},"type":"response","condition":"seqNoFeedback","trueTheta":0.5,"classrooms":["A","B"],"studentTrueClassroom":"A","exampleSet":"second","trial_type":"survey-html-form","trial_index":167,"time_elapsed":1009494,"internal_node_id":"0.0-165.0-0.0","params":{"nStudents":24,"maxFlips":25,"completionMinutes":45,"basePay":8,"maxBonus":9,"perTrialBonus":0.5,"perTrialBonusThreshold":0.05,"exampleCost":0.02},"classroomParams":{"A":{"a":1,"b":4},"B":{"a":4,"b":1},"C":{"a":2,"b":8},"D":{"a":8,"b":2}},"conditions":["nonSeqFull","nonSeqPartial","seqNoFeedback","seqFeedback"],"classroomPairings":[["A","B"],["C","D"]],"coinWeights":[0.2,0.5,0.8],"subjectId":"A5P12YJP805RG","assignmentId":"3SNLUL3WO594R9IDLF4LCJ557KTLUQ","hitId":"3XUY87HIVP03YZXVLN9CW37DVI1MM2","url":"https://gershmanlab.com/experiments/alicia/teaching/experiment/?hitId=3XUY87HIVP03YZXVLN9CW37DVI1MM2&workerId=A5P12YJP805RG&assignmentId=3SNLUL3WO594R9IDLF4LCJ557KTLUQ&a=WUNS3&tp_a=WUNS3&b=3SNLUL3WO594R9IDLF4LCJ557KTLUQ&tp_b=3SNLUL3WO594R9IDLF4LCJ557KTLUQ&c=365633&tp_c=365633","firstResponseHeads":10,"firstResponseTails":10,"secondResponseHeads":10,"secondResponseTails":10,"totalHeads":20,"totalTails":20,"studentIndex":20,"studentTrueHypers":{"a":1,"b":4},"studentGuess":0.4666666666666667,"delta":0.033333333333333326,"bonus":0,"bonusSoFar":1.8,"totalExamples":40},{"rt":10665,"response":{"heads":"4","tails":"1"},"type":"response","condition":"seqNoFeedback","trueTheta":0.8,"classrooms":["A","B"],"studentTrueClassroom":"A","exampleSet":"first","trial_type":"survey-html-form","trial_index":173,"time_elapsed":1039946,"internal_node_id":"0.0-171.0-0.0","params":{"nStudents":24,"maxFlips":25,"completionMinutes":45,"basePay":8,"maxBonus":9,"perTrialBonus":0.5,"perTrialBonusThreshold":0.05,"exampleCost":0.02},"classroomParams":{"A":{"a":1,"b":4},"B":{"a":4,"b":1},"C":{"a":2,"b":8},"D":{"a":8,"b":2}},"conditions":["nonSeqFull","nonSeqPartial","seqNoFeedback","seqFeedback"],"classroomPairings":[["A","B"],["C","D"]],"coinWeights":[0.2,0.5,0.8],"subjectId":"A5P12YJP805RG","assignmentId":"3SNLUL3WO594R9IDLF4LCJ557KTLUQ","hitId":"3XUY87HIVP03YZXVLN9CW37DVI1MM2","url":"https://gershmanlab.com/experiments/alicia/teaching/experiment/?hitId=3XUY87HIVP03YZXVLN9CW37DVI1MM2&workerId=A5P12YJP805RG&assignmentId=3SNLUL3WO594R9IDLF4LCJ557KTLUQ&a=WUNS3&tp_a=WUNS3&b=3SNLUL3WO594R9IDLF4LCJ557KTLUQ&tp_b=3SNLUL3WO594R9IDLF4LCJ557KTLUQ&c=365633&tp_c=365633","heads":4,"tails":1,"studentIndex":21,"studentTrueHypers":{"a":1,"b":4},"studentGuess":0.5,"delta":0.30000000000000004,"totalExamples":5,"bonusSoFar":1.8},{"rt":3663,"response":{"heads":"4","tails":"1"},"type":"response","condition":"seqNoFeedback","trueTheta":0.8,"classrooms":["A","B"],"studentTrueClassroom":"A","exampleSet":"second","trial_type":"survey-html-form","trial_index":176,"time_elapsed":1049875,"internal_node_id":"0.0-174.0-0.0","params":{"nStudents":24,"maxFlips":25,"completionMinutes":45,"basePay":8,"maxBonus":9,"perTrialBonus":0.5,"perTrialBonusThreshold":0.05,"exampleCost":0.02},"classroomParams":{"A":{"a":1,"b":4},"B":{"a":4,"b":1},"C":{"a":2,"b":8},"D":{"a":8,"b":2}},"conditions":["nonSeqFull","nonSeqPartial","seqNoFeedback","seqFeedback"],"classroomPairings":[["A","B"],["C","D"]],"coinWeights":[0.2,0.5,0.8],"subjectId":"A5P12YJP805RG","assignmentId":"3SNLUL3WO594R9IDLF4LCJ557KTLUQ","hitId":"3XUY87HIVP03YZXVLN9CW37DVI1MM2","url":"https://gershmanlab.com/experiments/alicia/teaching/experiment/?hitId=3XUY87HIVP03YZXVLN9CW37DVI1MM2&workerId=A5P12YJP805RG&assignmentId=3SNLUL3WO594R9IDLF4LCJ557KTLUQ&a=WUNS3&tp_a=WUNS3&b=3SNLUL3WO594R9IDLF4LCJ557KTLUQ&tp_b=3SNLUL3WO594R9IDLF4LCJ557KTLUQ&c=365633&tp_c=365633","firstResponseHeads":4,"firstResponseTails":1,"secondResponseHeads":4,"secondResponseTails":1,"totalHeads":8,"totalTails":2,"studentIndex":21,"studentTrueHypers":{"a":1,"b":4},"studentGuess":0.6,"delta":0.20000000000000007,"bonus":0,"bonusSoFar":1.8,"totalExamples":10},{"rt":22138,"response":{"heads":"25","tails":"0"},"type":"response","condition":"nonSeqFull","trueTheta":0.8,"classrooms":["C","D"],"studentTrueClassroom":"C","exampleSet":"first","trial_type":"survey-html-form","trial_index":182,"time_elapsed":1085368,"internal_node_id":"0.0-180.0-0.0","params":{"nStudents":24,"maxFlips":25,"completionMinutes":45,"basePay":8,"maxBonus":9,"perTrialBonus":0.5,"perTrialBonusThreshold":0.05,"exampleCost":0.02},"classroomParams":{"A":{"a":1,"b":4},"B":{"a":4,"b":1},"C":{"a":2,"b":8},"D":{"a":8,"b":2}},"conditions":["nonSeqFull","nonSeqPartial","seqNoFeedback","seqFeedback"],"classroomPairings":[["A","B"],["C","D"]],"coinWeights":[0.2,0.5,0.8],"subjectId":"A5P12YJP805RG","assignmentId":"3SNLUL3WO594R9IDLF4LCJ557KTLUQ","hitId":"3XUY87HIVP03YZXVLN9CW37DVI1MM2","url":"https://gershmanlab.com/experiments/alicia/teaching/experiment/?hitId=3XUY87HIVP03YZXVLN9CW37DVI1MM2&workerId=A5P12YJP805RG&assignmentId=3SNLUL3WO594R9IDLF4LCJ557KTLUQ&a=WUNS3&tp_a=WUNS3&b=3SNLUL3WO594R9IDLF4LCJ557KTLUQ&tp_b=3SNLUL3WO594R9IDLF4LCJ557KTLUQ&c=365633&tp_c=365633","heads":25,"tails":0,"studentIndex":22,"studentTrueHypers":{"a":2,"b":8},"studentGuess":0.7714285714285715,"delta":0.02857142857142858,"totalExamples":25,"bonus":0,"bonusSoFar":1.8},{"rt":10681,"response":{"heads":"0","tails":"20"},"type":"response","condition":"nonSeqFull","trueTheta":0.2,"classrooms":["C","D"],"studentTrueClassroom":"D","exampleSet":"first","trial_type":"survey-html-form","trial_index":188,"time_elapsed":1110948,"internal_node_id":"0.0-186.0-0.0","params":{"nStudents":24,"maxFlips":25,"completionMinutes":45,"basePay":8,"maxBonus":9,"perTrialBonus":0.5,"perTrialBonusThreshold":0.05,"exampleCost":0.02},"classroomParams":{"A":{"a":1,"b":4},"B":{"a":4,"b":1},"C":{"a":2,"b":8},"D":{"a":8,"b":2}},"conditions":["nonSeqFull","nonSeqPartial","seqNoFeedback","seqFeedback"],"classroomPairings":[["A","B"],["C","D"]],"coinWeights":[0.2,0.5,0.8],"subjectId":"A5P12YJP805RG","assignmentId":"3SNLUL3WO594R9IDLF4LCJ557KTLUQ","hitId":"3XUY87HIVP03YZXVLN9CW37DVI1MM2","url":"https://gershmanlab.com/experiments/alicia/teaching/experiment/?hitId=3XUY87HIVP03YZXVLN9CW37DVI1MM2&workerId=A5P12YJP805RG&assignmentId=3SNLUL3WO594R9IDLF4LCJ557KTLUQ&a=WUNS3&tp_a=WUNS3&b=3SNLUL3WO594R9IDLF4LCJ557KTLUQ&tp_b=3SNLUL3WO594R9IDLF4LCJ557KTLUQ&c=365633&tp_c=365633","heads":0,"tails":20,"studentIndex":23,"studentTrueHypers":{"a":8,"b":2},"studentGuess":0.26666666666666666,"delta":0.06666666666666665,"totalExamples":20,"bonus":0,"bonusSoFar":1.8},{"rt":5311,"response":{"gender":"male","age":"26","understood":"yes","comments":""},"type":"response","trial_type":"survey-html-form","trial_index":192,"time_elapsed":1126591,"internal_node_id":"0.0-191.0","params":{"nStudents":24,"maxFlips":25,"completionMinutes":45,"basePay":8,"maxBonus":9,"perTrialBonus":0.5,"perTrialBonusThreshold":0.05,"exampleCost":0.02},"classroomParams":{"A":{"a":1,"b":4},"B":{"a":4,"b":1},"C":{"a":2,"b":8},"D":{"a":8,"b":2}},"conditions":["nonSeqFull","nonSeqPartial","seqNoFeedback","seqFeedback"],"classroomPairings":[["A","B"],["C","D"]],"coinWeights":[0.2,0.5,0.8],"subjectId":"A5P12YJP805RG","assignmentId":"3SNLUL3WO594R9IDLF4LCJ557KTLUQ","hitId":"3XUY87HIVP03YZXVLN9CW37DVI1MM2","url":"https://gershmanlab.com/experiments/alicia/teaching/experiment/?hitId=3XUY87HIVP03YZXVLN9CW37DVI1MM2&workerId=A5P12YJP805RG&assignmentId=3SNLUL3WO594R9IDLF4LCJ557KTLUQ&a=WUNS3&tp_a=WUNS3&b=3SNLUL3WO594R9IDLF4LCJ557KTLUQ&tp_b=3SNLUL3WO594R9IDLF4LCJ557KTLUQ&c=365633&tp_c=365633","totalBonus":1.8}]