[{"rt":26670,"response":{"heads":"0","tails":"0"},"type":"response","condition":"seqNoFeedback","trueTheta":0.5,"classrooms":["A","B"],"studentTrueClassroom":"B","exampleSet":"first","trial_type":"survey-html-form","trial_index":10,"time_elapsed":547931,"internal_node_id":"0.0-6.0-0.0","params":{"nStudents":24,"maxFlips":25,"completionMinutes":45,"basePay":8,"maxBonus":9,"perTrialBonus":0.5,"perTrialBonusThreshold":0.05,"exampleCost":0.02},"classroomParams":{"A":{"a":1,"b":4},"B":{"a":4,"b":1},"C":{"a":2,"b":8},"D":{"a":8,"b":2}},"conditions":["nonSeqFull","nonSeqPartial","seqNoFeedback","seqFeedback"],"classroomPairings":[["A","B"],["C","D"]],"coinWeights":[0.2,0.5,0.8],"subjectId":"A6Y7SZU9L301W","assignmentId":"3NC5L260MP8NECOK3IPEI08WS2JOFB","hitId":"3XUY87HIVP03YZXVLN9CW37DVI1MM2","url":"https://gershmanlab.com/experiments/alicia/teaching/experiment/?hitId=3XUY87HIVP03YZXVLN9CW37DVI1MM2&workerId=A6Y7SZU9L301W&assignmentId=3NC5L260MP8NECOK3IPEI08WS2JOFB&a=0LCN3&tp_a=0LCN3&b=3NC5L260MP8NECOK3IPEI08WS2JOFB&tp_b=3NC5L260MP8NECOK3IPEI08WS2JOFB&c=365633&tp_c=365633","heads":0,"tails":0,"studentIndex":0,"studentTrueHypers":{"a":4,"b":1},"studentGuess":0.8,"delta":0.30000000000000004,"totalExamples":0,"bonusSoFar":0},{"rt":4654,"response":{"heads":"0","tails":"0"},"type":"response","condition":"seqNoFeedback","trueTheta":0.5,"classrooms":["A","B"],"studentTrueClassroom":"B","exampleSet":"first","trial_type":"survey-html-form","trial_index":11,"time_elapsed":552587,"internal_node_id":"0.0-6.1-0.1","params":{"nStudents":24,"maxFlips":25,"completionMinutes":45,"basePay":8,"maxBonus":9,"perTrialBonus":0.5,"perTrialBonusThreshold":0.05,"exampleCost":0.02},"classroomParams":{"A":{"a":1,"b":4},"B":{"a":4,"b":1},"C":{"a":2,"b":8},"D":{"a":8,"b":2}},"conditions":["nonSeqFull","nonSeqPartial","seqNoFeedback","seqFeedback"],"classroomPairings":[["A","B"],["C","D"]],"coinWeights":[0.2,0.5,0.8],"subjectId":"A6Y7SZU9L301W","assignmentId":"3NC5L260MP8NECOK3IPEI08WS2JOFB","hitId":"3XUY87HIVP03YZXVLN9CW37DVI1MM2","url":"https://gershmanlab.com/experiments/alicia/teaching/experiment/?hitId=3XUY87HIVP03YZXVLN9CW37DVI1MM2&workerId=A6Y7SZU9L301W&assignmentId=3NC5L260MP8NECOK3IPEI08WS2JOFB&a=0LCN3&tp_a=0LCN3&b=3NC5L260MP8NECOK3IPEI08WS2JOFB&tp_b=3NC5L260MP8NECOK3IPEI08WS2JOFB&c=365633&tp_c=365633","heads":0,"tails":0,"studentIndex":0,"studentTrueHypers":{"a":4,"b":1},"studentGuess":0.8,"delta":0.30000000000000004,"totalExamples":0,"bonusSoFar":0},{"rt":3915,"response":{"heads":"0","tails":"0"},"type":"response","condition":"seqNoFeedback","trueTheta":0.5,"classrooms":["A","B"],"studentTrueClassroom":"B","exampleSet":"first","trial_type":"survey-html-form","trial_index":12,"time_elapsed":556503,"internal_node_id":"0.0-6.2-0.2","params":{"nStudents":24,"maxFlips":25,"completionMinutes":45,"basePay":8,"maxBonus":9,"perTrialBonus":0.5,"perTrialBonusThreshold":0.05,"exampleCost":0.02},"classroomParams":{"A":{"a":1,"b":4},"B":{"a":4,"b":1},"C":{"a":2,"b":8},"D":{"a":8,"b":2}},"conditions":["nonSeqFull","nonSeqPartial","seqNoFeedback","seqFeedback"],"classroomPairings":[["A","B"],["C","D"]],"coinWeights":[0.2,0.5,0.8],"subjectId":"A6Y7SZU9L301W","assignmentId":"3NC5L260MP8NECOK3IPEI08WS2JOFB","hitId":"3XUY87HIVP03YZXVLN9CW37DVI1MM2","url":"https://gershmanlab.com/experiments/alicia/teaching/experiment/?hitId=3XUY87HIVP03YZXVLN9CW37DVI1MM2&workerId=A6Y7SZU9L301W&assignmentId=3NC5L260MP8NECOK3IPEI08WS2JOFB&a=0LCN3&tp_a=0LCN3&b=3NC5L260MP8NECOK3IPEI08WS2JOFB&tp_b=3NC5L260MP8NECOK3IPEI08WS2JOFB&c=365633&tp_c=365633","heads":0,"tails":0,"studentIndex":0,"studentTrueHypers":{"a":4,"b":1},"studentGuess":0.8,"delta":0.30000000000000004,"totalExamples":0,"bonusSoFar":0},{"rt":10146,"response":{"heads":"1","tails":"0"},"type":"response","condition":"seqNoFeedback","trueTheta":0.5,"classrooms":["A","B"],"studentTrueClassroom":"B","exampleSet":"first","trial_type":"survey-html-form","trial_index":13,"time_elapsed":566650,"internal_node_id":"0.0-6.3-0.3","params":{"nStudents":24,"maxFlips":25,"completionMinutes":45,"basePay":8,"maxBonus":9,"perTrialBonus":0.5,"perTrialBonusThreshold":0.05,"exampleCost":0.02},"classroomParams":{"A":{"a":1,"b":4},"B":{"a":4,"b":1},"C":{"a":2,"b":8},"D":{"a":8,"b":2}},"conditions":["nonSeqFull","nonSeqPartial","seqNoFeedback","seqFeedback"],"classroomPairings":[["A","B"],["C","D"]],"coinWeights":[0.2,0.5,0.8],"subjectId":"A6Y7SZU9L301W","assignmentId":"3NC5L260MP8NECOK3IPEI08WS2JOFB","hitId":"3XUY87HIVP03YZXVLN9CW37DVI1MM2","url":"https://gershmanlab.com/experiments/alicia/teaching/experiment/?hitId=3XUY87HIVP03YZXVLN9CW37DVI1MM2&workerId=A6Y7SZU9L301W&assignmentId=3NC5L260MP8NECOK3IPEI08WS2JOFB&a=0LCN3&tp_a=0LCN3&b=3NC5L260MP8NECOK3IPEI08WS2JOFB&tp_b=3NC5L260MP8NECOK3IPEI08WS2JOFB&c=365633&tp_c=365633","heads":1,"tails":0,"studentIndex":0,"studentTrueHypers":{"a":4,"b":1},"studentGuess":0.8333333333333334,"delta":0.33333333333333337,"totalExamples":1,"bonusSoFar":0},{"rt":6414,"response":{"heads":"1","tails":"0"},"type":"response","condition":"seqNoFeedback","trueTheta":0.5,"classrooms":["A","B"],"studentTrueClassroom":"B","exampleSet":"second","trial_type":"survey-html-form","trial_index":16,"time_elapsed":580069,"internal_node_id":"0.0-9.0-0.0","params":{"nStudents":24,"maxFlips":25,"completionMinutes":45,"basePay":8,"maxBonus":9,"perTrialBonus":0.5,"perTrialBonusThreshold":0.05,"exampleCost":0.02},"classroomParams":{"A":{"a":1,"b":4},"B":{"a":4,"b":1},"C":{"a":2,"b":8},"D":{"a":8,"b":2}},"conditions":["nonSeqFull","nonSeqPartial","seqNoFeedback","seqFeedback"],"classroomPairings":[["A","B"],["C","D"]],"coinWeights":[0.2,0.5,0.8],"subjectId":"A6Y7SZU9L301W","assignmentId":"3NC5L260MP8NECOK3IPEI08WS2JOFB","hitId":"3XUY87HIVP03YZXVLN9CW37DVI1MM2","url":"https://gershmanlab.com/experiments/alicia/teaching/experiment/?hitId=3XUY87HIVP03YZXVLN9CW37DVI1MM2&workerId=A6Y7SZU9L301W&assignmentId=3NC5L260MP8NECOK3IPEI08WS2JOFB&a=0LCN3&tp_a=0LCN3&b=3NC5L260MP8NECOK3IPEI08WS2JOFB&tp_b=3NC5L260MP8NECOK3IPEI08WS2JOFB&c=365633&tp_c=365633","firstResponseHeads":0,"firstResponseTails":0,"secondResponseHeads":1,"secondResponseTails":0,"totalHeads":1,"totalTails":0,"studentIndex":0,"studentTrueHypers":{"a":4,"b":1},"studentGuess":0.8333333333333334,"delta":0.33333333333333337,"bonus":0,"bonusSoFar":0,"totalExamples":1},{"rt":7416,"response":{"heads":"1","tails":"1"},"type":"response","condition":"nonSeqPartial","trueTheta":0.5,"classrooms":["A","B"],"studentTrueClassroom":"B","exampleSet":"first","trial_type":"survey-html-form","trial_index":22,"time_elapsed":607523,"internal_node_id":"0.0-15.0-0.0","params":{"nStudents":24,"maxFlips":25,"completionMinutes":45,"basePay":8,"maxBonus":9,"perTrialBonus":0.5,"perTrialBonusThreshold":0.05,"exampleCost":0.02},"classroomParams":{"A":{"a":1,"b":4},"B":{"a":4,"b":1},"C":{"a":2,"b":8},"D":{"a":8,"b":2}},"conditions":["nonSeqFull","nonSeqPartial","seqNoFeedback","seqFeedback"],"classroomPairings":[["A","B"],["C","D"]],"coinWeights":[0.2,0.5,0.8],"subjectId":"A6Y7SZU9L301W","assignmentId":"3NC5L260MP8NECOK3IPEI08WS2JOFB","hitId":"3XUY87HIVP03YZXVLN9CW37DVI1MM2","url":"https://gershmanlab.com/experiments/alicia/teaching/experiment/?hitId=3XUY87HIVP03YZXVLN9CW37DVI1MM2&workerId=A6Y7SZU9L301W&assignmentId=3NC5L260MP8NECOK3IPEI08WS2JOFB&a=0LCN3&tp_a=0LCN3&b=3NC5L260MP8NECOK3IPEI08WS2JOFB&tp_b=3NC5L260MP8NECOK3IPEI08WS2JOFB&c=365633&tp_c=365633","heads":1,"tails":1,"studentIndex":1,"studentTrueHypers":{"a":4,"b":1},"studentGuess":0.7142857142857143,"delta":0.2142857142857143,"totalExamples":2,"bonus":0,"bonusSoFar":0},{"rt":11042,"response":{"heads":"0","tails":"5"},"type":"response","condition":"seqNoFeedback","trueTheta":0.2,"classrooms":["A","B"],"studentTrueClassroom":"A","exampleSet":"first","trial_type":"survey-html-form","trial_index":28,"time_elapsed":635585,"internal_node_id":"0.0-21.0-0.0","params":{"nStudents":24,"maxFlips":25,"completionMinutes":45,"basePay":8,"maxBonus":9,"perTrialBonus":0.5,"perTrialBonusThreshold":0.05,"exampleCost":0.02},"classroomParams":{"A":{"a":1,"b":4},"B":{"a":4,"b":1},"C":{"a":2,"b":8},"D":{"a":8,"b":2}},"conditions":["nonSeqFull","nonSeqPartial","seqNoFeedback","seqFeedback"],"classroomPairings":[["A","B"],["C","D"]],"coinWeights":[0.2,0.5,0.8],"subjectId":"A6Y7SZU9L301W","assignmentId":"3NC5L260MP8NECOK3IPEI08WS2JOFB","hitId":"3XUY87HIVP03YZXVLN9CW37DVI1MM2","url":"https://gershmanlab.com/experiments/alicia/teaching/experiment/?hitId=3XUY87HIVP03YZXVLN9CW37DVI1MM2&workerId=A6Y7SZU9L301W&assignmentId=3NC5L260MP8NECOK3IPEI08WS2JOFB&a=0LCN3&tp_a=0LCN3&b=3NC5L260MP8NECOK3IPEI08WS2JOFB&tp_b=3NC5L260MP8NECOK3IPEI08WS2JOFB&c=365633&tp_c=365633","heads":0,"tails":5,"studentIndex":2,"studentTrueHypers":{"a":1,"b":4},"studentGuess":0.1,"delta":0.1,"totalExamples":5,"bonusSoFar":0},{"rt":3737,"response":{"heads":"0","tails":"5"},"type":"response","condition":"seqNoFeedback","trueTheta":0.2,"classrooms":["A","B"],"studentTrueClassroom":"A","exampleSet":"second","trial_type":"survey-html-form","trial_index":31,"time_elapsed":646076,"internal_node_id":"0.0-24.0-0.0","params":{"nStudents":24,"maxFlips":25,"completionMinutes":45,"basePay":8,"maxBonus":9,"perTrialBonus":0.5,"perTrialBonusThreshold":0.05,"exampleCost":0.02},"classroomParams":{"A":{"a":1,"b":4},"B":{"a":4,"b":1},"C":{"a":2,"b":8},"D":{"a":8,"b":2}},"conditions":["nonSeqFull","nonSeqPartial","seqNoFeedback","seqFeedback"],"classroomPairings":[["A","B"],["C","D"]],"coinWeights":[0.2,0.5,0.8],"subjectId":"A6Y7SZU9L301W","assignmentId":"3NC5L260MP8NECOK3IPEI08WS2JOFB","hitId":"3XUY87HIVP03YZXVLN9CW37DVI1MM2","url":"https://gershmanlab.com/experiments/alicia/teaching/experiment/?hitId=3XUY87HIVP03YZXVLN9CW37DVI1MM2&workerId=A6Y7SZU9L301W&assignmentId=3NC5L260MP8NECOK3IPEI08WS2JOFB&a=0LCN3&tp_a=0LCN3&b=3NC5L260MP8NECOK3IPEI08WS2JOFB&tp_b=3NC5L260MP8NECOK3IPEI08WS2JOFB&c=365633&tp_c=365633","firstResponseHeads":0,"firstResponseTails":5,"secondResponseHeads":0,"secondResponseTails":5,"totalHeads":0,"totalTails":10,"studentIndex":2,"studentTrueHypers":{"a":1,"b":4},"studentGuess":0.06666666666666667,"delta":0.13333333333333336,"bonus":0,"bonusSoFar":0,"totalExamples":10},{"rt":8244,"response":{"heads":"0","tails":"5"},"type":"response","condition":"nonSeqPartial","trueTheta":0.2,"classrooms":["A","B"],"studentTrueClassroom":"A","exampleSet":"first","trial_type":"survey-html-form","trial_index":37,"time_elapsed":679777,"internal_node_id":"0.0-30.0-0.0","params":{"nStudents":24,"maxFlips":25,"completionMinutes":45,"basePay":8,"maxBonus":9,"perTrialBonus":0.5,"perTrialBonusThreshold":0.05,"exampleCost":0.02},"classroomParams":{"A":{"a":1,"b":4},"B":{"a":4,"b":1},"C":{"a":2,"b":8},"D":{"a":8,"b":2}},"conditions":["nonSeqFull","nonSeqPartial","seqNoFeedback","seqFeedback"],"classroomPairings":[["A","B"],["C","D"]],"coinWeights":[0.2,0.5,0.8],"subjectId":"A6Y7SZU9L301W","assignmentId":"3NC5L260MP8NECOK3IPEI08WS2JOFB","hitId":"3XUY87HIVP03YZXVLN9CW37DVI1MM2","url":"https://gershmanlab.com/experiments/alicia/teaching/experiment/?hitId=3XUY87HIVP03YZXVLN9CW37DVI1MM2&workerId=A6Y7SZU9L301W&assignmentId=3NC5L260MP8NECOK3IPEI08WS2JOFB&a=0LCN3&tp_a=0LCN3&b=3NC5L260MP8NECOK3IPEI08WS2JOFB&tp_b=3NC5L260MP8NECOK3IPEI08WS2JOFB&c=365633&tp_c=365633","heads":0,"tails":5,"studentIndex":3,"studentTrueHypers":{"a":1,"b":4},"studentGuess":0.1,"delta":0.1,"totalExamples":5,"bonus":0,"bonusSoFar":0},{"rt":7839,"response":{"heads":"5","tails":"5"},"type":"response","condition":"seqFeedback","trueTheta":0.5,"classrooms":["A","B"],"studentTrueClassroom":"A","exampleSet":"first","trial_type":"survey-html-form","trial_index":43,"time_elapsed":706471,"internal_node_id":"0.0-36.0-0.0","params":{"nStudents":24,"maxFlips":25,"completionMinutes":45,"basePay":8,"maxBonus":9,"perTrialBonus":0.5,"perTrialBonusThreshold":0.05,"exampleCost":0.02},"classroomParams":{"A":{"a":1,"b":4},"B":{"a":4,"b":1},"C":{"a":2,"b":8},"D":{"a":8,"b":2}},"conditions":["nonSeqFull","nonSeqPartial","seqNoFeedback","seqFeedback"],"classroomPairings":[["A","B"],["C","D"]],"coinWeights":[0.2,0.5,0.8],"subjectId":"A6Y7SZU9L301W","assignmentId":"3NC5L260MP8NECOK3IPEI08WS2JOFB","hitId":"3XUY87HIVP03YZXVLN9CW37DVI1MM2","url":"https://gershmanlab.com/experiments/alicia/teaching/experiment/?hitId=3XUY87HIVP03YZXVLN9CW37DVI1MM2&workerId=A6Y7SZU9L301W&assignmentId=3NC5L260MP8NECOK3IPEI08WS2JOFB&a=0LCN3&tp_a=0LCN3&b=3NC5L260MP8NECOK3IPEI08WS2JOFB&tp_b=3NC5L260MP8NECOK3IPEI08WS2JOFB&c=365633&tp_c=365633","heads":5,"tails":5,"studentIndex":4,"studentTrueHypers":{"a":1,"b":4},"studentGuess":0.4,"delta":0.09999999999999998,"totalExamples":10,"bonusSoFar":0},{"rt":8099,"response":{"heads":"6","tails":"5"},"type":"response","condition":"seqFeedback","trueTheta":0.5,"classrooms":["A","B"],"studentTrueClassroom":"A","exampleSet":"second","trial_type":"survey-html-form","trial_index":47,"time_elapsed":728209,"internal_node_id":"0.0-40.0-0.0","params":{"nStudents":24,"maxFlips":25,"completionMinutes":45,"basePay":8,"maxBonus":9,"perTrialBonus":0.5,"perTrialBonusThreshold":0.05,"exampleCost":0.02},"classroomParams":{"A":{"a":1,"b":4},"B":{"a":4,"b":1},"C":{"a":2,"b":8},"D":{"a":8,"b":2}},"conditions":["nonSeqFull","nonSeqPartial","seqNoFeedback","seqFeedback"],"classroomPairings":[["A","B"],["C","D"]],"coinWeights":[0.2,0.5,0.8],"subjectId":"A6Y7SZU9L301W","assignmentId":"3NC5L260MP8NECOK3IPEI08WS2JOFB","hitId":"3XUY87HIVP03YZXVLN9CW37DVI1MM2","url":"https://gershmanlab.com/experiments/alicia/teaching/experiment/?hitId=3XUY87HIVP03YZXVLN9CW37DVI1MM2&workerId=A6Y7SZU9L301W&assignmentId=3NC5L260MP8NECOK3IPEI08WS2JOFB&a=0LCN3&tp_a=0LCN3&b=3NC5L260MP8NECOK3IPEI08WS2JOFB&tp_b=3NC5L260MP8NECOK3IPEI08WS2JOFB&c=365633&tp_c=365633","firstResponseHeads":5,"firstResponseTails":5,"secondResponseHeads":6,"secondResponseTails":5,"totalHeads":11,"totalTails":10,"studentIndex":4,"studentTrueHypers":{"a":1,"b":4},"studentGuess":0.46153846153846156,"delta":0.038461538461538436,"bonus":0.08,"bonusSoFar":0.08,"totalExamples":21},{"rt":6651,"response":{"heads":"0","tails":"5"},"type":"response","condition":"seqFeedback","trueTheta":0.2,"classrooms":["C","D"],"studentTrueClassroom":"C","exampleSet":"first","trial_type":"survey-html-form","trial_index":53,"time_elapsed":757153,"internal_node_id":"0.0-46.0-0.0","params":{"nStudents":24,"maxFlips":25,"completionMinutes":45,"basePay":8,"maxBonus":9,"perTrialBonus":0.5,"perTrialBonusThreshold":0.05,"exampleCost":0.02},"classroomParams":{"A":{"a":1,"b":4},"B":{"a":4,"b":1},"C":{"a":2,"b":8},"D":{"a":8,"b":2}},"conditions":["nonSeqFull","nonSeqPartial","seqNoFeedback","seqFeedback"],"classroomPairings":[["A","B"],["C","D"]],"coinWeights":[0.2,0.5,0.8],"subjectId":"A6Y7SZU9L301W","assignmentId":"3NC5L260MP8NECOK3IPEI08WS2JOFB","hitId":"3XUY87HIVP03YZXVLN9CW37DVI1MM2","url":"https://gershmanlab.com/experiments/alicia/teaching/experiment/?hitId=3XUY87HIVP03YZXVLN9CW37DVI1MM2&workerId=A6Y7SZU9L301W&assignmentId=3NC5L260MP8NECOK3IPEI08WS2JOFB&a=0LCN3&tp_a=0LCN3&b=3NC5L260MP8NECOK3IPEI08WS2JOFB&tp_b=3NC5L260MP8NECOK3IPEI08WS2JOFB&c=365633&tp_c=365633","heads":0,"tails":5,"studentIndex":5,"studentTrueHypers":{"a":2,"b":8},"studentGuess":0.13333333333333333,"delta":0.06666666666666668,"totalExamples":5,"bonusSoFar":0.08},{"rt":5806,"response":{"heads":"0","tails":"2"},"type":"response","condition":"seqFeedback","trueTheta":0.2,"classrooms":["C","D"],"studentTrueClassroom":"C","exampleSet":"second","trial_type":"survey-html-form","trial_index":57,"time_elapsed":775161,"internal_node_id":"0.0-50.0-0.0","params":{"nStudents":24,"maxFlips":25,"completionMinutes":45,"basePay":8,"maxBonus":9,"perTrialBonus":0.5,"perTrialBonusThreshold":0.05,"exampleCost":0.02},"classroomParams":{"A":{"a":1,"b":4},"B":{"a":4,"b":1},"C":{"a":2,"b":8},"D":{"a":8,"b":2}},"conditions":["nonSeqFull","nonSeqPartial","seqNoFeedback","seqFeedback"],"classroomPairings":[["A","B"],["C","D"]],"coinWeights":[0.2,0.5,0.8],"subjectId":"A6Y7SZU9L301W","assignmentId":"3NC5L260MP8NECOK3IPEI08WS2JOFB","hitId":"3XUY87HIVP03YZXVLN9CW37DVI1MM2","url":"https://gershmanlab.com/experiments/alicia/teaching/experiment/?hitId=3XUY87HIVP03YZXVLN9CW37DVI1MM2&workerId=A6Y7SZU9L301W&assignmentId=3NC5L260MP8NECOK3IPEI08WS2JOFB&a=0LCN3&tp_a=0LCN3&b=3NC5L260MP8NECOK3IPEI08WS2JOFB&tp_b=3NC5L260MP8NECOK3IPEI08WS2JOFB&c=365633&tp_c=365633","firstResponseHeads":0,"firstResponseTails":5,"secondResponseHeads":0,"secondResponseTails":2,"totalHeads":0,"totalTails":7,"studentIndex":5,"studentTrueHypers":{"a":2,"b":8},"studentGuess":0.11764705882352941,"delta":0.0823529411764706,"bonus":0,"bonusSoFar":0.08,"totalExamples":7},{"rt":8455,"response":{"heads":"5","tails":"0"},"type":"response","condition":"nonSeqFull","trueTheta":0.8,"classrooms":["A","B"],"studentTrueClassroom":"A","exampleSet":"first","trial_type":"survey-html-form","trial_index":63,"time_elapsed":800865,"internal_node_id":"0.0-56.0-0.0","params":{"nStudents":24,"maxFlips":25,"completionMinutes":45,"basePay":8,"maxBonus":9,"perTrialBonus":0.5,"perTrialBonusThreshold":0.05,"exampleCost":0.02},"classroomParams":{"A":{"a":1,"b":4},"B":{"a":4,"b":1},"C":{"a":2,"b":8},"D":{"a":8,"b":2}},"conditions":["nonSeqFull","nonSeqPartial","seqNoFeedback","seqFeedback"],"classroomPairings":[["A","B"],["C","D"]],"coinWeights":[0.2,0.5,0.8],"subjectId":"A6Y7SZU9L301W","assignmentId":"3NC5L260MP8NECOK3IPEI08WS2JOFB","hitId":"3XUY87HIVP03YZXVLN9CW37DVI1MM2","url":"https://gershmanlab.com/experiments/alicia/teaching/experiment/?hitId=3XUY87HIVP03YZXVLN9CW37DVI1MM2&workerId=A6Y7SZU9L301W&assignmentId=3NC5L260MP8NECOK3IPEI08WS2JOFB&a=0LCN3&tp_a=0LCN3&b=3NC5L260MP8NECOK3IPEI08WS2JOFB&tp_b=3NC5L260MP8NECOK3IPEI08WS2JOFB&c=365633&tp_c=365633","heads":5,"tails":0,"studentIndex":6,"studentTrueHypers":{"a":1,"b":4},"studentGuess":0.6,"delta":0.20000000000000007,"totalExamples":5,"bonus":0,"bonusSoFar":0.08},{"rt":42995,"response":{"heads":"5","tails":"2"},"type":"response","condition":"nonSeqFull","trueTheta":0.5,"classrooms":["C","D"],"studentTrueClassroom":"C","exampleSet":"first","trial_type":"survey-html-form","trial_index":69,"time_elapsed":861721,"internal_node_id":"0.0-62.0-0.0","params":{"nStudents":24,"maxFlips":25,"completionMinutes":45,"basePay":8,"maxBonus":9,"perTrialBonus":0.5,"perTrialBonusThreshold":0.05,"exampleCost":0.02},"classroomParams":{"A":{"a":1,"b":4},"B":{"a":4,"b":1},"C":{"a":2,"b":8},"D":{"a":8,"b":2}},"conditions":["nonSeqFull","nonSeqPartial","seqNoFeedback","seqFeedback"],"classroomPairings":[["A","B"],["C","D"]],"coinWeights":[0.2,0.5,0.8],"subjectId":"A6Y7SZU9L301W","assignmentId":"3NC5L260MP8NECOK3IPEI08WS2JOFB","hitId":"3XUY87HIVP03YZXVLN9CW37DVI1MM2","url":"https://gershmanlab.com/experiments/alicia/teaching/experiment/?hitId=3XUY87HIVP03YZXVLN9CW37DVI1MM2&workerId=A6Y7SZU9L301W&assignmentId=3NC5L260MP8NECOK3IPEI08WS2JOFB&a=0LCN3&tp_a=0LCN3&b=3NC5L260MP8NECOK3IPEI08WS2JOFB&tp_b=3NC5L260MP8NECOK3IPEI08WS2JOFB&c=365633&tp_c=365633","heads":5,"tails":2,"studentIndex":7,"studentTrueHypers":{"a":2,"b":8},"studentGuess":0.4117647058823529,"delta":0.08823529411764708,"totalExamples":7,"bonus":0,"bonusSoFar":0.08},{"rt":10155,"response":{"heads":"8","tails":"1"},"type":"response","condition":"nonSeqPartial","trueTheta":0.8,"classrooms":["A","B"],"studentTrueClassroom":"B","exampleSet":"first","trial_type":"survey-html-form","trial_index":75,"time_elapsed":891038,"internal_node_id":"0.0-68.0-0.0","params":{"nStudents":24,"maxFlips":25,"completionMinutes":45,"basePay":8,"maxBonus":9,"perTrialBonus":0.5,"perTrialBonusThreshold":0.05,"exampleCost":0.02},"classroomParams":{"A":{"a":1,"b":4},"B":{"a":4,"b":1},"C":{"a":2,"b":8},"D":{"a":8,"b":2}},"conditions":["nonSeqFull","nonSeqPartial","seqNoFeedback","seqFeedback"],"classroomPairings":[["A","B"],["C","D"]],"coinWeights":[0.2,0.5,0.8],"subjectId":"A6Y7SZU9L301W","assignmentId":"3NC5L260MP8NECOK3IPEI08WS2JOFB","hitId":"3XUY87HIVP03YZXVLN9CW37DVI1MM2","url":"https://gershmanlab.com/experiments/alicia/teaching/experiment/?hitId=3XUY87HIVP03YZXVLN9CW37DVI1MM2&workerId=A6Y7SZU9L301W&assignmentId=3NC5L260MP8NECOK3IPEI08WS2JOFB&a=0LCN3&tp_a=0LCN3&b=3NC5L260MP8NECOK3IPEI08WS2JOFB&tp_b=3NC5L260MP8NECOK3IPEI08WS2JOFB&c=365633&tp_c=365633","heads":8,"tails":1,"studentIndex":8,"studentTrueHypers":{"a":4,"b":1},"studentGuess":0.8571428571428571,"delta":0.05714285714285705,"totalExamples":9,"bonus":0,"bonusSoFar":0.08},{"rt":20115,"response":{"heads":"4","tails":"1"},"type":"response","condition":"nonSeqPartial","trueTheta":0.8,"classrooms":["C","D"],"studentTrueClassroom":"D","exampleSet":"first","trial_type":"survey-html-form","trial_index":81,"time_elapsed":927370,"internal_node_id":"0.0-74.0-0.0","params":{"nStudents":24,"maxFlips":25,"completionMinutes":45,"basePay":8,"maxBonus":9,"perTrialBonus":0.5,"perTrialBonusThreshold":0.05,"exampleCost":0.02},"classroomParams":{"A":{"a":1,"b":4},"B":{"a":4,"b":1},"C":{"a":2,"b":8},"D":{"a":8,"b":2}},"conditions":["nonSeqFull","nonSeqPartial","seqNoFeedback","seqFeedback"],"classroomPairings":[["A","B"],["C","D"]],"coinWeights":[0.2,0.5,0.8],"subjectId":"A6Y7SZU9L301W","assignmentId":"3NC5L260MP8NECOK3IPEI08WS2JOFB","hitId":"3XUY87HIVP03YZXVLN9CW37DVI1MM2","url":"https://gershmanlab.com/experiments/alicia/teaching/experiment/?hitId=3XUY87HIVP03YZXVLN9CW37DVI1MM2&workerId=A6Y7SZU9L301W&assignmentId=3NC5L260MP8NECOK3IPEI08WS2JOFB&a=0LCN3&tp_a=0LCN3&b=3NC5L260MP8NECOK3IPEI08WS2JOFB&tp_b=3NC5L260MP8NECOK3IPEI08WS2JOFB&c=365633&tp_c=365633","heads":4,"tails":1,"studentIndex":9,"studentTrueHypers":{"a":8,"b":2},"studentGuess":0.8,"delta":0,"totalExamples":5,"bonus":0.4,"bonusSoFar":0.48},{"rt":11274,"response":{"heads":"8","tails":"1"},"type":"response","condition":"nonSeqFull","trueTheta":0.8,"classrooms":["C","D"],"studentTrueClassroom":"C","exampleSet":"first","trial_type":"survey-html-form","trial_index":87,"time_elapsed":957050,"internal_node_id":"0.0-80.0-0.0","params":{"nStudents":24,"maxFlips":25,"completionMinutes":45,"basePay":8,"maxBonus":9,"perTrialBonus":0.5,"perTrialBonusThreshold":0.05,"exampleCost":0.02},"classroomParams":{"A":{"a":1,"b":4},"B":{"a":4,"b":1},"C":{"a":2,"b":8},"D":{"a":8,"b":2}},"conditions":["nonSeqFull","nonSeqPartial","seqNoFeedback","seqFeedback"],"classroomPairings":[["A","B"],["C","D"]],"coinWeights":[0.2,0.5,0.8],"subjectId":"A6Y7SZU9L301W","assignmentId":"3NC5L260MP8NECOK3IPEI08WS2JOFB","hitId":"3XUY87HIVP03YZXVLN9CW37DVI1MM2","url":"https://gershmanlab.com/experiments/alicia/teaching/experiment/?hitId=3XUY87HIVP03YZXVLN9CW37DVI1MM2&workerId=A6Y7SZU9L301W&assignmentId=3NC5L260MP8NECOK3IPEI08WS2JOFB&a=0LCN3&tp_a=0LCN3&b=3NC5L260MP8NECOK3IPEI08WS2JOFB&tp_b=3NC5L260MP8NECOK3IPEI08WS2JOFB&c=365633&tp_c=365633","heads":8,"tails":1,"studentIndex":10,"studentTrueHypers":{"a":2,"b":8},"studentGuess":0.5263157894736842,"delta":0.27368421052631586,"totalExamples":9,"bonus":0,"bonusSoFar":0.48},{"rt":10063,"response":{"heads":"1","tails":"5"},"type":"response","condition":"seqNoFeedback","trueTheta":0.2,"classrooms":["C","D"],"studentTrueClassroom":"D","exampleSet":"first","trial_type":"survey-html-form","trial_index":93,"time_elapsed":982994,"internal_node_id":"0.0-86.0-0.0","params":{"nStudents":24,"maxFlips":25,"completionMinutes":45,"basePay":8,"maxBonus":9,"perTrialBonus":0.5,"perTrialBonusThreshold":0.05,"exampleCost":0.02},"classroomParams":{"A":{"a":1,"b":4},"B":{"a":4,"b":1},"C":{"a":2,"b":8},"D":{"a":8,"b":2}},"conditions":["nonSeqFull","nonSeqPartial","seqNoFeedback","seqFeedback"],"classroomPairings":[["A","B"],["C","D"]],"coinWeights":[0.2,0.5,0.8],"subjectId":"A6Y7SZU9L301W","assignmentId":"3NC5L260MP8NECOK3IPEI08WS2JOFB","hitId":"3XUY87HIVP03YZXVLN9CW37DVI1MM2","url":"https://gershmanlab.com/experiments/alicia/teaching/experiment/?hitId=3XUY87HIVP03YZXVLN9CW37DVI1MM2&workerId=A6Y7SZU9L301W&assignmentId=3NC5L260MP8NECOK3IPEI08WS2JOFB&a=0LCN3&tp_a=0LCN3&b=3NC5L260MP8NECOK3IPEI08WS2JOFB&tp_b=3NC5L260MP8NECOK3IPEI08WS2JOFB&c=365633&tp_c=365633","heads":1,"tails":5,"studentIndex":11,"studentTrueHypers":{"a":8,"b":2},"studentGuess":0.5625,"delta":0.3625,"totalExamples":6,"bonusSoFar":0.48},{"rt":11907,"response":{"heads":"9","tails":"1"},"type":"response","condition":"seqNoFeedback","trueTheta":0.2,"classrooms":["C","D"],"studentTrueClassroom":"D","exampleSet":"second","trial_type":"survey-html-form","trial_index":96,"time_elapsed":1001657,"internal_node_id":"0.0-89.0-0.0","params":{"nStudents":24,"maxFlips":25,"completionMinutes":45,"basePay":8,"maxBonus":9,"perTrialBonus":0.5,"perTrialBonusThreshold":0.05,"exampleCost":0.02},"classroomParams":{"A":{"a":1,"b":4},"B":{"a":4,"b":1},"C":{"a":2,"b":8},"D":{"a":8,"b":2}},"conditions":["nonSeqFull","nonSeqPartial","seqNoFeedback","seqFeedback"],"classroomPairings":[["A","B"],["C","D"]],"coinWeights":[0.2,0.5,0.8],"subjectId":"A6Y7SZU9L301W","assignmentId":"3NC5L260MP8NECOK3IPEI08WS2JOFB","hitId":"3XUY87HIVP03YZXVLN9CW37DVI1MM2","url":"https://gershmanlab.com/experiments/alicia/teaching/experiment/?hitId=3XUY87HIVP03YZXVLN9CW37DVI1MM2&workerId=A6Y7SZU9L301W&assignmentId=3NC5L260MP8NECOK3IPEI08WS2JOFB&a=0LCN3&tp_a=0LCN3&b=3NC5L260MP8NECOK3IPEI08WS2JOFB&tp_b=3NC5L260MP8NECOK3IPEI08WS2JOFB&c=365633&tp_c=365633","firstResponseHeads":1,"firstResponseTails":5,"secondResponseHeads":9,"secondResponseTails":1,"totalHeads":10,"totalTails":6,"studentIndex":11,"studentTrueHypers":{"a":8,"b":2},"studentGuess":0.6923076923076923,"delta":0.4923076923076923,"bonus":0,"bonusSoFar":0.48,"totalExamples":16},{"rt":16425,"response":{"heads":"5","tails":"5"},"type":"response","condition":"nonSeqPartial","trueTheta":0.5,"classrooms":["C","D"],"studentTrueClassroom":"C","exampleSet":"first","trial_type":"survey-html-form","trial_index":102,"time_elapsed":1033919,"internal_node_id":"0.0-95.0-0.0","params":{"nStudents":24,"maxFlips":25,"completionMinutes":45,"basePay":8,"maxBonus":9,"perTrialBonus":0.5,"perTrialBonusThreshold":0.05,"exampleCost":0.02},"classroomParams":{"A":{"a":1,"b":4},"B":{"a":4,"b":1},"C":{"a":2,"b":8},"D":{"a":8,"b":2}},"conditions":["nonSeqFull","nonSeqPartial","seqNoFeedback","seqFeedback"],"classroomPairings":[["A","B"],["C","D"]],"coinWeights":[0.2,0.5,0.8],"subjectId":"A6Y7SZU9L301W","assignmentId":"3NC5L260MP8NECOK3IPEI08WS2JOFB","hitId":"3XUY87HIVP03YZXVLN9CW37DVI1MM2","url":"https://gershmanlab.com/experiments/alicia/teaching/experiment/?hitId=3XUY87HIVP03YZXVLN9CW37DVI1MM2&workerId=A6Y7SZU9L301W&assignmentId=3NC5L260MP8NECOK3IPEI08WS2JOFB&a=0LCN3&tp_a=0LCN3&b=3NC5L260MP8NECOK3IPEI08WS2JOFB&tp_b=3NC5L260MP8NECOK3IPEI08WS2JOFB&c=365633&tp_c=365633","heads":5,"tails":5,"studentIndex":12,"studentTrueHypers":{"a":2,"b":8},"studentGuess":0.35,"delta":0.15000000000000002,"totalExamples":10,"bonus":0,"bonusSoFar":0.48},{"rt":16582,"response":{"heads":"6","tails":"1"},"type":"response","condition":"seqFeedback","trueTheta":0.8,"classrooms":["A","B"],"studentTrueClassroom":"B","exampleSet":"first","trial_type":"survey-html-form","trial_index":108,"time_elapsed":1063714,"internal_node_id":"0.0-101.0-0.0","params":{"nStudents":24,"maxFlips":25,"completionMinutes":45,"basePay":8,"maxBonus":9,"perTrialBonus":0.5,"perTrialBonusThreshold":0.05,"exampleCost":0.02},"classroomParams":{"A":{"a":1,"b":4},"B":{"a":4,"b":1},"C":{"a":2,"b":8},"D":{"a":8,"b":2}},"conditions":["nonSeqFull","nonSeqPartial","seqNoFeedback","seqFeedback"],"classroomPairings":[["A","B"],["C","D"]],"coinWeights":[0.2,0.5,0.8],"subjectId":"A6Y7SZU9L301W","assignmentId":"3NC5L260MP8NECOK3IPEI08WS2JOFB","hitId":"3XUY87HIVP03YZXVLN9CW37DVI1MM2","url":"https://gershmanlab.com/experiments/alicia/teaching/experiment/?hitId=3XUY87HIVP03YZXVLN9CW37DVI1MM2&workerId=A6Y7SZU9L301W&assignmentId=3NC5L260MP8NECOK3IPEI08WS2JOFB&a=0LCN3&tp_a=0LCN3&b=3NC5L260MP8NECOK3IPEI08WS2JOFB&tp_b=3NC5L260MP8NECOK3IPEI08WS2JOFB&c=365633&tp_c=365633","heads":6,"tails":1,"studentIndex":13,"studentTrueHypers":{"a":4,"b":1},"studentGuess":0.8333333333333334,"delta":0.033333333333333326,"totalExamples":7,"bonusSoFar":0.48},{"rt":11218,"response":{"heads":"7","tails":"1"},"type":"response","condition":"seqFeedback","trueTheta":0.8,"classrooms":["A","B"],"studentTrueClassroom":"B","exampleSet":"second","trial_type":"survey-html-form","trial_index":112,"time_elapsed":1088032,"internal_node_id":"0.0-105.0-0.0","params":{"nStudents":24,"maxFlips":25,"completionMinutes":45,"basePay":8,"maxBonus":9,"perTrialBonus":0.5,"perTrialBonusThreshold":0.05,"exampleCost":0.02},"classroomParams":{"A":{"a":1,"b":4},"B":{"a":4,"b":1},"C":{"a":2,"b":8},"D":{"a":8,"b":2}},"conditions":["nonSeqFull","nonSeqPartial","seqNoFeedback","seqFeedback"],"classroomPairings":[["A","B"],["C","D"]],"coinWeights":[0.2,0.5,0.8],"subjectId":"A6Y7SZU9L301W","assignmentId":"3NC5L260MP8NECOK3IPEI08WS2JOFB","hitId":"3XUY87HIVP03YZXVLN9CW37DVI1MM2","url":"https://gershmanlab.com/experiments/alicia/teaching/experiment/?hitId=3XUY87HIVP03YZXVLN9CW37DVI1MM2&workerId=A6Y7SZU9L301W&assignmentId=3NC5L260MP8NECOK3IPEI08WS2JOFB&a=0LCN3&tp_a=0LCN3&b=3NC5L260MP8NECOK3IPEI08WS2JOFB&tp_b=3NC5L260MP8NECOK3IPEI08WS2JOFB&c=365633&tp_c=365633","firstResponseHeads":6,"firstResponseTails":1,"secondResponseHeads":7,"secondResponseTails":1,"totalHeads":13,"totalTails":2,"studentIndex":13,"studentTrueHypers":{"a":4,"b":1},"studentGuess":0.85,"delta":0.04999999999999993,"bonus":0.2,"bonusSoFar":0.68,"totalExamples":15},{"rt":112237,"response":{"heads":"1","tails":"8"},"type":"response","condition":"nonSeqFull","trueTheta":0.2,"classrooms":["A","B"],"studentTrueClassroom":"B","exampleSet":"first","trial_type":"survey-html-form","trial_index":118,"time_elapsed":1215266,"internal_node_id":"0.0-111.0-0.0","params":{"nStudents":24,"maxFlips":25,"completionMinutes":45,"basePay":8,"maxBonus":9,"perTrialBonus":0.5,"perTrialBonusThreshold":0.05,"exampleCost":0.02},"classroomParams":{"A":{"a":1,"b":4},"B":{"a":4,"b":1},"C":{"a":2,"b":8},"D":{"a":8,"b":2}},"conditions":["nonSeqFull","nonSeqPartial","seqNoFeedback","seqFeedback"],"classroomPairings":[["A","B"],["C","D"]],"coinWeights":[0.2,0.5,0.8],"subjectId":"A6Y7SZU9L301W","assignmentId":"3NC5L260MP8NECOK3IPEI08WS2JOFB","hitId":"3XUY87HIVP03YZXVLN9CW37DVI1MM2","url":"https://gershmanlab.com/experiments/alicia/teaching/experiment/?hitId=3XUY87HIVP03YZXVLN9CW37DVI1MM2&workerId=A6Y7SZU9L301W&assignmentId=3NC5L260MP8NECOK3IPEI08WS2JOFB&a=0LCN3&tp_a=0LCN3&b=3NC5L260MP8NECOK3IPEI08WS2JOFB&tp_b=3NC5L260MP8NECOK3IPEI08WS2JOFB&c=365633&tp_c=365633","heads":1,"tails":8,"studentIndex":14,"studentTrueHypers":{"a":4,"b":1},"studentGuess":0.35714285714285715,"delta":0.15714285714285714,"totalExamples":9,"bonus":0,"bonusSoFar":0.68},{"rt":46641,"response":{"heads":"3","tails":"1"},"type":"response","condition":"seqFeedback","trueTheta":0.8,"classrooms":["C","D"],"studentTrueClassroom":"D","exampleSet":"first","trial_type":"survey-html-form","trial_index":124,"time_elapsed":1305597,"internal_node_id":"0.0-117.0-0.0","params":{"nStudents":24,"maxFlips":25,"completionMinutes":45,"basePay":8,"maxBonus":9,"perTrialBonus":0.5,"perTrialBonusThreshold":0.05,"exampleCost":0.02},"classroomParams":{"A":{"a":1,"b":4},"B":{"a":4,"b":1},"C":{"a":2,"b":8},"D":{"a":8,"b":2}},"conditions":["nonSeqFull","nonSeqPartial","seqNoFeedback","seqFeedback"],"classroomPairings":[["A","B"],["C","D"]],"coinWeights":[0.2,0.5,0.8],"subjectId":"A6Y7SZU9L301W","assignmentId":"3NC5L260MP8NECOK3IPEI08WS2JOFB","hitId":"3XUY87HIVP03YZXVLN9CW37DVI1MM2","url":"https://gershmanlab.com/experiments/alicia/teaching/experiment/?hitId=3XUY87HIVP03YZXVLN9CW37DVI1MM2&workerId=A6Y7SZU9L301W&assignmentId=3NC5L260MP8NECOK3IPEI08WS2JOFB&a=0LCN3&tp_a=0LCN3&b=3NC5L260MP8NECOK3IPEI08WS2JOFB&tp_b=3NC5L260MP8NECOK3IPEI08WS2JOFB&c=365633&tp_c=365633","heads":3,"tails":1,"studentIndex":15,"studentTrueHypers":{"a":8,"b":2},"studentGuess":0.7857142857142857,"delta":0.014285714285714346,"totalExamples":4,"bonusSoFar":0.68},{"rt":3729,"response":{"heads":"3","tails":"1"},"type":"response","condition":"seqFeedback","trueTheta":0.8,"classrooms":["C","D"],"studentTrueClassroom":"D","exampleSet":"second","trial_type":"survey-html-form","trial_index":128,"time_elapsed":1322948,"internal_node_id":"0.0-121.0-0.0","params":{"nStudents":24,"maxFlips":25,"completionMinutes":45,"basePay":8,"maxBonus":9,"perTrialBonus":0.5,"perTrialBonusThreshold":0.05,"exampleCost":0.02},"classroomParams":{"A":{"a":1,"b":4},"B":{"a":4,"b":1},"C":{"a":2,"b":8},"D":{"a":8,"b":2}},"conditions":["nonSeqFull","nonSeqPartial","seqNoFeedback","seqFeedback"],"classroomPairings":[["A","B"],["C","D"]],"coinWeights":[0.2,0.5,0.8],"subjectId":"A6Y7SZU9L301W","assignmentId":"3NC5L260MP8NECOK3IPEI08WS2JOFB","hitId":"3XUY87HIVP03YZXVLN9CW37DVI1MM2","url":"https://gershmanlab.com/experiments/alicia/teaching/experiment/?hitId=3XUY87HIVP03YZXVLN9CW37DVI1MM2&workerId=A6Y7SZU9L301W&assignmentId=3NC5L260MP8NECOK3IPEI08WS2JOFB&a=0LCN3&tp_a=0LCN3&b=3NC5L260MP8NECOK3IPEI08WS2JOFB&tp_b=3NC5L260MP8NECOK3IPEI08WS2JOFB&c=365633&tp_c=365633","firstResponseHeads":3,"firstResponseTails":1,"secondResponseHeads":3,"secondResponseTails":1,"totalHeads":6,"totalTails":2,"studentIndex":15,"studentTrueHypers":{"a":8,"b":2},"studentGuess":0.7777777777777778,"delta":0.022222222222222254,"bonus":0.34,"bonusSoFar":1.02,"totalExamples":8},{"rt":4520,"response":{"heads":"1","tails":"1"},"type":"response","condition":"seqNoFeedback","trueTheta":0.5,"classrooms":["C","D"],"studentTrueClassroom":"D","exampleSet":"first","trial_type":"survey-html-form","trial_index":134,"time_elapsed":1341811,"internal_node_id":"0.0-127.0-0.0","params":{"nStudents":24,"maxFlips":25,"completionMinutes":45,"basePay":8,"maxBonus":9,"perTrialBonus":0.5,"perTrialBonusThreshold":0.05,"exampleCost":0.02},"classroomParams":{"A":{"a":1,"b":4},"B":{"a":4,"b":1},"C":{"a":2,"b":8},"D":{"a":8,"b":2}},"conditions":["nonSeqFull","nonSeqPartial","seqNoFeedback","seqFeedback"],"classroomPairings":[["A","B"],["C","D"]],"coinWeights":[0.2,0.5,0.8],"subjectId":"A6Y7SZU9L301W","assignmentId":"3NC5L260MP8NECOK3IPEI08WS2JOFB","hitId":"3XUY87HIVP03YZXVLN9CW37DVI1MM2","url":"https://gershmanlab.com/experiments/alicia/teaching/experiment/?hitId=3XUY87HIVP03YZXVLN9CW37DVI1MM2&workerId=A6Y7SZU9L301W&assignmentId=3NC5L260MP8NECOK3IPEI08WS2JOFB&a=0LCN3&tp_a=0LCN3&b=3NC5L260MP8NECOK3IPEI08WS2JOFB&tp_b=3NC5L260MP8NECOK3IPEI08WS2JOFB&c=365633&tp_c=365633","heads":1,"tails":1,"studentIndex":16,"studentTrueHypers":{"a":8,"b":2},"studentGuess":0.75,"delta":0.25,"totalExamples":2,"bonusSoFar":1.02},{"rt":6437,"response":{"heads":"1","tails":"1"},"type":"response","condition":"seqNoFeedback","trueTheta":0.5,"classrooms":["C","D"],"studentTrueClassroom":"D","exampleSet":"second","trial_type":"survey-html-form","trial_index":137,"time_elapsed":1354249,"internal_node_id":"0.0-130.0-0.0","params":{"nStudents":24,"maxFlips":25,"completionMinutes":45,"basePay":8,"maxBonus":9,"perTrialBonus":0.5,"perTrialBonusThreshold":0.05,"exampleCost":0.02},"classroomParams":{"A":{"a":1,"b":4},"B":{"a":4,"b":1},"C":{"a":2,"b":8},"D":{"a":8,"b":2}},"conditions":["nonSeqFull","nonSeqPartial","seqNoFeedback","seqFeedback"],"classroomPairings":[["A","B"],["C","D"]],"coinWeights":[0.2,0.5,0.8],"subjectId":"A6Y7SZU9L301W","assignmentId":"3NC5L260MP8NECOK3IPEI08WS2JOFB","hitId":"3XUY87HIVP03YZXVLN9CW37DVI1MM2","url":"https://gershmanlab.com/experiments/alicia/teaching/experiment/?hitId=3XUY87HIVP03YZXVLN9CW37DVI1MM2&workerId=A6Y7SZU9L301W&assignmentId=3NC5L260MP8NECOK3IPEI08WS2JOFB&a=0LCN3&tp_a=0LCN3&b=3NC5L260MP8NECOK3IPEI08WS2JOFB&tp_b=3NC5L260MP8NECOK3IPEI08WS2JOFB&c=365633&tp_c=365633","firstResponseHeads":1,"firstResponseTails":1,"secondResponseHeads":1,"secondResponseTails":1,"totalHeads":2,"totalTails":2,"studentIndex":16,"studentTrueHypers":{"a":8,"b":2},"studentGuess":0.7142857142857143,"delta":0.2142857142857143,"bonus":0,"bonusSoFar":1.02,"totalExamples":4},{"rt":10801,"response":{"heads":"4","tails":"1"},"type":"response","condition":"nonSeqFull","trueTheta":0.5,"classrooms":["A","B"],"studentTrueClassroom":"A","exampleSet":"first","trial_type":"survey-html-form","trial_index":143,"time_elapsed":1379447,"internal_node_id":"0.0-136.0-0.0","params":{"nStudents":24,"maxFlips":25,"completionMinutes":45,"basePay":8,"maxBonus":9,"perTrialBonus":0.5,"perTrialBonusThreshold":0.05,"exampleCost":0.02},"classroomParams":{"A":{"a":1,"b":4},"B":{"a":4,"b":1},"C":{"a":2,"b":8},"D":{"a":8,"b":2}},"conditions":["nonSeqFull","nonSeqPartial","seqNoFeedback","seqFeedback"],"classroomPairings":[["A","B"],["C","D"]],"coinWeights":[0.2,0.5,0.8],"subjectId":"A6Y7SZU9L301W","assignmentId":"3NC5L260MP8NECOK3IPEI08WS2JOFB","hitId":"3XUY87HIVP03YZXVLN9CW37DVI1MM2","url":"https://gershmanlab.com/experiments/alicia/teaching/experiment/?hitId=3XUY87HIVP03YZXVLN9CW37DVI1MM2&workerId=A6Y7SZU9L301W&assignmentId=3NC5L260MP8NECOK3IPEI08WS2JOFB&a=0LCN3&tp_a=0LCN3&b=3NC5L260MP8NECOK3IPEI08WS2JOFB&tp_b=3NC5L260MP8NECOK3IPEI08WS2JOFB&c=365633&tp_c=365633","heads":4,"tails":1,"studentIndex":17,"studentTrueHypers":{"a":1,"b":4},"studentGuess":0.5,"delta":0,"totalExamples":5,"bonus":0.4,"bonusSoFar":1.42},{"rt":12304,"response":{"heads":"8","tails":"2"},"type":"response","condition":"seqFeedback","trueTheta":0.5,"classrooms":["C","D"],"studentTrueClassroom":"C","exampleSet":"first","trial_type":"survey-html-form","trial_index":149,"time_elapsed":1406489,"internal_node_id":"0.0-142.0-0.0","params":{"nStudents":24,"maxFlips":25,"completionMinutes":45,"basePay":8,"maxBonus":9,"perTrialBonus":0.5,"perTrialBonusThreshold":0.05,"exampleCost":0.02},"classroomParams":{"A":{"a":1,"b":4},"B":{"a":4,"b":1},"C":{"a":2,"b":8},"D":{"a":8,"b":2}},"conditions":["nonSeqFull","nonSeqPartial","seqNoFeedback","seqFeedback"],"classroomPairings":[["A","B"],["C","D"]],"coinWeights":[0.2,0.5,0.8],"subjectId":"A6Y7SZU9L301W","assignmentId":"3NC5L260MP8NECOK3IPEI08WS2JOFB","hitId":"3XUY87HIVP03YZXVLN9CW37DVI1MM2","url":"https://gershmanlab.com/experiments/alicia/teaching/experiment/?hitId=3XUY87HIVP03YZXVLN9CW37DVI1MM2&workerId=A6Y7SZU9L301W&assignmentId=3NC5L260MP8NECOK3IPEI08WS2JOFB&a=0LCN3&tp_a=0LCN3&b=3NC5L260MP8NECOK3IPEI08WS2JOFB&tp_b=3NC5L260MP8NECOK3IPEI08WS2JOFB&c=365633&tp_c=365633","heads":8,"tails":2,"studentIndex":18,"studentTrueHypers":{"a":2,"b":8},"studentGuess":0.5,"delta":0,"totalExamples":10,"bonusSoFar":1.42},{"rt":2929,"response":{"heads":"1","tails":"1"},"type":"response","condition":"seqFeedback","trueTheta":0.5,"classrooms":["C","D"],"studentTrueClassroom":"C","exampleSet":"second","trial_type":"survey-html-form","trial_index":153,"time_elapsed":1423130,"internal_node_id":"0.0-146.0-0.0","params":{"nStudents":24,"maxFlips":25,"completionMinutes":45,"basePay":8,"maxBonus":9,"perTrialBonus":0.5,"perTrialBonusThreshold":0.05,"exampleCost":0.02},"classroomParams":{"A":{"a":1,"b":4},"B":{"a":4,"b":1},"C":{"a":2,"b":8},"D":{"a":8,"b":2}},"conditions":["nonSeqFull","nonSeqPartial","seqNoFeedback","seqFeedback"],"classroomPairings":[["A","B"],["C","D"]],"coinWeights":[0.2,0.5,0.8],"subjectId":"A6Y7SZU9L301W","assignmentId":"3NC5L260MP8NECOK3IPEI08WS2JOFB","hitId":"3XUY87HIVP03YZXVLN9CW37DVI1MM2","url":"https://gershmanlab.com/experiments/alicia/teaching/experiment/?hitId=3XUY87HIVP03YZXVLN9CW37DVI1MM2&workerId=A6Y7SZU9L301W&assignmentId=3NC5L260MP8NECOK3IPEI08WS2JOFB&a=0LCN3&tp_a=0LCN3&b=3NC5L260MP8NECOK3IPEI08WS2JOFB&tp_b=3NC5L260MP8NECOK3IPEI08WS2JOFB&c=365633&tp_c=365633","firstResponseHeads":8,"firstResponseTails":2,"secondResponseHeads":1,"secondResponseTails":1,"totalHeads":9,"totalTails":3,"studentIndex":18,"studentTrueHypers":{"a":2,"b":8},"studentGuess":0.5,"delta":0,"bonus":0.26,"bonusSoFar":1.68,"totalExamples":12},{"rt":8443,"response":{"heads":"4","tails":"1"},"type":"response","condition":"seqNoFeedback","trueTheta":0.8,"classrooms":["A","B"],"studentTrueClassroom":"B","exampleSet":"first","trial_type":"survey-html-form","trial_index":159,"time_elapsed":1446730,"internal_node_id":"0.0-152.0-0.0","params":{"nStudents":24,"maxFlips":25,"completionMinutes":45,"basePay":8,"maxBonus":9,"perTrialBonus":0.5,"perTrialBonusThreshold":0.05,"exampleCost":0.02},"classroomParams":{"A":{"a":1,"b":4},"B":{"a":4,"b":1},"C":{"a":2,"b":8},"D":{"a":8,"b":2}},"conditions":["nonSeqFull","nonSeqPartial","seqNoFeedback","seqFeedback"],"classroomPairings":[["A","B"],["C","D"]],"coinWeights":[0.2,0.5,0.8],"subjectId":"A6Y7SZU9L301W","assignmentId":"3NC5L260MP8NECOK3IPEI08WS2JOFB","hitId":"3XUY87HIVP03YZXVLN9CW37DVI1MM2","url":"https://gershmanlab.com/experiments/alicia/teaching/experiment/?hitId=3XUY87HIVP03YZXVLN9CW37DVI1MM2&workerId=A6Y7SZU9L301W&assignmentId=3NC5L260MP8NECOK3IPEI08WS2JOFB&a=0LCN3&tp_a=0LCN3&b=3NC5L260MP8NECOK3IPEI08WS2JOFB&tp_b=3NC5L260MP8NECOK3IPEI08WS2JOFB&c=365633&tp_c=365633","heads":4,"tails":1,"studentIndex":19,"studentTrueHypers":{"a":4,"b":1},"studentGuess":0.8,"delta":0,"totalExamples":5,"bonusSoFar":1.68},{"rt":10965,"response":{"heads":"6","tails":"1"},"type":"response","condition":"seqNoFeedback","trueTheta":0.8,"classrooms":["A","B"],"studentTrueClassroom":"B","exampleSet":"second","trial_type":"survey-html-form","trial_index":162,"time_elapsed":1465200,"internal_node_id":"0.0-155.0-0.0","params":{"nStudents":24,"maxFlips":25,"completionMinutes":45,"basePay":8,"maxBonus":9,"perTrialBonus":0.5,"perTrialBonusThreshold":0.05,"exampleCost":0.02},"classroomParams":{"A":{"a":1,"b":4},"B":{"a":4,"b":1},"C":{"a":2,"b":8},"D":{"a":8,"b":2}},"conditions":["nonSeqFull","nonSeqPartial","seqNoFeedback","seqFeedback"],"classroomPairings":[["A","B"],["C","D"]],"coinWeights":[0.2,0.5,0.8],"subjectId":"A6Y7SZU9L301W","assignmentId":"3NC5L260MP8NECOK3IPEI08WS2JOFB","hitId":"3XUY87HIVP03YZXVLN9CW37DVI1MM2","url":"https://gershmanlab.com/experiments/alicia/teaching/experiment/?hitId=3XUY87HIVP03YZXVLN9CW37DVI1MM2&workerId=A6Y7SZU9L301W&assignmentId=3NC5L260MP8NECOK3IPEI08WS2JOFB&a=0LCN3&tp_a=0LCN3&b=3NC5L260MP8NECOK3IPEI08WS2JOFB&tp_b=3NC5L260MP8NECOK3IPEI08WS2JOFB&c=365633&tp_c=365633","firstResponseHeads":4,"firstResponseTails":1,"secondResponseHeads":6,"secondResponseTails":1,"totalHeads":10,"totalTails":2,"studentIndex":19,"studentTrueHypers":{"a":4,"b":1},"studentGuess":0.8235294117647058,"delta":0.0235294117647058,"bonus":0.26,"bonusSoFar":1.94,"totalExamples":12},{"rt":10823,"response":{"heads":"0","tails":"8"},"type":"response","condition":"nonSeqFull","trueTheta":0.2,"classrooms":["C","D"],"studentTrueClassroom":"D","exampleSet":"first","trial_type":"survey-html-form","trial_index":168,"time_elapsed":1489789,"internal_node_id":"0.0-161.0-0.0","params":{"nStudents":24,"maxFlips":25,"completionMinutes":45,"basePay":8,"maxBonus":9,"perTrialBonus":0.5,"perTrialBonusThreshold":0.05,"exampleCost":0.02},"classroomParams":{"A":{"a":1,"b":4},"B":{"a":4,"b":1},"C":{"a":2,"b":8},"D":{"a":8,"b":2}},"conditions":["nonSeqFull","nonSeqPartial","seqNoFeedback","seqFeedback"],"classroomPairings":[["A","B"],["C","D"]],"coinWeights":[0.2,0.5,0.8],"subjectId":"A6Y7SZU9L301W","assignmentId":"3NC5L260MP8NECOK3IPEI08WS2JOFB","hitId":"3XUY87HIVP03YZXVLN9CW37DVI1MM2","url":"https://gershmanlab.com/experiments/alicia/teaching/experiment/?hitId=3XUY87HIVP03YZXVLN9CW37DVI1MM2&workerId=A6Y7SZU9L301W&assignmentId=3NC5L260MP8NECOK3IPEI08WS2JOFB&a=0LCN3&tp_a=0LCN3&b=3NC5L260MP8NECOK3IPEI08WS2JOFB&tp_b=3NC5L260MP8NECOK3IPEI08WS2JOFB&c=365633&tp_c=365633","heads":0,"tails":8,"studentIndex":20,"studentTrueHypers":{"a":8,"b":2},"studentGuess":0.4444444444444444,"delta":0.2444444444444444,"totalExamples":8,"bonus":0,"bonusSoFar":1.94},{"rt":7061,"response":{"heads":"5","tails":"0"},"type":"response","condition":"seqNoFeedback","trueTheta":0.8,"classrooms":["C","D"],"studentTrueClassroom":"D","exampleSet":"first","trial_type":"survey-html-form","trial_index":174,"time_elapsed":1514387,"internal_node_id":"0.0-167.0-0.0","params":{"nStudents":24,"maxFlips":25,"completionMinutes":45,"basePay":8,"maxBonus":9,"perTrialBonus":0.5,"perTrialBonusThreshold":0.05,"exampleCost":0.02},"classroomParams":{"A":{"a":1,"b":4},"B":{"a":4,"b":1},"C":{"a":2,"b":8},"D":{"a":8,"b":2}},"conditions":["nonSeqFull","nonSeqPartial","seqNoFeedback","seqFeedback"],"classroomPairings":[["A","B"],["C","D"]],"coinWeights":[0.2,0.5,0.8],"subjectId":"A6Y7SZU9L301W","assignmentId":"3NC5L260MP8NECOK3IPEI08WS2JOFB","hitId":"3XUY87HIVP03YZXVLN9CW37DVI1MM2","url":"https://gershmanlab.com/experiments/alicia/teaching/experiment/?hitId=3XUY87HIVP03YZXVLN9CW37DVI1MM2&workerId=A6Y7SZU9L301W&assignmentId=3NC5L260MP8NECOK3IPEI08WS2JOFB&a=0LCN3&tp_a=0LCN3&b=3NC5L260MP8NECOK3IPEI08WS2JOFB&tp_b=3NC5L260MP8NECOK3IPEI08WS2JOFB&c=365633&tp_c=365633","heads":5,"tails":0,"studentIndex":21,"studentTrueHypers":{"a":8,"b":2},"studentGuess":0.8666666666666667,"delta":0.06666666666666665,"totalExamples":5,"bonusSoFar":1.94},{"rt":3350,"response":{"heads":"5","tails":"0"},"type":"response","condition":"seqNoFeedback","trueTheta":0.8,"classrooms":["C","D"],"studentTrueClassroom":"D","exampleSet":"second","trial_type":"survey-html-form","trial_index":177,"time_elapsed":1525240,"internal_node_id":"0.0-170.0-0.0","params":{"nStudents":24,"maxFlips":25,"completionMinutes":45,"basePay":8,"maxBonus":9,"perTrialBonus":0.5,"perTrialBonusThreshold":0.05,"exampleCost":0.02},"classroomParams":{"A":{"a":1,"b":4},"B":{"a":4,"b":1},"C":{"a":2,"b":8},"D":{"a":8,"b":2}},"conditions":["nonSeqFull","nonSeqPartial","seqNoFeedback","seqFeedback"],"classroomPairings":[["A","B"],["C","D"]],"coinWeights":[0.2,0.5,0.8],"subjectId":"A6Y7SZU9L301W","assignmentId":"3NC5L260MP8NECOK3IPEI08WS2JOFB","hitId":"3XUY87HIVP03YZXVLN9CW37DVI1MM2","url":"https://gershmanlab.com/experiments/alicia/teaching/experiment/?hitId=3XUY87HIVP03YZXVLN9CW37DVI1MM2&workerId=A6Y7SZU9L301W&assignmentId=3NC5L260MP8NECOK3IPEI08WS2JOFB&a=0LCN3&tp_a=0LCN3&b=3NC5L260MP8NECOK3IPEI08WS2JOFB&tp_b=3NC5L260MP8NECOK3IPEI08WS2JOFB&c=365633&tp_c=365633","firstResponseHeads":5,"firstResponseTails":0,"secondResponseHeads":5,"secondResponseTails":0,"totalHeads":10,"totalTails":0,"studentIndex":21,"studentTrueHypers":{"a":8,"b":2},"studentGuess":0.9,"delta":0.09999999999999998,"bonus":0,"bonusSoFar":1.94,"totalExamples":10},{"rt":6186,"response":{"heads":"0","tails":"10"},"type":"response","condition":"nonSeqPartial","trueTheta":0.2,"classrooms":["C","D"],"studentTrueClassroom":"D","exampleSet":"first","trial_type":"survey-html-form","trial_index":183,"time_elapsed":1547681,"internal_node_id":"0.0-176.0-0.0","params":{"nStudents":24,"maxFlips":25,"completionMinutes":45,"basePay":8,"maxBonus":9,"perTrialBonus":0.5,"perTrialBonusThreshold":0.05,"exampleCost":0.02},"classroomParams":{"A":{"a":1,"b":4},"B":{"a":4,"b":1},"C":{"a":2,"b":8},"D":{"a":8,"b":2}},"conditions":["nonSeqFull","nonSeqPartial","seqNoFeedback","seqFeedback"],"classroomPairings":[["A","B"],["C","D"]],"coinWeights":[0.2,0.5,0.8],"subjectId":"A6Y7SZU9L301W","assignmentId":"3NC5L260MP8NECOK3IPEI08WS2JOFB","hitId":"3XUY87HIVP03YZXVLN9CW37DVI1MM2","url":"https://gershmanlab.com/experiments/alicia/teaching/experiment/?hitId=3XUY87HIVP03YZXVLN9CW37DVI1MM2&workerId=A6Y7SZU9L301W&assignmentId=3NC5L260MP8NECOK3IPEI08WS2JOFB&a=0LCN3&tp_a=0LCN3&b=3NC5L260MP8NECOK3IPEI08WS2JOFB&tp_b=3NC5L260MP8NECOK3IPEI08WS2JOFB&c=365633&tp_c=365633","heads":0,"tails":10,"studentIndex":22,"studentTrueHypers":{"a":8,"b":2},"studentGuess":0.4,"delta":0.2,"totalExamples":10,"bonus":0,"bonusSoFar":1.94},{"rt":6266,"response":{"heads":"0","tails":"10"},"type":"response","condition":"seqFeedback","trueTheta":0.2,"classrooms":["A","B"],"studentTrueClassroom":"A","exampleSet":"first","trial_type":"survey-html-form","trial_index":189,"time_elapsed":1569420,"internal_node_id":"0.0-182.0-0.0","params":{"nStudents":24,"maxFlips":25,"completionMinutes":45,"basePay":8,"maxBonus":9,"perTrialBonus":0.5,"perTrialBonusThreshold":0.05,"exampleCost":0.02},"classroomParams":{"A":{"a":1,"b":4},"B":{"a":4,"b":1},"C":{"a":2,"b":8},"D":{"a":8,"b":2}},"conditions":["nonSeqFull","nonSeqPartial","seqNoFeedback","seqFeedback"],"classroomPairings":[["A","B"],["C","D"]],"coinWeights":[0.2,0.5,0.8],"subjectId":"A6Y7SZU9L301W","assignmentId":"3NC5L260MP8NECOK3IPEI08WS2JOFB","hitId":"3XUY87HIVP03YZXVLN9CW37DVI1MM2","url":"https://gershmanlab.com/experiments/alicia/teaching/experiment/?hitId=3XUY87HIVP03YZXVLN9CW37DVI1MM2&workerId=A6Y7SZU9L301W&assignmentId=3NC5L260MP8NECOK3IPEI08WS2JOFB&a=0LCN3&tp_a=0LCN3&b=3NC5L260MP8NECOK3IPEI08WS2JOFB&tp_b=3NC5L260MP8NECOK3IPEI08WS2JOFB&c=365633&tp_c=365633","heads":0,"tails":10,"studentIndex":23,"studentTrueHypers":{"a":1,"b":4},"studentGuess":0.06666666666666667,"delta":0.13333333333333336,"totalExamples":10,"bonusSoFar":1.94},{"rt":7153,"response":{"heads":"2","tails":"0"},"type":"response","condition":"seqFeedback","trueTheta":0.2,"classrooms":["A","B"],"studentTrueClassroom":"A","exampleSet":"second","trial_type":"survey-html-form","trial_index":193,"time_elapsed":1586898,"internal_node_id":"0.0-186.0-0.0","params":{"nStudents":24,"maxFlips":25,"completionMinutes":45,"basePay":8,"maxBonus":9,"perTrialBonus":0.5,"perTrialBonusThreshold":0.05,"exampleCost":0.02},"classroomParams":{"A":{"a":1,"b":4},"B":{"a":4,"b":1},"C":{"a":2,"b":8},"D":{"a":8,"b":2}},"conditions":["nonSeqFull","nonSeqPartial","seqNoFeedback","seqFeedback"],"classroomPairings":[["A","B"],["C","D"]],"coinWeights":[0.2,0.5,0.8],"subjectId":"A6Y7SZU9L301W","assignmentId":"3NC5L260MP8NECOK3IPEI08WS2JOFB","hitId":"3XUY87HIVP03YZXVLN9CW37DVI1MM2","url":"https://gershmanlab.com/experiments/alicia/teaching/experiment/?hitId=3XUY87HIVP03YZXVLN9CW37DVI1MM2&workerId=A6Y7SZU9L301W&assignmentId=3NC5L260MP8NECOK3IPEI08WS2JOFB&a=0LCN3&tp_a=0LCN3&b=3NC5L260MP8NECOK3IPEI08WS2JOFB&tp_b=3NC5L260MP8NECOK3IPEI08WS2JOFB&c=365633&tp_c=365633","firstResponseHeads":0,"firstResponseTails":10,"secondResponseHeads":2,"secondResponseTails":0,"totalHeads":2,"totalTails":10,"studentIndex":23,"studentTrueHypers":{"a":1,"b":4},"studentGuess":0.17647058823529413,"delta":0.023529411764705882,"bonus":0.26,"bonusSoFar":2.2,"totalExamples":12},{"rt":41610,"response":{"gender":"male","age":"42","understood":"yes","comments":"Very interesting task. Only got the hang of it toward the end, so perhaps some practice rounds beforehand just to get a general idea of the task."},"type":"response","trial_type":"survey-html-form","trial_index":197,"time_elapsed":1638341,"internal_node_id":"0.0-191.0","params":{"nStudents":24,"maxFlips":25,"completionMinutes":45,"basePay":8,"maxBonus":9,"perTrialBonus":0.5,"perTrialBonusThreshold":0.05,"exampleCost":0.02},"classroomParams":{"A":{"a":1,"b":4},"B":{"a":4,"b":1},"C":{"a":2,"b":8},"D":{"a":8,"b":2}},"conditions":["nonSeqFull","nonSeqPartial","seqNoFeedback","seqFeedback"],"classroomPairings":[["A","B"],["C","D"]],"coinWeights":[0.2,0.5,0.8],"subjectId":"A6Y7SZU9L301W","assignmentId":"3NC5L260MP8NECOK3IPEI08WS2JOFB","hitId":"3XUY87HIVP03YZXVLN9CW37DVI1MM2","url":"https://gershmanlab.com/experiments/alicia/teaching/experiment/?hitId=3XUY87HIVP03YZXVLN9CW37DVI1MM2&workerId=A6Y7SZU9L301W&assignmentId=3NC5L260MP8NECOK3IPEI08WS2JOFB&a=0LCN3&tp_a=0LCN3&b=3NC5L260MP8NECOK3IPEI08WS2JOFB&tp_b=3NC5L260MP8NECOK3IPEI08WS2JOFB&c=365633&tp_c=365633","totalBonus":2.2}]