[{"rt":21261,"response":{"heads":"1","tails":"4"},"type":"response","condition":"nonSeqFull","trueTheta":0.2,"classrooms":["A","B"],"studentTrueClassroom":"A","exampleSet":"first","trial_type":"survey-html-form","trial_index":7,"time_elapsed":230438,"internal_node_id":"0.0-6.0-0.0","params":{"nStudents":24,"maxFlips":25,"completionMinutes":45,"basePay":8,"maxBonus":9,"perTrialBonus":0.5,"perTrialBonusThreshold":0.05,"exampleCost":0.02},"classroomParams":{"A":{"a":1,"b":4},"B":{"a":4,"b":1},"C":{"a":2,"b":8},"D":{"a":8,"b":2}},"conditions":["nonSeqFull","nonSeqPartial","seqNoFeedback","seqFeedback"],"classroomPairings":[["A","B"],["C","D"]],"coinWeights":[0.2,0.5,0.8],"subjectId":"A88DXNDGDUWEN","assignmentId":"32Z9ZLUT1M67S8FQY8DELLK98HWOH9","hitId":"3IH9TRB0FBLK6RLF7MSMKICTGYN1IU","url":"https://gershmanlab.com/experiments/alicia/teaching/experiment/?hitId=3IH9TRB0FBLK6RLF7MSMKICTGYN1IU&workerId=A88DXNDGDUWEN&assignmentId=32Z9ZLUT1M67S8FQY8DELLK98HWOH9&a=TZZ23&tp_a=TZZ23&b=32Z9ZLUT1M67S8FQY8DELLK98HWOH9&tp_b=32Z9ZLUT1M67S8FQY8DELLK98HWOH9&c=365633&tp_c=365633","heads":1,"tails":4,"studentIndex":0,"studentTrueHypers":{"a":1,"b":4},"studentGuess":0.2,"delta":0,"totalExamples":5,"bonus":0.4,"bonusSoFar":0.4},{"rt":14538,"response":{"heads":"2","tails":"8"},"type":"response","condition":"nonSeqPartial","trueTheta":0.2,"classrooms":["A","B"],"studentTrueClassroom":"A","exampleSet":"first","trial_type":"survey-html-form","trial_index":13,"time_elapsed":260171,"internal_node_id":"0.0-12.0-0.0","params":{"nStudents":24,"maxFlips":25,"completionMinutes":45,"basePay":8,"maxBonus":9,"perTrialBonus":0.5,"perTrialBonusThreshold":0.05,"exampleCost":0.02},"classroomParams":{"A":{"a":1,"b":4},"B":{"a":4,"b":1},"C":{"a":2,"b":8},"D":{"a":8,"b":2}},"conditions":["nonSeqFull","nonSeqPartial","seqNoFeedback","seqFeedback"],"classroomPairings":[["A","B"],["C","D"]],"coinWeights":[0.2,0.5,0.8],"subjectId":"A88DXNDGDUWEN","assignmentId":"32Z9ZLUT1M67S8FQY8DELLK98HWOH9","hitId":"3IH9TRB0FBLK6RLF7MSMKICTGYN1IU","url":"https://gershmanlab.com/experiments/alicia/teaching/experiment/?hitId=3IH9TRB0FBLK6RLF7MSMKICTGYN1IU&workerId=A88DXNDGDUWEN&assignmentId=32Z9ZLUT1M67S8FQY8DELLK98HWOH9&a=TZZ23&tp_a=TZZ23&b=32Z9ZLUT1M67S8FQY8DELLK98HWOH9&tp_b=32Z9ZLUT1M67S8FQY8DELLK98HWOH9&c=365633&tp_c=365633","heads":2,"tails":8,"studentIndex":1,"studentTrueHypers":{"a":1,"b":4},"studentGuess":0.2,"delta":0,"totalExamples":10,"bonus":0.3,"bonusSoFar":0.7},{"rt":9637,"response":{"heads":"4","tails":"1"},"type":"response","condition":"seqNoFeedback","trueTheta":0.8,"classrooms":["A","B"],"studentTrueClassroom":"A","exampleSet":"first","trial_type":"survey-html-form","trial_index":19,"time_elapsed":284809,"internal_node_id":"0.0-18.0-0.0","params":{"nStudents":24,"maxFlips":25,"completionMinutes":45,"basePay":8,"maxBonus":9,"perTrialBonus":0.5,"perTrialBonusThreshold":0.05,"exampleCost":0.02},"classroomParams":{"A":{"a":1,"b":4},"B":{"a":4,"b":1},"C":{"a":2,"b":8},"D":{"a":8,"b":2}},"conditions":["nonSeqFull","nonSeqPartial","seqNoFeedback","seqFeedback"],"classroomPairings":[["A","B"],["C","D"]],"coinWeights":[0.2,0.5,0.8],"subjectId":"A88DXNDGDUWEN","assignmentId":"32Z9ZLUT1M67S8FQY8DELLK98HWOH9","hitId":"3IH9TRB0FBLK6RLF7MSMKICTGYN1IU","url":"https://gershmanlab.com/experiments/alicia/teaching/experiment/?hitId=3IH9TRB0FBLK6RLF7MSMKICTGYN1IU&workerId=A88DXNDGDUWEN&assignmentId=32Z9ZLUT1M67S8FQY8DELLK98HWOH9&a=TZZ23&tp_a=TZZ23&b=32Z9ZLUT1M67S8FQY8DELLK98HWOH9&tp_b=32Z9ZLUT1M67S8FQY8DELLK98HWOH9&c=365633&tp_c=365633","heads":4,"tails":1,"studentIndex":2,"studentTrueHypers":{"a":1,"b":4},"studentGuess":0.5,"delta":0.30000000000000004,"totalExamples":5,"bonusSoFar":0.7},{"rt":13902,"response":{"heads":"8","tails":"2"},"type":"response","condition":"seqNoFeedback","trueTheta":0.8,"classrooms":["A","B"],"studentTrueClassroom":"A","exampleSet":"second","trial_type":"survey-html-form","trial_index":22,"time_elapsed":304478,"internal_node_id":"0.0-21.0-0.0","params":{"nStudents":24,"maxFlips":25,"completionMinutes":45,"basePay":8,"maxBonus":9,"perTrialBonus":0.5,"perTrialBonusThreshold":0.05,"exampleCost":0.02},"classroomParams":{"A":{"a":1,"b":4},"B":{"a":4,"b":1},"C":{"a":2,"b":8},"D":{"a":8,"b":2}},"conditions":["nonSeqFull","nonSeqPartial","seqNoFeedback","seqFeedback"],"classroomPairings":[["A","B"],["C","D"]],"coinWeights":[0.2,0.5,0.8],"subjectId":"A88DXNDGDUWEN","assignmentId":"32Z9ZLUT1M67S8FQY8DELLK98HWOH9","hitId":"3IH9TRB0FBLK6RLF7MSMKICTGYN1IU","url":"https://gershmanlab.com/experiments/alicia/teaching/experiment/?hitId=3IH9TRB0FBLK6RLF7MSMKICTGYN1IU&workerId=A88DXNDGDUWEN&assignmentId=32Z9ZLUT1M67S8FQY8DELLK98HWOH9&a=TZZ23&tp_a=TZZ23&b=32Z9ZLUT1M67S8FQY8DELLK98HWOH9&tp_b=32Z9ZLUT1M67S8FQY8DELLK98HWOH9&c=365633&tp_c=365633","firstResponseHeads":4,"firstResponseTails":1,"secondResponseHeads":8,"secondResponseTails":2,"totalHeads":12,"totalTails":3,"studentIndex":2,"studentTrueHypers":{"a":1,"b":4},"studentGuess":0.65,"delta":0.15000000000000002,"bonus":0,"bonusSoFar":0.7,"totalExamples":15},{"rt":11119,"response":{"heads":"2","tails":"8"},"type":"response","condition":"seqNoFeedback","trueTheta":0.2,"classrooms":["C","D"],"studentTrueClassroom":"C","exampleSet":"first","trial_type":"survey-html-form","trial_index":28,"time_elapsed":332091,"internal_node_id":"0.0-27.0-0.0","params":{"nStudents":24,"maxFlips":25,"completionMinutes":45,"basePay":8,"maxBonus":9,"perTrialBonus":0.5,"perTrialBonusThreshold":0.05,"exampleCost":0.02},"classroomParams":{"A":{"a":1,"b":4},"B":{"a":4,"b":1},"C":{"a":2,"b":8},"D":{"a":8,"b":2}},"conditions":["nonSeqFull","nonSeqPartial","seqNoFeedback","seqFeedback"],"classroomPairings":[["A","B"],["C","D"]],"coinWeights":[0.2,0.5,0.8],"subjectId":"A88DXNDGDUWEN","assignmentId":"32Z9ZLUT1M67S8FQY8DELLK98HWOH9","hitId":"3IH9TRB0FBLK6RLF7MSMKICTGYN1IU","url":"https://gershmanlab.com/experiments/alicia/teaching/experiment/?hitId=3IH9TRB0FBLK6RLF7MSMKICTGYN1IU&workerId=A88DXNDGDUWEN&assignmentId=32Z9ZLUT1M67S8FQY8DELLK98HWOH9&a=TZZ23&tp_a=TZZ23&b=32Z9ZLUT1M67S8FQY8DELLK98HWOH9&tp_b=32Z9ZLUT1M67S8FQY8DELLK98HWOH9&c=365633&tp_c=365633","heads":2,"tails":8,"studentIndex":3,"studentTrueHypers":{"a":2,"b":8},"studentGuess":0.2,"delta":0,"totalExamples":10,"bonusSoFar":0.7},{"rt":6465,"response":{"heads":"1","tails":"4"},"type":"response","condition":"seqNoFeedback","trueTheta":0.2,"classrooms":["C","D"],"studentTrueClassroom":"C","exampleSet":"second","trial_type":"survey-html-form","trial_index":31,"time_elapsed":345825,"internal_node_id":"0.0-30.0-0.0","params":{"nStudents":24,"maxFlips":25,"completionMinutes":45,"basePay":8,"maxBonus":9,"perTrialBonus":0.5,"perTrialBonusThreshold":0.05,"exampleCost":0.02},"classroomParams":{"A":{"a":1,"b":4},"B":{"a":4,"b":1},"C":{"a":2,"b":8},"D":{"a":8,"b":2}},"conditions":["nonSeqFull","nonSeqPartial","seqNoFeedback","seqFeedback"],"classroomPairings":[["A","B"],["C","D"]],"coinWeights":[0.2,0.5,0.8],"subjectId":"A88DXNDGDUWEN","assignmentId":"32Z9ZLUT1M67S8FQY8DELLK98HWOH9","hitId":"3IH9TRB0FBLK6RLF7MSMKICTGYN1IU","url":"https://gershmanlab.com/experiments/alicia/teaching/experiment/?hitId=3IH9TRB0FBLK6RLF7MSMKICTGYN1IU&workerId=A88DXNDGDUWEN&assignmentId=32Z9ZLUT1M67S8FQY8DELLK98HWOH9&a=TZZ23&tp_a=TZZ23&b=32Z9ZLUT1M67S8FQY8DELLK98HWOH9&tp_b=32Z9ZLUT1M67S8FQY8DELLK98HWOH9&c=365633&tp_c=365633","firstResponseHeads":2,"firstResponseTails":8,"secondResponseHeads":1,"secondResponseTails":4,"totalHeads":3,"totalTails":12,"studentIndex":3,"studentTrueHypers":{"a":2,"b":8},"studentGuess":0.2,"delta":0,"bonus":0.2,"bonusSoFar":0.9,"totalExamples":15},{"rt":14793,"response":{"heads":"16","tails":"4"},"type":"response","condition":"nonSeqPartial","trueTheta":0.8,"classrooms":["C","D"],"studentTrueClassroom":"C","exampleSet":"first","trial_type":"survey-html-form","trial_index":37,"time_elapsed":374311,"internal_node_id":"0.0-36.0-0.0","params":{"nStudents":24,"maxFlips":25,"completionMinutes":45,"basePay":8,"maxBonus":9,"perTrialBonus":0.5,"perTrialBonusThreshold":0.05,"exampleCost":0.02},"classroomParams":{"A":{"a":1,"b":4},"B":{"a":4,"b":1},"C":{"a":2,"b":8},"D":{"a":8,"b":2}},"conditions":["nonSeqFull","nonSeqPartial","seqNoFeedback","seqFeedback"],"classroomPairings":[["A","B"],["C","D"]],"coinWeights":[0.2,0.5,0.8],"subjectId":"A88DXNDGDUWEN","assignmentId":"32Z9ZLUT1M67S8FQY8DELLK98HWOH9","hitId":"3IH9TRB0FBLK6RLF7MSMKICTGYN1IU","url":"https://gershmanlab.com/experiments/alicia/teaching/experiment/?hitId=3IH9TRB0FBLK6RLF7MSMKICTGYN1IU&workerId=A88DXNDGDUWEN&assignmentId=32Z9ZLUT1M67S8FQY8DELLK98HWOH9&a=TZZ23&tp_a=TZZ23&b=32Z9ZLUT1M67S8FQY8DELLK98HWOH9&tp_b=32Z9ZLUT1M67S8FQY8DELLK98HWOH9&c=365633&tp_c=365633","heads":16,"tails":4,"studentIndex":4,"studentTrueHypers":{"a":2,"b":8},"studentGuess":0.6,"delta":0.20000000000000007,"totalExamples":20,"bonus":0,"bonusSoFar":0.9},{"rt":9262,"response":{"heads":"1","tails":"4"},"type":"response","condition":"seqFeedback","trueTheta":0.2,"classrooms":["C","D"],"studentTrueClassroom":"C","exampleSet":"first","trial_type":"survey-html-form","trial_index":43,"time_elapsed":399532,"internal_node_id":"0.0-42.0-0.0","params":{"nStudents":24,"maxFlips":25,"completionMinutes":45,"basePay":8,"maxBonus":9,"perTrialBonus":0.5,"perTrialBonusThreshold":0.05,"exampleCost":0.02},"classroomParams":{"A":{"a":1,"b":4},"B":{"a":4,"b":1},"C":{"a":2,"b":8},"D":{"a":8,"b":2}},"conditions":["nonSeqFull","nonSeqPartial","seqNoFeedback","seqFeedback"],"classroomPairings":[["A","B"],["C","D"]],"coinWeights":[0.2,0.5,0.8],"subjectId":"A88DXNDGDUWEN","assignmentId":"32Z9ZLUT1M67S8FQY8DELLK98HWOH9","hitId":"3IH9TRB0FBLK6RLF7MSMKICTGYN1IU","url":"https://gershmanlab.com/experiments/alicia/teaching/experiment/?hitId=3IH9TRB0FBLK6RLF7MSMKICTGYN1IU&workerId=A88DXNDGDUWEN&assignmentId=32Z9ZLUT1M67S8FQY8DELLK98HWOH9&a=TZZ23&tp_a=TZZ23&b=32Z9ZLUT1M67S8FQY8DELLK98HWOH9&tp_b=32Z9ZLUT1M67S8FQY8DELLK98HWOH9&c=365633&tp_c=365633","heads":1,"tails":4,"studentIndex":5,"studentTrueHypers":{"a":2,"b":8},"studentGuess":0.2,"delta":0,"totalExamples":5,"bonusSoFar":0.9},{"rt":6598,"response":{"heads":"1","tails":"4"},"type":"response","condition":"seqFeedback","trueTheta":0.2,"classrooms":["C","D"],"studentTrueClassroom":"C","exampleSet":"second","trial_type":"survey-html-form","trial_index":47,"time_elapsed":417227,"internal_node_id":"0.0-46.0-0.0","params":{"nStudents":24,"maxFlips":25,"completionMinutes":45,"basePay":8,"maxBonus":9,"perTrialBonus":0.5,"perTrialBonusThreshold":0.05,"exampleCost":0.02},"classroomParams":{"A":{"a":1,"b":4},"B":{"a":4,"b":1},"C":{"a":2,"b":8},"D":{"a":8,"b":2}},"conditions":["nonSeqFull","nonSeqPartial","seqNoFeedback","seqFeedback"],"classroomPairings":[["A","B"],["C","D"]],"coinWeights":[0.2,0.5,0.8],"subjectId":"A88DXNDGDUWEN","assignmentId":"32Z9ZLUT1M67S8FQY8DELLK98HWOH9","hitId":"3IH9TRB0FBLK6RLF7MSMKICTGYN1IU","url":"https://gershmanlab.com/experiments/alicia/teaching/experiment/?hitId=3IH9TRB0FBLK6RLF7MSMKICTGYN1IU&workerId=A88DXNDGDUWEN&assignmentId=32Z9ZLUT1M67S8FQY8DELLK98HWOH9&a=TZZ23&tp_a=TZZ23&b=32Z9ZLUT1M67S8FQY8DELLK98HWOH9&tp_b=32Z9ZLUT1M67S8FQY8DELLK98HWOH9&c=365633&tp_c=365633","firstResponseHeads":1,"firstResponseTails":4,"secondResponseHeads":1,"secondResponseTails":4,"totalHeads":2,"totalTails":8,"studentIndex":5,"studentTrueHypers":{"a":2,"b":8},"studentGuess":0.2,"delta":0,"bonus":0.3,"bonusSoFar":1.2,"totalExamples":10},{"rt":16144,"response":{"heads":"0","tails":"6"},"type":"response","condition":"nonSeqFull","trueTheta":0.5,"classrooms":["C","D"],"studentTrueClassroom":"D","exampleSet":"first","trial_type":"survey-html-form","trial_index":53,"time_elapsed":446260,"internal_node_id":"0.0-52.0-0.0","params":{"nStudents":24,"maxFlips":25,"completionMinutes":45,"basePay":8,"maxBonus":9,"perTrialBonus":0.5,"perTrialBonusThreshold":0.05,"exampleCost":0.02},"classroomParams":{"A":{"a":1,"b":4},"B":{"a":4,"b":1},"C":{"a":2,"b":8},"D":{"a":8,"b":2}},"conditions":["nonSeqFull","nonSeqPartial","seqNoFeedback","seqFeedback"],"classroomPairings":[["A","B"],["C","D"]],"coinWeights":[0.2,0.5,0.8],"subjectId":"A88DXNDGDUWEN","assignmentId":"32Z9ZLUT1M67S8FQY8DELLK98HWOH9","hitId":"3IH9TRB0FBLK6RLF7MSMKICTGYN1IU","url":"https://gershmanlab.com/experiments/alicia/teaching/experiment/?hitId=3IH9TRB0FBLK6RLF7MSMKICTGYN1IU&workerId=A88DXNDGDUWEN&assignmentId=32Z9ZLUT1M67S8FQY8DELLK98HWOH9&a=TZZ23&tp_a=TZZ23&b=32Z9ZLUT1M67S8FQY8DELLK98HWOH9&tp_b=32Z9ZLUT1M67S8FQY8DELLK98HWOH9&c=365633&tp_c=365633","heads":0,"tails":6,"studentIndex":6,"studentTrueHypers":{"a":8,"b":2},"studentGuess":0.5,"delta":0,"totalExamples":6,"bonus":0.38,"bonusSoFar":1.58},{"rt":24935,"response":{"heads":"0","tails":"5"},"type":"response","condition":"seqFeedback","trueTheta":0.2,"classrooms":["A","B"],"studentTrueClassroom":"B","exampleSet":"first","trial_type":"survey-html-form","trial_index":59,"time_elapsed":490232,"internal_node_id":"0.0-58.0-0.0","params":{"nStudents":24,"maxFlips":25,"completionMinutes":45,"basePay":8,"maxBonus":9,"perTrialBonus":0.5,"perTrialBonusThreshold":0.05,"exampleCost":0.02},"classroomParams":{"A":{"a":1,"b":4},"B":{"a":4,"b":1},"C":{"a":2,"b":8},"D":{"a":8,"b":2}},"conditions":["nonSeqFull","nonSeqPartial","seqNoFeedback","seqFeedback"],"classroomPairings":[["A","B"],["C","D"]],"coinWeights":[0.2,0.5,0.8],"subjectId":"A88DXNDGDUWEN","assignmentId":"32Z9ZLUT1M67S8FQY8DELLK98HWOH9","hitId":"3IH9TRB0FBLK6RLF7MSMKICTGYN1IU","url":"https://gershmanlab.com/experiments/alicia/teaching/experiment/?hitId=3IH9TRB0FBLK6RLF7MSMKICTGYN1IU&workerId=A88DXNDGDUWEN&assignmentId=32Z9ZLUT1M67S8FQY8DELLK98HWOH9&a=TZZ23&tp_a=TZZ23&b=32Z9ZLUT1M67S8FQY8DELLK98HWOH9&tp_b=32Z9ZLUT1M67S8FQY8DELLK98HWOH9&c=365633&tp_c=365633","heads":0,"tails":5,"studentIndex":7,"studentTrueHypers":{"a":4,"b":1},"studentGuess":0.4,"delta":0.2,"totalExamples":5,"bonusSoFar":1.58},{"rt":23957,"response":{"heads":"0","tails":"10"},"type":"response","condition":"seqFeedback","trueTheta":0.2,"classrooms":["A","B"],"studentTrueClassroom":"B","exampleSet":"second","trial_type":"survey-html-form","trial_index":63,"time_elapsed":522130,"internal_node_id":"0.0-62.0-0.0","params":{"nStudents":24,"maxFlips":25,"completionMinutes":45,"basePay":8,"maxBonus":9,"perTrialBonus":0.5,"perTrialBonusThreshold":0.05,"exampleCost":0.02},"classroomParams":{"A":{"a":1,"b":4},"B":{"a":4,"b":1},"C":{"a":2,"b":8},"D":{"a":8,"b":2}},"conditions":["nonSeqFull","nonSeqPartial","seqNoFeedback","seqFeedback"],"classroomPairings":[["A","B"],["C","D"]],"coinWeights":[0.2,0.5,0.8],"subjectId":"A88DXNDGDUWEN","assignmentId":"32Z9ZLUT1M67S8FQY8DELLK98HWOH9","hitId":"3IH9TRB0FBLK6RLF7MSMKICTGYN1IU","url":"https://gershmanlab.com/experiments/alicia/teaching/experiment/?hitId=3IH9TRB0FBLK6RLF7MSMKICTGYN1IU&workerId=A88DXNDGDUWEN&assignmentId=32Z9ZLUT1M67S8FQY8DELLK98HWOH9&a=TZZ23&tp_a=TZZ23&b=32Z9ZLUT1M67S8FQY8DELLK98HWOH9&tp_b=32Z9ZLUT1M67S8FQY8DELLK98HWOH9&c=365633&tp_c=365633","firstResponseHeads":0,"firstResponseTails":5,"secondResponseHeads":0,"secondResponseTails":10,"totalHeads":0,"totalTails":15,"studentIndex":7,"studentTrueHypers":{"a":4,"b":1},"studentGuess":0.2,"delta":0,"bonus":0.2,"bonusSoFar":1.78,"totalExamples":15},{"rt":5310,"response":{"heads":"0","tails":"0"},"type":"response","condition":"seqFeedback","trueTheta":0.8,"classrooms":["A","B"],"studentTrueClassroom":"B","exampleSet":"first","trial_type":"survey-html-form","trial_index":69,"time_elapsed":542823,"internal_node_id":"0.0-68.0-0.0","params":{"nStudents":24,"maxFlips":25,"completionMinutes":45,"basePay":8,"maxBonus":9,"perTrialBonus":0.5,"perTrialBonusThreshold":0.05,"exampleCost":0.02},"classroomParams":{"A":{"a":1,"b":4},"B":{"a":4,"b":1},"C":{"a":2,"b":8},"D":{"a":8,"b":2}},"conditions":["nonSeqFull","nonSeqPartial","seqNoFeedback","seqFeedback"],"classroomPairings":[["A","B"],["C","D"]],"coinWeights":[0.2,0.5,0.8],"subjectId":"A88DXNDGDUWEN","assignmentId":"32Z9ZLUT1M67S8FQY8DELLK98HWOH9","hitId":"3IH9TRB0FBLK6RLF7MSMKICTGYN1IU","url":"https://gershmanlab.com/experiments/alicia/teaching/experiment/?hitId=3IH9TRB0FBLK6RLF7MSMKICTGYN1IU&workerId=A88DXNDGDUWEN&assignmentId=32Z9ZLUT1M67S8FQY8DELLK98HWOH9&a=TZZ23&tp_a=TZZ23&b=32Z9ZLUT1M67S8FQY8DELLK98HWOH9&tp_b=32Z9ZLUT1M67S8FQY8DELLK98HWOH9&c=365633&tp_c=365633","heads":0,"tails":0,"studentIndex":8,"studentTrueHypers":{"a":4,"b":1},"studentGuess":0.8,"delta":0,"totalExamples":0,"bonusSoFar":1.78},{"rt":7838,"response":{"heads":"0","tails":"0"},"type":"response","condition":"seqFeedback","trueTheta":0.8,"classrooms":["A","B"],"studentTrueClassroom":"B","exampleSet":"first","trial_type":"survey-html-form","trial_index":70,"time_elapsed":550663,"internal_node_id":"0.0-68.1-0.1","params":{"nStudents":24,"maxFlips":25,"completionMinutes":45,"basePay":8,"maxBonus":9,"perTrialBonus":0.5,"perTrialBonusThreshold":0.05,"exampleCost":0.02},"classroomParams":{"A":{"a":1,"b":4},"B":{"a":4,"b":1},"C":{"a":2,"b":8},"D":{"a":8,"b":2}},"conditions":["nonSeqFull","nonSeqPartial","seqNoFeedback","seqFeedback"],"classroomPairings":[["A","B"],["C","D"]],"coinWeights":[0.2,0.5,0.8],"subjectId":"A88DXNDGDUWEN","assignmentId":"32Z9ZLUT1M67S8FQY8DELLK98HWOH9","hitId":"3IH9TRB0FBLK6RLF7MSMKICTGYN1IU","url":"https://gershmanlab.com/experiments/alicia/teaching/experiment/?hitId=3IH9TRB0FBLK6RLF7MSMKICTGYN1IU&workerId=A88DXNDGDUWEN&assignmentId=32Z9ZLUT1M67S8FQY8DELLK98HWOH9&a=TZZ23&tp_a=TZZ23&b=32Z9ZLUT1M67S8FQY8DELLK98HWOH9&tp_b=32Z9ZLUT1M67S8FQY8DELLK98HWOH9&c=365633&tp_c=365633","heads":0,"tails":0,"studentIndex":8,"studentTrueHypers":{"a":4,"b":1},"studentGuess":0.8,"delta":0,"totalExamples":0,"bonusSoFar":1.78},{"rt":8438,"response":{"heads":"1","tails":"0"},"type":"response","condition":"seqFeedback","trueTheta":0.8,"classrooms":["A","B"],"studentTrueClassroom":"B","exampleSet":"first","trial_type":"survey-html-form","trial_index":71,"time_elapsed":559103,"internal_node_id":"0.0-68.2-0.2","params":{"nStudents":24,"maxFlips":25,"completionMinutes":45,"basePay":8,"maxBonus":9,"perTrialBonus":0.5,"perTrialBonusThreshold":0.05,"exampleCost":0.02},"classroomParams":{"A":{"a":1,"b":4},"B":{"a":4,"b":1},"C":{"a":2,"b":8},"D":{"a":8,"b":2}},"conditions":["nonSeqFull","nonSeqPartial","seqNoFeedback","seqFeedback"],"classroomPairings":[["A","B"],["C","D"]],"coinWeights":[0.2,0.5,0.8],"subjectId":"A88DXNDGDUWEN","assignmentId":"32Z9ZLUT1M67S8FQY8DELLK98HWOH9","hitId":"3IH9TRB0FBLK6RLF7MSMKICTGYN1IU","url":"https://gershmanlab.com/experiments/alicia/teaching/experiment/?hitId=3IH9TRB0FBLK6RLF7MSMKICTGYN1IU&workerId=A88DXNDGDUWEN&assignmentId=32Z9ZLUT1M67S8FQY8DELLK98HWOH9&a=TZZ23&tp_a=TZZ23&b=32Z9ZLUT1M67S8FQY8DELLK98HWOH9&tp_b=32Z9ZLUT1M67S8FQY8DELLK98HWOH9&c=365633&tp_c=365633","heads":1,"tails":0,"studentIndex":8,"studentTrueHypers":{"a":4,"b":1},"studentGuess":0.8333333333333334,"delta":0.033333333333333326,"totalExamples":1,"bonusSoFar":1.78},{"rt":14745,"response":{"heads":"4","tails":"1"},"type":"response","condition":"seqFeedback","trueTheta":0.8,"classrooms":["A","B"],"studentTrueClassroom":"B","exampleSet":"second","trial_type":"survey-html-form","trial_index":75,"time_elapsed":583461,"internal_node_id":"0.0-72.0-0.0","params":{"nStudents":24,"maxFlips":25,"completionMinutes":45,"basePay":8,"maxBonus":9,"perTrialBonus":0.5,"perTrialBonusThreshold":0.05,"exampleCost":0.02},"classroomParams":{"A":{"a":1,"b":4},"B":{"a":4,"b":1},"C":{"a":2,"b":8},"D":{"a":8,"b":2}},"conditions":["nonSeqFull","nonSeqPartial","seqNoFeedback","seqFeedback"],"classroomPairings":[["A","B"],["C","D"]],"coinWeights":[0.2,0.5,0.8],"subjectId":"A88DXNDGDUWEN","assignmentId":"32Z9ZLUT1M67S8FQY8DELLK98HWOH9","hitId":"3IH9TRB0FBLK6RLF7MSMKICTGYN1IU","url":"https://gershmanlab.com/experiments/alicia/teaching/experiment/?hitId=3IH9TRB0FBLK6RLF7MSMKICTGYN1IU&workerId=A88DXNDGDUWEN&assignmentId=32Z9ZLUT1M67S8FQY8DELLK98HWOH9&a=TZZ23&tp_a=TZZ23&b=32Z9ZLUT1M67S8FQY8DELLK98HWOH9&tp_b=32Z9ZLUT1M67S8FQY8DELLK98HWOH9&c=365633&tp_c=365633","firstResponseHeads":0,"firstResponseTails":0,"secondResponseHeads":4,"secondResponseTails":1,"totalHeads":4,"totalTails":1,"studentIndex":8,"studentTrueHypers":{"a":4,"b":1},"studentGuess":0.8,"delta":0,"bonus":0.4,"bonusSoFar":2.18,"totalExamples":5},{"rt":5379,"response":{"heads":"1","tails":"1"},"type":"response","condition":"nonSeqPartial","trueTheta":0.5,"classrooms":["C","D"],"studentTrueClassroom":"C","exampleSet":"first","trial_type":"survey-html-form","trial_index":81,"time_elapsed":601341,"internal_node_id":"0.0-78.0-0.0","params":{"nStudents":24,"maxFlips":25,"completionMinutes":45,"basePay":8,"maxBonus":9,"perTrialBonus":0.5,"perTrialBonusThreshold":0.05,"exampleCost":0.02},"classroomParams":{"A":{"a":1,"b":4},"B":{"a":4,"b":1},"C":{"a":2,"b":8},"D":{"a":8,"b":2}},"conditions":["nonSeqFull","nonSeqPartial","seqNoFeedback","seqFeedback"],"classroomPairings":[["A","B"],["C","D"]],"coinWeights":[0.2,0.5,0.8],"subjectId":"A88DXNDGDUWEN","assignmentId":"32Z9ZLUT1M67S8FQY8DELLK98HWOH9","hitId":"3IH9TRB0FBLK6RLF7MSMKICTGYN1IU","url":"https://gershmanlab.com/experiments/alicia/teaching/experiment/?hitId=3IH9TRB0FBLK6RLF7MSMKICTGYN1IU&workerId=A88DXNDGDUWEN&assignmentId=32Z9ZLUT1M67S8FQY8DELLK98HWOH9&a=TZZ23&tp_a=TZZ23&b=32Z9ZLUT1M67S8FQY8DELLK98HWOH9&tp_b=32Z9ZLUT1M67S8FQY8DELLK98HWOH9&c=365633&tp_c=365633","heads":1,"tails":1,"studentIndex":9,"studentTrueHypers":{"a":2,"b":8},"studentGuess":0.25,"delta":0.25,"totalExamples":2,"bonus":0,"bonusSoFar":2.18},{"rt":10971,"response":{"heads":"1","tails":"4"},"type":"response","condition":"nonSeqFull","trueTheta":0.2,"classrooms":["C","D"],"studentTrueClassroom":"D","exampleSet":"first","trial_type":"survey-html-form","trial_index":87,"time_elapsed":624791,"internal_node_id":"0.0-84.0-0.0","params":{"nStudents":24,"maxFlips":25,"completionMinutes":45,"basePay":8,"maxBonus":9,"perTrialBonus":0.5,"perTrialBonusThreshold":0.05,"exampleCost":0.02},"classroomParams":{"A":{"a":1,"b":4},"B":{"a":4,"b":1},"C":{"a":2,"b":8},"D":{"a":8,"b":2}},"conditions":["nonSeqFull","nonSeqPartial","seqNoFeedback","seqFeedback"],"classroomPairings":[["A","B"],["C","D"]],"coinWeights":[0.2,0.5,0.8],"subjectId":"A88DXNDGDUWEN","assignmentId":"32Z9ZLUT1M67S8FQY8DELLK98HWOH9","hitId":"3IH9TRB0FBLK6RLF7MSMKICTGYN1IU","url":"https://gershmanlab.com/experiments/alicia/teaching/experiment/?hitId=3IH9TRB0FBLK6RLF7MSMKICTGYN1IU&workerId=A88DXNDGDUWEN&assignmentId=32Z9ZLUT1M67S8FQY8DELLK98HWOH9&a=TZZ23&tp_a=TZZ23&b=32Z9ZLUT1M67S8FQY8DELLK98HWOH9&tp_b=32Z9ZLUT1M67S8FQY8DELLK98HWOH9&c=365633&tp_c=365633","heads":1,"tails":4,"studentIndex":10,"studentTrueHypers":{"a":8,"b":2},"studentGuess":0.6,"delta":0.39999999999999997,"totalExamples":5,"bonus":0,"bonusSoFar":2.18},{"rt":6815,"response":{"heads":"1","tails":"0"},"type":"response","condition":"seqNoFeedback","trueTheta":0.8,"classrooms":["C","D"],"studentTrueClassroom":"C","exampleSet":"first","trial_type":"survey-html-form","trial_index":93,"time_elapsed":652242,"internal_node_id":"0.0-90.0-0.0","params":{"nStudents":24,"maxFlips":25,"completionMinutes":45,"basePay":8,"maxBonus":9,"perTrialBonus":0.5,"perTrialBonusThreshold":0.05,"exampleCost":0.02},"classroomParams":{"A":{"a":1,"b":4},"B":{"a":4,"b":1},"C":{"a":2,"b":8},"D":{"a":8,"b":2}},"conditions":["nonSeqFull","nonSeqPartial","seqNoFeedback","seqFeedback"],"classroomPairings":[["A","B"],["C","D"]],"coinWeights":[0.2,0.5,0.8],"subjectId":"A88DXNDGDUWEN","assignmentId":"32Z9ZLUT1M67S8FQY8DELLK98HWOH9","hitId":"3IH9TRB0FBLK6RLF7MSMKICTGYN1IU","url":"https://gershmanlab.com/experiments/alicia/teaching/experiment/?hitId=3IH9TRB0FBLK6RLF7MSMKICTGYN1IU&workerId=A88DXNDGDUWEN&assignmentId=32Z9ZLUT1M67S8FQY8DELLK98HWOH9&a=TZZ23&tp_a=TZZ23&b=32Z9ZLUT1M67S8FQY8DELLK98HWOH9&tp_b=32Z9ZLUT1M67S8FQY8DELLK98HWOH9&c=365633&tp_c=365633","heads":1,"tails":0,"studentIndex":11,"studentTrueHypers":{"a":2,"b":8},"studentGuess":0.2727272727272727,"delta":0.5272727272727273,"totalExamples":1,"bonusSoFar":2.18},{"rt":10355,"response":{"heads":"4","tails":"1"},"type":"response","condition":"seqNoFeedback","trueTheta":0.8,"classrooms":["C","D"],"studentTrueClassroom":"C","exampleSet":"second","trial_type":"survey-html-form","trial_index":96,"time_elapsed":669866,"internal_node_id":"0.0-93.0-0.0","params":{"nStudents":24,"maxFlips":25,"completionMinutes":45,"basePay":8,"maxBonus":9,"perTrialBonus":0.5,"perTrialBonusThreshold":0.05,"exampleCost":0.02},"classroomParams":{"A":{"a":1,"b":4},"B":{"a":4,"b":1},"C":{"a":2,"b":8},"D":{"a":8,"b":2}},"conditions":["nonSeqFull","nonSeqPartial","seqNoFeedback","seqFeedback"],"classroomPairings":[["A","B"],["C","D"]],"coinWeights":[0.2,0.5,0.8],"subjectId":"A88DXNDGDUWEN","assignmentId":"32Z9ZLUT1M67S8FQY8DELLK98HWOH9","hitId":"3IH9TRB0FBLK6RLF7MSMKICTGYN1IU","url":"https://gershmanlab.com/experiments/alicia/teaching/experiment/?hitId=3IH9TRB0FBLK6RLF7MSMKICTGYN1IU&workerId=A88DXNDGDUWEN&assignmentId=32Z9ZLUT1M67S8FQY8DELLK98HWOH9&a=TZZ23&tp_a=TZZ23&b=32Z9ZLUT1M67S8FQY8DELLK98HWOH9&tp_b=32Z9ZLUT1M67S8FQY8DELLK98HWOH9&c=365633&tp_c=365633","firstResponseHeads":1,"firstResponseTails":0,"secondResponseHeads":4,"secondResponseTails":1,"totalHeads":5,"totalTails":1,"studentIndex":11,"studentTrueHypers":{"a":2,"b":8},"studentGuess":0.4375,"delta":0.36250000000000004,"bonus":0,"bonusSoFar":2.18,"totalExamples":6},{"rt":6271,"response":{"heads":"0","tails":"4"},"type":"response","condition":"nonSeqFull","trueTheta":0.5,"classrooms":["A","B"],"studentTrueClassroom":"B","exampleSet":"first","trial_type":"survey-html-form","trial_index":102,"time_elapsed":688794,"internal_node_id":"0.0-99.0-0.0","params":{"nStudents":24,"maxFlips":25,"completionMinutes":45,"basePay":8,"maxBonus":9,"perTrialBonus":0.5,"perTrialBonusThreshold":0.05,"exampleCost":0.02},"classroomParams":{"A":{"a":1,"b":4},"B":{"a":4,"b":1},"C":{"a":2,"b":8},"D":{"a":8,"b":2}},"conditions":["nonSeqFull","nonSeqPartial","seqNoFeedback","seqFeedback"],"classroomPairings":[["A","B"],["C","D"]],"coinWeights":[0.2,0.5,0.8],"subjectId":"A88DXNDGDUWEN","assignmentId":"32Z9ZLUT1M67S8FQY8DELLK98HWOH9","hitId":"3IH9TRB0FBLK6RLF7MSMKICTGYN1IU","url":"https://gershmanlab.com/experiments/alicia/teaching/experiment/?hitId=3IH9TRB0FBLK6RLF7MSMKICTGYN1IU&workerId=A88DXNDGDUWEN&assignmentId=32Z9ZLUT1M67S8FQY8DELLK98HWOH9&a=TZZ23&tp_a=TZZ23&b=32Z9ZLUT1M67S8FQY8DELLK98HWOH9&tp_b=32Z9ZLUT1M67S8FQY8DELLK98HWOH9&c=365633&tp_c=365633","heads":0,"tails":4,"studentIndex":12,"studentTrueHypers":{"a":4,"b":1},"studentGuess":0.4444444444444444,"delta":0.05555555555555558,"totalExamples":4,"bonus":0,"bonusSoFar":2.18},{"rt":13507,"response":{"heads":"3","tails":"0"},"type":"response","condition":"seqFeedback","trueTheta":0.5,"classrooms":["A","B"],"studentTrueClassroom":"B","exampleSet":"first","trial_type":"survey-html-form","trial_index":108,"time_elapsed":717785,"internal_node_id":"0.0-105.0-0.0","params":{"nStudents":24,"maxFlips":25,"completionMinutes":45,"basePay":8,"maxBonus":9,"perTrialBonus":0.5,"perTrialBonusThreshold":0.05,"exampleCost":0.02},"classroomParams":{"A":{"a":1,"b":4},"B":{"a":4,"b":1},"C":{"a":2,"b":8},"D":{"a":8,"b":2}},"conditions":["nonSeqFull","nonSeqPartial","seqNoFeedback","seqFeedback"],"classroomPairings":[["A","B"],["C","D"]],"coinWeights":[0.2,0.5,0.8],"subjectId":"A88DXNDGDUWEN","assignmentId":"32Z9ZLUT1M67S8FQY8DELLK98HWOH9","hitId":"3IH9TRB0FBLK6RLF7MSMKICTGYN1IU","url":"https://gershmanlab.com/experiments/alicia/teaching/experiment/?hitId=3IH9TRB0FBLK6RLF7MSMKICTGYN1IU&workerId=A88DXNDGDUWEN&assignmentId=32Z9ZLUT1M67S8FQY8DELLK98HWOH9&a=TZZ23&tp_a=TZZ23&b=32Z9ZLUT1M67S8FQY8DELLK98HWOH9&tp_b=32Z9ZLUT1M67S8FQY8DELLK98HWOH9&c=365633&tp_c=365633","heads":3,"tails":0,"studentIndex":13,"studentTrueHypers":{"a":4,"b":1},"studentGuess":0.875,"delta":0.375,"totalExamples":3,"bonusSoFar":2.18},{"rt":16007,"response":{"heads":"0","tails":"6"},"type":"response","condition":"seqFeedback","trueTheta":0.5,"classrooms":["A","B"],"studentTrueClassroom":"B","exampleSet":"second","trial_type":"survey-html-form","trial_index":112,"time_elapsed":743394,"internal_node_id":"0.0-109.0-0.0","params":{"nStudents":24,"maxFlips":25,"completionMinutes":45,"basePay":8,"maxBonus":9,"perTrialBonus":0.5,"perTrialBonusThreshold":0.05,"exampleCost":0.02},"classroomParams":{"A":{"a":1,"b":4},"B":{"a":4,"b":1},"C":{"a":2,"b":8},"D":{"a":8,"b":2}},"conditions":["nonSeqFull","nonSeqPartial","seqNoFeedback","seqFeedback"],"classroomPairings":[["A","B"],["C","D"]],"coinWeights":[0.2,0.5,0.8],"subjectId":"A88DXNDGDUWEN","assignmentId":"32Z9ZLUT1M67S8FQY8DELLK98HWOH9","hitId":"3IH9TRB0FBLK6RLF7MSMKICTGYN1IU","url":"https://gershmanlab.com/experiments/alicia/teaching/experiment/?hitId=3IH9TRB0FBLK6RLF7MSMKICTGYN1IU&workerId=A88DXNDGDUWEN&assignmentId=32Z9ZLUT1M67S8FQY8DELLK98HWOH9&a=TZZ23&tp_a=TZZ23&b=32Z9ZLUT1M67S8FQY8DELLK98HWOH9&tp_b=32Z9ZLUT1M67S8FQY8DELLK98HWOH9&c=365633&tp_c=365633","firstResponseHeads":3,"firstResponseTails":0,"secondResponseHeads":0,"secondResponseTails":6,"totalHeads":3,"totalTails":6,"studentIndex":13,"studentTrueHypers":{"a":4,"b":1},"studentGuess":0.5,"delta":0,"bonus":0.32,"bonusSoFar":2.5,"totalExamples":9},{"rt":18623,"response":{"heads":"4","tails":"1"},"type":"response","condition":"nonSeqFull","trueTheta":0.8,"classrooms":["C","D"],"studentTrueClassroom":"D","exampleSet":"first","trial_type":"survey-html-form","trial_index":118,"time_elapsed":776700,"internal_node_id":"0.0-115.0-0.0","params":{"nStudents":24,"maxFlips":25,"completionMinutes":45,"basePay":8,"maxBonus":9,"perTrialBonus":0.5,"perTrialBonusThreshold":0.05,"exampleCost":0.02},"classroomParams":{"A":{"a":1,"b":4},"B":{"a":4,"b":1},"C":{"a":2,"b":8},"D":{"a":8,"b":2}},"conditions":["nonSeqFull","nonSeqPartial","seqNoFeedback","seqFeedback"],"classroomPairings":[["A","B"],["C","D"]],"coinWeights":[0.2,0.5,0.8],"subjectId":"A88DXNDGDUWEN","assignmentId":"32Z9ZLUT1M67S8FQY8DELLK98HWOH9","hitId":"3IH9TRB0FBLK6RLF7MSMKICTGYN1IU","url":"https://gershmanlab.com/experiments/alicia/teaching/experiment/?hitId=3IH9TRB0FBLK6RLF7MSMKICTGYN1IU&workerId=A88DXNDGDUWEN&assignmentId=32Z9ZLUT1M67S8FQY8DELLK98HWOH9&a=TZZ23&tp_a=TZZ23&b=32Z9ZLUT1M67S8FQY8DELLK98HWOH9&tp_b=32Z9ZLUT1M67S8FQY8DELLK98HWOH9&c=365633&tp_c=365633","heads":4,"tails":1,"studentIndex":14,"studentTrueHypers":{"a":8,"b":2},"studentGuess":0.8,"delta":0,"totalExamples":5,"bonus":0.4,"bonusSoFar":2.9},{"rt":127191,"response":{"heads":"16","tails":"0"},"type":"response","condition":"nonSeqFull","trueTheta":0.8,"classrooms":["A","B"],"studentTrueClassroom":"A","exampleSet":"first","trial_type":"survey-html-form","trial_index":124,"time_elapsed":917866,"internal_node_id":"0.0-121.0-0.0","params":{"nStudents":24,"maxFlips":25,"completionMinutes":45,"basePay":8,"maxBonus":9,"perTrialBonus":0.5,"perTrialBonusThreshold":0.05,"exampleCost":0.02},"classroomParams":{"A":{"a":1,"b":4},"B":{"a":4,"b":1},"C":{"a":2,"b":8},"D":{"a":8,"b":2}},"conditions":["nonSeqFull","nonSeqPartial","seqNoFeedback","seqFeedback"],"classroomPairings":[["A","B"],["C","D"]],"coinWeights":[0.2,0.5,0.8],"subjectId":"A88DXNDGDUWEN","assignmentId":"32Z9ZLUT1M67S8FQY8DELLK98HWOH9","hitId":"3IH9TRB0FBLK6RLF7MSMKICTGYN1IU","url":"https://gershmanlab.com/experiments/alicia/teaching/experiment/?hitId=3IH9TRB0FBLK6RLF7MSMKICTGYN1IU&workerId=A88DXNDGDUWEN&assignmentId=32Z9ZLUT1M67S8FQY8DELLK98HWOH9&a=TZZ23&tp_a=TZZ23&b=32Z9ZLUT1M67S8FQY8DELLK98HWOH9&tp_b=32Z9ZLUT1M67S8FQY8DELLK98HWOH9&c=365633&tp_c=365633","heads":16,"tails":0,"studentIndex":15,"studentTrueHypers":{"a":1,"b":4},"studentGuess":0.8095238095238095,"delta":0.00952380952380949,"totalExamples":16,"bonus":0.18,"bonusSoFar":3.08},{"rt":13871,"response":{"heads":"2","tails":"0"},"type":"response","condition":"seqFeedback","trueTheta":0.5,"classrooms":["C","D"],"studentTrueClassroom":"C","exampleSet":"first","trial_type":"survey-html-form","trial_index":130,"time_elapsed":946396,"internal_node_id":"0.0-127.0-0.0","params":{"nStudents":24,"maxFlips":25,"completionMinutes":45,"basePay":8,"maxBonus":9,"perTrialBonus":0.5,"perTrialBonusThreshold":0.05,"exampleCost":0.02},"classroomParams":{"A":{"a":1,"b":4},"B":{"a":4,"b":1},"C":{"a":2,"b":8},"D":{"a":8,"b":2}},"conditions":["nonSeqFull","nonSeqPartial","seqNoFeedback","seqFeedback"],"classroomPairings":[["A","B"],["C","D"]],"coinWeights":[0.2,0.5,0.8],"subjectId":"A88DXNDGDUWEN","assignmentId":"32Z9ZLUT1M67S8FQY8DELLK98HWOH9","hitId":"3IH9TRB0FBLK6RLF7MSMKICTGYN1IU","url":"https://gershmanlab.com/experiments/alicia/teaching/experiment/?hitId=3IH9TRB0FBLK6RLF7MSMKICTGYN1IU&workerId=A88DXNDGDUWEN&assignmentId=32Z9ZLUT1M67S8FQY8DELLK98HWOH9&a=TZZ23&tp_a=TZZ23&b=32Z9ZLUT1M67S8FQY8DELLK98HWOH9&tp_b=32Z9ZLUT1M67S8FQY8DELLK98HWOH9&c=365633&tp_c=365633","heads":2,"tails":0,"studentIndex":16,"studentTrueHypers":{"a":2,"b":8},"studentGuess":0.3333333333333333,"delta":0.16666666666666669,"totalExamples":2,"bonusSoFar":3.08},{"rt":12335,"response":{"heads":"0","tails":"6"},"type":"response","condition":"seqFeedback","trueTheta":0.5,"classrooms":["C","D"],"studentTrueClassroom":"C","exampleSet":"second","trial_type":"survey-html-form","trial_index":134,"time_elapsed":973946,"internal_node_id":"0.0-131.0-0.0","params":{"nStudents":24,"maxFlips":25,"completionMinutes":45,"basePay":8,"maxBonus":9,"perTrialBonus":0.5,"perTrialBonusThreshold":0.05,"exampleCost":0.02},"classroomParams":{"A":{"a":1,"b":4},"B":{"a":4,"b":1},"C":{"a":2,"b":8},"D":{"a":8,"b":2}},"conditions":["nonSeqFull","nonSeqPartial","seqNoFeedback","seqFeedback"],"classroomPairings":[["A","B"],["C","D"]],"coinWeights":[0.2,0.5,0.8],"subjectId":"A88DXNDGDUWEN","assignmentId":"32Z9ZLUT1M67S8FQY8DELLK98HWOH9","hitId":"3IH9TRB0FBLK6RLF7MSMKICTGYN1IU","url":"https://gershmanlab.com/experiments/alicia/teaching/experiment/?hitId=3IH9TRB0FBLK6RLF7MSMKICTGYN1IU&workerId=A88DXNDGDUWEN&assignmentId=32Z9ZLUT1M67S8FQY8DELLK98HWOH9&a=TZZ23&tp_a=TZZ23&b=32Z9ZLUT1M67S8FQY8DELLK98HWOH9&tp_b=32Z9ZLUT1M67S8FQY8DELLK98HWOH9&c=365633&tp_c=365633","firstResponseHeads":2,"firstResponseTails":0,"secondResponseHeads":0,"secondResponseTails":6,"totalHeads":2,"totalTails":6,"studentIndex":16,"studentTrueHypers":{"a":2,"b":8},"studentGuess":0.2222222222222222,"delta":0.2777777777777778,"bonus":0,"bonusSoFar":3.08,"totalExamples":8},{"rt":26845,"response":{"heads":"2","tails":"0"},"type":"response","condition":"seqFeedback","trueTheta":0.8,"classrooms":["C","D"],"studentTrueClassroom":"D","exampleSet":"first","trial_type":"survey-html-form","trial_index":140,"time_elapsed":1013352,"internal_node_id":"0.0-137.0-0.0","params":{"nStudents":24,"maxFlips":25,"completionMinutes":45,"basePay":8,"maxBonus":9,"perTrialBonus":0.5,"perTrialBonusThreshold":0.05,"exampleCost":0.02},"classroomParams":{"A":{"a":1,"b":4},"B":{"a":4,"b":1},"C":{"a":2,"b":8},"D":{"a":8,"b":2}},"conditions":["nonSeqFull","nonSeqPartial","seqNoFeedback","seqFeedback"],"classroomPairings":[["A","B"],["C","D"]],"coinWeights":[0.2,0.5,0.8],"subjectId":"A88DXNDGDUWEN","assignmentId":"32Z9ZLUT1M67S8FQY8DELLK98HWOH9","hitId":"3IH9TRB0FBLK6RLF7MSMKICTGYN1IU","url":"https://gershmanlab.com/experiments/alicia/teaching/experiment/?hitId=3IH9TRB0FBLK6RLF7MSMKICTGYN1IU&workerId=A88DXNDGDUWEN&assignmentId=32Z9ZLUT1M67S8FQY8DELLK98HWOH9&a=TZZ23&tp_a=TZZ23&b=32Z9ZLUT1M67S8FQY8DELLK98HWOH9&tp_b=32Z9ZLUT1M67S8FQY8DELLK98HWOH9&c=365633&tp_c=365633","heads":2,"tails":0,"studentIndex":17,"studentTrueHypers":{"a":8,"b":2},"studentGuess":0.8333333333333334,"delta":0.033333333333333326,"totalExamples":2,"bonusSoFar":3.08},{"rt":9657,"response":{"heads":"0","tails":"0"},"type":"response","condition":"seqFeedback","trueTheta":0.8,"classrooms":["C","D"],"studentTrueClassroom":"D","exampleSet":"second","trial_type":"survey-html-form","trial_index":144,"time_elapsed":1033364,"internal_node_id":"0.0-141.0-0.0","params":{"nStudents":24,"maxFlips":25,"completionMinutes":45,"basePay":8,"maxBonus":9,"perTrialBonus":0.5,"perTrialBonusThreshold":0.05,"exampleCost":0.02},"classroomParams":{"A":{"a":1,"b":4},"B":{"a":4,"b":1},"C":{"a":2,"b":8},"D":{"a":8,"b":2}},"conditions":["nonSeqFull","nonSeqPartial","seqNoFeedback","seqFeedback"],"classroomPairings":[["A","B"],["C","D"]],"coinWeights":[0.2,0.5,0.8],"subjectId":"A88DXNDGDUWEN","assignmentId":"32Z9ZLUT1M67S8FQY8DELLK98HWOH9","hitId":"3IH9TRB0FBLK6RLF7MSMKICTGYN1IU","url":"https://gershmanlab.com/experiments/alicia/teaching/experiment/?hitId=3IH9TRB0FBLK6RLF7MSMKICTGYN1IU&workerId=A88DXNDGDUWEN&assignmentId=32Z9ZLUT1M67S8FQY8DELLK98HWOH9&a=TZZ23&tp_a=TZZ23&b=32Z9ZLUT1M67S8FQY8DELLK98HWOH9&tp_b=32Z9ZLUT1M67S8FQY8DELLK98HWOH9&c=365633&tp_c=365633","firstResponseHeads":2,"firstResponseTails":0,"secondResponseHeads":0,"secondResponseTails":0,"totalHeads":2,"totalTails":0,"studentIndex":17,"studentTrueHypers":{"a":8,"b":2},"studentGuess":0.8333333333333334,"delta":0.033333333333333326,"bonus":0.46,"bonusSoFar":3.54,"totalExamples":2},{"rt":10376,"response":{"heads":"4","tails":"1"},"type":"response","condition":"seqFeedback","trueTheta":0.8,"classrooms":["C","D"],"studentTrueClassroom":"D","exampleSet":"second","trial_type":"survey-html-form","trial_index":145,"time_elapsed":1043742,"internal_node_id":"0.0-141.1-0.1","params":{"nStudents":24,"maxFlips":25,"completionMinutes":45,"basePay":8,"maxBonus":9,"perTrialBonus":0.5,"perTrialBonusThreshold":0.05,"exampleCost":0.02},"classroomParams":{"A":{"a":1,"b":4},"B":{"a":4,"b":1},"C":{"a":2,"b":8},"D":{"a":8,"b":2}},"conditions":["nonSeqFull","nonSeqPartial","seqNoFeedback","seqFeedback"],"classroomPairings":[["A","B"],["C","D"]],"coinWeights":[0.2,0.5,0.8],"subjectId":"A88DXNDGDUWEN","assignmentId":"32Z9ZLUT1M67S8FQY8DELLK98HWOH9","hitId":"3IH9TRB0FBLK6RLF7MSMKICTGYN1IU","url":"https://gershmanlab.com/experiments/alicia/teaching/experiment/?hitId=3IH9TRB0FBLK6RLF7MSMKICTGYN1IU&workerId=A88DXNDGDUWEN&assignmentId=32Z9ZLUT1M67S8FQY8DELLK98HWOH9&a=TZZ23&tp_a=TZZ23&b=32Z9ZLUT1M67S8FQY8DELLK98HWOH9&tp_b=32Z9ZLUT1M67S8FQY8DELLK98HWOH9&c=365633&tp_c=365633","firstResponseHeads":2,"firstResponseTails":0,"secondResponseHeads":4,"secondResponseTails":1,"totalHeads":6,"totalTails":1,"studentIndex":17,"studentTrueHypers":{"a":8,"b":2},"studentGuess":0.8235294117647058,"delta":0.0235294117647058,"bonus":0.36,"bonusSoFar":3.9,"totalExamples":7},{"rt":17616,"response":{"heads":"1","tails":"0"},"type":"response","condition":"nonSeqPartial","trueTheta":0.5,"classrooms":["A","B"],"studentTrueClassroom":"B","exampleSet":"first","trial_type":"survey-html-form","trial_index":151,"time_elapsed":1077141,"internal_node_id":"0.0-147.0-0.0","params":{"nStudents":24,"maxFlips":25,"completionMinutes":45,"basePay":8,"maxBonus":9,"perTrialBonus":0.5,"perTrialBonusThreshold":0.05,"exampleCost":0.02},"classroomParams":{"A":{"a":1,"b":4},"B":{"a":4,"b":1},"C":{"a":2,"b":8},"D":{"a":8,"b":2}},"conditions":["nonSeqFull","nonSeqPartial","seqNoFeedback","seqFeedback"],"classroomPairings":[["A","B"],["C","D"]],"coinWeights":[0.2,0.5,0.8],"subjectId":"A88DXNDGDUWEN","assignmentId":"32Z9ZLUT1M67S8FQY8DELLK98HWOH9","hitId":"3IH9TRB0FBLK6RLF7MSMKICTGYN1IU","url":"https://gershmanlab.com/experiments/alicia/teaching/experiment/?hitId=3IH9TRB0FBLK6RLF7MSMKICTGYN1IU&workerId=A88DXNDGDUWEN&assignmentId=32Z9ZLUT1M67S8FQY8DELLK98HWOH9&a=TZZ23&tp_a=TZZ23&b=32Z9ZLUT1M67S8FQY8DELLK98HWOH9&tp_b=32Z9ZLUT1M67S8FQY8DELLK98HWOH9&c=365633&tp_c=365633","heads":1,"tails":0,"studentIndex":18,"studentTrueHypers":{"a":4,"b":1},"studentGuess":0.8333333333333334,"delta":0.33333333333333337,"totalExamples":1,"bonus":0,"bonusSoFar":3.9},{"rt":18761,"response":{"heads":"1","tails":"4"},"type":"response","condition":"nonSeqPartial","trueTheta":0.2,"classrooms":["C","D"],"studentTrueClassroom":"D","exampleSet":"first","trial_type":"survey-html-form","trial_index":157,"time_elapsed":1113036,"internal_node_id":"0.0-153.0-0.0","params":{"nStudents":24,"maxFlips":25,"completionMinutes":45,"basePay":8,"maxBonus":9,"perTrialBonus":0.5,"perTrialBonusThreshold":0.05,"exampleCost":0.02},"classroomParams":{"A":{"a":1,"b":4},"B":{"a":4,"b":1},"C":{"a":2,"b":8},"D":{"a":8,"b":2}},"conditions":["nonSeqFull","nonSeqPartial","seqNoFeedback","seqFeedback"],"classroomPairings":[["A","B"],["C","D"]],"coinWeights":[0.2,0.5,0.8],"subjectId":"A88DXNDGDUWEN","assignmentId":"32Z9ZLUT1M67S8FQY8DELLK98HWOH9","hitId":"3IH9TRB0FBLK6RLF7MSMKICTGYN1IU","url":"https://gershmanlab.com/experiments/alicia/teaching/experiment/?hitId=3IH9TRB0FBLK6RLF7MSMKICTGYN1IU&workerId=A88DXNDGDUWEN&assignmentId=32Z9ZLUT1M67S8FQY8DELLK98HWOH9&a=TZZ23&tp_a=TZZ23&b=32Z9ZLUT1M67S8FQY8DELLK98HWOH9&tp_b=32Z9ZLUT1M67S8FQY8DELLK98HWOH9&c=365633&tp_c=365633","heads":1,"tails":4,"studentIndex":19,"studentTrueHypers":{"a":8,"b":2},"studentGuess":0.6,"delta":0.39999999999999997,"totalExamples":5,"bonus":0,"bonusSoFar":3.9},{"rt":19993,"response":{"heads":"1","tails":"4"},"type":"response","condition":"seqNoFeedback","trueTheta":0.2,"classrooms":["A","B"],"studentTrueClassroom":"B","exampleSet":"first","trial_type":"survey-html-form","trial_index":163,"time_elapsed":1145364,"internal_node_id":"0.0-159.0-0.0","params":{"nStudents":24,"maxFlips":25,"completionMinutes":45,"basePay":8,"maxBonus":9,"perTrialBonus":0.5,"perTrialBonusThreshold":0.05,"exampleCost":0.02},"classroomParams":{"A":{"a":1,"b":4},"B":{"a":4,"b":1},"C":{"a":2,"b":8},"D":{"a":8,"b":2}},"conditions":["nonSeqFull","nonSeqPartial","seqNoFeedback","seqFeedback"],"classroomPairings":[["A","B"],["C","D"]],"coinWeights":[0.2,0.5,0.8],"subjectId":"A88DXNDGDUWEN","assignmentId":"32Z9ZLUT1M67S8FQY8DELLK98HWOH9","hitId":"3IH9TRB0FBLK6RLF7MSMKICTGYN1IU","url":"https://gershmanlab.com/experiments/alicia/teaching/experiment/?hitId=3IH9TRB0FBLK6RLF7MSMKICTGYN1IU&workerId=A88DXNDGDUWEN&assignmentId=32Z9ZLUT1M67S8FQY8DELLK98HWOH9&a=TZZ23&tp_a=TZZ23&b=32Z9ZLUT1M67S8FQY8DELLK98HWOH9&tp_b=32Z9ZLUT1M67S8FQY8DELLK98HWOH9&c=365633&tp_c=365633","heads":1,"tails":4,"studentIndex":20,"studentTrueHypers":{"a":4,"b":1},"studentGuess":0.5,"delta":0.3,"totalExamples":5,"bonusSoFar":3.9},{"rt":8429,"response":{"heads":"1","tails":"4"},"type":"response","condition":"seqNoFeedback","trueTheta":0.2,"classrooms":["A","B"],"studentTrueClassroom":"B","exampleSet":"second","trial_type":"survey-html-form","trial_index":166,"time_elapsed":1159809,"internal_node_id":"0.0-162.0-0.0","params":{"nStudents":24,"maxFlips":25,"completionMinutes":45,"basePay":8,"maxBonus":9,"perTrialBonus":0.5,"perTrialBonusThreshold":0.05,"exampleCost":0.02},"classroomParams":{"A":{"a":1,"b":4},"B":{"a":4,"b":1},"C":{"a":2,"b":8},"D":{"a":8,"b":2}},"conditions":["nonSeqFull","nonSeqPartial","seqNoFeedback","seqFeedback"],"classroomPairings":[["A","B"],["C","D"]],"coinWeights":[0.2,0.5,0.8],"subjectId":"A88DXNDGDUWEN","assignmentId":"32Z9ZLUT1M67S8FQY8DELLK98HWOH9","hitId":"3IH9TRB0FBLK6RLF7MSMKICTGYN1IU","url":"https://gershmanlab.com/experiments/alicia/teaching/experiment/?hitId=3IH9TRB0FBLK6RLF7MSMKICTGYN1IU&workerId=A88DXNDGDUWEN&assignmentId=32Z9ZLUT1M67S8FQY8DELLK98HWOH9&a=TZZ23&tp_a=TZZ23&b=32Z9ZLUT1M67S8FQY8DELLK98HWOH9&tp_b=32Z9ZLUT1M67S8FQY8DELLK98HWOH9&c=365633&tp_c=365633","firstResponseHeads":1,"firstResponseTails":4,"secondResponseHeads":1,"secondResponseTails":4,"totalHeads":2,"totalTails":8,"studentIndex":20,"studentTrueHypers":{"a":4,"b":1},"studentGuess":0.4,"delta":0.2,"bonus":0,"bonusSoFar":3.9,"totalExamples":10},{"rt":8826,"response":{"heads":"1","tails":"1"},"type":"response","condition":"seqNoFeedback","trueTheta":0.5,"classrooms":["A","B"],"studentTrueClassroom":"B","exampleSet":"first","trial_type":"survey-html-form","trial_index":172,"time_elapsed":1182879,"internal_node_id":"0.0-168.0-0.0","params":{"nStudents":24,"maxFlips":25,"completionMinutes":45,"basePay":8,"maxBonus":9,"perTrialBonus":0.5,"perTrialBonusThreshold":0.05,"exampleCost":0.02},"classroomParams":{"A":{"a":1,"b":4},"B":{"a":4,"b":1},"C":{"a":2,"b":8},"D":{"a":8,"b":2}},"conditions":["nonSeqFull","nonSeqPartial","seqNoFeedback","seqFeedback"],"classroomPairings":[["A","B"],["C","D"]],"coinWeights":[0.2,0.5,0.8],"subjectId":"A88DXNDGDUWEN","assignmentId":"32Z9ZLUT1M67S8FQY8DELLK98HWOH9","hitId":"3IH9TRB0FBLK6RLF7MSMKICTGYN1IU","url":"https://gershmanlab.com/experiments/alicia/teaching/experiment/?hitId=3IH9TRB0FBLK6RLF7MSMKICTGYN1IU&workerId=A88DXNDGDUWEN&assignmentId=32Z9ZLUT1M67S8FQY8DELLK98HWOH9&a=TZZ23&tp_a=TZZ23&b=32Z9ZLUT1M67S8FQY8DELLK98HWOH9&tp_b=32Z9ZLUT1M67S8FQY8DELLK98HWOH9&c=365633&tp_c=365633","heads":1,"tails":1,"studentIndex":21,"studentTrueHypers":{"a":4,"b":1},"studentGuess":0.7142857142857143,"delta":0.2142857142857143,"totalExamples":2,"bonusSoFar":3.9},{"rt":6858,"response":{"heads":"2","tails":"2"},"type":"response","condition":"seqNoFeedback","trueTheta":0.5,"classrooms":["A","B"],"studentTrueClassroom":"B","exampleSet":"second","trial_type":"survey-html-form","trial_index":175,"time_elapsed":1197011,"internal_node_id":"0.0-171.0-0.0","params":{"nStudents":24,"maxFlips":25,"completionMinutes":45,"basePay":8,"maxBonus":9,"perTrialBonus":0.5,"perTrialBonusThreshold":0.05,"exampleCost":0.02},"classroomParams":{"A":{"a":1,"b":4},"B":{"a":4,"b":1},"C":{"a":2,"b":8},"D":{"a":8,"b":2}},"conditions":["nonSeqFull","nonSeqPartial","seqNoFeedback","seqFeedback"],"classroomPairings":[["A","B"],["C","D"]],"coinWeights":[0.2,0.5,0.8],"subjectId":"A88DXNDGDUWEN","assignmentId":"32Z9ZLUT1M67S8FQY8DELLK98HWOH9","hitId":"3IH9TRB0FBLK6RLF7MSMKICTGYN1IU","url":"https://gershmanlab.com/experiments/alicia/teaching/experiment/?hitId=3IH9TRB0FBLK6RLF7MSMKICTGYN1IU&workerId=A88DXNDGDUWEN&assignmentId=32Z9ZLUT1M67S8FQY8DELLK98HWOH9&a=TZZ23&tp_a=TZZ23&b=32Z9ZLUT1M67S8FQY8DELLK98HWOH9&tp_b=32Z9ZLUT1M67S8FQY8DELLK98HWOH9&c=365633&tp_c=365633","firstResponseHeads":1,"firstResponseTails":1,"secondResponseHeads":2,"secondResponseTails":2,"totalHeads":3,"totalTails":3,"studentIndex":21,"studentTrueHypers":{"a":4,"b":1},"studentGuess":0.6363636363636364,"delta":0.13636363636363635,"bonus":0,"bonusSoFar":3.9,"totalExamples":6},{"rt":6977,"response":{"heads":"1","tails":"1"},"type":"response","condition":"seqNoFeedback","trueTheta":0.5,"classrooms":["C","D"],"studentTrueClassroom":"D","exampleSet":"first","trial_type":"survey-html-form","trial_index":181,"time_elapsed":1218368,"internal_node_id":"0.0-177.0-0.0","params":{"nStudents":24,"maxFlips":25,"completionMinutes":45,"basePay":8,"maxBonus":9,"perTrialBonus":0.5,"perTrialBonusThreshold":0.05,"exampleCost":0.02},"classroomParams":{"A":{"a":1,"b":4},"B":{"a":4,"b":1},"C":{"a":2,"b":8},"D":{"a":8,"b":2}},"conditions":["nonSeqFull","nonSeqPartial","seqNoFeedback","seqFeedback"],"classroomPairings":[["A","B"],["C","D"]],"coinWeights":[0.2,0.5,0.8],"subjectId":"A88DXNDGDUWEN","assignmentId":"32Z9ZLUT1M67S8FQY8DELLK98HWOH9","hitId":"3IH9TRB0FBLK6RLF7MSMKICTGYN1IU","url":"https://gershmanlab.com/experiments/alicia/teaching/experiment/?hitId=3IH9TRB0FBLK6RLF7MSMKICTGYN1IU&workerId=A88DXNDGDUWEN&assignmentId=32Z9ZLUT1M67S8FQY8DELLK98HWOH9&a=TZZ23&tp_a=TZZ23&b=32Z9ZLUT1M67S8FQY8DELLK98HWOH9&tp_b=32Z9ZLUT1M67S8FQY8DELLK98HWOH9&c=365633&tp_c=365633","heads":1,"tails":1,"studentIndex":22,"studentTrueHypers":{"a":8,"b":2},"studentGuess":0.75,"delta":0.25,"totalExamples":2,"bonusSoFar":3.9},{"rt":6174,"response":{"heads":"4","tails":"4"},"type":"response","condition":"seqNoFeedback","trueTheta":0.5,"classrooms":["C","D"],"studentTrueClassroom":"D","exampleSet":"second","trial_type":"survey-html-form","trial_index":184,"time_elapsed":1230568,"internal_node_id":"0.0-180.0-0.0","params":{"nStudents":24,"maxFlips":25,"completionMinutes":45,"basePay":8,"maxBonus":9,"perTrialBonus":0.5,"perTrialBonusThreshold":0.05,"exampleCost":0.02},"classroomParams":{"A":{"a":1,"b":4},"B":{"a":4,"b":1},"C":{"a":2,"b":8},"D":{"a":8,"b":2}},"conditions":["nonSeqFull","nonSeqPartial","seqNoFeedback","seqFeedback"],"classroomPairings":[["A","B"],["C","D"]],"coinWeights":[0.2,0.5,0.8],"subjectId":"A88DXNDGDUWEN","assignmentId":"32Z9ZLUT1M67S8FQY8DELLK98HWOH9","hitId":"3IH9TRB0FBLK6RLF7MSMKICTGYN1IU","url":"https://gershmanlab.com/experiments/alicia/teaching/experiment/?hitId=3IH9TRB0FBLK6RLF7MSMKICTGYN1IU&workerId=A88DXNDGDUWEN&assignmentId=32Z9ZLUT1M67S8FQY8DELLK98HWOH9&a=TZZ23&tp_a=TZZ23&b=32Z9ZLUT1M67S8FQY8DELLK98HWOH9&tp_b=32Z9ZLUT1M67S8FQY8DELLK98HWOH9&c=365633&tp_c=365633","firstResponseHeads":1,"firstResponseTails":1,"secondResponseHeads":4,"secondResponseTails":4,"totalHeads":5,"totalTails":5,"studentIndex":22,"studentTrueHypers":{"a":8,"b":2},"studentGuess":0.65,"delta":0.15000000000000002,"bonus":0,"bonusSoFar":3.9,"totalExamples":10},{"rt":26093,"response":{"heads":"16","tails":"4"},"type":"response","condition":"nonSeqPartial","trueTheta":0.8,"classrooms":["A","B"],"studentTrueClassroom":"B","exampleSet":"first","trial_type":"survey-html-form","trial_index":190,"time_elapsed":1272731,"internal_node_id":"0.0-186.0-0.0","params":{"nStudents":24,"maxFlips":25,"completionMinutes":45,"basePay":8,"maxBonus":9,"perTrialBonus":0.5,"perTrialBonusThreshold":0.05,"exampleCost":0.02},"classroomParams":{"A":{"a":1,"b":4},"B":{"a":4,"b":1},"C":{"a":2,"b":8},"D":{"a":8,"b":2}},"conditions":["nonSeqFull","nonSeqPartial","seqNoFeedback","seqFeedback"],"classroomPairings":[["A","B"],["C","D"]],"coinWeights":[0.2,0.5,0.8],"subjectId":"A88DXNDGDUWEN","assignmentId":"32Z9ZLUT1M67S8FQY8DELLK98HWOH9","hitId":"3IH9TRB0FBLK6RLF7MSMKICTGYN1IU","url":"https://gershmanlab.com/experiments/alicia/teaching/experiment/?hitId=3IH9TRB0FBLK6RLF7MSMKICTGYN1IU&workerId=A88DXNDGDUWEN&assignmentId=32Z9ZLUT1M67S8FQY8DELLK98HWOH9&a=TZZ23&tp_a=TZZ23&b=32Z9ZLUT1M67S8FQY8DELLK98HWOH9&tp_b=32Z9ZLUT1M67S8FQY8DELLK98HWOH9&c=365633&tp_c=365633","heads":16,"tails":4,"studentIndex":23,"studentTrueHypers":{"a":4,"b":1},"studentGuess":0.8,"delta":0,"totalExamples":20,"bonus":0.1,"bonusSoFar":4},{"rt":6307,"response":{"gender":"male","age":"52","understood":"yes","comments":""},"type":"response","trial_type":"survey-html-form","trial_index":194,"time_elapsed":1287639,"internal_node_id":"0.0-191.0","params":{"nStudents":24,"maxFlips":25,"completionMinutes":45,"basePay":8,"maxBonus":9,"perTrialBonus":0.5,"perTrialBonusThreshold":0.05,"exampleCost":0.02},"classroomParams":{"A":{"a":1,"b":4},"B":{"a":4,"b":1},"C":{"a":2,"b":8},"D":{"a":8,"b":2}},"conditions":["nonSeqFull","nonSeqPartial","seqNoFeedback","seqFeedback"],"classroomPairings":[["A","B"],["C","D"]],"coinWeights":[0.2,0.5,0.8],"subjectId":"A88DXNDGDUWEN","assignmentId":"32Z9ZLUT1M67S8FQY8DELLK98HWOH9","hitId":"3IH9TRB0FBLK6RLF7MSMKICTGYN1IU","url":"https://gershmanlab.com/experiments/alicia/teaching/experiment/?hitId=3IH9TRB0FBLK6RLF7MSMKICTGYN1IU&workerId=A88DXNDGDUWEN&assignmentId=32Z9ZLUT1M67S8FQY8DELLK98HWOH9&a=TZZ23&tp_a=TZZ23&b=32Z9ZLUT1M67S8FQY8DELLK98HWOH9&tp_b=32Z9ZLUT1M67S8FQY8DELLK98HWOH9&c=365633&tp_c=365633","totalBonus":4}]