[{"rt":69696,"response":{"heads":"0","tails":"0"},"type":"response","condition":"nonSeqFull","trueTheta":0.2,"classrooms":["C","D"],"studentTrueClassroom":"C","exampleSet":"first","trial_type":"survey-html-form","trial_index":7,"time_elapsed":1665174,"internal_node_id":"0.0-6.0-0.0","params":{"nStudents":24,"maxFlips":25,"completionMinutes":45,"basePay":8,"maxBonus":9,"perTrialBonus":0.5,"perTrialBonusThreshold":0.05,"exampleCost":0.02},"classroomParams":{"A":{"a":1,"b":4},"B":{"a":4,"b":1},"C":{"a":2,"b":8},"D":{"a":8,"b":2}},"conditions":["nonSeqFull","nonSeqPartial","seqNoFeedback","seqFeedback"],"classroomPairings":[["A","B"],["C","D"]],"coinWeights":[0.2,0.5,0.8],"subjectId":"A8C3WNWRBWUXO","assignmentId":"3TMFV4NEP90M46NZMQAIP24W8058WQ","hitId":"39WICJI5ATE2BKO4UUUR86UGAV2Z3G","url":"https://gershmanlab.com/experiments/alicia/teaching/experiment/?hitId=39WICJI5ATE2BKO4UUUR86UGAV2Z3G&workerId=A8C3WNWRBWUXO&assignmentId=3TMFV4NEP90M46NZMQAIP24W8058WQ&a=EVMT3&tp_a=EVMT3&b=3TMFV4NEP90M46NZMQAIP24W8058WQ&tp_b=3TMFV4NEP90M46NZMQAIP24W8058WQ&c=365633&tp_c=365633","heads":0,"tails":0,"studentIndex":0,"studentTrueHypers":{"a":2,"b":8},"studentGuess":0.2,"delta":0,"totalExamples":0,"bonus":0.5,"bonusSoFar":0.5},{"rt":10550,"response":{"heads":"0","tails":"0"},"type":"response","condition":"nonSeqFull","trueTheta":0.2,"classrooms":["C","D"],"studentTrueClassroom":"C","exampleSet":"first","trial_type":"survey-html-form","trial_index":8,"time_elapsed":1675726,"internal_node_id":"0.0-6.1-0.1","params":{"nStudents":24,"maxFlips":25,"completionMinutes":45,"basePay":8,"maxBonus":9,"perTrialBonus":0.5,"perTrialBonusThreshold":0.05,"exampleCost":0.02},"classroomParams":{"A":{"a":1,"b":4},"B":{"a":4,"b":1},"C":{"a":2,"b":8},"D":{"a":8,"b":2}},"conditions":["nonSeqFull","nonSeqPartial","seqNoFeedback","seqFeedback"],"classroomPairings":[["A","B"],["C","D"]],"coinWeights":[0.2,0.5,0.8],"subjectId":"A8C3WNWRBWUXO","assignmentId":"3TMFV4NEP90M46NZMQAIP24W8058WQ","hitId":"39WICJI5ATE2BKO4UUUR86UGAV2Z3G","url":"https://gershmanlab.com/experiments/alicia/teaching/experiment/?hitId=39WICJI5ATE2BKO4UUUR86UGAV2Z3G&workerId=A8C3WNWRBWUXO&assignmentId=3TMFV4NEP90M46NZMQAIP24W8058WQ&a=EVMT3&tp_a=EVMT3&b=3TMFV4NEP90M46NZMQAIP24W8058WQ&tp_b=3TMFV4NEP90M46NZMQAIP24W8058WQ&c=365633&tp_c=365633","heads":0,"tails":0,"studentIndex":0,"studentTrueHypers":{"a":2,"b":8},"studentGuess":0.2,"delta":0,"totalExamples":0,"bonus":0.5,"bonusSoFar":1},{"rt":44474,"response":{"heads":"2","tails":"8"},"type":"response","condition":"nonSeqFull","trueTheta":0.2,"classrooms":["C","D"],"studentTrueClassroom":"C","exampleSet":"first","trial_type":"survey-html-form","trial_index":9,"time_elapsed":1720201,"internal_node_id":"0.0-6.2-0.2","params":{"nStudents":24,"maxFlips":25,"completionMinutes":45,"basePay":8,"maxBonus":9,"perTrialBonus":0.5,"perTrialBonusThreshold":0.05,"exampleCost":0.02},"classroomParams":{"A":{"a":1,"b":4},"B":{"a":4,"b":1},"C":{"a":2,"b":8},"D":{"a":8,"b":2}},"conditions":["nonSeqFull","nonSeqPartial","seqNoFeedback","seqFeedback"],"classroomPairings":[["A","B"],["C","D"]],"coinWeights":[0.2,0.5,0.8],"subjectId":"A8C3WNWRBWUXO","assignmentId":"3TMFV4NEP90M46NZMQAIP24W8058WQ","hitId":"39WICJI5ATE2BKO4UUUR86UGAV2Z3G","url":"https://gershmanlab.com/experiments/alicia/teaching/experiment/?hitId=39WICJI5ATE2BKO4UUUR86UGAV2Z3G&workerId=A8C3WNWRBWUXO&assignmentId=3TMFV4NEP90M46NZMQAIP24W8058WQ&a=EVMT3&tp_a=EVMT3&b=3TMFV4NEP90M46NZMQAIP24W8058WQ&tp_b=3TMFV4NEP90M46NZMQAIP24W8058WQ&c=365633&tp_c=365633","heads":2,"tails":8,"studentIndex":0,"studentTrueHypers":{"a":2,"b":8},"studentGuess":0.2,"delta":0,"totalExamples":10,"bonus":0.3,"bonusSoFar":1.3},{"rt":24967,"response":{"heads":"8","tails":"2"},"type":"response","condition":"seqFeedback","trueTheta":0.8,"classrooms":["A","B"],"studentTrueClassroom":"B","exampleSet":"first","trial_type":"survey-html-form","trial_index":15,"time_elapsed":1779661,"internal_node_id":"0.0-12.0-0.0","params":{"nStudents":24,"maxFlips":25,"completionMinutes":45,"basePay":8,"maxBonus":9,"perTrialBonus":0.5,"perTrialBonusThreshold":0.05,"exampleCost":0.02},"classroomParams":{"A":{"a":1,"b":4},"B":{"a":4,"b":1},"C":{"a":2,"b":8},"D":{"a":8,"b":2}},"conditions":["nonSeqFull","nonSeqPartial","seqNoFeedback","seqFeedback"],"classroomPairings":[["A","B"],["C","D"]],"coinWeights":[0.2,0.5,0.8],"subjectId":"A8C3WNWRBWUXO","assignmentId":"3TMFV4NEP90M46NZMQAIP24W8058WQ","hitId":"39WICJI5ATE2BKO4UUUR86UGAV2Z3G","url":"https://gershmanlab.com/experiments/alicia/teaching/experiment/?hitId=39WICJI5ATE2BKO4UUUR86UGAV2Z3G&workerId=A8C3WNWRBWUXO&assignmentId=3TMFV4NEP90M46NZMQAIP24W8058WQ&a=EVMT3&tp_a=EVMT3&b=3TMFV4NEP90M46NZMQAIP24W8058WQ&tp_b=3TMFV4NEP90M46NZMQAIP24W8058WQ&c=365633&tp_c=365633","heads":8,"tails":2,"studentIndex":1,"studentTrueHypers":{"a":4,"b":1},"studentGuess":0.8,"delta":0,"totalExamples":10,"bonusSoFar":1.3},{"rt":13214,"response":{"heads":"0","tails":"0"},"type":"response","condition":"seqFeedback","trueTheta":0.8,"classrooms":["A","B"],"studentTrueClassroom":"B","exampleSet":"second","trial_type":"survey-html-form","trial_index":19,"time_elapsed":1805625,"internal_node_id":"0.0-16.0-0.0","params":{"nStudents":24,"maxFlips":25,"completionMinutes":45,"basePay":8,"maxBonus":9,"perTrialBonus":0.5,"perTrialBonusThreshold":0.05,"exampleCost":0.02},"classroomParams":{"A":{"a":1,"b":4},"B":{"a":4,"b":1},"C":{"a":2,"b":8},"D":{"a":8,"b":2}},"conditions":["nonSeqFull","nonSeqPartial","seqNoFeedback","seqFeedback"],"classroomPairings":[["A","B"],["C","D"]],"coinWeights":[0.2,0.5,0.8],"subjectId":"A8C3WNWRBWUXO","assignmentId":"3TMFV4NEP90M46NZMQAIP24W8058WQ","hitId":"39WICJI5ATE2BKO4UUUR86UGAV2Z3G","url":"https://gershmanlab.com/experiments/alicia/teaching/experiment/?hitId=39WICJI5ATE2BKO4UUUR86UGAV2Z3G&workerId=A8C3WNWRBWUXO&assignmentId=3TMFV4NEP90M46NZMQAIP24W8058WQ&a=EVMT3&tp_a=EVMT3&b=3TMFV4NEP90M46NZMQAIP24W8058WQ&tp_b=3TMFV4NEP90M46NZMQAIP24W8058WQ&c=365633&tp_c=365633","firstResponseHeads":8,"firstResponseTails":2,"secondResponseHeads":0,"secondResponseTails":0,"totalHeads":8,"totalTails":2,"studentIndex":1,"studentTrueHypers":{"a":4,"b":1},"studentGuess":0.8,"delta":0,"bonus":0.3,"bonusSoFar":1.6,"totalExamples":10},{"rt":8748,"response":{"heads":"8","tails":"2"},"type":"response","condition":"seqFeedback","trueTheta":0.8,"classrooms":["A","B"],"studentTrueClassroom":"B","exampleSet":"second","trial_type":"survey-html-form","trial_index":20,"time_elapsed":1814375,"internal_node_id":"0.0-16.1-0.1","params":{"nStudents":24,"maxFlips":25,"completionMinutes":45,"basePay":8,"maxBonus":9,"perTrialBonus":0.5,"perTrialBonusThreshold":0.05,"exampleCost":0.02},"classroomParams":{"A":{"a":1,"b":4},"B":{"a":4,"b":1},"C":{"a":2,"b":8},"D":{"a":8,"b":2}},"conditions":["nonSeqFull","nonSeqPartial","seqNoFeedback","seqFeedback"],"classroomPairings":[["A","B"],["C","D"]],"coinWeights":[0.2,0.5,0.8],"subjectId":"A8C3WNWRBWUXO","assignmentId":"3TMFV4NEP90M46NZMQAIP24W8058WQ","hitId":"39WICJI5ATE2BKO4UUUR86UGAV2Z3G","url":"https://gershmanlab.com/experiments/alicia/teaching/experiment/?hitId=39WICJI5ATE2BKO4UUUR86UGAV2Z3G&workerId=A8C3WNWRBWUXO&assignmentId=3TMFV4NEP90M46NZMQAIP24W8058WQ&a=EVMT3&tp_a=EVMT3&b=3TMFV4NEP90M46NZMQAIP24W8058WQ&tp_b=3TMFV4NEP90M46NZMQAIP24W8058WQ&c=365633&tp_c=365633","firstResponseHeads":8,"firstResponseTails":2,"secondResponseHeads":8,"secondResponseTails":2,"totalHeads":16,"totalTails":4,"studentIndex":1,"studentTrueHypers":{"a":4,"b":1},"studentGuess":0.8,"delta":0,"bonus":0.1,"bonusSoFar":1.7,"totalExamples":20},{"rt":7593,"response":{"heads":"2","tails":"2"},"type":"response","condition":"seqFeedback","trueTheta":0.5,"classrooms":["A","B"],"studentTrueClassroom":"B","exampleSet":"first","trial_type":"survey-html-form","trial_index":26,"time_elapsed":1905982,"internal_node_id":"0.0-22.0-0.0","params":{"nStudents":24,"maxFlips":25,"completionMinutes":45,"basePay":8,"maxBonus":9,"perTrialBonus":0.5,"perTrialBonusThreshold":0.05,"exampleCost":0.02},"classroomParams":{"A":{"a":1,"b":4},"B":{"a":4,"b":1},"C":{"a":2,"b":8},"D":{"a":8,"b":2}},"conditions":["nonSeqFull","nonSeqPartial","seqNoFeedback","seqFeedback"],"classroomPairings":[["A","B"],["C","D"]],"coinWeights":[0.2,0.5,0.8],"subjectId":"A8C3WNWRBWUXO","assignmentId":"3TMFV4NEP90M46NZMQAIP24W8058WQ","hitId":"39WICJI5ATE2BKO4UUUR86UGAV2Z3G","url":"https://gershmanlab.com/experiments/alicia/teaching/experiment/?hitId=39WICJI5ATE2BKO4UUUR86UGAV2Z3G&workerId=A8C3WNWRBWUXO&assignmentId=3TMFV4NEP90M46NZMQAIP24W8058WQ&a=EVMT3&tp_a=EVMT3&b=3TMFV4NEP90M46NZMQAIP24W8058WQ&tp_b=3TMFV4NEP90M46NZMQAIP24W8058WQ&c=365633&tp_c=365633","heads":2,"tails":2,"studentIndex":2,"studentTrueHypers":{"a":4,"b":1},"studentGuess":0.6666666666666666,"delta":0.16666666666666663,"totalExamples":4,"bonusSoFar":1.7},{"rt":7284,"response":{"heads":"5","tails":"5"},"type":"response","condition":"seqFeedback","trueTheta":0.5,"classrooms":["A","B"],"studentTrueClassroom":"B","exampleSet":"second","trial_type":"survey-html-form","trial_index":30,"time_elapsed":1923358,"internal_node_id":"0.0-26.0-0.0","params":{"nStudents":24,"maxFlips":25,"completionMinutes":45,"basePay":8,"maxBonus":9,"perTrialBonus":0.5,"perTrialBonusThreshold":0.05,"exampleCost":0.02},"classroomParams":{"A":{"a":1,"b":4},"B":{"a":4,"b":1},"C":{"a":2,"b":8},"D":{"a":8,"b":2}},"conditions":["nonSeqFull","nonSeqPartial","seqNoFeedback","seqFeedback"],"classroomPairings":[["A","B"],["C","D"]],"coinWeights":[0.2,0.5,0.8],"subjectId":"A8C3WNWRBWUXO","assignmentId":"3TMFV4NEP90M46NZMQAIP24W8058WQ","hitId":"39WICJI5ATE2BKO4UUUR86UGAV2Z3G","url":"https://gershmanlab.com/experiments/alicia/teaching/experiment/?hitId=39WICJI5ATE2BKO4UUUR86UGAV2Z3G&workerId=A8C3WNWRBWUXO&assignmentId=3TMFV4NEP90M46NZMQAIP24W8058WQ&a=EVMT3&tp_a=EVMT3&b=3TMFV4NEP90M46NZMQAIP24W8058WQ&tp_b=3TMFV4NEP90M46NZMQAIP24W8058WQ&c=365633&tp_c=365633","firstResponseHeads":2,"firstResponseTails":2,"secondResponseHeads":5,"secondResponseTails":5,"totalHeads":7,"totalTails":7,"studentIndex":2,"studentTrueHypers":{"a":4,"b":1},"studentGuess":0.5789473684210527,"delta":0.07894736842105265,"bonus":0,"bonusSoFar":1.7,"totalExamples":14},{"rt":10505,"response":{"heads":"8","tails":"2"},"type":"response","condition":"seqFeedback","trueTheta":0.8,"classrooms":["C","D"],"studentTrueClassroom":"D","exampleSet":"first","trial_type":"survey-html-form","trial_index":36,"time_elapsed":1952294,"internal_node_id":"0.0-32.0-0.0","params":{"nStudents":24,"maxFlips":25,"completionMinutes":45,"basePay":8,"maxBonus":9,"perTrialBonus":0.5,"perTrialBonusThreshold":0.05,"exampleCost":0.02},"classroomParams":{"A":{"a":1,"b":4},"B":{"a":4,"b":1},"C":{"a":2,"b":8},"D":{"a":8,"b":2}},"conditions":["nonSeqFull","nonSeqPartial","seqNoFeedback","seqFeedback"],"classroomPairings":[["A","B"],["C","D"]],"coinWeights":[0.2,0.5,0.8],"subjectId":"A8C3WNWRBWUXO","assignmentId":"3TMFV4NEP90M46NZMQAIP24W8058WQ","hitId":"39WICJI5ATE2BKO4UUUR86UGAV2Z3G","url":"https://gershmanlab.com/experiments/alicia/teaching/experiment/?hitId=39WICJI5ATE2BKO4UUUR86UGAV2Z3G&workerId=A8C3WNWRBWUXO&assignmentId=3TMFV4NEP90M46NZMQAIP24W8058WQ&a=EVMT3&tp_a=EVMT3&b=3TMFV4NEP90M46NZMQAIP24W8058WQ&tp_b=3TMFV4NEP90M46NZMQAIP24W8058WQ&c=365633&tp_c=365633","heads":8,"tails":2,"studentIndex":3,"studentTrueHypers":{"a":8,"b":2},"studentGuess":0.8,"delta":0,"totalExamples":10,"bonusSoFar":1.7},{"rt":9837,"response":{"heads":"8","tails":"2"},"type":"response","condition":"seqFeedback","trueTheta":0.8,"classrooms":["C","D"],"studentTrueClassroom":"D","exampleSet":"second","trial_type":"survey-html-form","trial_index":40,"time_elapsed":1970230,"internal_node_id":"0.0-36.0-0.0","params":{"nStudents":24,"maxFlips":25,"completionMinutes":45,"basePay":8,"maxBonus":9,"perTrialBonus":0.5,"perTrialBonusThreshold":0.05,"exampleCost":0.02},"classroomParams":{"A":{"a":1,"b":4},"B":{"a":4,"b":1},"C":{"a":2,"b":8},"D":{"a":8,"b":2}},"conditions":["nonSeqFull","nonSeqPartial","seqNoFeedback","seqFeedback"],"classroomPairings":[["A","B"],["C","D"]],"coinWeights":[0.2,0.5,0.8],"subjectId":"A8C3WNWRBWUXO","assignmentId":"3TMFV4NEP90M46NZMQAIP24W8058WQ","hitId":"39WICJI5ATE2BKO4UUUR86UGAV2Z3G","url":"https://gershmanlab.com/experiments/alicia/teaching/experiment/?hitId=39WICJI5ATE2BKO4UUUR86UGAV2Z3G&workerId=A8C3WNWRBWUXO&assignmentId=3TMFV4NEP90M46NZMQAIP24W8058WQ&a=EVMT3&tp_a=EVMT3&b=3TMFV4NEP90M46NZMQAIP24W8058WQ&tp_b=3TMFV4NEP90M46NZMQAIP24W8058WQ&c=365633&tp_c=365633","firstResponseHeads":8,"firstResponseTails":2,"secondResponseHeads":8,"secondResponseTails":2,"totalHeads":16,"totalTails":4,"studentIndex":3,"studentTrueHypers":{"a":8,"b":2},"studentGuess":0.8,"delta":0,"bonus":0.1,"bonusSoFar":1.8,"totalExamples":20},{"rt":17799,"response":{"heads":"10","tails":"10"},"type":"response","condition":"nonSeqFull","trueTheta":0.5,"classrooms":["A","B"],"studentTrueClassroom":"A","exampleSet":"first","trial_type":"survey-html-form","trial_index":46,"time_elapsed":2003264,"internal_node_id":"0.0-42.0-0.0","params":{"nStudents":24,"maxFlips":25,"completionMinutes":45,"basePay":8,"maxBonus":9,"perTrialBonus":0.5,"perTrialBonusThreshold":0.05,"exampleCost":0.02},"classroomParams":{"A":{"a":1,"b":4},"B":{"a":4,"b":1},"C":{"a":2,"b":8},"D":{"a":8,"b":2}},"conditions":["nonSeqFull","nonSeqPartial","seqNoFeedback","seqFeedback"],"classroomPairings":[["A","B"],["C","D"]],"coinWeights":[0.2,0.5,0.8],"subjectId":"A8C3WNWRBWUXO","assignmentId":"3TMFV4NEP90M46NZMQAIP24W8058WQ","hitId":"39WICJI5ATE2BKO4UUUR86UGAV2Z3G","url":"https://gershmanlab.com/experiments/alicia/teaching/experiment/?hitId=39WICJI5ATE2BKO4UUUR86UGAV2Z3G&workerId=A8C3WNWRBWUXO&assignmentId=3TMFV4NEP90M46NZMQAIP24W8058WQ&a=EVMT3&tp_a=EVMT3&b=3TMFV4NEP90M46NZMQAIP24W8058WQ&tp_b=3TMFV4NEP90M46NZMQAIP24W8058WQ&c=365633&tp_c=365633","heads":10,"tails":10,"studentIndex":4,"studentTrueHypers":{"a":1,"b":4},"studentGuess":0.44,"delta":0.06,"totalExamples":20,"bonus":0,"bonusSoFar":1.8},{"rt":5721,"response":{"heads":"2","tails":"8"},"type":"response","condition":"nonSeqPartial","trueTheta":0.2,"classrooms":["A","B"],"studentTrueClassroom":"B","exampleSet":"first","trial_type":"survey-html-form","trial_index":52,"time_elapsed":2021123,"internal_node_id":"0.0-48.0-0.0","params":{"nStudents":24,"maxFlips":25,"completionMinutes":45,"basePay":8,"maxBonus":9,"perTrialBonus":0.5,"perTrialBonusThreshold":0.05,"exampleCost":0.02},"classroomParams":{"A":{"a":1,"b":4},"B":{"a":4,"b":1},"C":{"a":2,"b":8},"D":{"a":8,"b":2}},"conditions":["nonSeqFull","nonSeqPartial","seqNoFeedback","seqFeedback"],"classroomPairings":[["A","B"],["C","D"]],"coinWeights":[0.2,0.5,0.8],"subjectId":"A8C3WNWRBWUXO","assignmentId":"3TMFV4NEP90M46NZMQAIP24W8058WQ","hitId":"39WICJI5ATE2BKO4UUUR86UGAV2Z3G","url":"https://gershmanlab.com/experiments/alicia/teaching/experiment/?hitId=39WICJI5ATE2BKO4UUUR86UGAV2Z3G&workerId=A8C3WNWRBWUXO&assignmentId=3TMFV4NEP90M46NZMQAIP24W8058WQ&a=EVMT3&tp_a=EVMT3&b=3TMFV4NEP90M46NZMQAIP24W8058WQ&tp_b=3TMFV4NEP90M46NZMQAIP24W8058WQ&c=365633&tp_c=365633","heads":2,"tails":8,"studentIndex":5,"studentTrueHypers":{"a":4,"b":1},"studentGuess":0.4,"delta":0.2,"totalExamples":10,"bonus":0,"bonusSoFar":1.8},{"rt":6439,"response":{"heads":"2","tails":"8"},"type":"response","condition":"seqNoFeedback","trueTheta":0.2,"classrooms":["A","B"],"studentTrueClassroom":"A","exampleSet":"first","trial_type":"survey-html-form","trial_index":58,"time_elapsed":2045895,"internal_node_id":"0.0-54.0-0.0","params":{"nStudents":24,"maxFlips":25,"completionMinutes":45,"basePay":8,"maxBonus":9,"perTrialBonus":0.5,"perTrialBonusThreshold":0.05,"exampleCost":0.02},"classroomParams":{"A":{"a":1,"b":4},"B":{"a":4,"b":1},"C":{"a":2,"b":8},"D":{"a":8,"b":2}},"conditions":["nonSeqFull","nonSeqPartial","seqNoFeedback","seqFeedback"],"classroomPairings":[["A","B"],["C","D"]],"coinWeights":[0.2,0.5,0.8],"subjectId":"A8C3WNWRBWUXO","assignmentId":"3TMFV4NEP90M46NZMQAIP24W8058WQ","hitId":"39WICJI5ATE2BKO4UUUR86UGAV2Z3G","url":"https://gershmanlab.com/experiments/alicia/teaching/experiment/?hitId=39WICJI5ATE2BKO4UUUR86UGAV2Z3G&workerId=A8C3WNWRBWUXO&assignmentId=3TMFV4NEP90M46NZMQAIP24W8058WQ&a=EVMT3&tp_a=EVMT3&b=3TMFV4NEP90M46NZMQAIP24W8058WQ&tp_b=3TMFV4NEP90M46NZMQAIP24W8058WQ&c=365633&tp_c=365633","heads":2,"tails":8,"studentIndex":6,"studentTrueHypers":{"a":1,"b":4},"studentGuess":0.2,"delta":0,"totalExamples":10,"bonusSoFar":1.8},{"rt":21693,"response":{"heads":"4","tails":"16"},"type":"response","condition":"seqNoFeedback","trueTheta":0.2,"classrooms":["A","B"],"studentTrueClassroom":"A","exampleSet":"second","trial_type":"survey-html-form","trial_index":61,"time_elapsed":2074119,"internal_node_id":"0.0-57.0-0.0","params":{"nStudents":24,"maxFlips":25,"completionMinutes":45,"basePay":8,"maxBonus":9,"perTrialBonus":0.5,"perTrialBonusThreshold":0.05,"exampleCost":0.02},"classroomParams":{"A":{"a":1,"b":4},"B":{"a":4,"b":1},"C":{"a":2,"b":8},"D":{"a":8,"b":2}},"conditions":["nonSeqFull","nonSeqPartial","seqNoFeedback","seqFeedback"],"classroomPairings":[["A","B"],["C","D"]],"coinWeights":[0.2,0.5,0.8],"subjectId":"A8C3WNWRBWUXO","assignmentId":"3TMFV4NEP90M46NZMQAIP24W8058WQ","hitId":"39WICJI5ATE2BKO4UUUR86UGAV2Z3G","url":"https://gershmanlab.com/experiments/alicia/teaching/experiment/?hitId=39WICJI5ATE2BKO4UUUR86UGAV2Z3G&workerId=A8C3WNWRBWUXO&assignmentId=3TMFV4NEP90M46NZMQAIP24W8058WQ&a=EVMT3&tp_a=EVMT3&b=3TMFV4NEP90M46NZMQAIP24W8058WQ&tp_b=3TMFV4NEP90M46NZMQAIP24W8058WQ&c=365633&tp_c=365633","firstResponseHeads":2,"firstResponseTails":8,"secondResponseHeads":4,"secondResponseTails":16,"totalHeads":6,"totalTails":24,"studentIndex":6,"studentTrueHypers":{"a":1,"b":4},"studentGuess":0.2,"delta":0,"bonus":0,"bonusSoFar":1.8,"totalExamples":30},{"rt":17167,"response":{"heads":"10","tails":"10"},"type":"response","condition":"nonSeqPartial","trueTheta":0.5,"classrooms":["C","D"],"studentTrueClassroom":"C","exampleSet":"first","trial_type":"survey-html-form","trial_index":67,"time_elapsed":2112609,"internal_node_id":"0.0-63.0-0.0","params":{"nStudents":24,"maxFlips":25,"completionMinutes":45,"basePay":8,"maxBonus":9,"perTrialBonus":0.5,"perTrialBonusThreshold":0.05,"exampleCost":0.02},"classroomParams":{"A":{"a":1,"b":4},"B":{"a":4,"b":1},"C":{"a":2,"b":8},"D":{"a":8,"b":2}},"conditions":["nonSeqFull","nonSeqPartial","seqNoFeedback","seqFeedback"],"classroomPairings":[["A","B"],["C","D"]],"coinWeights":[0.2,0.5,0.8],"subjectId":"A8C3WNWRBWUXO","assignmentId":"3TMFV4NEP90M46NZMQAIP24W8058WQ","hitId":"39WICJI5ATE2BKO4UUUR86UGAV2Z3G","url":"https://gershmanlab.com/experiments/alicia/teaching/experiment/?hitId=39WICJI5ATE2BKO4UUUR86UGAV2Z3G&workerId=A8C3WNWRBWUXO&assignmentId=3TMFV4NEP90M46NZMQAIP24W8058WQ&a=EVMT3&tp_a=EVMT3&b=3TMFV4NEP90M46NZMQAIP24W8058WQ&tp_b=3TMFV4NEP90M46NZMQAIP24W8058WQ&c=365633&tp_c=365633","heads":10,"tails":10,"studentIndex":7,"studentTrueHypers":{"a":2,"b":8},"studentGuess":0.4,"delta":0.09999999999999998,"totalExamples":20,"bonus":0,"bonusSoFar":1.8},{"rt":9293,"response":{"heads":"12","tails":"12"},"type":"response","condition":"nonSeqFull","trueTheta":0.5,"classrooms":["C","D"],"studentTrueClassroom":"D","exampleSet":"first","trial_type":"survey-html-form","trial_index":73,"time_elapsed":2141051,"internal_node_id":"0.0-69.0-0.0","params":{"nStudents":24,"maxFlips":25,"completionMinutes":45,"basePay":8,"maxBonus":9,"perTrialBonus":0.5,"perTrialBonusThreshold":0.05,"exampleCost":0.02},"classroomParams":{"A":{"a":1,"b":4},"B":{"a":4,"b":1},"C":{"a":2,"b":8},"D":{"a":8,"b":2}},"conditions":["nonSeqFull","nonSeqPartial","seqNoFeedback","seqFeedback"],"classroomPairings":[["A","B"],["C","D"]],"coinWeights":[0.2,0.5,0.8],"subjectId":"A8C3WNWRBWUXO","assignmentId":"3TMFV4NEP90M46NZMQAIP24W8058WQ","hitId":"39WICJI5ATE2BKO4UUUR86UGAV2Z3G","url":"https://gershmanlab.com/experiments/alicia/teaching/experiment/?hitId=39WICJI5ATE2BKO4UUUR86UGAV2Z3G&workerId=A8C3WNWRBWUXO&assignmentId=3TMFV4NEP90M46NZMQAIP24W8058WQ&a=EVMT3&tp_a=EVMT3&b=3TMFV4NEP90M46NZMQAIP24W8058WQ&tp_b=3TMFV4NEP90M46NZMQAIP24W8058WQ&c=365633&tp_c=365633","heads":12,"tails":12,"studentIndex":8,"studentTrueHypers":{"a":8,"b":2},"studentGuess":0.5882352941176471,"delta":0.08823529411764708,"totalExamples":24,"bonus":0,"bonusSoFar":1.8},{"rt":6971,"response":{"heads":"2","tails":"2"},"type":"response","condition":"seqNoFeedback","trueTheta":0.5,"classrooms":["C","D"],"studentTrueClassroom":"C","exampleSet":"first","trial_type":"survey-html-form","trial_index":79,"time_elapsed":2162182,"internal_node_id":"0.0-75.0-0.0","params":{"nStudents":24,"maxFlips":25,"completionMinutes":45,"basePay":8,"maxBonus":9,"perTrialBonus":0.5,"perTrialBonusThreshold":0.05,"exampleCost":0.02},"classroomParams":{"A":{"a":1,"b":4},"B":{"a":4,"b":1},"C":{"a":2,"b":8},"D":{"a":8,"b":2}},"conditions":["nonSeqFull","nonSeqPartial","seqNoFeedback","seqFeedback"],"classroomPairings":[["A","B"],["C","D"]],"coinWeights":[0.2,0.5,0.8],"subjectId":"A8C3WNWRBWUXO","assignmentId":"3TMFV4NEP90M46NZMQAIP24W8058WQ","hitId":"39WICJI5ATE2BKO4UUUR86UGAV2Z3G","url":"https://gershmanlab.com/experiments/alicia/teaching/experiment/?hitId=39WICJI5ATE2BKO4UUUR86UGAV2Z3G&workerId=A8C3WNWRBWUXO&assignmentId=3TMFV4NEP90M46NZMQAIP24W8058WQ&a=EVMT3&tp_a=EVMT3&b=3TMFV4NEP90M46NZMQAIP24W8058WQ&tp_b=3TMFV4NEP90M46NZMQAIP24W8058WQ&c=365633&tp_c=365633","heads":2,"tails":2,"studentIndex":9,"studentTrueHypers":{"a":2,"b":8},"studentGuess":0.2857142857142857,"delta":0.2142857142857143,"totalExamples":4,"bonusSoFar":1.8},{"rt":11468,"response":{"heads":"3","tails":"3"},"type":"response","condition":"seqNoFeedback","trueTheta":0.5,"classrooms":["C","D"],"studentTrueClassroom":"C","exampleSet":"second","trial_type":"survey-html-form","trial_index":82,"time_elapsed":2181672,"internal_node_id":"0.0-78.0-0.0","params":{"nStudents":24,"maxFlips":25,"completionMinutes":45,"basePay":8,"maxBonus":9,"perTrialBonus":0.5,"perTrialBonusThreshold":0.05,"exampleCost":0.02},"classroomParams":{"A":{"a":1,"b":4},"B":{"a":4,"b":1},"C":{"a":2,"b":8},"D":{"a":8,"b":2}},"conditions":["nonSeqFull","nonSeqPartial","seqNoFeedback","seqFeedback"],"classroomPairings":[["A","B"],["C","D"]],"coinWeights":[0.2,0.5,0.8],"subjectId":"A8C3WNWRBWUXO","assignmentId":"3TMFV4NEP90M46NZMQAIP24W8058WQ","hitId":"39WICJI5ATE2BKO4UUUR86UGAV2Z3G","url":"https://gershmanlab.com/experiments/alicia/teaching/experiment/?hitId=39WICJI5ATE2BKO4UUUR86UGAV2Z3G&workerId=A8C3WNWRBWUXO&assignmentId=3TMFV4NEP90M46NZMQAIP24W8058WQ&a=EVMT3&tp_a=EVMT3&b=3TMFV4NEP90M46NZMQAIP24W8058WQ&tp_b=3TMFV4NEP90M46NZMQAIP24W8058WQ&c=365633&tp_c=365633","firstResponseHeads":2,"firstResponseTails":2,"secondResponseHeads":3,"secondResponseTails":3,"totalHeads":5,"totalTails":5,"studentIndex":9,"studentTrueHypers":{"a":2,"b":8},"studentGuess":0.35,"delta":0.15000000000000002,"bonus":0,"bonusSoFar":1.8,"totalExamples":10},{"rt":10327,"response":{"heads":"2","tails":"8"},"type":"response","condition":"nonSeqPartial","trueTheta":0.2,"classrooms":["C","D"],"studentTrueClassroom":"D","exampleSet":"first","trial_type":"survey-html-form","trial_index":88,"time_elapsed":2207981,"internal_node_id":"0.0-84.0-0.0","params":{"nStudents":24,"maxFlips":25,"completionMinutes":45,"basePay":8,"maxBonus":9,"perTrialBonus":0.5,"perTrialBonusThreshold":0.05,"exampleCost":0.02},"classroomParams":{"A":{"a":1,"b":4},"B":{"a":4,"b":1},"C":{"a":2,"b":8},"D":{"a":8,"b":2}},"conditions":["nonSeqFull","nonSeqPartial","seqNoFeedback","seqFeedback"],"classroomPairings":[["A","B"],["C","D"]],"coinWeights":[0.2,0.5,0.8],"subjectId":"A8C3WNWRBWUXO","assignmentId":"3TMFV4NEP90M46NZMQAIP24W8058WQ","hitId":"39WICJI5ATE2BKO4UUUR86UGAV2Z3G","url":"https://gershmanlab.com/experiments/alicia/teaching/experiment/?hitId=39WICJI5ATE2BKO4UUUR86UGAV2Z3G&workerId=A8C3WNWRBWUXO&assignmentId=3TMFV4NEP90M46NZMQAIP24W8058WQ&a=EVMT3&tp_a=EVMT3&b=3TMFV4NEP90M46NZMQAIP24W8058WQ&tp_b=3TMFV4NEP90M46NZMQAIP24W8058WQ&c=365633&tp_c=365633","heads":2,"tails":8,"studentIndex":10,"studentTrueHypers":{"a":8,"b":2},"studentGuess":0.5,"delta":0.3,"totalExamples":10,"bonus":0,"bonusSoFar":1.8},{"rt":4303,"response":{"heads":"8","tails":"8"},"type":"response","condition":"nonSeqPartial","trueTheta":0.5,"classrooms":["A","B"],"studentTrueClassroom":"B","exampleSet":"first","trial_type":"survey-html-form","trial_index":94,"time_elapsed":2229565,"internal_node_id":"0.0-90.0-0.0","params":{"nStudents":24,"maxFlips":25,"completionMinutes":45,"basePay":8,"maxBonus":9,"perTrialBonus":0.5,"perTrialBonusThreshold":0.05,"exampleCost":0.02},"classroomParams":{"A":{"a":1,"b":4},"B":{"a":4,"b":1},"C":{"a":2,"b":8},"D":{"a":8,"b":2}},"conditions":["nonSeqFull","nonSeqPartial","seqNoFeedback","seqFeedback"],"classroomPairings":[["A","B"],["C","D"]],"coinWeights":[0.2,0.5,0.8],"subjectId":"A8C3WNWRBWUXO","assignmentId":"3TMFV4NEP90M46NZMQAIP24W8058WQ","hitId":"39WICJI5ATE2BKO4UUUR86UGAV2Z3G","url":"https://gershmanlab.com/experiments/alicia/teaching/experiment/?hitId=39WICJI5ATE2BKO4UUUR86UGAV2Z3G&workerId=A8C3WNWRBWUXO&assignmentId=3TMFV4NEP90M46NZMQAIP24W8058WQ&a=EVMT3&tp_a=EVMT3&b=3TMFV4NEP90M46NZMQAIP24W8058WQ&tp_b=3TMFV4NEP90M46NZMQAIP24W8058WQ&c=365633&tp_c=365633","heads":8,"tails":8,"studentIndex":11,"studentTrueHypers":{"a":4,"b":1},"studentGuess":0.5714285714285714,"delta":0.0714285714285714,"totalExamples":16,"bonus":0,"bonusSoFar":1.8},{"rt":7751,"response":{"heads":"3","tails":"3"},"type":"response","condition":"seqFeedback","trueTheta":0.5,"classrooms":["C","D"],"studentTrueClassroom":"D","exampleSet":"first","trial_type":"survey-html-form","trial_index":100,"time_elapsed":2251717,"internal_node_id":"0.0-96.0-0.0","params":{"nStudents":24,"maxFlips":25,"completionMinutes":45,"basePay":8,"maxBonus":9,"perTrialBonus":0.5,"perTrialBonusThreshold":0.05,"exampleCost":0.02},"classroomParams":{"A":{"a":1,"b":4},"B":{"a":4,"b":1},"C":{"a":2,"b":8},"D":{"a":8,"b":2}},"conditions":["nonSeqFull","nonSeqPartial","seqNoFeedback","seqFeedback"],"classroomPairings":[["A","B"],["C","D"]],"coinWeights":[0.2,0.5,0.8],"subjectId":"A8C3WNWRBWUXO","assignmentId":"3TMFV4NEP90M46NZMQAIP24W8058WQ","hitId":"39WICJI5ATE2BKO4UUUR86UGAV2Z3G","url":"https://gershmanlab.com/experiments/alicia/teaching/experiment/?hitId=39WICJI5ATE2BKO4UUUR86UGAV2Z3G&workerId=A8C3WNWRBWUXO&assignmentId=3TMFV4NEP90M46NZMQAIP24W8058WQ&a=EVMT3&tp_a=EVMT3&b=3TMFV4NEP90M46NZMQAIP24W8058WQ&tp_b=3TMFV4NEP90M46NZMQAIP24W8058WQ&c=365633&tp_c=365633","heads":3,"tails":3,"studentIndex":12,"studentTrueHypers":{"a":8,"b":2},"studentGuess":0.6875,"delta":0.1875,"totalExamples":6,"bonusSoFar":1.8},{"rt":7480,"response":{"heads":"6","tails":"6"},"type":"response","condition":"seqFeedback","trueTheta":0.5,"classrooms":["C","D"],"studentTrueClassroom":"D","exampleSet":"second","trial_type":"survey-html-form","trial_index":104,"time_elapsed":2270965,"internal_node_id":"0.0-100.0-0.0","params":{"nStudents":24,"maxFlips":25,"completionMinutes":45,"basePay":8,"maxBonus":9,"perTrialBonus":0.5,"perTrialBonusThreshold":0.05,"exampleCost":0.02},"classroomParams":{"A":{"a":1,"b":4},"B":{"a":4,"b":1},"C":{"a":2,"b":8},"D":{"a":8,"b":2}},"conditions":["nonSeqFull","nonSeqPartial","seqNoFeedback","seqFeedback"],"classroomPairings":[["A","B"],["C","D"]],"coinWeights":[0.2,0.5,0.8],"subjectId":"A8C3WNWRBWUXO","assignmentId":"3TMFV4NEP90M46NZMQAIP24W8058WQ","hitId":"39WICJI5ATE2BKO4UUUR86UGAV2Z3G","url":"https://gershmanlab.com/experiments/alicia/teaching/experiment/?hitId=39WICJI5ATE2BKO4UUUR86UGAV2Z3G&workerId=A8C3WNWRBWUXO&assignmentId=3TMFV4NEP90M46NZMQAIP24W8058WQ&a=EVMT3&tp_a=EVMT3&b=3TMFV4NEP90M46NZMQAIP24W8058WQ&tp_b=3TMFV4NEP90M46NZMQAIP24W8058WQ&c=365633&tp_c=365633","firstResponseHeads":3,"firstResponseTails":3,"secondResponseHeads":6,"secondResponseTails":6,"totalHeads":9,"totalTails":9,"studentIndex":12,"studentTrueHypers":{"a":8,"b":2},"studentGuess":0.6071428571428571,"delta":0.1071428571428571,"bonus":0,"bonusSoFar":1.8,"totalExamples":18},{"rt":13863,"response":{"heads":"4","tails":"16"},"type":"response","condition":"nonSeqFull","trueTheta":0.2,"classrooms":["A","B"],"studentTrueClassroom":"B","exampleSet":"first","trial_type":"survey-html-form","trial_index":110,"time_elapsed":2303349,"internal_node_id":"0.0-106.0-0.0","params":{"nStudents":24,"maxFlips":25,"completionMinutes":45,"basePay":8,"maxBonus":9,"perTrialBonus":0.5,"perTrialBonusThreshold":0.05,"exampleCost":0.02},"classroomParams":{"A":{"a":1,"b":4},"B":{"a":4,"b":1},"C":{"a":2,"b":8},"D":{"a":8,"b":2}},"conditions":["nonSeqFull","nonSeqPartial","seqNoFeedback","seqFeedback"],"classroomPairings":[["A","B"],["C","D"]],"coinWeights":[0.2,0.5,0.8],"subjectId":"A8C3WNWRBWUXO","assignmentId":"3TMFV4NEP90M46NZMQAIP24W8058WQ","hitId":"39WICJI5ATE2BKO4UUUR86UGAV2Z3G","url":"https://gershmanlab.com/experiments/alicia/teaching/experiment/?hitId=39WICJI5ATE2BKO4UUUR86UGAV2Z3G&workerId=A8C3WNWRBWUXO&assignmentId=3TMFV4NEP90M46NZMQAIP24W8058WQ&a=EVMT3&tp_a=EVMT3&b=3TMFV4NEP90M46NZMQAIP24W8058WQ&tp_b=3TMFV4NEP90M46NZMQAIP24W8058WQ&c=365633&tp_c=365633","heads":4,"tails":16,"studentIndex":13,"studentTrueHypers":{"a":4,"b":1},"studentGuess":0.32,"delta":0.12,"totalExamples":20,"bonus":0,"bonusSoFar":1.8},{"rt":5471,"response":{"heads":"8","tails":"2"},"type":"response","condition":"seqNoFeedback","trueTheta":0.8,"classrooms":["C","D"],"studentTrueClassroom":"C","exampleSet":"first","trial_type":"survey-html-form","trial_index":116,"time_elapsed":2325293,"internal_node_id":"0.0-112.0-0.0","params":{"nStudents":24,"maxFlips":25,"completionMinutes":45,"basePay":8,"maxBonus":9,"perTrialBonus":0.5,"perTrialBonusThreshold":0.05,"exampleCost":0.02},"classroomParams":{"A":{"a":1,"b":4},"B":{"a":4,"b":1},"C":{"a":2,"b":8},"D":{"a":8,"b":2}},"conditions":["nonSeqFull","nonSeqPartial","seqNoFeedback","seqFeedback"],"classroomPairings":[["A","B"],["C","D"]],"coinWeights":[0.2,0.5,0.8],"subjectId":"A8C3WNWRBWUXO","assignmentId":"3TMFV4NEP90M46NZMQAIP24W8058WQ","hitId":"39WICJI5ATE2BKO4UUUR86UGAV2Z3G","url":"https://gershmanlab.com/experiments/alicia/teaching/experiment/?hitId=39WICJI5ATE2BKO4UUUR86UGAV2Z3G&workerId=A8C3WNWRBWUXO&assignmentId=3TMFV4NEP90M46NZMQAIP24W8058WQ&a=EVMT3&tp_a=EVMT3&b=3TMFV4NEP90M46NZMQAIP24W8058WQ&tp_b=3TMFV4NEP90M46NZMQAIP24W8058WQ&c=365633&tp_c=365633","heads":8,"tails":2,"studentIndex":14,"studentTrueHypers":{"a":2,"b":8},"studentGuess":0.5,"delta":0.30000000000000004,"totalExamples":10,"bonusSoFar":1.8},{"rt":8249,"response":{"heads":"8","tails":"2"},"type":"response","condition":"seqNoFeedback","trueTheta":0.8,"classrooms":["C","D"],"studentTrueClassroom":"C","exampleSet":"second","trial_type":"survey-html-form","trial_index":119,"time_elapsed":2339813,"internal_node_id":"0.0-115.0-0.0","params":{"nStudents":24,"maxFlips":25,"completionMinutes":45,"basePay":8,"maxBonus":9,"perTrialBonus":0.5,"perTrialBonusThreshold":0.05,"exampleCost":0.02},"classroomParams":{"A":{"a":1,"b":4},"B":{"a":4,"b":1},"C":{"a":2,"b":8},"D":{"a":8,"b":2}},"conditions":["nonSeqFull","nonSeqPartial","seqNoFeedback","seqFeedback"],"classroomPairings":[["A","B"],["C","D"]],"coinWeights":[0.2,0.5,0.8],"subjectId":"A8C3WNWRBWUXO","assignmentId":"3TMFV4NEP90M46NZMQAIP24W8058WQ","hitId":"39WICJI5ATE2BKO4UUUR86UGAV2Z3G","url":"https://gershmanlab.com/experiments/alicia/teaching/experiment/?hitId=39WICJI5ATE2BKO4UUUR86UGAV2Z3G&workerId=A8C3WNWRBWUXO&assignmentId=3TMFV4NEP90M46NZMQAIP24W8058WQ&a=EVMT3&tp_a=EVMT3&b=3TMFV4NEP90M46NZMQAIP24W8058WQ&tp_b=3TMFV4NEP90M46NZMQAIP24W8058WQ&c=365633&tp_c=365633","firstResponseHeads":8,"firstResponseTails":2,"secondResponseHeads":8,"secondResponseTails":2,"totalHeads":16,"totalTails":4,"studentIndex":14,"studentTrueHypers":{"a":2,"b":8},"studentGuess":0.6,"delta":0.20000000000000007,"bonus":0,"bonusSoFar":1.8,"totalExamples":20},{"rt":8015,"response":{"heads":"2","tails":"8"},"type":"response","condition":"seqNoFeedback","trueTheta":0.2,"classrooms":["C","D"],"studentTrueClassroom":"C","exampleSet":"first","trial_type":"survey-html-form","trial_index":125,"time_elapsed":2362997,"internal_node_id":"0.0-121.0-0.0","params":{"nStudents":24,"maxFlips":25,"completionMinutes":45,"basePay":8,"maxBonus":9,"perTrialBonus":0.5,"perTrialBonusThreshold":0.05,"exampleCost":0.02},"classroomParams":{"A":{"a":1,"b":4},"B":{"a":4,"b":1},"C":{"a":2,"b":8},"D":{"a":8,"b":2}},"conditions":["nonSeqFull","nonSeqPartial","seqNoFeedback","seqFeedback"],"classroomPairings":[["A","B"],["C","D"]],"coinWeights":[0.2,0.5,0.8],"subjectId":"A8C3WNWRBWUXO","assignmentId":"3TMFV4NEP90M46NZMQAIP24W8058WQ","hitId":"39WICJI5ATE2BKO4UUUR86UGAV2Z3G","url":"https://gershmanlab.com/experiments/alicia/teaching/experiment/?hitId=39WICJI5ATE2BKO4UUUR86UGAV2Z3G&workerId=A8C3WNWRBWUXO&assignmentId=3TMFV4NEP90M46NZMQAIP24W8058WQ&a=EVMT3&tp_a=EVMT3&b=3TMFV4NEP90M46NZMQAIP24W8058WQ&tp_b=3TMFV4NEP90M46NZMQAIP24W8058WQ&c=365633&tp_c=365633","heads":2,"tails":8,"studentIndex":15,"studentTrueHypers":{"a":2,"b":8},"studentGuess":0.2,"delta":0,"totalExamples":10,"bonusSoFar":1.8},{"rt":5299,"response":{"heads":"2","tails":"8"},"type":"response","condition":"seqNoFeedback","trueTheta":0.2,"classrooms":["C","D"],"studentTrueClassroom":"C","exampleSet":"second","trial_type":"survey-html-form","trial_index":128,"time_elapsed":2375565,"internal_node_id":"0.0-124.0-0.0","params":{"nStudents":24,"maxFlips":25,"completionMinutes":45,"basePay":8,"maxBonus":9,"perTrialBonus":0.5,"perTrialBonusThreshold":0.05,"exampleCost":0.02},"classroomParams":{"A":{"a":1,"b":4},"B":{"a":4,"b":1},"C":{"a":2,"b":8},"D":{"a":8,"b":2}},"conditions":["nonSeqFull","nonSeqPartial","seqNoFeedback","seqFeedback"],"classroomPairings":[["A","B"],["C","D"]],"coinWeights":[0.2,0.5,0.8],"subjectId":"A8C3WNWRBWUXO","assignmentId":"3TMFV4NEP90M46NZMQAIP24W8058WQ","hitId":"39WICJI5ATE2BKO4UUUR86UGAV2Z3G","url":"https://gershmanlab.com/experiments/alicia/teaching/experiment/?hitId=39WICJI5ATE2BKO4UUUR86UGAV2Z3G&workerId=A8C3WNWRBWUXO&assignmentId=3TMFV4NEP90M46NZMQAIP24W8058WQ&a=EVMT3&tp_a=EVMT3&b=3TMFV4NEP90M46NZMQAIP24W8058WQ&tp_b=3TMFV4NEP90M46NZMQAIP24W8058WQ&c=365633&tp_c=365633","firstResponseHeads":2,"firstResponseTails":8,"secondResponseHeads":2,"secondResponseTails":8,"totalHeads":4,"totalTails":16,"studentIndex":15,"studentTrueHypers":{"a":2,"b":8},"studentGuess":0.2,"delta":0,"bonus":0.1,"bonusSoFar":1.9,"totalExamples":20},{"rt":9447,"response":{"heads":"5","tails":"5"},"type":"response","condition":"seqNoFeedback","trueTheta":0.5,"classrooms":["A","B"],"studentTrueClassroom":"B","exampleSet":"first","trial_type":"survey-html-form","trial_index":134,"time_elapsed":2397869,"internal_node_id":"0.0-130.0-0.0","params":{"nStudents":24,"maxFlips":25,"completionMinutes":45,"basePay":8,"maxBonus":9,"perTrialBonus":0.5,"perTrialBonusThreshold":0.05,"exampleCost":0.02},"classroomParams":{"A":{"a":1,"b":4},"B":{"a":4,"b":1},"C":{"a":2,"b":8},"D":{"a":8,"b":2}},"conditions":["nonSeqFull","nonSeqPartial","seqNoFeedback","seqFeedback"],"classroomPairings":[["A","B"],["C","D"]],"coinWeights":[0.2,0.5,0.8],"subjectId":"A8C3WNWRBWUXO","assignmentId":"3TMFV4NEP90M46NZMQAIP24W8058WQ","hitId":"39WICJI5ATE2BKO4UUUR86UGAV2Z3G","url":"https://gershmanlab.com/experiments/alicia/teaching/experiment/?hitId=39WICJI5ATE2BKO4UUUR86UGAV2Z3G&workerId=A8C3WNWRBWUXO&assignmentId=3TMFV4NEP90M46NZMQAIP24W8058WQ&a=EVMT3&tp_a=EVMT3&b=3TMFV4NEP90M46NZMQAIP24W8058WQ&tp_b=3TMFV4NEP90M46NZMQAIP24W8058WQ&c=365633&tp_c=365633","heads":5,"tails":5,"studentIndex":16,"studentTrueHypers":{"a":4,"b":1},"studentGuess":0.6,"delta":0.09999999999999998,"totalExamples":10,"bonusSoFar":1.9},{"rt":4961,"response":{"heads":"3","tails":"3"},"type":"response","condition":"seqNoFeedback","trueTheta":0.5,"classrooms":["A","B"],"studentTrueClassroom":"B","exampleSet":"second","trial_type":"survey-html-form","trial_index":137,"time_elapsed":2410844,"internal_node_id":"0.0-133.0-0.0","params":{"nStudents":24,"maxFlips":25,"completionMinutes":45,"basePay":8,"maxBonus":9,"perTrialBonus":0.5,"perTrialBonusThreshold":0.05,"exampleCost":0.02},"classroomParams":{"A":{"a":1,"b":4},"B":{"a":4,"b":1},"C":{"a":2,"b":8},"D":{"a":8,"b":2}},"conditions":["nonSeqFull","nonSeqPartial","seqNoFeedback","seqFeedback"],"classroomPairings":[["A","B"],["C","D"]],"coinWeights":[0.2,0.5,0.8],"subjectId":"A8C3WNWRBWUXO","assignmentId":"3TMFV4NEP90M46NZMQAIP24W8058WQ","hitId":"39WICJI5ATE2BKO4UUUR86UGAV2Z3G","url":"https://gershmanlab.com/experiments/alicia/teaching/experiment/?hitId=39WICJI5ATE2BKO4UUUR86UGAV2Z3G&workerId=A8C3WNWRBWUXO&assignmentId=3TMFV4NEP90M46NZMQAIP24W8058WQ&a=EVMT3&tp_a=EVMT3&b=3TMFV4NEP90M46NZMQAIP24W8058WQ&tp_b=3TMFV4NEP90M46NZMQAIP24W8058WQ&c=365633&tp_c=365633","firstResponseHeads":5,"firstResponseTails":5,"secondResponseHeads":3,"secondResponseTails":3,"totalHeads":8,"totalTails":8,"studentIndex":16,"studentTrueHypers":{"a":4,"b":1},"studentGuess":0.5714285714285714,"delta":0.0714285714285714,"bonus":0,"bonusSoFar":1.9,"totalExamples":16},{"rt":10271,"response":{"heads":"8","tails":"2"},"type":"response","condition":"nonSeqPartial","trueTheta":0.8,"classrooms":["A","B"],"studentTrueClassroom":"B","exampleSet":"first","trial_type":"survey-html-form","trial_index":143,"time_elapsed":2435940,"internal_node_id":"0.0-139.0-0.0","params":{"nStudents":24,"maxFlips":25,"completionMinutes":45,"basePay":8,"maxBonus":9,"perTrialBonus":0.5,"perTrialBonusThreshold":0.05,"exampleCost":0.02},"classroomParams":{"A":{"a":1,"b":4},"B":{"a":4,"b":1},"C":{"a":2,"b":8},"D":{"a":8,"b":2}},"conditions":["nonSeqFull","nonSeqPartial","seqNoFeedback","seqFeedback"],"classroomPairings":[["A","B"],["C","D"]],"coinWeights":[0.2,0.5,0.8],"subjectId":"A8C3WNWRBWUXO","assignmentId":"3TMFV4NEP90M46NZMQAIP24W8058WQ","hitId":"39WICJI5ATE2BKO4UUUR86UGAV2Z3G","url":"https://gershmanlab.com/experiments/alicia/teaching/experiment/?hitId=39WICJI5ATE2BKO4UUUR86UGAV2Z3G&workerId=A8C3WNWRBWUXO&assignmentId=3TMFV4NEP90M46NZMQAIP24W8058WQ&a=EVMT3&tp_a=EVMT3&b=3TMFV4NEP90M46NZMQAIP24W8058WQ&tp_b=3TMFV4NEP90M46NZMQAIP24W8058WQ&c=365633&tp_c=365633","heads":8,"tails":2,"studentIndex":17,"studentTrueHypers":{"a":4,"b":1},"studentGuess":0.8,"delta":0,"totalExamples":10,"bonus":0.3,"bonusSoFar":2.2},{"rt":13559,"response":{"heads":"4","tails":"1"},"type":"response","condition":"nonSeqFull","trueTheta":0.8,"classrooms":["C","D"],"studentTrueClassroom":"D","exampleSet":"first","trial_type":"survey-html-form","trial_index":149,"time_elapsed":2465876,"internal_node_id":"0.0-145.0-0.0","params":{"nStudents":24,"maxFlips":25,"completionMinutes":45,"basePay":8,"maxBonus":9,"perTrialBonus":0.5,"perTrialBonusThreshold":0.05,"exampleCost":0.02},"classroomParams":{"A":{"a":1,"b":4},"B":{"a":4,"b":1},"C":{"a":2,"b":8},"D":{"a":8,"b":2}},"conditions":["nonSeqFull","nonSeqPartial","seqNoFeedback","seqFeedback"],"classroomPairings":[["A","B"],["C","D"]],"coinWeights":[0.2,0.5,0.8],"subjectId":"A8C3WNWRBWUXO","assignmentId":"3TMFV4NEP90M46NZMQAIP24W8058WQ","hitId":"39WICJI5ATE2BKO4UUUR86UGAV2Z3G","url":"https://gershmanlab.com/experiments/alicia/teaching/experiment/?hitId=39WICJI5ATE2BKO4UUUR86UGAV2Z3G&workerId=A8C3WNWRBWUXO&assignmentId=3TMFV4NEP90M46NZMQAIP24W8058WQ&a=EVMT3&tp_a=EVMT3&b=3TMFV4NEP90M46NZMQAIP24W8058WQ&tp_b=3TMFV4NEP90M46NZMQAIP24W8058WQ&c=365633&tp_c=365633","heads":4,"tails":1,"studentIndex":18,"studentTrueHypers":{"a":8,"b":2},"studentGuess":0.8,"delta":0,"totalExamples":5,"bonus":0.4,"bonusSoFar":2.6},{"rt":6735,"response":{"heads":"1","tails":"4"},"type":"response","condition":"seqFeedback","trueTheta":0.2,"classrooms":["A","B"],"studentTrueClassroom":"A","exampleSet":"first","trial_type":"survey-html-form","trial_index":155,"time_elapsed":2489468,"internal_node_id":"0.0-151.0-0.0","params":{"nStudents":24,"maxFlips":25,"completionMinutes":45,"basePay":8,"maxBonus":9,"perTrialBonus":0.5,"perTrialBonusThreshold":0.05,"exampleCost":0.02},"classroomParams":{"A":{"a":1,"b":4},"B":{"a":4,"b":1},"C":{"a":2,"b":8},"D":{"a":8,"b":2}},"conditions":["nonSeqFull","nonSeqPartial","seqNoFeedback","seqFeedback"],"classroomPairings":[["A","B"],["C","D"]],"coinWeights":[0.2,0.5,0.8],"subjectId":"A8C3WNWRBWUXO","assignmentId":"3TMFV4NEP90M46NZMQAIP24W8058WQ","hitId":"39WICJI5ATE2BKO4UUUR86UGAV2Z3G","url":"https://gershmanlab.com/experiments/alicia/teaching/experiment/?hitId=39WICJI5ATE2BKO4UUUR86UGAV2Z3G&workerId=A8C3WNWRBWUXO&assignmentId=3TMFV4NEP90M46NZMQAIP24W8058WQ&a=EVMT3&tp_a=EVMT3&b=3TMFV4NEP90M46NZMQAIP24W8058WQ&tp_b=3TMFV4NEP90M46NZMQAIP24W8058WQ&c=365633&tp_c=365633","heads":1,"tails":4,"studentIndex":19,"studentTrueHypers":{"a":1,"b":4},"studentGuess":0.2,"delta":0,"totalExamples":5,"bonusSoFar":2.6},{"rt":10577,"response":{"heads":"0","tails":"0"},"type":"response","condition":"seqFeedback","trueTheta":0.2,"classrooms":["A","B"],"studentTrueClassroom":"A","exampleSet":"second","trial_type":"survey-html-form","trial_index":159,"time_elapsed":2509734,"internal_node_id":"0.0-155.0-0.0","params":{"nStudents":24,"maxFlips":25,"completionMinutes":45,"basePay":8,"maxBonus":9,"perTrialBonus":0.5,"perTrialBonusThreshold":0.05,"exampleCost":0.02},"classroomParams":{"A":{"a":1,"b":4},"B":{"a":4,"b":1},"C":{"a":2,"b":8},"D":{"a":8,"b":2}},"conditions":["nonSeqFull","nonSeqPartial","seqNoFeedback","seqFeedback"],"classroomPairings":[["A","B"],["C","D"]],"coinWeights":[0.2,0.5,0.8],"subjectId":"A8C3WNWRBWUXO","assignmentId":"3TMFV4NEP90M46NZMQAIP24W8058WQ","hitId":"39WICJI5ATE2BKO4UUUR86UGAV2Z3G","url":"https://gershmanlab.com/experiments/alicia/teaching/experiment/?hitId=39WICJI5ATE2BKO4UUUR86UGAV2Z3G&workerId=A8C3WNWRBWUXO&assignmentId=3TMFV4NEP90M46NZMQAIP24W8058WQ&a=EVMT3&tp_a=EVMT3&b=3TMFV4NEP90M46NZMQAIP24W8058WQ&tp_b=3TMFV4NEP90M46NZMQAIP24W8058WQ&c=365633&tp_c=365633","firstResponseHeads":1,"firstResponseTails":4,"secondResponseHeads":0,"secondResponseTails":0,"totalHeads":1,"totalTails":4,"studentIndex":19,"studentTrueHypers":{"a":1,"b":4},"studentGuess":0.2,"delta":0,"bonus":0.4,"bonusSoFar":3,"totalExamples":5},{"rt":8066,"response":{"heads":"1","tails":"4"},"type":"response","condition":"seqFeedback","trueTheta":0.2,"classrooms":["A","B"],"studentTrueClassroom":"A","exampleSet":"second","trial_type":"survey-html-form","trial_index":160,"time_elapsed":2517802,"internal_node_id":"0.0-155.1-0.1","params":{"nStudents":24,"maxFlips":25,"completionMinutes":45,"basePay":8,"maxBonus":9,"perTrialBonus":0.5,"perTrialBonusThreshold":0.05,"exampleCost":0.02},"classroomParams":{"A":{"a":1,"b":4},"B":{"a":4,"b":1},"C":{"a":2,"b":8},"D":{"a":8,"b":2}},"conditions":["nonSeqFull","nonSeqPartial","seqNoFeedback","seqFeedback"],"classroomPairings":[["A","B"],["C","D"]],"coinWeights":[0.2,0.5,0.8],"subjectId":"A8C3WNWRBWUXO","assignmentId":"3TMFV4NEP90M46NZMQAIP24W8058WQ","hitId":"39WICJI5ATE2BKO4UUUR86UGAV2Z3G","url":"https://gershmanlab.com/experiments/alicia/teaching/experiment/?hitId=39WICJI5ATE2BKO4UUUR86UGAV2Z3G&workerId=A8C3WNWRBWUXO&assignmentId=3TMFV4NEP90M46NZMQAIP24W8058WQ&a=EVMT3&tp_a=EVMT3&b=3TMFV4NEP90M46NZMQAIP24W8058WQ&tp_b=3TMFV4NEP90M46NZMQAIP24W8058WQ&c=365633&tp_c=365633","firstResponseHeads":1,"firstResponseTails":4,"secondResponseHeads":1,"secondResponseTails":4,"totalHeads":2,"totalTails":8,"studentIndex":19,"studentTrueHypers":{"a":1,"b":4},"studentGuess":0.2,"delta":0,"bonus":0.3,"bonusSoFar":3.3,"totalExamples":10},{"rt":17390,"response":{"heads":"16","tails":"4"},"type":"response","condition":"nonSeqFull","trueTheta":0.8,"classrooms":["A","B"],"studentTrueClassroom":"A","exampleSet":"first","trial_type":"survey-html-form","trial_index":166,"time_elapsed":2549195,"internal_node_id":"0.0-161.0-0.0","params":{"nStudents":24,"maxFlips":25,"completionMinutes":45,"basePay":8,"maxBonus":9,"perTrialBonus":0.5,"perTrialBonusThreshold":0.05,"exampleCost":0.02},"classroomParams":{"A":{"a":1,"b":4},"B":{"a":4,"b":1},"C":{"a":2,"b":8},"D":{"a":8,"b":2}},"conditions":["nonSeqFull","nonSeqPartial","seqNoFeedback","seqFeedback"],"classroomPairings":[["A","B"],["C","D"]],"coinWeights":[0.2,0.5,0.8],"subjectId":"A8C3WNWRBWUXO","assignmentId":"3TMFV4NEP90M46NZMQAIP24W8058WQ","hitId":"39WICJI5ATE2BKO4UUUR86UGAV2Z3G","url":"https://gershmanlab.com/experiments/alicia/teaching/experiment/?hitId=39WICJI5ATE2BKO4UUUR86UGAV2Z3G&workerId=A8C3WNWRBWUXO&assignmentId=3TMFV4NEP90M46NZMQAIP24W8058WQ&a=EVMT3&tp_a=EVMT3&b=3TMFV4NEP90M46NZMQAIP24W8058WQ&tp_b=3TMFV4NEP90M46NZMQAIP24W8058WQ&c=365633&tp_c=365633","heads":16,"tails":4,"studentIndex":20,"studentTrueHypers":{"a":1,"b":4},"studentGuess":0.68,"delta":0.12,"totalExamples":20,"bonus":0,"bonusSoFar":3.3},{"rt":3215,"response":{"heads":"4","tails":"1"},"type":"response","condition":"seqNoFeedback","trueTheta":0.8,"classrooms":["A","B"],"studentTrueClassroom":"A","exampleSet":"first","trial_type":"survey-html-form","trial_index":172,"time_elapsed":2570339,"internal_node_id":"0.0-167.0-0.0","params":{"nStudents":24,"maxFlips":25,"completionMinutes":45,"basePay":8,"maxBonus":9,"perTrialBonus":0.5,"perTrialBonusThreshold":0.05,"exampleCost":0.02},"classroomParams":{"A":{"a":1,"b":4},"B":{"a":4,"b":1},"C":{"a":2,"b":8},"D":{"a":8,"b":2}},"conditions":["nonSeqFull","nonSeqPartial","seqNoFeedback","seqFeedback"],"classroomPairings":[["A","B"],["C","D"]],"coinWeights":[0.2,0.5,0.8],"subjectId":"A8C3WNWRBWUXO","assignmentId":"3TMFV4NEP90M46NZMQAIP24W8058WQ","hitId":"39WICJI5ATE2BKO4UUUR86UGAV2Z3G","url":"https://gershmanlab.com/experiments/alicia/teaching/experiment/?hitId=39WICJI5ATE2BKO4UUUR86UGAV2Z3G&workerId=A8C3WNWRBWUXO&assignmentId=3TMFV4NEP90M46NZMQAIP24W8058WQ&a=EVMT3&tp_a=EVMT3&b=3TMFV4NEP90M46NZMQAIP24W8058WQ&tp_b=3TMFV4NEP90M46NZMQAIP24W8058WQ&c=365633&tp_c=365633","heads":4,"tails":1,"studentIndex":21,"studentTrueHypers":{"a":1,"b":4},"studentGuess":0.5,"delta":0.30000000000000004,"totalExamples":5,"bonusSoFar":3.3},{"rt":4995,"response":{"heads":"4","tails":"1"},"type":"response","condition":"seqNoFeedback","trueTheta":0.8,"classrooms":["A","B"],"studentTrueClassroom":"A","exampleSet":"second","trial_type":"survey-html-form","trial_index":175,"time_elapsed":2581355,"internal_node_id":"0.0-170.0-0.0","params":{"nStudents":24,"maxFlips":25,"completionMinutes":45,"basePay":8,"maxBonus":9,"perTrialBonus":0.5,"perTrialBonusThreshold":0.05,"exampleCost":0.02},"classroomParams":{"A":{"a":1,"b":4},"B":{"a":4,"b":1},"C":{"a":2,"b":8},"D":{"a":8,"b":2}},"conditions":["nonSeqFull","nonSeqPartial","seqNoFeedback","seqFeedback"],"classroomPairings":[["A","B"],["C","D"]],"coinWeights":[0.2,0.5,0.8],"subjectId":"A8C3WNWRBWUXO","assignmentId":"3TMFV4NEP90M46NZMQAIP24W8058WQ","hitId":"39WICJI5ATE2BKO4UUUR86UGAV2Z3G","url":"https://gershmanlab.com/experiments/alicia/teaching/experiment/?hitId=39WICJI5ATE2BKO4UUUR86UGAV2Z3G&workerId=A8C3WNWRBWUXO&assignmentId=3TMFV4NEP90M46NZMQAIP24W8058WQ&a=EVMT3&tp_a=EVMT3&b=3TMFV4NEP90M46NZMQAIP24W8058WQ&tp_b=3TMFV4NEP90M46NZMQAIP24W8058WQ&c=365633&tp_c=365633","firstResponseHeads":4,"firstResponseTails":1,"secondResponseHeads":4,"secondResponseTails":1,"totalHeads":8,"totalTails":2,"studentIndex":21,"studentTrueHypers":{"a":1,"b":4},"studentGuess":0.6,"delta":0.20000000000000007,"bonus":0,"bonusSoFar":3.3,"totalExamples":10},{"rt":6647,"response":{"heads":"16","tails":"4"},"type":"response","condition":"nonSeqPartial","trueTheta":0.8,"classrooms":["C","D"],"studentTrueClassroom":"C","exampleSet":"first","trial_type":"survey-html-form","trial_index":181,"time_elapsed":2601898,"internal_node_id":"0.0-176.0-0.0","params":{"nStudents":24,"maxFlips":25,"completionMinutes":45,"basePay":8,"maxBonus":9,"perTrialBonus":0.5,"perTrialBonusThreshold":0.05,"exampleCost":0.02},"classroomParams":{"A":{"a":1,"b":4},"B":{"a":4,"b":1},"C":{"a":2,"b":8},"D":{"a":8,"b":2}},"conditions":["nonSeqFull","nonSeqPartial","seqNoFeedback","seqFeedback"],"classroomPairings":[["A","B"],["C","D"]],"coinWeights":[0.2,0.5,0.8],"subjectId":"A8C3WNWRBWUXO","assignmentId":"3TMFV4NEP90M46NZMQAIP24W8058WQ","hitId":"39WICJI5ATE2BKO4UUUR86UGAV2Z3G","url":"https://gershmanlab.com/experiments/alicia/teaching/experiment/?hitId=39WICJI5ATE2BKO4UUUR86UGAV2Z3G&workerId=A8C3WNWRBWUXO&assignmentId=3TMFV4NEP90M46NZMQAIP24W8058WQ&a=EVMT3&tp_a=EVMT3&b=3TMFV4NEP90M46NZMQAIP24W8058WQ&tp_b=3TMFV4NEP90M46NZMQAIP24W8058WQ&c=365633&tp_c=365633","heads":16,"tails":4,"studentIndex":22,"studentTrueHypers":{"a":2,"b":8},"studentGuess":0.6,"delta":0.20000000000000007,"totalExamples":20,"bonus":0,"bonusSoFar":3.3},{"rt":4631,"response":{"heads":"1","tails":"4"},"type":"response","condition":"seqFeedback","trueTheta":0.2,"classrooms":["C","D"],"studentTrueClassroom":"D","exampleSet":"first","trial_type":"survey-html-form","trial_index":187,"time_elapsed":2619178,"internal_node_id":"0.0-182.0-0.0","params":{"nStudents":24,"maxFlips":25,"completionMinutes":45,"basePay":8,"maxBonus":9,"perTrialBonus":0.5,"perTrialBonusThreshold":0.05,"exampleCost":0.02},"classroomParams":{"A":{"a":1,"b":4},"B":{"a":4,"b":1},"C":{"a":2,"b":8},"D":{"a":8,"b":2}},"conditions":["nonSeqFull","nonSeqPartial","seqNoFeedback","seqFeedback"],"classroomPairings":[["A","B"],["C","D"]],"coinWeights":[0.2,0.5,0.8],"subjectId":"A8C3WNWRBWUXO","assignmentId":"3TMFV4NEP90M46NZMQAIP24W8058WQ","hitId":"39WICJI5ATE2BKO4UUUR86UGAV2Z3G","url":"https://gershmanlab.com/experiments/alicia/teaching/experiment/?hitId=39WICJI5ATE2BKO4UUUR86UGAV2Z3G&workerId=A8C3WNWRBWUXO&assignmentId=3TMFV4NEP90M46NZMQAIP24W8058WQ&a=EVMT3&tp_a=EVMT3&b=3TMFV4NEP90M46NZMQAIP24W8058WQ&tp_b=3TMFV4NEP90M46NZMQAIP24W8058WQ&c=365633&tp_c=365633","heads":1,"tails":4,"studentIndex":23,"studentTrueHypers":{"a":8,"b":2},"studentGuess":0.6,"delta":0.39999999999999997,"totalExamples":5,"bonusSoFar":3.3},{"rt":7175,"response":{"heads":"2","tails":"8"},"type":"response","condition":"seqFeedback","trueTheta":0.2,"classrooms":["C","D"],"studentTrueClassroom":"D","exampleSet":"second","trial_type":"survey-html-form","trial_index":191,"time_elapsed":2634731,"internal_node_id":"0.0-186.0-0.0","params":{"nStudents":24,"maxFlips":25,"completionMinutes":45,"basePay":8,"maxBonus":9,"perTrialBonus":0.5,"perTrialBonusThreshold":0.05,"exampleCost":0.02},"classroomParams":{"A":{"a":1,"b":4},"B":{"a":4,"b":1},"C":{"a":2,"b":8},"D":{"a":8,"b":2}},"conditions":["nonSeqFull","nonSeqPartial","seqNoFeedback","seqFeedback"],"classroomPairings":[["A","B"],["C","D"]],"coinWeights":[0.2,0.5,0.8],"subjectId":"A8C3WNWRBWUXO","assignmentId":"3TMFV4NEP90M46NZMQAIP24W8058WQ","hitId":"39WICJI5ATE2BKO4UUUR86UGAV2Z3G","url":"https://gershmanlab.com/experiments/alicia/teaching/experiment/?hitId=39WICJI5ATE2BKO4UUUR86UGAV2Z3G&workerId=A8C3WNWRBWUXO&assignmentId=3TMFV4NEP90M46NZMQAIP24W8058WQ&a=EVMT3&tp_a=EVMT3&b=3TMFV4NEP90M46NZMQAIP24W8058WQ&tp_b=3TMFV4NEP90M46NZMQAIP24W8058WQ&c=365633&tp_c=365633","firstResponseHeads":1,"firstResponseTails":4,"secondResponseHeads":2,"secondResponseTails":8,"totalHeads":3,"totalTails":12,"studentIndex":23,"studentTrueHypers":{"a":8,"b":2},"studentGuess":0.44,"delta":0.24,"bonus":0,"bonusSoFar":3.3,"totalExamples":15},{"rt":31218,"response":{"gender":"male","age":"50","understood":"yes","comments":"The students did not seem very smart."},"type":"response","trial_type":"survey-html-form","trial_index":195,"time_elapsed":2675150,"internal_node_id":"0.0-191.0","params":{"nStudents":24,"maxFlips":25,"completionMinutes":45,"basePay":8,"maxBonus":9,"perTrialBonus":0.5,"perTrialBonusThreshold":0.05,"exampleCost":0.02},"classroomParams":{"A":{"a":1,"b":4},"B":{"a":4,"b":1},"C":{"a":2,"b":8},"D":{"a":8,"b":2}},"conditions":["nonSeqFull","nonSeqPartial","seqNoFeedback","seqFeedback"],"classroomPairings":[["A","B"],["C","D"]],"coinWeights":[0.2,0.5,0.8],"subjectId":"A8C3WNWRBWUXO","assignmentId":"3TMFV4NEP90M46NZMQAIP24W8058WQ","hitId":"39WICJI5ATE2BKO4UUUR86UGAV2Z3G","url":"https://gershmanlab.com/experiments/alicia/teaching/experiment/?hitId=39WICJI5ATE2BKO4UUUR86UGAV2Z3G&workerId=A8C3WNWRBWUXO&assignmentId=3TMFV4NEP90M46NZMQAIP24W8058WQ&a=EVMT3&tp_a=EVMT3&b=3TMFV4NEP90M46NZMQAIP24W8058WQ&tp_b=3TMFV4NEP90M46NZMQAIP24W8058WQ&c=365633&tp_c=365633","totalBonus":3.3}]