[{"rt":55523,"response":{"heads":"4","tails":"1"},"type":"response","condition":"nonSeqPartial","trueTheta":0.8,"classrooms":["A","B"],"studentTrueClassroom":"A","exampleSet":"first","trial_type":"survey-html-form","trial_index":7,"time_elapsed":386674,"internal_node_id":"0.0-6.0-0.0","params":{"nStudents":24,"maxFlips":25,"completionMinutes":45,"basePay":8,"maxBonus":9,"perTrialBonus":0.5,"perTrialBonusThreshold":0.05,"exampleCost":0.02},"classroomParams":{"A":{"a":1,"b":4},"B":{"a":4,"b":1},"C":{"a":2,"b":8},"D":{"a":8,"b":2}},"conditions":["nonSeqFull","nonSeqPartial","seqNoFeedback","seqFeedback"],"classroomPairings":[["A","B"],["C","D"]],"coinWeights":[0.2,0.5,0.8],"subjectId":"ASVRLMDNQBUD9","assignmentId":"3SLE99ER0OZ90ZQB0PEZF8OFX8UBZI","hitId":"3XUY87HIVP03YZXVLN9CW37DVI1MM2","url":"https://gershmanlab.com/experiments/alicia/teaching/experiment/?hitId=3XUY87HIVP03YZXVLN9CW37DVI1MM2&workerId=ASVRLMDNQBUD9&assignmentId=3SLE99ER0OZ90ZQB0PEZF8OFX8UBZI&a=R9LS3&tp_a=R9LS3&b=3SLE99ER0OZ90ZQB0PEZF8OFX8UBZI&tp_b=3SLE99ER0OZ90ZQB0PEZF8OFX8UBZI&c=365633&tp_c=365633","heads":4,"tails":1,"studentIndex":0,"studentTrueHypers":{"a":1,"b":4},"studentGuess":0.5,"delta":0.30000000000000004,"totalExamples":5,"bonus":0,"bonusSoFar":0},{"rt":14837,"response":{"heads":"1","tails":"1"},"type":"response","condition":"nonSeqFull","trueTheta":0.5,"classrooms":["A","B"],"studentTrueClassroom":"A","exampleSet":"first","trial_type":"survey-html-form","trial_index":13,"time_elapsed":427025,"internal_node_id":"0.0-12.0-0.0","params":{"nStudents":24,"maxFlips":25,"completionMinutes":45,"basePay":8,"maxBonus":9,"perTrialBonus":0.5,"perTrialBonusThreshold":0.05,"exampleCost":0.02},"classroomParams":{"A":{"a":1,"b":4},"B":{"a":4,"b":1},"C":{"a":2,"b":8},"D":{"a":8,"b":2}},"conditions":["nonSeqFull","nonSeqPartial","seqNoFeedback","seqFeedback"],"classroomPairings":[["A","B"],["C","D"]],"coinWeights":[0.2,0.5,0.8],"subjectId":"ASVRLMDNQBUD9","assignmentId":"3SLE99ER0OZ90ZQB0PEZF8OFX8UBZI","hitId":"3XUY87HIVP03YZXVLN9CW37DVI1MM2","url":"https://gershmanlab.com/experiments/alicia/teaching/experiment/?hitId=3XUY87HIVP03YZXVLN9CW37DVI1MM2&workerId=ASVRLMDNQBUD9&assignmentId=3SLE99ER0OZ90ZQB0PEZF8OFX8UBZI&a=R9LS3&tp_a=R9LS3&b=3SLE99ER0OZ90ZQB0PEZF8OFX8UBZI&tp_b=3SLE99ER0OZ90ZQB0PEZF8OFX8UBZI&c=365633&tp_c=365633","heads":1,"tails":1,"studentIndex":1,"studentTrueHypers":{"a":1,"b":4},"studentGuess":0.2857142857142857,"delta":0.2142857142857143,"totalExamples":2,"bonus":0,"bonusSoFar":0},{"rt":9590,"response":{"heads":"8","tails":"2"},"type":"response","condition":"nonSeqFull","trueTheta":0.8,"classrooms":["C","D"],"studentTrueClassroom":"C","exampleSet":"first","trial_type":"survey-html-form","trial_index":19,"time_elapsed":453067,"internal_node_id":"0.0-18.0-0.0","params":{"nStudents":24,"maxFlips":25,"completionMinutes":45,"basePay":8,"maxBonus":9,"perTrialBonus":0.5,"perTrialBonusThreshold":0.05,"exampleCost":0.02},"classroomParams":{"A":{"a":1,"b":4},"B":{"a":4,"b":1},"C":{"a":2,"b":8},"D":{"a":8,"b":2}},"conditions":["nonSeqFull","nonSeqPartial","seqNoFeedback","seqFeedback"],"classroomPairings":[["A","B"],["C","D"]],"coinWeights":[0.2,0.5,0.8],"subjectId":"ASVRLMDNQBUD9","assignmentId":"3SLE99ER0OZ90ZQB0PEZF8OFX8UBZI","hitId":"3XUY87HIVP03YZXVLN9CW37DVI1MM2","url":"https://gershmanlab.com/experiments/alicia/teaching/experiment/?hitId=3XUY87HIVP03YZXVLN9CW37DVI1MM2&workerId=ASVRLMDNQBUD9&assignmentId=3SLE99ER0OZ90ZQB0PEZF8OFX8UBZI&a=R9LS3&tp_a=R9LS3&b=3SLE99ER0OZ90ZQB0PEZF8OFX8UBZI&tp_b=3SLE99ER0OZ90ZQB0PEZF8OFX8UBZI&c=365633&tp_c=365633","heads":8,"tails":2,"studentIndex":2,"studentTrueHypers":{"a":2,"b":8},"studentGuess":0.5,"delta":0.30000000000000004,"totalExamples":10,"bonus":0,"bonusSoFar":0},{"rt":16977,"response":{"heads":"4","tails":"16"},"type":"response","condition":"nonSeqFull","trueTheta":0.2,"classrooms":["C","D"],"studentTrueClassroom":"C","exampleSet":"first","trial_type":"survey-html-form","trial_index":25,"time_elapsed":486514,"internal_node_id":"0.0-24.0-0.0","params":{"nStudents":24,"maxFlips":25,"completionMinutes":45,"basePay":8,"maxBonus":9,"perTrialBonus":0.5,"perTrialBonusThreshold":0.05,"exampleCost":0.02},"classroomParams":{"A":{"a":1,"b":4},"B":{"a":4,"b":1},"C":{"a":2,"b":8},"D":{"a":8,"b":2}},"conditions":["nonSeqFull","nonSeqPartial","seqNoFeedback","seqFeedback"],"classroomPairings":[["A","B"],["C","D"]],"coinWeights":[0.2,0.5,0.8],"subjectId":"ASVRLMDNQBUD9","assignmentId":"3SLE99ER0OZ90ZQB0PEZF8OFX8UBZI","hitId":"3XUY87HIVP03YZXVLN9CW37DVI1MM2","url":"https://gershmanlab.com/experiments/alicia/teaching/experiment/?hitId=3XUY87HIVP03YZXVLN9CW37DVI1MM2&workerId=ASVRLMDNQBUD9&assignmentId=3SLE99ER0OZ90ZQB0PEZF8OFX8UBZI&a=R9LS3&tp_a=R9LS3&b=3SLE99ER0OZ90ZQB0PEZF8OFX8UBZI&tp_b=3SLE99ER0OZ90ZQB0PEZF8OFX8UBZI&c=365633&tp_c=365633","heads":4,"tails":16,"studentIndex":3,"studentTrueHypers":{"a":2,"b":8},"studentGuess":0.2,"delta":0,"totalExamples":20,"bonus":0.1,"bonusSoFar":0.1},{"rt":16590,"response":{"heads":"8","tails":"0"},"type":"response","condition":"seqNoFeedback","trueTheta":0.8,"classrooms":["A","B"],"studentTrueClassroom":"B","exampleSet":"first","trial_type":"survey-html-form","trial_index":31,"time_elapsed":520149,"internal_node_id":"0.0-30.0-0.0","params":{"nStudents":24,"maxFlips":25,"completionMinutes":45,"basePay":8,"maxBonus":9,"perTrialBonus":0.5,"perTrialBonusThreshold":0.05,"exampleCost":0.02},"classroomParams":{"A":{"a":1,"b":4},"B":{"a":4,"b":1},"C":{"a":2,"b":8},"D":{"a":8,"b":2}},"conditions":["nonSeqFull","nonSeqPartial","seqNoFeedback","seqFeedback"],"classroomPairings":[["A","B"],["C","D"]],"coinWeights":[0.2,0.5,0.8],"subjectId":"ASVRLMDNQBUD9","assignmentId":"3SLE99ER0OZ90ZQB0PEZF8OFX8UBZI","hitId":"3XUY87HIVP03YZXVLN9CW37DVI1MM2","url":"https://gershmanlab.com/experiments/alicia/teaching/experiment/?hitId=3XUY87HIVP03YZXVLN9CW37DVI1MM2&workerId=ASVRLMDNQBUD9&assignmentId=3SLE99ER0OZ90ZQB0PEZF8OFX8UBZI&a=R9LS3&tp_a=R9LS3&b=3SLE99ER0OZ90ZQB0PEZF8OFX8UBZI&tp_b=3SLE99ER0OZ90ZQB0PEZF8OFX8UBZI&c=365633&tp_c=365633","heads":8,"tails":0,"studentIndex":4,"studentTrueHypers":{"a":4,"b":1},"studentGuess":0.9230769230769231,"delta":0.12307692307692308,"totalExamples":8,"bonusSoFar":0.1},{"rt":12917,"response":{"heads":"4","tails":"1"},"type":"response","condition":"seqNoFeedback","trueTheta":0.8,"classrooms":["A","B"],"studentTrueClassroom":"B","exampleSet":"second","trial_type":"survey-html-form","trial_index":34,"time_elapsed":539589,"internal_node_id":"0.0-33.0-0.0","params":{"nStudents":24,"maxFlips":25,"completionMinutes":45,"basePay":8,"maxBonus":9,"perTrialBonus":0.5,"perTrialBonusThreshold":0.05,"exampleCost":0.02},"classroomParams":{"A":{"a":1,"b":4},"B":{"a":4,"b":1},"C":{"a":2,"b":8},"D":{"a":8,"b":2}},"conditions":["nonSeqFull","nonSeqPartial","seqNoFeedback","seqFeedback"],"classroomPairings":[["A","B"],["C","D"]],"coinWeights":[0.2,0.5,0.8],"subjectId":"ASVRLMDNQBUD9","assignmentId":"3SLE99ER0OZ90ZQB0PEZF8OFX8UBZI","hitId":"3XUY87HIVP03YZXVLN9CW37DVI1MM2","url":"https://gershmanlab.com/experiments/alicia/teaching/experiment/?hitId=3XUY87HIVP03YZXVLN9CW37DVI1MM2&workerId=ASVRLMDNQBUD9&assignmentId=3SLE99ER0OZ90ZQB0PEZF8OFX8UBZI&a=R9LS3&tp_a=R9LS3&b=3SLE99ER0OZ90ZQB0PEZF8OFX8UBZI&tp_b=3SLE99ER0OZ90ZQB0PEZF8OFX8UBZI&c=365633&tp_c=365633","firstResponseHeads":8,"firstResponseTails":0,"secondResponseHeads":4,"secondResponseTails":1,"totalHeads":12,"totalTails":1,"studentIndex":4,"studentTrueHypers":{"a":4,"b":1},"studentGuess":0.8888888888888888,"delta":0.0888888888888888,"bonus":0,"bonusSoFar":0.1,"totalExamples":13},{"rt":7717,"response":{"heads":"8","tails":"0"},"type":"response","condition":"nonSeqFull","trueTheta":0.8,"classrooms":["A","B"],"studentTrueClassroom":"B","exampleSet":"first","trial_type":"survey-html-form","trial_index":40,"time_elapsed":565348,"internal_node_id":"0.0-39.0-0.0","params":{"nStudents":24,"maxFlips":25,"completionMinutes":45,"basePay":8,"maxBonus":9,"perTrialBonus":0.5,"perTrialBonusThreshold":0.05,"exampleCost":0.02},"classroomParams":{"A":{"a":1,"b":4},"B":{"a":4,"b":1},"C":{"a":2,"b":8},"D":{"a":8,"b":2}},"conditions":["nonSeqFull","nonSeqPartial","seqNoFeedback","seqFeedback"],"classroomPairings":[["A","B"],["C","D"]],"coinWeights":[0.2,0.5,0.8],"subjectId":"ASVRLMDNQBUD9","assignmentId":"3SLE99ER0OZ90ZQB0PEZF8OFX8UBZI","hitId":"3XUY87HIVP03YZXVLN9CW37DVI1MM2","url":"https://gershmanlab.com/experiments/alicia/teaching/experiment/?hitId=3XUY87HIVP03YZXVLN9CW37DVI1MM2&workerId=ASVRLMDNQBUD9&assignmentId=3SLE99ER0OZ90ZQB0PEZF8OFX8UBZI&a=R9LS3&tp_a=R9LS3&b=3SLE99ER0OZ90ZQB0PEZF8OFX8UBZI&tp_b=3SLE99ER0OZ90ZQB0PEZF8OFX8UBZI&c=365633&tp_c=365633","heads":8,"tails":0,"studentIndex":5,"studentTrueHypers":{"a":4,"b":1},"studentGuess":0.9230769230769231,"delta":0.12307692307692308,"totalExamples":8,"bonus":0,"bonusSoFar":0.1},{"rt":19123,"response":{"heads":"2","tails":"5"},"type":"response","condition":"nonSeqPartial","trueTheta":0.2,"classrooms":["A","B"],"studentTrueClassroom":"B","exampleSet":"first","trial_type":"survey-html-form","trial_index":46,"time_elapsed":598591,"internal_node_id":"0.0-45.0-0.0","params":{"nStudents":24,"maxFlips":25,"completionMinutes":45,"basePay":8,"maxBonus":9,"perTrialBonus":0.5,"perTrialBonusThreshold":0.05,"exampleCost":0.02},"classroomParams":{"A":{"a":1,"b":4},"B":{"a":4,"b":1},"C":{"a":2,"b":8},"D":{"a":8,"b":2}},"conditions":["nonSeqFull","nonSeqPartial","seqNoFeedback","seqFeedback"],"classroomPairings":[["A","B"],["C","D"]],"coinWeights":[0.2,0.5,0.8],"subjectId":"ASVRLMDNQBUD9","assignmentId":"3SLE99ER0OZ90ZQB0PEZF8OFX8UBZI","hitId":"3XUY87HIVP03YZXVLN9CW37DVI1MM2","url":"https://gershmanlab.com/experiments/alicia/teaching/experiment/?hitId=3XUY87HIVP03YZXVLN9CW37DVI1MM2&workerId=ASVRLMDNQBUD9&assignmentId=3SLE99ER0OZ90ZQB0PEZF8OFX8UBZI&a=R9LS3&tp_a=R9LS3&b=3SLE99ER0OZ90ZQB0PEZF8OFX8UBZI&tp_b=3SLE99ER0OZ90ZQB0PEZF8OFX8UBZI&c=365633&tp_c=365633","heads":2,"tails":5,"studentIndex":6,"studentTrueHypers":{"a":4,"b":1},"studentGuess":0.5,"delta":0.3,"totalExamples":7,"bonus":0,"bonusSoFar":0.1},{"rt":9133,"response":{"heads":"2","tails":"10"},"type":"response","condition":"seqNoFeedback","trueTheta":0.2,"classrooms":["A","B"],"studentTrueClassroom":"B","exampleSet":"first","trial_type":"survey-html-form","trial_index":52,"time_elapsed":621501,"internal_node_id":"0.0-51.0-0.0","params":{"nStudents":24,"maxFlips":25,"completionMinutes":45,"basePay":8,"maxBonus":9,"perTrialBonus":0.5,"perTrialBonusThreshold":0.05,"exampleCost":0.02},"classroomParams":{"A":{"a":1,"b":4},"B":{"a":4,"b":1},"C":{"a":2,"b":8},"D":{"a":8,"b":2}},"conditions":["nonSeqFull","nonSeqPartial","seqNoFeedback","seqFeedback"],"classroomPairings":[["A","B"],["C","D"]],"coinWeights":[0.2,0.5,0.8],"subjectId":"ASVRLMDNQBUD9","assignmentId":"3SLE99ER0OZ90ZQB0PEZF8OFX8UBZI","hitId":"3XUY87HIVP03YZXVLN9CW37DVI1MM2","url":"https://gershmanlab.com/experiments/alicia/teaching/experiment/?hitId=3XUY87HIVP03YZXVLN9CW37DVI1MM2&workerId=ASVRLMDNQBUD9&assignmentId=3SLE99ER0OZ90ZQB0PEZF8OFX8UBZI&a=R9LS3&tp_a=R9LS3&b=3SLE99ER0OZ90ZQB0PEZF8OFX8UBZI&tp_b=3SLE99ER0OZ90ZQB0PEZF8OFX8UBZI&c=365633&tp_c=365633","heads":2,"tails":10,"studentIndex":7,"studentTrueHypers":{"a":4,"b":1},"studentGuess":0.35294117647058826,"delta":0.15294117647058825,"totalExamples":12,"bonusSoFar":0.1},{"rt":17339,"response":{"heads":"2","tails":"8"},"type":"response","condition":"seqNoFeedback","trueTheta":0.2,"classrooms":["A","B"],"studentTrueClassroom":"B","exampleSet":"second","trial_type":"survey-html-form","trial_index":55,"time_elapsed":646101,"internal_node_id":"0.0-54.0-0.0","params":{"nStudents":24,"maxFlips":25,"completionMinutes":45,"basePay":8,"maxBonus":9,"perTrialBonus":0.5,"perTrialBonusThreshold":0.05,"exampleCost":0.02},"classroomParams":{"A":{"a":1,"b":4},"B":{"a":4,"b":1},"C":{"a":2,"b":8},"D":{"a":8,"b":2}},"conditions":["nonSeqFull","nonSeqPartial","seqNoFeedback","seqFeedback"],"classroomPairings":[["A","B"],["C","D"]],"coinWeights":[0.2,0.5,0.8],"subjectId":"ASVRLMDNQBUD9","assignmentId":"3SLE99ER0OZ90ZQB0PEZF8OFX8UBZI","hitId":"3XUY87HIVP03YZXVLN9CW37DVI1MM2","url":"https://gershmanlab.com/experiments/alicia/teaching/experiment/?hitId=3XUY87HIVP03YZXVLN9CW37DVI1MM2&workerId=ASVRLMDNQBUD9&assignmentId=3SLE99ER0OZ90ZQB0PEZF8OFX8UBZI&a=R9LS3&tp_a=R9LS3&b=3SLE99ER0OZ90ZQB0PEZF8OFX8UBZI&tp_b=3SLE99ER0OZ90ZQB0PEZF8OFX8UBZI&c=365633&tp_c=365633","firstResponseHeads":2,"firstResponseTails":10,"secondResponseHeads":2,"secondResponseTails":8,"totalHeads":4,"totalTails":18,"studentIndex":7,"studentTrueHypers":{"a":4,"b":1},"studentGuess":0.2962962962962963,"delta":0.09629629629629627,"bonus":0,"bonusSoFar":0.1,"totalExamples":22},{"rt":12623,"response":{"heads":"2","tails":"0"},"type":"response","condition":"seqNoFeedback","trueTheta":0.8,"classrooms":["C","D"],"studentTrueClassroom":"C","exampleSet":"first","trial_type":"survey-html-form","trial_index":61,"time_elapsed":676370,"internal_node_id":"0.0-60.0-0.0","params":{"nStudents":24,"maxFlips":25,"completionMinutes":45,"basePay":8,"maxBonus":9,"perTrialBonus":0.5,"perTrialBonusThreshold":0.05,"exampleCost":0.02},"classroomParams":{"A":{"a":1,"b":4},"B":{"a":4,"b":1},"C":{"a":2,"b":8},"D":{"a":8,"b":2}},"conditions":["nonSeqFull","nonSeqPartial","seqNoFeedback","seqFeedback"],"classroomPairings":[["A","B"],["C","D"]],"coinWeights":[0.2,0.5,0.8],"subjectId":"ASVRLMDNQBUD9","assignmentId":"3SLE99ER0OZ90ZQB0PEZF8OFX8UBZI","hitId":"3XUY87HIVP03YZXVLN9CW37DVI1MM2","url":"https://gershmanlab.com/experiments/alicia/teaching/experiment/?hitId=3XUY87HIVP03YZXVLN9CW37DVI1MM2&workerId=ASVRLMDNQBUD9&assignmentId=3SLE99ER0OZ90ZQB0PEZF8OFX8UBZI&a=R9LS3&tp_a=R9LS3&b=3SLE99ER0OZ90ZQB0PEZF8OFX8UBZI&tp_b=3SLE99ER0OZ90ZQB0PEZF8OFX8UBZI&c=365633&tp_c=365633","heads":2,"tails":0,"studentIndex":8,"studentTrueHypers":{"a":2,"b":8},"studentGuess":0.3333333333333333,"delta":0.46666666666666673,"totalExamples":2,"bonusSoFar":0.1},{"rt":6977,"response":{"heads":"2","tails":"0"},"type":"response","condition":"seqNoFeedback","trueTheta":0.8,"classrooms":["C","D"],"studentTrueClassroom":"C","exampleSet":"second","trial_type":"survey-html-form","trial_index":64,"time_elapsed":691105,"internal_node_id":"0.0-63.0-0.0","params":{"nStudents":24,"maxFlips":25,"completionMinutes":45,"basePay":8,"maxBonus":9,"perTrialBonus":0.5,"perTrialBonusThreshold":0.05,"exampleCost":0.02},"classroomParams":{"A":{"a":1,"b":4},"B":{"a":4,"b":1},"C":{"a":2,"b":8},"D":{"a":8,"b":2}},"conditions":["nonSeqFull","nonSeqPartial","seqNoFeedback","seqFeedback"],"classroomPairings":[["A","B"],["C","D"]],"coinWeights":[0.2,0.5,0.8],"subjectId":"ASVRLMDNQBUD9","assignmentId":"3SLE99ER0OZ90ZQB0PEZF8OFX8UBZI","hitId":"3XUY87HIVP03YZXVLN9CW37DVI1MM2","url":"https://gershmanlab.com/experiments/alicia/teaching/experiment/?hitId=3XUY87HIVP03YZXVLN9CW37DVI1MM2&workerId=ASVRLMDNQBUD9&assignmentId=3SLE99ER0OZ90ZQB0PEZF8OFX8UBZI&a=R9LS3&tp_a=R9LS3&b=3SLE99ER0OZ90ZQB0PEZF8OFX8UBZI&tp_b=3SLE99ER0OZ90ZQB0PEZF8OFX8UBZI&c=365633&tp_c=365633","firstResponseHeads":2,"firstResponseTails":0,"secondResponseHeads":2,"secondResponseTails":0,"totalHeads":4,"totalTails":0,"studentIndex":8,"studentTrueHypers":{"a":2,"b":8},"studentGuess":0.42857142857142855,"delta":0.3714285714285715,"bonus":0,"bonusSoFar":0.1,"totalExamples":4},{"rt":13860,"response":{"heads":"1","tails":"1"},"type":"response","condition":"seqFeedback","trueTheta":0.5,"classrooms":["C","D"],"studentTrueClassroom":"D","exampleSet":"first","trial_type":"survey-html-form","trial_index":70,"time_elapsed":720503,"internal_node_id":"0.0-69.0-0.0","params":{"nStudents":24,"maxFlips":25,"completionMinutes":45,"basePay":8,"maxBonus":9,"perTrialBonus":0.5,"perTrialBonusThreshold":0.05,"exampleCost":0.02},"classroomParams":{"A":{"a":1,"b":4},"B":{"a":4,"b":1},"C":{"a":2,"b":8},"D":{"a":8,"b":2}},"conditions":["nonSeqFull","nonSeqPartial","seqNoFeedback","seqFeedback"],"classroomPairings":[["A","B"],["C","D"]],"coinWeights":[0.2,0.5,0.8],"subjectId":"ASVRLMDNQBUD9","assignmentId":"3SLE99ER0OZ90ZQB0PEZF8OFX8UBZI","hitId":"3XUY87HIVP03YZXVLN9CW37DVI1MM2","url":"https://gershmanlab.com/experiments/alicia/teaching/experiment/?hitId=3XUY87HIVP03YZXVLN9CW37DVI1MM2&workerId=ASVRLMDNQBUD9&assignmentId=3SLE99ER0OZ90ZQB0PEZF8OFX8UBZI&a=R9LS3&tp_a=R9LS3&b=3SLE99ER0OZ90ZQB0PEZF8OFX8UBZI&tp_b=3SLE99ER0OZ90ZQB0PEZF8OFX8UBZI&c=365633&tp_c=365633","heads":1,"tails":1,"studentIndex":9,"studentTrueHypers":{"a":8,"b":2},"studentGuess":0.75,"delta":0.25,"totalExamples":2,"bonusSoFar":0.1},{"rt":10450,"response":{"heads":"5","tails":"5"},"type":"response","condition":"seqFeedback","trueTheta":0.5,"classrooms":["C","D"],"studentTrueClassroom":"D","exampleSet":"second","trial_type":"survey-html-form","trial_index":74,"time_elapsed":744998,"internal_node_id":"0.0-73.0-0.0","params":{"nStudents":24,"maxFlips":25,"completionMinutes":45,"basePay":8,"maxBonus":9,"perTrialBonus":0.5,"perTrialBonusThreshold":0.05,"exampleCost":0.02},"classroomParams":{"A":{"a":1,"b":4},"B":{"a":4,"b":1},"C":{"a":2,"b":8},"D":{"a":8,"b":2}},"conditions":["nonSeqFull","nonSeqPartial","seqNoFeedback","seqFeedback"],"classroomPairings":[["A","B"],["C","D"]],"coinWeights":[0.2,0.5,0.8],"subjectId":"ASVRLMDNQBUD9","assignmentId":"3SLE99ER0OZ90ZQB0PEZF8OFX8UBZI","hitId":"3XUY87HIVP03YZXVLN9CW37DVI1MM2","url":"https://gershmanlab.com/experiments/alicia/teaching/experiment/?hitId=3XUY87HIVP03YZXVLN9CW37DVI1MM2&workerId=ASVRLMDNQBUD9&assignmentId=3SLE99ER0OZ90ZQB0PEZF8OFX8UBZI&a=R9LS3&tp_a=R9LS3&b=3SLE99ER0OZ90ZQB0PEZF8OFX8UBZI&tp_b=3SLE99ER0OZ90ZQB0PEZF8OFX8UBZI&c=365633&tp_c=365633","firstResponseHeads":1,"firstResponseTails":1,"secondResponseHeads":5,"secondResponseTails":5,"totalHeads":6,"totalTails":6,"studentIndex":9,"studentTrueHypers":{"a":8,"b":2},"studentGuess":0.6363636363636364,"delta":0.13636363636363635,"bonus":0,"bonusSoFar":0.1,"totalExamples":12},{"rt":8533,"response":{"heads":"5","tails":"5"},"type":"response","condition":"nonSeqPartial","trueTheta":0.5,"classrooms":["C","D"],"studentTrueClassroom":"C","exampleSet":"first","trial_type":"survey-html-form","trial_index":80,"time_elapsed":770682,"internal_node_id":"0.0-79.0-0.0","params":{"nStudents":24,"maxFlips":25,"completionMinutes":45,"basePay":8,"maxBonus":9,"perTrialBonus":0.5,"perTrialBonusThreshold":0.05,"exampleCost":0.02},"classroomParams":{"A":{"a":1,"b":4},"B":{"a":4,"b":1},"C":{"a":2,"b":8},"D":{"a":8,"b":2}},"conditions":["nonSeqFull","nonSeqPartial","seqNoFeedback","seqFeedback"],"classroomPairings":[["A","B"],["C","D"]],"coinWeights":[0.2,0.5,0.8],"subjectId":"ASVRLMDNQBUD9","assignmentId":"3SLE99ER0OZ90ZQB0PEZF8OFX8UBZI","hitId":"3XUY87HIVP03YZXVLN9CW37DVI1MM2","url":"https://gershmanlab.com/experiments/alicia/teaching/experiment/?hitId=3XUY87HIVP03YZXVLN9CW37DVI1MM2&workerId=ASVRLMDNQBUD9&assignmentId=3SLE99ER0OZ90ZQB0PEZF8OFX8UBZI&a=R9LS3&tp_a=R9LS3&b=3SLE99ER0OZ90ZQB0PEZF8OFX8UBZI&tp_b=3SLE99ER0OZ90ZQB0PEZF8OFX8UBZI&c=365633&tp_c=365633","heads":5,"tails":5,"studentIndex":10,"studentTrueHypers":{"a":2,"b":8},"studentGuess":0.35,"delta":0.15000000000000002,"totalExamples":10,"bonus":0,"bonusSoFar":0.1},{"rt":14737,"response":{"heads":"4","tails":"16"},"type":"response","condition":"nonSeqFull","trueTheta":0.2,"classrooms":["A","B"],"studentTrueClassroom":"B","exampleSet":"first","trial_type":"survey-html-form","trial_index":86,"time_elapsed":800921,"internal_node_id":"0.0-85.0-0.0","params":{"nStudents":24,"maxFlips":25,"completionMinutes":45,"basePay":8,"maxBonus":9,"perTrialBonus":0.5,"perTrialBonusThreshold":0.05,"exampleCost":0.02},"classroomParams":{"A":{"a":1,"b":4},"B":{"a":4,"b":1},"C":{"a":2,"b":8},"D":{"a":8,"b":2}},"conditions":["nonSeqFull","nonSeqPartial","seqNoFeedback","seqFeedback"],"classroomPairings":[["A","B"],["C","D"]],"coinWeights":[0.2,0.5,0.8],"subjectId":"ASVRLMDNQBUD9","assignmentId":"3SLE99ER0OZ90ZQB0PEZF8OFX8UBZI","hitId":"3XUY87HIVP03YZXVLN9CW37DVI1MM2","url":"https://gershmanlab.com/experiments/alicia/teaching/experiment/?hitId=3XUY87HIVP03YZXVLN9CW37DVI1MM2&workerId=ASVRLMDNQBUD9&assignmentId=3SLE99ER0OZ90ZQB0PEZF8OFX8UBZI&a=R9LS3&tp_a=R9LS3&b=3SLE99ER0OZ90ZQB0PEZF8OFX8UBZI&tp_b=3SLE99ER0OZ90ZQB0PEZF8OFX8UBZI&c=365633&tp_c=365633","heads":4,"tails":16,"studentIndex":11,"studentTrueHypers":{"a":4,"b":1},"studentGuess":0.32,"delta":0.12,"totalExamples":20,"bonus":0,"bonusSoFar":0.1},{"rt":11708,"response":{"heads":"12","tails":"12"},"type":"response","condition":"seqNoFeedback","trueTheta":0.5,"classrooms":["C","D"],"studentTrueClassroom":"C","exampleSet":"first","trial_type":"survey-html-form","trial_index":92,"time_elapsed":830636,"internal_node_id":"0.0-91.0-0.0","params":{"nStudents":24,"maxFlips":25,"completionMinutes":45,"basePay":8,"maxBonus":9,"perTrialBonus":0.5,"perTrialBonusThreshold":0.05,"exampleCost":0.02},"classroomParams":{"A":{"a":1,"b":4},"B":{"a":4,"b":1},"C":{"a":2,"b":8},"D":{"a":8,"b":2}},"conditions":["nonSeqFull","nonSeqPartial","seqNoFeedback","seqFeedback"],"classroomPairings":[["A","B"],["C","D"]],"coinWeights":[0.2,0.5,0.8],"subjectId":"ASVRLMDNQBUD9","assignmentId":"3SLE99ER0OZ90ZQB0PEZF8OFX8UBZI","hitId":"3XUY87HIVP03YZXVLN9CW37DVI1MM2","url":"https://gershmanlab.com/experiments/alicia/teaching/experiment/?hitId=3XUY87HIVP03YZXVLN9CW37DVI1MM2&workerId=ASVRLMDNQBUD9&assignmentId=3SLE99ER0OZ90ZQB0PEZF8OFX8UBZI&a=R9LS3&tp_a=R9LS3&b=3SLE99ER0OZ90ZQB0PEZF8OFX8UBZI&tp_b=3SLE99ER0OZ90ZQB0PEZF8OFX8UBZI&c=365633&tp_c=365633","heads":12,"tails":12,"studentIndex":12,"studentTrueHypers":{"a":2,"b":8},"studentGuess":0.4117647058823529,"delta":0.08823529411764708,"totalExamples":24,"bonusSoFar":0.1},{"rt":17971,"response":{"heads":"12","tails":"12"},"type":"response","condition":"seqNoFeedback","trueTheta":0.5,"classrooms":["C","D"],"studentTrueClassroom":"C","exampleSet":"second","trial_type":"survey-html-form","trial_index":95,"time_elapsed":854121,"internal_node_id":"0.0-94.0-0.0","params":{"nStudents":24,"maxFlips":25,"completionMinutes":45,"basePay":8,"maxBonus":9,"perTrialBonus":0.5,"perTrialBonusThreshold":0.05,"exampleCost":0.02},"classroomParams":{"A":{"a":1,"b":4},"B":{"a":4,"b":1},"C":{"a":2,"b":8},"D":{"a":8,"b":2}},"conditions":["nonSeqFull","nonSeqPartial","seqNoFeedback","seqFeedback"],"classroomPairings":[["A","B"],["C","D"]],"coinWeights":[0.2,0.5,0.8],"subjectId":"ASVRLMDNQBUD9","assignmentId":"3SLE99ER0OZ90ZQB0PEZF8OFX8UBZI","hitId":"3XUY87HIVP03YZXVLN9CW37DVI1MM2","url":"https://gershmanlab.com/experiments/alicia/teaching/experiment/?hitId=3XUY87HIVP03YZXVLN9CW37DVI1MM2&workerId=ASVRLMDNQBUD9&assignmentId=3SLE99ER0OZ90ZQB0PEZF8OFX8UBZI&a=R9LS3&tp_a=R9LS3&b=3SLE99ER0OZ90ZQB0PEZF8OFX8UBZI&tp_b=3SLE99ER0OZ90ZQB0PEZF8OFX8UBZI&c=365633&tp_c=365633","firstResponseHeads":12,"firstResponseTails":12,"secondResponseHeads":12,"secondResponseTails":12,"totalHeads":24,"totalTails":24,"studentIndex":12,"studentTrueHypers":{"a":2,"b":8},"studentGuess":0.4482758620689655,"delta":0.051724137931034475,"bonus":0,"bonusSoFar":0.1,"totalExamples":48},{"rt":7096,"response":{"heads":"8","tails":"2"},"type":"response","condition":"seqFeedback","trueTheta":0.8,"classrooms":["C","D"],"studentTrueClassroom":"D","exampleSet":"first","trial_type":"survey-html-form","trial_index":101,"time_elapsed":885332,"internal_node_id":"0.0-100.0-0.0","params":{"nStudents":24,"maxFlips":25,"completionMinutes":45,"basePay":8,"maxBonus":9,"perTrialBonus":0.5,"perTrialBonusThreshold":0.05,"exampleCost":0.02},"classroomParams":{"A":{"a":1,"b":4},"B":{"a":4,"b":1},"C":{"a":2,"b":8},"D":{"a":8,"b":2}},"conditions":["nonSeqFull","nonSeqPartial","seqNoFeedback","seqFeedback"],"classroomPairings":[["A","B"],["C","D"]],"coinWeights":[0.2,0.5,0.8],"subjectId":"ASVRLMDNQBUD9","assignmentId":"3SLE99ER0OZ90ZQB0PEZF8OFX8UBZI","hitId":"3XUY87HIVP03YZXVLN9CW37DVI1MM2","url":"https://gershmanlab.com/experiments/alicia/teaching/experiment/?hitId=3XUY87HIVP03YZXVLN9CW37DVI1MM2&workerId=ASVRLMDNQBUD9&assignmentId=3SLE99ER0OZ90ZQB0PEZF8OFX8UBZI&a=R9LS3&tp_a=R9LS3&b=3SLE99ER0OZ90ZQB0PEZF8OFX8UBZI&tp_b=3SLE99ER0OZ90ZQB0PEZF8OFX8UBZI&c=365633&tp_c=365633","heads":8,"tails":2,"studentIndex":13,"studentTrueHypers":{"a":8,"b":2},"studentGuess":0.8,"delta":0,"totalExamples":10,"bonusSoFar":0.1},{"rt":9257,"response":{"heads":"8","tails":"2"},"type":"response","condition":"seqFeedback","trueTheta":0.8,"classrooms":["C","D"],"studentTrueClassroom":"D","exampleSet":"second","trial_type":"survey-html-form","trial_index":105,"time_elapsed":905049,"internal_node_id":"0.0-104.0-0.0","params":{"nStudents":24,"maxFlips":25,"completionMinutes":45,"basePay":8,"maxBonus":9,"perTrialBonus":0.5,"perTrialBonusThreshold":0.05,"exampleCost":0.02},"classroomParams":{"A":{"a":1,"b":4},"B":{"a":4,"b":1},"C":{"a":2,"b":8},"D":{"a":8,"b":2}},"conditions":["nonSeqFull","nonSeqPartial","seqNoFeedback","seqFeedback"],"classroomPairings":[["A","B"],["C","D"]],"coinWeights":[0.2,0.5,0.8],"subjectId":"ASVRLMDNQBUD9","assignmentId":"3SLE99ER0OZ90ZQB0PEZF8OFX8UBZI","hitId":"3XUY87HIVP03YZXVLN9CW37DVI1MM2","url":"https://gershmanlab.com/experiments/alicia/teaching/experiment/?hitId=3XUY87HIVP03YZXVLN9CW37DVI1MM2&workerId=ASVRLMDNQBUD9&assignmentId=3SLE99ER0OZ90ZQB0PEZF8OFX8UBZI&a=R9LS3&tp_a=R9LS3&b=3SLE99ER0OZ90ZQB0PEZF8OFX8UBZI&tp_b=3SLE99ER0OZ90ZQB0PEZF8OFX8UBZI&c=365633&tp_c=365633","firstResponseHeads":8,"firstResponseTails":2,"secondResponseHeads":8,"secondResponseTails":2,"totalHeads":16,"totalTails":4,"studentIndex":13,"studentTrueHypers":{"a":8,"b":2},"studentGuess":0.8,"delta":0,"bonus":0.1,"bonusSoFar":0.2,"totalExamples":20},{"rt":14829,"response":{"heads":"2","tails":"8"},"type":"response","condition":"seqNoFeedback","trueTheta":0.2,"classrooms":["C","D"],"studentTrueClassroom":"C","exampleSet":"first","trial_type":"survey-html-form","trial_index":111,"time_elapsed":936278,"internal_node_id":"0.0-110.0-0.0","params":{"nStudents":24,"maxFlips":25,"completionMinutes":45,"basePay":8,"maxBonus":9,"perTrialBonus":0.5,"perTrialBonusThreshold":0.05,"exampleCost":0.02},"classroomParams":{"A":{"a":1,"b":4},"B":{"a":4,"b":1},"C":{"a":2,"b":8},"D":{"a":8,"b":2}},"conditions":["nonSeqFull","nonSeqPartial","seqNoFeedback","seqFeedback"],"classroomPairings":[["A","B"],["C","D"]],"coinWeights":[0.2,0.5,0.8],"subjectId":"ASVRLMDNQBUD9","assignmentId":"3SLE99ER0OZ90ZQB0PEZF8OFX8UBZI","hitId":"3XUY87HIVP03YZXVLN9CW37DVI1MM2","url":"https://gershmanlab.com/experiments/alicia/teaching/experiment/?hitId=3XUY87HIVP03YZXVLN9CW37DVI1MM2&workerId=ASVRLMDNQBUD9&assignmentId=3SLE99ER0OZ90ZQB0PEZF8OFX8UBZI&a=R9LS3&tp_a=R9LS3&b=3SLE99ER0OZ90ZQB0PEZF8OFX8UBZI&tp_b=3SLE99ER0OZ90ZQB0PEZF8OFX8UBZI&c=365633&tp_c=365633","heads":2,"tails":8,"studentIndex":14,"studentTrueHypers":{"a":2,"b":8},"studentGuess":0.2,"delta":0,"totalExamples":10,"bonusSoFar":0.2},{"rt":20509,"response":{"heads":"4","tails":"16"},"type":"response","condition":"seqNoFeedback","trueTheta":0.2,"classrooms":["C","D"],"studentTrueClassroom":"C","exampleSet":"second","trial_type":"survey-html-form","trial_index":114,"time_elapsed":962541,"internal_node_id":"0.0-113.0-0.0","params":{"nStudents":24,"maxFlips":25,"completionMinutes":45,"basePay":8,"maxBonus":9,"perTrialBonus":0.5,"perTrialBonusThreshold":0.05,"exampleCost":0.02},"classroomParams":{"A":{"a":1,"b":4},"B":{"a":4,"b":1},"C":{"a":2,"b":8},"D":{"a":8,"b":2}},"conditions":["nonSeqFull","nonSeqPartial","seqNoFeedback","seqFeedback"],"classroomPairings":[["A","B"],["C","D"]],"coinWeights":[0.2,0.5,0.8],"subjectId":"ASVRLMDNQBUD9","assignmentId":"3SLE99ER0OZ90ZQB0PEZF8OFX8UBZI","hitId":"3XUY87HIVP03YZXVLN9CW37DVI1MM2","url":"https://gershmanlab.com/experiments/alicia/teaching/experiment/?hitId=3XUY87HIVP03YZXVLN9CW37DVI1MM2&workerId=ASVRLMDNQBUD9&assignmentId=3SLE99ER0OZ90ZQB0PEZF8OFX8UBZI&a=R9LS3&tp_a=R9LS3&b=3SLE99ER0OZ90ZQB0PEZF8OFX8UBZI&tp_b=3SLE99ER0OZ90ZQB0PEZF8OFX8UBZI&c=365633&tp_c=365633","firstResponseHeads":2,"firstResponseTails":8,"secondResponseHeads":4,"secondResponseTails":16,"totalHeads":6,"totalTails":24,"studentIndex":14,"studentTrueHypers":{"a":2,"b":8},"studentGuess":0.2,"delta":0,"bonus":0,"bonusSoFar":0.2,"totalExamples":30},{"rt":14629,"response":{"heads":"10","tails":"10"},"type":"response","condition":"seqFeedback","trueTheta":0.5,"classrooms":["A","B"],"studentTrueClassroom":"A","exampleSet":"first","trial_type":"survey-html-form","trial_index":120,"time_elapsed":996921,"internal_node_id":"0.0-119.0-0.0","params":{"nStudents":24,"maxFlips":25,"completionMinutes":45,"basePay":8,"maxBonus":9,"perTrialBonus":0.5,"perTrialBonusThreshold":0.05,"exampleCost":0.02},"classroomParams":{"A":{"a":1,"b":4},"B":{"a":4,"b":1},"C":{"a":2,"b":8},"D":{"a":8,"b":2}},"conditions":["nonSeqFull","nonSeqPartial","seqNoFeedback","seqFeedback"],"classroomPairings":[["A","B"],["C","D"]],"coinWeights":[0.2,0.5,0.8],"subjectId":"ASVRLMDNQBUD9","assignmentId":"3SLE99ER0OZ90ZQB0PEZF8OFX8UBZI","hitId":"3XUY87HIVP03YZXVLN9CW37DVI1MM2","url":"https://gershmanlab.com/experiments/alicia/teaching/experiment/?hitId=3XUY87HIVP03YZXVLN9CW37DVI1MM2&workerId=ASVRLMDNQBUD9&assignmentId=3SLE99ER0OZ90ZQB0PEZF8OFX8UBZI&a=R9LS3&tp_a=R9LS3&b=3SLE99ER0OZ90ZQB0PEZF8OFX8UBZI&tp_b=3SLE99ER0OZ90ZQB0PEZF8OFX8UBZI&c=365633&tp_c=365633","heads":10,"tails":10,"studentIndex":15,"studentTrueHypers":{"a":1,"b":4},"studentGuess":0.44,"delta":0.06,"totalExamples":20,"bonusSoFar":0.2},{"rt":12161,"response":{"heads":"12","tails":"11"},"type":"response","condition":"seqFeedback","trueTheta":0.5,"classrooms":["A","B"],"studentTrueClassroom":"A","exampleSet":"second","trial_type":"survey-html-form","trial_index":124,"time_elapsed":1019876,"internal_node_id":"0.0-123.0-0.0","params":{"nStudents":24,"maxFlips":25,"completionMinutes":45,"basePay":8,"maxBonus":9,"perTrialBonus":0.5,"perTrialBonusThreshold":0.05,"exampleCost":0.02},"classroomParams":{"A":{"a":1,"b":4},"B":{"a":4,"b":1},"C":{"a":2,"b":8},"D":{"a":8,"b":2}},"conditions":["nonSeqFull","nonSeqPartial","seqNoFeedback","seqFeedback"],"classroomPairings":[["A","B"],["C","D"]],"coinWeights":[0.2,0.5,0.8],"subjectId":"ASVRLMDNQBUD9","assignmentId":"3SLE99ER0OZ90ZQB0PEZF8OFX8UBZI","hitId":"3XUY87HIVP03YZXVLN9CW37DVI1MM2","url":"https://gershmanlab.com/experiments/alicia/teaching/experiment/?hitId=3XUY87HIVP03YZXVLN9CW37DVI1MM2&workerId=ASVRLMDNQBUD9&assignmentId=3SLE99ER0OZ90ZQB0PEZF8OFX8UBZI&a=R9LS3&tp_a=R9LS3&b=3SLE99ER0OZ90ZQB0PEZF8OFX8UBZI&tp_b=3SLE99ER0OZ90ZQB0PEZF8OFX8UBZI&c=365633&tp_c=365633","firstResponseHeads":10,"firstResponseTails":10,"secondResponseHeads":12,"secondResponseTails":11,"totalHeads":22,"totalTails":21,"studentIndex":15,"studentTrueHypers":{"a":1,"b":4},"studentGuess":0.4791666666666667,"delta":0.020833333333333315,"bonus":0,"bonusSoFar":0.2,"totalExamples":43},{"rt":9513,"response":{"heads":"4","tails":"1"},"type":"response","condition":"seqFeedback","trueTheta":0.8,"classrooms":["A","B"],"studentTrueClassroom":"A","exampleSet":"first","trial_type":"survey-html-form","trial_index":130,"time_elapsed":1051873,"internal_node_id":"0.0-129.0-0.0","params":{"nStudents":24,"maxFlips":25,"completionMinutes":45,"basePay":8,"maxBonus":9,"perTrialBonus":0.5,"perTrialBonusThreshold":0.05,"exampleCost":0.02},"classroomParams":{"A":{"a":1,"b":4},"B":{"a":4,"b":1},"C":{"a":2,"b":8},"D":{"a":8,"b":2}},"conditions":["nonSeqFull","nonSeqPartial","seqNoFeedback","seqFeedback"],"classroomPairings":[["A","B"],["C","D"]],"coinWeights":[0.2,0.5,0.8],"subjectId":"ASVRLMDNQBUD9","assignmentId":"3SLE99ER0OZ90ZQB0PEZF8OFX8UBZI","hitId":"3XUY87HIVP03YZXVLN9CW37DVI1MM2","url":"https://gershmanlab.com/experiments/alicia/teaching/experiment/?hitId=3XUY87HIVP03YZXVLN9CW37DVI1MM2&workerId=ASVRLMDNQBUD9&assignmentId=3SLE99ER0OZ90ZQB0PEZF8OFX8UBZI&a=R9LS3&tp_a=R9LS3&b=3SLE99ER0OZ90ZQB0PEZF8OFX8UBZI&tp_b=3SLE99ER0OZ90ZQB0PEZF8OFX8UBZI&c=365633&tp_c=365633","heads":4,"tails":1,"studentIndex":16,"studentTrueHypers":{"a":1,"b":4},"studentGuess":0.5,"delta":0.30000000000000004,"totalExamples":5,"bonusSoFar":0.2},{"rt":17031,"response":{"heads":"8","tails":"1"},"type":"response","condition":"seqFeedback","trueTheta":0.8,"classrooms":["A","B"],"studentTrueClassroom":"A","exampleSet":"second","trial_type":"survey-html-form","trial_index":134,"time_elapsed":1082375,"internal_node_id":"0.0-133.0-0.0","params":{"nStudents":24,"maxFlips":25,"completionMinutes":45,"basePay":8,"maxBonus":9,"perTrialBonus":0.5,"perTrialBonusThreshold":0.05,"exampleCost":0.02},"classroomParams":{"A":{"a":1,"b":4},"B":{"a":4,"b":1},"C":{"a":2,"b":8},"D":{"a":8,"b":2}},"conditions":["nonSeqFull","nonSeqPartial","seqNoFeedback","seqFeedback"],"classroomPairings":[["A","B"],["C","D"]],"coinWeights":[0.2,0.5,0.8],"subjectId":"ASVRLMDNQBUD9","assignmentId":"3SLE99ER0OZ90ZQB0PEZF8OFX8UBZI","hitId":"3XUY87HIVP03YZXVLN9CW37DVI1MM2","url":"https://gershmanlab.com/experiments/alicia/teaching/experiment/?hitId=3XUY87HIVP03YZXVLN9CW37DVI1MM2&workerId=ASVRLMDNQBUD9&assignmentId=3SLE99ER0OZ90ZQB0PEZF8OFX8UBZI&a=R9LS3&tp_a=R9LS3&b=3SLE99ER0OZ90ZQB0PEZF8OFX8UBZI&tp_b=3SLE99ER0OZ90ZQB0PEZF8OFX8UBZI&c=365633&tp_c=365633","firstResponseHeads":4,"firstResponseTails":1,"secondResponseHeads":8,"secondResponseTails":1,"totalHeads":12,"totalTails":2,"studentIndex":16,"studentTrueHypers":{"a":1,"b":4},"studentGuess":0.6842105263157895,"delta":0.11578947368421055,"bonus":0,"bonusSoFar":0.2,"totalExamples":14},{"rt":13883,"response":{"heads":"4","tails":"20"},"type":"response","condition":"seqFeedback","trueTheta":0.2,"classrooms":["C","D"],"studentTrueClassroom":"D","exampleSet":"first","trial_type":"survey-html-form","trial_index":140,"time_elapsed":1112722,"internal_node_id":"0.0-139.0-0.0","params":{"nStudents":24,"maxFlips":25,"completionMinutes":45,"basePay":8,"maxBonus":9,"perTrialBonus":0.5,"perTrialBonusThreshold":0.05,"exampleCost":0.02},"classroomParams":{"A":{"a":1,"b":4},"B":{"a":4,"b":1},"C":{"a":2,"b":8},"D":{"a":8,"b":2}},"conditions":["nonSeqFull","nonSeqPartial","seqNoFeedback","seqFeedback"],"classroomPairings":[["A","B"],["C","D"]],"coinWeights":[0.2,0.5,0.8],"subjectId":"ASVRLMDNQBUD9","assignmentId":"3SLE99ER0OZ90ZQB0PEZF8OFX8UBZI","hitId":"3XUY87HIVP03YZXVLN9CW37DVI1MM2","url":"https://gershmanlab.com/experiments/alicia/teaching/experiment/?hitId=3XUY87HIVP03YZXVLN9CW37DVI1MM2&workerId=ASVRLMDNQBUD9&assignmentId=3SLE99ER0OZ90ZQB0PEZF8OFX8UBZI&a=R9LS3&tp_a=R9LS3&b=3SLE99ER0OZ90ZQB0PEZF8OFX8UBZI&tp_b=3SLE99ER0OZ90ZQB0PEZF8OFX8UBZI&c=365633&tp_c=365633","heads":4,"tails":20,"studentIndex":17,"studentTrueHypers":{"a":8,"b":2},"studentGuess":0.35294117647058826,"delta":0.15294117647058825,"totalExamples":24,"bonusSoFar":0.2},{"rt":9471,"response":{"heads":"2","tails":"20"},"type":"response","condition":"seqFeedback","trueTheta":0.2,"classrooms":["C","D"],"studentTrueClassroom":"D","exampleSet":"second","trial_type":"survey-html-form","trial_index":144,"time_elapsed":1132901,"internal_node_id":"0.0-143.0-0.0","params":{"nStudents":24,"maxFlips":25,"completionMinutes":45,"basePay":8,"maxBonus":9,"perTrialBonus":0.5,"perTrialBonusThreshold":0.05,"exampleCost":0.02},"classroomParams":{"A":{"a":1,"b":4},"B":{"a":4,"b":1},"C":{"a":2,"b":8},"D":{"a":8,"b":2}},"conditions":["nonSeqFull","nonSeqPartial","seqNoFeedback","seqFeedback"],"classroomPairings":[["A","B"],["C","D"]],"coinWeights":[0.2,0.5,0.8],"subjectId":"ASVRLMDNQBUD9","assignmentId":"3SLE99ER0OZ90ZQB0PEZF8OFX8UBZI","hitId":"3XUY87HIVP03YZXVLN9CW37DVI1MM2","url":"https://gershmanlab.com/experiments/alicia/teaching/experiment/?hitId=3XUY87HIVP03YZXVLN9CW37DVI1MM2&workerId=ASVRLMDNQBUD9&assignmentId=3SLE99ER0OZ90ZQB0PEZF8OFX8UBZI&a=R9LS3&tp_a=R9LS3&b=3SLE99ER0OZ90ZQB0PEZF8OFX8UBZI&tp_b=3SLE99ER0OZ90ZQB0PEZF8OFX8UBZI&c=365633&tp_c=365633","firstResponseHeads":4,"firstResponseTails":20,"secondResponseHeads":2,"secondResponseTails":20,"totalHeads":6,"totalTails":40,"studentIndex":17,"studentTrueHypers":{"a":8,"b":2},"studentGuess":0.25,"delta":0.04999999999999999,"bonus":0,"bonusSoFar":0.2,"totalExamples":46},{"rt":17028,"response":{"heads":"2","tails":"1"},"type":"response","condition":"nonSeqPartial","trueTheta":0.8,"classrooms":["C","D"],"studentTrueClassroom":"D","exampleSet":"first","trial_type":"survey-html-form","trial_index":150,"time_elapsed":1166856,"internal_node_id":"0.0-149.0-0.0","params":{"nStudents":24,"maxFlips":25,"completionMinutes":45,"basePay":8,"maxBonus":9,"perTrialBonus":0.5,"perTrialBonusThreshold":0.05,"exampleCost":0.02},"classroomParams":{"A":{"a":1,"b":4},"B":{"a":4,"b":1},"C":{"a":2,"b":8},"D":{"a":8,"b":2}},"conditions":["nonSeqFull","nonSeqPartial","seqNoFeedback","seqFeedback"],"classroomPairings":[["A","B"],["C","D"]],"coinWeights":[0.2,0.5,0.8],"subjectId":"ASVRLMDNQBUD9","assignmentId":"3SLE99ER0OZ90ZQB0PEZF8OFX8UBZI","hitId":"3XUY87HIVP03YZXVLN9CW37DVI1MM2","url":"https://gershmanlab.com/experiments/alicia/teaching/experiment/?hitId=3XUY87HIVP03YZXVLN9CW37DVI1MM2&workerId=ASVRLMDNQBUD9&assignmentId=3SLE99ER0OZ90ZQB0PEZF8OFX8UBZI&a=R9LS3&tp_a=R9LS3&b=3SLE99ER0OZ90ZQB0PEZF8OFX8UBZI&tp_b=3SLE99ER0OZ90ZQB0PEZF8OFX8UBZI&c=365633&tp_c=365633","heads":2,"tails":1,"studentIndex":18,"studentTrueHypers":{"a":8,"b":2},"studentGuess":0.7692307692307693,"delta":0.03076923076923077,"totalExamples":3,"bonus":0.44,"bonusSoFar":0.64},{"rt":4638,"response":{"heads":"1","tails":"1"},"type":"response","condition":"nonSeqPartial","trueTheta":0.5,"classrooms":["A","B"],"studentTrueClassroom":"A","exampleSet":"first","trial_type":"survey-html-form","trial_index":156,"time_elapsed":1191190,"internal_node_id":"0.0-155.0-0.0","params":{"nStudents":24,"maxFlips":25,"completionMinutes":45,"basePay":8,"maxBonus":9,"perTrialBonus":0.5,"perTrialBonusThreshold":0.05,"exampleCost":0.02},"classroomParams":{"A":{"a":1,"b":4},"B":{"a":4,"b":1},"C":{"a":2,"b":8},"D":{"a":8,"b":2}},"conditions":["nonSeqFull","nonSeqPartial","seqNoFeedback","seqFeedback"],"classroomPairings":[["A","B"],["C","D"]],"coinWeights":[0.2,0.5,0.8],"subjectId":"ASVRLMDNQBUD9","assignmentId":"3SLE99ER0OZ90ZQB0PEZF8OFX8UBZI","hitId":"3XUY87HIVP03YZXVLN9CW37DVI1MM2","url":"https://gershmanlab.com/experiments/alicia/teaching/experiment/?hitId=3XUY87HIVP03YZXVLN9CW37DVI1MM2&workerId=ASVRLMDNQBUD9&assignmentId=3SLE99ER0OZ90ZQB0PEZF8OFX8UBZI&a=R9LS3&tp_a=R9LS3&b=3SLE99ER0OZ90ZQB0PEZF8OFX8UBZI&tp_b=3SLE99ER0OZ90ZQB0PEZF8OFX8UBZI&c=365633&tp_c=365633","heads":1,"tails":1,"studentIndex":19,"studentTrueHypers":{"a":1,"b":4},"studentGuess":0.2857142857142857,"delta":0.2142857142857143,"totalExamples":2,"bonus":0,"bonusSoFar":0.64},{"rt":1233,"response":{"heads":"0","tails":"0"},"type":"response","condition":"nonSeqFull","trueTheta":0.5,"classrooms":["C","D"],"studentTrueClassroom":"D","exampleSet":"first","trial_type":"survey-html-form","trial_index":162,"time_elapsed":1208349,"internal_node_id":"0.0-161.0-0.0","params":{"nStudents":24,"maxFlips":25,"completionMinutes":45,"basePay":8,"maxBonus":9,"perTrialBonus":0.5,"perTrialBonusThreshold":0.05,"exampleCost":0.02},"classroomParams":{"A":{"a":1,"b":4},"B":{"a":4,"b":1},"C":{"a":2,"b":8},"D":{"a":8,"b":2}},"conditions":["nonSeqFull","nonSeqPartial","seqNoFeedback","seqFeedback"],"classroomPairings":[["A","B"],["C","D"]],"coinWeights":[0.2,0.5,0.8],"subjectId":"ASVRLMDNQBUD9","assignmentId":"3SLE99ER0OZ90ZQB0PEZF8OFX8UBZI","hitId":"3XUY87HIVP03YZXVLN9CW37DVI1MM2","url":"https://gershmanlab.com/experiments/alicia/teaching/experiment/?hitId=3XUY87HIVP03YZXVLN9CW37DVI1MM2&workerId=ASVRLMDNQBUD9&assignmentId=3SLE99ER0OZ90ZQB0PEZF8OFX8UBZI&a=R9LS3&tp_a=R9LS3&b=3SLE99ER0OZ90ZQB0PEZF8OFX8UBZI&tp_b=3SLE99ER0OZ90ZQB0PEZF8OFX8UBZI&c=365633&tp_c=365633","heads":0,"tails":0,"studentIndex":20,"studentTrueHypers":{"a":8,"b":2},"studentGuess":0.8,"delta":0.30000000000000004,"totalExamples":0,"bonus":0,"bonusSoFar":0.64},{"rt":5864,"response":{"heads":"0","tails":"0"},"type":"response","condition":"nonSeqFull","trueTheta":0.5,"classrooms":["C","D"],"studentTrueClassroom":"D","exampleSet":"first","trial_type":"survey-html-form","trial_index":163,"time_elapsed":1214215,"internal_node_id":"0.0-161.1-0.1","params":{"nStudents":24,"maxFlips":25,"completionMinutes":45,"basePay":8,"maxBonus":9,"perTrialBonus":0.5,"perTrialBonusThreshold":0.05,"exampleCost":0.02},"classroomParams":{"A":{"a":1,"b":4},"B":{"a":4,"b":1},"C":{"a":2,"b":8},"D":{"a":8,"b":2}},"conditions":["nonSeqFull","nonSeqPartial","seqNoFeedback","seqFeedback"],"classroomPairings":[["A","B"],["C","D"]],"coinWeights":[0.2,0.5,0.8],"subjectId":"ASVRLMDNQBUD9","assignmentId":"3SLE99ER0OZ90ZQB0PEZF8OFX8UBZI","hitId":"3XUY87HIVP03YZXVLN9CW37DVI1MM2","url":"https://gershmanlab.com/experiments/alicia/teaching/experiment/?hitId=3XUY87HIVP03YZXVLN9CW37DVI1MM2&workerId=ASVRLMDNQBUD9&assignmentId=3SLE99ER0OZ90ZQB0PEZF8OFX8UBZI&a=R9LS3&tp_a=R9LS3&b=3SLE99ER0OZ90ZQB0PEZF8OFX8UBZI&tp_b=3SLE99ER0OZ90ZQB0PEZF8OFX8UBZI&c=365633&tp_c=365633","heads":0,"tails":0,"studentIndex":20,"studentTrueHypers":{"a":8,"b":2},"studentGuess":0.8,"delta":0.30000000000000004,"totalExamples":0,"bonus":0,"bonusSoFar":0.64},{"rt":1288,"response":{"heads":"0","tails":"0"},"type":"response","condition":"nonSeqFull","trueTheta":0.5,"classrooms":["C","D"],"studentTrueClassroom":"D","exampleSet":"first","trial_type":"survey-html-form","trial_index":164,"time_elapsed":1215505,"internal_node_id":"0.0-161.2-0.2","params":{"nStudents":24,"maxFlips":25,"completionMinutes":45,"basePay":8,"maxBonus":9,"perTrialBonus":0.5,"perTrialBonusThreshold":0.05,"exampleCost":0.02},"classroomParams":{"A":{"a":1,"b":4},"B":{"a":4,"b":1},"C":{"a":2,"b":8},"D":{"a":8,"b":2}},"conditions":["nonSeqFull","nonSeqPartial","seqNoFeedback","seqFeedback"],"classroomPairings":[["A","B"],["C","D"]],"coinWeights":[0.2,0.5,0.8],"subjectId":"ASVRLMDNQBUD9","assignmentId":"3SLE99ER0OZ90ZQB0PEZF8OFX8UBZI","hitId":"3XUY87HIVP03YZXVLN9CW37DVI1MM2","url":"https://gershmanlab.com/experiments/alicia/teaching/experiment/?hitId=3XUY87HIVP03YZXVLN9CW37DVI1MM2&workerId=ASVRLMDNQBUD9&assignmentId=3SLE99ER0OZ90ZQB0PEZF8OFX8UBZI&a=R9LS3&tp_a=R9LS3&b=3SLE99ER0OZ90ZQB0PEZF8OFX8UBZI&tp_b=3SLE99ER0OZ90ZQB0PEZF8OFX8UBZI&c=365633&tp_c=365633","heads":0,"tails":0,"studentIndex":20,"studentTrueHypers":{"a":8,"b":2},"studentGuess":0.8,"delta":0.30000000000000004,"totalExamples":0,"bonus":0,"bonusSoFar":0.64},{"rt":4316,"response":{"heads":"1","tails":"1"},"type":"response","condition":"nonSeqFull","trueTheta":0.5,"classrooms":["C","D"],"studentTrueClassroom":"D","exampleSet":"first","trial_type":"survey-html-form","trial_index":165,"time_elapsed":1219824,"internal_node_id":"0.0-161.3-0.3","params":{"nStudents":24,"maxFlips":25,"completionMinutes":45,"basePay":8,"maxBonus":9,"perTrialBonus":0.5,"perTrialBonusThreshold":0.05,"exampleCost":0.02},"classroomParams":{"A":{"a":1,"b":4},"B":{"a":4,"b":1},"C":{"a":2,"b":8},"D":{"a":8,"b":2}},"conditions":["nonSeqFull","nonSeqPartial","seqNoFeedback","seqFeedback"],"classroomPairings":[["A","B"],["C","D"]],"coinWeights":[0.2,0.5,0.8],"subjectId":"ASVRLMDNQBUD9","assignmentId":"3SLE99ER0OZ90ZQB0PEZF8OFX8UBZI","hitId":"3XUY87HIVP03YZXVLN9CW37DVI1MM2","url":"https://gershmanlab.com/experiments/alicia/teaching/experiment/?hitId=3XUY87HIVP03YZXVLN9CW37DVI1MM2&workerId=ASVRLMDNQBUD9&assignmentId=3SLE99ER0OZ90ZQB0PEZF8OFX8UBZI&a=R9LS3&tp_a=R9LS3&b=3SLE99ER0OZ90ZQB0PEZF8OFX8UBZI&tp_b=3SLE99ER0OZ90ZQB0PEZF8OFX8UBZI&c=365633&tp_c=365633","heads":1,"tails":1,"studentIndex":20,"studentTrueHypers":{"a":8,"b":2},"studentGuess":0.75,"delta":0.25,"totalExamples":2,"bonus":0,"bonusSoFar":0.64},{"rt":8148,"response":{"heads":"1","tails":"4"},"type":"response","condition":"nonSeqPartial","trueTheta":0.2,"classrooms":["C","D"],"studentTrueClassroom":"C","exampleSet":"first","trial_type":"survey-html-form","trial_index":171,"time_elapsed":1241320,"internal_node_id":"0.0-167.0-0.0","params":{"nStudents":24,"maxFlips":25,"completionMinutes":45,"basePay":8,"maxBonus":9,"perTrialBonus":0.5,"perTrialBonusThreshold":0.05,"exampleCost":0.02},"classroomParams":{"A":{"a":1,"b":4},"B":{"a":4,"b":1},"C":{"a":2,"b":8},"D":{"a":8,"b":2}},"conditions":["nonSeqFull","nonSeqPartial","seqNoFeedback","seqFeedback"],"classroomPairings":[["A","B"],["C","D"]],"coinWeights":[0.2,0.5,0.8],"subjectId":"ASVRLMDNQBUD9","assignmentId":"3SLE99ER0OZ90ZQB0PEZF8OFX8UBZI","hitId":"3XUY87HIVP03YZXVLN9CW37DVI1MM2","url":"https://gershmanlab.com/experiments/alicia/teaching/experiment/?hitId=3XUY87HIVP03YZXVLN9CW37DVI1MM2&workerId=ASVRLMDNQBUD9&assignmentId=3SLE99ER0OZ90ZQB0PEZF8OFX8UBZI&a=R9LS3&tp_a=R9LS3&b=3SLE99ER0OZ90ZQB0PEZF8OFX8UBZI&tp_b=3SLE99ER0OZ90ZQB0PEZF8OFX8UBZI&c=365633&tp_c=365633","heads":1,"tails":4,"studentIndex":21,"studentTrueHypers":{"a":2,"b":8},"studentGuess":0.2,"delta":0,"totalExamples":5,"bonus":0.4,"bonusSoFar":1.04},{"rt":4732,"response":{"heads":"2","tails":"2"},"type":"response","condition":"seqNoFeedback","trueTheta":0.5,"classrooms":["A","B"],"studentTrueClassroom":"A","exampleSet":"first","trial_type":"survey-html-form","trial_index":177,"time_elapsed":1261808,"internal_node_id":"0.0-173.0-0.0","params":{"nStudents":24,"maxFlips":25,"completionMinutes":45,"basePay":8,"maxBonus":9,"perTrialBonus":0.5,"perTrialBonusThreshold":0.05,"exampleCost":0.02},"classroomParams":{"A":{"a":1,"b":4},"B":{"a":4,"b":1},"C":{"a":2,"b":8},"D":{"a":8,"b":2}},"conditions":["nonSeqFull","nonSeqPartial","seqNoFeedback","seqFeedback"],"classroomPairings":[["A","B"],["C","D"]],"coinWeights":[0.2,0.5,0.8],"subjectId":"ASVRLMDNQBUD9","assignmentId":"3SLE99ER0OZ90ZQB0PEZF8OFX8UBZI","hitId":"3XUY87HIVP03YZXVLN9CW37DVI1MM2","url":"https://gershmanlab.com/experiments/alicia/teaching/experiment/?hitId=3XUY87HIVP03YZXVLN9CW37DVI1MM2&workerId=ASVRLMDNQBUD9&assignmentId=3SLE99ER0OZ90ZQB0PEZF8OFX8UBZI&a=R9LS3&tp_a=R9LS3&b=3SLE99ER0OZ90ZQB0PEZF8OFX8UBZI&tp_b=3SLE99ER0OZ90ZQB0PEZF8OFX8UBZI&c=365633&tp_c=365633","heads":2,"tails":2,"studentIndex":22,"studentTrueHypers":{"a":1,"b":4},"studentGuess":0.3333333333333333,"delta":0.16666666666666669,"totalExamples":4,"bonusSoFar":1.04},{"rt":14237,"response":{"heads":"1","tails":"1"},"type":"response","condition":"seqNoFeedback","trueTheta":0.5,"classrooms":["A","B"],"studentTrueClassroom":"A","exampleSet":"second","trial_type":"survey-html-form","trial_index":180,"time_elapsed":1284067,"internal_node_id":"0.0-176.0-0.0","params":{"nStudents":24,"maxFlips":25,"completionMinutes":45,"basePay":8,"maxBonus":9,"perTrialBonus":0.5,"perTrialBonusThreshold":0.05,"exampleCost":0.02},"classroomParams":{"A":{"a":1,"b":4},"B":{"a":4,"b":1},"C":{"a":2,"b":8},"D":{"a":8,"b":2}},"conditions":["nonSeqFull","nonSeqPartial","seqNoFeedback","seqFeedback"],"classroomPairings":[["A","B"],["C","D"]],"coinWeights":[0.2,0.5,0.8],"subjectId":"ASVRLMDNQBUD9","assignmentId":"3SLE99ER0OZ90ZQB0PEZF8OFX8UBZI","hitId":"3XUY87HIVP03YZXVLN9CW37DVI1MM2","url":"https://gershmanlab.com/experiments/alicia/teaching/experiment/?hitId=3XUY87HIVP03YZXVLN9CW37DVI1MM2&workerId=ASVRLMDNQBUD9&assignmentId=3SLE99ER0OZ90ZQB0PEZF8OFX8UBZI&a=R9LS3&tp_a=R9LS3&b=3SLE99ER0OZ90ZQB0PEZF8OFX8UBZI&tp_b=3SLE99ER0OZ90ZQB0PEZF8OFX8UBZI&c=365633&tp_c=365633","firstResponseHeads":2,"firstResponseTails":2,"secondResponseHeads":1,"secondResponseTails":1,"totalHeads":3,"totalTails":3,"studentIndex":22,"studentTrueHypers":{"a":1,"b":4},"studentGuess":0.36363636363636365,"delta":0.13636363636363635,"bonus":0,"bonusSoFar":1.04,"totalExamples":6},{"rt":11203,"response":{"heads":"1","tails":"4"},"type":"response","condition":"seqFeedback","trueTheta":0.2,"classrooms":["A","B"],"studentTrueClassroom":"B","exampleSet":"first","trial_type":"survey-html-form","trial_index":186,"time_elapsed":1308654,"internal_node_id":"0.0-182.0-0.0","params":{"nStudents":24,"maxFlips":25,"completionMinutes":45,"basePay":8,"maxBonus":9,"perTrialBonus":0.5,"perTrialBonusThreshold":0.05,"exampleCost":0.02},"classroomParams":{"A":{"a":1,"b":4},"B":{"a":4,"b":1},"C":{"a":2,"b":8},"D":{"a":8,"b":2}},"conditions":["nonSeqFull","nonSeqPartial","seqNoFeedback","seqFeedback"],"classroomPairings":[["A","B"],["C","D"]],"coinWeights":[0.2,0.5,0.8],"subjectId":"ASVRLMDNQBUD9","assignmentId":"3SLE99ER0OZ90ZQB0PEZF8OFX8UBZI","hitId":"3XUY87HIVP03YZXVLN9CW37DVI1MM2","url":"https://gershmanlab.com/experiments/alicia/teaching/experiment/?hitId=3XUY87HIVP03YZXVLN9CW37DVI1MM2&workerId=ASVRLMDNQBUD9&assignmentId=3SLE99ER0OZ90ZQB0PEZF8OFX8UBZI&a=R9LS3&tp_a=R9LS3&b=3SLE99ER0OZ90ZQB0PEZF8OFX8UBZI&tp_b=3SLE99ER0OZ90ZQB0PEZF8OFX8UBZI&c=365633&tp_c=365633","heads":1,"tails":4,"studentIndex":23,"studentTrueHypers":{"a":4,"b":1},"studentGuess":0.5,"delta":0.3,"totalExamples":5,"bonusSoFar":1.04},{"rt":6448,"response":{"heads":"1","tails":"4"},"type":"response","condition":"seqFeedback","trueTheta":0.2,"classrooms":["A","B"],"studentTrueClassroom":"B","exampleSet":"second","trial_type":"survey-html-form","trial_index":190,"time_elapsed":1326358,"internal_node_id":"0.0-186.0-0.0","params":{"nStudents":24,"maxFlips":25,"completionMinutes":45,"basePay":8,"maxBonus":9,"perTrialBonus":0.5,"perTrialBonusThreshold":0.05,"exampleCost":0.02},"classroomParams":{"A":{"a":1,"b":4},"B":{"a":4,"b":1},"C":{"a":2,"b":8},"D":{"a":8,"b":2}},"conditions":["nonSeqFull","nonSeqPartial","seqNoFeedback","seqFeedback"],"classroomPairings":[["A","B"],["C","D"]],"coinWeights":[0.2,0.5,0.8],"subjectId":"ASVRLMDNQBUD9","assignmentId":"3SLE99ER0OZ90ZQB0PEZF8OFX8UBZI","hitId":"3XUY87HIVP03YZXVLN9CW37DVI1MM2","url":"https://gershmanlab.com/experiments/alicia/teaching/experiment/?hitId=3XUY87HIVP03YZXVLN9CW37DVI1MM2&workerId=ASVRLMDNQBUD9&assignmentId=3SLE99ER0OZ90ZQB0PEZF8OFX8UBZI&a=R9LS3&tp_a=R9LS3&b=3SLE99ER0OZ90ZQB0PEZF8OFX8UBZI&tp_b=3SLE99ER0OZ90ZQB0PEZF8OFX8UBZI&c=365633&tp_c=365633","firstResponseHeads":1,"firstResponseTails":4,"secondResponseHeads":1,"secondResponseTails":4,"totalHeads":2,"totalTails":8,"studentIndex":23,"studentTrueHypers":{"a":4,"b":1},"studentGuess":0.4,"delta":0.2,"bonus":0,"bonusSoFar":1.04,"totalExamples":10},{"rt":10646,"response":{"gender":"male","age":"42","understood":"yes","comments":""},"type":"response","trial_type":"survey-html-form","trial_index":194,"time_elapsed":1348737,"internal_node_id":"0.0-191.0","params":{"nStudents":24,"maxFlips":25,"completionMinutes":45,"basePay":8,"maxBonus":9,"perTrialBonus":0.5,"perTrialBonusThreshold":0.05,"exampleCost":0.02},"classroomParams":{"A":{"a":1,"b":4},"B":{"a":4,"b":1},"C":{"a":2,"b":8},"D":{"a":8,"b":2}},"conditions":["nonSeqFull","nonSeqPartial","seqNoFeedback","seqFeedback"],"classroomPairings":[["A","B"],["C","D"]],"coinWeights":[0.2,0.5,0.8],"subjectId":"ASVRLMDNQBUD9","assignmentId":"3SLE99ER0OZ90ZQB0PEZF8OFX8UBZI","hitId":"3XUY87HIVP03YZXVLN9CW37DVI1MM2","url":"https://gershmanlab.com/experiments/alicia/teaching/experiment/?hitId=3XUY87HIVP03YZXVLN9CW37DVI1MM2&workerId=ASVRLMDNQBUD9&assignmentId=3SLE99ER0OZ90ZQB0PEZF8OFX8UBZI&a=R9LS3&tp_a=R9LS3&b=3SLE99ER0OZ90ZQB0PEZF8OFX8UBZI&tp_b=3SLE99ER0OZ90ZQB0PEZF8OFX8UBZI&c=365633&tp_c=365633","totalBonus":1.04}]