[{"rt":143410,"response":{"heads":"0","tails":"14"},"type":"response","condition":"nonSeqFull","trueTheta":0.2,"classrooms":["C","D"],"studentTrueClassroom":"D","exampleSet":"first","trial_type":"survey-html-form","trial_index":7,"time_elapsed":552582,"internal_node_id":"0.0-6.0-0.0","params":{"nStudents":24,"maxFlips":25,"completionMinutes":45,"basePay":8,"maxBonus":9,"perTrialBonus":0.5,"perTrialBonusThreshold":0.05,"exampleCost":0.02},"classroomParams":{"A":{"a":1,"b":4},"B":{"a":4,"b":1},"C":{"a":2,"b":8},"D":{"a":8,"b":2}},"conditions":["nonSeqFull","nonSeqPartial","seqNoFeedback","seqFeedback"],"classroomPairings":[["A","B"],["C","D"]],"coinWeights":[0.2,0.5,0.8],"subjectId":"AX27MR7AMU52H","assignmentId":"3KKG4CDWKJKA99NPHCADU6GG8DO94U","hitId":"3IH9TRB0FBLK6RLF7MSMKICTGYN1IU","url":"https://gershmanlab.com/experiments/alicia/teaching/experiment/?hitId=3IH9TRB0FBLK6RLF7MSMKICTGYN1IU&workerId=AX27MR7AMU52H&assignmentId=3KKG4CDWKJKA99NPHCADU6GG8DO94U&a=W4KK3&tp_a=W4KK3&b=3KKG4CDWKJKA99NPHCADU6GG8DO94U&tp_b=3KKG4CDWKJKA99NPHCADU6GG8DO94U&c=365633&tp_c=365633","heads":0,"tails":14,"studentIndex":0,"studentTrueHypers":{"a":8,"b":2},"studentGuess":0.3333333333333333,"delta":0.1333333333333333,"totalExamples":14,"bonus":0,"bonusSoFar":0},{"rt":23206,"response":{"heads":"0","tails":"10"},"type":"response","condition":"nonSeqFull","trueTheta":0.2,"classrooms":["A","B"],"studentTrueClassroom":"B","exampleSet":"first","trial_type":"survey-html-form","trial_index":13,"time_elapsed":603071,"internal_node_id":"0.0-12.0-0.0","params":{"nStudents":24,"maxFlips":25,"completionMinutes":45,"basePay":8,"maxBonus":9,"perTrialBonus":0.5,"perTrialBonusThreshold":0.05,"exampleCost":0.02},"classroomParams":{"A":{"a":1,"b":4},"B":{"a":4,"b":1},"C":{"a":2,"b":8},"D":{"a":8,"b":2}},"conditions":["nonSeqFull","nonSeqPartial","seqNoFeedback","seqFeedback"],"classroomPairings":[["A","B"],["C","D"]],"coinWeights":[0.2,0.5,0.8],"subjectId":"AX27MR7AMU52H","assignmentId":"3KKG4CDWKJKA99NPHCADU6GG8DO94U","hitId":"3IH9TRB0FBLK6RLF7MSMKICTGYN1IU","url":"https://gershmanlab.com/experiments/alicia/teaching/experiment/?hitId=3IH9TRB0FBLK6RLF7MSMKICTGYN1IU&workerId=AX27MR7AMU52H&assignmentId=3KKG4CDWKJKA99NPHCADU6GG8DO94U&a=W4KK3&tp_a=W4KK3&b=3KKG4CDWKJKA99NPHCADU6GG8DO94U&tp_b=3KKG4CDWKJKA99NPHCADU6GG8DO94U&c=365633&tp_c=365633","heads":0,"tails":10,"studentIndex":1,"studentTrueHypers":{"a":4,"b":1},"studentGuess":0.26666666666666666,"delta":0.06666666666666665,"totalExamples":10,"bonus":0,"bonusSoFar":0},{"rt":22286,"response":{"heads":"1","tails":"1"},"type":"response","condition":"nonSeqPartial","trueTheta":0.5,"classrooms":["A","B"],"studentTrueClassroom":"A","exampleSet":"first","trial_type":"survey-html-form","trial_index":19,"time_elapsed":645302,"internal_node_id":"0.0-18.0-0.0","params":{"nStudents":24,"maxFlips":25,"completionMinutes":45,"basePay":8,"maxBonus":9,"perTrialBonus":0.5,"perTrialBonusThreshold":0.05,"exampleCost":0.02},"classroomParams":{"A":{"a":1,"b":4},"B":{"a":4,"b":1},"C":{"a":2,"b":8},"D":{"a":8,"b":2}},"conditions":["nonSeqFull","nonSeqPartial","seqNoFeedback","seqFeedback"],"classroomPairings":[["A","B"],["C","D"]],"coinWeights":[0.2,0.5,0.8],"subjectId":"AX27MR7AMU52H","assignmentId":"3KKG4CDWKJKA99NPHCADU6GG8DO94U","hitId":"3IH9TRB0FBLK6RLF7MSMKICTGYN1IU","url":"https://gershmanlab.com/experiments/alicia/teaching/experiment/?hitId=3IH9TRB0FBLK6RLF7MSMKICTGYN1IU&workerId=AX27MR7AMU52H&assignmentId=3KKG4CDWKJKA99NPHCADU6GG8DO94U&a=W4KK3&tp_a=W4KK3&b=3KKG4CDWKJKA99NPHCADU6GG8DO94U&tp_b=3KKG4CDWKJKA99NPHCADU6GG8DO94U&c=365633&tp_c=365633","heads":1,"tails":1,"studentIndex":2,"studentTrueHypers":{"a":1,"b":4},"studentGuess":0.2857142857142857,"delta":0.2142857142857143,"totalExamples":2,"bonus":0,"bonusSoFar":0},{"rt":16150,"response":{"heads":"10","tails":"0"},"type":"response","condition":"seqFeedback","trueTheta":0.8,"classrooms":["C","D"],"studentTrueClassroom":"D","exampleSet":"first","trial_type":"survey-html-form","trial_index":25,"time_elapsed":688467,"internal_node_id":"0.0-24.0-0.0","params":{"nStudents":24,"maxFlips":25,"completionMinutes":45,"basePay":8,"maxBonus":9,"perTrialBonus":0.5,"perTrialBonusThreshold":0.05,"exampleCost":0.02},"classroomParams":{"A":{"a":1,"b":4},"B":{"a":4,"b":1},"C":{"a":2,"b":8},"D":{"a":8,"b":2}},"conditions":["nonSeqFull","nonSeqPartial","seqNoFeedback","seqFeedback"],"classroomPairings":[["A","B"],["C","D"]],"coinWeights":[0.2,0.5,0.8],"subjectId":"AX27MR7AMU52H","assignmentId":"3KKG4CDWKJKA99NPHCADU6GG8DO94U","hitId":"3IH9TRB0FBLK6RLF7MSMKICTGYN1IU","url":"https://gershmanlab.com/experiments/alicia/teaching/experiment/?hitId=3IH9TRB0FBLK6RLF7MSMKICTGYN1IU&workerId=AX27MR7AMU52H&assignmentId=3KKG4CDWKJKA99NPHCADU6GG8DO94U&a=W4KK3&tp_a=W4KK3&b=3KKG4CDWKJKA99NPHCADU6GG8DO94U&tp_b=3KKG4CDWKJKA99NPHCADU6GG8DO94U&c=365633&tp_c=365633","heads":10,"tails":0,"studentIndex":3,"studentTrueHypers":{"a":8,"b":2},"studentGuess":0.9,"delta":0.09999999999999998,"totalExamples":10,"bonusSoFar":0},{"rt":13621,"response":{"heads":"12","tails":"0"},"type":"response","condition":"seqFeedback","trueTheta":0.8,"classrooms":["C","D"],"studentTrueClassroom":"D","exampleSet":"second","trial_type":"survey-html-form","trial_index":29,"time_elapsed":714746,"internal_node_id":"0.0-28.0-0.0","params":{"nStudents":24,"maxFlips":25,"completionMinutes":45,"basePay":8,"maxBonus":9,"perTrialBonus":0.5,"perTrialBonusThreshold":0.05,"exampleCost":0.02},"classroomParams":{"A":{"a":1,"b":4},"B":{"a":4,"b":1},"C":{"a":2,"b":8},"D":{"a":8,"b":2}},"conditions":["nonSeqFull","nonSeqPartial","seqNoFeedback","seqFeedback"],"classroomPairings":[["A","B"],["C","D"]],"coinWeights":[0.2,0.5,0.8],"subjectId":"AX27MR7AMU52H","assignmentId":"3KKG4CDWKJKA99NPHCADU6GG8DO94U","hitId":"3IH9TRB0FBLK6RLF7MSMKICTGYN1IU","url":"https://gershmanlab.com/experiments/alicia/teaching/experiment/?hitId=3IH9TRB0FBLK6RLF7MSMKICTGYN1IU&workerId=AX27MR7AMU52H&assignmentId=3KKG4CDWKJKA99NPHCADU6GG8DO94U&a=W4KK3&tp_a=W4KK3&b=3KKG4CDWKJKA99NPHCADU6GG8DO94U&tp_b=3KKG4CDWKJKA99NPHCADU6GG8DO94U&c=365633&tp_c=365633","firstResponseHeads":10,"firstResponseTails":0,"secondResponseHeads":12,"secondResponseTails":0,"totalHeads":22,"totalTails":0,"studentIndex":3,"studentTrueHypers":{"a":8,"b":2},"studentGuess":0.9375,"delta":0.13749999999999996,"bonus":0,"bonusSoFar":0,"totalExamples":22},{"rt":17958,"response":{"heads":"0","tails":"14"},"type":"response","condition":"seqNoFeedback","trueTheta":0.2,"classrooms":["C","D"],"studentTrueClassroom":"C","exampleSet":"first","trial_type":"survey-html-form","trial_index":35,"time_elapsed":753619,"internal_node_id":"0.0-34.0-0.0","params":{"nStudents":24,"maxFlips":25,"completionMinutes":45,"basePay":8,"maxBonus":9,"perTrialBonus":0.5,"perTrialBonusThreshold":0.05,"exampleCost":0.02},"classroomParams":{"A":{"a":1,"b":4},"B":{"a":4,"b":1},"C":{"a":2,"b":8},"D":{"a":8,"b":2}},"conditions":["nonSeqFull","nonSeqPartial","seqNoFeedback","seqFeedback"],"classroomPairings":[["A","B"],["C","D"]],"coinWeights":[0.2,0.5,0.8],"subjectId":"AX27MR7AMU52H","assignmentId":"3KKG4CDWKJKA99NPHCADU6GG8DO94U","hitId":"3IH9TRB0FBLK6RLF7MSMKICTGYN1IU","url":"https://gershmanlab.com/experiments/alicia/teaching/experiment/?hitId=3IH9TRB0FBLK6RLF7MSMKICTGYN1IU&workerId=AX27MR7AMU52H&assignmentId=3KKG4CDWKJKA99NPHCADU6GG8DO94U&a=W4KK3&tp_a=W4KK3&b=3KKG4CDWKJKA99NPHCADU6GG8DO94U&tp_b=3KKG4CDWKJKA99NPHCADU6GG8DO94U&c=365633&tp_c=365633","heads":0,"tails":14,"studentIndex":4,"studentTrueHypers":{"a":2,"b":8},"studentGuess":0.08333333333333333,"delta":0.11666666666666668,"totalExamples":14,"bonusSoFar":0},{"rt":10041,"response":{"heads":"0","tails":"14"},"type":"response","condition":"seqNoFeedback","trueTheta":0.2,"classrooms":["C","D"],"studentTrueClassroom":"C","exampleSet":"second","trial_type":"survey-html-form","trial_index":38,"time_elapsed":770922,"internal_node_id":"0.0-37.0-0.0","params":{"nStudents":24,"maxFlips":25,"completionMinutes":45,"basePay":8,"maxBonus":9,"perTrialBonus":0.5,"perTrialBonusThreshold":0.05,"exampleCost":0.02},"classroomParams":{"A":{"a":1,"b":4},"B":{"a":4,"b":1},"C":{"a":2,"b":8},"D":{"a":8,"b":2}},"conditions":["nonSeqFull","nonSeqPartial","seqNoFeedback","seqFeedback"],"classroomPairings":[["A","B"],["C","D"]],"coinWeights":[0.2,0.5,0.8],"subjectId":"AX27MR7AMU52H","assignmentId":"3KKG4CDWKJKA99NPHCADU6GG8DO94U","hitId":"3IH9TRB0FBLK6RLF7MSMKICTGYN1IU","url":"https://gershmanlab.com/experiments/alicia/teaching/experiment/?hitId=3IH9TRB0FBLK6RLF7MSMKICTGYN1IU&workerId=AX27MR7AMU52H&assignmentId=3KKG4CDWKJKA99NPHCADU6GG8DO94U&a=W4KK3&tp_a=W4KK3&b=3KKG4CDWKJKA99NPHCADU6GG8DO94U&tp_b=3KKG4CDWKJKA99NPHCADU6GG8DO94U&c=365633&tp_c=365633","firstResponseHeads":0,"firstResponseTails":14,"secondResponseHeads":0,"secondResponseTails":14,"totalHeads":0,"totalTails":28,"studentIndex":4,"studentTrueHypers":{"a":2,"b":8},"studentGuess":0.05263157894736842,"delta":0.1473684210526316,"bonus":0,"bonusSoFar":0,"totalExamples":28},{"rt":11742,"response":{"heads":"10","tails":"2"},"type":"response","condition":"nonSeqPartial","trueTheta":0.8,"classrooms":["A","B"],"studentTrueClassroom":"A","exampleSet":"first","trial_type":"survey-html-form","trial_index":44,"time_elapsed":804175,"internal_node_id":"0.0-43.0-0.0","params":{"nStudents":24,"maxFlips":25,"completionMinutes":45,"basePay":8,"maxBonus":9,"perTrialBonus":0.5,"perTrialBonusThreshold":0.05,"exampleCost":0.02},"classroomParams":{"A":{"a":1,"b":4},"B":{"a":4,"b":1},"C":{"a":2,"b":8},"D":{"a":8,"b":2}},"conditions":["nonSeqFull","nonSeqPartial","seqNoFeedback","seqFeedback"],"classroomPairings":[["A","B"],["C","D"]],"coinWeights":[0.2,0.5,0.8],"subjectId":"AX27MR7AMU52H","assignmentId":"3KKG4CDWKJKA99NPHCADU6GG8DO94U","hitId":"3IH9TRB0FBLK6RLF7MSMKICTGYN1IU","url":"https://gershmanlab.com/experiments/alicia/teaching/experiment/?hitId=3IH9TRB0FBLK6RLF7MSMKICTGYN1IU&workerId=AX27MR7AMU52H&assignmentId=3KKG4CDWKJKA99NPHCADU6GG8DO94U&a=W4KK3&tp_a=W4KK3&b=3KKG4CDWKJKA99NPHCADU6GG8DO94U&tp_b=3KKG4CDWKJKA99NPHCADU6GG8DO94U&c=365633&tp_c=365633","heads":10,"tails":2,"studentIndex":5,"studentTrueHypers":{"a":1,"b":4},"studentGuess":0.6470588235294118,"delta":0.15294117647058825,"totalExamples":12,"bonus":0,"bonusSoFar":0},{"rt":15239,"response":{"heads":"2","tails":"16"},"type":"response","condition":"seqNoFeedback","trueTheta":0.2,"classrooms":["A","B"],"studentTrueClassroom":"B","exampleSet":"first","trial_type":"survey-html-form","trial_index":50,"time_elapsed":832814,"internal_node_id":"0.0-49.0-0.0","params":{"nStudents":24,"maxFlips":25,"completionMinutes":45,"basePay":8,"maxBonus":9,"perTrialBonus":0.5,"perTrialBonusThreshold":0.05,"exampleCost":0.02},"classroomParams":{"A":{"a":1,"b":4},"B":{"a":4,"b":1},"C":{"a":2,"b":8},"D":{"a":8,"b":2}},"conditions":["nonSeqFull","nonSeqPartial","seqNoFeedback","seqFeedback"],"classroomPairings":[["A","B"],["C","D"]],"coinWeights":[0.2,0.5,0.8],"subjectId":"AX27MR7AMU52H","assignmentId":"3KKG4CDWKJKA99NPHCADU6GG8DO94U","hitId":"3IH9TRB0FBLK6RLF7MSMKICTGYN1IU","url":"https://gershmanlab.com/experiments/alicia/teaching/experiment/?hitId=3IH9TRB0FBLK6RLF7MSMKICTGYN1IU&workerId=AX27MR7AMU52H&assignmentId=3KKG4CDWKJKA99NPHCADU6GG8DO94U&a=W4KK3&tp_a=W4KK3&b=3KKG4CDWKJKA99NPHCADU6GG8DO94U&tp_b=3KKG4CDWKJKA99NPHCADU6GG8DO94U&c=365633&tp_c=365633","heads":2,"tails":16,"studentIndex":6,"studentTrueHypers":{"a":4,"b":1},"studentGuess":0.2608695652173913,"delta":0.060869565217391286,"totalExamples":18,"bonusSoFar":0},{"rt":17156,"response":{"heads":"2","tails":"16"},"type":"response","condition":"seqNoFeedback","trueTheta":0.2,"classrooms":["A","B"],"studentTrueClassroom":"B","exampleSet":"second","trial_type":"survey-html-form","trial_index":53,"time_elapsed":856986,"internal_node_id":"0.0-52.0-0.0","params":{"nStudents":24,"maxFlips":25,"completionMinutes":45,"basePay":8,"maxBonus":9,"perTrialBonus":0.5,"perTrialBonusThreshold":0.05,"exampleCost":0.02},"classroomParams":{"A":{"a":1,"b":4},"B":{"a":4,"b":1},"C":{"a":2,"b":8},"D":{"a":8,"b":2}},"conditions":["nonSeqFull","nonSeqPartial","seqNoFeedback","seqFeedback"],"classroomPairings":[["A","B"],["C","D"]],"coinWeights":[0.2,0.5,0.8],"subjectId":"AX27MR7AMU52H","assignmentId":"3KKG4CDWKJKA99NPHCADU6GG8DO94U","hitId":"3IH9TRB0FBLK6RLF7MSMKICTGYN1IU","url":"https://gershmanlab.com/experiments/alicia/teaching/experiment/?hitId=3IH9TRB0FBLK6RLF7MSMKICTGYN1IU&workerId=AX27MR7AMU52H&assignmentId=3KKG4CDWKJKA99NPHCADU6GG8DO94U&a=W4KK3&tp_a=W4KK3&b=3KKG4CDWKJKA99NPHCADU6GG8DO94U&tp_b=3KKG4CDWKJKA99NPHCADU6GG8DO94U&c=365633&tp_c=365633","firstResponseHeads":2,"firstResponseTails":16,"secondResponseHeads":2,"secondResponseTails":16,"totalHeads":4,"totalTails":32,"studentIndex":6,"studentTrueHypers":{"a":4,"b":1},"studentGuess":0.1951219512195122,"delta":0.004878048780487809,"bonus":0,"bonusSoFar":0,"totalExamples":36},{"rt":9206,"response":{"heads":"5","tails":"5"},"type":"response","condition":"seqNoFeedback","trueTheta":0.5,"classrooms":["C","D"],"studentTrueClassroom":"C","exampleSet":"first","trial_type":"survey-html-form","trial_index":59,"time_elapsed":883425,"internal_node_id":"0.0-58.0-0.0","params":{"nStudents":24,"maxFlips":25,"completionMinutes":45,"basePay":8,"maxBonus":9,"perTrialBonus":0.5,"perTrialBonusThreshold":0.05,"exampleCost":0.02},"classroomParams":{"A":{"a":1,"b":4},"B":{"a":4,"b":1},"C":{"a":2,"b":8},"D":{"a":8,"b":2}},"conditions":["nonSeqFull","nonSeqPartial","seqNoFeedback","seqFeedback"],"classroomPairings":[["A","B"],["C","D"]],"coinWeights":[0.2,0.5,0.8],"subjectId":"AX27MR7AMU52H","assignmentId":"3KKG4CDWKJKA99NPHCADU6GG8DO94U","hitId":"3IH9TRB0FBLK6RLF7MSMKICTGYN1IU","url":"https://gershmanlab.com/experiments/alicia/teaching/experiment/?hitId=3IH9TRB0FBLK6RLF7MSMKICTGYN1IU&workerId=AX27MR7AMU52H&assignmentId=3KKG4CDWKJKA99NPHCADU6GG8DO94U&a=W4KK3&tp_a=W4KK3&b=3KKG4CDWKJKA99NPHCADU6GG8DO94U&tp_b=3KKG4CDWKJKA99NPHCADU6GG8DO94U&c=365633&tp_c=365633","heads":5,"tails":5,"studentIndex":7,"studentTrueHypers":{"a":2,"b":8},"studentGuess":0.35,"delta":0.15000000000000002,"totalExamples":10,"bonusSoFar":0},{"rt":11137,"response":{"heads":"5","tails":"5"},"type":"response","condition":"seqNoFeedback","trueTheta":0.5,"classrooms":["C","D"],"studentTrueClassroom":"C","exampleSet":"second","trial_type":"survey-html-form","trial_index":62,"time_elapsed":900082,"internal_node_id":"0.0-61.0-0.0","params":{"nStudents":24,"maxFlips":25,"completionMinutes":45,"basePay":8,"maxBonus":9,"perTrialBonus":0.5,"perTrialBonusThreshold":0.05,"exampleCost":0.02},"classroomParams":{"A":{"a":1,"b":4},"B":{"a":4,"b":1},"C":{"a":2,"b":8},"D":{"a":8,"b":2}},"conditions":["nonSeqFull","nonSeqPartial","seqNoFeedback","seqFeedback"],"classroomPairings":[["A","B"],["C","D"]],"coinWeights":[0.2,0.5,0.8],"subjectId":"AX27MR7AMU52H","assignmentId":"3KKG4CDWKJKA99NPHCADU6GG8DO94U","hitId":"3IH9TRB0FBLK6RLF7MSMKICTGYN1IU","url":"https://gershmanlab.com/experiments/alicia/teaching/experiment/?hitId=3IH9TRB0FBLK6RLF7MSMKICTGYN1IU&workerId=AX27MR7AMU52H&assignmentId=3KKG4CDWKJKA99NPHCADU6GG8DO94U&a=W4KK3&tp_a=W4KK3&b=3KKG4CDWKJKA99NPHCADU6GG8DO94U&tp_b=3KKG4CDWKJKA99NPHCADU6GG8DO94U&c=365633&tp_c=365633","firstResponseHeads":5,"firstResponseTails":5,"secondResponseHeads":5,"secondResponseTails":5,"totalHeads":10,"totalTails":10,"studentIndex":7,"studentTrueHypers":{"a":2,"b":8},"studentGuess":0.4,"delta":0.09999999999999998,"bonus":0,"bonusSoFar":0,"totalExamples":20},{"rt":8982,"response":{"heads":"10","tails":"10"},"type":"response","condition":"seqFeedback","trueTheta":0.5,"classrooms":["C","D"],"studentTrueClassroom":"C","exampleSet":"first","trial_type":"survey-html-form","trial_index":68,"time_elapsed":927457,"internal_node_id":"0.0-67.0-0.0","params":{"nStudents":24,"maxFlips":25,"completionMinutes":45,"basePay":8,"maxBonus":9,"perTrialBonus":0.5,"perTrialBonusThreshold":0.05,"exampleCost":0.02},"classroomParams":{"A":{"a":1,"b":4},"B":{"a":4,"b":1},"C":{"a":2,"b":8},"D":{"a":8,"b":2}},"conditions":["nonSeqFull","nonSeqPartial","seqNoFeedback","seqFeedback"],"classroomPairings":[["A","B"],["C","D"]],"coinWeights":[0.2,0.5,0.8],"subjectId":"AX27MR7AMU52H","assignmentId":"3KKG4CDWKJKA99NPHCADU6GG8DO94U","hitId":"3IH9TRB0FBLK6RLF7MSMKICTGYN1IU","url":"https://gershmanlab.com/experiments/alicia/teaching/experiment/?hitId=3IH9TRB0FBLK6RLF7MSMKICTGYN1IU&workerId=AX27MR7AMU52H&assignmentId=3KKG4CDWKJKA99NPHCADU6GG8DO94U&a=W4KK3&tp_a=W4KK3&b=3KKG4CDWKJKA99NPHCADU6GG8DO94U&tp_b=3KKG4CDWKJKA99NPHCADU6GG8DO94U&c=365633&tp_c=365633","heads":10,"tails":10,"studentIndex":8,"studentTrueHypers":{"a":2,"b":8},"studentGuess":0.4,"delta":0.09999999999999998,"totalExamples":20,"bonusSoFar":0},{"rt":15061,"response":{"heads":"12","tails":"12"},"type":"response","condition":"seqFeedback","trueTheta":0.5,"classrooms":["C","D"],"studentTrueClassroom":"C","exampleSet":"second","trial_type":"survey-html-form","trial_index":72,"time_elapsed":951289,"internal_node_id":"0.0-71.0-0.0","params":{"nStudents":24,"maxFlips":25,"completionMinutes":45,"basePay":8,"maxBonus":9,"perTrialBonus":0.5,"perTrialBonusThreshold":0.05,"exampleCost":0.02},"classroomParams":{"A":{"a":1,"b":4},"B":{"a":4,"b":1},"C":{"a":2,"b":8},"D":{"a":8,"b":2}},"conditions":["nonSeqFull","nonSeqPartial","seqNoFeedback","seqFeedback"],"classroomPairings":[["A","B"],["C","D"]],"coinWeights":[0.2,0.5,0.8],"subjectId":"AX27MR7AMU52H","assignmentId":"3KKG4CDWKJKA99NPHCADU6GG8DO94U","hitId":"3IH9TRB0FBLK6RLF7MSMKICTGYN1IU","url":"https://gershmanlab.com/experiments/alicia/teaching/experiment/?hitId=3IH9TRB0FBLK6RLF7MSMKICTGYN1IU&workerId=AX27MR7AMU52H&assignmentId=3KKG4CDWKJKA99NPHCADU6GG8DO94U&a=W4KK3&tp_a=W4KK3&b=3KKG4CDWKJKA99NPHCADU6GG8DO94U&tp_b=3KKG4CDWKJKA99NPHCADU6GG8DO94U&c=365633&tp_c=365633","firstResponseHeads":10,"firstResponseTails":10,"secondResponseHeads":12,"secondResponseTails":12,"totalHeads":22,"totalTails":22,"studentIndex":8,"studentTrueHypers":{"a":2,"b":8},"studentGuess":0.4444444444444444,"delta":0.05555555555555558,"bonus":0,"bonusSoFar":0,"totalExamples":44},{"rt":36582,"response":{"heads":"16","tails":"2"},"type":"response","condition":"seqNoFeedback","trueTheta":0.8,"classrooms":["C","D"],"studentTrueClassroom":"C","exampleSet":"first","trial_type":"survey-html-form","trial_index":78,"time_elapsed":1009992,"internal_node_id":"0.0-77.0-0.0","params":{"nStudents":24,"maxFlips":25,"completionMinutes":45,"basePay":8,"maxBonus":9,"perTrialBonus":0.5,"perTrialBonusThreshold":0.05,"exampleCost":0.02},"classroomParams":{"A":{"a":1,"b":4},"B":{"a":4,"b":1},"C":{"a":2,"b":8},"D":{"a":8,"b":2}},"conditions":["nonSeqFull","nonSeqPartial","seqNoFeedback","seqFeedback"],"classroomPairings":[["A","B"],["C","D"]],"coinWeights":[0.2,0.5,0.8],"subjectId":"AX27MR7AMU52H","assignmentId":"3KKG4CDWKJKA99NPHCADU6GG8DO94U","hitId":"3IH9TRB0FBLK6RLF7MSMKICTGYN1IU","url":"https://gershmanlab.com/experiments/alicia/teaching/experiment/?hitId=3IH9TRB0FBLK6RLF7MSMKICTGYN1IU&workerId=AX27MR7AMU52H&assignmentId=3KKG4CDWKJKA99NPHCADU6GG8DO94U&a=W4KK3&tp_a=W4KK3&b=3KKG4CDWKJKA99NPHCADU6GG8DO94U&tp_b=3KKG4CDWKJKA99NPHCADU6GG8DO94U&c=365633&tp_c=365633","heads":16,"tails":2,"studentIndex":9,"studentTrueHypers":{"a":2,"b":8},"studentGuess":0.6428571428571429,"delta":0.15714285714285714,"totalExamples":18,"bonusSoFar":0},{"rt":7899,"response":{"heads":"16","tails":"2"},"type":"response","condition":"seqNoFeedback","trueTheta":0.8,"classrooms":["C","D"],"studentTrueClassroom":"C","exampleSet":"second","trial_type":"survey-html-form","trial_index":81,"time_elapsed":1024159,"internal_node_id":"0.0-80.0-0.0","params":{"nStudents":24,"maxFlips":25,"completionMinutes":45,"basePay":8,"maxBonus":9,"perTrialBonus":0.5,"perTrialBonusThreshold":0.05,"exampleCost":0.02},"classroomParams":{"A":{"a":1,"b":4},"B":{"a":4,"b":1},"C":{"a":2,"b":8},"D":{"a":8,"b":2}},"conditions":["nonSeqFull","nonSeqPartial","seqNoFeedback","seqFeedback"],"classroomPairings":[["A","B"],["C","D"]],"coinWeights":[0.2,0.5,0.8],"subjectId":"AX27MR7AMU52H","assignmentId":"3KKG4CDWKJKA99NPHCADU6GG8DO94U","hitId":"3IH9TRB0FBLK6RLF7MSMKICTGYN1IU","url":"https://gershmanlab.com/experiments/alicia/teaching/experiment/?hitId=3IH9TRB0FBLK6RLF7MSMKICTGYN1IU&workerId=AX27MR7AMU52H&assignmentId=3KKG4CDWKJKA99NPHCADU6GG8DO94U&a=W4KK3&tp_a=W4KK3&b=3KKG4CDWKJKA99NPHCADU6GG8DO94U&tp_b=3KKG4CDWKJKA99NPHCADU6GG8DO94U&c=365633&tp_c=365633","firstResponseHeads":16,"firstResponseTails":2,"secondResponseHeads":16,"secondResponseTails":2,"totalHeads":32,"totalTails":4,"studentIndex":9,"studentTrueHypers":{"a":2,"b":8},"studentGuess":0.7391304347826086,"delta":0.0608695652173914,"bonus":0,"bonusSoFar":0,"totalExamples":36},{"rt":11751,"response":{"heads":"2","tails":"18"},"type":"response","condition":"nonSeqPartial","trueTheta":0.2,"classrooms":["C","D"],"studentTrueClassroom":"C","exampleSet":"first","trial_type":"survey-html-form","trial_index":87,"time_elapsed":1057249,"internal_node_id":"0.0-86.0-0.0","params":{"nStudents":24,"maxFlips":25,"completionMinutes":45,"basePay":8,"maxBonus":9,"perTrialBonus":0.5,"perTrialBonusThreshold":0.05,"exampleCost":0.02},"classroomParams":{"A":{"a":1,"b":4},"B":{"a":4,"b":1},"C":{"a":2,"b":8},"D":{"a":8,"b":2}},"conditions":["nonSeqFull","nonSeqPartial","seqNoFeedback","seqFeedback"],"classroomPairings":[["A","B"],["C","D"]],"coinWeights":[0.2,0.5,0.8],"subjectId":"AX27MR7AMU52H","assignmentId":"3KKG4CDWKJKA99NPHCADU6GG8DO94U","hitId":"3IH9TRB0FBLK6RLF7MSMKICTGYN1IU","url":"https://gershmanlab.com/experiments/alicia/teaching/experiment/?hitId=3IH9TRB0FBLK6RLF7MSMKICTGYN1IU&workerId=AX27MR7AMU52H&assignmentId=3KKG4CDWKJKA99NPHCADU6GG8DO94U&a=W4KK3&tp_a=W4KK3&b=3KKG4CDWKJKA99NPHCADU6GG8DO94U&tp_b=3KKG4CDWKJKA99NPHCADU6GG8DO94U&c=365633&tp_c=365633","heads":2,"tails":18,"studentIndex":10,"studentTrueHypers":{"a":2,"b":8},"studentGuess":0.13333333333333333,"delta":0.06666666666666668,"totalExamples":20,"bonus":0,"bonusSoFar":0},{"rt":10766,"response":{"heads":"2","tails":"20"},"type":"response","condition":"seqFeedback","trueTheta":0.2,"classrooms":["A","B"],"studentTrueClassroom":"A","exampleSet":"first","trial_type":"survey-html-form","trial_index":93,"time_elapsed":1085023,"internal_node_id":"0.0-92.0-0.0","params":{"nStudents":24,"maxFlips":25,"completionMinutes":45,"basePay":8,"maxBonus":9,"perTrialBonus":0.5,"perTrialBonusThreshold":0.05,"exampleCost":0.02},"classroomParams":{"A":{"a":1,"b":4},"B":{"a":4,"b":1},"C":{"a":2,"b":8},"D":{"a":8,"b":2}},"conditions":["nonSeqFull","nonSeqPartial","seqNoFeedback","seqFeedback"],"classroomPairings":[["A","B"],["C","D"]],"coinWeights":[0.2,0.5,0.8],"subjectId":"AX27MR7AMU52H","assignmentId":"3KKG4CDWKJKA99NPHCADU6GG8DO94U","hitId":"3IH9TRB0FBLK6RLF7MSMKICTGYN1IU","url":"https://gershmanlab.com/experiments/alicia/teaching/experiment/?hitId=3IH9TRB0FBLK6RLF7MSMKICTGYN1IU&workerId=AX27MR7AMU52H&assignmentId=3KKG4CDWKJKA99NPHCADU6GG8DO94U&a=W4KK3&tp_a=W4KK3&b=3KKG4CDWKJKA99NPHCADU6GG8DO94U&tp_b=3KKG4CDWKJKA99NPHCADU6GG8DO94U&c=365633&tp_c=365633","heads":2,"tails":20,"studentIndex":11,"studentTrueHypers":{"a":1,"b":4},"studentGuess":0.1111111111111111,"delta":0.0888888888888889,"totalExamples":22,"bonusSoFar":0},{"rt":18149,"response":{"heads":"15","tails":"3"},"type":"response","condition":"seqFeedback","trueTheta":0.2,"classrooms":["A","B"],"studentTrueClassroom":"A","exampleSet":"second","trial_type":"survey-html-form","trial_index":97,"time_elapsed":1115545,"internal_node_id":"0.0-96.0-0.0","params":{"nStudents":24,"maxFlips":25,"completionMinutes":45,"basePay":8,"maxBonus":9,"perTrialBonus":0.5,"perTrialBonusThreshold":0.05,"exampleCost":0.02},"classroomParams":{"A":{"a":1,"b":4},"B":{"a":4,"b":1},"C":{"a":2,"b":8},"D":{"a":8,"b":2}},"conditions":["nonSeqFull","nonSeqPartial","seqNoFeedback","seqFeedback"],"classroomPairings":[["A","B"],["C","D"]],"coinWeights":[0.2,0.5,0.8],"subjectId":"AX27MR7AMU52H","assignmentId":"3KKG4CDWKJKA99NPHCADU6GG8DO94U","hitId":"3IH9TRB0FBLK6RLF7MSMKICTGYN1IU","url":"https://gershmanlab.com/experiments/alicia/teaching/experiment/?hitId=3IH9TRB0FBLK6RLF7MSMKICTGYN1IU&workerId=AX27MR7AMU52H&assignmentId=3KKG4CDWKJKA99NPHCADU6GG8DO94U&a=W4KK3&tp_a=W4KK3&b=3KKG4CDWKJKA99NPHCADU6GG8DO94U&tp_b=3KKG4CDWKJKA99NPHCADU6GG8DO94U&c=365633&tp_c=365633","firstResponseHeads":2,"firstResponseTails":20,"secondResponseHeads":15,"secondResponseTails":3,"totalHeads":17,"totalTails":23,"studentIndex":11,"studentTrueHypers":{"a":1,"b":4},"studentGuess":0.4,"delta":0.2,"bonus":0,"bonusSoFar":0,"totalExamples":40},{"rt":10358,"response":{"heads":"10","tails":"10"},"type":"response","condition":"seqNoFeedback","trueTheta":0.5,"classrooms":["A","B"],"studentTrueClassroom":"B","exampleSet":"first","trial_type":"survey-html-form","trial_index":103,"time_elapsed":1144559,"internal_node_id":"0.0-102.0-0.0","params":{"nStudents":24,"maxFlips":25,"completionMinutes":45,"basePay":8,"maxBonus":9,"perTrialBonus":0.5,"perTrialBonusThreshold":0.05,"exampleCost":0.02},"classroomParams":{"A":{"a":1,"b":4},"B":{"a":4,"b":1},"C":{"a":2,"b":8},"D":{"a":8,"b":2}},"conditions":["nonSeqFull","nonSeqPartial","seqNoFeedback","seqFeedback"],"classroomPairings":[["A","B"],["C","D"]],"coinWeights":[0.2,0.5,0.8],"subjectId":"AX27MR7AMU52H","assignmentId":"3KKG4CDWKJKA99NPHCADU6GG8DO94U","hitId":"3IH9TRB0FBLK6RLF7MSMKICTGYN1IU","url":"https://gershmanlab.com/experiments/alicia/teaching/experiment/?hitId=3IH9TRB0FBLK6RLF7MSMKICTGYN1IU&workerId=AX27MR7AMU52H&assignmentId=3KKG4CDWKJKA99NPHCADU6GG8DO94U&a=W4KK3&tp_a=W4KK3&b=3KKG4CDWKJKA99NPHCADU6GG8DO94U&tp_b=3KKG4CDWKJKA99NPHCADU6GG8DO94U&c=365633&tp_c=365633","heads":10,"tails":10,"studentIndex":12,"studentTrueHypers":{"a":4,"b":1},"studentGuess":0.56,"delta":0.06000000000000005,"totalExamples":20,"bonusSoFar":0},{"rt":10158,"response":{"heads":"10","tails":"10"},"type":"response","condition":"seqNoFeedback","trueTheta":0.5,"classrooms":["A","B"],"studentTrueClassroom":"B","exampleSet":"second","trial_type":"survey-html-form","trial_index":106,"time_elapsed":1161721,"internal_node_id":"0.0-105.0-0.0","params":{"nStudents":24,"maxFlips":25,"completionMinutes":45,"basePay":8,"maxBonus":9,"perTrialBonus":0.5,"perTrialBonusThreshold":0.05,"exampleCost":0.02},"classroomParams":{"A":{"a":1,"b":4},"B":{"a":4,"b":1},"C":{"a":2,"b":8},"D":{"a":8,"b":2}},"conditions":["nonSeqFull","nonSeqPartial","seqNoFeedback","seqFeedback"],"classroomPairings":[["A","B"],["C","D"]],"coinWeights":[0.2,0.5,0.8],"subjectId":"AX27MR7AMU52H","assignmentId":"3KKG4CDWKJKA99NPHCADU6GG8DO94U","hitId":"3IH9TRB0FBLK6RLF7MSMKICTGYN1IU","url":"https://gershmanlab.com/experiments/alicia/teaching/experiment/?hitId=3IH9TRB0FBLK6RLF7MSMKICTGYN1IU&workerId=AX27MR7AMU52H&assignmentId=3KKG4CDWKJKA99NPHCADU6GG8DO94U&a=W4KK3&tp_a=W4KK3&b=3KKG4CDWKJKA99NPHCADU6GG8DO94U&tp_b=3KKG4CDWKJKA99NPHCADU6GG8DO94U&c=365633&tp_c=365633","firstResponseHeads":10,"firstResponseTails":10,"secondResponseHeads":10,"secondResponseTails":10,"totalHeads":20,"totalTails":20,"studentIndex":12,"studentTrueHypers":{"a":4,"b":1},"studentGuess":0.5333333333333333,"delta":0.033333333333333326,"bonus":0,"bonusSoFar":0,"totalExamples":40},{"rt":36532,"response":{"heads":"9","tails":"6"},"type":"response","condition":"nonSeqFull","trueTheta":0.5,"classrooms":["A","B"],"studentTrueClassroom":"A","exampleSet":"first","trial_type":"survey-html-form","trial_index":112,"time_elapsed":1574596,"internal_node_id":"0.0-111.0-0.0","params":{"nStudents":24,"maxFlips":25,"completionMinutes":45,"basePay":8,"maxBonus":9,"perTrialBonus":0.5,"perTrialBonusThreshold":0.05,"exampleCost":0.02},"classroomParams":{"A":{"a":1,"b":4},"B":{"a":4,"b":1},"C":{"a":2,"b":8},"D":{"a":8,"b":2}},"conditions":["nonSeqFull","nonSeqPartial","seqNoFeedback","seqFeedback"],"classroomPairings":[["A","B"],["C","D"]],"coinWeights":[0.2,0.5,0.8],"subjectId":"AX27MR7AMU52H","assignmentId":"3KKG4CDWKJKA99NPHCADU6GG8DO94U","hitId":"3IH9TRB0FBLK6RLF7MSMKICTGYN1IU","url":"https://gershmanlab.com/experiments/alicia/teaching/experiment/?hitId=3IH9TRB0FBLK6RLF7MSMKICTGYN1IU&workerId=AX27MR7AMU52H&assignmentId=3KKG4CDWKJKA99NPHCADU6GG8DO94U&a=W4KK3&tp_a=W4KK3&b=3KKG4CDWKJKA99NPHCADU6GG8DO94U&tp_b=3KKG4CDWKJKA99NPHCADU6GG8DO94U&c=365633&tp_c=365633","heads":9,"tails":6,"studentIndex":13,"studentTrueHypers":{"a":1,"b":4},"studentGuess":0.5,"delta":0,"totalExamples":15,"bonus":0.2,"bonusSoFar":0.2},{"rt":18391,"response":{"heads":"2","tails":"8"},"type":"response","condition":"nonSeqPartial","trueTheta":0.2,"classrooms":["A","B"],"studentTrueClassroom":"A","exampleSet":"first","trial_type":"survey-html-form","trial_index":118,"time_elapsed":1611104,"internal_node_id":"0.0-117.0-0.0","params":{"nStudents":24,"maxFlips":25,"completionMinutes":45,"basePay":8,"maxBonus":9,"perTrialBonus":0.5,"perTrialBonusThreshold":0.05,"exampleCost":0.02},"classroomParams":{"A":{"a":1,"b":4},"B":{"a":4,"b":1},"C":{"a":2,"b":8},"D":{"a":8,"b":2}},"conditions":["nonSeqFull","nonSeqPartial","seqNoFeedback","seqFeedback"],"classroomPairings":[["A","B"],["C","D"]],"coinWeights":[0.2,0.5,0.8],"subjectId":"AX27MR7AMU52H","assignmentId":"3KKG4CDWKJKA99NPHCADU6GG8DO94U","hitId":"3IH9TRB0FBLK6RLF7MSMKICTGYN1IU","url":"https://gershmanlab.com/experiments/alicia/teaching/experiment/?hitId=3IH9TRB0FBLK6RLF7MSMKICTGYN1IU&workerId=AX27MR7AMU52H&assignmentId=3KKG4CDWKJKA99NPHCADU6GG8DO94U&a=W4KK3&tp_a=W4KK3&b=3KKG4CDWKJKA99NPHCADU6GG8DO94U&tp_b=3KKG4CDWKJKA99NPHCADU6GG8DO94U&c=365633&tp_c=365633","heads":2,"tails":8,"studentIndex":14,"studentTrueHypers":{"a":1,"b":4},"studentGuess":0.2,"delta":0,"totalExamples":10,"bonus":0.3,"bonusSoFar":0.5},{"rt":7062,"response":{"heads":"2","tails":"8"},"type":"response","condition":"seqFeedback","trueTheta":0.2,"classrooms":["C","D"],"studentTrueClassroom":"C","exampleSet":"first","trial_type":"survey-html-form","trial_index":124,"time_elapsed":1636671,"internal_node_id":"0.0-123.0-0.0","params":{"nStudents":24,"maxFlips":25,"completionMinutes":45,"basePay":8,"maxBonus":9,"perTrialBonus":0.5,"perTrialBonusThreshold":0.05,"exampleCost":0.02},"classroomParams":{"A":{"a":1,"b":4},"B":{"a":4,"b":1},"C":{"a":2,"b":8},"D":{"a":8,"b":2}},"conditions":["nonSeqFull","nonSeqPartial","seqNoFeedback","seqFeedback"],"classroomPairings":[["A","B"],["C","D"]],"coinWeights":[0.2,0.5,0.8],"subjectId":"AX27MR7AMU52H","assignmentId":"3KKG4CDWKJKA99NPHCADU6GG8DO94U","hitId":"3IH9TRB0FBLK6RLF7MSMKICTGYN1IU","url":"https://gershmanlab.com/experiments/alicia/teaching/experiment/?hitId=3IH9TRB0FBLK6RLF7MSMKICTGYN1IU&workerId=AX27MR7AMU52H&assignmentId=3KKG4CDWKJKA99NPHCADU6GG8DO94U&a=W4KK3&tp_a=W4KK3&b=3KKG4CDWKJKA99NPHCADU6GG8DO94U&tp_b=3KKG4CDWKJKA99NPHCADU6GG8DO94U&c=365633&tp_c=365633","heads":2,"tails":8,"studentIndex":15,"studentTrueHypers":{"a":2,"b":8},"studentGuess":0.2,"delta":0,"totalExamples":10,"bonusSoFar":0.5},{"rt":7822,"response":{"heads":"2","tails":"8"},"type":"response","condition":"seqFeedback","trueTheta":0.2,"classrooms":["C","D"],"studentTrueClassroom":"C","exampleSet":"second","trial_type":"survey-html-form","trial_index":128,"time_elapsed":1658181,"internal_node_id":"0.0-127.0-0.0","params":{"nStudents":24,"maxFlips":25,"completionMinutes":45,"basePay":8,"maxBonus":9,"perTrialBonus":0.5,"perTrialBonusThreshold":0.05,"exampleCost":0.02},"classroomParams":{"A":{"a":1,"b":4},"B":{"a":4,"b":1},"C":{"a":2,"b":8},"D":{"a":8,"b":2}},"conditions":["nonSeqFull","nonSeqPartial","seqNoFeedback","seqFeedback"],"classroomPairings":[["A","B"],["C","D"]],"coinWeights":[0.2,0.5,0.8],"subjectId":"AX27MR7AMU52H","assignmentId":"3KKG4CDWKJKA99NPHCADU6GG8DO94U","hitId":"3IH9TRB0FBLK6RLF7MSMKICTGYN1IU","url":"https://gershmanlab.com/experiments/alicia/teaching/experiment/?hitId=3IH9TRB0FBLK6RLF7MSMKICTGYN1IU&workerId=AX27MR7AMU52H&assignmentId=3KKG4CDWKJKA99NPHCADU6GG8DO94U&a=W4KK3&tp_a=W4KK3&b=3KKG4CDWKJKA99NPHCADU6GG8DO94U&tp_b=3KKG4CDWKJKA99NPHCADU6GG8DO94U&c=365633&tp_c=365633","firstResponseHeads":2,"firstResponseTails":8,"secondResponseHeads":2,"secondResponseTails":8,"totalHeads":4,"totalTails":16,"studentIndex":15,"studentTrueHypers":{"a":2,"b":8},"studentGuess":0.2,"delta":0,"bonus":0.1,"bonusSoFar":0.6,"totalExamples":20},{"rt":21085,"response":{"heads":"8","tails":"8"},"type":"response","condition":"nonSeqPartial","trueTheta":0.5,"classrooms":["C","D"],"studentTrueClassroom":"C","exampleSet":"first","trial_type":"survey-html-form","trial_index":134,"time_elapsed":1694781,"internal_node_id":"0.0-133.0-0.0","params":{"nStudents":24,"maxFlips":25,"completionMinutes":45,"basePay":8,"maxBonus":9,"perTrialBonus":0.5,"perTrialBonusThreshold":0.05,"exampleCost":0.02},"classroomParams":{"A":{"a":1,"b":4},"B":{"a":4,"b":1},"C":{"a":2,"b":8},"D":{"a":8,"b":2}},"conditions":["nonSeqFull","nonSeqPartial","seqNoFeedback","seqFeedback"],"classroomPairings":[["A","B"],["C","D"]],"coinWeights":[0.2,0.5,0.8],"subjectId":"AX27MR7AMU52H","assignmentId":"3KKG4CDWKJKA99NPHCADU6GG8DO94U","hitId":"3IH9TRB0FBLK6RLF7MSMKICTGYN1IU","url":"https://gershmanlab.com/experiments/alicia/teaching/experiment/?hitId=3IH9TRB0FBLK6RLF7MSMKICTGYN1IU&workerId=AX27MR7AMU52H&assignmentId=3KKG4CDWKJKA99NPHCADU6GG8DO94U&a=W4KK3&tp_a=W4KK3&b=3KKG4CDWKJKA99NPHCADU6GG8DO94U&tp_b=3KKG4CDWKJKA99NPHCADU6GG8DO94U&c=365633&tp_c=365633","heads":8,"tails":8,"studentIndex":16,"studentTrueHypers":{"a":2,"b":8},"studentGuess":0.38461538461538464,"delta":0.11538461538461536,"totalExamples":16,"bonus":0,"bonusSoFar":0.6},{"rt":11862,"response":{"heads":"10","tails":"2"},"type":"response","condition":"seqFeedback","trueTheta":0.8,"classrooms":["A","B"],"studentTrueClassroom":"A","exampleSet":"first","trial_type":"survey-html-form","trial_index":140,"time_elapsed":1721092,"internal_node_id":"0.0-139.0-0.0","params":{"nStudents":24,"maxFlips":25,"completionMinutes":45,"basePay":8,"maxBonus":9,"perTrialBonus":0.5,"perTrialBonusThreshold":0.05,"exampleCost":0.02},"classroomParams":{"A":{"a":1,"b":4},"B":{"a":4,"b":1},"C":{"a":2,"b":8},"D":{"a":8,"b":2}},"conditions":["nonSeqFull","nonSeqPartial","seqNoFeedback","seqFeedback"],"classroomPairings":[["A","B"],["C","D"]],"coinWeights":[0.2,0.5,0.8],"subjectId":"AX27MR7AMU52H","assignmentId":"3KKG4CDWKJKA99NPHCADU6GG8DO94U","hitId":"3IH9TRB0FBLK6RLF7MSMKICTGYN1IU","url":"https://gershmanlab.com/experiments/alicia/teaching/experiment/?hitId=3IH9TRB0FBLK6RLF7MSMKICTGYN1IU&workerId=AX27MR7AMU52H&assignmentId=3KKG4CDWKJKA99NPHCADU6GG8DO94U&a=W4KK3&tp_a=W4KK3&b=3KKG4CDWKJKA99NPHCADU6GG8DO94U&tp_b=3KKG4CDWKJKA99NPHCADU6GG8DO94U&c=365633&tp_c=365633","heads":10,"tails":2,"studentIndex":17,"studentTrueHypers":{"a":1,"b":4},"studentGuess":0.6470588235294118,"delta":0.15294117647058825,"totalExamples":12,"bonusSoFar":0.6},{"rt":11355,"response":{"heads":"10","tails":"2"},"type":"response","condition":"seqFeedback","trueTheta":0.8,"classrooms":["A","B"],"studentTrueClassroom":"A","exampleSet":"second","trial_type":"survey-html-form","trial_index":144,"time_elapsed":1744051,"internal_node_id":"0.0-143.0-0.0","params":{"nStudents":24,"maxFlips":25,"completionMinutes":45,"basePay":8,"maxBonus":9,"perTrialBonus":0.5,"perTrialBonusThreshold":0.05,"exampleCost":0.02},"classroomParams":{"A":{"a":1,"b":4},"B":{"a":4,"b":1},"C":{"a":2,"b":8},"D":{"a":8,"b":2}},"conditions":["nonSeqFull","nonSeqPartial","seqNoFeedback","seqFeedback"],"classroomPairings":[["A","B"],["C","D"]],"coinWeights":[0.2,0.5,0.8],"subjectId":"AX27MR7AMU52H","assignmentId":"3KKG4CDWKJKA99NPHCADU6GG8DO94U","hitId":"3IH9TRB0FBLK6RLF7MSMKICTGYN1IU","url":"https://gershmanlab.com/experiments/alicia/teaching/experiment/?hitId=3IH9TRB0FBLK6RLF7MSMKICTGYN1IU&workerId=AX27MR7AMU52H&assignmentId=3KKG4CDWKJKA99NPHCADU6GG8DO94U&a=W4KK3&tp_a=W4KK3&b=3KKG4CDWKJKA99NPHCADU6GG8DO94U&tp_b=3KKG4CDWKJKA99NPHCADU6GG8DO94U&c=365633&tp_c=365633","firstResponseHeads":10,"firstResponseTails":2,"secondResponseHeads":10,"secondResponseTails":2,"totalHeads":20,"totalTails":4,"studentIndex":17,"studentTrueHypers":{"a":1,"b":4},"studentGuess":0.7241379310344828,"delta":0.07586206896551728,"bonus":0,"bonusSoFar":0.6,"totalExamples":24},{"rt":40765,"response":{"heads":"25","tails":"0"},"type":"response","condition":"nonSeqFull","trueTheta":0.8,"classrooms":["A","B"],"studentTrueClassroom":"A","exampleSet":"first","trial_type":"survey-html-form","trial_index":150,"time_elapsed":1800187,"internal_node_id":"0.0-149.0-0.0","params":{"nStudents":24,"maxFlips":25,"completionMinutes":45,"basePay":8,"maxBonus":9,"perTrialBonus":0.5,"perTrialBonusThreshold":0.05,"exampleCost":0.02},"classroomParams":{"A":{"a":1,"b":4},"B":{"a":4,"b":1},"C":{"a":2,"b":8},"D":{"a":8,"b":2}},"conditions":["nonSeqFull","nonSeqPartial","seqNoFeedback","seqFeedback"],"classroomPairings":[["A","B"],["C","D"]],"coinWeights":[0.2,0.5,0.8],"subjectId":"AX27MR7AMU52H","assignmentId":"3KKG4CDWKJKA99NPHCADU6GG8DO94U","hitId":"3IH9TRB0FBLK6RLF7MSMKICTGYN1IU","url":"https://gershmanlab.com/experiments/alicia/teaching/experiment/?hitId=3IH9TRB0FBLK6RLF7MSMKICTGYN1IU&workerId=AX27MR7AMU52H&assignmentId=3KKG4CDWKJKA99NPHCADU6GG8DO94U&a=W4KK3&tp_a=W4KK3&b=3KKG4CDWKJKA99NPHCADU6GG8DO94U&tp_b=3KKG4CDWKJKA99NPHCADU6GG8DO94U&c=365633&tp_c=365633","heads":25,"tails":0,"studentIndex":18,"studentTrueHypers":{"a":1,"b":4},"studentGuess":0.8666666666666667,"delta":0.06666666666666665,"totalExamples":25,"bonus":0,"bonusSoFar":0.6},{"rt":46301,"response":{"heads":"12","tails":"2"},"type":"response","condition":"nonSeqFull","trueTheta":0.8,"classrooms":["C","D"],"studentTrueClassroom":"D","exampleSet":"first","trial_type":"survey-html-form","trial_index":156,"time_elapsed":1862082,"internal_node_id":"0.0-155.0-0.0","params":{"nStudents":24,"maxFlips":25,"completionMinutes":45,"basePay":8,"maxBonus":9,"perTrialBonus":0.5,"perTrialBonusThreshold":0.05,"exampleCost":0.02},"classroomParams":{"A":{"a":1,"b":4},"B":{"a":4,"b":1},"C":{"a":2,"b":8},"D":{"a":8,"b":2}},"conditions":["nonSeqFull","nonSeqPartial","seqNoFeedback","seqFeedback"],"classroomPairings":[["A","B"],["C","D"]],"coinWeights":[0.2,0.5,0.8],"subjectId":"AX27MR7AMU52H","assignmentId":"3KKG4CDWKJKA99NPHCADU6GG8DO94U","hitId":"3IH9TRB0FBLK6RLF7MSMKICTGYN1IU","url":"https://gershmanlab.com/experiments/alicia/teaching/experiment/?hitId=3IH9TRB0FBLK6RLF7MSMKICTGYN1IU&workerId=AX27MR7AMU52H&assignmentId=3KKG4CDWKJKA99NPHCADU6GG8DO94U&a=W4KK3&tp_a=W4KK3&b=3KKG4CDWKJKA99NPHCADU6GG8DO94U&tp_b=3KKG4CDWKJKA99NPHCADU6GG8DO94U&c=365633&tp_c=365633","heads":12,"tails":2,"studentIndex":19,"studentTrueHypers":{"a":8,"b":2},"studentGuess":0.8333333333333334,"delta":0.033333333333333326,"totalExamples":14,"bonus":0.22,"bonusSoFar":0.82},{"rt":39669,"response":{"heads":"14","tails":"6"},"type":"response","condition":"nonSeqFull","trueTheta":0.5,"classrooms":["C","D"],"studentTrueClassroom":"C","exampleSet":"first","trial_type":"survey-html-form","trial_index":162,"time_elapsed":1920386,"internal_node_id":"0.0-161.0-0.0","params":{"nStudents":24,"maxFlips":25,"completionMinutes":45,"basePay":8,"maxBonus":9,"perTrialBonus":0.5,"perTrialBonusThreshold":0.05,"exampleCost":0.02},"classroomParams":{"A":{"a":1,"b":4},"B":{"a":4,"b":1},"C":{"a":2,"b":8},"D":{"a":8,"b":2}},"conditions":["nonSeqFull","nonSeqPartial","seqNoFeedback","seqFeedback"],"classroomPairings":[["A","B"],["C","D"]],"coinWeights":[0.2,0.5,0.8],"subjectId":"AX27MR7AMU52H","assignmentId":"3KKG4CDWKJKA99NPHCADU6GG8DO94U","hitId":"3IH9TRB0FBLK6RLF7MSMKICTGYN1IU","url":"https://gershmanlab.com/experiments/alicia/teaching/experiment/?hitId=3IH9TRB0FBLK6RLF7MSMKICTGYN1IU&workerId=AX27MR7AMU52H&assignmentId=3KKG4CDWKJKA99NPHCADU6GG8DO94U&a=W4KK3&tp_a=W4KK3&b=3KKG4CDWKJKA99NPHCADU6GG8DO94U&tp_b=3KKG4CDWKJKA99NPHCADU6GG8DO94U&c=365633&tp_c=365633","heads":14,"tails":6,"studentIndex":20,"studentTrueHypers":{"a":2,"b":8},"studentGuess":0.5333333333333333,"delta":0.033333333333333326,"totalExamples":20,"bonus":0.1,"bonusSoFar":0.92},{"rt":74845,"response":{"heads":"10","tails":"4"},"type":"response","condition":"nonSeqPartial","trueTheta":0.8,"classrooms":["C","D"],"studentTrueClassroom":"D","exampleSet":"first","trial_type":"survey-html-form","trial_index":168,"time_elapsed":2013744,"internal_node_id":"0.0-167.0-0.0","params":{"nStudents":24,"maxFlips":25,"completionMinutes":45,"basePay":8,"maxBonus":9,"perTrialBonus":0.5,"perTrialBonusThreshold":0.05,"exampleCost":0.02},"classroomParams":{"A":{"a":1,"b":4},"B":{"a":4,"b":1},"C":{"a":2,"b":8},"D":{"a":8,"b":2}},"conditions":["nonSeqFull","nonSeqPartial","seqNoFeedback","seqFeedback"],"classroomPairings":[["A","B"],["C","D"]],"coinWeights":[0.2,0.5,0.8],"subjectId":"AX27MR7AMU52H","assignmentId":"3KKG4CDWKJKA99NPHCADU6GG8DO94U","hitId":"3IH9TRB0FBLK6RLF7MSMKICTGYN1IU","url":"https://gershmanlab.com/experiments/alicia/teaching/experiment/?hitId=3IH9TRB0FBLK6RLF7MSMKICTGYN1IU&workerId=AX27MR7AMU52H&assignmentId=3KKG4CDWKJKA99NPHCADU6GG8DO94U&a=W4KK3&tp_a=W4KK3&b=3KKG4CDWKJKA99NPHCADU6GG8DO94U&tp_b=3KKG4CDWKJKA99NPHCADU6GG8DO94U&c=365633&tp_c=365633","heads":10,"tails":4,"studentIndex":21,"studentTrueHypers":{"a":8,"b":2},"studentGuess":0.75,"delta":0.050000000000000044,"totalExamples":14,"bonus":0,"bonusSoFar":0.92},{"rt":19486,"response":{"heads":"9","tails":"7"},"type":"response","condition":"seqFeedback","trueTheta":0.5,"classrooms":["A","B"],"studentTrueClassroom":"B","exampleSet":"first","trial_type":"survey-html-form","trial_index":174,"time_elapsed":2051746,"internal_node_id":"0.0-173.0-0.0","params":{"nStudents":24,"maxFlips":25,"completionMinutes":45,"basePay":8,"maxBonus":9,"perTrialBonus":0.5,"perTrialBonusThreshold":0.05,"exampleCost":0.02},"classroomParams":{"A":{"a":1,"b":4},"B":{"a":4,"b":1},"C":{"a":2,"b":8},"D":{"a":8,"b":2}},"conditions":["nonSeqFull","nonSeqPartial","seqNoFeedback","seqFeedback"],"classroomPairings":[["A","B"],["C","D"]],"coinWeights":[0.2,0.5,0.8],"subjectId":"AX27MR7AMU52H","assignmentId":"3KKG4CDWKJKA99NPHCADU6GG8DO94U","hitId":"3IH9TRB0FBLK6RLF7MSMKICTGYN1IU","url":"https://gershmanlab.com/experiments/alicia/teaching/experiment/?hitId=3IH9TRB0FBLK6RLF7MSMKICTGYN1IU&workerId=AX27MR7AMU52H&assignmentId=3KKG4CDWKJKA99NPHCADU6GG8DO94U&a=W4KK3&tp_a=W4KK3&b=3KKG4CDWKJKA99NPHCADU6GG8DO94U&tp_b=3KKG4CDWKJKA99NPHCADU6GG8DO94U&c=365633&tp_c=365633","heads":9,"tails":7,"studentIndex":22,"studentTrueHypers":{"a":4,"b":1},"studentGuess":0.6190476190476191,"delta":0.11904761904761907,"totalExamples":16,"bonusSoFar":0.92},{"rt":27796,"response":{"heads":"13","tails":"10"},"type":"response","condition":"seqFeedback","trueTheta":0.5,"classrooms":["A","B"],"studentTrueClassroom":"B","exampleSet":"second","trial_type":"survey-html-form","trial_index":178,"time_elapsed":2090451,"internal_node_id":"0.0-177.0-0.0","params":{"nStudents":24,"maxFlips":25,"completionMinutes":45,"basePay":8,"maxBonus":9,"perTrialBonus":0.5,"perTrialBonusThreshold":0.05,"exampleCost":0.02},"classroomParams":{"A":{"a":1,"b":4},"B":{"a":4,"b":1},"C":{"a":2,"b":8},"D":{"a":8,"b":2}},"conditions":["nonSeqFull","nonSeqPartial","seqNoFeedback","seqFeedback"],"classroomPairings":[["A","B"],["C","D"]],"coinWeights":[0.2,0.5,0.8],"subjectId":"AX27MR7AMU52H","assignmentId":"3KKG4CDWKJKA99NPHCADU6GG8DO94U","hitId":"3IH9TRB0FBLK6RLF7MSMKICTGYN1IU","url":"https://gershmanlab.com/experiments/alicia/teaching/experiment/?hitId=3IH9TRB0FBLK6RLF7MSMKICTGYN1IU&workerId=AX27MR7AMU52H&assignmentId=3KKG4CDWKJKA99NPHCADU6GG8DO94U&a=W4KK3&tp_a=W4KK3&b=3KKG4CDWKJKA99NPHCADU6GG8DO94U&tp_b=3KKG4CDWKJKA99NPHCADU6GG8DO94U&c=365633&tp_c=365633","firstResponseHeads":9,"firstResponseTails":7,"secondResponseHeads":13,"secondResponseTails":10,"totalHeads":22,"totalTails":17,"studentIndex":22,"studentTrueHypers":{"a":4,"b":1},"studentGuess":0.5909090909090909,"delta":0.09090909090909094,"bonus":0,"bonusSoFar":0.92,"totalExamples":39},{"rt":32421,"response":{"heads":"13","tails":"10"},"type":"response","condition":"seqNoFeedback","trueTheta":0.8,"classrooms":["A","B"],"studentTrueClassroom":"A","exampleSet":"first","trial_type":"survey-html-form","trial_index":184,"time_elapsed":2137904,"internal_node_id":"0.0-183.0-0.0","params":{"nStudents":24,"maxFlips":25,"completionMinutes":45,"basePay":8,"maxBonus":9,"perTrialBonus":0.5,"perTrialBonusThreshold":0.05,"exampleCost":0.02},"classroomParams":{"A":{"a":1,"b":4},"B":{"a":4,"b":1},"C":{"a":2,"b":8},"D":{"a":8,"b":2}},"conditions":["nonSeqFull","nonSeqPartial","seqNoFeedback","seqFeedback"],"classroomPairings":[["A","B"],["C","D"]],"coinWeights":[0.2,0.5,0.8],"subjectId":"AX27MR7AMU52H","assignmentId":"3KKG4CDWKJKA99NPHCADU6GG8DO94U","hitId":"3IH9TRB0FBLK6RLF7MSMKICTGYN1IU","url":"https://gershmanlab.com/experiments/alicia/teaching/experiment/?hitId=3IH9TRB0FBLK6RLF7MSMKICTGYN1IU&workerId=AX27MR7AMU52H&assignmentId=3KKG4CDWKJKA99NPHCADU6GG8DO94U&a=W4KK3&tp_a=W4KK3&b=3KKG4CDWKJKA99NPHCADU6GG8DO94U&tp_b=3KKG4CDWKJKA99NPHCADU6GG8DO94U&c=365633&tp_c=365633","heads":13,"tails":10,"studentIndex":23,"studentTrueHypers":{"a":1,"b":4},"studentGuess":0.5,"delta":0.30000000000000004,"totalExamples":23,"bonusSoFar":0.92},{"rt":11653,"response":{"heads":"14","tails":"10"},"type":"response","condition":"seqNoFeedback","trueTheta":0.8,"classrooms":["A","B"],"studentTrueClassroom":"A","exampleSet":"second","trial_type":"survey-html-form","trial_index":187,"time_elapsed":2157082,"internal_node_id":"0.0-186.0-0.0","params":{"nStudents":24,"maxFlips":25,"completionMinutes":45,"basePay":8,"maxBonus":9,"perTrialBonus":0.5,"perTrialBonusThreshold":0.05,"exampleCost":0.02},"classroomParams":{"A":{"a":1,"b":4},"B":{"a":4,"b":1},"C":{"a":2,"b":8},"D":{"a":8,"b":2}},"conditions":["nonSeqFull","nonSeqPartial","seqNoFeedback","seqFeedback"],"classroomPairings":[["A","B"],["C","D"]],"coinWeights":[0.2,0.5,0.8],"subjectId":"AX27MR7AMU52H","assignmentId":"3KKG4CDWKJKA99NPHCADU6GG8DO94U","hitId":"3IH9TRB0FBLK6RLF7MSMKICTGYN1IU","url":"https://gershmanlab.com/experiments/alicia/teaching/experiment/?hitId=3IH9TRB0FBLK6RLF7MSMKICTGYN1IU&workerId=AX27MR7AMU52H&assignmentId=3KKG4CDWKJKA99NPHCADU6GG8DO94U&a=W4KK3&tp_a=W4KK3&b=3KKG4CDWKJKA99NPHCADU6GG8DO94U&tp_b=3KKG4CDWKJKA99NPHCADU6GG8DO94U&c=365633&tp_c=365633","firstResponseHeads":13,"firstResponseTails":10,"secondResponseHeads":14,"secondResponseTails":10,"totalHeads":27,"totalTails":20,"studentIndex":23,"studentTrueHypers":{"a":1,"b":4},"studentGuess":0.5384615384615384,"delta":0.2615384615384616,"bonus":0,"bonusSoFar":0.92,"totalExamples":47},{"rt":8245,"response":{"gender":"male","age":"60","understood":"yes","comments":""},"type":"response","trial_type":"survey-html-form","trial_index":191,"time_elapsed":2180081,"internal_node_id":"0.0-191.0","params":{"nStudents":24,"maxFlips":25,"completionMinutes":45,"basePay":8,"maxBonus":9,"perTrialBonus":0.5,"perTrialBonusThreshold":0.05,"exampleCost":0.02},"classroomParams":{"A":{"a":1,"b":4},"B":{"a":4,"b":1},"C":{"a":2,"b":8},"D":{"a":8,"b":2}},"conditions":["nonSeqFull","nonSeqPartial","seqNoFeedback","seqFeedback"],"classroomPairings":[["A","B"],["C","D"]],"coinWeights":[0.2,0.5,0.8],"subjectId":"AX27MR7AMU52H","assignmentId":"3KKG4CDWKJKA99NPHCADU6GG8DO94U","hitId":"3IH9TRB0FBLK6RLF7MSMKICTGYN1IU","url":"https://gershmanlab.com/experiments/alicia/teaching/experiment/?hitId=3IH9TRB0FBLK6RLF7MSMKICTGYN1IU&workerId=AX27MR7AMU52H&assignmentId=3KKG4CDWKJKA99NPHCADU6GG8DO94U&a=W4KK3&tp_a=W4KK3&b=3KKG4CDWKJKA99NPHCADU6GG8DO94U&tp_b=3KKG4CDWKJKA99NPHCADU6GG8DO94U&c=365633&tp_c=365633","totalBonus":0.92}]