[{"rt":41391,"response":{"heads":"5","tails":"5"},"type":"response","condition":"nonSeqPartial","trueTheta":0.5,"classrooms":["A","B"],"studentTrueClassroom":"B","exampleSet":"first","trial_type":"survey-html-form","trial_index":7,"time_elapsed":226915,"internal_node_id":"0.0-6.0-0.0","params":{"nStudents":24,"maxExamples":40,"completionMinutes":45,"basePay":8,"maxBonus":9,"perTrialBonus":0.5,"perTrialBonusThreshold":0.08,"exampleCost":0.01},"classroomParams":{"A":{"a":1,"b":4},"B":{"a":4,"b":1},"C":{"a":2,"b":8},"D":{"a":8,"b":2}},"conditions":["nonSeqFull","nonSeqPartial","seqNoFeedback","seqFeedback"],"classroomPairings":[["A","B"],["C","D"]],"coinWeights":[0.2,0.5,0.8],"subjectId":"0drjbtj8pl35","assignmentId":"","hitId":"","url":"https://gershmanlab.com/experiments/alicia/teaching/experiment/","heads":5,"tails":5,"studentIndex":0,"studentTrueHypers":{"a":4,"b":1},"studentGuess":"0.60","delta":0.09999999999999998,"totalExamples":10,"bonus":0,"bonusSoFar":0},{"rt":33178,"response":{"heads":"0","tails":"8"},"type":"response","condition":"nonSeqPartial","trueTheta":0.2,"classrooms":["A","B"],"studentTrueClassroom":"B","exampleSet":"first","trial_type":"survey-html-form","trial_index":13,"time_elapsed":277664,"internal_node_id":"0.0-12.0-0.0","params":{"nStudents":24,"maxExamples":40,"completionMinutes":45,"basePay":8,"maxBonus":9,"perTrialBonus":0.5,"perTrialBonusThreshold":0.08,"exampleCost":0.01},"classroomParams":{"A":{"a":1,"b":4},"B":{"a":4,"b":1},"C":{"a":2,"b":8},"D":{"a":8,"b":2}},"conditions":["nonSeqFull","nonSeqPartial","seqNoFeedback","seqFeedback"],"classroomPairings":[["A","B"],["C","D"]],"coinWeights":[0.2,0.5,0.8],"subjectId":"0drjbtj8pl35","assignmentId":"","hitId":"","url":"https://gershmanlab.com/experiments/alicia/teaching/experiment/","heads":0,"tails":8,"studentIndex":1,"studentTrueHypers":{"a":4,"b":1},"studentGuess":"0.31","delta":0.10999999999999999,"totalExamples":8,"bonus":0,"bonusSoFar":0},{"rt":12049,"response":{"heads":"0","tails":"0"},"type":"response","condition":"nonSeqFull","trueTheta":0.2,"classrooms":["A","B"],"studentTrueClassroom":"A","exampleSet":"first","trial_type":"survey-html-form","trial_index":19,"time_elapsed":312461,"internal_node_id":"0.0-18.0-0.0","params":{"nStudents":24,"maxExamples":40,"completionMinutes":45,"basePay":8,"maxBonus":9,"perTrialBonus":0.5,"perTrialBonusThreshold":0.08,"exampleCost":0.01},"classroomParams":{"A":{"a":1,"b":4},"B":{"a":4,"b":1},"C":{"a":2,"b":8},"D":{"a":8,"b":2}},"conditions":["nonSeqFull","nonSeqPartial","seqNoFeedback","seqFeedback"],"classroomPairings":[["A","B"],["C","D"]],"coinWeights":[0.2,0.5,0.8],"subjectId":"0drjbtj8pl35","assignmentId":"","hitId":"","url":"https://gershmanlab.com/experiments/alicia/teaching/experiment/","heads":0,"tails":0,"studentIndex":2,"studentTrueHypers":{"a":1,"b":4},"studentGuess":"0.20","delta":0,"totalExamples":0,"bonus":0.5,"bonusSoFar":0.5},{"rt":1086,"response":{"heads":"0","tails":"0"},"type":"response","condition":"nonSeqFull","trueTheta":0.2,"classrooms":["A","B"],"studentTrueClassroom":"A","exampleSet":"first","trial_type":"survey-html-form","trial_index":20,"time_elapsed":313554,"internal_node_id":"0.0-18.1-0.1","params":{"nStudents":24,"maxExamples":40,"completionMinutes":45,"basePay":8,"maxBonus":9,"perTrialBonus":0.5,"perTrialBonusThreshold":0.08,"exampleCost":0.01},"classroomParams":{"A":{"a":1,"b":4},"B":{"a":4,"b":1},"C":{"a":2,"b":8},"D":{"a":8,"b":2}},"conditions":["nonSeqFull","nonSeqPartial","seqNoFeedback","seqFeedback"],"classroomPairings":[["A","B"],["C","D"]],"coinWeights":[0.2,0.5,0.8],"subjectId":"0drjbtj8pl35","assignmentId":"","hitId":"","url":"https://gershmanlab.com/experiments/alicia/teaching/experiment/","heads":0,"tails":0,"studentIndex":2,"studentTrueHypers":{"a":1,"b":4},"studentGuess":"0.20","delta":0,"totalExamples":0,"bonus":0.5,"bonusSoFar":1},{"rt":4961,"response":{"heads":"0","tails":"0"},"type":"response","condition":"nonSeqFull","trueTheta":0.2,"classrooms":["A","B"],"studentTrueClassroom":"A","exampleSet":"first","trial_type":"survey-html-form","trial_index":21,"time_elapsed":318518,"internal_node_id":"0.0-18.2-0.2","params":{"nStudents":24,"maxExamples":40,"completionMinutes":45,"basePay":8,"maxBonus":9,"perTrialBonus":0.5,"perTrialBonusThreshold":0.08,"exampleCost":0.01},"classroomParams":{"A":{"a":1,"b":4},"B":{"a":4,"b":1},"C":{"a":2,"b":8},"D":{"a":8,"b":2}},"conditions":["nonSeqFull","nonSeqPartial","seqNoFeedback","seqFeedback"],"classroomPairings":[["A","B"],["C","D"]],"coinWeights":[0.2,0.5,0.8],"subjectId":"0drjbtj8pl35","assignmentId":"","hitId":"","url":"https://gershmanlab.com/experiments/alicia/teaching/experiment/","heads":0,"tails":0,"studentIndex":2,"studentTrueHypers":{"a":1,"b":4},"studentGuess":"0.20","delta":0,"totalExamples":0,"bonus":0.5,"bonusSoFar":1.5},{"rt":1524,"response":{"heads":"0","tails":"0"},"type":"response","condition":"nonSeqFull","trueTheta":0.2,"classrooms":["A","B"],"studentTrueClassroom":"A","exampleSet":"first","trial_type":"survey-html-form","trial_index":22,"time_elapsed":320047,"internal_node_id":"0.0-18.3-0.3","params":{"nStudents":24,"maxExamples":40,"completionMinutes":45,"basePay":8,"maxBonus":9,"perTrialBonus":0.5,"perTrialBonusThreshold":0.08,"exampleCost":0.01},"classroomParams":{"A":{"a":1,"b":4},"B":{"a":4,"b":1},"C":{"a":2,"b":8},"D":{"a":8,"b":2}},"conditions":["nonSeqFull","nonSeqPartial","seqNoFeedback","seqFeedback"],"classroomPairings":[["A","B"],["C","D"]],"coinWeights":[0.2,0.5,0.8],"subjectId":"0drjbtj8pl35","assignmentId":"","hitId":"","url":"https://gershmanlab.com/experiments/alicia/teaching/experiment/","heads":0,"tails":0,"studentIndex":2,"studentTrueHypers":{"a":1,"b":4},"studentGuess":"0.20","delta":0,"totalExamples":0,"bonus":0.5,"bonusSoFar":2},{"rt":9152,"response":{"heads":"1","tails":"4"},"type":"response","condition":"nonSeqFull","trueTheta":0.2,"classrooms":["A","B"],"studentTrueClassroom":"A","exampleSet":"first","trial_type":"survey-html-form","trial_index":23,"time_elapsed":329203,"internal_node_id":"0.0-18.4-0.4","params":{"nStudents":24,"maxExamples":40,"completionMinutes":45,"basePay":8,"maxBonus":9,"perTrialBonus":0.5,"perTrialBonusThreshold":0.08,"exampleCost":0.01},"classroomParams":{"A":{"a":1,"b":4},"B":{"a":4,"b":1},"C":{"a":2,"b":8},"D":{"a":8,"b":2}},"conditions":["nonSeqFull","nonSeqPartial","seqNoFeedback","seqFeedback"],"classroomPairings":[["A","B"],["C","D"]],"coinWeights":[0.2,0.5,0.8],"subjectId":"0drjbtj8pl35","assignmentId":"","hitId":"","url":"https://gershmanlab.com/experiments/alicia/teaching/experiment/","heads":1,"tails":4,"studentIndex":2,"studentTrueHypers":{"a":1,"b":4},"studentGuess":"0.20","delta":0,"totalExamples":5,"bonus":0.45,"bonusSoFar":2.45},{"rt":19873,"response":{"heads":"10","tails":"10"},"type":"response","condition":"seqNoFeedback","trueTheta":0.5,"classrooms":["C","D"],"studentTrueClassroom":"D","exampleSet":"first","trial_type":"survey-html-form","trial_index":29,"time_elapsed":370090,"internal_node_id":"0.0-24.0-0.0","params":{"nStudents":24,"maxExamples":40,"completionMinutes":45,"basePay":8,"maxBonus":9,"perTrialBonus":0.5,"perTrialBonusThreshold":0.08,"exampleCost":0.01},"classroomParams":{"A":{"a":1,"b":4},"B":{"a":4,"b":1},"C":{"a":2,"b":8},"D":{"a":8,"b":2}},"conditions":["nonSeqFull","nonSeqPartial","seqNoFeedback","seqFeedback"],"classroomPairings":[["A","B"],["C","D"]],"coinWeights":[0.2,0.5,0.8],"subjectId":"0drjbtj8pl35","assignmentId":"","hitId":"","url":"https://gershmanlab.com/experiments/alicia/teaching/experiment/","heads":10,"tails":10,"studentIndex":3,"studentTrueHypers":{"a":8,"b":2},"studentGuess":"0.60","delta":0.09999999999999998,"totalExamples":20,"bonusSoFar":2.45},{"rt":22126,"response":{"heads":"5","tails":"5"},"type":"response","condition":"seqNoFeedback","trueTheta":0.5,"classrooms":["C","D"],"studentTrueClassroom":"D","exampleSet":"second","trial_type":"survey-html-form","trial_index":32,"time_elapsed":398747,"internal_node_id":"0.0-27.0-0.0","params":{"nStudents":24,"maxExamples":40,"completionMinutes":45,"basePay":8,"maxBonus":9,"perTrialBonus":0.5,"perTrialBonusThreshold":0.08,"exampleCost":0.01},"classroomParams":{"A":{"a":1,"b":4},"B":{"a":4,"b":1},"C":{"a":2,"b":8},"D":{"a":8,"b":2}},"conditions":["nonSeqFull","nonSeqPartial","seqNoFeedback","seqFeedback"],"classroomPairings":[["A","B"],["C","D"]],"coinWeights":[0.2,0.5,0.8],"subjectId":"0drjbtj8pl35","assignmentId":"","hitId":"","url":"https://gershmanlab.com/experiments/alicia/teaching/experiment/","firstResponseHeads":10,"firstResponseTails":10,"secondResponseHeads":5,"secondResponseTails":5,"totalHeads":15,"totalTails":15,"studentIndex":3,"studentTrueHypers":{"a":8,"b":2},"studentGuess":"0.57","delta":0.06999999999999995,"bonus":0.2,"bonusSoFar":2.65,"totalExamples":30},{"rt":31102,"response":{"heads":"8","tails":"2"},"type":"response","condition":"seqNoFeedback","trueTheta":0.5,"classrooms":["A","B"],"studentTrueClassroom":"B","exampleSet":"first","trial_type":"survey-html-form","trial_index":38,"time_elapsed":451356,"internal_node_id":"0.0-33.0-0.0","params":{"nStudents":24,"maxExamples":40,"completionMinutes":45,"basePay":8,"maxBonus":9,"perTrialBonus":0.5,"perTrialBonusThreshold":0.08,"exampleCost":0.01},"classroomParams":{"A":{"a":1,"b":4},"B":{"a":4,"b":1},"C":{"a":2,"b":8},"D":{"a":8,"b":2}},"conditions":["nonSeqFull","nonSeqPartial","seqNoFeedback","seqFeedback"],"classroomPairings":[["A","B"],["C","D"]],"coinWeights":[0.2,0.5,0.8],"subjectId":"0drjbtj8pl35","assignmentId":"","hitId":"","url":"https://gershmanlab.com/experiments/alicia/teaching/experiment/","heads":8,"tails":2,"studentIndex":4,"studentTrueHypers":{"a":4,"b":1},"studentGuess":"0.80","delta":0.30000000000000004,"totalExamples":10,"bonusSoFar":2.65},{"rt":5917,"response":{"heads":"2","tails":"8"},"type":"response","condition":"seqNoFeedback","trueTheta":0.5,"classrooms":["A","B"],"studentTrueClassroom":"B","exampleSet":"second","trial_type":"survey-html-form","trial_index":41,"time_elapsed":464287,"internal_node_id":"0.0-36.0-0.0","params":{"nStudents":24,"maxExamples":40,"completionMinutes":45,"basePay":8,"maxBonus":9,"perTrialBonus":0.5,"perTrialBonusThreshold":0.08,"exampleCost":0.01},"classroomParams":{"A":{"a":1,"b":4},"B":{"a":4,"b":1},"C":{"a":2,"b":8},"D":{"a":8,"b":2}},"conditions":["nonSeqFull","nonSeqPartial","seqNoFeedback","seqFeedback"],"classroomPairings":[["A","B"],["C","D"]],"coinWeights":[0.2,0.5,0.8],"subjectId":"0drjbtj8pl35","assignmentId":"","hitId":"","url":"https://gershmanlab.com/experiments/alicia/teaching/experiment/","firstResponseHeads":8,"firstResponseTails":2,"secondResponseHeads":2,"secondResponseTails":8,"totalHeads":10,"totalTails":10,"studentIndex":4,"studentTrueHypers":{"a":4,"b":1},"studentGuess":"0.56","delta":0.06000000000000005,"bonus":0.3,"bonusSoFar":2.95,"totalExamples":20},{"rt":13868,"response":{"heads":"0","tails":"15"},"type":"response","condition":"seqFeedback","trueTheta":0.2,"classrooms":["C","D"],"studentTrueClassroom":"C","exampleSet":"first","trial_type":"survey-html-form","trial_index":47,"time_elapsed":498972,"internal_node_id":"0.0-42.0-0.0","params":{"nStudents":24,"maxExamples":40,"completionMinutes":45,"basePay":8,"maxBonus":9,"perTrialBonus":0.5,"perTrialBonusThreshold":0.08,"exampleCost":0.01},"classroomParams":{"A":{"a":1,"b":4},"B":{"a":4,"b":1},"C":{"a":2,"b":8},"D":{"a":8,"b":2}},"conditions":["nonSeqFull","nonSeqPartial","seqNoFeedback","seqFeedback"],"classroomPairings":[["A","B"],["C","D"]],"coinWeights":[0.2,0.5,0.8],"subjectId":"0drjbtj8pl35","assignmentId":"","hitId":"","url":"https://gershmanlab.com/experiments/alicia/teaching/experiment/","heads":0,"tails":15,"studentIndex":5,"studentTrueHypers":{"a":2,"b":8},"studentGuess":"0.08","delta":0.12000000000000001,"totalExamples":15,"bonusSoFar":2.95},{"rt":16836,"response":{"heads":"2","tails":"7"},"type":"response","condition":"seqFeedback","trueTheta":0.2,"classrooms":["C","D"],"studentTrueClassroom":"C","exampleSet":"second","trial_type":"survey-html-form","trial_index":51,"time_elapsed":527935,"internal_node_id":"0.0-46.0-0.0","params":{"nStudents":24,"maxExamples":40,"completionMinutes":45,"basePay":8,"maxBonus":9,"perTrialBonus":0.5,"perTrialBonusThreshold":0.08,"exampleCost":0.01},"classroomParams":{"A":{"a":1,"b":4},"B":{"a":4,"b":1},"C":{"a":2,"b":8},"D":{"a":8,"b":2}},"conditions":["nonSeqFull","nonSeqPartial","seqNoFeedback","seqFeedback"],"classroomPairings":[["A","B"],["C","D"]],"coinWeights":[0.2,0.5,0.8],"subjectId":"0drjbtj8pl35","assignmentId":"","hitId":"","url":"https://gershmanlab.com/experiments/alicia/teaching/experiment/","firstResponseHeads":0,"firstResponseTails":15,"secondResponseHeads":2,"secondResponseTails":7,"totalHeads":2,"totalTails":22,"studentIndex":5,"studentTrueHypers":{"a":2,"b":8},"studentGuess":"0.12","delta":0.08000000000000002,"bonus":0,"bonusSoFar":2.95,"totalExamples":24},{"rt":8191,"response":{"heads":"0","tails":"0"},"type":"response","condition":"nonSeqFull","trueTheta":0.2,"classrooms":["C","D"],"studentTrueClassroom":"C","exampleSet":"first","trial_type":"survey-html-form","trial_index":57,"time_elapsed":554331,"internal_node_id":"0.0-52.0-0.0","params":{"nStudents":24,"maxExamples":40,"completionMinutes":45,"basePay":8,"maxBonus":9,"perTrialBonus":0.5,"perTrialBonusThreshold":0.08,"exampleCost":0.01},"classroomParams":{"A":{"a":1,"b":4},"B":{"a":4,"b":1},"C":{"a":2,"b":8},"D":{"a":8,"b":2}},"conditions":["nonSeqFull","nonSeqPartial","seqNoFeedback","seqFeedback"],"classroomPairings":[["A","B"],["C","D"]],"coinWeights":[0.2,0.5,0.8],"subjectId":"0drjbtj8pl35","assignmentId":"","hitId":"","url":"https://gershmanlab.com/experiments/alicia/teaching/experiment/","heads":0,"tails":0,"studentIndex":6,"studentTrueHypers":{"a":2,"b":8},"studentGuess":"0.20","delta":0,"totalExamples":0,"bonus":0.5,"bonusSoFar":3.45},{"rt":6696,"response":{"heads":"1","tails":"4"},"type":"response","condition":"nonSeqFull","trueTheta":0.2,"classrooms":["C","D"],"studentTrueClassroom":"C","exampleSet":"first","trial_type":"survey-html-form","trial_index":58,"time_elapsed":561029,"internal_node_id":"0.0-52.1-0.1","params":{"nStudents":24,"maxExamples":40,"completionMinutes":45,"basePay":8,"maxBonus":9,"perTrialBonus":0.5,"perTrialBonusThreshold":0.08,"exampleCost":0.01},"classroomParams":{"A":{"a":1,"b":4},"B":{"a":4,"b":1},"C":{"a":2,"b":8},"D":{"a":8,"b":2}},"conditions":["nonSeqFull","nonSeqPartial","seqNoFeedback","seqFeedback"],"classroomPairings":[["A","B"],["C","D"]],"coinWeights":[0.2,0.5,0.8],"subjectId":"0drjbtj8pl35","assignmentId":"","hitId":"","url":"https://gershmanlab.com/experiments/alicia/teaching/experiment/","heads":1,"tails":4,"studentIndex":6,"studentTrueHypers":{"a":2,"b":8},"studentGuess":"0.20","delta":0,"totalExamples":5,"bonus":0.45,"bonusSoFar":3.9},{"rt":8315,"response":{"heads":"10","tails":"0"},"type":"response","condition":"seqFeedback","trueTheta":0.8,"classrooms":["C","D"],"studentTrueClassroom":"C","exampleSet":"first","trial_type":"survey-html-form","trial_index":64,"time_elapsed":588593,"internal_node_id":"0.0-58.0-0.0","params":{"nStudents":24,"maxExamples":40,"completionMinutes":45,"basePay":8,"maxBonus":9,"perTrialBonus":0.5,"perTrialBonusThreshold":0.08,"exampleCost":0.01},"classroomParams":{"A":{"a":1,"b":4},"B":{"a":4,"b":1},"C":{"a":2,"b":8},"D":{"a":8,"b":2}},"conditions":["nonSeqFull","nonSeqPartial","seqNoFeedback","seqFeedback"],"classroomPairings":[["A","B"],["C","D"]],"coinWeights":[0.2,0.5,0.8],"subjectId":"0drjbtj8pl35","assignmentId":"","hitId":"","url":"https://gershmanlab.com/experiments/alicia/teaching/experiment/","heads":10,"tails":0,"studentIndex":7,"studentTrueHypers":{"a":2,"b":8},"studentGuess":"0.60","delta":0.20000000000000007,"totalExamples":10,"bonusSoFar":3.9},{"rt":11595,"response":{"heads":"10","tails":"0"},"type":"response","condition":"seqFeedback","trueTheta":0.8,"classrooms":["C","D"],"studentTrueClassroom":"C","exampleSet":"second","trial_type":"survey-html-form","trial_index":68,"time_elapsed":610146,"internal_node_id":"0.0-62.0-0.0","params":{"nStudents":24,"maxExamples":40,"completionMinutes":45,"basePay":8,"maxBonus":9,"perTrialBonus":0.5,"perTrialBonusThreshold":0.08,"exampleCost":0.01},"classroomParams":{"A":{"a":1,"b":4},"B":{"a":4,"b":1},"C":{"a":2,"b":8},"D":{"a":8,"b":2}},"conditions":["nonSeqFull","nonSeqPartial","seqNoFeedback","seqFeedback"],"classroomPairings":[["A","B"],["C","D"]],"coinWeights":[0.2,0.5,0.8],"subjectId":"0drjbtj8pl35","assignmentId":"","hitId":"","url":"https://gershmanlab.com/experiments/alicia/teaching/experiment/","firstResponseHeads":10,"firstResponseTails":0,"secondResponseHeads":10,"secondResponseTails":0,"totalHeads":20,"totalTails":0,"studentIndex":7,"studentTrueHypers":{"a":2,"b":8},"studentGuess":"0.73","delta":0.07000000000000006,"bonus":0.3,"bonusSoFar":4.2,"totalExamples":20},{"rt":37964,"response":{"heads":"30","tails":"0"},"type":"response","condition":"nonSeqFull","trueTheta":0.8,"classrooms":["C","D"],"studentTrueClassroom":"C","exampleSet":"first","trial_type":"survey-html-form","trial_index":74,"time_elapsed":667535,"internal_node_id":"0.0-68.0-0.0","params":{"nStudents":24,"maxExamples":40,"completionMinutes":45,"basePay":8,"maxBonus":9,"perTrialBonus":0.5,"perTrialBonusThreshold":0.08,"exampleCost":0.01},"classroomParams":{"A":{"a":1,"b":4},"B":{"a":4,"b":1},"C":{"a":2,"b":8},"D":{"a":8,"b":2}},"conditions":["nonSeqFull","nonSeqPartial","seqNoFeedback","seqFeedback"],"classroomPairings":[["A","B"],["C","D"]],"coinWeights":[0.2,0.5,0.8],"subjectId":"0drjbtj8pl35","assignmentId":"","hitId":"","url":"https://gershmanlab.com/experiments/alicia/teaching/experiment/","heads":30,"tails":0,"studentIndex":8,"studentTrueHypers":{"a":2,"b":8},"studentGuess":"0.80","delta":0,"totalExamples":30,"bonus":0.2,"bonusSoFar":4.4},{"rt":33733,"response":{"heads":"15","tails":"0"},"type":"response","condition":"nonSeqPartial","trueTheta":0.8,"classrooms":["C","D"],"studentTrueClassroom":"D","exampleSet":"first","trial_type":"survey-html-form","trial_index":80,"time_elapsed":737230,"internal_node_id":"0.0-74.0-0.0","params":{"nStudents":24,"maxExamples":40,"completionMinutes":45,"basePay":8,"maxBonus":9,"perTrialBonus":0.5,"perTrialBonusThreshold":0.08,"exampleCost":0.01},"classroomParams":{"A":{"a":1,"b":4},"B":{"a":4,"b":1},"C":{"a":2,"b":8},"D":{"a":8,"b":2}},"conditions":["nonSeqFull","nonSeqPartial","seqNoFeedback","seqFeedback"],"classroomPairings":[["A","B"],["C","D"]],"coinWeights":[0.2,0.5,0.8],"subjectId":"0drjbtj8pl35","assignmentId":"","hitId":"","url":"https://gershmanlab.com/experiments/alicia/teaching/experiment/","heads":15,"tails":0,"studentIndex":9,"studentTrueHypers":{"a":8,"b":2},"studentGuess":"0.92","delta":0.12,"totalExamples":15,"bonus":0,"bonusSoFar":4.4},{"rt":19577,"response":{"heads":"14","tails":"0"},"type":"response","condition":"nonSeqPartial","trueTheta":0.8,"classrooms":["A","B"],"studentTrueClassroom":"B","exampleSet":"first","trial_type":"survey-html-form","trial_index":86,"time_elapsed":771956,"internal_node_id":"0.0-80.0-0.0","params":{"nStudents":24,"maxExamples":40,"completionMinutes":45,"basePay":8,"maxBonus":9,"perTrialBonus":0.5,"perTrialBonusThreshold":0.08,"exampleCost":0.01},"classroomParams":{"A":{"a":1,"b":4},"B":{"a":4,"b":1},"C":{"a":2,"b":8},"D":{"a":8,"b":2}},"conditions":["nonSeqFull","nonSeqPartial","seqNoFeedback","seqFeedback"],"classroomPairings":[["A","B"],["C","D"]],"coinWeights":[0.2,0.5,0.8],"subjectId":"0drjbtj8pl35","assignmentId":"","hitId":"","url":"https://gershmanlab.com/experiments/alicia/teaching/experiment/","heads":14,"tails":0,"studentIndex":10,"studentTrueHypers":{"a":4,"b":1},"studentGuess":"0.95","delta":0.1499999999999999,"totalExamples":14,"bonus":0,"bonusSoFar":4.4},{"rt":27225,"response":{"heads":"0","tails":"5"},"type":"response","condition":"seqNoFeedback","trueTheta":0.2,"classrooms":["A","B"],"studentTrueClassroom":"B","exampleSet":"first","trial_type":"survey-html-form","trial_index":92,"time_elapsed":812323,"internal_node_id":"0.0-86.0-0.0","params":{"nStudents":24,"maxExamples":40,"completionMinutes":45,"basePay":8,"maxBonus":9,"perTrialBonus":0.5,"perTrialBonusThreshold":0.08,"exampleCost":0.01},"classroomParams":{"A":{"a":1,"b":4},"B":{"a":4,"b":1},"C":{"a":2,"b":8},"D":{"a":8,"b":2}},"conditions":["nonSeqFull","nonSeqPartial","seqNoFeedback","seqFeedback"],"classroomPairings":[["A","B"],["C","D"]],"coinWeights":[0.2,0.5,0.8],"subjectId":"0drjbtj8pl35","assignmentId":"","hitId":"","url":"https://gershmanlab.com/experiments/alicia/teaching/experiment/","heads":0,"tails":5,"studentIndex":11,"studentTrueHypers":{"a":4,"b":1},"studentGuess":"0.40","delta":0.2,"totalExamples":5,"bonusSoFar":4.4},{"rt":24018,"response":{"heads":"2","tails":"8"},"type":"response","condition":"seqNoFeedback","trueTheta":0.2,"classrooms":["A","B"],"studentTrueClassroom":"B","exampleSet":"second","trial_type":"survey-html-form","trial_index":95,"time_elapsed":842617,"internal_node_id":"0.0-89.0-0.0","params":{"nStudents":24,"maxExamples":40,"completionMinutes":45,"basePay":8,"maxBonus":9,"perTrialBonus":0.5,"perTrialBonusThreshold":0.08,"exampleCost":0.01},"classroomParams":{"A":{"a":1,"b":4},"B":{"a":4,"b":1},"C":{"a":2,"b":8},"D":{"a":8,"b":2}},"conditions":["nonSeqFull","nonSeqPartial","seqNoFeedback","seqFeedback"],"classroomPairings":[["A","B"],["C","D"]],"coinWeights":[0.2,0.5,0.8],"subjectId":"0drjbtj8pl35","assignmentId":"","hitId":"","url":"https://gershmanlab.com/experiments/alicia/teaching/experiment/","firstResponseHeads":0,"firstResponseTails":5,"secondResponseHeads":2,"secondResponseTails":8,"totalHeads":2,"totalTails":13,"studentIndex":11,"studentTrueHypers":{"a":4,"b":1},"studentGuess":"0.30","delta":0.09999999999999998,"bonus":0,"bonusSoFar":4.4,"totalExamples":15},{"rt":11897,"response":{"heads":"10","tails":"0"},"type":"response","condition":"seqNoFeedback","trueTheta":0.8,"classrooms":["A","B"],"studentTrueClassroom":"B","exampleSet":"first","trial_type":"survey-html-form","trial_index":101,"time_elapsed":872385,"internal_node_id":"0.0-95.0-0.0","params":{"nStudents":24,"maxExamples":40,"completionMinutes":45,"basePay":8,"maxBonus":9,"perTrialBonus":0.5,"perTrialBonusThreshold":0.08,"exampleCost":0.01},"classroomParams":{"A":{"a":1,"b":4},"B":{"a":4,"b":1},"C":{"a":2,"b":8},"D":{"a":8,"b":2}},"conditions":["nonSeqFull","nonSeqPartial","seqNoFeedback","seqFeedback"],"classroomPairings":[["A","B"],["C","D"]],"coinWeights":[0.2,0.5,0.8],"subjectId":"0drjbtj8pl35","assignmentId":"","hitId":"","url":"https://gershmanlab.com/experiments/alicia/teaching/experiment/","heads":10,"tails":0,"studentIndex":12,"studentTrueHypers":{"a":4,"b":1},"studentGuess":"0.93","delta":0.13,"totalExamples":10,"bonusSoFar":4.4},{"rt":13312,"response":{"heads":"16","tails":"4"},"type":"response","condition":"seqNoFeedback","trueTheta":0.8,"classrooms":["A","B"],"studentTrueClassroom":"B","exampleSet":"second","trial_type":"survey-html-form","trial_index":104,"time_elapsed":891718,"internal_node_id":"0.0-98.0-0.0","params":{"nStudents":24,"maxExamples":40,"completionMinutes":45,"basePay":8,"maxBonus":9,"perTrialBonus":0.5,"perTrialBonusThreshold":0.08,"exampleCost":0.01},"classroomParams":{"A":{"a":1,"b":4},"B":{"a":4,"b":1},"C":{"a":2,"b":8},"D":{"a":8,"b":2}},"conditions":["nonSeqFull","nonSeqPartial","seqNoFeedback","seqFeedback"],"classroomPairings":[["A","B"],["C","D"]],"coinWeights":[0.2,0.5,0.8],"subjectId":"0drjbtj8pl35","assignmentId":"","hitId":"","url":"https://gershmanlab.com/experiments/alicia/teaching/experiment/","firstResponseHeads":10,"firstResponseTails":0,"secondResponseHeads":16,"secondResponseTails":4,"totalHeads":26,"totalTails":4,"studentIndex":12,"studentTrueHypers":{"a":4,"b":1},"studentGuess":"0.86","delta":0.05999999999999994,"bonus":0.2,"bonusSoFar":4.6,"totalExamples":30},{"rt":12823,"response":{"heads":"4","tails":"1"},"type":"response","condition":"seqFeedback","trueTheta":0.5,"classrooms":["A","B"],"studentTrueClassroom":"B","exampleSet":"first","trial_type":"survey-html-form","trial_index":110,"time_elapsed":918939,"internal_node_id":"0.0-104.0-0.0","params":{"nStudents":24,"maxExamples":40,"completionMinutes":45,"basePay":8,"maxBonus":9,"perTrialBonus":0.5,"perTrialBonusThreshold":0.08,"exampleCost":0.01},"classroomParams":{"A":{"a":1,"b":4},"B":{"a":4,"b":1},"C":{"a":2,"b":8},"D":{"a":8,"b":2}},"conditions":["nonSeqFull","nonSeqPartial","seqNoFeedback","seqFeedback"],"classroomPairings":[["A","B"],["C","D"]],"coinWeights":[0.2,0.5,0.8],"subjectId":"0drjbtj8pl35","assignmentId":"","hitId":"","url":"https://gershmanlab.com/experiments/alicia/teaching/experiment/","heads":4,"tails":1,"studentIndex":13,"studentTrueHypers":{"a":4,"b":1},"studentGuess":"0.80","delta":0.30000000000000004,"totalExamples":5,"bonusSoFar":4.6},{"rt":6963,"response":{"heads":"2","tails":"8"},"type":"response","condition":"seqFeedback","trueTheta":0.5,"classrooms":["A","B"],"studentTrueClassroom":"B","exampleSet":"second","trial_type":"survey-html-form","trial_index":114,"time_elapsed":934746,"internal_node_id":"0.0-108.0-0.0","params":{"nStudents":24,"maxExamples":40,"completionMinutes":45,"basePay":8,"maxBonus":9,"perTrialBonus":0.5,"perTrialBonusThreshold":0.08,"exampleCost":0.01},"classroomParams":{"A":{"a":1,"b":4},"B":{"a":4,"b":1},"C":{"a":2,"b":8},"D":{"a":8,"b":2}},"conditions":["nonSeqFull","nonSeqPartial","seqNoFeedback","seqFeedback"],"classroomPairings":[["A","B"],["C","D"]],"coinWeights":[0.2,0.5,0.8],"subjectId":"0drjbtj8pl35","assignmentId":"","hitId":"","url":"https://gershmanlab.com/experiments/alicia/teaching/experiment/","firstResponseHeads":4,"firstResponseTails":1,"secondResponseHeads":2,"secondResponseTails":8,"totalHeads":6,"totalTails":9,"studentIndex":13,"studentTrueHypers":{"a":4,"b":1},"studentGuess":"0.50","delta":0,"bonus":0.35,"bonusSoFar":4.95,"totalExamples":15},{"rt":31267,"response":{"heads":"9","tails":"1"},"type":"response","condition":"seqFeedback","trueTheta":0.8,"classrooms":["A","B"],"studentTrueClassroom":"A","exampleSet":"first","trial_type":"survey-html-form","trial_index":120,"time_elapsed":979621,"internal_node_id":"0.0-114.0-0.0","params":{"nStudents":24,"maxExamples":40,"completionMinutes":45,"basePay":8,"maxBonus":9,"perTrialBonus":0.5,"perTrialBonusThreshold":0.08,"exampleCost":0.01},"classroomParams":{"A":{"a":1,"b":4},"B":{"a":4,"b":1},"C":{"a":2,"b":8},"D":{"a":8,"b":2}},"conditions":["nonSeqFull","nonSeqPartial","seqNoFeedback","seqFeedback"],"classroomPairings":[["A","B"],["C","D"]],"coinWeights":[0.2,0.5,0.8],"subjectId":"0drjbtj8pl35","assignmentId":"","hitId":"","url":"https://gershmanlab.com/experiments/alicia/teaching/experiment/","heads":9,"tails":1,"studentIndex":14,"studentTrueHypers":{"a":1,"b":4},"studentGuess":"0.67","delta":0.13,"totalExamples":10,"bonusSoFar":4.95},{"rt":19857,"response":{"heads":"5","tails":"0"},"type":"response","condition":"seqFeedback","trueTheta":0.8,"classrooms":["A","B"],"studentTrueClassroom":"A","exampleSet":"second","trial_type":"survey-html-form","trial_index":124,"time_elapsed":1010049,"internal_node_id":"0.0-118.0-0.0","params":{"nStudents":24,"maxExamples":40,"completionMinutes":45,"basePay":8,"maxBonus":9,"perTrialBonus":0.5,"perTrialBonusThreshold":0.08,"exampleCost":0.01},"classroomParams":{"A":{"a":1,"b":4},"B":{"a":4,"b":1},"C":{"a":2,"b":8},"D":{"a":8,"b":2}},"conditions":["nonSeqFull","nonSeqPartial","seqNoFeedback","seqFeedback"],"classroomPairings":[["A","B"],["C","D"]],"coinWeights":[0.2,0.5,0.8],"subjectId":"0drjbtj8pl35","assignmentId":"","hitId":"","url":"https://gershmanlab.com/experiments/alicia/teaching/experiment/","firstResponseHeads":9,"firstResponseTails":1,"secondResponseHeads":5,"secondResponseTails":0,"totalHeads":14,"totalTails":1,"studentIndex":14,"studentTrueHypers":{"a":1,"b":4},"studentGuess":"0.75","delta":0.050000000000000044,"bonus":0.35,"bonusSoFar":5.3,"totalExamples":15},{"rt":21860,"response":{"heads":"20","tails":"0"},"type":"response","condition":"seqNoFeedback","trueTheta":0.8,"classrooms":["C","D"],"studentTrueClassroom":"C","exampleSet":"first","trial_type":"survey-html-form","trial_index":130,"time_elapsed":1049630,"internal_node_id":"0.0-124.0-0.0","params":{"nStudents":24,"maxExamples":40,"completionMinutes":45,"basePay":8,"maxBonus":9,"perTrialBonus":0.5,"perTrialBonusThreshold":0.08,"exampleCost":0.01},"classroomParams":{"A":{"a":1,"b":4},"B":{"a":4,"b":1},"C":{"a":2,"b":8},"D":{"a":8,"b":2}},"conditions":["nonSeqFull","nonSeqPartial","seqNoFeedback","seqFeedback"],"classroomPairings":[["A","B"],["C","D"]],"coinWeights":[0.2,0.5,0.8],"subjectId":"0drjbtj8pl35","assignmentId":"","hitId":"","url":"https://gershmanlab.com/experiments/alicia/teaching/experiment/","heads":20,"tails":0,"studentIndex":15,"studentTrueHypers":{"a":2,"b":8},"studentGuess":"0.73","delta":0.07000000000000006,"totalExamples":20,"bonusSoFar":5.3},{"rt":28702,"response":{"heads":"7","tails":"3"},"type":"response","condition":"seqNoFeedback","trueTheta":0.8,"classrooms":["C","D"],"studentTrueClassroom":"C","exampleSet":"second","trial_type":"survey-html-form","trial_index":133,"time_elapsed":1084850,"internal_node_id":"0.0-127.0-0.0","params":{"nStudents":24,"maxExamples":40,"completionMinutes":45,"basePay":8,"maxBonus":9,"perTrialBonus":0.5,"perTrialBonusThreshold":0.08,"exampleCost":0.01},"classroomParams":{"A":{"a":1,"b":4},"B":{"a":4,"b":1},"C":{"a":2,"b":8},"D":{"a":8,"b":2}},"conditions":["nonSeqFull","nonSeqPartial","seqNoFeedback","seqFeedback"],"classroomPairings":[["A","B"],["C","D"]],"coinWeights":[0.2,0.5,0.8],"subjectId":"0drjbtj8pl35","assignmentId":"","hitId":"","url":"https://gershmanlab.com/experiments/alicia/teaching/experiment/","firstResponseHeads":20,"firstResponseTails":0,"secondResponseHeads":7,"secondResponseTails":3,"totalHeads":27,"totalTails":3,"studentIndex":15,"studentTrueHypers":{"a":2,"b":8},"studentGuess":"0.72","delta":0.08000000000000007,"bonus":0,"bonusSoFar":5.3,"totalExamples":30},{"rt":5510,"response":{"heads":"0","tails":"0"},"type":"response","condition":"nonSeqFull","trueTheta":0.8,"classrooms":["A","B"],"studentTrueClassroom":"B","exampleSet":"first","trial_type":"survey-html-form","trial_index":139,"time_elapsed":1106279,"internal_node_id":"0.0-133.0-0.0","params":{"nStudents":24,"maxExamples":40,"completionMinutes":45,"basePay":8,"maxBonus":9,"perTrialBonus":0.5,"perTrialBonusThreshold":0.08,"exampleCost":0.01},"classroomParams":{"A":{"a":1,"b":4},"B":{"a":4,"b":1},"C":{"a":2,"b":8},"D":{"a":8,"b":2}},"conditions":["nonSeqFull","nonSeqPartial","seqNoFeedback","seqFeedback"],"classroomPairings":[["A","B"],["C","D"]],"coinWeights":[0.2,0.5,0.8],"subjectId":"0drjbtj8pl35","assignmentId":"","hitId":"","url":"https://gershmanlab.com/experiments/alicia/teaching/experiment/","heads":0,"tails":0,"studentIndex":16,"studentTrueHypers":{"a":4,"b":1},"studentGuess":"0.80","delta":0,"totalExamples":0,"bonus":0.5,"bonusSoFar":5.8},{"rt":8822,"response":{"heads":"4","tails":"1"},"type":"response","condition":"nonSeqFull","trueTheta":0.8,"classrooms":["A","B"],"studentTrueClassroom":"B","exampleSet":"first","trial_type":"survey-html-form","trial_index":140,"time_elapsed":1115104,"internal_node_id":"0.0-133.1-0.1","params":{"nStudents":24,"maxExamples":40,"completionMinutes":45,"basePay":8,"maxBonus":9,"perTrialBonus":0.5,"perTrialBonusThreshold":0.08,"exampleCost":0.01},"classroomParams":{"A":{"a":1,"b":4},"B":{"a":4,"b":1},"C":{"a":2,"b":8},"D":{"a":8,"b":2}},"conditions":["nonSeqFull","nonSeqPartial","seqNoFeedback","seqFeedback"],"classroomPairings":[["A","B"],["C","D"]],"coinWeights":[0.2,0.5,0.8],"subjectId":"0drjbtj8pl35","assignmentId":"","hitId":"","url":"https://gershmanlab.com/experiments/alicia/teaching/experiment/","heads":4,"tails":1,"studentIndex":16,"studentTrueHypers":{"a":4,"b":1},"studentGuess":"0.80","delta":0,"totalExamples":5,"bonus":0.45,"bonusSoFar":6.25},{"rt":8592,"response":{"heads":"1","tails":"4"},"type":"response","condition":"nonSeqFull","trueTheta":0.5,"classrooms":["A","B"],"studentTrueClassroom":"B","exampleSet":"first","trial_type":"survey-html-form","trial_index":146,"time_elapsed":1138263,"internal_node_id":"0.0-139.0-0.0","params":{"nStudents":24,"maxExamples":40,"completionMinutes":45,"basePay":8,"maxBonus":9,"perTrialBonus":0.5,"perTrialBonusThreshold":0.08,"exampleCost":0.01},"classroomParams":{"A":{"a":1,"b":4},"B":{"a":4,"b":1},"C":{"a":2,"b":8},"D":{"a":8,"b":2}},"conditions":["nonSeqFull","nonSeqPartial","seqNoFeedback","seqFeedback"],"classroomPairings":[["A","B"],["C","D"]],"coinWeights":[0.2,0.5,0.8],"subjectId":"0drjbtj8pl35","assignmentId":"","hitId":"","url":"https://gershmanlab.com/experiments/alicia/teaching/experiment/","heads":1,"tails":4,"studentIndex":17,"studentTrueHypers":{"a":4,"b":1},"studentGuess":"0.50","delta":0,"totalExamples":5,"bonus":0.45,"bonusSoFar":6.7},{"rt":9960,"response":{"heads":"20","tails":"20"},"type":"response","condition":"nonSeqPartial","trueTheta":0.5,"classrooms":["C","D"],"studentTrueClassroom":"C","exampleSet":"first","trial_type":"survey-html-form","trial_index":152,"time_elapsed":1162354,"internal_node_id":"0.0-145.0-0.0","params":{"nStudents":24,"maxExamples":40,"completionMinutes":45,"basePay":8,"maxBonus":9,"perTrialBonus":0.5,"perTrialBonusThreshold":0.08,"exampleCost":0.01},"classroomParams":{"A":{"a":1,"b":4},"B":{"a":4,"b":1},"C":{"a":2,"b":8},"D":{"a":8,"b":2}},"conditions":["nonSeqFull","nonSeqPartial","seqNoFeedback","seqFeedback"],"classroomPairings":[["A","B"],["C","D"]],"coinWeights":[0.2,0.5,0.8],"subjectId":"0drjbtj8pl35","assignmentId":"","hitId":"","url":"https://gershmanlab.com/experiments/alicia/teaching/experiment/","heads":20,"tails":20,"studentIndex":18,"studentTrueHypers":{"a":2,"b":8},"studentGuess":"0.44","delta":0.06,"totalExamples":40,"bonus":0.1,"bonusSoFar":6.8},{"rt":49994,"response":{"heads":"0","tails":"4"},"type":"response","condition":"seqNoFeedback","trueTheta":0.2,"classrooms":["C","D"],"studentTrueClassroom":"D","exampleSet":"first","trial_type":"survey-html-form","trial_index":158,"time_elapsed":1225379,"internal_node_id":"0.0-151.0-0.0","params":{"nStudents":24,"maxExamples":40,"completionMinutes":45,"basePay":8,"maxBonus":9,"perTrialBonus":0.5,"perTrialBonusThreshold":0.08,"exampleCost":0.01},"classroomParams":{"A":{"a":1,"b":4},"B":{"a":4,"b":1},"C":{"a":2,"b":8},"D":{"a":8,"b":2}},"conditions":["nonSeqFull","nonSeqPartial","seqNoFeedback","seqFeedback"],"classroomPairings":[["A","B"],["C","D"]],"coinWeights":[0.2,0.5,0.8],"subjectId":"0drjbtj8pl35","assignmentId":"","hitId":"","url":"https://gershmanlab.com/experiments/alicia/teaching/experiment/","heads":0,"tails":4,"studentIndex":19,"studentTrueHypers":{"a":8,"b":2},"studentGuess":"0.57","delta":0.36999999999999994,"totalExamples":4,"bonusSoFar":6.8},{"rt":17275,"response":{"heads":"0","tails":"4"},"type":"response","condition":"seqNoFeedback","trueTheta":0.2,"classrooms":["C","D"],"studentTrueClassroom":"D","exampleSet":"second","trial_type":"survey-html-form","trial_index":161,"time_elapsed":1248414,"internal_node_id":"0.0-154.0-0.0","params":{"nStudents":24,"maxExamples":40,"completionMinutes":45,"basePay":8,"maxBonus":9,"perTrialBonus":0.5,"perTrialBonusThreshold":0.08,"exampleCost":0.01},"classroomParams":{"A":{"a":1,"b":4},"B":{"a":4,"b":1},"C":{"a":2,"b":8},"D":{"a":8,"b":2}},"conditions":["nonSeqFull","nonSeqPartial","seqNoFeedback","seqFeedback"],"classroomPairings":[["A","B"],["C","D"]],"coinWeights":[0.2,0.5,0.8],"subjectId":"0drjbtj8pl35","assignmentId":"","hitId":"","url":"https://gershmanlab.com/experiments/alicia/teaching/experiment/","firstResponseHeads":0,"firstResponseTails":4,"secondResponseHeads":0,"secondResponseTails":4,"totalHeads":0,"totalTails":8,"studentIndex":19,"studentTrueHypers":{"a":8,"b":2},"studentGuess":"0.44","delta":0.24,"bonus":0,"bonusSoFar":6.8,"totalExamples":8},{"rt":5622,"response":{"heads":"2","tails":"8"},"type":"response","condition":"nonSeqFull","trueTheta":0.5,"classrooms":["C","D"],"studentTrueClassroom":"D","exampleSet":"first","trial_type":"survey-html-form","trial_index":167,"time_elapsed":1269006,"internal_node_id":"0.0-160.0-0.0","params":{"nStudents":24,"maxExamples":40,"completionMinutes":45,"basePay":8,"maxBonus":9,"perTrialBonus":0.5,"perTrialBonusThreshold":0.08,"exampleCost":0.01},"classroomParams":{"A":{"a":1,"b":4},"B":{"a":4,"b":1},"C":{"a":2,"b":8},"D":{"a":8,"b":2}},"conditions":["nonSeqFull","nonSeqPartial","seqNoFeedback","seqFeedback"],"classroomPairings":[["A","B"],["C","D"]],"coinWeights":[0.2,0.5,0.8],"subjectId":"0drjbtj8pl35","assignmentId":"","hitId":"","url":"https://gershmanlab.com/experiments/alicia/teaching/experiment/","heads":2,"tails":8,"studentIndex":20,"studentTrueHypers":{"a":8,"b":2},"studentGuess":"0.50","delta":0,"totalExamples":10,"bonus":0.4,"bonusSoFar":7.2},{"rt":30148,"response":{"heads":"1","tails":"4"},"type":"response","condition":"seqFeedback","trueTheta":0.5,"classrooms":["C","D"],"studentTrueClassroom":"C","exampleSet":"first","trial_type":"survey-html-form","trial_index":173,"time_elapsed":1322804,"internal_node_id":"0.0-166.0-0.0","params":{"nStudents":24,"maxExamples":40,"completionMinutes":45,"basePay":8,"maxBonus":9,"perTrialBonus":0.5,"perTrialBonusThreshold":0.08,"exampleCost":0.01},"classroomParams":{"A":{"a":1,"b":4},"B":{"a":4,"b":1},"C":{"a":2,"b":8},"D":{"a":8,"b":2}},"conditions":["nonSeqFull","nonSeqPartial","seqNoFeedback","seqFeedback"],"classroomPairings":[["A","B"],["C","D"]],"coinWeights":[0.2,0.5,0.8],"subjectId":"0drjbtj8pl35","assignmentId":"","hitId":"","url":"https://gershmanlab.com/experiments/alicia/teaching/experiment/","heads":1,"tails":4,"studentIndex":21,"studentTrueHypers":{"a":2,"b":8},"studentGuess":"0.20","delta":0.3,"totalExamples":5,"bonusSoFar":7.2},{"rt":16592,"response":{"heads":"12","tails":"3"},"type":"response","condition":"seqFeedback","trueTheta":0.5,"classrooms":["C","D"],"studentTrueClassroom":"C","exampleSet":"second","trial_type":"survey-html-form","trial_index":177,"time_elapsed":1349164,"internal_node_id":"0.0-170.0-0.0","params":{"nStudents":24,"maxExamples":40,"completionMinutes":45,"basePay":8,"maxBonus":9,"perTrialBonus":0.5,"perTrialBonusThreshold":0.08,"exampleCost":0.01},"classroomParams":{"A":{"a":1,"b":4},"B":{"a":4,"b":1},"C":{"a":2,"b":8},"D":{"a":8,"b":2}},"conditions":["nonSeqFull","nonSeqPartial","seqNoFeedback","seqFeedback"],"classroomPairings":[["A","B"],["C","D"]],"coinWeights":[0.2,0.5,0.8],"subjectId":"0drjbtj8pl35","assignmentId":"","hitId":"","url":"https://gershmanlab.com/experiments/alicia/teaching/experiment/","firstResponseHeads":1,"firstResponseTails":4,"secondResponseHeads":12,"secondResponseTails":3,"totalHeads":13,"totalTails":7,"studentIndex":21,"studentTrueHypers":{"a":2,"b":8},"studentGuess":"0.50","delta":0,"bonus":0.3,"bonusSoFar":7.5,"totalExamples":20},{"rt":25993,"response":{"heads":"0","tails":"4"},"type":"response","condition":"seqFeedback","trueTheta":0.2,"classrooms":["A","B"],"studentTrueClassroom":"B","exampleSet":"first","trial_type":"survey-html-form","trial_index":183,"time_elapsed":1387781,"internal_node_id":"0.0-176.0-0.0","params":{"nStudents":24,"maxExamples":40,"completionMinutes":45,"basePay":8,"maxBonus":9,"perTrialBonus":0.5,"perTrialBonusThreshold":0.08,"exampleCost":0.01},"classroomParams":{"A":{"a":1,"b":4},"B":{"a":4,"b":1},"C":{"a":2,"b":8},"D":{"a":8,"b":2}},"conditions":["nonSeqFull","nonSeqPartial","seqNoFeedback","seqFeedback"],"classroomPairings":[["A","B"],["C","D"]],"coinWeights":[0.2,0.5,0.8],"subjectId":"0drjbtj8pl35","assignmentId":"","hitId":"","url":"https://gershmanlab.com/experiments/alicia/teaching/experiment/","heads":0,"tails":4,"studentIndex":22,"studentTrueHypers":{"a":4,"b":1},"studentGuess":"0.44","delta":0.24,"totalExamples":4,"bonusSoFar":7.5},{"rt":45971,"response":{"heads":"0","tails":"11"},"type":"response","condition":"seqFeedback","trueTheta":0.2,"classrooms":["A","B"],"studentTrueClassroom":"B","exampleSet":"second","trial_type":"survey-html-form","trial_index":187,"time_elapsed":1450371,"internal_node_id":"0.0-180.0-0.0","params":{"nStudents":24,"maxExamples":40,"completionMinutes":45,"basePay":8,"maxBonus":9,"perTrialBonus":0.5,"perTrialBonusThreshold":0.08,"exampleCost":0.01},"classroomParams":{"A":{"a":1,"b":4},"B":{"a":4,"b":1},"C":{"a":2,"b":8},"D":{"a":8,"b":2}},"conditions":["nonSeqFull","nonSeqPartial","seqNoFeedback","seqFeedback"],"classroomPairings":[["A","B"],["C","D"]],"coinWeights":[0.2,0.5,0.8],"subjectId":"0drjbtj8pl35","assignmentId":"","hitId":"","url":"https://gershmanlab.com/experiments/alicia/teaching/experiment/","firstResponseHeads":0,"firstResponseTails":4,"secondResponseHeads":0,"secondResponseTails":11,"totalHeads":0,"totalTails":15,"studentIndex":22,"studentTrueHypers":{"a":4,"b":1},"studentGuess":"0.20","delta":0,"bonus":0.35,"bonusSoFar":7.85,"totalExamples":15},{"rt":19803,"response":{"heads":"1","tails":"4"},"type":"response","condition":"nonSeqPartial","trueTheta":0.2,"classrooms":["C","D"],"studentTrueClassroom":"D","exampleSet":"first","trial_type":"survey-html-form","trial_index":193,"time_elapsed":1482963,"internal_node_id":"0.0-186.0-0.0","params":{"nStudents":24,"maxExamples":40,"completionMinutes":45,"basePay":8,"maxBonus":9,"perTrialBonus":0.5,"perTrialBonusThreshold":0.08,"exampleCost":0.01},"classroomParams":{"A":{"a":1,"b":4},"B":{"a":4,"b":1},"C":{"a":2,"b":8},"D":{"a":8,"b":2}},"conditions":["nonSeqFull","nonSeqPartial","seqNoFeedback","seqFeedback"],"classroomPairings":[["A","B"],["C","D"]],"coinWeights":[0.2,0.5,0.8],"subjectId":"0drjbtj8pl35","assignmentId":"","hitId":"","url":"https://gershmanlab.com/experiments/alicia/teaching/experiment/","heads":1,"tails":4,"studentIndex":23,"studentTrueHypers":{"a":8,"b":2},"studentGuess":"0.60","delta":0.39999999999999997,"totalExamples":5,"bonus":0,"bonusSoFar":7.85},{"rt":8076,"response":{"gender":"male","age":"19","understood":"yes","comments":""},"type":"response","trial_type":"survey-html-form","trial_index":197,"time_elapsed":1498527,"internal_node_id":"0.0-191.0","params":{"nStudents":24,"maxExamples":40,"completionMinutes":45,"basePay":8,"maxBonus":9,"perTrialBonus":0.5,"perTrialBonusThreshold":0.08,"exampleCost":0.01},"classroomParams":{"A":{"a":1,"b":4},"B":{"a":4,"b":1},"C":{"a":2,"b":8},"D":{"a":8,"b":2}},"conditions":["nonSeqFull","nonSeqPartial","seqNoFeedback","seqFeedback"],"classroomPairings":[["A","B"],["C","D"]],"coinWeights":[0.2,0.5,0.8],"subjectId":"0drjbtj8pl35","assignmentId":"","hitId":"","url":"https://gershmanlab.com/experiments/alicia/teaching/experiment/","totalBonus":7.85}]